onset	duration	response_time_ms	trial_type	learning_stage	stimulus	response_port
0.0	3.044	3044.2	regulate	Run1	regulate/STIM_000.jpg	100
6.472	1.674	1673.7	regulate	Run1	regulate/STIM_000.jpg	99
11.039	2.489	2488.7	regulate	Run1	regulate/STIM_000.jpg	100
16.096	1.636	1635.8	regulate	Run1	regulate/STIM_000.jpg	99
20.991	1.738	1738.0	regulate	Run1	regulate/STIM_001.jpg	100
26.349	2.5	2499.6	regulate	Run1	regulate/STIM_001.jpg	99
31.728	1.688	1687.5	regulate	Run1	regulate/STIM_001.jpg	99
36.124	2.461	2461.3	regulate	Run1	regulate/STIM_001.jpg	100
41.056	1.622	1621.6	regulate	Run1	regulate/STIM_002.jpg	100
45.748	1.491	1490.7	regulate	Run1	regulate/STIM_002.jpg	100
51.117	1.172	1172.2	regulate	Run1	regulate/STIM_002.jpg	99
54.494	2.288	2287.7	regulate	Run1	regulate/STIM_002.jpg	100
59.783	1.995	1994.7	regulate	Run1	regulate/STIM_003.jpg	100
64.823	2.652	2651.8	regulate	Run1	regulate/STIM_003.jpg	100
70.946	1.469	1469.0	regulate	Run1	regulate/STIM_003.jpg	100
76.439	1.26	1260.4	regulate	Run1	regulate/STIM_003.jpg	100
81.091	2.009	2008.5	regulate	Run1	regulate/STIM_004.jpg	99
85.403	1.794	1793.7	regulate	Run1	regulate/STIM_004.jpg	100
91.227	2.748	2747.8	regulate	Run1	regulate/STIM_004.jpg	99
96.276	1.92	1919.6	regulate	Run1	regulate/STIM_004.jpg	100
100.829	1.608	1608.5	regulate	Run1	regulate/STIM_005.jpg	99
106.351	2.903	2902.6	regulate	Run1	regulate/STIM_005.jpg	100
112.203	2.602	2602.5	regulate	Run1	regulate/STIM_005.jpg	100
117.821	1.91	1910.4	regulate	Run1	regulate/STIM_005.jpg	100
122.335	2.711	2710.7	regulate	Run1	regulate/STIM_006.jpg	100
128.203	2.906	2905.9	regulate	Run1	regulate/STIM_006.jpg	100
133.736	1.24	1240.3	regulate	Run1	regulate/STIM_006.jpg	99
137.546	2.185	2185.4	regulate	Run1	regulate/STIM_006.jpg	100
143.859	1.743	1743.4	regulate	Run1	regulate/STIM_007.jpg	100
148.894	2.068	2068.1	regulate	Run1	regulate/STIM_007.jpg	99
153.382	1.823	1822.6	regulate	Run1	regulate/STIM_007.jpg	99
158.793	1.651	1650.6	regulate	Run1	regulate/STIM_007.jpg	100
163.794	1.46	1459.9	regulate	Run1	regulate/STIM_008.jpg	99
168.208	2.962	2962.2	regulate	Run1	regulate/STIM_008.jpg	100
175.4	2.097	2097.3	regulate	Run1	regulate/STIM_008.jpg	99
180.212	2.53	2529.5	regulate	Run1	regulate/STIM_008.jpg	99
185.135	1.421	1421.4	regulate	Run1	regulate/STIM_009.jpg	100
190.236	2.412	2411.7	regulate	Run1	regulate/STIM_009.jpg	99
196.833	1.857	1857.2	regulate	Run1	regulate/STIM_009.jpg	100
202.8	1.297	1296.8	regulate	Run1	regulate/STIM_009.jpg	100
207.772	2.524	2524.5	regulate	Run1	regulate/STIM_010.jpg	99
213.454	2.765	2765.2	regulate	Run1	regulate/STIM_010.jpg	100
219.191	1.843	1843.4	regulate	Run1	regulate/STIM_010.jpg	99
225.01	1.828	1828.2	regulate	Run1	regulate/STIM_010.jpg	100
229.503	2.039	2039.5	regulate	Run1	regulate/STIM_011.jpg	99
235.697	2.463	2462.7	regulate	Run1	regulate/STIM_011.jpg	100
242.379	2.079	2078.6	regulate	Run1	regulate/STIM_011.jpg	100
247.197	2.559	2558.6	regulate	Run1	regulate/STIM_011.jpg	100
252.627	3.114	3113.6	regulate	Run1	regulate/STIM_012.jpg	99
258.804	2.017	2016.8	regulate	Run1	regulate/STIM_012.jpg	99
263.802	1.776	1776.3	regulate	Run1	regulate/STIM_012.jpg	100
268.75	2.174	2174.2	regulate	Run1	regulate/STIM_012.jpg	99
273.242	2.505	2505.1	regulate	Run1	regulate/STIM_013.jpg	99
278.118	2.133	2132.7	regulate	Run1	regulate/STIM_013.jpg	99
283.314	1.849	1849.1	regulate	Run1	regulate/STIM_013.jpg	99
288.599	1.923	1923.4	regulate	Run1	regulate/STIM_013.jpg	100
294.382	1.78	1779.8	regulate	Run1	regulate/STIM_014.jpg	100
299.062	2.126	2126.3	regulate	Run1	regulate/STIM_014.jpg	99
305.43	2.081	2080.9	regulate	Run1	regulate/STIM_014.jpg	100
311.435	1.623	1622.6	regulate	Run1	regulate/STIM_014.jpg	100
315.842	2.469	2469.2	regulate	Run1	regulate/STIM_015.jpg	100
321.951	1.94	1940.0	regulate	Run1	regulate/STIM_015.jpg	99
326.308	1.836	1836.1	regulate	Run1	regulate/STIM_015.jpg	100
331.809	2.086	2086.3	regulate	Run1	regulate/STIM_015.jpg	100
338.008	2.269	2269.2	regulate	Run1	regulate/STIM_016.jpg	99
343.723	2.451	2450.9	regulate	Run1	regulate/STIM_016.jpg	100
349.775	1.352	1352.2	regulate	Run1	regulate/STIM_016.jpg	100
354.57	1.266	1266.5	regulate	Run1	regulate/STIM_016.jpg	100
358.573	2.721	2720.9	regulate	Run1	regulate/STIM_017.jpg	99
364.926	1.863	1862.6	regulate	Run1	regulate/STIM_017.jpg	99
369.819	1.412	1411.7	regulate	Run1	regulate/STIM_017.jpg	99
374.632	1.493	1492.9	regulate	Run1	regulate/STIM_017.jpg	99
379.552	2.162	2162.2	regulate	Run1	regulate/STIM_018.jpg	99
385.037	2.44	2439.6	regulate	Run1	regulate/STIM_018.jpg	99
390.054	1.466	1465.6	regulate	Run1	regulate/STIM_018.jpg	100
395.211	1.512	1511.6	regulate	Run1	regulate/STIM_018.jpg	99
399.172	2.892	2891.7	regulate	Run1	regulate/STIM_019.jpg	99
405.467	2.749	2749.3	regulate	Run1	regulate/STIM_019.jpg	100
411.322	1.288	1287.6	regulate	Run1	regulate/STIM_019.jpg	99
414.869	2.096	2096.5	regulate	Run1	regulate/STIM_019.jpg	100
419.999	1.994	1994.1	regulate	Run1	regulate/STIM_020.jpg	99
425.49	1.666	1665.9	regulate	Run1	regulate/STIM_020.jpg	100
430.765	2.489	2489.3	regulate	Run1	regulate/STIM_020.jpg	99
436.218	1.693	1693.0	regulate	Run1	regulate/STIM_020.jpg	100
441.837	2.184	2183.8	regulate	Run1	regulate/STIM_021.jpg	99
448.26	2.67	2669.7	regulate	Run1	regulate/STIM_021.jpg	100
455.245	1.248	1247.9	regulate	Run1	regulate/STIM_021.jpg	100
459.46	2.253	2253.3	regulate	Run1	regulate/STIM_021.jpg	100
464.643	1.645	1644.8	regulate	Run1	regulate/STIM_022.jpg	100
469.807	2.387	2386.8	regulate	Run1	regulate/STIM_022.jpg	100
474.967	1.813	1813.2	regulate	Run1	regulate/STIM_022.jpg	99
480.817	1.23	1230.4	regulate	Run1	regulate/STIM_022.jpg	100
485.441	2.484	2484.2	regulate	Run1	regulate/STIM_023.jpg	100
491.404	2.208	2207.5	regulate	Run1	regulate/STIM_023.jpg	99
497.677	1.41	1409.6	regulate	Run1	regulate/STIM_023.jpg	99
502.764	1.259	1259.0	regulate	Run1	regulate/STIM_023.jpg	100
508.099	1.578	1578.3	regulate	Run1	regulate/STIM_024.jpg	100
512.663	1.374	1374.1	regulate	Run1	regulate/STIM_024.jpg	99
517.906	2.188	2187.6	regulate	Run1	regulate/STIM_024.jpg	100
523.867	2.061	2060.6	regulate	Run1	regulate/STIM_024.jpg	99
530.107	2.991	2991.4	regulate	Run1	regulate/STIM_025.jpg	99
537.301	2.284	2284.4	regulate	Run1	regulate/STIM_025.jpg	100
543.711	1.941	1941.2	regulate	Run1	regulate/STIM_025.jpg	99
549.291	1.367	1366.7	regulate	Run1	regulate/STIM_025.jpg	99
553.99	1.463	1463.4	regulate	Run1	regulate/STIM_026.jpg	99
558.08	1.364	1364.4	regulate	Run1	regulate/STIM_026.jpg	100
561.941	2.266	2265.5	regulate	Run1	regulate/STIM_026.jpg	100
567.529	1.323	1323.3	regulate	Run1	regulate/STIM_026.jpg	99
572.247	1.919	1919.4	regulate	Run1	regulate/STIM_027.jpg	99
576.612	2.292	2292.3	regulate	Run1	regulate/STIM_027.jpg	99
582.835	1.925	1924.6	regulate	Run1	regulate/STIM_027.jpg	99
588.293	1.526	1526.5	regulate	Run1	regulate/STIM_027.jpg	100
593.826	2.637	2636.9	regulate	Run1	regulate/STIM_028.jpg	100
599.44	1.954	1954.5	regulate	Run1	regulate/STIM_028.jpg	99
604.96	1.775	1775.1	regulate	Run1	regulate/STIM_028.jpg	100
610.089	1.826	1825.5	regulate	Run1	regulate/STIM_028.jpg	99
616.123	2.247	2246.7	regulate	Run1	regulate/STIM_029.jpg	100
620.994	2.898	2897.5	regulate	Run1	regulate/STIM_029.jpg	100
627.888	1.327	1326.8	regulate	Run1	regulate/STIM_029.jpg	99
632.181	2.126	2125.7	regulate	Run1	regulate/STIM_029.jpg	100
638.399	0.942	942.4	observe	Run1	observe/STIM_000.jpg	99
643.25	1.302	1302.4	observe	Run1	observe/STIM_000.jpg	100
647.348	1.308	1308.2	observe	Run1	observe/STIM_000.jpg	99
652.474	0.984	984.5	observe	Run1	observe/STIM_000.jpg	99
655.975	1.374	1374.1	observe	Run1	observe/STIM_001.jpg	99
659.707	0.91	910.3	observe	Run1	observe/STIM_001.jpg	99
664.061	0.778	778.3	observe	Run1	observe/STIM_001.jpg	99
667.277	0.965	964.8	observe	Run1	observe/STIM_001.jpg	100
670.948	0.861	861.2	observe	Run1	observe/STIM_002.jpg	99
675.663	0.975	974.8	observe	Run1	observe/STIM_002.jpg	100
678.949	1.092	1092.4	observe	Run1	observe/STIM_002.jpg	100
683.674	1.37	1369.5	observe	Run1	observe/STIM_002.jpg	100
688.358	0.982	982.3	observe	Run1	observe/STIM_003.jpg	99
691.691	0.855	855.1	observe	Run1	observe/STIM_003.jpg	99
695.64	1.425	1425.4	observe	Run1	observe/STIM_003.jpg	99
699.307	0.749	748.7	observe	Run1	observe/STIM_003.jpg	99
702.854	1.345	1345.4	observe	Run1	observe/STIM_004.jpg	100
707.542	0.762	762.1	observe	Run1	observe/STIM_004.jpg	99
710.773	0.717	716.8	observe	Run1	observe/STIM_004.jpg	100
714.498	1.33	1330.5	observe	Run1	observe/STIM_004.jpg	100
718.357	1.228	1228.5	observe	Run1	observe/STIM_005.jpg	100
723.095	1.233	1232.6	observe	Run1	observe/STIM_005.jpg	99
727.845	1.088	1087.5	observe	Run1	observe/STIM_005.jpg	99
731.691	0.956	956.5	observe	Run1	observe/STIM_005.jpg	99
734.719	0.806	805.8	observe	Run1	observe/STIM_006.jpg	99
738.013	1.004	1003.6	observe	Run1	observe/STIM_006.jpg	99
741.604	1.252	1251.6	observe	Run1	observe/STIM_006.jpg	100
745.12	1.412	1412.1	observe	Run1	observe/STIM_006.jpg	99
750.665	0.793	793.0	observe	Run1	observe/STIM_007.jpg	100
754.388	1.22	1220.2	observe	Run1	observe/STIM_007.jpg	100
757.937	0.711	710.6	observe	Run1	observe/STIM_007.jpg	99
762.385	1.024	1024.2	observe	Run1	observe/STIM_007.jpg	99
765.81	1.117	1117.1	observe	Run1	observe/STIM_008.jpg	100
769.702	1.017	1017.3	observe	Run1	observe/STIM_008.jpg	100
773.995	1.325	1325.2	observe	Run1	observe/STIM_008.jpg	100
779.446	0.927	927.1	observe	Run1	observe/STIM_008.jpg	99
782.929	1.002	1002.4	observe	Run1	observe/STIM_009.jpg	100
787.571	0.898	898.0	observe	Run1	observe/STIM_009.jpg	100
790.992	1.07	1070.3	observe	Run1	observe/STIM_009.jpg	99
794.824	0.993	993.3	observe	Run1	observe/STIM_009.jpg	100
798.08	1.186	1185.9	observe	Run1	observe/STIM_010.jpg	100
802.462	1.351	1350.6	observe	Run1	observe/STIM_010.jpg	100
807.318	0.849	849.2	observe	Run1	observe/STIM_010.jpg	99
810.863	1.195	1195.3	observe	Run1	observe/STIM_010.jpg	100
815.237	0.959	958.7	observe	Run1	observe/STIM_011.jpg	99
818.652	1.115	1114.7	observe	Run1	observe/STIM_011.jpg	99
822.668	0.899	899.2	observe	Run1	observe/STIM_011.jpg	100
826.852	1.078	1077.7	observe	Run1	observe/STIM_011.jpg	100
830.347	1.245	1244.8	observe	Run1	observe/STIM_012.jpg	100
834.267	0.831	831.4	observe	Run1	observe/STIM_012.jpg	99
837.588	1.195	1194.9	observe	Run1	observe/STIM_012.jpg	99
841.425	1.045	1045.2	observe	Run1	observe/STIM_012.jpg	99
845.735	1.018	1018.4	observe	Run1	observe/STIM_013.jpg	99
850.217	1.284	1283.6	observe	Run1	observe/STIM_013.jpg	99
853.779	1.324	1323.9	observe	Run1	observe/STIM_013.jpg	100
857.449	0.834	834.1	observe	Run1	observe/STIM_013.jpg	99
860.704	0.923	923.3	observe	Run1	observe/STIM_014.jpg	100
864.002	1.2	1199.6	observe	Run1	observe/STIM_014.jpg	100
868.568	0.784	784.2	observe	Run1	observe/STIM_014.jpg	99
871.435	0.891	891.4	observe	Run1	observe/STIM_014.jpg	99
876.242	1.352	1351.9	observe	Run1	observe/STIM_015.jpg	99
880.714	0.865	865.0	observe	Run1	observe/STIM_015.jpg	99
885.403	1.307	1307.4	observe	Run1	observe/STIM_015.jpg	100
889.195	1.113	1113.1	observe	Run1	observe/STIM_015.jpg	100
893.176	1.249	1249.0	observe	Run1	observe/STIM_016.jpg	99
897.013	1.355	1354.7	observe	Run1	observe/STIM_016.jpg	99
902.192	1.137	1137.3	observe	Run1	observe/STIM_016.jpg	100
905.981	1.264	1263.6	observe	Run1	observe/STIM_016.jpg	100
910.187	1.389	1388.7	observe	Run1	observe/STIM_017.jpg	100
915.141	0.787	786.9	observe	Run1	observe/STIM_017.jpg	100
919.909	1.271	1270.6	observe	Run1	observe/STIM_017.jpg	100
924.623	1.203	1203.3	observe	Run1	observe/STIM_017.jpg	100
929.628	1.345	1345.2	observe	Run1	observe/STIM_018.jpg	99
934.236	1.374	1373.9	observe	Run1	observe/STIM_018.jpg	100
938.831	1.324	1324.0	observe	Run1	observe/STIM_018.jpg	100
943.462	1.231	1231.0	observe	Run1	observe/STIM_018.jpg	100
948.059	0.761	760.8	observe	Run1	observe/STIM_019.jpg	99
952.64	1.208	1207.5	observe	Run1	observe/STIM_019.jpg	99
957.105	1.255	1255.2	observe	Run1	observe/STIM_019.jpg	100
960.82	0.784	784.4	observe	Run1	observe/STIM_019.jpg	99
965.627	1.946	1946.2	regulate	Run2	regulate/STIM_000.jpg	99
969.931	1.385	1384.6	regulate	Run2	regulate/STIM_000.jpg	99
975.32	1.975	1974.7	regulate	Run2	regulate/STIM_000.jpg	100
980.786	1.016	1016.1	regulate	Run2	regulate/STIM_000.jpg	100
985.273	1.346	1345.5	regulate	Run2	regulate/STIM_001.jpg	100
990.592	2.346	2346.2	regulate	Run2	regulate/STIM_001.jpg	99
996.631	2.281	2280.6	regulate	Run2	regulate/STIM_001.jpg	99
1001.794	1.211	1211.4	regulate	Run2	regulate/STIM_001.jpg	100
1006.66	1.695	1695.2	regulate	Run2	regulate/STIM_002.jpg	100
1011.727	1.99	1990.3	regulate	Run2	regulate/STIM_002.jpg	100
1016.022	1.984	1984.2	regulate	Run2	regulate/STIM_002.jpg	100
1020.339	1.681	1680.9	regulate	Run2	regulate/STIM_002.jpg	99
1024.276	2.343	2342.9	regulate	Run2	regulate/STIM_003.jpg	99
1029.614	2.432	2432.1	regulate	Run2	regulate/STIM_003.jpg	100
1034.915	1.209	1209.2	regulate	Run2	regulate/STIM_003.jpg	99
1039.474	1.201	1201.0	regulate	Run2	regulate/STIM_003.jpg	100
1043.972	2.269	2269.3	regulate	Run2	regulate/STIM_004.jpg	100
1049.489	2.332	2331.5	regulate	Run2	regulate/STIM_004.jpg	99
1055.537	1.545	1544.8	regulate	Run2	regulate/STIM_004.jpg	99
1060.338	1.596	1596.2	regulate	Run2	regulate/STIM_004.jpg	100
1064.926	1.928	1927.9	regulate	Run2	regulate/STIM_005.jpg	99
1069.652	1.435	1434.7	regulate	Run2	regulate/STIM_005.jpg	99
1075.266	1.553	1553.4	regulate	Run2	regulate/STIM_005.jpg	99
1080.333	1.943	1942.9	regulate	Run2	regulate/STIM_005.jpg	99
1084.618	1.072	1071.7	regulate	Run2	regulate/STIM_006.jpg	100
1088.393	2.407	2407.4	regulate	Run2	regulate/STIM_006.jpg	99
1094.59	2.141	2140.8	regulate	Run2	regulate/STIM_006.jpg	100
1100.843	1.024	1024.1	regulate	Run2	regulate/STIM_006.jpg	100
1104.732	1.238	1238.1	regulate	Run2	regulate/STIM_007.jpg	99
1109.537	2.072	2071.6	regulate	Run2	regulate/STIM_007.jpg	99
1113.879	1.153	1152.8	regulate	Run2	regulate/STIM_007.jpg	100
1117.948	2.104	2104.4	regulate	Run2	regulate/STIM_007.jpg	99
1122.757	2.041	2040.8	regulate	Run2	regulate/STIM_008.jpg	100
1128.101	1.847	1847.4	regulate	Run2	regulate/STIM_008.jpg	100
1133.609	1.821	1821.3	regulate	Run2	regulate/STIM_008.jpg	100
1138.323	1.518	1517.8	regulate	Run2	regulate/STIM_008.jpg	100
1143.425	1.698	1697.7	regulate	Run2	regulate/STIM_009.jpg	100
1148.098	1.413	1412.6	regulate	Run2	regulate/STIM_009.jpg	100
1153.04	2.078	2078.5	regulate	Run2	regulate/STIM_009.jpg	100
1158.505	1.535	1535.2	regulate	Run2	regulate/STIM_009.jpg	100
1162.6	2.393	2393.0	regulate	Run2	regulate/STIM_010.jpg	100
1168.508	1.29	1289.7	regulate	Run2	regulate/STIM_010.jpg	99
1172.678	1.604	1603.6	regulate	Run2	regulate/STIM_010.jpg	99
1176.852	1.243	1243.2	regulate	Run2	regulate/STIM_010.jpg	99
1181.41	1.961	1961.0	regulate	Run2	regulate/STIM_011.jpg	100
1186.242	2.091	2090.9	regulate	Run2	regulate/STIM_011.jpg	100
1192.094	2.26	2259.7	regulate	Run2	regulate/STIM_011.jpg	99
1198.525	1.675	1674.7	regulate	Run2	regulate/STIM_011.jpg	100
1203.37	1.668	1668.4	regulate	Run2	regulate/STIM_012.jpg	100
1207.732	2.046	2046.5	regulate	Run2	regulate/STIM_012.jpg	100
1212.564	1.996	1996.0	regulate	Run2	regulate/STIM_012.jpg	99
1217.303	1.019	1019.0	regulate	Run2	regulate/STIM_012.jpg	100
1222.141	1.601	1600.6	regulate	Run2	regulate/STIM_013.jpg	100
1227.716	1.724	1724.5	regulate	Run2	regulate/STIM_013.jpg	99
1232.125	1.629	1628.8	regulate	Run2	regulate/STIM_013.jpg	100
1236.945	1.204	1204.4	regulate	Run2	regulate/STIM_013.jpg	99
1241.972	1.946	1945.7	regulate	Run2	regulate/STIM_014.jpg	100
1247.184	1.179	1178.9	regulate	Run2	regulate/STIM_014.jpg	100
1252.204	1.216	1216.5	regulate	Run2	regulate/STIM_014.jpg	99
1256.261	1.014	1014.0	regulate	Run2	regulate/STIM_014.jpg	100
1259.861	1.404	1404.4	regulate	Run2	regulate/STIM_015.jpg	99
1264.867	2.518	2517.6	regulate	Run2	regulate/STIM_015.jpg	100
1269.763	1.843	1843.4	regulate	Run2	regulate/STIM_015.jpg	99
1275.504	2.112	2111.9	regulate	Run2	regulate/STIM_015.jpg	99
1281.496	1.457	1457.2	regulate	Run2	regulate/STIM_016.jpg	100
1286.139	1.206	1205.9	regulate	Run2	regulate/STIM_016.jpg	99
1291.542	1.512	1512.1	regulate	Run2	regulate/STIM_016.jpg	100
1295.673	1.631	1630.7	regulate	Run2	regulate/STIM_016.jpg	99
1300.689	1.714	1714.2	regulate	Run2	regulate/STIM_017.jpg	100
1306.08	2.247	2247.3	regulate	Run2	regulate/STIM_017.jpg	100
1310.79	1.732	1731.9	regulate	Run2	regulate/STIM_017.jpg	100
1314.871	2.003	2003.3	regulate	Run2	regulate/STIM_017.jpg	99
1319.27	1.987	1986.9	regulate	Run2	regulate/STIM_018.jpg	100
1324.604	1.228	1228.3	regulate	Run2	regulate/STIM_018.jpg	100
1328.203	1.579	1578.9	regulate	Run2	regulate/STIM_018.jpg	100
1333.396	2.051	2051.1	regulate	Run2	regulate/STIM_018.jpg	99
1338.29	1.69	1690.3	regulate	Run2	regulate/STIM_019.jpg	100
1343.485	2.514	2514.1	regulate	Run2	regulate/STIM_019.jpg	99
1349.569	1.095	1095.1	regulate	Run2	regulate/STIM_019.jpg	100
1354.272	1.651	1650.8	regulate	Run2	regulate/STIM_019.jpg	99
1359.785	2.046	2045.7	regulate	Run2	regulate/STIM_020.jpg	100
1364.764	1.916	1915.9	regulate	Run2	regulate/STIM_020.jpg	100
1370.006	2.2	2199.8	regulate	Run2	regulate/STIM_020.jpg	99
1375.249	1.778	1777.8	regulate	Run2	regulate/STIM_020.jpg	99
1380.252	2.427	2426.8	regulate	Run2	regulate/STIM_021.jpg	99
1385.765	1.073	1073.1	regulate	Run2	regulate/STIM_021.jpg	100
1390.281	2.062	2062.4	regulate	Run2	regulate/STIM_021.jpg	100
1396.493	0.883	882.7	regulate	Run2	regulate/STIM_021.jpg	100
1399.569	1.512	1512.1	regulate	Run2	regulate/STIM_022.jpg	99
1404.061	1.422	1422.1	regulate	Run2	regulate/STIM_022.jpg	99
1409.17	1.516	1515.8	regulate	Run2	regulate/STIM_022.jpg	100
1413.433	1.172	1172.1	regulate	Run2	regulate/STIM_022.jpg	100
1417.792	2.608	2608.4	regulate	Run2	regulate/STIM_023.jpg	100
1424.587	1.363	1362.6	regulate	Run2	regulate/STIM_023.jpg	99
1429.855	1.216	1215.5	regulate	Run2	regulate/STIM_023.jpg	99
1433.701	1.931	1931.3	regulate	Run2	regulate/STIM_023.jpg	99
1439.004	2.585	2585.3	regulate	Run2	regulate/STIM_024.jpg	99
1445.214	1.485	1484.7	regulate	Run2	regulate/STIM_024.jpg	99
1449.906	2.052	2051.9	regulate	Run2	regulate/STIM_024.jpg	99
1454.605	1.08	1079.6	regulate	Run2	regulate/STIM_024.jpg	99
1458.9	2.166	2165.8	regulate	Run2	regulate/STIM_025.jpg	99
1465.329	1.13	1130.5	regulate	Run2	regulate/STIM_025.jpg	100
1470.14	1.142	1142.4	regulate	Run2	regulate/STIM_025.jpg	100
1473.468	1.726	1726.4	regulate	Run2	regulate/STIM_025.jpg	99
1479.001	1.6	1600.3	regulate	Run2	regulate/STIM_026.jpg	100
1483.583	2.081	2080.7	regulate	Run2	regulate/STIM_026.jpg	99
1488.545	1.427	1426.9	regulate	Run2	regulate/STIM_026.jpg	100
1492.759	1.249	1249.3	regulate	Run2	regulate/STIM_026.jpg	99
1497.768	1.912	1911.6	regulate	Run2	regulate/STIM_027.jpg	100
1502.136	1.334	1334.5	regulate	Run2	regulate/STIM_027.jpg	99
1506.897	2.004	2004.1	regulate	Run2	regulate/STIM_027.jpg	99
1511.453	1.788	1788.2	regulate	Run2	regulate/STIM_027.jpg	99
1516.441	1.611	1611.1	regulate	Run2	regulate/STIM_028.jpg	100
1521.626	1.489	1489.0	regulate	Run2	regulate/STIM_028.jpg	100
1526.234	1.478	1477.6	regulate	Run2	regulate/STIM_028.jpg	99
1531.186	1.509	1509.3	regulate	Run2	regulate/STIM_028.jpg	100
1535.382	1.802	1802.1	regulate	Run2	regulate/STIM_029.jpg	100
1540.33	1.64	1639.6	regulate	Run2	regulate/STIM_029.jpg	100
1546.094	1.89	1890.0	regulate	Run2	regulate/STIM_029.jpg	99
1551.386	1.941	1940.9	regulate	Run2	regulate/STIM_029.jpg	99
1556.801	1.099	1099.3	observe	Run2	observe/STIM_000.jpg	100
1561.938	0.917	917.3	observe	Run2	observe/STIM_000.jpg	99
1565.702	0.899	898.8	observe	Run2	observe/STIM_000.jpg	100
1568.726	1.414	1413.5	observe	Run2	observe/STIM_000.jpg	99
1574.248	0.937	937.4	observe	Run2	observe/STIM_001.jpg	99
1578.869	0.793	793.3	observe	Run2	observe/STIM_001.jpg	99
1581.863	0.931	931.4	observe	Run2	observe/STIM_001.jpg	99
1585.218	1.284	1284.1	observe	Run2	observe/STIM_001.jpg	100
1589.219	0.631	631.2	observe	Run2	observe/STIM_002.jpg	100
1594.013	1.464	1463.9	observe	Run2	observe/STIM_002.jpg	100
1597.699	0.974	974.5	observe	Run2	observe/STIM_002.jpg	99
1601.841	1.012	1011.8	observe	Run2	observe/STIM_002.jpg	99
1606.191	1.061	1061.3	observe	Run2	observe/STIM_003.jpg	99
1609.492	1.11	1110.1	observe	Run2	observe/STIM_003.jpg	100
1614.383	1.137	1136.9	observe	Run2	observe/STIM_003.jpg	100
1619.085	0.754	754.4	observe	Run2	observe/STIM_003.jpg	99
1622.144	0.769	768.8	observe	Run2	observe/STIM_004.jpg	99
1626.088	1.212	1211.6	observe	Run2	observe/STIM_004.jpg	99
1631.459	0.749	749.4	observe	Run2	observe/STIM_004.jpg	99
1635.606	1.047	1047.2	observe	Run2	observe/STIM_004.jpg	99
1638.958	0.948	947.5	observe	Run2	observe/STIM_005.jpg	99
1643.247	1.086	1085.9	observe	Run2	observe/STIM_005.jpg	99
1647.225	1.193	1193.2	observe	Run2	observe/STIM_005.jpg	99
1652.161	1.47	1469.5	observe	Run2	observe/STIM_005.jpg	99
1656.41	1.408	1407.6	observe	Run2	observe/STIM_006.jpg	99
1660.832	1.104	1103.6	observe	Run2	observe/STIM_006.jpg	99
1664.146	1.019	1018.8	observe	Run2	observe/STIM_006.jpg	99
1667.491	0.947	947.3	observe	Run2	observe/STIM_006.jpg	99
1670.61	0.822	822.4	observe	Run2	observe/STIM_007.jpg	100
1674.412	1.308	1307.6	observe	Run2	observe/STIM_007.jpg	99
1678.939	1.382	1382.5	observe	Run2	observe/STIM_007.jpg	100
1682.595	0.835	834.7	observe	Run2	observe/STIM_007.jpg	99
1686.211	1.252	1252.3	observe	Run2	observe/STIM_008.jpg	99
1691.3	1.205	1204.6	observe	Run2	observe/STIM_008.jpg	99
1695.872	0.992	991.8	observe	Run2	observe/STIM_008.jpg	100
1700.337	1.368	1368.0	observe	Run2	observe/STIM_008.jpg	100
1704.92	1.234	1234.2	observe	Run2	observe/STIM_009.jpg	99
1709.619	0.987	986.8	observe	Run2	observe/STIM_009.jpg	100
1713.416	1.186	1186.4	observe	Run2	observe/STIM_009.jpg	99
1717.502	0.817	817.1	observe	Run2	observe/STIM_009.jpg	100
1721.258	0.817	817.3	observe	Run2	observe/STIM_010.jpg	99
1725.261	0.936	935.5	observe	Run2	observe/STIM_010.jpg	100
1730.244	0.674	674.4	observe	Run2	observe/STIM_010.jpg	100
1733.755	0.834	834.1	observe	Run2	observe/STIM_010.jpg	99
1737.814	1.372	1371.9	observe	Run2	observe/STIM_011.jpg	100
1742.747	1.358	1358.0	observe	Run2	observe/STIM_011.jpg	99
1747.299	1.378	1378.3	observe	Run2	observe/STIM_011.jpg	99
1751.911	0.672	672.0	observe	Run2	observe/STIM_011.jpg	99
1756.046	1.14	1139.8	observe	Run2	observe/STIM_012.jpg	99
1760.113	0.799	799.1	observe	Run2	observe/STIM_012.jpg	100
1763.318	0.82	820.5	observe	Run2	observe/STIM_012.jpg	99
1766.325	0.713	713.2	observe	Run2	observe/STIM_012.jpg	99
1771.117	1.281	1281.0	observe	Run2	observe/STIM_013.jpg	100
1774.957	1.332	1332.0	observe	Run2	observe/STIM_013.jpg	99
1779.234	0.938	938.3	observe	Run2	observe/STIM_013.jpg	100
1783.813	0.683	683.2	observe	Run2	observe/STIM_013.jpg	100
1788.564	1.486	1485.9	observe	Run2	observe/STIM_014.jpg	99
1792.463	0.748	747.5	observe	Run2	observe/STIM_014.jpg	100
1796.142	1.215	1215.0	observe	Run2	observe/STIM_014.jpg	100
1799.827	0.818	818.0	observe	Run2	observe/STIM_014.jpg	100
1803.317	1.109	1109.0	observe	Run2	observe/STIM_015.jpg	100
1808.114	0.942	941.9	observe	Run2	observe/STIM_015.jpg	99
1812.097	0.924	924.5	observe	Run2	observe/STIM_015.jpg	100
1815.344	0.859	858.6	observe	Run2	observe/STIM_015.jpg	99
1819.79	0.863	863.1	observe	Run2	observe/STIM_016.jpg	99
1823.6	1.352	1351.7	observe	Run2	observe/STIM_016.jpg	99
1828.079	0.841	840.9	observe	Run2	observe/STIM_016.jpg	100
1832.479	0.784	784.3	observe	Run2	observe/STIM_016.jpg	100
1835.933	1.004	1003.8	observe	Run2	observe/STIM_017.jpg	99
1840.789	1.186	1186.3	observe	Run2	observe/STIM_017.jpg	100
1844.598	1.364	1363.8	observe	Run2	observe/STIM_017.jpg	99
1850.055	1.226	1226.2	observe	Run2	observe/STIM_017.jpg	99
1854.958	1.114	1114.5	observe	Run2	observe/STIM_018.jpg	99
1859.67	0.795	794.6	observe	Run2	observe/STIM_018.jpg	99
1862.603	0.792	792.5	observe	Run2	observe/STIM_018.jpg	100
1867.173	1.06	1059.7	observe	Run2	observe/STIM_018.jpg	99
1872.179	1.213	1213.0	observe	Run2	observe/STIM_019.jpg	100
1875.495	1.111	1111.1	observe	Run2	observe/STIM_019.jpg	100
1879.44	0.895	894.9	observe	Run2	observe/STIM_019.jpg	99
1882.952	0.838	837.7	observe	Run2	observe/STIM_019.jpg	100
1885.961	1.991	1991.0	regulate	Run3	regulate/STIM_000.jpg	100
1890.406	1.875	1874.7	regulate	Run3	regulate/STIM_000.jpg	100
1896.394	2.016	2015.7	regulate	Run3	regulate/STIM_000.jpg	100
1902.346	2.069	2069.0	regulate	Run3	regulate/STIM_000.jpg	100
1908.52	1.587	1586.6	regulate	Run3	regulate/STIM_001.jpg	99
1914.221	2.12	2119.6	regulate	Run3	regulate/STIM_001.jpg	100
1919.028	1.585	1584.7	regulate	Run3	regulate/STIM_001.jpg	100
1923.181	2.057	2057.1	regulate	Run3	regulate/STIM_001.jpg	99
1928.466	1.872	1871.6	regulate	Run3	regulate/STIM_002.jpg	99
1933.253	2.118	2117.5	regulate	Run3	regulate/STIM_002.jpg	100
1938.53	1.627	1627.0	regulate	Run3	regulate/STIM_002.jpg	99
1944.404	0.952	952.1	regulate	Run3	regulate/STIM_002.jpg	99
1947.658	1.167	1167.4	regulate	Run3	regulate/STIM_003.jpg	99
1952.81	2.072	2072.3	regulate	Run3	regulate/STIM_003.jpg	100
1957.459	1.706	1706.0	regulate	Run3	regulate/STIM_003.jpg	99
1962.385	1.9	1900.2	regulate	Run3	regulate/STIM_003.jpg	100
1966.712	2.102	2101.8	regulate	Run3	regulate/STIM_004.jpg	99
1972.391	1.572	1572.3	regulate	Run3	regulate/STIM_004.jpg	99
1976.796	1.581	1581.0	regulate	Run3	regulate/STIM_004.jpg	100
1981.328	2.095	2095.0	regulate	Run3	regulate/STIM_004.jpg	99
1987.707	1.78	1779.6	regulate	Run3	regulate/STIM_005.jpg	99
1992.266	0.936	936.4	regulate	Run3	regulate/STIM_005.jpg	100
1996.094	1.422	1422.5	regulate	Run3	regulate/STIM_005.jpg	100
2001.682	1.647	1646.8	regulate	Run3	regulate/STIM_005.jpg	99
2006.353	0.934	934.4	regulate	Run3	regulate/STIM_006.jpg	99
2009.824	1.169	1169.1	regulate	Run3	regulate/STIM_006.jpg	99
2014.792	1.589	1588.9	regulate	Run3	regulate/STIM_006.jpg	100
2019.791	2.04	2039.8	regulate	Run3	regulate/STIM_006.jpg	100
2026.067	1.118	1117.6	regulate	Run3	regulate/STIM_007.jpg	100
2030.355	2.043	2043.4	regulate	Run3	regulate/STIM_007.jpg	99
2036.588	2.131	2130.8	regulate	Run3	regulate/STIM_007.jpg	99
2041.248	1.176	1176.0	regulate	Run3	regulate/STIM_007.jpg	99
2044.934	1.268	1268.3	regulate	Run3	regulate/STIM_008.jpg	99
2050.056	0.981	981.4	regulate	Run3	regulate/STIM_008.jpg	99
2053.97	1.409	1408.9	regulate	Run3	regulate/STIM_008.jpg	99
2058.733	1.188	1188.0	regulate	Run3	regulate/STIM_008.jpg	100
2063.552	1.035	1034.9	regulate	Run3	regulate/STIM_009.jpg	99
2067.532	1.951	1950.8	regulate	Run3	regulate/STIM_009.jpg	99
2071.878	1.014	1013.5	regulate	Run3	regulate/STIM_009.jpg	100
2076.84	1.722	1722.2	regulate	Run3	regulate/STIM_009.jpg	100
2082.343	1.0	999.9	regulate	Run3	regulate/STIM_010.jpg	100
2086.776	1.684	1684.3	regulate	Run3	regulate/STIM_010.jpg	99
2092.448	1.417	1416.9	regulate	Run3	regulate/STIM_010.jpg	99
2096.317	1.559	1558.9	regulate	Run3	regulate/STIM_010.jpg	100
2100.803	1.102	1102.4	regulate	Run3	regulate/STIM_011.jpg	100
2104.424	0.969	969.1	regulate	Run3	regulate/STIM_011.jpg	100
2108.05	2.261	2261.4	regulate	Run3	regulate/STIM_011.jpg	100
2112.827	0.992	991.6	regulate	Run3	regulate/STIM_011.jpg	99
2117.386	1.71	1710.0	regulate	Run3	regulate/STIM_012.jpg	100
2122.986	1.425	1425.4	regulate	Run3	regulate/STIM_012.jpg	100
2127.225	1.313	1313.1	regulate	Run3	regulate/STIM_012.jpg	100
2131.169	1.838	1837.5	regulate	Run3	regulate/STIM_012.jpg	99
2135.982	1.877	1876.8	regulate	Run3	regulate/STIM_013.jpg	99
2140.894	1.589	1588.9	regulate	Run3	regulate/STIM_013.jpg	99
2144.738	2.064	2063.5	regulate	Run3	regulate/STIM_013.jpg	99
2149.527	1.04	1039.8	regulate	Run3	regulate/STIM_013.jpg	100
2154.07	1.69	1689.7	regulate	Run3	regulate/STIM_014.jpg	100
2159.202	1.067	1067.4	regulate	Run3	regulate/STIM_014.jpg	99
2164.244	1.996	1996.1	regulate	Run3	regulate/STIM_014.jpg	100
2168.641	1.44	1439.8	regulate	Run3	regulate/STIM_014.jpg	99
2172.276	0.984	984.0	regulate	Run3	regulate/STIM_015.jpg	99
2176.05	1.129	1128.7	regulate	Run3	regulate/STIM_015.jpg	100
2181.1	1.677	1676.7	regulate	Run3	regulate/STIM_015.jpg	99
2185.624	1.224	1223.7	regulate	Run3	regulate/STIM_015.jpg	100
2189.349	2.159	2158.8	regulate	Run3	regulate/STIM_016.jpg	99
2194.658	1.83	1830.5	regulate	Run3	regulate/STIM_016.jpg	100
2199.845	1.395	1394.8	regulate	Run3	regulate/STIM_016.jpg	99
2203.695	1.137	1136.8	regulate	Run3	regulate/STIM_016.jpg	100
2207.639	1.155	1154.6	regulate	Run3	regulate/STIM_017.jpg	100
2211.799	1.435	1435.3	regulate	Run3	regulate/STIM_017.jpg	100
2216.204	1.083	1082.8	regulate	Run3	regulate/STIM_017.jpg	99
2221.363	1.228	1227.7	regulate	Run3	regulate/STIM_017.jpg	99
2225.064	2.017	2016.5	regulate	Run3	regulate/STIM_018.jpg	99
2229.849	1.879	1879.2	regulate	Run3	regulate/STIM_018.jpg	99
2234.416	1.482	1482.0	regulate	Run3	regulate/STIM_018.jpg	100
2238.96	1.545	1544.7	regulate	Run3	regulate/STIM_018.jpg	99
2244.107	1.578	1577.7	regulate	Run3	regulate/STIM_019.jpg	99
2249.249	1.272	1272.3	regulate	Run3	regulate/STIM_019.jpg	100
2254.038	1.324	1323.9	regulate	Run3	regulate/STIM_019.jpg	99
2259.471	1.955	1955.1	regulate	Run3	regulate/STIM_019.jpg	99
2264.917	2.114	2114.2	regulate	Run3	regulate/STIM_020.jpg	99
2270.21	1.914	1913.8	regulate	Run3	regulate/STIM_020.jpg	100
2275.63	1.313	1313.3	regulate	Run3	regulate/STIM_020.jpg	99
2280.842	1.576	1576.2	regulate	Run3	regulate/STIM_020.jpg	100
2286.001	1.795	1795.4	regulate	Run3	regulate/STIM_021.jpg	100
2290.278	1.949	1949.4	regulate	Run3	regulate/STIM_021.jpg	99
2296.281	1.838	1837.5	regulate	Run3	regulate/STIM_021.jpg	99
2302.111	1.788	1787.5	regulate	Run3	regulate/STIM_021.jpg	99
2307.074	2.076	2076.0	regulate	Run3	regulate/STIM_022.jpg	100
2312.935	1.262	1261.9	regulate	Run3	regulate/STIM_022.jpg	100
2317.451	1.595	1595.3	regulate	Run3	regulate/STIM_022.jpg	99
2321.304	1.693	1693.1	regulate	Run3	regulate/STIM_022.jpg	100
2327.03	1.638	1638.2	regulate	Run3	regulate/STIM_023.jpg	100
2331.382	1.368	1368.0	regulate	Run3	regulate/STIM_023.jpg	100
2334.975	1.914	1913.6	regulate	Run3	regulate/STIM_023.jpg	100
2339.405	1.985	1985.0	regulate	Run3	regulate/STIM_023.jpg	99
2343.917	1.122	1122.5	regulate	Run3	regulate/STIM_024.jpg	99
2348.418	1.582	1582.1	regulate	Run3	regulate/STIM_024.jpg	99
2353.418	2.007	2007.0	regulate	Run3	regulate/STIM_024.jpg	99
2358.826	1.446	1445.9	regulate	Run3	regulate/STIM_024.jpg	99
2363.78	2.166	2166.0	regulate	Run3	regulate/STIM_025.jpg	99
2368.223	1.89	1890.2	regulate	Run3	regulate/STIM_025.jpg	100
2372.791	1.953	1952.6	regulate	Run3	regulate/STIM_025.jpg	100
2378.333	1.928	1928.2	regulate	Run3	regulate/STIM_025.jpg	99
2383.554	1.101	1100.8	regulate	Run3	regulate/STIM_026.jpg	99
2388.152	1.849	1848.6	regulate	Run3	regulate/STIM_026.jpg	100
2394.164	0.928	928.4	regulate	Run3	regulate/STIM_026.jpg	99
2398.972	2.096	2095.6	regulate	Run3	regulate/STIM_026.jpg	100
2405.072	1.327	1327.3	regulate	Run3	regulate/STIM_027.jpg	100
2409.481	2.023	2023.4	regulate	Run3	regulate/STIM_027.jpg	100
2414.464	1.242	1242.1	regulate	Run3	regulate/STIM_027.jpg	100
2418.894	1.855	1855.3	regulate	Run3	regulate/STIM_027.jpg	100
2424.034	1.591	1591.0	regulate	Run3	regulate/STIM_028.jpg	100
2428.215	1.384	1384.2	regulate	Run3	regulate/STIM_028.jpg	100
2432.86	1.497	1497.4	regulate	Run3	regulate/STIM_028.jpg	99
2436.902	1.98	1979.7	regulate	Run3	regulate/STIM_028.jpg	99
2441.639	1.144	1144.5	regulate	Run3	regulate/STIM_029.jpg	100
2446.447	2.035	2035.2	regulate	Run3	regulate/STIM_029.jpg	99
2450.998	1.706	1705.7	regulate	Run3	regulate/STIM_029.jpg	99
2455.453	1.688	1688.0	regulate	Run3	regulate/STIM_029.jpg	100
2459.569	1.108	1108.2	observe	Run3	observe/STIM_000.jpg	100
2464.045	1.028	1028.5	observe	Run3	observe/STIM_000.jpg	99
2468.323	1.298	1297.9	observe	Run3	observe/STIM_000.jpg	100
2472.919	0.945	944.7	observe	Run3	observe/STIM_000.jpg	100
2476.193	0.801	800.6	observe	Run3	observe/STIM_001.jpg	99
2480.474	1.308	1308.5	observe	Run3	observe/STIM_001.jpg	99
2484.778	0.899	898.8	observe	Run3	observe/STIM_001.jpg	100
2489.262	0.732	731.7	observe	Run3	observe/STIM_001.jpg	100
2493.274	1.075	1074.6	observe	Run3	observe/STIM_002.jpg	99
2496.51	0.703	703.4	observe	Run3	observe/STIM_002.jpg	100
2500.911	0.803	803.3	observe	Run3	observe/STIM_002.jpg	99
2505.376	1.104	1103.7	observe	Run3	observe/STIM_002.jpg	100
2508.775	0.846	845.8	observe	Run3	observe/STIM_003.jpg	100
2511.986	0.972	971.9	observe	Run3	observe/STIM_003.jpg	100
2515.941	1.358	1357.8	observe	Run3	observe/STIM_003.jpg	100
2520.047	1.377	1377.4	observe	Run3	observe/STIM_003.jpg	99
2525.491	0.777	777.2	observe	Run3	observe/STIM_004.jpg	100
2529.208	0.856	855.9	observe	Run3	observe/STIM_004.jpg	100
2532.874	1.356	1356.4	observe	Run3	observe/STIM_004.jpg	99
2537.05	1.263	1262.9	observe	Run3	observe/STIM_004.jpg	100
2541.343	0.897	896.7	observe	Run3	observe/STIM_005.jpg	100
2544.894	0.821	820.9	observe	Run3	observe/STIM_005.jpg	99
2549.708	1.116	1115.6	observe	Run3	observe/STIM_005.jpg	100
2553.435	1.211	1211.4	observe	Run3	observe/STIM_005.jpg	99
2558.01	1.441	1441.1	observe	Run3	observe/STIM_006.jpg	100
2562.302	1.017	1017.2	observe	Run3	observe/STIM_006.jpg	100
2566.472	0.836	835.8	observe	Run3	observe/STIM_006.jpg	99
2571.113	1.042	1042.1	observe	Run3	observe/STIM_006.jpg	100
2574.664	0.94	939.5	observe	Run3	observe/STIM_007.jpg	100
2579.669	0.758	757.9	observe	Run3	observe/STIM_007.jpg	99
2583.789	1.349	1349.1	observe	Run3	observe/STIM_007.jpg	99
2588.971	1.062	1061.7	observe	Run3	observe/STIM_007.jpg	99
2592.835	1.268	1267.9	observe	Run3	observe/STIM_008.jpg	99
2597.451	1.46	1460.2	observe	Run3	observe/STIM_008.jpg	100
2602.748	1.136	1136.3	observe	Run3	observe/STIM_008.jpg	99
2606.596	1.38	1379.9	observe	Run3	observe/STIM_008.jpg	99
2611.412	1.178	1178.5	observe	Run3	observe/STIM_009.jpg	100
2616.589	1.336	1336.1	observe	Run3	observe/STIM_009.jpg	99
2622.116	0.972	971.8	observe	Run3	observe/STIM_009.jpg	99
2625.409	0.931	931.4	observe	Run3	observe/STIM_009.jpg	99
2629.598	0.824	823.6	observe	Run3	observe/STIM_010.jpg	99
2632.633	1.4	1400.4	observe	Run3	observe/STIM_010.jpg	99
2637.807	1.134	1134.5	observe	Run3	observe/STIM_010.jpg	100
2641.532	1.302	1301.8	observe	Run3	observe/STIM_010.jpg	100
2645.773	0.97	970.0	observe	Run3	observe/STIM_011.jpg	99
2650.318	0.966	965.8	observe	Run3	observe/STIM_011.jpg	100
2654.979	0.913	912.6	observe	Run3	observe/STIM_011.jpg	99
2659.114	1.022	1021.9	observe	Run3	observe/STIM_011.jpg	100
2663.629	1.269	1269.1	observe	Run3	observe/STIM_012.jpg	100
2668.775	1.453	1452.6	observe	Run3	observe/STIM_012.jpg	99
2673.919	1.01	1009.9	observe	Run3	observe/STIM_012.jpg	99
2677.621	1.227	1226.9	observe	Run3	observe/STIM_012.jpg	99
2681.635	0.785	784.7	observe	Run3	observe/STIM_013.jpg	100
2686.41	1.248	1248.2	observe	Run3	observe/STIM_013.jpg	100
2690.319	1.184	1183.7	observe	Run3	observe/STIM_013.jpg	100
2695.055	1.167	1166.7	observe	Run3	observe/STIM_013.jpg	100
2698.731	1.101	1101.4	observe	Run3	observe/STIM_014.jpg	99
2702.565	0.955	955.0	observe	Run3	observe/STIM_014.jpg	99
2707.26	0.724	723.6	observe	Run3	observe/STIM_014.jpg	100
2711.697	0.938	938.4	observe	Run3	observe/STIM_014.jpg	100
2715.093	0.967	967.4	observe	Run3	observe/STIM_015.jpg	99
2718.903	0.768	768.4	observe	Run3	observe/STIM_015.jpg	99
2723.129	1.127	1127.0	observe	Run3	observe/STIM_015.jpg	99
2726.438	0.991	991.4	observe	Run3	observe/STIM_015.jpg	99
2730.406	0.934	933.9	observe	Run3	observe/STIM_016.jpg	99
2734.155	1.22	1219.5	observe	Run3	observe/STIM_016.jpg	100
2738.393	0.922	922.0	observe	Run3	observe/STIM_016.jpg	100
2742.575	1.23	1230.1	observe	Run3	observe/STIM_016.jpg	100
2746.503	1.41	1409.7	observe	Run3	observe/STIM_017.jpg	99
2751.118	0.768	767.5	observe	Run3	observe/STIM_017.jpg	100
2755.056	0.867	866.7	observe	Run3	observe/STIM_017.jpg	100
2759.896	1.204	1204.3	observe	Run3	observe/STIM_017.jpg	100
2764.626	1.005	1005.0	observe	Run3	observe/STIM_018.jpg	99
2767.777	0.668	668.2	observe	Run3	observe/STIM_018.jpg	100
2772.444	0.726	725.7	observe	Run3	observe/STIM_018.jpg	100
2776.684	0.994	994.2	observe	Run3	observe/STIM_018.jpg	100
2781.182	1.306	1305.6	observe	Run3	observe/STIM_019.jpg	99
2785.396	0.894	893.9	observe	Run3	observe/STIM_019.jpg	99
2788.447	0.775	775.2	observe	Run3	observe/STIM_019.jpg	100
2791.345	1.202	1202.2	observe	Run3	observe/STIM_019.jpg	100
