onset	duration	response_time_ms	trial_type	learning_stage	stimulus	response_port
0.0	1.718	1718.1	regulate	Run1	regulate/STIM_000.jpg	100
3.98	2.214	2214.3	regulate	Run1	regulate/STIM_000.jpg	99
9.94	2.503	2503.2	regulate	Run1	regulate/STIM_000.jpg	100
15.908	2.012	2011.7	regulate	Run1	regulate/STIM_000.jpg	99
21.651	2.047	2046.9	regulate	Run1	regulate/STIM_001.jpg	100
27.082	3.087	3086.7	regulate	Run1	regulate/STIM_001.jpg	99
33.965	1.443	1442.8	regulate	Run1	regulate/STIM_001.jpg	99
37.693	2.301	2301.4	regulate	Run1	regulate/STIM_001.jpg	100
42.251	2.762	2762.5	regulate	Run1	regulate/STIM_002.jpg	100
47.508	1.46	1460.0	regulate	Run1	regulate/STIM_002.jpg	100
52.813	1.721	1721.1	regulate	Run1	regulate/STIM_002.jpg	99
57.334	2.323	2322.9	regulate	Run1	regulate/STIM_002.jpg	100
63.574	1.882	1882.5	regulate	Run1	regulate/STIM_003.jpg	100
67.978	1.894	1893.8	regulate	Run1	regulate/STIM_003.jpg	100
72.48	1.948	1948.3	regulate	Run1	regulate/STIM_003.jpg	100
76.834	2.579	2579.2	regulate	Run1	regulate/STIM_003.jpg	100
82.399	1.786	1786.2	regulate	Run1	regulate/STIM_004.jpg	99
87.589	3.178	3178.1	regulate	Run1	regulate/STIM_004.jpg	100
93.445	1.646	1646.0	regulate	Run1	regulate/STIM_004.jpg	99
98.773	2.115	2114.6	regulate	Run1	regulate/STIM_004.jpg	100
103.257	1.583	1582.8	regulate	Run1	regulate/STIM_005.jpg	99
107.861	1.657	1656.6	regulate	Run1	regulate/STIM_005.jpg	100
112.07	2.153	2153.1	regulate	Run1	regulate/STIM_005.jpg	100
117.073	2.706	2705.5	regulate	Run1	regulate/STIM_005.jpg	100
121.817	1.965	1965.0	regulate	Run1	regulate/STIM_006.jpg	100
127.194	2.302	2302.3	regulate	Run1	regulate/STIM_006.jpg	100
131.557	2.033	2032.8	regulate	Run1	regulate/STIM_006.jpg	99
135.647	2.151	2151.0	regulate	Run1	regulate/STIM_006.jpg	100
140.569	1.714	1714.4	regulate	Run1	regulate/STIM_007.jpg	100
144.964	1.446	1446.3	regulate	Run1	regulate/STIM_007.jpg	99
148.516	1.615	1614.9	regulate	Run1	regulate/STIM_007.jpg	99
152.669	1.298	1297.6	regulate	Run1	regulate/STIM_007.jpg	100
157.459	2.062	2062.3	regulate	Run1	regulate/STIM_008.jpg	99
162.193	2.736	2735.6	regulate	Run1	regulate/STIM_008.jpg	100
167.531	2.378	2377.9	regulate	Run1	regulate/STIM_008.jpg	99
171.912	1.818	1817.8	regulate	Run1	regulate/STIM_008.jpg	99
177.429	2.958	2958.0	regulate	Run1	regulate/STIM_009.jpg	100
183.97	2.422	2421.7	regulate	Run1	regulate/STIM_009.jpg	99
190.271	1.475	1475.2	regulate	Run1	regulate/STIM_009.jpg	100
193.785	2.504	2504.0	regulate	Run1	regulate/STIM_009.jpg	100
199.44	1.474	1474.1	regulate	Run1	regulate/STIM_010.jpg	99
204.51	1.667	1667.1	regulate	Run1	regulate/STIM_010.jpg	100
209.732	1.535	1534.9	regulate	Run1	regulate/STIM_010.jpg	99
214.796	2.528	2528.5	regulate	Run1	regulate/STIM_010.jpg	100
220.104	2.815	2815.2	regulate	Run1	regulate/STIM_011.jpg	99
226.515	1.542	1542.3	regulate	Run1	regulate/STIM_011.jpg	100
231.575	2.574	2573.5	regulate	Run1	regulate/STIM_011.jpg	100
236.352	1.738	1738.0	regulate	Run1	regulate/STIM_011.jpg	100
241.19	2.016	2016.2	regulate	Run1	regulate/STIM_012.jpg	99
247.04	1.928	1928.0	regulate	Run1	regulate/STIM_012.jpg	99
251.171	2.807	2806.8	regulate	Run1	regulate/STIM_012.jpg	100
256.644	1.339	1338.6	regulate	Run1	regulate/STIM_012.jpg	99
260.362	2.151	2151.1	regulate	Run1	regulate/STIM_013.jpg	99
266.427	2.763	2763.0	regulate	Run1	regulate/STIM_013.jpg	99
272.67	2.235	2234.7	regulate	Run1	regulate/STIM_013.jpg	99
277.208	2.208	2208.3	regulate	Run1	regulate/STIM_013.jpg	100
282.61	3.233	3232.9	regulate	Run1	regulate/STIM_014.jpg	100
289.49	2.072	2072.1	regulate	Run1	regulate/STIM_014.jpg	99
294.664	2.919	2919.4	regulate	Run1	regulate/STIM_014.jpg	100
300.485	2.111	2111.3	regulate	Run1	regulate/STIM_014.jpg	100
305.192	3.115	3115.1	regulate	Run1	regulate/STIM_015.jpg	100
311.698	1.399	1399.2	regulate	Run1	regulate/STIM_015.jpg	99
315.411	1.834	1834.3	regulate	Run1	regulate/STIM_015.jpg	100
320.157	1.45	1449.7	regulate	Run1	regulate/STIM_015.jpg	100
325.229	2.183	2183.0	regulate	Run1	regulate/STIM_016.jpg	99
331.36	1.487	1486.6	regulate	Run1	regulate/STIM_016.jpg	100
336.468	1.542	1541.6	regulate	Run1	regulate/STIM_016.jpg	100
340.059	2.442	2442.0	regulate	Run1	regulate/STIM_016.jpg	100
345.532	2.071	2070.9	regulate	Run1	regulate/STIM_017.jpg	99
350.767	1.823	1822.6	regulate	Run1	regulate/STIM_017.jpg	99
356.235	2.876	2875.7	regulate	Run1	regulate/STIM_017.jpg	99
362.299	1.468	1468.1	regulate	Run1	regulate/STIM_017.jpg	99
366.578	3.182	3181.7	regulate	Run1	regulate/STIM_018.jpg	99
372.672	2.293	2292.6	regulate	Run1	regulate/STIM_018.jpg	99
377.596	1.993	1992.6	regulate	Run1	regulate/STIM_018.jpg	100
383.113	1.314	1313.7	regulate	Run1	regulate/STIM_018.jpg	99
386.857	1.778	1778.1	regulate	Run1	regulate/STIM_019.jpg	99
392.395	3.047	3046.8	regulate	Run1	regulate/STIM_019.jpg	100
397.849	2.719	2718.9	regulate	Run1	regulate/STIM_019.jpg	99
403.912	1.553	1553.0	regulate	Run1	regulate/STIM_019.jpg	100
408.752	2.677	2677.0	regulate	Run1	regulate/STIM_020.jpg	99
414.805	2.764	2763.8	regulate	Run1	regulate/STIM_020.jpg	100
421.326	2.127	2126.9	regulate	Run1	regulate/STIM_020.jpg	99
426.139	1.804	1804.2	regulate	Run1	regulate/STIM_020.jpg	100
430.804	1.922	1921.5	regulate	Run1	regulate/STIM_021.jpg	99
435.823	2.423	2422.6	regulate	Run1	regulate/STIM_021.jpg	100
440.431	2.259	2258.6	regulate	Run1	regulate/STIM_021.jpg	100
444.771	1.266	1266.0	regulate	Run1	regulate/STIM_021.jpg	100
450.03	1.802	1801.6	regulate	Run1	regulate/STIM_022.jpg	100
454.374	2.911	2911.2	regulate	Run1	regulate/STIM_022.jpg	100
459.653	2.453	2453.3	regulate	Run1	regulate/STIM_022.jpg	99
465.312	1.94	1940.2	regulate	Run1	regulate/STIM_022.jpg	100
470.327	2.918	2917.5	regulate	Run1	regulate/STIM_023.jpg	100
476.73	1.635	1635.3	regulate	Run1	regulate/STIM_023.jpg	99
481.292	2.664	2664.2	regulate	Run1	regulate/STIM_023.jpg	99
486.583	2.632	2632.5	regulate	Run1	regulate/STIM_023.jpg	100
491.721	2.1	2100.1	regulate	Run1	regulate/STIM_024.jpg	100
496.096	2.432	2431.6	regulate	Run1	regulate/STIM_024.jpg	99
502.066	1.812	1811.5	regulate	Run1	regulate/STIM_024.jpg	100
507.421	1.374	1373.7	regulate	Run1	regulate/STIM_024.jpg	99
512.039	1.913	1913.1	regulate	Run1	regulate/STIM_025.jpg	99
516.061	2.478	2478.4	regulate	Run1	regulate/STIM_025.jpg	100
520.856	2.387	2387.1	regulate	Run1	regulate/STIM_025.jpg	99
525.915	1.338	1338.5	regulate	Run1	regulate/STIM_025.jpg	99
530.833	2.288	2288.5	regulate	Run1	regulate/STIM_026.jpg	99
535.851	2.759	2758.8	regulate	Run1	regulate/STIM_026.jpg	100
541.239	2.36	2360.5	regulate	Run1	regulate/STIM_026.jpg	100
547.054	1.911	1911.3	regulate	Run1	regulate/STIM_026.jpg	99
552.632	2.072	2072.1	regulate	Run1	regulate/STIM_027.jpg	99
558.027	2.017	2017.3	regulate	Run1	regulate/STIM_027.jpg	99
563.674	1.502	1501.5	regulate	Run1	regulate/STIM_027.jpg	99
568.24	2.532	2532.3	regulate	Run1	regulate/STIM_027.jpg	100
573.107	3.339	3338.8	regulate	Run1	regulate/STIM_028.jpg	100
579.423	2.565	2565.1	regulate	Run1	regulate/STIM_028.jpg	99
585.769	1.63	1629.5	regulate	Run1	regulate/STIM_028.jpg	100
591.072	1.861	1860.6	regulate	Run1	regulate/STIM_028.jpg	99
596.393	3.201	3200.9	regulate	Run1	regulate/STIM_029.jpg	100
603.096	2.342	2342.0	regulate	Run1	regulate/STIM_029.jpg	100
609.325	2.126	2125.6	regulate	Run1	regulate/STIM_029.jpg	99
615.316	1.893	1893.2	regulate	Run1	regulate/STIM_029.jpg	100
619.982	1.225	1225.1	observe	Run1	observe/STIM_000.jpg	99
623.341	1.354	1354.3	observe	Run1	observe/STIM_000.jpg	100
627.625	1.47	1470.4	observe	Run1	observe/STIM_000.jpg	99
631.311	1.286	1286.0	observe	Run1	observe/STIM_000.jpg	99
635.765	1.538	1537.7	observe	Run1	observe/STIM_001.jpg	99
639.75	1.321	1320.9	observe	Run1	observe/STIM_001.jpg	99
644.009	0.811	810.8	observe	Run1	observe/STIM_001.jpg	99
647.977	1.505	1504.6	observe	Run1	observe/STIM_001.jpg	100
652.89	0.976	975.5	observe	Run1	observe/STIM_002.jpg	99
656.612	0.801	800.9	observe	Run1	observe/STIM_002.jpg	100
659.977	1.51	1510.1	observe	Run1	observe/STIM_002.jpg	100
664.189	1.219	1218.6	observe	Run1	observe/STIM_002.jpg	100
669.119	1.403	1403.4	observe	Run1	observe/STIM_003.jpg	99
673.519	1.055	1054.8	observe	Run1	observe/STIM_003.jpg	99
678.021	0.821	821.2	observe	Run1	observe/STIM_003.jpg	99
681.514	0.942	941.6	observe	Run1	observe/STIM_003.jpg	99
685.209	0.881	880.8	observe	Run1	observe/STIM_004.jpg	100
688.529	1.399	1399.3	observe	Run1	observe/STIM_004.jpg	99
692.613	1.009	1008.8	observe	Run1	observe/STIM_004.jpg	100
696.471	0.956	955.9	observe	Run1	observe/STIM_004.jpg	100
700.118	1.339	1338.6	observe	Run1	observe/STIM_005.jpg	100
704.013	0.931	930.9	observe	Run1	observe/STIM_005.jpg	99
707.881	1.446	1445.9	observe	Run1	observe/STIM_005.jpg	99
711.548	1.148	1148.4	observe	Run1	observe/STIM_005.jpg	99
716.102	0.86	859.6	observe	Run1	observe/STIM_006.jpg	99
720.32	1.212	1212.0	observe	Run1	observe/STIM_006.jpg	99
725.488	0.926	926.3	observe	Run1	observe/STIM_006.jpg	100
730.245	0.882	882.0	observe	Run1	observe/STIM_006.jpg	99
733.493	1.298	1298.2	observe	Run1	observe/STIM_007.jpg	100
737.957	1.115	1115.4	observe	Run1	observe/STIM_007.jpg	100
742.465	1.113	1113.2	observe	Run1	observe/STIM_007.jpg	99
745.808	0.826	826.1	observe	Run1	observe/STIM_007.jpg	99
748.795	1.521	1521.3	observe	Run1	observe/STIM_008.jpg	100
754.169	1.45	1450.5	observe	Run1	observe/STIM_008.jpg	100
758.075	1.136	1135.7	observe	Run1	observe/STIM_008.jpg	100
762.741	1.352	1351.7	observe	Run1	observe/STIM_008.jpg	99
767.23	1.296	1296.3	observe	Run1	observe/STIM_009.jpg	100
770.616	1.158	1158.4	observe	Run1	observe/STIM_009.jpg	100
774.803	1.226	1226.3	observe	Run1	observe/STIM_009.jpg	99
778.67	0.973	972.6	observe	Run1	observe/STIM_009.jpg	100
781.888	1.311	1310.8	observe	Run1	observe/STIM_010.jpg	100
785.951	0.819	819.0	observe	Run1	observe/STIM_010.jpg	100
790.293	1.217	1217.4	observe	Run1	observe/STIM_010.jpg	99
794.768	1.501	1500.6	observe	Run1	observe/STIM_010.jpg	100
799.282	1.406	1405.9	observe	Run1	observe/STIM_011.jpg	99
802.862	0.858	857.5	observe	Run1	observe/STIM_011.jpg	99
807.307	1.297	1296.9	observe	Run1	observe/STIM_011.jpg	100
810.91	0.957	957.1	observe	Run1	observe/STIM_011.jpg	100
813.964	1.046	1045.8	observe	Run1	observe/STIM_012.jpg	100
818.539	0.897	897.2	observe	Run1	observe/STIM_012.jpg	99
822.041	1.126	1126.2	observe	Run1	observe/STIM_012.jpg	99
826.778	1.435	1435.3	observe	Run1	observe/STIM_012.jpg	99
832.092	1.227	1227.2	observe	Run1	observe/STIM_013.jpg	99
835.62	1.276	1276.3	observe	Run1	observe/STIM_013.jpg	99
839.36	1.243	1243.1	observe	Run1	observe/STIM_013.jpg	100
843.226	0.947	946.7	observe	Run1	observe/STIM_013.jpg	99
846.447	0.784	783.8	observe	Run1	observe/STIM_014.jpg	100
850.065	1.426	1425.5	observe	Run1	observe/STIM_014.jpg	100
855.041	1.322	1322.3	observe	Run1	observe/STIM_014.jpg	99
859.91	1.458	1458.0	observe	Run1	observe/STIM_014.jpg	99
863.707	1.311	1311.4	observe	Run1	observe/STIM_015.jpg	99
867.509	1.198	1197.8	observe	Run1	observe/STIM_015.jpg	99
872.383	1.272	1271.7	observe	Run1	observe/STIM_015.jpg	100
875.663	1.001	1000.9	observe	Run1	observe/STIM_015.jpg	100
879.794	1.076	1075.8	observe	Run1	observe/STIM_016.jpg	99
883.458	0.921	921.0	observe	Run1	observe/STIM_016.jpg	99
887.744	1.358	1357.9	observe	Run1	observe/STIM_016.jpg	100
893.019	1.377	1377.3	observe	Run1	observe/STIM_016.jpg	100
897.432	1.353	1352.9	observe	Run1	observe/STIM_017.jpg	100
902.562	1.109	1108.7	observe	Run1	observe/STIM_017.jpg	100
907.366	1.117	1116.7	observe	Run1	observe/STIM_017.jpg	100
911.139	1.441	1441.4	observe	Run1	observe/STIM_017.jpg	100
916.011	1.5	1500.0	observe	Run1	observe/STIM_018.jpg	99
919.927	0.788	787.8	observe	Run1	observe/STIM_018.jpg	100
924.032	1.248	1248.4	observe	Run1	observe/STIM_018.jpg	100
928.799	1.258	1257.8	observe	Run1	observe/STIM_018.jpg	100
933.699	1.423	1422.9	observe	Run1	observe/STIM_019.jpg	99
938.201	1.196	1195.6	observe	Run1	observe/STIM_019.jpg	99
942.121	1.183	1183.0	observe	Run1	observe/STIM_019.jpg	100
947.26	1.31	1309.6	observe	Run1	observe/STIM_019.jpg	99
951.592	1.978	1977.5	regulate	Run2	regulate/STIM_000.jpg	99
956.175	1.31	1309.5	regulate	Run2	regulate/STIM_000.jpg	99
960.573	1.53	1530.0	regulate	Run2	regulate/STIM_000.jpg	100
964.779	1.756	1756.3	regulate	Run2	regulate/STIM_000.jpg	100
970.243	2.214	2213.5	regulate	Run2	regulate/STIM_001.jpg	100
976.2	1.534	1534.4	regulate	Run2	regulate/STIM_001.jpg	99
981.376	1.312	1312.0	regulate	Run2	regulate/STIM_001.jpg	99
984.858	1.108	1108.3	regulate	Run2	regulate/STIM_001.jpg	100
988.246	2.399	2398.6	regulate	Run2	regulate/STIM_002.jpg	100
994.277	1.235	1235.0	regulate	Run2	regulate/STIM_002.jpg	100
999.06	2.324	2323.7	regulate	Run2	regulate/STIM_002.jpg	100
1005.339	1.417	1417.1	regulate	Run2	regulate/STIM_002.jpg	99
1010.032	1.948	1947.5	regulate	Run2	regulate/STIM_003.jpg	99
1015.725	1.233	1233.3	regulate	Run2	regulate/STIM_003.jpg	100
1019.134	2.406	2405.7	regulate	Run2	regulate/STIM_003.jpg	99
1025.266	1.749	1749.3	regulate	Run2	regulate/STIM_003.jpg	100
1030.769	1.795	1794.9	regulate	Run2	regulate/STIM_004.jpg	100
1035.343	2.366	2365.5	regulate	Run2	regulate/STIM_004.jpg	99
1041.606	2.071	2070.6	regulate	Run2	regulate/STIM_004.jpg	99
1046.876	1.301	1300.7	regulate	Run2	regulate/STIM_004.jpg	100
1051.749	2.602	2602.5	regulate	Run2	regulate/STIM_005.jpg	99
1057.55	1.486	1485.5	regulate	Run2	regulate/STIM_005.jpg	99
1062.105	1.892	1891.7	regulate	Run2	regulate/STIM_005.jpg	99
1066.448	1.375	1375.4	regulate	Run2	regulate/STIM_005.jpg	99
1070.515	1.653	1653.1	regulate	Run2	regulate/STIM_006.jpg	100
1075.739	1.575	1575.0	regulate	Run2	regulate/STIM_006.jpg	99
1080.66	1.657	1656.7	regulate	Run2	regulate/STIM_006.jpg	100
1084.689	1.77	1769.7	regulate	Run2	regulate/STIM_006.jpg	100
1089.407	1.616	1616.2	regulate	Run2	regulate/STIM_007.jpg	99
1093.845	2.521	2521.0	regulate	Run2	regulate/STIM_007.jpg	99
1099.25	2.254	2254.0	regulate	Run2	regulate/STIM_007.jpg	100
1104.486	1.018	1017.9	regulate	Run2	regulate/STIM_007.jpg	99
1109.317	1.318	1318.5	regulate	Run2	regulate/STIM_008.jpg	100
1112.756	2.577	2577.4	regulate	Run2	regulate/STIM_008.jpg	100
1118.736	1.148	1147.5	regulate	Run2	regulate/STIM_008.jpg	100
1123.258	1.228	1228.2	regulate	Run2	regulate/STIM_008.jpg	100
1127.46	2.837	2837.2	regulate	Run2	regulate/STIM_009.jpg	100
1132.585	2.374	2373.5	regulate	Run2	regulate/STIM_009.jpg	100
1138.032	1.445	1445.2	regulate	Run2	regulate/STIM_009.jpg	100
1141.694	1.239	1238.6	regulate	Run2	regulate/STIM_009.jpg	100
1145.635	1.923	1922.7	regulate	Run2	regulate/STIM_010.jpg	100
1150.802	1.86	1860.2	regulate	Run2	regulate/STIM_010.jpg	99
1156.55	2.013	2012.9	regulate	Run2	regulate/STIM_010.jpg	99
1162.001	1.157	1157.4	regulate	Run2	regulate/STIM_010.jpg	99
1166.284	2.11	2109.7	regulate	Run2	regulate/STIM_011.jpg	100
1171.181	1.952	1951.7	regulate	Run2	regulate/STIM_011.jpg	100
1176.464	2.015	2014.8	regulate	Run2	regulate/STIM_011.jpg	99
1181.022	1.454	1453.7	regulate	Run2	regulate/STIM_011.jpg	100
1186.435	2.163	2163.2	regulate	Run2	regulate/STIM_012.jpg	100
1191.602	2.036	2036.3	regulate	Run2	regulate/STIM_012.jpg	100
1195.766	1.755	1755.0	regulate	Run2	regulate/STIM_012.jpg	99
1199.562	1.061	1060.8	regulate	Run2	regulate/STIM_012.jpg	100
1204.387	1.842	1842.1	regulate	Run2	regulate/STIM_013.jpg	100
1208.28	1.183	1183.0	regulate	Run2	regulate/STIM_013.jpg	99
1212.715	1.284	1284.5	regulate	Run2	regulate/STIM_013.jpg	100
1217.258	2.066	2066.3	regulate	Run2	regulate/STIM_013.jpg	99
1223.216	2.82	2820.3	regulate	Run2	regulate/STIM_014.jpg	100
1228.243	1.21	1210.3	regulate	Run2	regulate/STIM_014.jpg	100
1232.559	1.825	1825.4	regulate	Run2	regulate/STIM_014.jpg	99
1236.802	2.289	2288.8	regulate	Run2	regulate/STIM_014.jpg	100
1241.104	1.546	1546.0	regulate	Run2	regulate/STIM_015.jpg	99
1245.829	1.486	1486.1	regulate	Run2	regulate/STIM_015.jpg	100
1250.831	1.99	1990.5	regulate	Run2	regulate/STIM_015.jpg	99
1254.98	2.246	2245.5	regulate	Run2	regulate/STIM_015.jpg	99
1260.819	1.281	1280.6	regulate	Run2	regulate/STIM_016.jpg	100
1265.812	1.58	1579.8	regulate	Run2	regulate/STIM_016.jpg	99
1270.743	2.098	2097.8	regulate	Run2	regulate/STIM_016.jpg	100
1276.628	1.896	1896.0	regulate	Run2	regulate/STIM_016.jpg	99
1281.29	1.598	1598.5	regulate	Run2	regulate/STIM_017.jpg	100
1285.156	2.568	2568.1	regulate	Run2	regulate/STIM_017.jpg	100
1289.851	2.426	2426.5	regulate	Run2	regulate/STIM_017.jpg	100
1295.559	1.443	1442.9	regulate	Run2	regulate/STIM_017.jpg	99
1299.688	2.046	2045.6	regulate	Run2	regulate/STIM_018.jpg	100
1303.788	1.895	1895.1	regulate	Run2	regulate/STIM_018.jpg	100
1308.278	2.116	2115.7	regulate	Run2	regulate/STIM_018.jpg	100
1314.269	1.495	1495.0	regulate	Run2	regulate/STIM_018.jpg	99
1317.909	2.289	2288.6	regulate	Run2	regulate/STIM_019.jpg	100
1323.67	2.146	2146.5	regulate	Run2	regulate/STIM_019.jpg	99
1328.714	1.698	1697.7	regulate	Run2	regulate/STIM_019.jpg	100
1332.492	1.802	1801.6	regulate	Run2	regulate/STIM_019.jpg	99
1336.843	1.382	1381.6	regulate	Run2	regulate/STIM_020.jpg	100
1340.822	1.448	1448.3	regulate	Run2	regulate/STIM_020.jpg	100
1345.585	1.419	1419.4	regulate	Run2	regulate/STIM_020.jpg	99
1350.531	1.793	1792.9	regulate	Run2	regulate/STIM_020.jpg	99
1355.726	1.243	1242.6	regulate	Run2	regulate/STIM_021.jpg	99
1360.499	1.195	1195.3	regulate	Run2	regulate/STIM_021.jpg	100
1364.353	2.293	2293.1	regulate	Run2	regulate/STIM_021.jpg	100
1369.543	1.933	1933.2	regulate	Run2	regulate/STIM_021.jpg	100
1375.362	2.447	2446.9	regulate	Run2	regulate/STIM_022.jpg	99
1381.797	2.465	2464.6	regulate	Run2	regulate/STIM_022.jpg	99
1387.853	1.349	1349.4	regulate	Run2	regulate/STIM_022.jpg	100
1391.869	2.16	2160.4	regulate	Run2	regulate/STIM_022.jpg	100
1396.196	2.815	2815.1	regulate	Run2	regulate/STIM_023.jpg	100
1402.705	1.326	1326.5	regulate	Run2	regulate/STIM_023.jpg	99
1406.358	1.653	1652.6	regulate	Run2	regulate/STIM_023.jpg	99
1410.257	1.997	1996.6	regulate	Run2	regulate/STIM_023.jpg	99
1414.631	2.189	2189.4	regulate	Run2	regulate/STIM_024.jpg	99
1420.016	1.438	1438.4	regulate	Run2	regulate/STIM_024.jpg	99
1424.534	1.459	1459.4	regulate	Run2	regulate/STIM_024.jpg	99
1429.785	2.216	2216.2	regulate	Run2	regulate/STIM_024.jpg	99
1434.822	1.47	1469.7	regulate	Run2	regulate/STIM_025.jpg	99
1438.74	2.54	2539.8	regulate	Run2	regulate/STIM_025.jpg	100
1445.257	1.416	1416.5	regulate	Run2	regulate/STIM_025.jpg	100
1448.886	1.95	1949.7	regulate	Run2	regulate/STIM_025.jpg	99
1454.674	1.452	1452.5	regulate	Run2	regulate/STIM_026.jpg	100
1460.074	2.231	2231.3	regulate	Run2	regulate/STIM_026.jpg	99
1465.196	1.598	1597.6	regulate	Run2	regulate/STIM_026.jpg	100
1469.707	1.178	1177.9	regulate	Run2	regulate/STIM_026.jpg	99
1474.717	2.818	2818.4	regulate	Run2	regulate/STIM_027.jpg	100
1480.299	1.919	1919.2	regulate	Run2	regulate/STIM_027.jpg	99
1484.901	1.101	1101.3	regulate	Run2	regulate/STIM_027.jpg	99
1489.816	1.23	1229.9	regulate	Run2	regulate/STIM_027.jpg	99
1493.701	1.76	1760.5	regulate	Run2	regulate/STIM_028.jpg	100
1498.88	2.509	2509.3	regulate	Run2	regulate/STIM_028.jpg	100
1504.733	1.144	1144.3	regulate	Run2	regulate/STIM_028.jpg	99
1509.593	1.926	1926.1	regulate	Run2	regulate/STIM_028.jpg	100
1514.496	2.308	2307.5	regulate	Run2	regulate/STIM_029.jpg	100
1519.09	1.423	1423.4	regulate	Run2	regulate/STIM_029.jpg	100
1523.698	1.499	1499.0	regulate	Run2	regulate/STIM_029.jpg	99
1527.876	1.166	1166.2	regulate	Run2	regulate/STIM_029.jpg	99
1532.222	1.396	1395.6	observe	Run2	observe/STIM_000.jpg	100
1536.365	1.118	1118.4	observe	Run2	observe/STIM_000.jpg	99
1541.275	1.141	1140.9	observe	Run2	observe/STIM_000.jpg	100
1545.347	0.89	889.7	observe	Run2	observe/STIM_000.jpg	99
1549.896	1.236	1236.3	observe	Run2	observe/STIM_001.jpg	99
1553.187	1.388	1388.5	observe	Run2	observe/STIM_001.jpg	99
1558.17	1.485	1484.8	observe	Run2	observe/STIM_001.jpg	99
1563.604	1.347	1347.0	observe	Run2	observe/STIM_001.jpg	100
1567.176	0.95	950.5	observe	Run2	observe/STIM_002.jpg	100
1572.035	1.272	1272.5	observe	Run2	observe/STIM_002.jpg	100
1575.886	1.2	1200.1	observe	Run2	observe/STIM_002.jpg	99
1580.321	1.242	1242.0	observe	Run2	observe/STIM_002.jpg	99
1585.398	1.197	1197.2	observe	Run2	observe/STIM_003.jpg	99
1589.308	1.097	1097.4	observe	Run2	observe/STIM_003.jpg	100
1593.233	1.091	1090.7	observe	Run2	observe/STIM_003.jpg	100
1596.797	1.497	1496.7	observe	Run2	observe/STIM_003.jpg	99
1601.648	1.207	1206.9	observe	Run2	observe/STIM_004.jpg	99
1606.78	1.332	1331.9	observe	Run2	observe/STIM_004.jpg	99
1610.312	1.515	1515.3	observe	Run2	observe/STIM_004.jpg	99
1615.098	1.464	1464.3	observe	Run2	observe/STIM_004.jpg	99
1619.158	0.919	919.4	observe	Run2	observe/STIM_005.jpg	99
1622.3	0.969	969.2	observe	Run2	observe/STIM_005.jpg	99
1625.276	1.089	1088.9	observe	Run2	observe/STIM_005.jpg	99
1628.675	0.889	889.0	observe	Run2	observe/STIM_005.jpg	99
1632.934	1.071	1071.0	observe	Run2	observe/STIM_006.jpg	99
1637.058	1.175	1175.4	observe	Run2	observe/STIM_006.jpg	99
1642.135	1.087	1086.8	observe	Run2	observe/STIM_006.jpg	99
1647.174	0.954	954.1	observe	Run2	observe/STIM_006.jpg	99
1651.035	0.782	782.0	observe	Run2	observe/STIM_007.jpg	100
1654.806	0.778	777.7	observe	Run2	observe/STIM_007.jpg	99
1657.589	1.333	1333.2	observe	Run2	observe/STIM_007.jpg	100
1661.763	1.38	1380.2	observe	Run2	observe/STIM_007.jpg	99
1665.716	1.347	1346.6	observe	Run2	observe/STIM_008.jpg	99
1670.391	1.412	1411.7	observe	Run2	observe/STIM_008.jpg	99
1674.082	0.8	799.8	observe	Run2	observe/STIM_008.jpg	100
1677.099	1.17	1170.1	observe	Run2	observe/STIM_008.jpg	100
1681.275	1.033	1033.3	observe	Run2	observe/STIM_009.jpg	99
1684.772	1.286	1286.3	observe	Run2	observe/STIM_009.jpg	100
1689.357	0.864	864.3	observe	Run2	observe/STIM_009.jpg	99
1692.255	0.947	947.0	observe	Run2	observe/STIM_009.jpg	100
1696.641	1.224	1223.7	observe	Run2	observe/STIM_010.jpg	99
1701.234	1.121	1120.9	observe	Run2	observe/STIM_010.jpg	100
1704.735	0.896	895.5	observe	Run2	observe/STIM_010.jpg	100
1707.836	1.206	1206.2	observe	Run2	observe/STIM_010.jpg	99
1711.47	1.297	1297.1	observe	Run2	observe/STIM_011.jpg	100
1714.935	1.527	1526.6	observe	Run2	observe/STIM_011.jpg	99
1720.109	1.528	1528.3	observe	Run2	observe/STIM_011.jpg	99
1724.462	1.448	1447.6	observe	Run2	observe/STIM_011.jpg	99
1729.536	1.26	1260.2	observe	Run2	observe/STIM_012.jpg	99
1733.515	1.216	1216.2	observe	Run2	observe/STIM_012.jpg	100
1737.328	1.029	1028.7	observe	Run2	observe/STIM_012.jpg	99
1741.091	1.122	1121.6	observe	Run2	observe/STIM_012.jpg	99
1745.695	0.957	956.8	observe	Run2	observe/STIM_013.jpg	100
1750.175	1.424	1424.0	observe	Run2	observe/STIM_013.jpg	99
1753.815	1.275	1274.9	observe	Run2	observe/STIM_013.jpg	100
1758.736	1.348	1347.7	observe	Run2	observe/STIM_013.jpg	100
1762.914	0.978	977.9	observe	Run2	observe/STIM_014.jpg	99
1766.206	1.079	1078.7	observe	Run2	observe/STIM_014.jpg	100
1769.787	1.314	1314.3	observe	Run2	observe/STIM_014.jpg	100
1773.964	0.828	828.0	observe	Run2	observe/STIM_014.jpg	100
1777.392	1.132	1131.5	observe	Run2	observe/STIM_015.jpg	100
1781.486	1.121	1121.0	observe	Run2	observe/STIM_015.jpg	99
1784.662	1.113	1112.6	observe	Run2	observe/STIM_015.jpg	100
1787.844	0.806	806.5	observe	Run2	observe/STIM_015.jpg	99
1791.803	1.384	1384.4	observe	Run2	observe/STIM_016.jpg	99
1797.072	1.44	1439.6	observe	Run2	observe/STIM_016.jpg	99
1802.175	1.381	1380.7	observe	Run2	observe/STIM_016.jpg	100
1806.465	0.973	972.8	observe	Run2	observe/STIM_016.jpg	100
1810.896	0.868	868.4	observe	Run2	observe/STIM_017.jpg	99
1815.48	1.142	1141.9	observe	Run2	observe/STIM_017.jpg	100
1819.034	1.011	1011.2	observe	Run2	observe/STIM_017.jpg	99
1822.047	1.283	1282.6	observe	Run2	observe/STIM_017.jpg	99
1826.242	1.173	1173.0	observe	Run2	observe/STIM_018.jpg	99
1831.367	1.236	1236.1	observe	Run2	observe/STIM_018.jpg	99
1834.772	1.132	1132.3	observe	Run2	observe/STIM_018.jpg	100
1838.773	0.92	919.6	observe	Run2	observe/STIM_018.jpg	99
1842.317	1.007	1006.8	observe	Run2	observe/STIM_019.jpg	100
1846.881	1.147	1146.7	observe	Run2	observe/STIM_019.jpg	100
1851.724	1.475	1475.0	observe	Run2	observe/STIM_019.jpg	99
1856.517	1.394	1393.9	observe	Run2	observe/STIM_019.jpg	100
1860.58	1.18	1180.4	regulate	Run3	regulate/STIM_000.jpg	100
1865.245	1.265	1264.7	regulate	Run3	regulate/STIM_000.jpg	100
1870.117	1.852	1851.6	regulate	Run3	regulate/STIM_000.jpg	100
1874.012	1.282	1281.6	regulate	Run3	regulate/STIM_000.jpg	100
1878.189	1.785	1785.4	regulate	Run3	regulate/STIM_001.jpg	99
1882.699	1.375	1374.9	regulate	Run3	regulate/STIM_001.jpg	100
1886.475	1.508	1508.5	regulate	Run3	regulate/STIM_001.jpg	100
1891.164	1.507	1507.4	regulate	Run3	regulate/STIM_001.jpg	99
1896.269	1.997	1997.4	regulate	Run3	regulate/STIM_002.jpg	99
1900.313	1.655	1655.2	regulate	Run3	regulate/STIM_002.jpg	100
1904.692	1.664	1663.6	regulate	Run3	regulate/STIM_002.jpg	99
1908.832	2.329	2328.8	regulate	Run3	regulate/STIM_002.jpg	99
1913.166	1.635	1635.1	regulate	Run3	regulate/STIM_003.jpg	99
1916.896	2.278	2278.2	regulate	Run3	regulate/STIM_003.jpg	100
1922.859	1.057	1056.6	regulate	Run3	regulate/STIM_003.jpg	99
1926.754	1.803	1802.8	regulate	Run3	regulate/STIM_003.jpg	100
1931.76	2.247	2247.3	regulate	Run3	regulate/STIM_004.jpg	99
1937.195	1.206	1206.5	regulate	Run3	regulate/STIM_004.jpg	99
1941.535	2.343	2343.2	regulate	Run3	regulate/STIM_004.jpg	100
1946.069	1.77	1770.5	regulate	Run3	regulate/STIM_004.jpg	99
1949.947	1.055	1055.3	regulate	Run3	regulate/STIM_005.jpg	99
1954.451	1.423	1423.2	regulate	Run3	regulate/STIM_005.jpg	100
1959.832	1.792	1791.8	regulate	Run3	regulate/STIM_005.jpg	100
1963.896	1.43	1430.3	regulate	Run3	regulate/STIM_005.jpg	99
1967.455	1.602	1602.2	regulate	Run3	regulate/STIM_006.jpg	99
1972.054	2.316	2316.4	regulate	Run3	regulate/STIM_006.jpg	99
1976.711	1.522	1522.5	regulate	Run3	regulate/STIM_006.jpg	100
1981.493	1.861	1861.0	regulate	Run3	regulate/STIM_006.jpg	100
1986.673	1.226	1225.9	regulate	Run3	regulate/STIM_007.jpg	100
1990.524	2.206	2206.2	regulate	Run3	regulate/STIM_007.jpg	99
1995.077	1.846	1845.7	regulate	Run3	regulate/STIM_007.jpg	99
1999.466	1.917	1917.1	regulate	Run3	regulate/STIM_007.jpg	99
2005.358	1.36	1360.2	regulate	Run3	regulate/STIM_008.jpg	99
2009.93	1.946	1946.0	regulate	Run3	regulate/STIM_008.jpg	99
2014.678	1.572	1571.7	regulate	Run3	regulate/STIM_008.jpg	99
2018.824	2.045	2044.9	regulate	Run3	regulate/STIM_008.jpg	100
2023.309	1.609	1609.1	regulate	Run3	regulate/STIM_009.jpg	99
2028.862	2.227	2226.6	regulate	Run3	regulate/STIM_009.jpg	99
2033.701	1.096	1095.7	regulate	Run3	regulate/STIM_009.jpg	100
2038.387	1.86	1860.2	regulate	Run3	regulate/STIM_009.jpg	100
2042.751	1.458	1458.1	regulate	Run3	regulate/STIM_010.jpg	100
2046.306	1.145	1144.6	regulate	Run3	regulate/STIM_010.jpg	99
2051.386	1.294	1293.7	regulate	Run3	regulate/STIM_010.jpg	99
2055.591	1.205	1205.1	regulate	Run3	regulate/STIM_010.jpg	100
2058.931	1.659	1659.2	regulate	Run3	regulate/STIM_011.jpg	100
2064.583	1.437	1436.7	regulate	Run3	regulate/STIM_011.jpg	100
2069.279	2.18	2180.1	regulate	Run3	regulate/STIM_011.jpg	100
2074.817	1.078	1077.9	regulate	Run3	regulate/STIM_011.jpg	99
2078.631	1.802	1801.6	regulate	Run3	regulate/STIM_012.jpg	100
2082.775	1.54	1539.8	regulate	Run3	regulate/STIM_012.jpg	100
2088.248	2.015	2014.8	regulate	Run3	regulate/STIM_012.jpg	100
2094.194	1.259	1259.4	regulate	Run3	regulate/STIM_012.jpg	99
2098.224	2.081	2080.6	regulate	Run3	regulate/STIM_013.jpg	99
2103.336	1.43	1429.6	regulate	Run3	regulate/STIM_013.jpg	99
2108.674	2.299	2298.6	regulate	Run3	regulate/STIM_013.jpg	99
2114.726	2.279	2279.0	regulate	Run3	regulate/STIM_013.jpg	100
2120.382	1.332	1332.4	regulate	Run3	regulate/STIM_014.jpg	100
2125.613	1.951	1951.0	regulate	Run3	regulate/STIM_014.jpg	99
2131.213	1.191	1191.3	regulate	Run3	regulate/STIM_014.jpg	100
2134.893	2.244	2243.8	regulate	Run3	regulate/STIM_014.jpg	99
2139.824	2.01	2009.5	regulate	Run3	regulate/STIM_015.jpg	99
2145.469	2.278	2278.3	regulate	Run3	regulate/STIM_015.jpg	100
2151.538	1.42	1419.6	regulate	Run3	regulate/STIM_015.jpg	99
2155.271	1.42	1420.5	regulate	Run3	regulate/STIM_015.jpg	100
2160.124	1.15	1150.5	regulate	Run3	regulate/STIM_016.jpg	99
2164.952	1.741	1740.9	regulate	Run3	regulate/STIM_016.jpg	100
2170.034	1.058	1058.4	regulate	Run3	regulate/STIM_016.jpg	99
2174.328	1.149	1148.6	regulate	Run3	regulate/STIM_016.jpg	100
2177.761	1.967	1966.6	regulate	Run3	regulate/STIM_017.jpg	100
2182.812	1.121	1120.8	regulate	Run3	regulate/STIM_017.jpg	100
2186.108	1.21	1209.9	regulate	Run3	regulate/STIM_017.jpg	99
2189.739	1.295	1294.6	regulate	Run3	regulate/STIM_017.jpg	99
2193.193	1.717	1717.4	regulate	Run3	regulate/STIM_018.jpg	99
2198.546	2.027	2026.9	regulate	Run3	regulate/STIM_018.jpg	99
2203.541	1.417	1416.7	regulate	Run3	regulate/STIM_018.jpg	100
2207.725	2.141	2140.7	regulate	Run3	regulate/STIM_018.jpg	99
2213.369	1.676	1676.3	regulate	Run3	regulate/STIM_019.jpg	99
2217.124	1.941	1941.4	regulate	Run3	regulate/STIM_019.jpg	100
2221.184	1.649	1648.6	regulate	Run3	regulate/STIM_019.jpg	99
2226.646	2.303	2302.7	regulate	Run3	regulate/STIM_019.jpg	99
2232.508	1.068	1067.9	regulate	Run3	regulate/STIM_020.jpg	99
2236.127	1.827	1827.0	regulate	Run3	regulate/STIM_020.jpg	100
2239.963	1.951	1950.7	regulate	Run3	regulate/STIM_020.jpg	99
2245.318	1.932	1931.5	regulate	Run3	regulate/STIM_020.jpg	100
2250.818	1.616	1616.5	regulate	Run3	regulate/STIM_021.jpg	100
2255.843	1.724	1723.9	regulate	Run3	regulate/STIM_021.jpg	99
2260.877	1.083	1083.1	regulate	Run3	regulate/STIM_021.jpg	99
2265.143	1.696	1695.6	regulate	Run3	regulate/STIM_021.jpg	99
2269.015	1.614	1614.1	regulate	Run3	regulate/STIM_022.jpg	100
2273.769	2.05	2050.2	regulate	Run3	regulate/STIM_022.jpg	100
2279.519	1.381	1381.2	regulate	Run3	regulate/STIM_022.jpg	99
2284.529	1.692	1692.0	regulate	Run3	regulate/STIM_022.jpg	100
2289.747	1.73	1730.1	regulate	Run3	regulate/STIM_023.jpg	100
2294.703	1.159	1158.8	regulate	Run3	regulate/STIM_023.jpg	100
2298.438	1.504	1503.6	regulate	Run3	regulate/STIM_023.jpg	100
2302.969	2.06	2060.3	regulate	Run3	regulate/STIM_023.jpg	99
2307.464	1.912	1912.4	regulate	Run3	regulate/STIM_024.jpg	99
2312.733	2.105	2105.0	regulate	Run3	regulate/STIM_024.jpg	99
2317.141	1.377	1376.7	regulate	Run3	regulate/STIM_024.jpg	99
2321.868	2.286	2286.1	regulate	Run3	regulate/STIM_024.jpg	99
2326.647	1.381	1380.6	regulate	Run3	regulate/STIM_025.jpg	99
2330.13	1.249	1249.0	regulate	Run3	regulate/STIM_025.jpg	100
2334.202	1.526	1526.3	regulate	Run3	regulate/STIM_025.jpg	100
2339.519	2.163	2163.4	regulate	Run3	regulate/STIM_025.jpg	99
2345.305	1.204	1204.1	regulate	Run3	regulate/STIM_026.jpg	99
2349.703	2.226	2225.6	regulate	Run3	regulate/STIM_026.jpg	100
2354.818	1.651	1650.9	regulate	Run3	regulate/STIM_026.jpg	99
2358.614	1.241	1240.7	regulate	Run3	regulate/STIM_026.jpg	100
2361.871	1.664	1664.2	regulate	Run3	regulate/STIM_027.jpg	100
2365.926	1.422	1421.8	regulate	Run3	regulate/STIM_027.jpg	100
2369.83	1.818	1818.1	regulate	Run3	regulate/STIM_027.jpg	100
2374.464	1.027	1027.4	regulate	Run3	regulate/STIM_027.jpg	100
2378.71	1.546	1546.5	regulate	Run3	regulate/STIM_028.jpg	100
2383.122	1.04	1039.8	regulate	Run3	regulate/STIM_028.jpg	100
2387.173	2.041	2041.3	regulate	Run3	regulate/STIM_028.jpg	99
2392.065	1.492	1492.0	regulate	Run3	regulate/STIM_028.jpg	99
2397.289	1.653	1652.7	regulate	Run3	regulate/STIM_029.jpg	100
2401.49	1.317	1317.4	regulate	Run3	regulate/STIM_029.jpg	99
2405.98	1.722	1721.5	regulate	Run3	regulate/STIM_029.jpg	99
2411.093	1.403	1402.9	regulate	Run3	regulate/STIM_029.jpg	100
2414.592	1.366	1366.3	observe	Run3	observe/STIM_000.jpg	100
2419.139	1.198	1198.1	observe	Run3	observe/STIM_000.jpg	99
2422.477	1.236	1235.8	observe	Run3	observe/STIM_000.jpg	100
2426.274	0.977	977.2	observe	Run3	observe/STIM_000.jpg	100
2429.483	1.166	1166.5	observe	Run3	observe/STIM_001.jpg	99
2434.409	0.913	913.2	observe	Run3	observe/STIM_001.jpg	99
2438.306	1.401	1400.8	observe	Run3	observe/STIM_001.jpg	100
2442.122	1.487	1487.3	observe	Run3	observe/STIM_001.jpg	100
2447.214	1.099	1098.9	observe	Run3	observe/STIM_002.jpg	99
2451.779	1.097	1097.3	observe	Run3	observe/STIM_002.jpg	100
2456.347	0.975	975.0	observe	Run3	observe/STIM_002.jpg	99
2460.974	1.467	1467.2	observe	Run3	observe/STIM_002.jpg	100
2465.42	1.089	1089.2	observe	Run3	observe/STIM_003.jpg	100
2469.804	1.137	1136.7	observe	Run3	observe/STIM_003.jpg	100
2474.551	1.216	1215.8	observe	Run3	observe/STIM_003.jpg	100
2477.795	1.173	1173.4	observe	Run3	observe/STIM_003.jpg	99
2482.149	1.233	1233.3	observe	Run3	observe/STIM_004.jpg	100
2486.444	1.078	1078.0	observe	Run3	observe/STIM_004.jpg	100
2489.727	1.532	1532.3	observe	Run3	observe/STIM_004.jpg	99
2494.057	0.939	938.7	observe	Run3	observe/STIM_004.jpg	100
2498.591	1.156	1156.3	observe	Run3	observe/STIM_005.jpg	100
2503.532	0.867	866.6	observe	Run3	observe/STIM_005.jpg	99
2508.017	1.014	1013.8	observe	Run3	observe/STIM_005.jpg	100
2511.698	1.201	1201.1	observe	Run3	observe/STIM_005.jpg	99
2516.352	0.82	820.3	observe	Run3	observe/STIM_006.jpg	100
2520.161	1.397	1397.1	observe	Run3	observe/STIM_006.jpg	100
2524.249	1.29	1289.8	observe	Run3	observe/STIM_006.jpg	99
2528.254	1.387	1386.9	observe	Run3	observe/STIM_006.jpg	100
2531.971	1.261	1261.4	observe	Run3	observe/STIM_007.jpg	100
2537.066	0.849	848.9	observe	Run3	observe/STIM_007.jpg	99
2541.659	0.823	822.6	observe	Run3	observe/STIM_007.jpg	99
2545.046	0.929	928.9	observe	Run3	observe/STIM_007.jpg	99
2549.474	1.495	1495.3	observe	Run3	observe/STIM_008.jpg	99
2553.369	0.774	774.5	observe	Run3	observe/STIM_008.jpg	100
2557.061	0.805	805.4	observe	Run3	observe/STIM_008.jpg	99
2561.753	1.523	1523.3	observe	Run3	observe/STIM_008.jpg	99
2567.184	1.243	1243.0	observe	Run3	observe/STIM_009.jpg	100
2571.466	0.915	914.9	observe	Run3	observe/STIM_009.jpg	99
2574.528	1.485	1484.9	observe	Run3	observe/STIM_009.jpg	99
2578.988	1.268	1267.8	observe	Run3	observe/STIM_009.jpg	99
2583.551	1.028	1027.6	observe	Run3	observe/STIM_010.jpg	99
2588.022	1.177	1176.8	observe	Run3	observe/STIM_010.jpg	99
2591.666	1.412	1411.9	observe	Run3	observe/STIM_010.jpg	100
2595.87	0.806	805.8	observe	Run3	observe/STIM_010.jpg	100
2600.483	1.198	1197.9	observe	Run3	observe/STIM_011.jpg	99
2604.494	1.423	1422.9	observe	Run3	observe/STIM_011.jpg	100
2609.115	1.259	1258.7	observe	Run3	observe/STIM_011.jpg	99
2612.954	0.913	912.8	observe	Run3	observe/STIM_011.jpg	100
2615.87	1.137	1136.9	observe	Run3	observe/STIM_012.jpg	100
2619.437	1.368	1368.0	observe	Run3	observe/STIM_012.jpg	99
2623.922	1.144	1144.3	observe	Run3	observe/STIM_012.jpg	99
2628.353	0.87	870.0	observe	Run3	observe/STIM_012.jpg	99
2632.453	1.514	1514.5	observe	Run3	observe/STIM_013.jpg	100
2636.132	0.807	806.7	observe	Run3	observe/STIM_013.jpg	100
2640.662	0.85	849.7	observe	Run3	observe/STIM_013.jpg	100
2645.511	1.474	1473.8	observe	Run3	observe/STIM_013.jpg	100
2650.969	0.82	819.6	observe	Run3	observe/STIM_014.jpg	99
2654.555	1.114	1113.8	observe	Run3	observe/STIM_014.jpg	99
2658.791	1.325	1325.1	observe	Run3	observe/STIM_014.jpg	100
2663.024	1.466	1466.4	observe	Run3	observe/STIM_014.jpg	100
2668.203	0.862	861.9	observe	Run3	observe/STIM_015.jpg	99
2672.512	1.371	1370.6	observe	Run3	observe/STIM_015.jpg	99
2677.408	1.076	1076.3	observe	Run3	observe/STIM_015.jpg	99
2682.306	0.849	849.3	observe	Run3	observe/STIM_015.jpg	99
2685.37	1.276	1275.5	observe	Run3	observe/STIM_016.jpg	99
2689.193	1.43	1430.4	observe	Run3	observe/STIM_016.jpg	100
2693.042	0.898	897.9	observe	Run3	observe/STIM_016.jpg	100
2696.76	0.966	966.4	observe	Run3	observe/STIM_016.jpg	100
2701.434	0.992	991.9	observe	Run3	observe/STIM_017.jpg	99
2704.641	1.48	1479.7	observe	Run3	observe/STIM_017.jpg	100
2709.604	0.89	890.1	observe	Run3	observe/STIM_017.jpg	100
2713.238	1.425	1424.6	observe	Run3	observe/STIM_017.jpg	100
2717.308	1.206	1206.0	observe	Run3	observe/STIM_018.jpg	99
2722.244	1.516	1516.2	observe	Run3	observe/STIM_018.jpg	100
2727.533	0.784	783.7	observe	Run3	observe/STIM_018.jpg	100
2731.344	0.902	902.2	observe	Run3	observe/STIM_018.jpg	100
2735.637	1.29	1290.3	observe	Run3	observe/STIM_019.jpg	99
2739.292	1.093	1093.1	observe	Run3	observe/STIM_019.jpg	99
2743.873	1.536	1536.4	observe	Run3	observe/STIM_019.jpg	100
2748.617	1.517	1517.0	observe	Run3	observe/STIM_019.jpg	100
