onset	duration	accuracy	trial_type	learning_stage	stimulus
0.0	3.044	incorrect	regulate	Run1	regulate/STIM_000.jpg
6.472	1.674	correct	regulate	Run1	regulate/STIM_000.jpg
11.039	2.489	correct	regulate	Run1	regulate/STIM_000.jpg
16.096	1.636	correct	regulate	Run1	regulate/STIM_000.jpg
20.991	1.738	correct	regulate	Run1	regulate/STIM_001.jpg
26.349	2.5	correct	regulate	Run1	regulate/STIM_001.jpg
31.728	1.688	incorrect	regulate	Run1	regulate/STIM_001.jpg
36.124	2.461	correct	regulate	Run1	regulate/STIM_001.jpg
41.056	1.622	correct	regulate	Run1	regulate/STIM_002.jpg
45.748	1.491	correct	regulate	Run1	regulate/STIM_002.jpg
51.117	1.172	correct	regulate	Run1	regulate/STIM_002.jpg
54.494	2.288	correct	regulate	Run1	regulate/STIM_002.jpg
59.783	1.995	correct	regulate	Run1	regulate/STIM_003.jpg
64.823	2.652	correct	regulate	Run1	regulate/STIM_003.jpg
70.946	1.469	correct	regulate	Run1	regulate/STIM_003.jpg
76.439	1.26	incorrect	regulate	Run1	regulate/STIM_003.jpg
81.091	2.009	correct	regulate	Run1	regulate/STIM_004.jpg
85.403	1.794	correct	regulate	Run1	regulate/STIM_004.jpg
91.227	2.748	correct	regulate	Run1	regulate/STIM_004.jpg
96.276	1.92	correct	regulate	Run1	regulate/STIM_004.jpg
100.829	1.608	correct	regulate	Run1	regulate/STIM_005.jpg
106.351	2.903	correct	regulate	Run1	regulate/STIM_005.jpg
112.203	2.602	correct	regulate	Run1	regulate/STIM_005.jpg
117.821	1.91	correct	regulate	Run1	regulate/STIM_005.jpg
122.335	2.711	correct	regulate	Run1	regulate/STIM_006.jpg
128.203	2.906	correct	regulate	Run1	regulate/STIM_006.jpg
133.736	1.24	correct	regulate	Run1	regulate/STIM_006.jpg
137.546	2.185	correct	regulate	Run1	regulate/STIM_006.jpg
143.859	1.743	correct	regulate	Run1	regulate/STIM_007.jpg
148.894	2.068	correct	regulate	Run1	regulate/STIM_007.jpg
153.382	1.823	correct	regulate	Run1	regulate/STIM_007.jpg
158.793	1.651	incorrect	regulate	Run1	regulate/STIM_007.jpg
163.794	1.46	correct	regulate	Run1	regulate/STIM_008.jpg
168.208	2.962	correct	regulate	Run1	regulate/STIM_008.jpg
175.4	2.097	correct	regulate	Run1	regulate/STIM_008.jpg
180.212	2.53	incorrect	regulate	Run1	regulate/STIM_008.jpg
185.135	1.421	correct	regulate	Run1	regulate/STIM_009.jpg
190.236	2.412	incorrect	regulate	Run1	regulate/STIM_009.jpg
196.833	1.857	incorrect	regulate	Run1	regulate/STIM_009.jpg
202.8	1.297	incorrect	regulate	Run1	regulate/STIM_009.jpg
207.772	2.524	correct	regulate	Run1	regulate/STIM_010.jpg
213.454	2.765	correct	regulate	Run1	regulate/STIM_010.jpg
219.191	1.843	correct	regulate	Run1	regulate/STIM_010.jpg
225.01	1.828	incorrect	regulate	Run1	regulate/STIM_010.jpg
229.503	2.039	incorrect	regulate	Run1	regulate/STIM_011.jpg
235.697	2.463	correct	regulate	Run1	regulate/STIM_011.jpg
242.379	2.079	incorrect	regulate	Run1	regulate/STIM_011.jpg
247.197	2.559	correct	regulate	Run1	regulate/STIM_011.jpg
252.627	3.114	correct	regulate	Run1	regulate/STIM_012.jpg
258.804	2.017	correct	regulate	Run1	regulate/STIM_012.jpg
263.802	1.776	incorrect	regulate	Run1	regulate/STIM_012.jpg
268.75	2.174	correct	regulate	Run1	regulate/STIM_012.jpg
273.242	2.505	incorrect	regulate	Run1	regulate/STIM_013.jpg
278.118	2.133	incorrect	regulate	Run1	regulate/STIM_013.jpg
283.314	1.849	correct	regulate	Run1	regulate/STIM_013.jpg
288.599	1.923	correct	regulate	Run1	regulate/STIM_013.jpg
294.382	1.78	correct	regulate	Run1	regulate/STIM_014.jpg
299.062	2.126	incorrect	regulate	Run1	regulate/STIM_014.jpg
305.43	2.081	incorrect	regulate	Run1	regulate/STIM_014.jpg
311.435	1.623	incorrect	regulate	Run1	regulate/STIM_014.jpg
315.842	2.469	correct	regulate	Run1	regulate/STIM_015.jpg
321.951	1.94	correct	regulate	Run1	regulate/STIM_015.jpg
326.308	1.836	correct	regulate	Run1	regulate/STIM_015.jpg
331.809	2.086	correct	regulate	Run1	regulate/STIM_015.jpg
338.008	2.269	correct	regulate	Run1	regulate/STIM_016.jpg
343.723	2.451	incorrect	regulate	Run1	regulate/STIM_016.jpg
349.775	1.352	incorrect	regulate	Run1	regulate/STIM_016.jpg
354.57	1.266	correct	regulate	Run1	regulate/STIM_016.jpg
358.573	2.721	correct	regulate	Run1	regulate/STIM_017.jpg
364.926	1.863	incorrect	regulate	Run1	regulate/STIM_017.jpg
369.819	1.412	correct	regulate	Run1	regulate/STIM_017.jpg
374.632	1.493	correct	regulate	Run1	regulate/STIM_017.jpg
379.552	2.162	correct	regulate	Run1	regulate/STIM_018.jpg
385.037	2.44	correct	regulate	Run1	regulate/STIM_018.jpg
390.054	1.466	incorrect	regulate	Run1	regulate/STIM_018.jpg
395.211	1.512	correct	regulate	Run1	regulate/STIM_018.jpg
399.172	2.892	correct	regulate	Run1	regulate/STIM_019.jpg
405.467	2.749	incorrect	regulate	Run1	regulate/STIM_019.jpg
411.322	1.288	correct	regulate	Run1	regulate/STIM_019.jpg
414.869	2.096	correct	regulate	Run1	regulate/STIM_019.jpg
419.999	1.994	incorrect	regulate	Run1	regulate/STIM_020.jpg
425.49	1.666	correct	regulate	Run1	regulate/STIM_020.jpg
430.765	2.489	incorrect	regulate	Run1	regulate/STIM_020.jpg
436.218	1.693	correct	regulate	Run1	regulate/STIM_020.jpg
441.837	2.184	incorrect	regulate	Run1	regulate/STIM_021.jpg
448.26	2.67	correct	regulate	Run1	regulate/STIM_021.jpg
455.245	1.248	correct	regulate	Run1	regulate/STIM_021.jpg
459.46	2.253	correct	regulate	Run1	regulate/STIM_021.jpg
464.643	1.645	correct	regulate	Run1	regulate/STIM_022.jpg
469.807	2.387	correct	regulate	Run1	regulate/STIM_022.jpg
474.967	1.813	correct	regulate	Run1	regulate/STIM_022.jpg
480.817	1.23	correct	regulate	Run1	regulate/STIM_022.jpg
485.441	2.484	correct	regulate	Run1	regulate/STIM_023.jpg
491.404	2.208	incorrect	regulate	Run1	regulate/STIM_023.jpg
497.677	1.41	correct	regulate	Run1	regulate/STIM_023.jpg
502.764	1.259	correct	regulate	Run1	regulate/STIM_023.jpg
508.099	1.578	correct	regulate	Run1	regulate/STIM_024.jpg
512.663	1.374	correct	regulate	Run1	regulate/STIM_024.jpg
517.906	2.188	correct	regulate	Run1	regulate/STIM_024.jpg
523.867	2.061	correct	regulate	Run1	regulate/STIM_024.jpg
530.107	2.991	incorrect	regulate	Run1	regulate/STIM_025.jpg
537.301	2.284	incorrect	regulate	Run1	regulate/STIM_025.jpg
543.711	1.941	correct	regulate	Run1	regulate/STIM_025.jpg
549.291	1.367	correct	regulate	Run1	regulate/STIM_025.jpg
553.99	1.463	incorrect	regulate	Run1	regulate/STIM_026.jpg
558.08	1.364	incorrect	regulate	Run1	regulate/STIM_026.jpg
561.941	2.266	correct	regulate	Run1	regulate/STIM_026.jpg
567.529	1.323	correct	regulate	Run1	regulate/STIM_026.jpg
572.247	1.919	correct	regulate	Run1	regulate/STIM_027.jpg
576.612	2.292	correct	regulate	Run1	regulate/STIM_027.jpg
582.835	1.925	correct	regulate	Run1	regulate/STIM_027.jpg
588.293	1.526	correct	regulate	Run1	regulate/STIM_027.jpg
593.826	2.637	correct	regulate	Run1	regulate/STIM_028.jpg
599.44	1.954	correct	regulate	Run1	regulate/STIM_028.jpg
604.96	1.775	correct	regulate	Run1	regulate/STIM_028.jpg
610.089	1.826	correct	regulate	Run1	regulate/STIM_028.jpg
616.123	2.247	correct	regulate	Run1	regulate/STIM_029.jpg
620.994	2.898	correct	regulate	Run1	regulate/STIM_029.jpg
627.888	1.327	correct	regulate	Run1	regulate/STIM_029.jpg
632.181	2.126	correct	regulate	Run1	regulate/STIM_029.jpg
638.399	0.942	correct	observe	Run1	observe/STIM_000.jpg
643.25	1.302	incorrect	observe	Run1	observe/STIM_000.jpg
647.348	1.308	correct	observe	Run1	observe/STIM_000.jpg
652.474	0.984	correct	observe	Run1	observe/STIM_000.jpg
655.975	1.374	correct	observe	Run1	observe/STIM_001.jpg
659.707	0.91	correct	observe	Run1	observe/STIM_001.jpg
664.061	0.778	correct	observe	Run1	observe/STIM_001.jpg
667.277	0.965	correct	observe	Run1	observe/STIM_001.jpg
670.948	0.861	correct	observe	Run1	observe/STIM_002.jpg
675.663	0.975	correct	observe	Run1	observe/STIM_002.jpg
678.949	1.092	correct	observe	Run1	observe/STIM_002.jpg
683.674	1.37	correct	observe	Run1	observe/STIM_002.jpg
688.358	0.982	correct	observe	Run1	observe/STIM_003.jpg
691.691	0.855	correct	observe	Run1	observe/STIM_003.jpg
695.64	1.425	incorrect	observe	Run1	observe/STIM_003.jpg
699.307	0.749	correct	observe	Run1	observe/STIM_003.jpg
702.854	1.345	correct	observe	Run1	observe/STIM_004.jpg
707.542	0.762	correct	observe	Run1	observe/STIM_004.jpg
710.773	0.717	correct	observe	Run1	observe/STIM_004.jpg
714.498	1.33	correct	observe	Run1	observe/STIM_004.jpg
718.357	1.228	correct	observe	Run1	observe/STIM_005.jpg
723.095	1.233	correct	observe	Run1	observe/STIM_005.jpg
727.845	1.088	correct	observe	Run1	observe/STIM_005.jpg
731.691	0.956	correct	observe	Run1	observe/STIM_005.jpg
734.719	0.806	correct	observe	Run1	observe/STIM_006.jpg
738.013	1.004	correct	observe	Run1	observe/STIM_006.jpg
741.604	1.252	incorrect	observe	Run1	observe/STIM_006.jpg
745.12	1.412	correct	observe	Run1	observe/STIM_006.jpg
750.665	0.793	correct	observe	Run1	observe/STIM_007.jpg
754.388	1.22	incorrect	observe	Run1	observe/STIM_007.jpg
757.937	0.711	correct	observe	Run1	observe/STIM_007.jpg
762.385	1.024	correct	observe	Run1	observe/STIM_007.jpg
765.81	1.117	correct	observe	Run1	observe/STIM_008.jpg
769.702	1.017	correct	observe	Run1	observe/STIM_008.jpg
773.995	1.325	correct	observe	Run1	observe/STIM_008.jpg
779.446	0.927	incorrect	observe	Run1	observe/STIM_008.jpg
782.929	1.002	correct	observe	Run1	observe/STIM_009.jpg
787.571	0.898	correct	observe	Run1	observe/STIM_009.jpg
790.992	1.07	incorrect	observe	Run1	observe/STIM_009.jpg
794.824	0.993	correct	observe	Run1	observe/STIM_009.jpg
798.08	1.186	correct	observe	Run1	observe/STIM_010.jpg
802.462	1.351	correct	observe	Run1	observe/STIM_010.jpg
807.318	0.849	correct	observe	Run1	observe/STIM_010.jpg
810.863	1.195	correct	observe	Run1	observe/STIM_010.jpg
815.237	0.959	correct	observe	Run1	observe/STIM_011.jpg
818.652	1.115	correct	observe	Run1	observe/STIM_011.jpg
822.668	0.899	correct	observe	Run1	observe/STIM_011.jpg
826.852	1.078	correct	observe	Run1	observe/STIM_011.jpg
830.347	1.245	correct	observe	Run1	observe/STIM_012.jpg
834.267	0.831	correct	observe	Run1	observe/STIM_012.jpg
837.588	1.195	correct	observe	Run1	observe/STIM_012.jpg
841.425	1.045	correct	observe	Run1	observe/STIM_012.jpg
845.735	1.018	correct	observe	Run1	observe/STIM_013.jpg
850.217	1.284	correct	observe	Run1	observe/STIM_013.jpg
853.779	1.324	correct	observe	Run1	observe/STIM_013.jpg
857.449	0.834	correct	observe	Run1	observe/STIM_013.jpg
860.704	0.923	incorrect	observe	Run1	observe/STIM_014.jpg
864.002	1.2	correct	observe	Run1	observe/STIM_014.jpg
868.568	0.784	correct	observe	Run1	observe/STIM_014.jpg
871.435	0.891	correct	observe	Run1	observe/STIM_014.jpg
876.242	1.352	correct	observe	Run1	observe/STIM_015.jpg
880.714	0.865	correct	observe	Run1	observe/STIM_015.jpg
885.403	1.307	correct	observe	Run1	observe/STIM_015.jpg
889.195	1.113	correct	observe	Run1	observe/STIM_015.jpg
893.176	1.249	correct	observe	Run1	observe/STIM_016.jpg
897.013	1.355	correct	observe	Run1	observe/STIM_016.jpg
902.192	1.137	correct	observe	Run1	observe/STIM_016.jpg
905.981	1.264	correct	observe	Run1	observe/STIM_016.jpg
910.187	1.389	correct	observe	Run1	observe/STIM_017.jpg
915.141	0.787	correct	observe	Run1	observe/STIM_017.jpg
919.909	1.271	correct	observe	Run1	observe/STIM_017.jpg
924.623	1.203	incorrect	observe	Run1	observe/STIM_017.jpg
929.628	1.345	correct	observe	Run1	observe/STIM_018.jpg
934.236	1.374	correct	observe	Run1	observe/STIM_018.jpg
938.831	1.324	correct	observe	Run1	observe/STIM_018.jpg
943.462	1.231	correct	observe	Run1	observe/STIM_018.jpg
948.059	0.761	correct	observe	Run1	observe/STIM_019.jpg
952.64	1.208	correct	observe	Run1	observe/STIM_019.jpg
957.105	1.255	correct	observe	Run1	observe/STIM_019.jpg
960.82	0.784	correct	observe	Run1	observe/STIM_019.jpg
965.627	1.946	incorrect	regulate	Run2	regulate/STIM_000.jpg
969.931	1.385	correct	regulate	Run2	regulate/STIM_000.jpg
975.32	1.975	correct	regulate	Run2	regulate/STIM_000.jpg
980.786	1.016	correct	regulate	Run2	regulate/STIM_000.jpg
985.273	1.346	correct	regulate	Run2	regulate/STIM_001.jpg
990.592	2.346	incorrect	regulate	Run2	regulate/STIM_001.jpg
996.631	2.281	incorrect	regulate	Run2	regulate/STIM_001.jpg
1001.794	1.211	correct	regulate	Run2	regulate/STIM_001.jpg
1006.66	1.695	correct	regulate	Run2	regulate/STIM_002.jpg
1011.727	1.99	correct	regulate	Run2	regulate/STIM_002.jpg
1016.022	1.984	correct	regulate	Run2	regulate/STIM_002.jpg
1020.339	1.681	correct	regulate	Run2	regulate/STIM_002.jpg
1024.276	2.343	correct	regulate	Run2	regulate/STIM_003.jpg
1029.614	2.432	correct	regulate	Run2	regulate/STIM_003.jpg
1034.915	1.209	correct	regulate	Run2	regulate/STIM_003.jpg
1039.474	1.201	correct	regulate	Run2	regulate/STIM_003.jpg
1043.972	2.269	correct	regulate	Run2	regulate/STIM_004.jpg
1049.489	2.332	correct	regulate	Run2	regulate/STIM_004.jpg
1055.537	1.545	correct	regulate	Run2	regulate/STIM_004.jpg
1060.338	1.596	incorrect	regulate	Run2	regulate/STIM_004.jpg
1064.926	1.928	correct	regulate	Run2	regulate/STIM_005.jpg
1069.652	1.435	correct	regulate	Run2	regulate/STIM_005.jpg
1075.266	1.553	correct	regulate	Run2	regulate/STIM_005.jpg
1080.333	1.943	incorrect	regulate	Run2	regulate/STIM_005.jpg
1084.618	1.072	incorrect	regulate	Run2	regulate/STIM_006.jpg
1088.393	2.407	correct	regulate	Run2	regulate/STIM_006.jpg
1094.59	2.141	correct	regulate	Run2	regulate/STIM_006.jpg
1100.843	1.024	correct	regulate	Run2	regulate/STIM_006.jpg
1104.732	1.238	correct	regulate	Run2	regulate/STIM_007.jpg
1109.537	2.072	correct	regulate	Run2	regulate/STIM_007.jpg
1113.879	1.153	correct	regulate	Run2	regulate/STIM_007.jpg
1117.948	2.104	correct	regulate	Run2	regulate/STIM_007.jpg
1122.757	2.041	correct	regulate	Run2	regulate/STIM_008.jpg
1128.101	1.847	correct	regulate	Run2	regulate/STIM_008.jpg
1133.609	1.821	correct	regulate	Run2	regulate/STIM_008.jpg
1138.323	1.518	correct	regulate	Run2	regulate/STIM_008.jpg
1143.425	1.698	incorrect	regulate	Run2	regulate/STIM_009.jpg
1148.098	1.413	correct	regulate	Run2	regulate/STIM_009.jpg
1153.04	2.078	correct	regulate	Run2	regulate/STIM_009.jpg
1158.505	1.535	correct	regulate	Run2	regulate/STIM_009.jpg
1162.6	2.393	correct	regulate	Run2	regulate/STIM_010.jpg
1168.508	1.29	correct	regulate	Run2	regulate/STIM_010.jpg
1172.678	1.604	correct	regulate	Run2	regulate/STIM_010.jpg
1176.852	1.243	correct	regulate	Run2	regulate/STIM_010.jpg
1181.41	1.961	incorrect	regulate	Run2	regulate/STIM_011.jpg
1186.242	2.091	correct	regulate	Run2	regulate/STIM_011.jpg
1192.094	2.26	correct	regulate	Run2	regulate/STIM_011.jpg
1198.525	1.675	correct	regulate	Run2	regulate/STIM_011.jpg
1203.37	1.668	correct	regulate	Run2	regulate/STIM_012.jpg
1207.732	2.046	correct	regulate	Run2	regulate/STIM_012.jpg
1212.564	1.996	correct	regulate	Run2	regulate/STIM_012.jpg
1217.303	1.019	correct	regulate	Run2	regulate/STIM_012.jpg
1222.141	1.601	correct	regulate	Run2	regulate/STIM_013.jpg
1227.716	1.724	correct	regulate	Run2	regulate/STIM_013.jpg
1232.125	1.629	correct	regulate	Run2	regulate/STIM_013.jpg
1236.945	1.204	incorrect	regulate	Run2	regulate/STIM_013.jpg
1241.972	1.946	incorrect	regulate	Run2	regulate/STIM_014.jpg
1247.184	1.179	correct	regulate	Run2	regulate/STIM_014.jpg
1252.204	1.216	correct	regulate	Run2	regulate/STIM_014.jpg
1256.261	1.014	correct	regulate	Run2	regulate/STIM_014.jpg
1259.861	1.404	correct	regulate	Run2	regulate/STIM_015.jpg
1264.867	2.518	correct	regulate	Run2	regulate/STIM_015.jpg
1269.763	1.843	correct	regulate	Run2	regulate/STIM_015.jpg
1275.504	2.112	correct	regulate	Run2	regulate/STIM_015.jpg
1281.496	1.457	correct	regulate	Run2	regulate/STIM_016.jpg
1286.139	1.206	correct	regulate	Run2	regulate/STIM_016.jpg
1291.542	1.512	correct	regulate	Run2	regulate/STIM_016.jpg
1295.673	1.631	correct	regulate	Run2	regulate/STIM_016.jpg
1300.689	1.714	correct	regulate	Run2	regulate/STIM_017.jpg
1306.08	2.247	correct	regulate	Run2	regulate/STIM_017.jpg
1310.79	1.732	correct	regulate	Run2	regulate/STIM_017.jpg
1314.871	2.003	correct	regulate	Run2	regulate/STIM_017.jpg
1319.27	1.987	correct	regulate	Run2	regulate/STIM_018.jpg
1324.604	1.228	correct	regulate	Run2	regulate/STIM_018.jpg
1328.203	1.579	correct	regulate	Run2	regulate/STIM_018.jpg
1333.396	2.051	correct	regulate	Run2	regulate/STIM_018.jpg
1338.29	1.69	correct	regulate	Run2	regulate/STIM_019.jpg
1343.485	2.514	correct	regulate	Run2	regulate/STIM_019.jpg
1349.569	1.095	correct	regulate	Run2	regulate/STIM_019.jpg
1354.272	1.651	correct	regulate	Run2	regulate/STIM_019.jpg
1359.785	2.046	correct	regulate	Run2	regulate/STIM_020.jpg
1364.764	1.916	correct	regulate	Run2	regulate/STIM_020.jpg
1370.006	2.2	incorrect	regulate	Run2	regulate/STIM_020.jpg
1375.249	1.778	correct	regulate	Run2	regulate/STIM_020.jpg
1380.252	2.427	incorrect	regulate	Run2	regulate/STIM_021.jpg
1385.765	1.073	incorrect	regulate	Run2	regulate/STIM_021.jpg
1390.281	2.062	correct	regulate	Run2	regulate/STIM_021.jpg
1396.493	0.883	correct	regulate	Run2	regulate/STIM_021.jpg
1399.569	1.512	correct	regulate	Run2	regulate/STIM_022.jpg
1404.061	1.422	correct	regulate	Run2	regulate/STIM_022.jpg
1409.17	1.516	correct	regulate	Run2	regulate/STIM_022.jpg
1413.433	1.172	incorrect	regulate	Run2	regulate/STIM_022.jpg
1417.792	2.608	correct	regulate	Run2	regulate/STIM_023.jpg
1424.587	1.363	correct	regulate	Run2	regulate/STIM_023.jpg
1429.855	1.216	correct	regulate	Run2	regulate/STIM_023.jpg
1433.701	1.931	correct	regulate	Run2	regulate/STIM_023.jpg
1439.004	2.585	correct	regulate	Run2	regulate/STIM_024.jpg
1445.214	1.485	correct	regulate	Run2	regulate/STIM_024.jpg
1449.906	2.052	correct	regulate	Run2	regulate/STIM_024.jpg
1454.605	1.08	correct	regulate	Run2	regulate/STIM_024.jpg
1458.9	2.166	correct	regulate	Run2	regulate/STIM_025.jpg
1465.329	1.13	correct	regulate	Run2	regulate/STIM_025.jpg
1470.14	1.142	correct	regulate	Run2	regulate/STIM_025.jpg
1473.468	1.726	correct	regulate	Run2	regulate/STIM_025.jpg
1479.001	1.6	correct	regulate	Run2	regulate/STIM_026.jpg
1483.583	2.081	correct	regulate	Run2	regulate/STIM_026.jpg
1488.545	1.427	correct	regulate	Run2	regulate/STIM_026.jpg
1492.759	1.249	correct	regulate	Run2	regulate/STIM_026.jpg
1497.768	1.912	correct	regulate	Run2	regulate/STIM_027.jpg
1502.136	1.334	correct	regulate	Run2	regulate/STIM_027.jpg
1506.897	2.004	correct	regulate	Run2	regulate/STIM_027.jpg
1511.453	1.788	correct	regulate	Run2	regulate/STIM_027.jpg
1516.441	1.611	correct	regulate	Run2	regulate/STIM_028.jpg
1521.626	1.489	correct	regulate	Run2	regulate/STIM_028.jpg
1526.234	1.478	correct	regulate	Run2	regulate/STIM_028.jpg
1531.186	1.509	correct	regulate	Run2	regulate/STIM_028.jpg
1535.382	1.802	correct	regulate	Run2	regulate/STIM_029.jpg
1540.33	1.64	correct	regulate	Run2	regulate/STIM_029.jpg
1546.094	1.89	correct	regulate	Run2	regulate/STIM_029.jpg
1551.386	1.941	correct	regulate	Run2	regulate/STIM_029.jpg
1556.801	1.099	correct	observe	Run2	observe/STIM_000.jpg
1561.938	0.917	correct	observe	Run2	observe/STIM_000.jpg
1565.702	0.899	correct	observe	Run2	observe/STIM_000.jpg
1568.726	1.414	incorrect	observe	Run2	observe/STIM_000.jpg
1574.248	0.937	correct	observe	Run2	observe/STIM_001.jpg
1578.869	0.793	correct	observe	Run2	observe/STIM_001.jpg
1581.863	0.931	correct	observe	Run2	observe/STIM_001.jpg
1585.218	1.284	correct	observe	Run2	observe/STIM_001.jpg
1589.219	0.631	correct	observe	Run2	observe/STIM_002.jpg
1594.013	1.464	correct	observe	Run2	observe/STIM_002.jpg
1597.699	0.974	correct	observe	Run2	observe/STIM_002.jpg
1601.841	1.012	correct	observe	Run2	observe/STIM_002.jpg
1606.191	1.061	correct	observe	Run2	observe/STIM_003.jpg
1609.492	1.11	correct	observe	Run2	observe/STIM_003.jpg
1614.383	1.137	correct	observe	Run2	observe/STIM_003.jpg
1619.085	0.754	correct	observe	Run2	observe/STIM_003.jpg
1622.144	0.769	incorrect	observe	Run2	observe/STIM_004.jpg
1626.088	1.212	correct	observe	Run2	observe/STIM_004.jpg
1631.459	0.749	correct	observe	Run2	observe/STIM_004.jpg
1635.606	1.047	correct	observe	Run2	observe/STIM_004.jpg
1638.958	0.948	correct	observe	Run2	observe/STIM_005.jpg
1643.247	1.086	correct	observe	Run2	observe/STIM_005.jpg
1647.225	1.193	correct	observe	Run2	observe/STIM_005.jpg
1652.161	1.47	correct	observe	Run2	observe/STIM_005.jpg
1656.41	1.408	correct	observe	Run2	observe/STIM_006.jpg
1660.832	1.104	incorrect	observe	Run2	observe/STIM_006.jpg
1664.146	1.019	incorrect	observe	Run2	observe/STIM_006.jpg
1667.491	0.947	correct	observe	Run2	observe/STIM_006.jpg
1670.61	0.822	correct	observe	Run2	observe/STIM_007.jpg
1674.412	1.308	correct	observe	Run2	observe/STIM_007.jpg
1678.939	1.382	correct	observe	Run2	observe/STIM_007.jpg
1682.595	0.835	correct	observe	Run2	observe/STIM_007.jpg
1686.211	1.252	correct	observe	Run2	observe/STIM_008.jpg
1691.3	1.205	correct	observe	Run2	observe/STIM_008.jpg
1695.872	0.992	correct	observe	Run2	observe/STIM_008.jpg
1700.337	1.368	correct	observe	Run2	observe/STIM_008.jpg
1704.92	1.234	correct	observe	Run2	observe/STIM_009.jpg
1709.619	0.987	correct	observe	Run2	observe/STIM_009.jpg
1713.416	1.186	correct	observe	Run2	observe/STIM_009.jpg
1717.502	0.817	correct	observe	Run2	observe/STIM_009.jpg
1721.258	0.817	correct	observe	Run2	observe/STIM_010.jpg
1725.261	0.936	incorrect	observe	Run2	observe/STIM_010.jpg
1730.244	0.674	correct	observe	Run2	observe/STIM_010.jpg
1733.755	0.834	correct	observe	Run2	observe/STIM_010.jpg
1737.814	1.372	correct	observe	Run2	observe/STIM_011.jpg
1742.747	1.358	correct	observe	Run2	observe/STIM_011.jpg
1747.299	1.378	correct	observe	Run2	observe/STIM_011.jpg
1751.911	0.672	correct	observe	Run2	observe/STIM_011.jpg
1756.046	1.14	correct	observe	Run2	observe/STIM_012.jpg
1760.113	0.799	correct	observe	Run2	observe/STIM_012.jpg
1763.318	0.82	correct	observe	Run2	observe/STIM_012.jpg
1766.325	0.713	incorrect	observe	Run2	observe/STIM_012.jpg
1771.117	1.281	correct	observe	Run2	observe/STIM_013.jpg
1774.957	1.332	correct	observe	Run2	observe/STIM_013.jpg
1779.234	0.938	correct	observe	Run2	observe/STIM_013.jpg
1783.813	0.683	correct	observe	Run2	observe/STIM_013.jpg
1788.564	1.486	correct	observe	Run2	observe/STIM_014.jpg
1792.463	0.748	correct	observe	Run2	observe/STIM_014.jpg
1796.142	1.215	incorrect	observe	Run2	observe/STIM_014.jpg
1799.827	0.818	correct	observe	Run2	observe/STIM_014.jpg
1803.317	1.109	correct	observe	Run2	observe/STIM_015.jpg
1808.114	0.942	correct	observe	Run2	observe/STIM_015.jpg
1812.097	0.924	correct	observe	Run2	observe/STIM_015.jpg
1815.344	0.859	correct	observe	Run2	observe/STIM_015.jpg
1819.79	0.863	correct	observe	Run2	observe/STIM_016.jpg
1823.6	1.352	correct	observe	Run2	observe/STIM_016.jpg
1828.079	0.841	incorrect	observe	Run2	observe/STIM_016.jpg
1832.479	0.784	correct	observe	Run2	observe/STIM_016.jpg
1835.933	1.004	correct	observe	Run2	observe/STIM_017.jpg
1840.789	1.186	incorrect	observe	Run2	observe/STIM_017.jpg
1844.598	1.364	correct	observe	Run2	observe/STIM_017.jpg
1850.055	1.226	correct	observe	Run2	observe/STIM_017.jpg
1854.958	1.114	correct	observe	Run2	observe/STIM_018.jpg
1859.67	0.795	incorrect	observe	Run2	observe/STIM_018.jpg
1862.603	0.792	correct	observe	Run2	observe/STIM_018.jpg
1867.173	1.06	correct	observe	Run2	observe/STIM_018.jpg
1872.179	1.213	correct	observe	Run2	observe/STIM_019.jpg
1875.495	1.111	correct	observe	Run2	observe/STIM_019.jpg
1879.44	0.895	correct	observe	Run2	observe/STIM_019.jpg
1882.952	0.838	correct	observe	Run2	observe/STIM_019.jpg
1885.961	1.991	correct	regulate	Run3	regulate/STIM_000.jpg
1890.406	1.875	correct	regulate	Run3	regulate/STIM_000.jpg
1896.394	2.016	correct	regulate	Run3	regulate/STIM_000.jpg
1902.346	2.069	correct	regulate	Run3	regulate/STIM_000.jpg
1908.52	1.587	correct	regulate	Run3	regulate/STIM_001.jpg
1914.221	2.12	correct	regulate	Run3	regulate/STIM_001.jpg
1919.028	1.585	correct	regulate	Run3	regulate/STIM_001.jpg
1923.181	2.057	correct	regulate	Run3	regulate/STIM_001.jpg
1928.466	1.872	correct	regulate	Run3	regulate/STIM_002.jpg
1933.253	2.118	correct	regulate	Run3	regulate/STIM_002.jpg
1938.53	1.627	correct	regulate	Run3	regulate/STIM_002.jpg
1944.404	0.952	correct	regulate	Run3	regulate/STIM_002.jpg
1947.658	1.167	correct	regulate	Run3	regulate/STIM_003.jpg
1952.81	2.072	correct	regulate	Run3	regulate/STIM_003.jpg
1957.459	1.706	correct	regulate	Run3	regulate/STIM_003.jpg
1962.385	1.9	correct	regulate	Run3	regulate/STIM_003.jpg
1966.712	2.102	correct	regulate	Run3	regulate/STIM_004.jpg
1972.391	1.572	correct	regulate	Run3	regulate/STIM_004.jpg
1976.796	1.581	incorrect	regulate	Run3	regulate/STIM_004.jpg
1981.328	2.095	correct	regulate	Run3	regulate/STIM_004.jpg
1987.707	1.78	correct	regulate	Run3	regulate/STIM_005.jpg
1992.266	0.936	correct	regulate	Run3	regulate/STIM_005.jpg
1996.094	1.422	correct	regulate	Run3	regulate/STIM_005.jpg
2001.682	1.647	correct	regulate	Run3	regulate/STIM_005.jpg
2006.353	0.934	correct	regulate	Run3	regulate/STIM_006.jpg
2009.824	1.169	correct	regulate	Run3	regulate/STIM_006.jpg
2014.792	1.589	correct	regulate	Run3	regulate/STIM_006.jpg
2019.791	2.04	correct	regulate	Run3	regulate/STIM_006.jpg
2026.067	1.118	correct	regulate	Run3	regulate/STIM_007.jpg
2030.355	2.043	correct	regulate	Run3	regulate/STIM_007.jpg
2036.588	2.131	correct	regulate	Run3	regulate/STIM_007.jpg
2041.248	1.176	correct	regulate	Run3	regulate/STIM_007.jpg
2044.934	1.268	correct	regulate	Run3	regulate/STIM_008.jpg
2050.056	0.981	correct	regulate	Run3	regulate/STIM_008.jpg
2053.97	1.409	correct	regulate	Run3	regulate/STIM_008.jpg
2058.733	1.188	correct	regulate	Run3	regulate/STIM_008.jpg
2063.552	1.035	correct	regulate	Run3	regulate/STIM_009.jpg
2067.532	1.951	correct	regulate	Run3	regulate/STIM_009.jpg
2071.878	1.014	correct	regulate	Run3	regulate/STIM_009.jpg
2076.84	1.722	correct	regulate	Run3	regulate/STIM_009.jpg
2082.343	1.0	correct	regulate	Run3	regulate/STIM_010.jpg
2086.776	1.684	correct	regulate	Run3	regulate/STIM_010.jpg
2092.448	1.417	correct	regulate	Run3	regulate/STIM_010.jpg
2096.317	1.559	correct	regulate	Run3	regulate/STIM_010.jpg
2100.803	1.102	correct	regulate	Run3	regulate/STIM_011.jpg
2104.424	0.969	correct	regulate	Run3	regulate/STIM_011.jpg
2108.05	2.261	correct	regulate	Run3	regulate/STIM_011.jpg
2112.827	0.992	correct	regulate	Run3	regulate/STIM_011.jpg
2117.386	1.71	correct	regulate	Run3	regulate/STIM_012.jpg
2122.986	1.425	correct	regulate	Run3	regulate/STIM_012.jpg
2127.225	1.313	correct	regulate	Run3	regulate/STIM_012.jpg
2131.169	1.838	incorrect	regulate	Run3	regulate/STIM_012.jpg
2135.982	1.877	correct	regulate	Run3	regulate/STIM_013.jpg
2140.894	1.589	correct	regulate	Run3	regulate/STIM_013.jpg
2144.738	2.064	correct	regulate	Run3	regulate/STIM_013.jpg
2149.527	1.04	correct	regulate	Run3	regulate/STIM_013.jpg
2154.07	1.69	correct	regulate	Run3	regulate/STIM_014.jpg
2159.202	1.067	correct	regulate	Run3	regulate/STIM_014.jpg
2164.244	1.996	correct	regulate	Run3	regulate/STIM_014.jpg
2168.641	1.44	incorrect	regulate	Run3	regulate/STIM_014.jpg
2172.276	0.984	correct	regulate	Run3	regulate/STIM_015.jpg
2176.05	1.129	correct	regulate	Run3	regulate/STIM_015.jpg
2181.1	1.677	correct	regulate	Run3	regulate/STIM_015.jpg
2185.624	1.224	correct	regulate	Run3	regulate/STIM_015.jpg
2189.349	2.159	correct	regulate	Run3	regulate/STIM_016.jpg
2194.658	1.83	correct	regulate	Run3	regulate/STIM_016.jpg
2199.845	1.395	correct	regulate	Run3	regulate/STIM_016.jpg
2203.695	1.137	correct	regulate	Run3	regulate/STIM_016.jpg
2207.639	1.155	correct	regulate	Run3	regulate/STIM_017.jpg
2211.799	1.435	incorrect	regulate	Run3	regulate/STIM_017.jpg
2216.204	1.083	correct	regulate	Run3	regulate/STIM_017.jpg
2221.363	1.228	correct	regulate	Run3	regulate/STIM_017.jpg
2225.064	2.017	correct	regulate	Run3	regulate/STIM_018.jpg
2229.849	1.879	correct	regulate	Run3	regulate/STIM_018.jpg
2234.416	1.482	correct	regulate	Run3	regulate/STIM_018.jpg
2238.96	1.545	correct	regulate	Run3	regulate/STIM_018.jpg
2244.107	1.578	correct	regulate	Run3	regulate/STIM_019.jpg
2249.249	1.272	correct	regulate	Run3	regulate/STIM_019.jpg
2254.038	1.324	correct	regulate	Run3	regulate/STIM_019.jpg
2259.471	1.955	correct	regulate	Run3	regulate/STIM_019.jpg
2264.917	2.114	correct	regulate	Run3	regulate/STIM_020.jpg
2270.21	1.914	correct	regulate	Run3	regulate/STIM_020.jpg
2275.63	1.313	correct	regulate	Run3	regulate/STIM_020.jpg
2280.842	1.576	correct	regulate	Run3	regulate/STIM_020.jpg
2286.001	1.795	correct	regulate	Run3	regulate/STIM_021.jpg
2290.278	1.949	correct	regulate	Run3	regulate/STIM_021.jpg
2296.281	1.838	correct	regulate	Run3	regulate/STIM_021.jpg
2302.111	1.788	correct	regulate	Run3	regulate/STIM_021.jpg
2307.074	2.076	correct	regulate	Run3	regulate/STIM_022.jpg
2312.935	1.262	correct	regulate	Run3	regulate/STIM_022.jpg
2317.451	1.595	correct	regulate	Run3	regulate/STIM_022.jpg
2321.304	1.693	correct	regulate	Run3	regulate/STIM_022.jpg
2327.03	1.638	correct	regulate	Run3	regulate/STIM_023.jpg
2331.382	1.368	correct	regulate	Run3	regulate/STIM_023.jpg
2334.975	1.914	correct	regulate	Run3	regulate/STIM_023.jpg
2339.405	1.985	correct	regulate	Run3	regulate/STIM_023.jpg
2343.917	1.122	correct	regulate	Run3	regulate/STIM_024.jpg
2348.418	1.582	correct	regulate	Run3	regulate/STIM_024.jpg
2353.418	2.007	incorrect	regulate	Run3	regulate/STIM_024.jpg
2358.826	1.446	correct	regulate	Run3	regulate/STIM_024.jpg
2363.78	2.166	correct	regulate	Run3	regulate/STIM_025.jpg
2368.223	1.89	correct	regulate	Run3	regulate/STIM_025.jpg
2372.791	1.953	correct	regulate	Run3	regulate/STIM_025.jpg
2378.333	1.928	correct	regulate	Run3	regulate/STIM_025.jpg
2383.554	1.101	correct	regulate	Run3	regulate/STIM_026.jpg
2388.152	1.849	correct	regulate	Run3	regulate/STIM_026.jpg
2394.164	0.928	correct	regulate	Run3	regulate/STIM_026.jpg
2398.972	2.096	correct	regulate	Run3	regulate/STIM_026.jpg
2405.072	1.327	correct	regulate	Run3	regulate/STIM_027.jpg
2409.481	2.023	correct	regulate	Run3	regulate/STIM_027.jpg
2414.464	1.242	correct	regulate	Run3	regulate/STIM_027.jpg
2418.894	1.855	correct	regulate	Run3	regulate/STIM_027.jpg
2424.034	1.591	correct	regulate	Run3	regulate/STIM_028.jpg
2428.215	1.384	correct	regulate	Run3	regulate/STIM_028.jpg
2432.86	1.497	correct	regulate	Run3	regulate/STIM_028.jpg
2436.902	1.98	correct	regulate	Run3	regulate/STIM_028.jpg
2441.639	1.144	correct	regulate	Run3	regulate/STIM_029.jpg
2446.447	2.035	correct	regulate	Run3	regulate/STIM_029.jpg
2450.998	1.706	correct	regulate	Run3	regulate/STIM_029.jpg
2455.453	1.688	correct	regulate	Run3	regulate/STIM_029.jpg
2459.569	1.108	correct	observe	Run3	observe/STIM_000.jpg
2464.045	1.028	correct	observe	Run3	observe/STIM_000.jpg
2468.323	1.298	correct	observe	Run3	observe/STIM_000.jpg
2472.919	0.945	correct	observe	Run3	observe/STIM_000.jpg
2476.193	0.801	correct	observe	Run3	observe/STIM_001.jpg
2480.474	1.308	correct	observe	Run3	observe/STIM_001.jpg
2484.778	0.899	correct	observe	Run3	observe/STIM_001.jpg
2489.262	0.732	correct	observe	Run3	observe/STIM_001.jpg
2493.274	1.075	incorrect	observe	Run3	observe/STIM_002.jpg
2496.51	0.703	correct	observe	Run3	observe/STIM_002.jpg
2500.911	0.803	correct	observe	Run3	observe/STIM_002.jpg
2505.376	1.104	correct	observe	Run3	observe/STIM_002.jpg
2508.775	0.846	correct	observe	Run3	observe/STIM_003.jpg
2511.986	0.972	incorrect	observe	Run3	observe/STIM_003.jpg
2515.941	1.358	correct	observe	Run3	observe/STIM_003.jpg
2520.047	1.377	correct	observe	Run3	observe/STIM_003.jpg
2525.491	0.777	correct	observe	Run3	observe/STIM_004.jpg
2529.208	0.856	correct	observe	Run3	observe/STIM_004.jpg
2532.874	1.356	correct	observe	Run3	observe/STIM_004.jpg
2537.05	1.263	correct	observe	Run3	observe/STIM_004.jpg
2541.343	0.897	correct	observe	Run3	observe/STIM_005.jpg
2544.894	0.821	incorrect	observe	Run3	observe/STIM_005.jpg
2549.708	1.116	correct	observe	Run3	observe/STIM_005.jpg
2553.435	1.211	correct	observe	Run3	observe/STIM_005.jpg
2558.01	1.441	correct	observe	Run3	observe/STIM_006.jpg
2562.302	1.017	correct	observe	Run3	observe/STIM_006.jpg
2566.472	0.836	correct	observe	Run3	observe/STIM_006.jpg
2571.113	1.042	correct	observe	Run3	observe/STIM_006.jpg
2574.664	0.94	correct	observe	Run3	observe/STIM_007.jpg
2579.669	0.758	correct	observe	Run3	observe/STIM_007.jpg
2583.789	1.349	correct	observe	Run3	observe/STIM_007.jpg
2588.971	1.062	incorrect	observe	Run3	observe/STIM_007.jpg
2592.835	1.268	correct	observe	Run3	observe/STIM_008.jpg
2597.451	1.46	correct	observe	Run3	observe/STIM_008.jpg
2602.748	1.136	incorrect	observe	Run3	observe/STIM_008.jpg
2606.596	1.38	correct	observe	Run3	observe/STIM_008.jpg
2611.412	1.178	correct	observe	Run3	observe/STIM_009.jpg
2616.589	1.336	correct	observe	Run3	observe/STIM_009.jpg
2622.116	0.972	correct	observe	Run3	observe/STIM_009.jpg
2625.409	0.931	correct	observe	Run3	observe/STIM_009.jpg
2629.598	0.824	correct	observe	Run3	observe/STIM_010.jpg
2632.633	1.4	correct	observe	Run3	observe/STIM_010.jpg
2637.807	1.134	correct	observe	Run3	observe/STIM_010.jpg
2641.532	1.302	incorrect	observe	Run3	observe/STIM_010.jpg
2645.773	0.97	correct	observe	Run3	observe/STIM_011.jpg
2650.318	0.966	correct	observe	Run3	observe/STIM_011.jpg
2654.979	0.913	correct	observe	Run3	observe/STIM_011.jpg
2659.114	1.022	correct	observe	Run3	observe/STIM_011.jpg
2663.629	1.269	correct	observe	Run3	observe/STIM_012.jpg
2668.775	1.453	correct	observe	Run3	observe/STIM_012.jpg
2673.919	1.01	correct	observe	Run3	observe/STIM_012.jpg
2677.621	1.227	correct	observe	Run3	observe/STIM_012.jpg
2681.635	0.785	correct	observe	Run3	observe/STIM_013.jpg
2686.41	1.248	correct	observe	Run3	observe/STIM_013.jpg
2690.319	1.184	incorrect	observe	Run3	observe/STIM_013.jpg
2695.055	1.167	incorrect	observe	Run3	observe/STIM_013.jpg
2698.731	1.101	correct	observe	Run3	observe/STIM_014.jpg
2702.565	0.955	correct	observe	Run3	observe/STIM_014.jpg
2707.26	0.724	correct	observe	Run3	observe/STIM_014.jpg
2711.697	0.938	correct	observe	Run3	observe/STIM_014.jpg
2715.093	0.967	correct	observe	Run3	observe/STIM_015.jpg
2718.903	0.768	incorrect	observe	Run3	observe/STIM_015.jpg
2723.129	1.127	correct	observe	Run3	observe/STIM_015.jpg
2726.438	0.991	correct	observe	Run3	observe/STIM_015.jpg
2730.406	0.934	correct	observe	Run3	observe/STIM_016.jpg
2734.155	1.22	correct	observe	Run3	observe/STIM_016.jpg
2738.393	0.922	incorrect	observe	Run3	observe/STIM_016.jpg
2742.575	1.23	correct	observe	Run3	observe/STIM_016.jpg
2746.503	1.41	correct	observe	Run3	observe/STIM_017.jpg
2751.118	0.768	correct	observe	Run3	observe/STIM_017.jpg
2755.056	0.867	correct	observe	Run3	observe/STIM_017.jpg
2759.896	1.204	correct	observe	Run3	observe/STIM_017.jpg
2764.626	1.005	correct	observe	Run3	observe/STIM_018.jpg
2767.777	0.668	correct	observe	Run3	observe/STIM_018.jpg
2772.444	0.726	correct	observe	Run3	observe/STIM_018.jpg
2776.684	0.994	correct	observe	Run3	observe/STIM_018.jpg
2781.182	1.306	correct	observe	Run3	observe/STIM_019.jpg
2785.396	0.894	correct	observe	Run3	observe/STIM_019.jpg
2788.447	0.775	correct	observe	Run3	observe/STIM_019.jpg
2791.345	1.202	correct	observe	Run3	observe/STIM_019.jpg
