onset	duration	response_time_ms	trial_type	learning_stage	stimulus	response_port
0.0	1.026	1026.2	2back	Block1	2back/STIM_000.jpg	99
4.884	0.673	673.0	2back	Block1	2back/STIM_000.jpg	100
8.008	1.04	1040.1	2back	Block1	2back/STIM_000.jpg	99
11.844	1.212	1212.2	2back	Block1	2back/STIM_001.jpg	99
16.706	1.158	1158.1	2back	Block1	2back/STIM_001.jpg	99
21.286	0.957	957.3	2back	Block1	2back/STIM_001.jpg	100
24.494	0.543	542.7	2back	Block1	2back/STIM_002.jpg	99
27.587	1.194	1194.2	2back	Block1	2back/STIM_002.jpg	100
31.454	0.846	845.5	2back	Block1	2back/STIM_002.jpg	99
34.441	1.244	1243.9	2back	Block1	2back/STIM_003.jpg	100
37.893	0.718	718.5	2back	Block1	2back/STIM_003.jpg	99
41.418	0.886	886.4	2back	Block1	2back/STIM_003.jpg	99
44.474	1.233	1233.2	2back	Block1	2back/STIM_004.jpg	99
48.553	0.901	900.6	2back	Block1	2back/STIM_004.jpg	100
52.653	0.951	950.7	2back	Block1	2back/STIM_004.jpg	100
57.583	0.565	565.0	2back	Block1	2back/STIM_005.jpg	100
61.391	0.777	777.1	2back	Block1	2back/STIM_005.jpg	100
65.494	0.761	761.2	2back	Block1	2back/STIM_005.jpg	99
69.738	0.815	814.7	2back	Block1	2back/STIM_006.jpg	100
73.444	0.603	603.2	2back	Block1	2back/STIM_006.jpg	100
76.653	0.665	664.6	2back	Block1	2back/STIM_006.jpg	99
79.605	0.838	838.2	2back	Block1	2back/STIM_007.jpg	99
82.803	0.556	555.7	2back	Block1	2back/STIM_007.jpg	99
86.845	0.495	495.4	2back	Block1	2back/STIM_007.jpg	100
89.464	1.044	1044.4	2back	Block1	2back/STIM_008.jpg	100
94.066	0.579	579.3	2back	Block1	2back/STIM_008.jpg	100
97.16	1.074	1074.5	2back	Block1	2back/STIM_008.jpg	99
101.899	0.625	625.3	2back	Block1	2back/STIM_009.jpg	100
105.587	0.933	933.4	2back	Block1	2back/STIM_009.jpg	100
109.119	1.088	1087.9	2back	Block1	2back/STIM_009.jpg	99
113.692	0.801	801.0	2back	Block1	2back/STIM_010.jpg	99
118.395	0.534	534.0	2back	Block1	2back/STIM_010.jpg	99
121.559	0.656	655.8	2back	Block1	2back/STIM_010.jpg	99
125.496	1.138	1137.6	2back	Block1	2back/STIM_011.jpg	100
130.452	1.073	1072.8	2back	Block1	2back/STIM_011.jpg	99
133.932	0.688	688.3	2back	Block1	2back/STIM_011.jpg	100
136.818	0.885	884.6	2back	Block1	2back/STIM_012.jpg	100
141.486	0.764	764.0	2back	Block1	2back/STIM_012.jpg	100
146.121	0.69	689.5	2back	Block1	2back/STIM_012.jpg	99
149.179	0.731	731.1	2back	Block1	2back/STIM_013.jpg	99
152.639	0.751	750.7	2back	Block1	2back/STIM_013.jpg	100
156.049	0.951	951.3	2back	Block1	2back/STIM_013.jpg	99
160.809	1.003	1002.6	2back	Block1	2back/STIM_014.jpg	99
164.866	0.556	555.8	2back	Block1	2back/STIM_014.jpg	100
167.997	0.594	594.3	2back	Block1	2back/STIM_014.jpg	99
172.407	0.609	608.7	2back	Block1	2back/STIM_015.jpg	100
176.543	0.972	971.7	2back	Block1	2back/STIM_015.jpg	100
181.214	0.925	924.6	2back	Block1	2back/STIM_015.jpg	99
184.832	0.953	953.0	2back	Block1	2back/STIM_016.jpg	99
188.984	1.174	1173.6	2back	Block1	2back/STIM_016.jpg	100
193.318	0.491	490.8	2back	Block1	2back/STIM_016.jpg	99
196.007	0.688	688.5	2back	Block1	2back/STIM_017.jpg	99
199.684	0.63	630.4	2back	Block1	2back/STIM_017.jpg	100
203.229	0.539	539.3	2back	Block1	2back/STIM_017.jpg	100
207.239	0.675	675.1	2back	Block1	2back/STIM_018.jpg	100
211.885	1.03	1030.0	2back	Block1	2back/STIM_018.jpg	100
215.44	0.618	618.3	2back	Block1	2back/STIM_018.jpg	99
219.81	0.661	660.8	2back	Block1	2back/STIM_019.jpg	100
222.479	0.78	780.3	2back	Block1	2back/STIM_019.jpg	100
225.69	1.089	1089.1	2back	Block1	2back/STIM_019.jpg	100
230.11	0.813	812.8	2back	Block1	2back/STIM_020.jpg	99
233.831	0.759	759.2	2back	Block1	2back/STIM_020.jpg	99
237.215	0.504	503.9	2back	Block1	2back/STIM_020.jpg	99
241.601	0.636	635.8	2back	Block1	2back/STIM_021.jpg	99
245.183	1.037	1037.3	2back	Block1	2back/STIM_021.jpg	100
249.047	0.59	590.0	2back	Block1	2back/STIM_021.jpg	99
253.416	0.986	986.1	2back	Block1	2back/STIM_022.jpg	100
256.731	1.059	1059.2	2back	Block1	2back/STIM_022.jpg	100
261.61	0.799	798.9	2back	Block1	2back/STIM_022.jpg	99
266.075	0.962	961.7	2back	Block1	2back/STIM_023.jpg	99
269.172	0.644	643.6	2back	Block1	2back/STIM_023.jpg	99
272.051	1.116	1116.2	2back	Block1	2back/STIM_023.jpg	99
275.365	1.122	1121.8	2back	Block1	2back/STIM_024.jpg	100
279.654	0.813	813.2	2back	Block1	2back/STIM_024.jpg	100
284.212	0.604	603.7	2back	Block1	2back/STIM_024.jpg	100
288.153	0.668	668.2	2back	Block1	2back/STIM_025.jpg	99
292.357	0.868	868.1	2back	Block1	2back/STIM_025.jpg	100
296.043	0.989	989.4	2back	Block1	2back/STIM_025.jpg	99
300.824	1.146	1146.5	2back	Block1	2back/STIM_026.jpg	100
305.031	0.811	810.9	2back	Block1	2back/STIM_026.jpg	99
307.923	0.614	613.7	2back	Block1	2back/STIM_026.jpg	99
311.864	0.556	556.0	2back	Block1	2back/STIM_027.jpg	99
314.92	0.83	830.5	2back	Block1	2back/STIM_027.jpg	99
318.724	0.503	502.7	2back	Block1	2back/STIM_027.jpg	100
322.539	0.905	905.2	2back	Block1	2back/STIM_028.jpg	100
326.763	0.977	977.2	2back	Block1	2back/STIM_028.jpg	100
330.838	1.067	1067.0	2back	Block1	2back/STIM_028.jpg	100
335.23	1.212	1212.2	2back	Block1	2back/STIM_029.jpg	99
340.296	0.759	759.4	2back	Block1	2back/STIM_029.jpg	100
344.341	0.506	506.2	2back	Block1	2back/STIM_029.jpg	100
348.606	0.869	869.0	2back	Block1	2back/STIM_030.jpg	100
352.104	0.865	865.2	2back	Block1	2back/STIM_030.jpg	100
355.558	0.908	908.5	2back	Block1	2back/STIM_030.jpg	100
358.897	0.924	924.3	2back	Block1	2back/STIM_031.jpg	99
362.641	0.595	595.1	2back	Block1	2back/STIM_031.jpg	99
366.345	1.078	1077.7	2back	Block1	2back/STIM_031.jpg	99
371.254	0.725	724.7	2back	Block1	2back/STIM_032.jpg	100
374.787	1.157	1156.7	2back	Block1	2back/STIM_032.jpg	100
378.796	0.785	785.1	2back	Block1	2back/STIM_032.jpg	99
382.287	0.556	556.3	2back	Block1	2back/STIM_033.jpg	99
385.636	1.052	1051.7	2back	Block1	2back/STIM_033.jpg	99
389.881	0.573	573.4	2back	Block1	2back/STIM_033.jpg	100
393.982	0.899	899.3	2back	Block1	2back/STIM_034.jpg	100
398.833	1.047	1046.8	2back	Block1	2back/STIM_034.jpg	100
402.281	0.557	556.8	2back	Block1	2back/STIM_034.jpg	99
405.411	0.848	847.9	2back	Block1	2back/STIM_035.jpg	100
409.921	0.77	769.6	2back	Block1	2back/STIM_035.jpg	100
413.67	0.518	518.0	2back	Block1	2back/STIM_035.jpg	100
417.119	0.545	545.4	2back	Block1	2back/STIM_036.jpg	99
420.085	0.555	555.1	2back	Block1	2back/STIM_036.jpg	99
424.436	1.063	1063.4	2back	Block1	2back/STIM_036.jpg	100
428.025	1.091	1090.9	2back	Block1	2back/STIM_037.jpg	99
431.513	0.958	958.2	2back	Block1	2back/STIM_037.jpg	99
435.992	0.844	843.7	2back	Block1	2back/STIM_037.jpg	99
440.146	1.158	1158.1	2back	Block1	2back/STIM_038.jpg	99
443.553	1.185	1185.2	2back	Block1	2back/STIM_038.jpg	99
448.554	0.828	827.7	2back	Block1	2back/STIM_038.jpg	99
452.039	1.051	1050.6	2back	Block1	2back/STIM_039.jpg	100
455.422	0.648	648.1	2back	Block1	2back/STIM_039.jpg	100
459.524	1.068	1068.0	2back	Block1	2back/STIM_039.jpg	99
463.759	0.624	623.9	0back	Block1	0back/STIM_000.jpg	99
468.243	0.46	460.0	0back	Block1	0back/STIM_000.jpg	100
471.725	0.637	636.6	0back	Block1	0back/STIM_000.jpg	99
474.852	0.53	529.7	0back	Block1	0back/STIM_001.jpg	100
478.988	0.682	682.0	0back	Block1	0back/STIM_001.jpg	99
483.208	0.7	699.5	0back	Block1	0back/STIM_001.jpg	99
487.671	0.437	436.8	0back	Block1	0back/STIM_002.jpg	99
490.207	0.469	468.9	0back	Block1	0back/STIM_002.jpg	99
492.904	0.471	471.3	0back	Block1	0back/STIM_002.jpg	100
497.013	0.639	638.6	0back	Block1	0back/STIM_003.jpg	100
500.964	0.536	535.6	0back	Block1	0back/STIM_003.jpg	99
503.762	0.603	603.0	0back	Block1	0back/STIM_003.jpg	100
506.807	0.361	360.9	0back	Block1	0back/STIM_004.jpg	99
510.58	0.557	557.0	0back	Block1	0back/STIM_004.jpg	100
513.739	0.478	478.0	0back	Block1	0back/STIM_004.jpg	99
517.117	0.68	680.3	0back	Block1	0back/STIM_005.jpg	100
519.887	0.496	495.8	0back	Block1	0back/STIM_005.jpg	100
522.555	0.449	448.7	0back	Block1	0back/STIM_005.jpg	100
525.323	0.367	367.4	0back	Block1	0back/STIM_006.jpg	99
528.11	0.691	690.8	0back	Block1	0back/STIM_006.jpg	100
531.673	0.56	560.5	0back	Block1	0back/STIM_006.jpg	99
535.26	0.412	412.1	0back	Block1	0back/STIM_007.jpg	100
539.217	0.67	669.8	0back	Block1	0back/STIM_007.jpg	99
543.596	0.7	700.4	0back	Block1	0back/STIM_007.jpg	99
546.796	0.569	569.1	0back	Block1	0back/STIM_008.jpg	99
551.27	0.608	608.1	0back	Block1	0back/STIM_008.jpg	99
555.812	0.585	584.6	0back	Block1	0back/STIM_008.jpg	99
559.424	0.37	370.4	0back	Block1	0back/STIM_009.jpg	100
562.417	0.582	581.7	0back	Block1	0back/STIM_009.jpg	99
565.03	0.702	702.4	0back	Block1	0back/STIM_009.jpg	99
569.295	0.658	658.1	0back	Block1	0back/STIM_010.jpg	100
572.135	0.368	367.9	0back	Block1	0back/STIM_010.jpg	100
575.822	0.577	577.4	0back	Block1	0back/STIM_010.jpg	100
580.292	0.706	705.5	0back	Block1	0back/STIM_011.jpg	99
584.931	0.467	466.9	0back	Block1	0back/STIM_011.jpg	99
589.321	0.574	574.0	0back	Block1	0back/STIM_011.jpg	99
592.793	0.6	600.0	0back	Block1	0back/STIM_012.jpg	99
596.968	0.525	524.8	0back	Block1	0back/STIM_012.jpg	100
600.98	0.64	639.9	0back	Block1	0back/STIM_012.jpg	100
604.882	0.663	663.2	0back	Block1	0back/STIM_013.jpg	100
608.754	0.571	571.4	0back	Block1	0back/STIM_013.jpg	100
612.116	0.54	540.5	0back	Block1	0back/STIM_013.jpg	100
616.418	0.554	553.8	0back	Block1	0back/STIM_014.jpg	99
619.033	0.547	546.9	0back	Block1	0back/STIM_014.jpg	100
623.128	0.421	421.1	0back	Block1	0back/STIM_014.jpg	99
626.776	0.712	712.2	0back	Block1	0back/STIM_015.jpg	100
631.026	0.488	487.5	0back	Block1	0back/STIM_015.jpg	99
634.051	0.64	639.7	0back	Block1	0back/STIM_015.jpg	100
638.426	0.434	434.1	0back	Block1	0back/STIM_016.jpg	100
642.083	0.506	506.3	0back	Block1	0back/STIM_016.jpg	99
644.992	0.569	568.9	0back	Block1	0back/STIM_016.jpg	99
649.341	0.637	637.3	0back	Block1	0back/STIM_017.jpg	99
653.708	0.655	655.0	0back	Block1	0back/STIM_017.jpg	99
657.06	0.653	653.1	0back	Block1	0back/STIM_017.jpg	99
659.918	0.639	639.1	0back	Block1	0back/STIM_018.jpg	99
662.912	0.56	559.9	0back	Block1	0back/STIM_018.jpg	99
666.029	0.462	461.9	0back	Block1	0back/STIM_018.jpg	100
670.467	0.706	705.8	0back	Block1	0back/STIM_019.jpg	100
673.449	0.539	538.7	0back	Block1	0back/STIM_019.jpg	100
676.38	0.413	412.9	0back	Block1	0back/STIM_019.jpg	99
680.342	0.614	614.0	2back	Block2	2back/STIM_000.jpg	99
683.182	0.741	741.1	2back	Block2	2back/STIM_000.jpg	100
687.672	0.817	817.1	2back	Block2	2back/STIM_000.jpg	100
692.266	0.957	956.7	2back	Block2	2back/STIM_001.jpg	99
695.971	0.851	850.6	2back	Block2	2back/STIM_001.jpg	100
700.23	0.776	776.0	2back	Block2	2back/STIM_001.jpg	100
704.631	0.484	484.0	2back	Block2	2back/STIM_002.jpg	99
708.987	0.695	695.2	2back	Block2	2back/STIM_002.jpg	99
713.13	0.535	534.6	2back	Block2	2back/STIM_002.jpg	99
716.134	0.794	793.7	2back	Block2	2back/STIM_003.jpg	100
720.049	0.878	877.8	2back	Block2	2back/STIM_003.jpg	99
723.218	0.424	424.0	2back	Block2	2back/STIM_003.jpg	100
726.787	0.782	781.7	2back	Block2	2back/STIM_004.jpg	100
730.127	1.007	1007.0	2back	Block2	2back/STIM_004.jpg	99
735.08	0.638	638.1	2back	Block2	2back/STIM_004.jpg	99
739.34	0.86	860.0	2back	Block2	2back/STIM_005.jpg	99
743.829	0.864	863.6	2back	Block2	2back/STIM_005.jpg	100
748.521	0.75	749.6	2back	Block2	2back/STIM_005.jpg	99
751.283	0.769	768.6	2back	Block2	2back/STIM_006.jpg	99
755.364	0.632	631.5	2back	Block2	2back/STIM_006.jpg	100
759.274	0.453	453.2	2back	Block2	2back/STIM_006.jpg	100
762.684	0.772	772.5	2back	Block2	2back/STIM_007.jpg	99
766.116	0.682	681.6	2back	Block2	2back/STIM_007.jpg	99
769.736	0.876	876.4	2back	Block2	2back/STIM_007.jpg	100
772.879	1.067	1066.9	2back	Block2	2back/STIM_008.jpg	99
776.65	0.498	498.3	2back	Block2	2back/STIM_008.jpg	99
779.298	0.716	715.6	2back	Block2	2back/STIM_008.jpg	100
782.284	1.072	1071.7	2back	Block2	2back/STIM_009.jpg	99
785.448	0.665	665.1	2back	Block2	2back/STIM_009.jpg	99
790.055	0.885	885.3	2back	Block2	2back/STIM_009.jpg	99
794.729	0.729	729.2	2back	Block2	2back/STIM_010.jpg	100
797.55	0.792	792.0	2back	Block2	2back/STIM_010.jpg	100
800.649	0.696	695.9	2back	Block2	2back/STIM_010.jpg	100
804.252	0.91	910.5	2back	Block2	2back/STIM_011.jpg	99
809.158	0.823	823.4	2back	Block2	2back/STIM_011.jpg	99
813.682	0.931	931.2	2back	Block2	2back/STIM_011.jpg	99
816.93	0.562	562.5	2back	Block2	2back/STIM_012.jpg	100
819.769	0.821	820.7	2back	Block2	2back/STIM_012.jpg	99
824.578	0.592	591.7	2back	Block2	2back/STIM_012.jpg	100
829.085	0.586	586.2	2back	Block2	2back/STIM_013.jpg	100
833.511	0.866	866.2	2back	Block2	2back/STIM_013.jpg	99
837.481	0.542	542.3	2back	Block2	2back/STIM_013.jpg	99
840.281	0.832	832.3	2back	Block2	2back/STIM_014.jpg	100
844.462	0.658	657.8	2back	Block2	2back/STIM_014.jpg	99
848.293	0.716	716.3	2back	Block2	2back/STIM_014.jpg	99
852.646	0.616	616.2	2back	Block2	2back/STIM_015.jpg	100
856.202	0.753	753.0	2back	Block2	2back/STIM_015.jpg	100
860.48	0.685	684.7	2back	Block2	2back/STIM_015.jpg	100
863.773	0.642	642.1	2back	Block2	2back/STIM_016.jpg	100
867.284	0.862	861.8	2back	Block2	2back/STIM_016.jpg	100
871.07	0.521	521.2	2back	Block2	2back/STIM_016.jpg	99
874.493	0.61	610.2	2back	Block2	2back/STIM_017.jpg	99
878.863	0.865	864.8	2back	Block2	2back/STIM_017.jpg	100
882.942	0.691	691.4	2back	Block2	2back/STIM_017.jpg	99
886.461	0.838	838.1	2back	Block2	2back/STIM_018.jpg	99
890.369	0.528	527.5	2back	Block2	2back/STIM_018.jpg	100
893.326	0.812	812.2	2back	Block2	2back/STIM_018.jpg	100
897.725	0.46	460.4	2back	Block2	2back/STIM_019.jpg	100
901.708	0.938	937.8	2back	Block2	2back/STIM_019.jpg	99
906.627	0.871	871.3	2back	Block2	2back/STIM_019.jpg	100
911.441	0.781	780.9	2back	Block2	2back/STIM_020.jpg	100
916.217	0.611	610.9	2back	Block2	2back/STIM_020.jpg	100
920.708	0.772	772.3	2back	Block2	2back/STIM_020.jpg	99
925.373	0.986	986.3	2back	Block2	2back/STIM_021.jpg	99
930.172	0.866	866.2	2back	Block2	2back/STIM_021.jpg	99
934.204	0.414	413.5	2back	Block2	2back/STIM_021.jpg	100
936.94	0.638	637.7	2back	Block2	2back/STIM_022.jpg	99
940.051	0.954	954.2	2back	Block2	2back/STIM_022.jpg	100
944.208	0.562	562.3	2back	Block2	2back/STIM_022.jpg	99
947.964	0.698	697.7	2back	Block2	2back/STIM_023.jpg	100
951.908	0.595	595.1	2back	Block2	2back/STIM_023.jpg	99
956.362	0.847	847.1	2back	Block2	2back/STIM_023.jpg	99
959.502	0.585	585.0	2back	Block2	2back/STIM_024.jpg	100
962.432	0.58	580.2	2back	Block2	2back/STIM_024.jpg	99
966.666	0.585	584.6	2back	Block2	2back/STIM_024.jpg	99
969.808	0.96	960.1	2back	Block2	2back/STIM_025.jpg	99
973.88	0.636	636.3	2back	Block2	2back/STIM_025.jpg	99
978.25	0.768	768.3	2back	Block2	2back/STIM_025.jpg	99
982.388	0.948	947.7	2back	Block2	2back/STIM_026.jpg	99
986.807	0.784	783.6	2back	Block2	2back/STIM_026.jpg	99
990.036	0.476	476.1	2back	Block2	2back/STIM_026.jpg	100
993.34	0.826	825.9	2back	Block2	2back/STIM_027.jpg	100
997.483	0.844	843.5	2back	Block2	2back/STIM_027.jpg	99
1001.105	0.563	563.2	2back	Block2	2back/STIM_027.jpg	100
1004.266	0.738	738.5	2back	Block2	2back/STIM_028.jpg	100
1007.589	0.559	559.4	2back	Block2	2back/STIM_028.jpg	99
1011.227	0.517	516.8	2back	Block2	2back/STIM_028.jpg	100
1013.754	0.587	586.8	2back	Block2	2back/STIM_029.jpg	100
1016.649	0.87	870.5	2back	Block2	2back/STIM_029.jpg	100
1021.19	0.793	793.4	2back	Block2	2back/STIM_029.jpg	99
1024.983	0.486	485.7	2back	Block2	2back/STIM_030.jpg	99
1028.338	0.707	706.7	2back	Block2	2back/STIM_030.jpg	100
1032.526	0.42	420.3	2back	Block2	2back/STIM_030.jpg	100
1035.798	0.977	977.0	2back	Block2	2back/STIM_031.jpg	99
1040.347	0.717	717.2	2back	Block2	2back/STIM_031.jpg	100
1043.648	0.866	865.7	2back	Block2	2back/STIM_031.jpg	100
1047.515	0.579	579.2	2back	Block2	2back/STIM_032.jpg	100
1050.304	0.743	743.1	2back	Block2	2back/STIM_032.jpg	100
1054.639	0.599	599.1	2back	Block2	2back/STIM_032.jpg	100
1058.182	0.866	865.5	2back	Block2	2back/STIM_033.jpg	100
1061.19	0.953	953.4	2back	Block2	2back/STIM_033.jpg	100
1064.323	0.772	771.6	2back	Block2	2back/STIM_033.jpg	99
1067.459	0.804	804.1	2back	Block2	2back/STIM_034.jpg	99
1071.541	0.546	546.3	2back	Block2	2back/STIM_034.jpg	99
1075.11	0.639	638.9	2back	Block2	2back/STIM_034.jpg	99
1078.042	0.994	993.6	2back	Block2	2back/STIM_035.jpg	99
1082.924	0.925	925.2	2back	Block2	2back/STIM_035.jpg	99
1086.512	0.471	471.1	2back	Block2	2back/STIM_035.jpg	99
1089.917	0.851	851.4	2back	Block2	2back/STIM_036.jpg	100
1093.627	0.683	683.1	2back	Block2	2back/STIM_036.jpg	100
1096.411	0.593	592.9	2back	Block2	2back/STIM_036.jpg	100
1100.871	1.007	1006.6	2back	Block2	2back/STIM_037.jpg	100
1105.205	0.582	582.0	2back	Block2	2back/STIM_037.jpg	99
1109.503	0.754	754.3	2back	Block2	2back/STIM_037.jpg	99
1112.878	0.533	533.3	2back	Block2	2back/STIM_038.jpg	99
1117.155	0.83	829.7	2back	Block2	2back/STIM_038.jpg	99
1120.538	0.823	823.3	2back	Block2	2back/STIM_038.jpg	99
1123.623	0.637	636.8	2back	Block2	2back/STIM_039.jpg	100
1127.83	0.785	785.1	2back	Block2	2back/STIM_039.jpg	100
1131.859	0.804	804.1	2back	Block2	2back/STIM_039.jpg	99
1135.939	0.681	680.9	0back	Block2	0back/STIM_000.jpg	100
1139.898	0.558	558.5	0back	Block2	0back/STIM_000.jpg	100
1144.355	0.666	665.6	0back	Block2	0back/STIM_000.jpg	100
1148.014	0.681	680.8	0back	Block2	0back/STIM_001.jpg	100
1151.472	0.609	608.9	0back	Block2	0back/STIM_001.jpg	100
1155.535	0.448	447.6	0back	Block2	0back/STIM_001.jpg	99
1159.79	0.424	423.7	0back	Block2	0back/STIM_002.jpg	100
1163.015	0.568	568.0	0back	Block2	0back/STIM_002.jpg	100
1167.438	0.38	379.7	0back	Block2	0back/STIM_002.jpg	100
1170.149	0.563	563.4	0back	Block2	0back/STIM_003.jpg	100
1173.263	0.471	471.3	0back	Block2	0back/STIM_003.jpg	100
1177.361	0.712	712.3	0back	Block2	0back/STIM_003.jpg	100
1180.525	0.482	482.0	0back	Block2	0back/STIM_004.jpg	100
1184.342	0.44	439.5	0back	Block2	0back/STIM_004.jpg	100
1187.296	0.545	545.1	0back	Block2	0back/STIM_004.jpg	99
1190.209	0.642	641.8	0back	Block2	0back/STIM_005.jpg	100
1193.541	0.59	590.5	0back	Block2	0back/STIM_005.jpg	100
1196.236	0.489	489.0	0back	Block2	0back/STIM_005.jpg	100
1199.838	0.388	387.5	0back	Block2	0back/STIM_006.jpg	99
1204.037	0.493	493.0	0back	Block2	0back/STIM_006.jpg	100
1208.34	0.713	712.6	0back	Block2	0back/STIM_006.jpg	100
1212.336	0.654	653.6	0back	Block2	0back/STIM_007.jpg	100
1216.041	0.662	662.1	0back	Block2	0back/STIM_007.jpg	99
1219.575	0.526	526.5	0back	Block2	0back/STIM_007.jpg	100
1222.568	0.505	504.8	0back	Block2	0back/STIM_008.jpg	99
1225.445	0.628	628.3	0back	Block2	0back/STIM_008.jpg	100
1229.599	0.703	703.2	0back	Block2	0back/STIM_008.jpg	99
1233.218	0.594	593.9	0back	Block2	0back/STIM_009.jpg	99
1237.604	0.369	368.9	0back	Block2	0back/STIM_009.jpg	99
1240.145	0.49	489.9	0back	Block2	0back/STIM_009.jpg	100
1244.623	0.44	440.5	0back	Block2	0back/STIM_010.jpg	99
1247.168	0.618	617.8	0back	Block2	0back/STIM_010.jpg	99
1250.996	0.661	660.8	0back	Block2	0back/STIM_010.jpg	99
1254.974	0.629	629.3	0back	Block2	0back/STIM_011.jpg	99
1258.293	0.515	514.6	0back	Block2	0back/STIM_011.jpg	100
1262.512	0.601	600.6	0back	Block2	0back/STIM_011.jpg	100
1265.167	0.706	705.6	0back	Block2	0back/STIM_012.jpg	99
1268.864	0.387	386.7	0back	Block2	0back/STIM_012.jpg	99
1272.549	0.453	453.3	0back	Block2	0back/STIM_012.jpg	99
1276.339	0.461	460.9	0back	Block2	0back/STIM_013.jpg	100
1280.695	0.685	685.0	0back	Block2	0back/STIM_013.jpg	99
1283.771	0.494	494.3	0back	Block2	0back/STIM_013.jpg	99
1287.338	0.54	540.5	0back	Block2	0back/STIM_014.jpg	100
1291.696	0.458	457.7	0back	Block2	0back/STIM_014.jpg	100
1295.948	0.386	386.0	0back	Block2	0back/STIM_014.jpg	100
1299.763	0.62	619.9	0back	Block2	0back/STIM_015.jpg	100
1304.379	0.648	648.4	0back	Block2	0back/STIM_015.jpg	100
1308.08	0.689	688.7	0back	Block2	0back/STIM_015.jpg	99
1311.853	0.493	493.4	0back	Block2	0back/STIM_016.jpg	100
1315.885	0.427	427.1	0back	Block2	0back/STIM_016.jpg	99
1320.081	0.646	646.1	0back	Block2	0back/STIM_016.jpg	99
1324.068	0.387	387.4	0back	Block2	0back/STIM_017.jpg	99
1327.489	0.622	622.1	0back	Block2	0back/STIM_017.jpg	99
1330.536	0.516	516.2	0back	Block2	0back/STIM_017.jpg	99
1334.0	0.448	448.0	0back	Block2	0back/STIM_018.jpg	99
1338.123	0.674	674.1	0back	Block2	0back/STIM_018.jpg	100
1342.648	0.498	498.5	0back	Block2	0back/STIM_018.jpg	99
1346.477	0.454	454.4	0back	Block2	0back/STIM_019.jpg	100
1349.255	0.628	627.8	0back	Block2	0back/STIM_019.jpg	99
1353.333	0.434	434.4	0back	Block2	0back/STIM_019.jpg	100
1356.504	0.531	531.0	2back	Block3	2back/STIM_000.jpg	99
1360.402	0.541	540.7	2back	Block3	2back/STIM_000.jpg	100
1364.555	0.598	597.8	2back	Block3	2back/STIM_000.jpg	99
1367.197	0.788	788.4	2back	Block3	2back/STIM_001.jpg	99
1371.345	0.406	406.2	2back	Block3	2back/STIM_001.jpg	100
1373.791	0.765	765.4	2back	Block3	2back/STIM_001.jpg	100
1377.03	0.797	797.0	2back	Block3	2back/STIM_002.jpg	100
1381.105	0.851	850.7	2back	Block3	2back/STIM_002.jpg	100
1385.882	0.836	836.0	2back	Block3	2back/STIM_002.jpg	99
1390.655	0.654	653.7	2back	Block3	2back/STIM_003.jpg	100
1394.377	0.799	798.6	2back	Block3	2back/STIM_003.jpg	99
1397.904	0.748	747.9	2back	Block3	2back/STIM_003.jpg	99
1400.823	0.812	812.4	2back	Block3	2back/STIM_004.jpg	100
1405.087	0.655	654.6	2back	Block3	2back/STIM_004.jpg	99
1408.152	0.813	812.6	2back	Block3	2back/STIM_004.jpg	100
1411.343	0.858	857.5	2back	Block3	2back/STIM_005.jpg	99
1415.071	0.487	487.2	2back	Block3	2back/STIM_005.jpg	99
1418.488	0.877	877.4	2back	Block3	2back/STIM_005.jpg	100
1421.546	0.554	554.2	2back	Block3	2back/STIM_006.jpg	99
1424.9	0.879	878.9	2back	Block3	2back/STIM_006.jpg	99
1429.407	0.663	663.2	2back	Block3	2back/STIM_006.jpg	100
1433.083	0.445	445.1	2back	Block3	2back/STIM_007.jpg	100
1435.979	0.703	703.4	2back	Block3	2back/STIM_007.jpg	100
1440.489	0.703	702.7	2back	Block3	2back/STIM_007.jpg	100
1444.436	0.419	418.6	2back	Block3	2back/STIM_008.jpg	99
1447.467	0.65	650.0	2back	Block3	2back/STIM_008.jpg	100
1452.065	0.795	795.1	2back	Block3	2back/STIM_008.jpg	99
1455.653	0.659	659.1	2back	Block3	2back/STIM_009.jpg	99
1458.805	0.525	525.1	2back	Block3	2back/STIM_009.jpg	100
1461.98	0.848	847.9	2back	Block3	2back/STIM_009.jpg	99
1466.704	0.543	542.8	2back	Block3	2back/STIM_010.jpg	99
1469.551	0.656	656.2	2back	Block3	2back/STIM_010.jpg	99
1472.456	0.846	845.7	2back	Block3	2back/STIM_010.jpg	100
1477.209	0.794	793.9	2back	Block3	2back/STIM_011.jpg	99
1481.184	0.447	447.4	2back	Block3	2back/STIM_011.jpg	99
1485.067	0.52	519.6	2back	Block3	2back/STIM_011.jpg	100
1489.228	0.725	724.6	2back	Block3	2back/STIM_012.jpg	100
1492.572	0.736	735.9	2back	Block3	2back/STIM_012.jpg	99
1496.466	0.666	666.1	2back	Block3	2back/STIM_012.jpg	100
1499.411	0.833	833.3	2back	Block3	2back/STIM_013.jpg	100
1502.66	0.622	622.1	2back	Block3	2back/STIM_013.jpg	99
1506.53	0.786	786.4	2back	Block3	2back/STIM_013.jpg	100
1510.265	0.827	826.7	2back	Block3	2back/STIM_014.jpg	100
1515.066	0.384	383.6	2back	Block3	2back/STIM_014.jpg	99
1518.478	0.799	799.0	2back	Block3	2back/STIM_014.jpg	100
1522.83	0.388	388.2	2back	Block3	2back/STIM_015.jpg	99
1526.673	0.518	518.2	2back	Block3	2back/STIM_015.jpg	99
1530.244	0.778	778.3	2back	Block3	2back/STIM_015.jpg	99
1533.64	0.855	854.8	2back	Block3	2back/STIM_016.jpg	99
1538.317	0.67	669.5	2back	Block3	2back/STIM_016.jpg	100
1541.666	0.425	425.0	2back	Block3	2back/STIM_016.jpg	99
1545.434	0.598	597.6	2back	Block3	2back/STIM_017.jpg	100
1548.728	0.734	733.6	2back	Block3	2back/STIM_017.jpg	99
1553.311	0.658	657.7	2back	Block3	2back/STIM_017.jpg	99
1555.972	0.828	828.2	2back	Block3	2back/STIM_018.jpg	100
1559.73	0.835	834.7	2back	Block3	2back/STIM_018.jpg	100
1563.132	0.538	537.9	2back	Block3	2back/STIM_018.jpg	100
1566.223	0.728	727.7	2back	Block3	2back/STIM_019.jpg	100
1569.422	0.601	601.2	2back	Block3	2back/STIM_019.jpg	100
1573.294	0.553	553.0	2back	Block3	2back/STIM_019.jpg	99
1576.94	0.875	874.9	2back	Block3	2back/STIM_020.jpg	100
1580.685	0.44	440.4	2back	Block3	2back/STIM_020.jpg	100
1584.351	0.421	421.3	2back	Block3	2back/STIM_020.jpg	99
1587.83	0.704	704.1	2back	Block3	2back/STIM_021.jpg	99
1591.061	0.498	497.5	2back	Block3	2back/STIM_021.jpg	99
1594.366	0.722	722.3	2back	Block3	2back/STIM_021.jpg	99
1598.961	0.79	789.9	2back	Block3	2back/STIM_022.jpg	100
1603.073	0.504	504.5	2back	Block3	2back/STIM_022.jpg	100
1606.288	0.454	454.2	2back	Block3	2back/STIM_022.jpg	99
1610.341	0.56	559.9	2back	Block3	2back/STIM_023.jpg	99
1614.046	0.538	538.1	2back	Block3	2back/STIM_023.jpg	99
1618.294	0.793	793.1	2back	Block3	2back/STIM_023.jpg	100
1623.08	0.667	666.7	2back	Block3	2back/STIM_024.jpg	99
1627.324	0.62	619.9	2back	Block3	2back/STIM_024.jpg	99
1631.205	0.586	585.9	2back	Block3	2back/STIM_024.jpg	100
1635.642	0.438	438.5	2back	Block3	2back/STIM_025.jpg	99
1638.165	0.547	547.1	2back	Block3	2back/STIM_025.jpg	100
1641.617	0.689	688.8	2back	Block3	2back/STIM_025.jpg	100
1644.893	0.416	415.9	2back	Block3	2back/STIM_026.jpg	100
1647.889	0.58	580.4	2back	Block3	2back/STIM_026.jpg	100
1650.777	0.426	425.5	2back	Block3	2back/STIM_026.jpg	100
1654.537	0.542	542.4	2back	Block3	2back/STIM_027.jpg	100
1657.592	0.503	503.3	2back	Block3	2back/STIM_027.jpg	99
1661.455	0.535	534.9	2back	Block3	2back/STIM_027.jpg	100
1665.68	0.731	731.0	2back	Block3	2back/STIM_028.jpg	100
1668.531	0.442	442.3	2back	Block3	2back/STIM_028.jpg	99
1672.666	0.539	539.3	2back	Block3	2back/STIM_028.jpg	100
1676.555	0.408	408.5	2back	Block3	2back/STIM_029.jpg	100
1679.527	0.758	757.5	2back	Block3	2back/STIM_029.jpg	99
1682.877	0.866	866.3	2back	Block3	2back/STIM_029.jpg	99
1686.107	0.714	713.6	2back	Block3	2back/STIM_030.jpg	99
1689.655	0.523	522.7	2back	Block3	2back/STIM_030.jpg	100
1692.317	0.76	759.7	2back	Block3	2back/STIM_030.jpg	99
1695.505	0.608	607.9	2back	Block3	2back/STIM_031.jpg	99
1699.953	0.412	412.5	2back	Block3	2back/STIM_031.jpg	99
1702.655	0.841	841.2	2back	Block3	2back/STIM_031.jpg	99
1705.578	0.457	457.0	2back	Block3	2back/STIM_032.jpg	99
1709.273	0.745	745.3	2back	Block3	2back/STIM_032.jpg	100
1713.356	0.472	471.9	2back	Block3	2back/STIM_032.jpg	99
1716.301	0.433	432.9	2back	Block3	2back/STIM_033.jpg	100
1720.119	0.407	406.9	2back	Block3	2back/STIM_033.jpg	100
1722.913	0.798	797.5	2back	Block3	2back/STIM_033.jpg	100
1727.188	0.596	596.1	2back	Block3	2back/STIM_034.jpg	100
1730.085	0.811	810.8	2back	Block3	2back/STIM_034.jpg	100
1733.522	0.869	869.0	2back	Block3	2back/STIM_034.jpg	100
1736.443	0.758	757.6	2back	Block3	2back/STIM_035.jpg	99
1740.113	0.789	788.7	2back	Block3	2back/STIM_035.jpg	100
1743.778	0.529	528.6	2back	Block3	2back/STIM_035.jpg	100
1747.199	0.712	711.9	2back	Block3	2back/STIM_036.jpg	100
1750.136	0.662	662.1	2back	Block3	2back/STIM_036.jpg	99
1754.219	0.45	450.3	2back	Block3	2back/STIM_036.jpg	100
1758.651	0.534	534.3	2back	Block3	2back/STIM_037.jpg	99
1761.432	0.413	413.4	2back	Block3	2back/STIM_037.jpg	100
1764.803	0.589	589.0	2back	Block3	2back/STIM_037.jpg	99
1769.386	0.547	547.3	2back	Block3	2back/STIM_038.jpg	100
1773.316	0.575	575.2	2back	Block3	2back/STIM_038.jpg	99
1777.668	0.498	497.6	2back	Block3	2back/STIM_038.jpg	99
1781.434	0.553	552.9	2back	Block3	2back/STIM_039.jpg	99
1784.782	0.604	603.7	2back	Block3	2back/STIM_039.jpg	100
1788.397	0.544	544.2	2back	Block3	2back/STIM_039.jpg	100
1792.328	0.438	438.3	0back	Block3	0back/STIM_000.jpg	100
1796.468	0.372	371.9	0back	Block3	0back/STIM_000.jpg	99
1800.16	0.616	615.6	0back	Block3	0back/STIM_000.jpg	100
1804.615	0.656	656.0	0back	Block3	0back/STIM_001.jpg	99
1808.657	0.429	428.6	0back	Block3	0back/STIM_001.jpg	100
1812.101	0.363	363.0	0back	Block3	0back/STIM_001.jpg	99
1814.641	0.482	481.5	0back	Block3	0back/STIM_002.jpg	100
1817.651	0.497	497.3	0back	Block3	0back/STIM_002.jpg	99
1821.881	0.483	482.7	0back	Block3	0back/STIM_002.jpg	100
1826.331	0.383	383.4	0back	Block3	0back/STIM_003.jpg	100
1830.204	0.372	371.5	0back	Block3	0back/STIM_003.jpg	100
1833.42	0.69	690.2	0back	Block3	0back/STIM_003.jpg	99
1836.826	0.634	634.5	0back	Block3	0back/STIM_004.jpg	100
1840.971	0.602	601.5	0back	Block3	0back/STIM_004.jpg	100
1844.079	0.478	477.5	0back	Block3	0back/STIM_004.jpg	100
1846.961	0.453	453.2	0back	Block3	0back/STIM_005.jpg	100
1849.896	0.541	541.4	0back	Block3	0back/STIM_005.jpg	100
1852.895	0.65	650.4	0back	Block3	0back/STIM_005.jpg	100
1856.167	0.609	608.7	0back	Block3	0back/STIM_006.jpg	99
1860.607	0.651	650.6	0back	Block3	0back/STIM_006.jpg	99
1863.912	0.636	635.8	0back	Block3	0back/STIM_006.jpg	99
1868.422	0.39	390.2	0back	Block3	0back/STIM_007.jpg	99
1871.338	0.71	710.1	0back	Block3	0back/STIM_007.jpg	99
1875.211	0.641	640.7	0back	Block3	0back/STIM_007.jpg	99
1879.728	0.45	449.6	0back	Block3	0back/STIM_008.jpg	100
1883.724	0.401	401.0	0back	Block3	0back/STIM_008.jpg	100
1886.19	0.721	720.9	0back	Block3	0back/STIM_008.jpg	99
1890.683	0.401	400.6	0back	Block3	0back/STIM_009.jpg	99
1894.132	0.573	573.0	0back	Block3	0back/STIM_009.jpg	100
1898.668	0.649	648.8	0back	Block3	0back/STIM_009.jpg	100
1901.484	0.62	620.4	0back	Block3	0back/STIM_010.jpg	99
1905.173	0.713	712.7	0back	Block3	0back/STIM_010.jpg	99
1908.332	0.588	588.1	0back	Block3	0back/STIM_010.jpg	100
1912.148	0.426	426.2	0back	Block3	0back/STIM_011.jpg	100
1915.604	0.583	582.6	0back	Block3	0back/STIM_011.jpg	100
1918.312	0.514	513.7	0back	Block3	0back/STIM_011.jpg	100
1922.072	0.588	588.4	0back	Block3	0back/STIM_012.jpg	99
1925.296	0.469	469.4	0back	Block3	0back/STIM_012.jpg	99
1929.006	0.38	380.4	0back	Block3	0back/STIM_012.jpg	99
1931.631	0.486	486.5	0back	Block3	0back/STIM_013.jpg	100
1934.552	0.494	494.0	0back	Block3	0back/STIM_013.jpg	99
1939.034	0.41	409.8	0back	Block3	0back/STIM_013.jpg	100
1942.852	0.437	436.8	0back	Block3	0back/STIM_014.jpg	100
1945.872	0.488	488.4	0back	Block3	0back/STIM_014.jpg	100
1948.488	0.443	443.2	0back	Block3	0back/STIM_014.jpg	99
1951.175	0.54	539.7	0back	Block3	0back/STIM_015.jpg	100
1954.866	0.384	383.5	0back	Block3	0back/STIM_015.jpg	100
1958.096	0.463	462.6	0back	Block3	0back/STIM_015.jpg	99
1961.032	0.58	580.2	0back	Block3	0back/STIM_016.jpg	100
1963.629	0.614	614.2	0back	Block3	0back/STIM_016.jpg	99
1967.66	0.568	568.0	0back	Block3	0back/STIM_016.jpg	100
1971.757	0.668	667.5	0back	Block3	0back/STIM_017.jpg	100
1975.271	0.514	513.5	0back	Block3	0back/STIM_017.jpg	99
1978.663	0.487	486.9	0back	Block3	0back/STIM_017.jpg	100
1981.463	0.63	629.8	0back	Block3	0back/STIM_018.jpg	99
1984.678	0.503	502.9	0back	Block3	0back/STIM_018.jpg	100
1988.786	0.406	406.4	0back	Block3	0back/STIM_018.jpg	99
1991.97	0.672	671.8	0back	Block3	0back/STIM_019.jpg	100
1995.366	0.705	705.2	0back	Block3	0back/STIM_019.jpg	100
1998.362	0.4	399.8	0back	Block3	0back/STIM_019.jpg	100
2001.587	0.439	438.9	2back	Block4	2back/STIM_000.jpg	100
2005.564	0.67	670.4	2back	Block4	2back/STIM_000.jpg	99
2008.374	0.67	670.1	2back	Block4	2back/STIM_000.jpg	100
2011.552	0.654	654.2	2back	Block4	2back/STIM_001.jpg	99
2014.404	0.797	796.9	2back	Block4	2back/STIM_001.jpg	99
2017.827	0.422	422.3	2back	Block4	2back/STIM_001.jpg	99
2020.785	0.382	382.5	2back	Block4	2back/STIM_002.jpg	99
2023.602	0.644	644.4	2back	Block4	2back/STIM_002.jpg	99
2027.287	0.432	431.5	2back	Block4	2back/STIM_002.jpg	100
2030.17	0.863	863.2	2back	Block4	2back/STIM_003.jpg	99
2033.349	0.762	761.8	2back	Block4	2back/STIM_003.jpg	100
2036.976	0.488	488.4	2back	Block4	2back/STIM_003.jpg	100
2040.474	0.695	695.2	2back	Block4	2back/STIM_004.jpg	99
2043.861	0.463	462.7	2back	Block4	2back/STIM_004.jpg	100
2046.957	0.757	757.1	2back	Block4	2back/STIM_004.jpg	99
2051.584	0.48	480.3	2back	Block4	2back/STIM_005.jpg	99
2054.928	0.433	433.2	2back	Block4	2back/STIM_005.jpg	100
2058.782	0.386	385.5	2back	Block4	2back/STIM_005.jpg	99
2062.322	0.659	659.3	2back	Block4	2back/STIM_006.jpg	99
2065.899	0.821	820.7	2back	Block4	2back/STIM_006.jpg	100
2068.741	0.431	430.7	2back	Block4	2back/STIM_006.jpg	99
2071.665	0.52	519.8	2back	Block4	2back/STIM_007.jpg	99
2074.35	0.458	457.7	2back	Block4	2back/STIM_007.jpg	100
2077.338	0.875	875.4	2back	Block4	2back/STIM_007.jpg	99
2081.289	0.771	770.7	2back	Block4	2back/STIM_008.jpg	100
2085.106	0.882	882.5	2back	Block4	2back/STIM_008.jpg	100
2089.09	0.558	558.0	2back	Block4	2back/STIM_008.jpg	100
2092.19	0.703	703.0	2back	Block4	2back/STIM_009.jpg	100
2095.517	0.407	406.8	2back	Block4	2back/STIM_009.jpg	99
2098.892	0.788	788.3	2back	Block4	2back/STIM_009.jpg	100
2103.568	0.641	640.6	2back	Block4	2back/STIM_010.jpg	99
2108.042	0.72	720.2	2back	Block4	2back/STIM_010.jpg	100
2111.341	0.729	729.4	2back	Block4	2back/STIM_010.jpg	99
2115.494	0.498	497.8	2back	Block4	2back/STIM_011.jpg	100
2118.923	0.853	852.9	2back	Block4	2back/STIM_011.jpg	99
2123.492	0.75	750.1	2back	Block4	2back/STIM_011.jpg	100
2128.079	0.665	665.0	2back	Block4	2back/STIM_012.jpg	100
2132.43	0.491	491.1	2back	Block4	2back/STIM_012.jpg	99
2135.081	0.525	524.7	2back	Block4	2back/STIM_012.jpg	99
2137.661	0.71	709.7	2back	Block4	2back/STIM_013.jpg	99
2141.754	0.858	857.7	2back	Block4	2back/STIM_013.jpg	100
2144.672	0.494	494.4	2back	Block4	2back/STIM_013.jpg	100
2148.533	0.794	794.2	2back	Block4	2back/STIM_014.jpg	99
2152.394	0.76	760.4	2back	Block4	2back/STIM_014.jpg	100
2155.916	0.538	537.7	2back	Block4	2back/STIM_014.jpg	100
2158.516	0.536	535.6	2back	Block4	2back/STIM_015.jpg	100
2162.102	0.699	699.4	2back	Block4	2back/STIM_015.jpg	100
2164.932	0.424	424.5	2back	Block4	2back/STIM_015.jpg	99
2167.755	0.541	541.4	2back	Block4	2back/STIM_016.jpg	100
2170.882	0.748	748.2	2back	Block4	2back/STIM_016.jpg	99
2175.068	0.671	671.1	2back	Block4	2back/STIM_016.jpg	100
2178.28	0.795	795.2	2back	Block4	2back/STIM_017.jpg	100
2182.182	0.407	407.2	2back	Block4	2back/STIM_017.jpg	100
2184.693	0.424	423.5	2back	Block4	2back/STIM_017.jpg	99
2188.476	0.835	835.2	2back	Block4	2back/STIM_018.jpg	100
2192.975	0.62	620.0	2back	Block4	2back/STIM_018.jpg	99
2197.388	0.47	469.6	2back	Block4	2back/STIM_018.jpg	99
2201.457	0.789	788.7	2back	Block4	2back/STIM_019.jpg	99
2205.678	0.801	800.8	2back	Block4	2back/STIM_019.jpg	99
2208.77	0.43	430.4	2back	Block4	2back/STIM_019.jpg	100
2212.218	0.388	387.7	2back	Block4	2back/STIM_020.jpg	99
2216.028	0.628	627.7	2back	Block4	2back/STIM_020.jpg	99
2219.593	0.503	502.9	2back	Block4	2back/STIM_020.jpg	99
2222.292	0.732	731.6	2back	Block4	2back/STIM_021.jpg	100
2225.588	0.517	516.8	2back	Block4	2back/STIM_021.jpg	100
2228.851	0.788	787.5	2back	Block4	2back/STIM_021.jpg	100
2232.161	0.413	413.0	2back	Block4	2back/STIM_022.jpg	100
2236.138	0.397	397.3	2back	Block4	2back/STIM_022.jpg	99
2240.198	0.659	659.1	2back	Block4	2back/STIM_022.jpg	99
2242.941	0.722	722.3	2back	Block4	2back/STIM_023.jpg	100
2246.538	0.757	757.1	2back	Block4	2back/STIM_023.jpg	99
2250.455	0.761	760.6	2back	Block4	2back/STIM_023.jpg	99
2254.05	0.527	526.9	2back	Block4	2back/STIM_024.jpg	100
2257.325	0.654	653.7	2back	Block4	2back/STIM_024.jpg	100
2261.488	0.691	691.3	2back	Block4	2back/STIM_024.jpg	100
2264.938	0.512	512.3	2back	Block4	2back/STIM_025.jpg	99
2268.627	0.592	591.5	2back	Block4	2back/STIM_025.jpg	100
2272.606	0.53	529.6	2back	Block4	2back/STIM_025.jpg	99
2276.51	0.786	785.7	2back	Block4	2back/STIM_026.jpg	99
2281.157	0.877	876.9	2back	Block4	2back/STIM_026.jpg	100
2285.809	0.443	443.1	2back	Block4	2back/STIM_026.jpg	99
2288.703	0.473	473.4	2back	Block4	2back/STIM_027.jpg	100
2292.138	0.383	383.0	2back	Block4	2back/STIM_027.jpg	100
2294.635	0.793	793.0	2back	Block4	2back/STIM_027.jpg	100
2298.355	0.729	729.0	2back	Block4	2back/STIM_028.jpg	100
2301.98	0.761	761.3	2back	Block4	2back/STIM_028.jpg	100
2305.091	0.564	564.5	2back	Block4	2back/STIM_028.jpg	100
2309.636	0.521	521.2	2back	Block4	2back/STIM_029.jpg	100
2314.069	0.612	612.1	2back	Block4	2back/STIM_029.jpg	100
2318.276	0.494	493.9	2back	Block4	2back/STIM_029.jpg	99
2321.13	0.691	690.9	2back	Block4	2back/STIM_030.jpg	99
2323.852	0.523	522.8	2back	Block4	2back/STIM_030.jpg	99
2327.698	0.764	764.2	2back	Block4	2back/STIM_030.jpg	99
2332.191	0.786	786.0	2back	Block4	2back/STIM_031.jpg	100
2335.088	0.601	601.3	2back	Block4	2back/STIM_031.jpg	99
2338.018	0.512	512.1	2back	Block4	2back/STIM_031.jpg	100
2340.575	0.808	807.9	2back	Block4	2back/STIM_032.jpg	100
2344.062	0.633	633.4	2back	Block4	2back/STIM_032.jpg	100
2348.681	0.402	401.7	2back	Block4	2back/STIM_032.jpg	100
2351.152	0.647	647.2	2back	Block4	2back/STIM_033.jpg	99
2354.695	0.621	621.4	2back	Block4	2back/STIM_033.jpg	100
2358.489	0.782	782.3	2back	Block4	2back/STIM_033.jpg	100
2361.864	0.674	674.2	2back	Block4	2back/STIM_034.jpg	99
2364.785	0.781	781.0	2back	Block4	2back/STIM_034.jpg	100
2369.116	0.797	797.3	2back	Block4	2back/STIM_034.jpg	99
2372.498	0.784	784.2	2back	Block4	2back/STIM_035.jpg	99
2375.524	0.439	439.1	2back	Block4	2back/STIM_035.jpg	99
2378.171	0.782	781.6	2back	Block4	2back/STIM_035.jpg	99
2381.821	0.535	535.1	2back	Block4	2back/STIM_036.jpg	100
2386.156	0.425	424.8	2back	Block4	2back/STIM_036.jpg	100
2389.519	0.55	549.5	2back	Block4	2back/STIM_036.jpg	100
2392.123	0.474	474.0	2back	Block4	2back/STIM_037.jpg	100
2396.029	0.843	842.8	2back	Block4	2back/STIM_037.jpg	100
2399.573	0.672	671.9	2back	Block4	2back/STIM_037.jpg	99
2403.768	0.63	629.7	2back	Block4	2back/STIM_038.jpg	99
2408.271	0.433	432.8	2back	Block4	2back/STIM_038.jpg	99
2412.155	0.831	831.1	2back	Block4	2back/STIM_038.jpg	99
2416.524	0.78	779.5	2back	Block4	2back/STIM_039.jpg	100
2420.717	0.762	761.6	2back	Block4	2back/STIM_039.jpg	100
2424.985	0.785	785.2	2back	Block4	2back/STIM_039.jpg	99
2429.405	0.383	382.8	0back	Block4	0back/STIM_000.jpg	99
2431.997	0.482	482.2	0back	Block4	0back/STIM_000.jpg	99
2435.973	0.654	654.2	0back	Block4	0back/STIM_000.jpg	99
2439.181	0.602	601.7	0back	Block4	0back/STIM_001.jpg	100
2441.868	0.487	487.4	0back	Block4	0back/STIM_001.jpg	99
2446.126	0.635	634.9	0back	Block4	0back/STIM_001.jpg	100
2449.476	0.51	510.3	0back	Block4	0back/STIM_002.jpg	99
2452.595	0.402	401.8	0back	Block4	0back/STIM_002.jpg	99
2455.271	0.52	519.6	0back	Block4	0back/STIM_002.jpg	100
2459.55	0.654	653.9	0back	Block4	0back/STIM_003.jpg	99
2462.454	0.494	494.1	0back	Block4	0back/STIM_003.jpg	99
2465.655	0.409	409.4	0back	Block4	0back/STIM_003.jpg	99
2469.904	0.68	680.0	0back	Block4	0back/STIM_004.jpg	99
2474.429	0.452	451.8	0back	Block4	0back/STIM_004.jpg	99
2477.852	0.588	588.5	0back	Block4	0back/STIM_004.jpg	99
2481.338	0.654	654.3	0back	Block4	0back/STIM_005.jpg	100
2484.485	0.539	538.7	0back	Block4	0back/STIM_005.jpg	100
2487.702	0.366	366.0	0back	Block4	0back/STIM_005.jpg	99
2491.136	0.461	460.6	0back	Block4	0back/STIM_006.jpg	99
2494.533	0.581	580.6	0back	Block4	0back/STIM_006.jpg	100
2497.969	0.389	389.2	0back	Block4	0back/STIM_006.jpg	99
2501.85	0.63	629.7	0back	Block4	0back/STIM_007.jpg	99
2504.979	0.435	434.7	0back	Block4	0back/STIM_007.jpg	99
2509.146	0.43	430.1	0back	Block4	0back/STIM_007.jpg	100
2512.896	0.609	609.1	0back	Block4	0back/STIM_008.jpg	99
2516.602	0.668	667.8	0back	Block4	0back/STIM_008.jpg	99
2521.194	0.684	684.2	0back	Block4	0back/STIM_008.jpg	99
2525.517	0.584	584.5	0back	Block4	0back/STIM_009.jpg	100
2529.161	0.565	565.1	0back	Block4	0back/STIM_009.jpg	99
2533.403	0.628	627.8	0back	Block4	0back/STIM_009.jpg	99
2536.318	0.532	531.6	0back	Block4	0back/STIM_010.jpg	100
2540.762	0.672	672.0	0back	Block4	0back/STIM_010.jpg	100
2545.054	0.53	530.3	0back	Block4	0back/STIM_010.jpg	99
2548.815	0.657	657.1	0back	Block4	0back/STIM_011.jpg	99
2552.875	0.388	388.4	0back	Block4	0back/STIM_011.jpg	99
2557.246	0.657	657.1	0back	Block4	0back/STIM_011.jpg	99
2560.689	0.696	696.4	0back	Block4	0back/STIM_012.jpg	99
2563.575	0.576	576.5	0back	Block4	0back/STIM_012.jpg	100
2567.729	0.608	607.9	0back	Block4	0back/STIM_012.jpg	100
2571.04	0.43	430.2	0back	Block4	0back/STIM_013.jpg	100
2575.008	0.484	483.6	0back	Block4	0back/STIM_013.jpg	99
2578.503	0.682	681.9	0back	Block4	0back/STIM_013.jpg	99
2582.747	0.422	422.5	0back	Block4	0back/STIM_014.jpg	100
2585.506	0.396	396.3	0back	Block4	0back/STIM_014.jpg	100
2589.157	0.67	669.8	0back	Block4	0back/STIM_014.jpg	99
2592.332	0.587	587.4	0back	Block4	0back/STIM_015.jpg	99
2595.192	0.541	540.9	0back	Block4	0back/STIM_015.jpg	100
2598.327	0.395	394.9	0back	Block4	0back/STIM_015.jpg	100
2602.598	0.652	652.4	0back	Block4	0back/STIM_016.jpg	99
2605.585	0.442	442.1	0back	Block4	0back/STIM_016.jpg	100
2609.88	0.45	450.3	0back	Block4	0back/STIM_016.jpg	99
2612.867	0.496	496.0	0back	Block4	0back/STIM_017.jpg	100
2616.098	0.471	470.9	0back	Block4	0back/STIM_017.jpg	99
2619.96	0.378	377.8	0back	Block4	0back/STIM_017.jpg	99
2623.547	0.503	503.2	0back	Block4	0back/STIM_018.jpg	100
2627.302	0.489	488.6	0back	Block4	0back/STIM_018.jpg	99
2630.099	0.4	399.6	0back	Block4	0back/STIM_018.jpg	100
2632.886	0.552	552.3	0back	Block4	0back/STIM_019.jpg	100
2636.809	0.439	438.7	0back	Block4	0back/STIM_019.jpg	99
2640.22	0.483	482.8	0back	Block4	0back/STIM_019.jpg	99
