onset	duration	accuracy	trial_type	learning_stage	stimulus
0.0	1.026	correct	2back	Block1	2back/STIM_000.jpg
4.884	0.673	correct	2back	Block1	2back/STIM_000.jpg
8.008	1.04	correct	2back	Block1	2back/STIM_000.jpg
11.844	1.212	correct	2back	Block1	2back/STIM_001.jpg
16.706	1.158	correct	2back	Block1	2back/STIM_001.jpg
21.286	0.957	correct	2back	Block1	2back/STIM_001.jpg
24.494	0.543	correct	2back	Block1	2back/STIM_002.jpg
27.587	1.194	correct	2back	Block1	2back/STIM_002.jpg
31.454	0.846	correct	2back	Block1	2back/STIM_002.jpg
34.441	1.244	correct	2back	Block1	2back/STIM_003.jpg
37.893	0.718	correct	2back	Block1	2back/STIM_003.jpg
41.418	0.886	correct	2back	Block1	2back/STIM_003.jpg
44.474	1.233	incorrect	2back	Block1	2back/STIM_004.jpg
48.553	0.901	correct	2back	Block1	2back/STIM_004.jpg
52.653	0.951	correct	2back	Block1	2back/STIM_004.jpg
57.583	0.565	correct	2back	Block1	2back/STIM_005.jpg
61.391	0.777	correct	2back	Block1	2back/STIM_005.jpg
65.494	0.761	correct	2back	Block1	2back/STIM_005.jpg
69.738	0.815	correct	2back	Block1	2back/STIM_006.jpg
73.444	0.603	incorrect	2back	Block1	2back/STIM_006.jpg
76.653	0.665	correct	2back	Block1	2back/STIM_006.jpg
79.605	0.838	correct	2back	Block1	2back/STIM_007.jpg
82.803	0.556	correct	2back	Block1	2back/STIM_007.jpg
86.845	0.495	correct	2back	Block1	2back/STIM_007.jpg
89.464	1.044	correct	2back	Block1	2back/STIM_008.jpg
94.066	0.579	correct	2back	Block1	2back/STIM_008.jpg
97.16	1.074	correct	2back	Block1	2back/STIM_008.jpg
101.899	0.625	correct	2back	Block1	2back/STIM_009.jpg
105.587	0.933	correct	2back	Block1	2back/STIM_009.jpg
109.119	1.088	correct	2back	Block1	2back/STIM_009.jpg
113.692	0.801	correct	2back	Block1	2back/STIM_010.jpg
118.395	0.534	incorrect	2back	Block1	2back/STIM_010.jpg
121.559	0.656	correct	2back	Block1	2back/STIM_010.jpg
125.496	1.138	correct	2back	Block1	2back/STIM_011.jpg
130.452	1.073	correct	2back	Block1	2back/STIM_011.jpg
133.932	0.688	correct	2back	Block1	2back/STIM_011.jpg
136.818	0.885	correct	2back	Block1	2back/STIM_012.jpg
141.486	0.764	correct	2back	Block1	2back/STIM_012.jpg
146.121	0.69	incorrect	2back	Block1	2back/STIM_012.jpg
149.179	0.731	correct	2back	Block1	2back/STIM_013.jpg
152.639	0.751	correct	2back	Block1	2back/STIM_013.jpg
156.049	0.951	correct	2back	Block1	2back/STIM_013.jpg
160.809	1.003	correct	2back	Block1	2back/STIM_014.jpg
164.866	0.556	correct	2back	Block1	2back/STIM_014.jpg
167.997	0.594	correct	2back	Block1	2back/STIM_014.jpg
172.407	0.609	incorrect	2back	Block1	2back/STIM_015.jpg
176.543	0.972	correct	2back	Block1	2back/STIM_015.jpg
181.214	0.925	correct	2back	Block1	2back/STIM_015.jpg
184.832	0.953	correct	2back	Block1	2back/STIM_016.jpg
188.984	1.174	correct	2back	Block1	2back/STIM_016.jpg
193.318	0.491	correct	2back	Block1	2back/STIM_016.jpg
196.007	0.688	correct	2back	Block1	2back/STIM_017.jpg
199.684	0.63	correct	2back	Block1	2back/STIM_017.jpg
203.229	0.539	correct	2back	Block1	2back/STIM_017.jpg
207.239	0.675	correct	2back	Block1	2back/STIM_018.jpg
211.885	1.03	correct	2back	Block1	2back/STIM_018.jpg
215.44	0.618	correct	2back	Block1	2back/STIM_018.jpg
219.81	0.661	correct	2back	Block1	2back/STIM_019.jpg
222.479	0.78	correct	2back	Block1	2back/STIM_019.jpg
225.69	1.089	correct	2back	Block1	2back/STIM_019.jpg
230.11	0.813	incorrect	2back	Block1	2back/STIM_020.jpg
233.831	0.759	correct	2back	Block1	2back/STIM_020.jpg
237.215	0.504	incorrect	2back	Block1	2back/STIM_020.jpg
241.601	0.636	correct	2back	Block1	2back/STIM_021.jpg
245.183	1.037	correct	2back	Block1	2back/STIM_021.jpg
249.047	0.59	correct	2back	Block1	2back/STIM_021.jpg
253.416	0.986	correct	2back	Block1	2back/STIM_022.jpg
256.731	1.059	correct	2back	Block1	2back/STIM_022.jpg
261.61	0.799	correct	2back	Block1	2back/STIM_022.jpg
266.075	0.962	correct	2back	Block1	2back/STIM_023.jpg
269.172	0.644	incorrect	2back	Block1	2back/STIM_023.jpg
272.051	1.116	incorrect	2back	Block1	2back/STIM_023.jpg
275.365	1.122	correct	2back	Block1	2back/STIM_024.jpg
279.654	0.813	correct	2back	Block1	2back/STIM_024.jpg
284.212	0.604	correct	2back	Block1	2back/STIM_024.jpg
288.153	0.668	correct	2back	Block1	2back/STIM_025.jpg
292.357	0.868	correct	2back	Block1	2back/STIM_025.jpg
296.043	0.989	incorrect	2back	Block1	2back/STIM_025.jpg
300.824	1.146	correct	2back	Block1	2back/STIM_026.jpg
305.031	0.811	correct	2back	Block1	2back/STIM_026.jpg
307.923	0.614	correct	2back	Block1	2back/STIM_026.jpg
311.864	0.556	correct	2back	Block1	2back/STIM_027.jpg
314.92	0.83	incorrect	2back	Block1	2back/STIM_027.jpg
318.724	0.503	correct	2back	Block1	2back/STIM_027.jpg
322.539	0.905	correct	2back	Block1	2back/STIM_028.jpg
326.763	0.977	incorrect	2back	Block1	2back/STIM_028.jpg
330.838	1.067	incorrect	2back	Block1	2back/STIM_028.jpg
335.23	1.212	correct	2back	Block1	2back/STIM_029.jpg
340.296	0.759	correct	2back	Block1	2back/STIM_029.jpg
344.341	0.506	correct	2back	Block1	2back/STIM_029.jpg
348.606	0.869	incorrect	2back	Block1	2back/STIM_030.jpg
352.104	0.865	incorrect	2back	Block1	2back/STIM_030.jpg
355.558	0.908	correct	2back	Block1	2back/STIM_030.jpg
358.897	0.924	correct	2back	Block1	2back/STIM_031.jpg
362.641	0.595	correct	2back	Block1	2back/STIM_031.jpg
366.345	1.078	correct	2back	Block1	2back/STIM_031.jpg
371.254	0.725	incorrect	2back	Block1	2back/STIM_032.jpg
374.787	1.157	correct	2back	Block1	2back/STIM_032.jpg
378.796	0.785	correct	2back	Block1	2back/STIM_032.jpg
382.287	0.556	correct	2back	Block1	2back/STIM_033.jpg
385.636	1.052	correct	2back	Block1	2back/STIM_033.jpg
389.881	0.573	incorrect	2back	Block1	2back/STIM_033.jpg
393.982	0.899	incorrect	2back	Block1	2back/STIM_034.jpg
398.833	1.047	correct	2back	Block1	2back/STIM_034.jpg
402.281	0.557	correct	2back	Block1	2back/STIM_034.jpg
405.411	0.848	correct	2back	Block1	2back/STIM_035.jpg
409.921	0.77	correct	2back	Block1	2back/STIM_035.jpg
413.67	0.518	correct	2back	Block1	2back/STIM_035.jpg
417.119	0.545	correct	2back	Block1	2back/STIM_036.jpg
420.085	0.555	correct	2back	Block1	2back/STIM_036.jpg
424.436	1.063	correct	2back	Block1	2back/STIM_036.jpg
428.025	1.091	correct	2back	Block1	2back/STIM_037.jpg
431.513	0.958	correct	2back	Block1	2back/STIM_037.jpg
435.992	0.844	incorrect	2back	Block1	2back/STIM_037.jpg
440.146	1.158	incorrect	2back	Block1	2back/STIM_038.jpg
443.553	1.185	correct	2back	Block1	2back/STIM_038.jpg
448.554	0.828	correct	2back	Block1	2back/STIM_038.jpg
452.039	1.051	incorrect	2back	Block1	2back/STIM_039.jpg
455.422	0.648	correct	2back	Block1	2back/STIM_039.jpg
459.524	1.068	correct	2back	Block1	2back/STIM_039.jpg
463.759	0.624	correct	0back	Block1	0back/STIM_000.jpg
468.243	0.46	correct	0back	Block1	0back/STIM_000.jpg
471.725	0.637	correct	0back	Block1	0back/STIM_000.jpg
474.852	0.53	correct	0back	Block1	0back/STIM_001.jpg
478.988	0.682	correct	0back	Block1	0back/STIM_001.jpg
483.208	0.7	correct	0back	Block1	0back/STIM_001.jpg
487.671	0.437	correct	0back	Block1	0back/STIM_002.jpg
490.207	0.469	correct	0back	Block1	0back/STIM_002.jpg
492.904	0.471	correct	0back	Block1	0back/STIM_002.jpg
497.013	0.639	incorrect	0back	Block1	0back/STIM_003.jpg
500.964	0.536	correct	0back	Block1	0back/STIM_003.jpg
503.762	0.603	correct	0back	Block1	0back/STIM_003.jpg
506.807	0.361	correct	0back	Block1	0back/STIM_004.jpg
510.58	0.557	correct	0back	Block1	0back/STIM_004.jpg
513.739	0.478	correct	0back	Block1	0back/STIM_004.jpg
517.117	0.68	correct	0back	Block1	0back/STIM_005.jpg
519.887	0.496	correct	0back	Block1	0back/STIM_005.jpg
522.555	0.449	correct	0back	Block1	0back/STIM_005.jpg
525.323	0.367	correct	0back	Block1	0back/STIM_006.jpg
528.11	0.691	correct	0back	Block1	0back/STIM_006.jpg
531.673	0.56	correct	0back	Block1	0back/STIM_006.jpg
535.26	0.412	correct	0back	Block1	0back/STIM_007.jpg
539.217	0.67	correct	0back	Block1	0back/STIM_007.jpg
543.596	0.7	correct	0back	Block1	0back/STIM_007.jpg
546.796	0.569	correct	0back	Block1	0back/STIM_008.jpg
551.27	0.608	correct	0back	Block1	0back/STIM_008.jpg
555.812	0.585	correct	0back	Block1	0back/STIM_008.jpg
559.424	0.37	correct	0back	Block1	0back/STIM_009.jpg
562.417	0.582	incorrect	0back	Block1	0back/STIM_009.jpg
565.03	0.702	correct	0back	Block1	0back/STIM_009.jpg
569.295	0.658	correct	0back	Block1	0back/STIM_010.jpg
572.135	0.368	correct	0back	Block1	0back/STIM_010.jpg
575.822	0.577	correct	0back	Block1	0back/STIM_010.jpg
580.292	0.706	correct	0back	Block1	0back/STIM_011.jpg
584.931	0.467	correct	0back	Block1	0back/STIM_011.jpg
589.321	0.574	correct	0back	Block1	0back/STIM_011.jpg
592.793	0.6	correct	0back	Block1	0back/STIM_012.jpg
596.968	0.525	correct	0back	Block1	0back/STIM_012.jpg
600.98	0.64	correct	0back	Block1	0back/STIM_012.jpg
604.882	0.663	correct	0back	Block1	0back/STIM_013.jpg
608.754	0.571	correct	0back	Block1	0back/STIM_013.jpg
612.116	0.54	correct	0back	Block1	0back/STIM_013.jpg
616.418	0.554	correct	0back	Block1	0back/STIM_014.jpg
619.033	0.547	correct	0back	Block1	0back/STIM_014.jpg
623.128	0.421	correct	0back	Block1	0back/STIM_014.jpg
626.776	0.712	correct	0back	Block1	0back/STIM_015.jpg
631.026	0.488	correct	0back	Block1	0back/STIM_015.jpg
634.051	0.64	correct	0back	Block1	0back/STIM_015.jpg
638.426	0.434	correct	0back	Block1	0back/STIM_016.jpg
642.083	0.506	correct	0back	Block1	0back/STIM_016.jpg
644.992	0.569	correct	0back	Block1	0back/STIM_016.jpg
649.341	0.637	correct	0back	Block1	0back/STIM_017.jpg
653.708	0.655	correct	0back	Block1	0back/STIM_017.jpg
657.06	0.653	correct	0back	Block1	0back/STIM_017.jpg
659.918	0.639	correct	0back	Block1	0back/STIM_018.jpg
662.912	0.56	correct	0back	Block1	0back/STIM_018.jpg
666.029	0.462	correct	0back	Block1	0back/STIM_018.jpg
670.467	0.706	correct	0back	Block1	0back/STIM_019.jpg
673.449	0.539	correct	0back	Block1	0back/STIM_019.jpg
676.38	0.413	correct	0back	Block1	0back/STIM_019.jpg
680.342	0.614	correct	2back	Block2	2back/STIM_000.jpg
683.182	0.741	correct	2back	Block2	2back/STIM_000.jpg
687.672	0.817	correct	2back	Block2	2back/STIM_000.jpg
692.266	0.957	correct	2back	Block2	2back/STIM_001.jpg
695.971	0.851	correct	2back	Block2	2back/STIM_001.jpg
700.23	0.776	correct	2back	Block2	2back/STIM_001.jpg
704.631	0.484	correct	2back	Block2	2back/STIM_002.jpg
708.987	0.695	correct	2back	Block2	2back/STIM_002.jpg
713.13	0.535	correct	2back	Block2	2back/STIM_002.jpg
716.134	0.794	incorrect	2back	Block2	2back/STIM_003.jpg
720.049	0.878	correct	2back	Block2	2back/STIM_003.jpg
723.218	0.424	correct	2back	Block2	2back/STIM_003.jpg
726.787	0.782	correct	2back	Block2	2back/STIM_004.jpg
730.127	1.007	correct	2back	Block2	2back/STIM_004.jpg
735.08	0.638	correct	2back	Block2	2back/STIM_004.jpg
739.34	0.86	incorrect	2back	Block2	2back/STIM_005.jpg
743.829	0.864	correct	2back	Block2	2back/STIM_005.jpg
748.521	0.75	correct	2back	Block2	2back/STIM_005.jpg
751.283	0.769	incorrect	2back	Block2	2back/STIM_006.jpg
755.364	0.632	correct	2back	Block2	2back/STIM_006.jpg
759.274	0.453	correct	2back	Block2	2back/STIM_006.jpg
762.684	0.772	correct	2back	Block2	2back/STIM_007.jpg
766.116	0.682	correct	2back	Block2	2back/STIM_007.jpg
769.736	0.876	correct	2back	Block2	2back/STIM_007.jpg
772.879	1.067	correct	2back	Block2	2back/STIM_008.jpg
776.65	0.498	correct	2back	Block2	2back/STIM_008.jpg
779.298	0.716	correct	2back	Block2	2back/STIM_008.jpg
782.284	1.072	correct	2back	Block2	2back/STIM_009.jpg
785.448	0.665	correct	2back	Block2	2back/STIM_009.jpg
790.055	0.885	correct	2back	Block2	2back/STIM_009.jpg
794.729	0.729	correct	2back	Block2	2back/STIM_010.jpg
797.55	0.792	correct	2back	Block2	2back/STIM_010.jpg
800.649	0.696	correct	2back	Block2	2back/STIM_010.jpg
804.252	0.91	correct	2back	Block2	2back/STIM_011.jpg
809.158	0.823	correct	2back	Block2	2back/STIM_011.jpg
813.682	0.931	correct	2back	Block2	2back/STIM_011.jpg
816.93	0.562	correct	2back	Block2	2back/STIM_012.jpg
819.769	0.821	correct	2back	Block2	2back/STIM_012.jpg
824.578	0.592	correct	2back	Block2	2back/STIM_012.jpg
829.085	0.586	correct	2back	Block2	2back/STIM_013.jpg
833.511	0.866	correct	2back	Block2	2back/STIM_013.jpg
837.481	0.542	correct	2back	Block2	2back/STIM_013.jpg
840.281	0.832	correct	2back	Block2	2back/STIM_014.jpg
844.462	0.658	correct	2back	Block2	2back/STIM_014.jpg
848.293	0.716	correct	2back	Block2	2back/STIM_014.jpg
852.646	0.616	incorrect	2back	Block2	2back/STIM_015.jpg
856.202	0.753	correct	2back	Block2	2back/STIM_015.jpg
860.48	0.685	correct	2back	Block2	2back/STIM_015.jpg
863.773	0.642	correct	2back	Block2	2back/STIM_016.jpg
867.284	0.862	correct	2back	Block2	2back/STIM_016.jpg
871.07	0.521	correct	2back	Block2	2back/STIM_016.jpg
874.493	0.61	correct	2back	Block2	2back/STIM_017.jpg
878.863	0.865	correct	2back	Block2	2back/STIM_017.jpg
882.942	0.691	correct	2back	Block2	2back/STIM_017.jpg
886.461	0.838	incorrect	2back	Block2	2back/STIM_018.jpg
890.369	0.528	correct	2back	Block2	2back/STIM_018.jpg
893.326	0.812	correct	2back	Block2	2back/STIM_018.jpg
897.725	0.46	correct	2back	Block2	2back/STIM_019.jpg
901.708	0.938	correct	2back	Block2	2back/STIM_019.jpg
906.627	0.871	correct	2back	Block2	2back/STIM_019.jpg
911.441	0.781	correct	2back	Block2	2back/STIM_020.jpg
916.217	0.611	correct	2back	Block2	2back/STIM_020.jpg
920.708	0.772	correct	2back	Block2	2back/STIM_020.jpg
925.373	0.986	correct	2back	Block2	2back/STIM_021.jpg
930.172	0.866	correct	2back	Block2	2back/STIM_021.jpg
934.204	0.414	correct	2back	Block2	2back/STIM_021.jpg
936.94	0.638	correct	2back	Block2	2back/STIM_022.jpg
940.051	0.954	correct	2back	Block2	2back/STIM_022.jpg
944.208	0.562	correct	2back	Block2	2back/STIM_022.jpg
947.964	0.698	correct	2back	Block2	2back/STIM_023.jpg
951.908	0.595	correct	2back	Block2	2back/STIM_023.jpg
956.362	0.847	correct	2back	Block2	2back/STIM_023.jpg
959.502	0.585	incorrect	2back	Block2	2back/STIM_024.jpg
962.432	0.58	correct	2back	Block2	2back/STIM_024.jpg
966.666	0.585	correct	2back	Block2	2back/STIM_024.jpg
969.808	0.96	correct	2back	Block2	2back/STIM_025.jpg
973.88	0.636	correct	2back	Block2	2back/STIM_025.jpg
978.25	0.768	correct	2back	Block2	2back/STIM_025.jpg
982.388	0.948	correct	2back	Block2	2back/STIM_026.jpg
986.807	0.784	correct	2back	Block2	2back/STIM_026.jpg
990.036	0.476	correct	2back	Block2	2back/STIM_026.jpg
993.34	0.826	correct	2back	Block2	2back/STIM_027.jpg
997.483	0.844	correct	2back	Block2	2back/STIM_027.jpg
1001.105	0.563	correct	2back	Block2	2back/STIM_027.jpg
1004.266	0.738	incorrect	2back	Block2	2back/STIM_028.jpg
1007.589	0.559	correct	2back	Block2	2back/STIM_028.jpg
1011.227	0.517	correct	2back	Block2	2back/STIM_028.jpg
1013.754	0.587	correct	2back	Block2	2back/STIM_029.jpg
1016.649	0.87	correct	2back	Block2	2back/STIM_029.jpg
1021.19	0.793	correct	2back	Block2	2back/STIM_029.jpg
1024.983	0.486	correct	2back	Block2	2back/STIM_030.jpg
1028.338	0.707	correct	2back	Block2	2back/STIM_030.jpg
1032.526	0.42	correct	2back	Block2	2back/STIM_030.jpg
1035.798	0.977	correct	2back	Block2	2back/STIM_031.jpg
1040.347	0.717	correct	2back	Block2	2back/STIM_031.jpg
1043.648	0.866	correct	2back	Block2	2back/STIM_031.jpg
1047.515	0.579	correct	2back	Block2	2back/STIM_032.jpg
1050.304	0.743	incorrect	2back	Block2	2back/STIM_032.jpg
1054.639	0.599	correct	2back	Block2	2back/STIM_032.jpg
1058.182	0.866	correct	2back	Block2	2back/STIM_033.jpg
1061.19	0.953	correct	2back	Block2	2back/STIM_033.jpg
1064.323	0.772	correct	2back	Block2	2back/STIM_033.jpg
1067.459	0.804	correct	2back	Block2	2back/STIM_034.jpg
1071.541	0.546	correct	2back	Block2	2back/STIM_034.jpg
1075.11	0.639	correct	2back	Block2	2back/STIM_034.jpg
1078.042	0.994	correct	2back	Block2	2back/STIM_035.jpg
1082.924	0.925	correct	2back	Block2	2back/STIM_035.jpg
1086.512	0.471	correct	2back	Block2	2back/STIM_035.jpg
1089.917	0.851	correct	2back	Block2	2back/STIM_036.jpg
1093.627	0.683	correct	2back	Block2	2back/STIM_036.jpg
1096.411	0.593	correct	2back	Block2	2back/STIM_036.jpg
1100.871	1.007	correct	2back	Block2	2back/STIM_037.jpg
1105.205	0.582	correct	2back	Block2	2back/STIM_037.jpg
1109.503	0.754	incorrect	2back	Block2	2back/STIM_037.jpg
1112.878	0.533	correct	2back	Block2	2back/STIM_038.jpg
1117.155	0.83	correct	2back	Block2	2back/STIM_038.jpg
1120.538	0.823	correct	2back	Block2	2back/STIM_038.jpg
1123.623	0.637	correct	2back	Block2	2back/STIM_039.jpg
1127.83	0.785	correct	2back	Block2	2back/STIM_039.jpg
1131.859	0.804	correct	2back	Block2	2back/STIM_039.jpg
1135.939	0.681	correct	0back	Block2	0back/STIM_000.jpg
1139.898	0.558	correct	0back	Block2	0back/STIM_000.jpg
1144.355	0.666	correct	0back	Block2	0back/STIM_000.jpg
1148.014	0.681	correct	0back	Block2	0back/STIM_001.jpg
1151.472	0.609	correct	0back	Block2	0back/STIM_001.jpg
1155.535	0.448	correct	0back	Block2	0back/STIM_001.jpg
1159.79	0.424	correct	0back	Block2	0back/STIM_002.jpg
1163.015	0.568	correct	0back	Block2	0back/STIM_002.jpg
1167.438	0.38	correct	0back	Block2	0back/STIM_002.jpg
1170.149	0.563	correct	0back	Block2	0back/STIM_003.jpg
1173.263	0.471	correct	0back	Block2	0back/STIM_003.jpg
1177.361	0.712	correct	0back	Block2	0back/STIM_003.jpg
1180.525	0.482	correct	0back	Block2	0back/STIM_004.jpg
1184.342	0.44	correct	0back	Block2	0back/STIM_004.jpg
1187.296	0.545	correct	0back	Block2	0back/STIM_004.jpg
1190.209	0.642	correct	0back	Block2	0back/STIM_005.jpg
1193.541	0.59	correct	0back	Block2	0back/STIM_005.jpg
1196.236	0.489	correct	0back	Block2	0back/STIM_005.jpg
1199.838	0.388	correct	0back	Block2	0back/STIM_006.jpg
1204.037	0.493	correct	0back	Block2	0back/STIM_006.jpg
1208.34	0.713	correct	0back	Block2	0back/STIM_006.jpg
1212.336	0.654	correct	0back	Block2	0back/STIM_007.jpg
1216.041	0.662	correct	0back	Block2	0back/STIM_007.jpg
1219.575	0.526	correct	0back	Block2	0back/STIM_007.jpg
1222.568	0.505	correct	0back	Block2	0back/STIM_008.jpg
1225.445	0.628	correct	0back	Block2	0back/STIM_008.jpg
1229.599	0.703	correct	0back	Block2	0back/STIM_008.jpg
1233.218	0.594	correct	0back	Block2	0back/STIM_009.jpg
1237.604	0.369	correct	0back	Block2	0back/STIM_009.jpg
1240.145	0.49	correct	0back	Block2	0back/STIM_009.jpg
1244.623	0.44	correct	0back	Block2	0back/STIM_010.jpg
1247.168	0.618	correct	0back	Block2	0back/STIM_010.jpg
1250.996	0.661	correct	0back	Block2	0back/STIM_010.jpg
1254.974	0.629	correct	0back	Block2	0back/STIM_011.jpg
1258.293	0.515	correct	0back	Block2	0back/STIM_011.jpg
1262.512	0.601	correct	0back	Block2	0back/STIM_011.jpg
1265.167	0.706	correct	0back	Block2	0back/STIM_012.jpg
1268.864	0.387	correct	0back	Block2	0back/STIM_012.jpg
1272.549	0.453	correct	0back	Block2	0back/STIM_012.jpg
1276.339	0.461	correct	0back	Block2	0back/STIM_013.jpg
1280.695	0.685	correct	0back	Block2	0back/STIM_013.jpg
1283.771	0.494	correct	0back	Block2	0back/STIM_013.jpg
1287.338	0.54	correct	0back	Block2	0back/STIM_014.jpg
1291.696	0.458	correct	0back	Block2	0back/STIM_014.jpg
1295.948	0.386	correct	0back	Block2	0back/STIM_014.jpg
1299.763	0.62	correct	0back	Block2	0back/STIM_015.jpg
1304.379	0.648	correct	0back	Block2	0back/STIM_015.jpg
1308.08	0.689	correct	0back	Block2	0back/STIM_015.jpg
1311.853	0.493	correct	0back	Block2	0back/STIM_016.jpg
1315.885	0.427	correct	0back	Block2	0back/STIM_016.jpg
1320.081	0.646	correct	0back	Block2	0back/STIM_016.jpg
1324.068	0.387	incorrect	0back	Block2	0back/STIM_017.jpg
1327.489	0.622	correct	0back	Block2	0back/STIM_017.jpg
1330.536	0.516	correct	0back	Block2	0back/STIM_017.jpg
1334.0	0.448	correct	0back	Block2	0back/STIM_018.jpg
1338.123	0.674	correct	0back	Block2	0back/STIM_018.jpg
1342.648	0.498	correct	0back	Block2	0back/STIM_018.jpg
1346.477	0.454	correct	0back	Block2	0back/STIM_019.jpg
1349.255	0.628	correct	0back	Block2	0back/STIM_019.jpg
1353.333	0.434	correct	0back	Block2	0back/STIM_019.jpg
1356.504	0.531	correct	2back	Block3	2back/STIM_000.jpg
1360.402	0.541	correct	2back	Block3	2back/STIM_000.jpg
1364.555	0.598	correct	2back	Block3	2back/STIM_000.jpg
1367.197	0.788	correct	2back	Block3	2back/STIM_001.jpg
1371.345	0.406	correct	2back	Block3	2back/STIM_001.jpg
1373.791	0.765	correct	2back	Block3	2back/STIM_001.jpg
1377.03	0.797	correct	2back	Block3	2back/STIM_002.jpg
1381.105	0.851	correct	2back	Block3	2back/STIM_002.jpg
1385.882	0.836	correct	2back	Block3	2back/STIM_002.jpg
1390.655	0.654	correct	2back	Block3	2back/STIM_003.jpg
1394.377	0.799	correct	2back	Block3	2back/STIM_003.jpg
1397.904	0.748	correct	2back	Block3	2back/STIM_003.jpg
1400.823	0.812	correct	2back	Block3	2back/STIM_004.jpg
1405.087	0.655	correct	2back	Block3	2back/STIM_004.jpg
1408.152	0.813	correct	2back	Block3	2back/STIM_004.jpg
1411.343	0.858	correct	2back	Block3	2back/STIM_005.jpg
1415.071	0.487	correct	2back	Block3	2back/STIM_005.jpg
1418.488	0.877	incorrect	2back	Block3	2back/STIM_005.jpg
1421.546	0.554	correct	2back	Block3	2back/STIM_006.jpg
1424.9	0.879	correct	2back	Block3	2back/STIM_006.jpg
1429.407	0.663	correct	2back	Block3	2back/STIM_006.jpg
1433.083	0.445	correct	2back	Block3	2back/STIM_007.jpg
1435.979	0.703	correct	2back	Block3	2back/STIM_007.jpg
1440.489	0.703	correct	2back	Block3	2back/STIM_007.jpg
1444.436	0.419	correct	2back	Block3	2back/STIM_008.jpg
1447.467	0.65	correct	2back	Block3	2back/STIM_008.jpg
1452.065	0.795	correct	2back	Block3	2back/STIM_008.jpg
1455.653	0.659	correct	2back	Block3	2back/STIM_009.jpg
1458.805	0.525	correct	2back	Block3	2back/STIM_009.jpg
1461.98	0.848	correct	2back	Block3	2back/STIM_009.jpg
1466.704	0.543	correct	2back	Block3	2back/STIM_010.jpg
1469.551	0.656	correct	2back	Block3	2back/STIM_010.jpg
1472.456	0.846	correct	2back	Block3	2back/STIM_010.jpg
1477.209	0.794	correct	2back	Block3	2back/STIM_011.jpg
1481.184	0.447	correct	2back	Block3	2back/STIM_011.jpg
1485.067	0.52	correct	2back	Block3	2back/STIM_011.jpg
1489.228	0.725	correct	2back	Block3	2back/STIM_012.jpg
1492.572	0.736	correct	2back	Block3	2back/STIM_012.jpg
1496.466	0.666	correct	2back	Block3	2back/STIM_012.jpg
1499.411	0.833	correct	2back	Block3	2back/STIM_013.jpg
1502.66	0.622	correct	2back	Block3	2back/STIM_013.jpg
1506.53	0.786	correct	2back	Block3	2back/STIM_013.jpg
1510.265	0.827	correct	2back	Block3	2back/STIM_014.jpg
1515.066	0.384	correct	2back	Block3	2back/STIM_014.jpg
1518.478	0.799	correct	2back	Block3	2back/STIM_014.jpg
1522.83	0.388	correct	2back	Block3	2back/STIM_015.jpg
1526.673	0.518	correct	2back	Block3	2back/STIM_015.jpg
1530.244	0.778	correct	2back	Block3	2back/STIM_015.jpg
1533.64	0.855	correct	2back	Block3	2back/STIM_016.jpg
1538.317	0.67	correct	2back	Block3	2back/STIM_016.jpg
1541.666	0.425	correct	2back	Block3	2back/STIM_016.jpg
1545.434	0.598	correct	2back	Block3	2back/STIM_017.jpg
1548.728	0.734	correct	2back	Block3	2back/STIM_017.jpg
1553.311	0.658	correct	2back	Block3	2back/STIM_017.jpg
1555.972	0.828	correct	2back	Block3	2back/STIM_018.jpg
1559.73	0.835	correct	2back	Block3	2back/STIM_018.jpg
1563.132	0.538	correct	2back	Block3	2back/STIM_018.jpg
1566.223	0.728	correct	2back	Block3	2back/STIM_019.jpg
1569.422	0.601	correct	2back	Block3	2back/STIM_019.jpg
1573.294	0.553	correct	2back	Block3	2back/STIM_019.jpg
1576.94	0.875	correct	2back	Block3	2back/STIM_020.jpg
1580.685	0.44	correct	2back	Block3	2back/STIM_020.jpg
1584.351	0.421	correct	2back	Block3	2back/STIM_020.jpg
1587.83	0.704	correct	2back	Block3	2back/STIM_021.jpg
1591.061	0.498	correct	2back	Block3	2back/STIM_021.jpg
1594.366	0.722	correct	2back	Block3	2back/STIM_021.jpg
1598.961	0.79	correct	2back	Block3	2back/STIM_022.jpg
1603.073	0.504	correct	2back	Block3	2back/STIM_022.jpg
1606.288	0.454	correct	2back	Block3	2back/STIM_022.jpg
1610.341	0.56	correct	2back	Block3	2back/STIM_023.jpg
1614.046	0.538	correct	2back	Block3	2back/STIM_023.jpg
1618.294	0.793	correct	2back	Block3	2back/STIM_023.jpg
1623.08	0.667	correct	2back	Block3	2back/STIM_024.jpg
1627.324	0.62	correct	2back	Block3	2back/STIM_024.jpg
1631.205	0.586	correct	2back	Block3	2back/STIM_024.jpg
1635.642	0.438	correct	2back	Block3	2back/STIM_025.jpg
1638.165	0.547	correct	2back	Block3	2back/STIM_025.jpg
1641.617	0.689	correct	2back	Block3	2back/STIM_025.jpg
1644.893	0.416	correct	2back	Block3	2back/STIM_026.jpg
1647.889	0.58	correct	2back	Block3	2back/STIM_026.jpg
1650.777	0.426	correct	2back	Block3	2back/STIM_026.jpg
1654.537	0.542	correct	2back	Block3	2back/STIM_027.jpg
1657.592	0.503	correct	2back	Block3	2back/STIM_027.jpg
1661.455	0.535	correct	2back	Block3	2back/STIM_027.jpg
1665.68	0.731	correct	2back	Block3	2back/STIM_028.jpg
1668.531	0.442	correct	2back	Block3	2back/STIM_028.jpg
1672.666	0.539	correct	2back	Block3	2back/STIM_028.jpg
1676.555	0.408	correct	2back	Block3	2back/STIM_029.jpg
1679.527	0.758	correct	2back	Block3	2back/STIM_029.jpg
1682.877	0.866	correct	2back	Block3	2back/STIM_029.jpg
1686.107	0.714	correct	2back	Block3	2back/STIM_030.jpg
1689.655	0.523	correct	2back	Block3	2back/STIM_030.jpg
1692.317	0.76	correct	2back	Block3	2back/STIM_030.jpg
1695.505	0.608	correct	2back	Block3	2back/STIM_031.jpg
1699.953	0.412	correct	2back	Block3	2back/STIM_031.jpg
1702.655	0.841	correct	2back	Block3	2back/STIM_031.jpg
1705.578	0.457	correct	2back	Block3	2back/STIM_032.jpg
1709.273	0.745	correct	2back	Block3	2back/STIM_032.jpg
1713.356	0.472	correct	2back	Block3	2back/STIM_032.jpg
1716.301	0.433	correct	2back	Block3	2back/STIM_033.jpg
1720.119	0.407	correct	2back	Block3	2back/STIM_033.jpg
1722.913	0.798	correct	2back	Block3	2back/STIM_033.jpg
1727.188	0.596	correct	2back	Block3	2back/STIM_034.jpg
1730.085	0.811	correct	2back	Block3	2back/STIM_034.jpg
1733.522	0.869	correct	2back	Block3	2back/STIM_034.jpg
1736.443	0.758	correct	2back	Block3	2back/STIM_035.jpg
1740.113	0.789	correct	2back	Block3	2back/STIM_035.jpg
1743.778	0.529	correct	2back	Block3	2back/STIM_035.jpg
1747.199	0.712	correct	2back	Block3	2back/STIM_036.jpg
1750.136	0.662	correct	2back	Block3	2back/STIM_036.jpg
1754.219	0.45	correct	2back	Block3	2back/STIM_036.jpg
1758.651	0.534	correct	2back	Block3	2back/STIM_037.jpg
1761.432	0.413	correct	2back	Block3	2back/STIM_037.jpg
1764.803	0.589	correct	2back	Block3	2back/STIM_037.jpg
1769.386	0.547	correct	2back	Block3	2back/STIM_038.jpg
1773.316	0.575	correct	2back	Block3	2back/STIM_038.jpg
1777.668	0.498	correct	2back	Block3	2back/STIM_038.jpg
1781.434	0.553	correct	2back	Block3	2back/STIM_039.jpg
1784.782	0.604	correct	2back	Block3	2back/STIM_039.jpg
1788.397	0.544	correct	2back	Block3	2back/STIM_039.jpg
1792.328	0.438	correct	0back	Block3	0back/STIM_000.jpg
1796.468	0.372	correct	0back	Block3	0back/STIM_000.jpg
1800.16	0.616	correct	0back	Block3	0back/STIM_000.jpg
1804.615	0.656	correct	0back	Block3	0back/STIM_001.jpg
1808.657	0.429	correct	0back	Block3	0back/STIM_001.jpg
1812.101	0.363	correct	0back	Block3	0back/STIM_001.jpg
1814.641	0.482	correct	0back	Block3	0back/STIM_002.jpg
1817.651	0.497	correct	0back	Block3	0back/STIM_002.jpg
1821.881	0.483	correct	0back	Block3	0back/STIM_002.jpg
1826.331	0.383	correct	0back	Block3	0back/STIM_003.jpg
1830.204	0.372	correct	0back	Block3	0back/STIM_003.jpg
1833.42	0.69	correct	0back	Block3	0back/STIM_003.jpg
1836.826	0.634	correct	0back	Block3	0back/STIM_004.jpg
1840.971	0.602	correct	0back	Block3	0back/STIM_004.jpg
1844.079	0.478	correct	0back	Block3	0back/STIM_004.jpg
1846.961	0.453	correct	0back	Block3	0back/STIM_005.jpg
1849.896	0.541	correct	0back	Block3	0back/STIM_005.jpg
1852.895	0.65	correct	0back	Block3	0back/STIM_005.jpg
1856.167	0.609	correct	0back	Block3	0back/STIM_006.jpg
1860.607	0.651	correct	0back	Block3	0back/STIM_006.jpg
1863.912	0.636	correct	0back	Block3	0back/STIM_006.jpg
1868.422	0.39	correct	0back	Block3	0back/STIM_007.jpg
1871.338	0.71	correct	0back	Block3	0back/STIM_007.jpg
1875.211	0.641	correct	0back	Block3	0back/STIM_007.jpg
1879.728	0.45	correct	0back	Block3	0back/STIM_008.jpg
1883.724	0.401	correct	0back	Block3	0back/STIM_008.jpg
1886.19	0.721	correct	0back	Block3	0back/STIM_008.jpg
1890.683	0.401	correct	0back	Block3	0back/STIM_009.jpg
1894.132	0.573	incorrect	0back	Block3	0back/STIM_009.jpg
1898.668	0.649	correct	0back	Block3	0back/STIM_009.jpg
1901.484	0.62	correct	0back	Block3	0back/STIM_010.jpg
1905.173	0.713	incorrect	0back	Block3	0back/STIM_010.jpg
1908.332	0.588	correct	0back	Block3	0back/STIM_010.jpg
1912.148	0.426	correct	0back	Block3	0back/STIM_011.jpg
1915.604	0.583	correct	0back	Block3	0back/STIM_011.jpg
1918.312	0.514	correct	0back	Block3	0back/STIM_011.jpg
1922.072	0.588	correct	0back	Block3	0back/STIM_012.jpg
1925.296	0.469	correct	0back	Block3	0back/STIM_012.jpg
1929.006	0.38	correct	0back	Block3	0back/STIM_012.jpg
1931.631	0.486	correct	0back	Block3	0back/STIM_013.jpg
1934.552	0.494	correct	0back	Block3	0back/STIM_013.jpg
1939.034	0.41	correct	0back	Block3	0back/STIM_013.jpg
1942.852	0.437	correct	0back	Block3	0back/STIM_014.jpg
1945.872	0.488	correct	0back	Block3	0back/STIM_014.jpg
1948.488	0.443	correct	0back	Block3	0back/STIM_014.jpg
1951.175	0.54	correct	0back	Block3	0back/STIM_015.jpg
1954.866	0.384	correct	0back	Block3	0back/STIM_015.jpg
1958.096	0.463	correct	0back	Block3	0back/STIM_015.jpg
1961.032	0.58	correct	0back	Block3	0back/STIM_016.jpg
1963.629	0.614	correct	0back	Block3	0back/STIM_016.jpg
1967.66	0.568	correct	0back	Block3	0back/STIM_016.jpg
1971.757	0.668	correct	0back	Block3	0back/STIM_017.jpg
1975.271	0.514	correct	0back	Block3	0back/STIM_017.jpg
1978.663	0.487	correct	0back	Block3	0back/STIM_017.jpg
1981.463	0.63	correct	0back	Block3	0back/STIM_018.jpg
1984.678	0.503	correct	0back	Block3	0back/STIM_018.jpg
1988.786	0.406	correct	0back	Block3	0back/STIM_018.jpg
1991.97	0.672	correct	0back	Block3	0back/STIM_019.jpg
1995.366	0.705	correct	0back	Block3	0back/STIM_019.jpg
1998.362	0.4	correct	0back	Block3	0back/STIM_019.jpg
2001.587	0.439	correct	2back	Block4	2back/STIM_000.jpg
2005.564	0.67	correct	2back	Block4	2back/STIM_000.jpg
2008.374	0.67	correct	2back	Block4	2back/STIM_000.jpg
2011.552	0.654	correct	2back	Block4	2back/STIM_001.jpg
2014.404	0.797	correct	2back	Block4	2back/STIM_001.jpg
2017.827	0.422	correct	2back	Block4	2back/STIM_001.jpg
2020.785	0.382	correct	2back	Block4	2back/STIM_002.jpg
2023.602	0.644	correct	2back	Block4	2back/STIM_002.jpg
2027.287	0.432	correct	2back	Block4	2back/STIM_002.jpg
2030.17	0.863	correct	2back	Block4	2back/STIM_003.jpg
2033.349	0.762	correct	2back	Block4	2back/STIM_003.jpg
2036.976	0.488	correct	2back	Block4	2back/STIM_003.jpg
2040.474	0.695	correct	2back	Block4	2back/STIM_004.jpg
2043.861	0.463	correct	2back	Block4	2back/STIM_004.jpg
2046.957	0.757	correct	2back	Block4	2back/STIM_004.jpg
2051.584	0.48	correct	2back	Block4	2back/STIM_005.jpg
2054.928	0.433	correct	2back	Block4	2back/STIM_005.jpg
2058.782	0.386	correct	2back	Block4	2back/STIM_005.jpg
2062.322	0.659	correct	2back	Block4	2back/STIM_006.jpg
2065.899	0.821	correct	2back	Block4	2back/STIM_006.jpg
2068.741	0.431	correct	2back	Block4	2back/STIM_006.jpg
2071.665	0.52	correct	2back	Block4	2back/STIM_007.jpg
2074.35	0.458	correct	2back	Block4	2back/STIM_007.jpg
2077.338	0.875	correct	2back	Block4	2back/STIM_007.jpg
2081.289	0.771	correct	2back	Block4	2back/STIM_008.jpg
2085.106	0.882	correct	2back	Block4	2back/STIM_008.jpg
2089.09	0.558	correct	2back	Block4	2back/STIM_008.jpg
2092.19	0.703	correct	2back	Block4	2back/STIM_009.jpg
2095.517	0.407	correct	2back	Block4	2back/STIM_009.jpg
2098.892	0.788	correct	2back	Block4	2back/STIM_009.jpg
2103.568	0.641	correct	2back	Block4	2back/STIM_010.jpg
2108.042	0.72	correct	2back	Block4	2back/STIM_010.jpg
2111.341	0.729	correct	2back	Block4	2back/STIM_010.jpg
2115.494	0.498	correct	2back	Block4	2back/STIM_011.jpg
2118.923	0.853	correct	2back	Block4	2back/STIM_011.jpg
2123.492	0.75	correct	2back	Block4	2back/STIM_011.jpg
2128.079	0.665	correct	2back	Block4	2back/STIM_012.jpg
2132.43	0.491	correct	2back	Block4	2back/STIM_012.jpg
2135.081	0.525	correct	2back	Block4	2back/STIM_012.jpg
2137.661	0.71	correct	2back	Block4	2back/STIM_013.jpg
2141.754	0.858	correct	2back	Block4	2back/STIM_013.jpg
2144.672	0.494	correct	2back	Block4	2back/STIM_013.jpg
2148.533	0.794	correct	2back	Block4	2back/STIM_014.jpg
2152.394	0.76	correct	2back	Block4	2back/STIM_014.jpg
2155.916	0.538	correct	2back	Block4	2back/STIM_014.jpg
2158.516	0.536	correct	2back	Block4	2back/STIM_015.jpg
2162.102	0.699	correct	2back	Block4	2back/STIM_015.jpg
2164.932	0.424	correct	2back	Block4	2back/STIM_015.jpg
2167.755	0.541	correct	2back	Block4	2back/STIM_016.jpg
2170.882	0.748	correct	2back	Block4	2back/STIM_016.jpg
2175.068	0.671	correct	2back	Block4	2back/STIM_016.jpg
2178.28	0.795	correct	2back	Block4	2back/STIM_017.jpg
2182.182	0.407	correct	2back	Block4	2back/STIM_017.jpg
2184.693	0.424	correct	2back	Block4	2back/STIM_017.jpg
2188.476	0.835	correct	2back	Block4	2back/STIM_018.jpg
2192.975	0.62	correct	2back	Block4	2back/STIM_018.jpg
2197.388	0.47	correct	2back	Block4	2back/STIM_018.jpg
2201.457	0.789	correct	2back	Block4	2back/STIM_019.jpg
2205.678	0.801	correct	2back	Block4	2back/STIM_019.jpg
2208.77	0.43	correct	2back	Block4	2back/STIM_019.jpg
2212.218	0.388	correct	2back	Block4	2back/STIM_020.jpg
2216.028	0.628	correct	2back	Block4	2back/STIM_020.jpg
2219.593	0.503	correct	2back	Block4	2back/STIM_020.jpg
2222.292	0.732	correct	2back	Block4	2back/STIM_021.jpg
2225.588	0.517	correct	2back	Block4	2back/STIM_021.jpg
2228.851	0.788	correct	2back	Block4	2back/STIM_021.jpg
2232.161	0.413	correct	2back	Block4	2back/STIM_022.jpg
2236.138	0.397	correct	2back	Block4	2back/STIM_022.jpg
2240.198	0.659	correct	2back	Block4	2back/STIM_022.jpg
2242.941	0.722	correct	2back	Block4	2back/STIM_023.jpg
2246.538	0.757	correct	2back	Block4	2back/STIM_023.jpg
2250.455	0.761	correct	2back	Block4	2back/STIM_023.jpg
2254.05	0.527	correct	2back	Block4	2back/STIM_024.jpg
2257.325	0.654	correct	2back	Block4	2back/STIM_024.jpg
2261.488	0.691	correct	2back	Block4	2back/STIM_024.jpg
2264.938	0.512	correct	2back	Block4	2back/STIM_025.jpg
2268.627	0.592	correct	2back	Block4	2back/STIM_025.jpg
2272.606	0.53	correct	2back	Block4	2back/STIM_025.jpg
2276.51	0.786	correct	2back	Block4	2back/STIM_026.jpg
2281.157	0.877	correct	2back	Block4	2back/STIM_026.jpg
2285.809	0.443	correct	2back	Block4	2back/STIM_026.jpg
2288.703	0.473	correct	2back	Block4	2back/STIM_027.jpg
2292.138	0.383	correct	2back	Block4	2back/STIM_027.jpg
2294.635	0.793	correct	2back	Block4	2back/STIM_027.jpg
2298.355	0.729	correct	2back	Block4	2back/STIM_028.jpg
2301.98	0.761	correct	2back	Block4	2back/STIM_028.jpg
2305.091	0.564	correct	2back	Block4	2back/STIM_028.jpg
2309.636	0.521	correct	2back	Block4	2back/STIM_029.jpg
2314.069	0.612	correct	2back	Block4	2back/STIM_029.jpg
2318.276	0.494	correct	2back	Block4	2back/STIM_029.jpg
2321.13	0.691	correct	2back	Block4	2back/STIM_030.jpg
2323.852	0.523	correct	2back	Block4	2back/STIM_030.jpg
2327.698	0.764	correct	2back	Block4	2back/STIM_030.jpg
2332.191	0.786	correct	2back	Block4	2back/STIM_031.jpg
2335.088	0.601	correct	2back	Block4	2back/STIM_031.jpg
2338.018	0.512	correct	2back	Block4	2back/STIM_031.jpg
2340.575	0.808	correct	2back	Block4	2back/STIM_032.jpg
2344.062	0.633	correct	2back	Block4	2back/STIM_032.jpg
2348.681	0.402	correct	2back	Block4	2back/STIM_032.jpg
2351.152	0.647	correct	2back	Block4	2back/STIM_033.jpg
2354.695	0.621	correct	2back	Block4	2back/STIM_033.jpg
2358.489	0.782	correct	2back	Block4	2back/STIM_033.jpg
2361.864	0.674	correct	2back	Block4	2back/STIM_034.jpg
2364.785	0.781	correct	2back	Block4	2back/STIM_034.jpg
2369.116	0.797	correct	2back	Block4	2back/STIM_034.jpg
2372.498	0.784	correct	2back	Block4	2back/STIM_035.jpg
2375.524	0.439	correct	2back	Block4	2back/STIM_035.jpg
2378.171	0.782	correct	2back	Block4	2back/STIM_035.jpg
2381.821	0.535	correct	2back	Block4	2back/STIM_036.jpg
2386.156	0.425	correct	2back	Block4	2back/STIM_036.jpg
2389.519	0.55	correct	2back	Block4	2back/STIM_036.jpg
2392.123	0.474	correct	2back	Block4	2back/STIM_037.jpg
2396.029	0.843	correct	2back	Block4	2back/STIM_037.jpg
2399.573	0.672	correct	2back	Block4	2back/STIM_037.jpg
2403.768	0.63	correct	2back	Block4	2back/STIM_038.jpg
2408.271	0.433	correct	2back	Block4	2back/STIM_038.jpg
2412.155	0.831	correct	2back	Block4	2back/STIM_038.jpg
2416.524	0.78	correct	2back	Block4	2back/STIM_039.jpg
2420.717	0.762	correct	2back	Block4	2back/STIM_039.jpg
2424.985	0.785	correct	2back	Block4	2back/STIM_039.jpg
2429.405	0.383	correct	0back	Block4	0back/STIM_000.jpg
2431.997	0.482	correct	0back	Block4	0back/STIM_000.jpg
2435.973	0.654	correct	0back	Block4	0back/STIM_000.jpg
2439.181	0.602	correct	0back	Block4	0back/STIM_001.jpg
2441.868	0.487	correct	0back	Block4	0back/STIM_001.jpg
2446.126	0.635	correct	0back	Block4	0back/STIM_001.jpg
2449.476	0.51	correct	0back	Block4	0back/STIM_002.jpg
2452.595	0.402	correct	0back	Block4	0back/STIM_002.jpg
2455.271	0.52	correct	0back	Block4	0back/STIM_002.jpg
2459.55	0.654	correct	0back	Block4	0back/STIM_003.jpg
2462.454	0.494	correct	0back	Block4	0back/STIM_003.jpg
2465.655	0.409	correct	0back	Block4	0back/STIM_003.jpg
2469.904	0.68	correct	0back	Block4	0back/STIM_004.jpg
2474.429	0.452	correct	0back	Block4	0back/STIM_004.jpg
2477.852	0.588	correct	0back	Block4	0back/STIM_004.jpg
2481.338	0.654	correct	0back	Block4	0back/STIM_005.jpg
2484.485	0.539	correct	0back	Block4	0back/STIM_005.jpg
2487.702	0.366	correct	0back	Block4	0back/STIM_005.jpg
2491.136	0.461	correct	0back	Block4	0back/STIM_006.jpg
2494.533	0.581	correct	0back	Block4	0back/STIM_006.jpg
2497.969	0.389	correct	0back	Block4	0back/STIM_006.jpg
2501.85	0.63	correct	0back	Block4	0back/STIM_007.jpg
2504.979	0.435	correct	0back	Block4	0back/STIM_007.jpg
2509.146	0.43	correct	0back	Block4	0back/STIM_007.jpg
2512.896	0.609	correct	0back	Block4	0back/STIM_008.jpg
2516.602	0.668	correct	0back	Block4	0back/STIM_008.jpg
2521.194	0.684	correct	0back	Block4	0back/STIM_008.jpg
2525.517	0.584	correct	0back	Block4	0back/STIM_009.jpg
2529.161	0.565	correct	0back	Block4	0back/STIM_009.jpg
2533.403	0.628	correct	0back	Block4	0back/STIM_009.jpg
2536.318	0.532	correct	0back	Block4	0back/STIM_010.jpg
2540.762	0.672	correct	0back	Block4	0back/STIM_010.jpg
2545.054	0.53	correct	0back	Block4	0back/STIM_010.jpg
2548.815	0.657	correct	0back	Block4	0back/STIM_011.jpg
2552.875	0.388	correct	0back	Block4	0back/STIM_011.jpg
2557.246	0.657	correct	0back	Block4	0back/STIM_011.jpg
2560.689	0.696	correct	0back	Block4	0back/STIM_012.jpg
2563.575	0.576	correct	0back	Block4	0back/STIM_012.jpg
2567.729	0.608	correct	0back	Block4	0back/STIM_012.jpg
2571.04	0.43	correct	0back	Block4	0back/STIM_013.jpg
2575.008	0.484	correct	0back	Block4	0back/STIM_013.jpg
2578.503	0.682	correct	0back	Block4	0back/STIM_013.jpg
2582.747	0.422	correct	0back	Block4	0back/STIM_014.jpg
2585.506	0.396	correct	0back	Block4	0back/STIM_014.jpg
2589.157	0.67	correct	0back	Block4	0back/STIM_014.jpg
2592.332	0.587	correct	0back	Block4	0back/STIM_015.jpg
2595.192	0.541	correct	0back	Block4	0back/STIM_015.jpg
2598.327	0.395	correct	0back	Block4	0back/STIM_015.jpg
2602.598	0.652	correct	0back	Block4	0back/STIM_016.jpg
2605.585	0.442	correct	0back	Block4	0back/STIM_016.jpg
2609.88	0.45	correct	0back	Block4	0back/STIM_016.jpg
2612.867	0.496	correct	0back	Block4	0back/STIM_017.jpg
2616.098	0.471	correct	0back	Block4	0back/STIM_017.jpg
2619.96	0.378	correct	0back	Block4	0back/STIM_017.jpg
2623.547	0.503	correct	0back	Block4	0back/STIM_018.jpg
2627.302	0.489	correct	0back	Block4	0back/STIM_018.jpg
2630.099	0.4	correct	0back	Block4	0back/STIM_018.jpg
2632.886	0.552	correct	0back	Block4	0back/STIM_019.jpg
2636.809	0.439	correct	0back	Block4	0back/STIM_019.jpg
2640.22	0.483	correct	0back	Block4	0back/STIM_019.jpg
