onset	duration	accuracy	trial_type	learning_stage	stimulus
0.0	1.194	correct	2back	Block1	2back/STIM_000.jpg
4.65	1.084	correct	2back	Block1	2back/STIM_000.jpg
8.067	0.854	correct	2back	Block1	2back/STIM_000.jpg
11.235	0.591	correct	2back	Block1	2back/STIM_001.jpg
14.402	0.834	correct	2back	Block1	2back/STIM_001.jpg
17.383	1.038	correct	2back	Block1	2back/STIM_001.jpg
21.689	1.089	incorrect	2back	Block1	2back/STIM_002.jpg
25.415	1.093	correct	2back	Block1	2back/STIM_002.jpg
29.575	1.008	correct	2back	Block1	2back/STIM_002.jpg
34.283	0.748	incorrect	2back	Block1	2back/STIM_003.jpg
37.387	1.075	correct	2back	Block1	2back/STIM_003.jpg
41.657	1.122	correct	2back	Block1	2back/STIM_003.jpg
46.674	0.599	incorrect	2back	Block1	2back/STIM_004.jpg
51.049	0.584	correct	2back	Block1	2back/STIM_004.jpg
54.219	0.896	correct	2back	Block1	2back/STIM_004.jpg
58.842	1.315	correct	2back	Block1	2back/STIM_005.jpg
63.993	0.818	correct	2back	Block1	2back/STIM_005.jpg
67.99	0.609	correct	2back	Block1	2back/STIM_005.jpg
70.952	1.099	correct	2back	Block1	2back/STIM_006.jpg
75.559	1.034	incorrect	2back	Block1	2back/STIM_006.jpg
80.199	0.802	correct	2back	Block1	2back/STIM_006.jpg
84.992	1.164	correct	2back	Block1	2back/STIM_007.jpg
88.457	0.721	incorrect	2back	Block1	2back/STIM_007.jpg
93.013	0.772	correct	2back	Block1	2back/STIM_007.jpg
96.818	1.371	correct	2back	Block1	2back/STIM_008.jpg
100.227	0.962	correct	2back	Block1	2back/STIM_008.jpg
103.34	0.925	correct	2back	Block1	2back/STIM_008.jpg
107.249	0.873	correct	2back	Block1	2back/STIM_009.jpg
111.904	1.185	correct	2back	Block1	2back/STIM_009.jpg
115.654	0.576	correct	2back	Block1	2back/STIM_009.jpg
118.961	0.744	correct	2back	Block1	2back/STIM_010.jpg
122.419	0.784	incorrect	2back	Block1	2back/STIM_010.jpg
126.985	0.548	correct	2back	Block1	2back/STIM_010.jpg
130.722	1.374	correct	2back	Block1	2back/STIM_011.jpg
135.681	0.88	correct	2back	Block1	2back/STIM_011.jpg
139.014	0.981	correct	2back	Block1	2back/STIM_011.jpg
143.566	0.758	correct	2back	Block1	2back/STIM_012.jpg
147.261	1.115	correct	2back	Block1	2back/STIM_012.jpg
151.527	1.011	incorrect	2back	Block1	2back/STIM_012.jpg
156.277	1.246	correct	2back	Block1	2back/STIM_013.jpg
161.372	0.758	correct	2back	Block1	2back/STIM_013.jpg
164.334	1.218	correct	2back	Block1	2back/STIM_013.jpg
168.973	0.585	correct	2back	Block1	2back/STIM_014.jpg
171.815	1.244	correct	2back	Block1	2back/STIM_014.jpg
176.336	0.958	correct	2back	Block1	2back/STIM_014.jpg
180.896	1.398	incorrect	2back	Block1	2back/STIM_015.jpg
185.091	0.908	correct	2back	Block1	2back/STIM_015.jpg
189.645	1.039	correct	2back	Block1	2back/STIM_015.jpg
193.005	0.873	correct	2back	Block1	2back/STIM_016.jpg
196.25	0.541	correct	2back	Block1	2back/STIM_016.jpg
199.459	0.611	correct	2back	Block1	2back/STIM_016.jpg
202.379	1.107	correct	2back	Block1	2back/STIM_017.jpg
207.155	1.124	correct	2back	Block1	2back/STIM_017.jpg
212.138	0.987	correct	2back	Block1	2back/STIM_017.jpg
216.681	0.953	correct	2back	Block1	2back/STIM_018.jpg
219.882	1.196	correct	2back	Block1	2back/STIM_018.jpg
224.401	0.662	correct	2back	Block1	2back/STIM_018.jpg
227.082	0.871	correct	2back	Block1	2back/STIM_019.jpg
231.567	0.81	correct	2back	Block1	2back/STIM_019.jpg
234.805	1.266	correct	2back	Block1	2back/STIM_019.jpg
240.017	0.956	correct	2back	Block1	2back/STIM_020.jpg
242.949	0.636	correct	2back	Block1	2back/STIM_020.jpg
247.519	0.684	incorrect	2back	Block1	2back/STIM_020.jpg
251.422	1.356	incorrect	2back	Block1	2back/STIM_021.jpg
255.84	0.735	correct	2back	Block1	2back/STIM_021.jpg
259.178	0.684	correct	2back	Block1	2back/STIM_021.jpg
263.621	1.2	incorrect	2back	Block1	2back/STIM_022.jpg
267.145	1.218	correct	2back	Block1	2back/STIM_022.jpg
271.743	1.114	correct	2back	Block1	2back/STIM_022.jpg
276.575	1.034	correct	2back	Block1	2back/STIM_023.jpg
280.378	1.28	incorrect	2back	Block1	2back/STIM_023.jpg
284.569	0.564	incorrect	2back	Block1	2back/STIM_023.jpg
288.971	1.375	correct	2back	Block1	2back/STIM_024.jpg
292.395	0.933	correct	2back	Block1	2back/STIM_024.jpg
296.699	0.554	correct	2back	Block1	2back/STIM_024.jpg
301.049	1.087	correct	2back	Block1	2back/STIM_025.jpg
304.178	1.203	correct	2back	Block1	2back/STIM_025.jpg
308.318	1.116	incorrect	2back	Block1	2back/STIM_025.jpg
313.322	1.059	correct	2back	Block1	2back/STIM_026.jpg
316.716	0.929	correct	2back	Block1	2back/STIM_026.jpg
321.39	0.639	correct	2back	Block1	2back/STIM_026.jpg
324.773	1.064	correct	2back	Block1	2back/STIM_027.jpg
328.353	0.699	incorrect	2back	Block1	2back/STIM_027.jpg
332.529	1.071	correct	2back	Block1	2back/STIM_027.jpg
336.758	0.762	correct	2back	Block1	2back/STIM_028.jpg
339.96	0.656	incorrect	2back	Block1	2back/STIM_028.jpg
343.451	0.594	incorrect	2back	Block1	2back/STIM_028.jpg
347.013	1.283	correct	2back	Block1	2back/STIM_029.jpg
351.587	1.167	correct	2back	Block1	2back/STIM_029.jpg
356.361	1.013	correct	2back	Block1	2back/STIM_029.jpg
361.06	0.758	correct	2back	Block1	2back/STIM_030.jpg
364.115	0.783	correct	2back	Block1	2back/STIM_030.jpg
368.464	0.883	correct	2back	Block1	2back/STIM_030.jpg
372.331	1.063	correct	2back	Block1	2back/STIM_031.jpg
376.354	0.857	correct	2back	Block1	2back/STIM_031.jpg
380.775	0.956	correct	2back	Block1	2back/STIM_031.jpg
384.035	1.271	incorrect	2back	Block1	2back/STIM_032.jpg
387.373	1.091	correct	2back	Block1	2back/STIM_032.jpg
390.981	0.873	correct	2back	Block1	2back/STIM_032.jpg
395.516	1.197	correct	2back	Block1	2back/STIM_033.jpg
399.07	0.784	correct	2back	Block1	2back/STIM_033.jpg
402.666	0.553	incorrect	2back	Block1	2back/STIM_033.jpg
405.724	0.669	incorrect	2back	Block1	2back/STIM_034.jpg
408.876	0.736	correct	2back	Block1	2back/STIM_034.jpg
412.298	0.935	correct	2back	Block1	2back/STIM_034.jpg
415.602	0.948	correct	2back	Block1	2back/STIM_035.jpg
420.511	0.751	correct	2back	Block1	2back/STIM_035.jpg
424.084	1.063	correct	2back	Block1	2back/STIM_035.jpg
427.856	1.143	correct	2back	Block1	2back/STIM_036.jpg
431.435	0.713	correct	2back	Block1	2back/STIM_036.jpg
435.503	0.689	correct	2back	Block1	2back/STIM_036.jpg
440.06	0.541	correct	2back	Block1	2back/STIM_037.jpg
443.821	1.137	correct	2back	Block1	2back/STIM_037.jpg
448.932	1.019	incorrect	2back	Block1	2back/STIM_037.jpg
452.174	0.696	incorrect	2back	Block1	2back/STIM_038.jpg
456.086	0.531	correct	2back	Block1	2back/STIM_038.jpg
459.156	1.141	correct	2back	Block1	2back/STIM_038.jpg
463.207	1.202	incorrect	2back	Block1	2back/STIM_039.jpg
467.001	0.676	correct	2back	Block1	2back/STIM_039.jpg
469.85	0.829	correct	2back	Block1	2back/STIM_039.jpg
473.839	0.641	correct	0back	Block1	0back/STIM_000.jpg
477.954	0.578	correct	0back	Block1	0back/STIM_000.jpg
482.404	0.532	correct	0back	Block1	0back/STIM_000.jpg
486.062	0.327	correct	0back	Block1	0back/STIM_001.jpg
488.838	0.567	correct	0back	Block1	0back/STIM_001.jpg
492.547	0.594	correct	0back	Block1	0back/STIM_001.jpg
496.755	0.729	correct	0back	Block1	0back/STIM_002.jpg
501.214	0.63	correct	0back	Block1	0back/STIM_002.jpg
504.419	0.509	correct	0back	Block1	0back/STIM_002.jpg
508.189	0.761	incorrect	0back	Block1	0back/STIM_003.jpg
511.33	0.488	correct	0back	Block1	0back/STIM_003.jpg
515.016	0.72	correct	0back	Block1	0back/STIM_003.jpg
518.63	0.588	correct	0back	Block1	0back/STIM_004.jpg
521.642	0.473	correct	0back	Block1	0back/STIM_004.jpg
524.803	0.487	correct	0back	Block1	0back/STIM_004.jpg
528.094	0.447	correct	0back	Block1	0back/STIM_005.jpg
531.642	0.651	correct	0back	Block1	0back/STIM_005.jpg
535.038	0.616	correct	0back	Block1	0back/STIM_005.jpg
538.067	0.762	correct	0back	Block1	0back/STIM_006.jpg
540.829	0.514	correct	0back	Block1	0back/STIM_006.jpg
543.971	0.658	correct	0back	Block1	0back/STIM_006.jpg
547.635	0.746	correct	0back	Block1	0back/STIM_007.jpg
551.184	0.704	correct	0back	Block1	0back/STIM_007.jpg
554.297	0.652	correct	0back	Block1	0back/STIM_007.jpg
558.385	0.513	correct	0back	Block1	0back/STIM_008.jpg
562.812	0.684	correct	0back	Block1	0back/STIM_008.jpg
567.44	0.668	correct	0back	Block1	0back/STIM_008.jpg
571.582	0.484	correct	0back	Block1	0back/STIM_009.jpg
574.296	0.734	incorrect	0back	Block1	0back/STIM_009.jpg
578.59	0.466	correct	0back	Block1	0back/STIM_009.jpg
581.381	0.393	correct	0back	Block1	0back/STIM_010.jpg
584.39	0.499	correct	0back	Block1	0back/STIM_010.jpg
587.578	0.623	correct	0back	Block1	0back/STIM_010.jpg
592.127	0.524	correct	0back	Block1	0back/STIM_011.jpg
596.132	0.601	correct	0back	Block1	0back/STIM_011.jpg
600.43	0.74	correct	0back	Block1	0back/STIM_011.jpg
604.068	0.526	correct	0back	Block1	0back/STIM_012.jpg
607.694	0.562	correct	0back	Block1	0back/STIM_012.jpg
611.47	0.395	correct	0back	Block1	0back/STIM_012.jpg
615.032	0.434	correct	0back	Block1	0back/STIM_013.jpg
619.292	0.349	correct	0back	Block1	0back/STIM_013.jpg
623.295	0.454	correct	0back	Block1	0back/STIM_013.jpg
627.025	0.574	correct	0back	Block1	0back/STIM_014.jpg
630.593	0.502	correct	0back	Block1	0back/STIM_014.jpg
634.757	0.79	correct	0back	Block1	0back/STIM_014.jpg
639.145	0.708	correct	0back	Block1	0back/STIM_015.jpg
642.774	0.701	correct	0back	Block1	0back/STIM_015.jpg
647.071	0.645	correct	0back	Block1	0back/STIM_015.jpg
651.466	0.434	correct	0back	Block1	0back/STIM_016.jpg
654.358	0.498	correct	0back	Block1	0back/STIM_016.jpg
657.34	0.783	correct	0back	Block1	0back/STIM_016.jpg
661.02	0.691	correct	0back	Block1	0back/STIM_017.jpg
664.923	0.618	correct	0back	Block1	0back/STIM_017.jpg
669.291	0.493	correct	0back	Block1	0back/STIM_017.jpg
672.015	0.795	correct	0back	Block1	0back/STIM_018.jpg
676.406	0.417	correct	0back	Block1	0back/STIM_018.jpg
680.825	0.462	correct	0back	Block1	0back/STIM_018.jpg
684.136	0.694	correct	0back	Block1	0back/STIM_019.jpg
687.036	0.747	correct	0back	Block1	0back/STIM_019.jpg
690.347	0.398	correct	0back	Block1	0back/STIM_019.jpg
693.62	0.673	correct	2back	Block2	2back/STIM_000.jpg
697.543	0.702	correct	2back	Block2	2back/STIM_000.jpg
700.475	0.923	correct	2back	Block2	2back/STIM_000.jpg
705.419	1.025	correct	2back	Block2	2back/STIM_001.jpg
709.119	0.87	correct	2back	Block2	2back/STIM_001.jpg
712.349	0.97	correct	2back	Block2	2back/STIM_001.jpg
716.898	0.577	correct	2back	Block2	2back/STIM_002.jpg
720.092	0.695	correct	2back	Block2	2back/STIM_002.jpg
724.512	0.464	correct	2back	Block2	2back/STIM_002.jpg
727.26	1.216	correct	2back	Block2	2back/STIM_003.jpg
732.204	0.447	correct	2back	Block2	2back/STIM_003.jpg
735.699	0.871	correct	2back	Block2	2back/STIM_003.jpg
739.508	0.884	correct	2back	Block2	2back/STIM_004.jpg
743.911	0.568	correct	2back	Block2	2back/STIM_004.jpg
748.148	0.903	correct	2back	Block2	2back/STIM_004.jpg
752.396	0.802	incorrect	2back	Block2	2back/STIM_005.jpg
756.675	0.459	incorrect	2back	Block2	2back/STIM_005.jpg
760.557	0.688	correct	2back	Block2	2back/STIM_005.jpg
764.999	1.074	incorrect	2back	Block2	2back/STIM_006.jpg
769.543	0.893	correct	2back	Block2	2back/STIM_006.jpg
773.872	0.473	correct	2back	Block2	2back/STIM_006.jpg
777.609	1.078	correct	2back	Block2	2back/STIM_007.jpg
781.059	0.832	correct	2back	Block2	2back/STIM_007.jpg
785.238	0.612	correct	2back	Block2	2back/STIM_007.jpg
788.933	0.991	correct	2back	Block2	2back/STIM_008.jpg
792.023	0.706	correct	2back	Block2	2back/STIM_008.jpg
796.105	0.893	correct	2back	Block2	2back/STIM_008.jpg
800.034	0.704	correct	2back	Block2	2back/STIM_009.jpg
803.313	0.939	correct	2back	Block2	2back/STIM_009.jpg
807.469	0.648	correct	2back	Block2	2back/STIM_009.jpg
811.365	0.449	correct	2back	Block2	2back/STIM_010.jpg
814.804	0.857	correct	2back	Block2	2back/STIM_010.jpg
818.475	0.895	correct	2back	Block2	2back/STIM_010.jpg
821.845	0.538	correct	2back	Block2	2back/STIM_011.jpg
826.043	0.79	incorrect	2back	Block2	2back/STIM_011.jpg
830.572	0.839	correct	2back	Block2	2back/STIM_011.jpg
834.851	1.062	correct	2back	Block2	2back/STIM_012.jpg
838.888	1.143	correct	2back	Block2	2back/STIM_012.jpg
843.838	0.849	correct	2back	Block2	2back/STIM_012.jpg
847.514	1.194	correct	2back	Block2	2back/STIM_013.jpg
852.044	0.693	correct	2back	Block2	2back/STIM_013.jpg
856.144	0.706	correct	2back	Block2	2back/STIM_013.jpg
860.438	0.682	correct	2back	Block2	2back/STIM_014.jpg
864.997	0.935	correct	2back	Block2	2back/STIM_014.jpg
869.0	0.928	correct	2back	Block2	2back/STIM_014.jpg
873.133	0.977	correct	2back	Block2	2back/STIM_015.jpg
877.155	1.093	correct	2back	Block2	2back/STIM_015.jpg
880.86	0.707	correct	2back	Block2	2back/STIM_015.jpg
883.554	0.902	correct	2back	Block2	2back/STIM_016.jpg
887.218	0.85	correct	2back	Block2	2back/STIM_016.jpg
890.756	0.821	correct	2back	Block2	2back/STIM_016.jpg
893.952	1.084	correct	2back	Block2	2back/STIM_017.jpg
898.129	0.604	correct	2back	Block2	2back/STIM_017.jpg
902.341	0.993	correct	2back	Block2	2back/STIM_017.jpg
905.448	0.862	incorrect	2back	Block2	2back/STIM_018.jpg
908.323	0.842	incorrect	2back	Block2	2back/STIM_018.jpg
911.3	0.789	correct	2back	Block2	2back/STIM_018.jpg
916.12	0.88	correct	2back	Block2	2back/STIM_019.jpg
919.7	0.905	correct	2back	Block2	2back/STIM_019.jpg
923.303	0.758	correct	2back	Block2	2back/STIM_019.jpg
927.635	0.761	correct	2back	Block2	2back/STIM_020.jpg
932.34	0.722	correct	2back	Block2	2back/STIM_020.jpg
935.56	0.481	correct	2back	Block2	2back/STIM_020.jpg
939.806	0.624	correct	2back	Block2	2back/STIM_021.jpg
944.3	0.65	correct	2back	Block2	2back/STIM_021.jpg
948.114	0.56	correct	2back	Block2	2back/STIM_021.jpg
952.491	0.601	correct	2back	Block2	2back/STIM_022.jpg
957.057	0.935	correct	2back	Block2	2back/STIM_022.jpg
960.682	0.922	incorrect	2back	Block2	2back/STIM_022.jpg
964.6	0.876	correct	2back	Block2	2back/STIM_023.jpg
968.041	0.973	correct	2back	Block2	2back/STIM_023.jpg
971.104	0.548	correct	2back	Block2	2back/STIM_023.jpg
975.58	1.1	correct	2back	Block2	2back/STIM_024.jpg
980.648	0.537	correct	2back	Block2	2back/STIM_024.jpg
983.516	0.982	correct	2back	Block2	2back/STIM_024.jpg
988.523	0.75	correct	2back	Block2	2back/STIM_025.jpg
992.691	0.843	correct	2back	Block2	2back/STIM_025.jpg
996.629	0.549	correct	2back	Block2	2back/STIM_025.jpg
1001.157	0.622	correct	2back	Block2	2back/STIM_026.jpg
1004.93	0.745	correct	2back	Block2	2back/STIM_026.jpg
1008.392	0.768	correct	2back	Block2	2back/STIM_026.jpg
1012.225	0.528	correct	2back	Block2	2back/STIM_027.jpg
1016.188	0.94	correct	2back	Block2	2back/STIM_027.jpg
1020.569	0.749	correct	2back	Block2	2back/STIM_027.jpg
1024.522	1.132	correct	2back	Block2	2back/STIM_028.jpg
1029.457	0.874	correct	2back	Block2	2back/STIM_028.jpg
1033.773	0.934	correct	2back	Block2	2back/STIM_028.jpg
1037.032	0.665	correct	2back	Block2	2back/STIM_029.jpg
1039.968	0.627	correct	2back	Block2	2back/STIM_029.jpg
1043.593	0.485	correct	2back	Block2	2back/STIM_029.jpg
1047.488	1.02	correct	2back	Block2	2back/STIM_030.jpg
1050.535	0.636	correct	2back	Block2	2back/STIM_030.jpg
1054.893	0.793	correct	2back	Block2	2back/STIM_030.jpg
1059.461	1.024	correct	2back	Block2	2back/STIM_031.jpg
1062.767	0.625	correct	2back	Block2	2back/STIM_031.jpg
1065.46	0.574	correct	2back	Block2	2back/STIM_031.jpg
1068.715	0.866	correct	2back	Block2	2back/STIM_032.jpg
1073.073	0.603	incorrect	2back	Block2	2back/STIM_032.jpg
1076.772	0.907	correct	2back	Block2	2back/STIM_032.jpg
1081.262	0.829	correct	2back	Block2	2back/STIM_033.jpg
1085.915	0.573	correct	2back	Block2	2back/STIM_033.jpg
1088.751	0.915	correct	2back	Block2	2back/STIM_033.jpg
1093.327	1.04	correct	2back	Block2	2back/STIM_034.jpg
1096.906	0.526	correct	2back	Block2	2back/STIM_034.jpg
1099.486	0.608	correct	2back	Block2	2back/STIM_034.jpg
1103.78	1.148	correct	2back	Block2	2back/STIM_035.jpg
1107.346	0.987	correct	2back	Block2	2back/STIM_035.jpg
1110.523	0.975	correct	2back	Block2	2back/STIM_035.jpg
1115.073	0.539	correct	2back	Block2	2back/STIM_036.jpg
1117.979	0.864	correct	2back	Block2	2back/STIM_036.jpg
1120.884	0.975	correct	2back	Block2	2back/STIM_036.jpg
1124.502	0.512	correct	2back	Block2	2back/STIM_037.jpg
1128.716	0.612	correct	2back	Block2	2back/STIM_037.jpg
1132.16	0.524	incorrect	2back	Block2	2back/STIM_037.jpg
1136.225	0.785	correct	2back	Block2	2back/STIM_038.jpg
1139.946	0.472	correct	2back	Block2	2back/STIM_038.jpg
1143.449	0.805	correct	2back	Block2	2back/STIM_038.jpg
1148.266	0.74	correct	2back	Block2	2back/STIM_039.jpg
1151.473	0.798	correct	2back	Block2	2back/STIM_039.jpg
1155.244	0.671	correct	2back	Block2	2back/STIM_039.jpg
1159.304	0.641	correct	0back	Block2	0back/STIM_000.jpg
1162.187	0.685	correct	0back	Block2	0back/STIM_000.jpg
1166.448	0.712	correct	0back	Block2	0back/STIM_000.jpg
1169.648	0.687	correct	0back	Block2	0back/STIM_001.jpg
1172.563	0.57	correct	0back	Block2	0back/STIM_001.jpg
1176.152	0.519	correct	0back	Block2	0back/STIM_001.jpg
1179.633	0.697	correct	0back	Block2	0back/STIM_002.jpg
1182.874	0.522	correct	0back	Block2	0back/STIM_002.jpg
1185.837	0.374	correct	0back	Block2	0back/STIM_002.jpg
1189.896	0.578	correct	0back	Block2	0back/STIM_003.jpg
1193.43	0.821	correct	0back	Block2	0back/STIM_003.jpg
1198.131	0.404	correct	0back	Block2	0back/STIM_003.jpg
1200.895	0.794	correct	0back	Block2	0back/STIM_004.jpg
1204.372	0.467	correct	0back	Block2	0back/STIM_004.jpg
1208.727	0.594	correct	0back	Block2	0back/STIM_004.jpg
1213.022	0.636	correct	0back	Block2	0back/STIM_005.jpg
1215.74	0.602	correct	0back	Block2	0back/STIM_005.jpg
1220.334	0.699	correct	0back	Block2	0back/STIM_005.jpg
1223.933	0.404	correct	0back	Block2	0back/STIM_006.jpg
1227.906	0.626	correct	0back	Block2	0back/STIM_006.jpg
1230.716	0.477	correct	0back	Block2	0back/STIM_006.jpg
1233.797	0.7	correct	0back	Block2	0back/STIM_007.jpg
1238.2	0.799	correct	0back	Block2	0back/STIM_007.jpg
1241.846	0.602	correct	0back	Block2	0back/STIM_007.jpg
1246.199	0.736	correct	0back	Block2	0back/STIM_008.jpg
1249.9	0.488	correct	0back	Block2	0back/STIM_008.jpg
1253.048	0.645	correct	0back	Block2	0back/STIM_008.jpg
1255.73	0.467	correct	0back	Block2	0back/STIM_009.jpg
1258.211	0.399	correct	0back	Block2	0back/STIM_009.jpg
1262.534	0.826	correct	0back	Block2	0back/STIM_009.jpg
1266.948	0.691	correct	0back	Block2	0back/STIM_010.jpg
1271.104	0.646	correct	0back	Block2	0back/STIM_010.jpg
1274.882	0.54	correct	0back	Block2	0back/STIM_010.jpg
1278.835	0.488	correct	0back	Block2	0back/STIM_011.jpg
1282.327	0.805	correct	0back	Block2	0back/STIM_011.jpg
1285.632	0.618	correct	0back	Block2	0back/STIM_011.jpg
1289.639	0.398	correct	0back	Block2	0back/STIM_012.jpg
1293.222	0.619	correct	0back	Block2	0back/STIM_012.jpg
1296.814	0.636	correct	0back	Block2	0back/STIM_012.jpg
1299.779	0.58	correct	0back	Block2	0back/STIM_013.jpg
1302.484	0.49	correct	0back	Block2	0back/STIM_013.jpg
1306.704	0.581	correct	0back	Block2	0back/STIM_013.jpg
1310.938	0.443	correct	0back	Block2	0back/STIM_014.jpg
1315.055	0.842	correct	0back	Block2	0back/STIM_014.jpg
1318.007	0.522	correct	0back	Block2	0back/STIM_014.jpg
1321.377	0.618	correct	0back	Block2	0back/STIM_015.jpg
1325.336	0.408	correct	0back	Block2	0back/STIM_015.jpg
1328.415	0.452	correct	0back	Block2	0back/STIM_015.jpg
1332.7	0.706	correct	0back	Block2	0back/STIM_016.jpg
1335.575	0.732	correct	0back	Block2	0back/STIM_016.jpg
1338.554	0.585	correct	0back	Block2	0back/STIM_016.jpg
1342.704	0.638	incorrect	0back	Block2	0back/STIM_017.jpg
1346.076	0.571	correct	0back	Block2	0back/STIM_017.jpg
1350.21	0.492	correct	0back	Block2	0back/STIM_017.jpg
1354.279	0.526	correct	0back	Block2	0back/STIM_018.jpg
1358.742	0.586	correct	0back	Block2	0back/STIM_018.jpg
1362.106	0.393	correct	0back	Block2	0back/STIM_018.jpg
1366.18	0.529	correct	0back	Block2	0back/STIM_019.jpg
1369.211	0.62	correct	0back	Block2	0back/STIM_019.jpg
1372.859	0.536	correct	0back	Block2	0back/STIM_019.jpg
1376.625	0.792	correct	2back	Block3	2back/STIM_000.jpg
1380.894	0.786	correct	2back	Block3	2back/STIM_000.jpg
1384.806	0.722	correct	2back	Block3	2back/STIM_000.jpg
1389.181	0.436	incorrect	2back	Block3	2back/STIM_001.jpg
1392.199	0.68	correct	2back	Block3	2back/STIM_001.jpg
1396.472	0.706	correct	2back	Block3	2back/STIM_001.jpg
1399.48	0.622	correct	2back	Block3	2back/STIM_002.jpg
1403.933	0.402	correct	2back	Block3	2back/STIM_002.jpg
1407.634	0.516	correct	2back	Block3	2back/STIM_002.jpg
1410.662	0.952	correct	2back	Block3	2back/STIM_003.jpg
1414.611	0.749	correct	2back	Block3	2back/STIM_003.jpg
1419.182	0.726	correct	2back	Block3	2back/STIM_003.jpg
1422.067	0.776	correct	2back	Block3	2back/STIM_004.jpg
1425.07	0.702	correct	2back	Block3	2back/STIM_004.jpg
1428.355	0.649	correct	2back	Block3	2back/STIM_004.jpg
1431.277	0.533	correct	2back	Block3	2back/STIM_005.jpg
1435.012	0.6	correct	2back	Block3	2back/STIM_005.jpg
1439.336	0.708	incorrect	2back	Block3	2back/STIM_005.jpg
1442.98	0.469	correct	2back	Block3	2back/STIM_006.jpg
1447.108	0.879	correct	2back	Block3	2back/STIM_006.jpg
1451.06	0.774	correct	2back	Block3	2back/STIM_006.jpg
1455.118	0.77	correct	2back	Block3	2back/STIM_007.jpg
1458.16	0.53	correct	2back	Block3	2back/STIM_007.jpg
1461.704	0.948	correct	2back	Block3	2back/STIM_007.jpg
1466.608	0.615	correct	2back	Block3	2back/STIM_008.jpg
1470.666	0.869	correct	2back	Block3	2back/STIM_008.jpg
1475.474	0.447	correct	2back	Block3	2back/STIM_008.jpg
1478.465	0.625	correct	2back	Block3	2back/STIM_009.jpg
1482.537	0.656	correct	2back	Block3	2back/STIM_009.jpg
1485.824	0.427	correct	2back	Block3	2back/STIM_009.jpg
1489.606	0.456	correct	2back	Block3	2back/STIM_010.jpg
1492.389	0.378	correct	2back	Block3	2back/STIM_010.jpg
1495.691	0.521	correct	2back	Block3	2back/STIM_010.jpg
1498.725	0.432	correct	2back	Block3	2back/STIM_011.jpg
1502.697	0.494	correct	2back	Block3	2back/STIM_011.jpg
1506.515	0.64	correct	2back	Block3	2back/STIM_011.jpg
1510.491	0.507	correct	2back	Block3	2back/STIM_012.jpg
1514.874	0.864	correct	2back	Block3	2back/STIM_012.jpg
1517.863	0.604	correct	2back	Block3	2back/STIM_012.jpg
1520.525	0.489	correct	2back	Block3	2back/STIM_013.jpg
1524.462	0.816	correct	2back	Block3	2back/STIM_013.jpg
1528.581	0.512	correct	2back	Block3	2back/STIM_013.jpg
1532.477	0.964	correct	2back	Block3	2back/STIM_014.jpg
1535.699	0.64	correct	2back	Block3	2back/STIM_014.jpg
1539.836	0.925	correct	2back	Block3	2back/STIM_014.jpg
1543.262	0.843	correct	2back	Block3	2back/STIM_015.jpg
1546.68	0.94	correct	2back	Block3	2back/STIM_015.jpg
1550.936	0.515	correct	2back	Block3	2back/STIM_015.jpg
1554.174	0.527	correct	2back	Block3	2back/STIM_016.jpg
1558.526	0.91	correct	2back	Block3	2back/STIM_016.jpg
1561.487	0.473	correct	2back	Block3	2back/STIM_016.jpg
1565.041	0.426	correct	2back	Block3	2back/STIM_017.jpg
1569.278	0.638	correct	2back	Block3	2back/STIM_017.jpg
1572.923	0.927	correct	2back	Block3	2back/STIM_017.jpg
1577.246	0.873	correct	2back	Block3	2back/STIM_018.jpg
1581.821	0.533	correct	2back	Block3	2back/STIM_018.jpg
1585.704	0.898	correct	2back	Block3	2back/STIM_018.jpg
1588.839	0.829	correct	2back	Block3	2back/STIM_019.jpg
1593.518	0.613	correct	2back	Block3	2back/STIM_019.jpg
1597.413	0.869	correct	2back	Block3	2back/STIM_019.jpg
1602.357	0.631	correct	2back	Block3	2back/STIM_020.jpg
1606.095	0.555	correct	2back	Block3	2back/STIM_020.jpg
1610.371	0.759	correct	2back	Block3	2back/STIM_020.jpg
1613.362	0.949	correct	2back	Block3	2back/STIM_021.jpg
1617.438	0.973	correct	2back	Block3	2back/STIM_021.jpg
1621.374	0.87	correct	2back	Block3	2back/STIM_021.jpg
1624.477	0.777	correct	2back	Block3	2back/STIM_022.jpg
1629.188	0.732	correct	2back	Block3	2back/STIM_022.jpg
1633.435	0.76	correct	2back	Block3	2back/STIM_022.jpg
1637.399	1.013	correct	2back	Block3	2back/STIM_023.jpg
1642.188	0.47	correct	2back	Block3	2back/STIM_023.jpg
1646.33	0.496	correct	2back	Block3	2back/STIM_023.jpg
1650.762	0.515	correct	2back	Block3	2back/STIM_024.jpg
1654.55	0.622	correct	2back	Block3	2back/STIM_024.jpg
1657.945	0.622	correct	2back	Block3	2back/STIM_024.jpg
1660.76	1.008	correct	2back	Block3	2back/STIM_025.jpg
1665.288	0.909	correct	2back	Block3	2back/STIM_025.jpg
1668.338	0.449	correct	2back	Block3	2back/STIM_025.jpg
1670.993	0.811	correct	2back	Block3	2back/STIM_026.jpg
1675.75	0.816	correct	2back	Block3	2back/STIM_026.jpg
1680.376	0.617	correct	2back	Block3	2back/STIM_026.jpg
1684.893	0.72	correct	2back	Block3	2back/STIM_027.jpg
1689.011	0.592	correct	2back	Block3	2back/STIM_027.jpg
1692.833	0.914	correct	2back	Block3	2back/STIM_027.jpg
1696.482	0.436	correct	2back	Block3	2back/STIM_028.jpg
1700.294	0.461	correct	2back	Block3	2back/STIM_028.jpg
1703.241	0.533	correct	2back	Block3	2back/STIM_028.jpg
1706.818	0.962	correct	2back	Block3	2back/STIM_029.jpg
1710.695	0.507	correct	2back	Block3	2back/STIM_029.jpg
1715.191	0.582	correct	2back	Block3	2back/STIM_029.jpg
1719.153	0.646	correct	2back	Block3	2back/STIM_030.jpg
1722.463	0.598	correct	2back	Block3	2back/STIM_030.jpg
1725.433	0.631	correct	2back	Block3	2back/STIM_030.jpg
1728.371	0.873	correct	2back	Block3	2back/STIM_031.jpg
1732.38	0.609	correct	2back	Block3	2back/STIM_031.jpg
1735.265	0.833	correct	2back	Block3	2back/STIM_031.jpg
1738.095	0.785	correct	2back	Block3	2back/STIM_032.jpg
1741.225	0.793	correct	2back	Block3	2back/STIM_032.jpg
1745.287	0.921	correct	2back	Block3	2back/STIM_032.jpg
1748.518	0.765	correct	2back	Block3	2back/STIM_033.jpg
1752.477	0.88	correct	2back	Block3	2back/STIM_033.jpg
1756.335	0.599	correct	2back	Block3	2back/STIM_033.jpg
1759.857	0.902	correct	2back	Block3	2back/STIM_034.jpg
1763.048	0.913	correct	2back	Block3	2back/STIM_034.jpg
1767.731	0.87	correct	2back	Block3	2back/STIM_034.jpg
1772.513	0.573	correct	2back	Block3	2back/STIM_035.jpg
1775.743	0.469	correct	2back	Block3	2back/STIM_035.jpg
1779.215	0.64	correct	2back	Block3	2back/STIM_035.jpg
1783.821	0.856	correct	2back	Block3	2back/STIM_036.jpg
1788.654	0.912	correct	2back	Block3	2back/STIM_036.jpg
1793.157	0.652	incorrect	2back	Block3	2back/STIM_036.jpg
1797.611	0.571	correct	2back	Block3	2back/STIM_037.jpg
1801.608	0.847	correct	2back	Block3	2back/STIM_037.jpg
1804.718	1.018	correct	2back	Block3	2back/STIM_037.jpg
1808.404	0.828	correct	2back	Block3	2back/STIM_038.jpg
1812.961	0.989	correct	2back	Block3	2back/STIM_038.jpg
1817.113	0.902	correct	2back	Block3	2back/STIM_038.jpg
1821.907	0.608	incorrect	2back	Block3	2back/STIM_039.jpg
1825.214	0.978	correct	2back	Block3	2back/STIM_039.jpg
1828.333	0.788	correct	2back	Block3	2back/STIM_039.jpg
1831.472	0.627	correct	0back	Block3	0back/STIM_000.jpg
1834.702	0.858	correct	0back	Block3	0back/STIM_000.jpg
1838.883	0.486	correct	0back	Block3	0back/STIM_000.jpg
1841.846	0.722	correct	0back	Block3	0back/STIM_001.jpg
1845.24	0.726	correct	0back	Block3	0back/STIM_001.jpg
1849.537	0.553	correct	0back	Block3	0back/STIM_001.jpg
1853.218	0.675	correct	0back	Block3	0back/STIM_002.jpg
1856.696	0.614	correct	0back	Block3	0back/STIM_002.jpg
1860.051	0.531	correct	0back	Block3	0back/STIM_002.jpg
1863.045	0.625	correct	0back	Block3	0back/STIM_003.jpg
1866.996	0.404	correct	0back	Block3	0back/STIM_003.jpg
1871.089	0.68	correct	0back	Block3	0back/STIM_003.jpg
1874.904	0.73	correct	0back	Block3	0back/STIM_004.jpg
1879.511	0.62	correct	0back	Block3	0back/STIM_004.jpg
1882.263	0.709	correct	0back	Block3	0back/STIM_004.jpg
1886.554	0.735	correct	0back	Block3	0back/STIM_005.jpg
1889.516	0.377	correct	0back	Block3	0back/STIM_005.jpg
1892.511	0.699	correct	0back	Block3	0back/STIM_005.jpg
1895.673	0.611	correct	0back	Block3	0back/STIM_006.jpg
1899.019	0.75	correct	0back	Block3	0back/STIM_006.jpg
1901.982	0.349	correct	0back	Block3	0back/STIM_006.jpg
1904.995	0.722	correct	0back	Block3	0back/STIM_007.jpg
1908.979	0.773	correct	0back	Block3	0back/STIM_007.jpg
1912.318	0.496	correct	0back	Block3	0back/STIM_007.jpg
1916.579	0.455	correct	0back	Block3	0back/STIM_008.jpg
1919.284	0.395	correct	0back	Block3	0back/STIM_008.jpg
1922.095	0.683	correct	0back	Block3	0back/STIM_008.jpg
1925.201	0.73	correct	0back	Block3	0back/STIM_009.jpg
1929.504	0.654	incorrect	0back	Block3	0back/STIM_009.jpg
1933.417	0.664	correct	0back	Block3	0back/STIM_009.jpg
1937.59	0.742	correct	0back	Block3	0back/STIM_010.jpg
1941.855	0.652	incorrect	0back	Block3	0back/STIM_010.jpg
1945.112	0.69	correct	0back	Block3	0back/STIM_010.jpg
1949.756	0.623	correct	0back	Block3	0back/STIM_011.jpg
1952.467	0.585	correct	0back	Block3	0back/STIM_011.jpg
1956.38	0.595	correct	0back	Block3	0back/STIM_011.jpg
1960.211	0.571	correct	0back	Block3	0back/STIM_012.jpg
1962.947	0.705	correct	0back	Block3	0back/STIM_012.jpg
1966.675	0.572	correct	0back	Block3	0back/STIM_012.jpg
1969.467	0.55	correct	0back	Block3	0back/STIM_013.jpg
1972.141	0.445	correct	0back	Block3	0back/STIM_013.jpg
1975.464	0.344	correct	0back	Block3	0back/STIM_013.jpg
1979.674	0.443	correct	0back	Block3	0back/STIM_014.jpg
1983.632	0.456	correct	0back	Block3	0back/STIM_014.jpg
1987.115	0.795	correct	0back	Block3	0back/STIM_014.jpg
1990.736	0.759	correct	0back	Block3	0back/STIM_015.jpg
1993.996	0.409	correct	0back	Block3	0back/STIM_015.jpg
1997.678	0.662	correct	0back	Block3	0back/STIM_015.jpg
2001.813	0.6	correct	0back	Block3	0back/STIM_016.jpg
2005.167	0.529	correct	0back	Block3	0back/STIM_016.jpg
2009.344	0.566	correct	0back	Block3	0back/STIM_016.jpg
2012.187	0.645	correct	0back	Block3	0back/STIM_017.jpg
2014.767	0.72	correct	0back	Block3	0back/STIM_017.jpg
2019.321	0.774	correct	0back	Block3	0back/STIM_017.jpg
2023.461	0.518	correct	0back	Block3	0back/STIM_018.jpg
2027.543	0.568	correct	0back	Block3	0back/STIM_018.jpg
2031.882	0.382	correct	0back	Block3	0back/STIM_018.jpg
2034.96	0.672	correct	0back	Block3	0back/STIM_019.jpg
2039.478	0.538	correct	0back	Block3	0back/STIM_019.jpg
2043.738	0.841	incorrect	0back	Block3	0back/STIM_019.jpg
2046.795	0.593	correct	2back	Block4	2back/STIM_000.jpg
2049.841	0.615	correct	2back	Block4	2back/STIM_000.jpg
2054.105	0.953	correct	2back	Block4	2back/STIM_000.jpg
2057.045	0.555	correct	2back	Block4	2back/STIM_001.jpg
2060.67	0.975	correct	2back	Block4	2back/STIM_001.jpg
2064.913	0.868	correct	2back	Block4	2back/STIM_001.jpg
2069.228	0.851	correct	2back	Block4	2back/STIM_002.jpg
2073.929	0.97	correct	2back	Block4	2back/STIM_002.jpg
2078.513	0.628	correct	2back	Block4	2back/STIM_002.jpg
2081.279	0.636	correct	2back	Block4	2back/STIM_003.jpg
2085.841	0.625	correct	2back	Block4	2back/STIM_003.jpg
2089.634	0.975	correct	2back	Block4	2back/STIM_003.jpg
2093.025	0.69	correct	2back	Block4	2back/STIM_004.jpg
2096.896	0.759	correct	2back	Block4	2back/STIM_004.jpg
2099.917	0.644	correct	2back	Block4	2back/STIM_004.jpg
2103.104	0.544	correct	2back	Block4	2back/STIM_005.jpg
2105.985	0.934	correct	2back	Block4	2back/STIM_005.jpg
2109.893	0.621	correct	2back	Block4	2back/STIM_005.jpg
2113.945	0.59	correct	2back	Block4	2back/STIM_006.jpg
2117.298	0.594	correct	2back	Block4	2back/STIM_006.jpg
2121.07	0.892	correct	2back	Block4	2back/STIM_006.jpg
2125.255	0.792	correct	2back	Block4	2back/STIM_007.jpg
2129.553	0.786	correct	2back	Block4	2back/STIM_007.jpg
2132.903	0.644	correct	2back	Block4	2back/STIM_007.jpg
2135.609	0.524	correct	2back	Block4	2back/STIM_008.jpg
2140.039	0.466	correct	2back	Block4	2back/STIM_008.jpg
2143.752	0.636	correct	2back	Block4	2back/STIM_008.jpg
2147.267	0.499	correct	2back	Block4	2back/STIM_009.jpg
2151.554	0.557	correct	2back	Block4	2back/STIM_009.jpg
2154.273	0.751	correct	2back	Block4	2back/STIM_009.jpg
2157.518	0.951	correct	2back	Block4	2back/STIM_010.jpg
2160.892	0.783	correct	2back	Block4	2back/STIM_010.jpg
2164.448	0.817	correct	2back	Block4	2back/STIM_010.jpg
2169.052	0.959	correct	2back	Block4	2back/STIM_011.jpg
2173.044	0.471	correct	2back	Block4	2back/STIM_011.jpg
2176.964	0.741	correct	2back	Block4	2back/STIM_011.jpg
2180.522	0.705	correct	2back	Block4	2back/STIM_012.jpg
2183.401	0.65	correct	2back	Block4	2back/STIM_012.jpg
2187.677	0.516	correct	2back	Block4	2back/STIM_012.jpg
2191.701	0.537	correct	2back	Block4	2back/STIM_013.jpg
2195.075	0.795	correct	2back	Block4	2back/STIM_013.jpg
2198.653	0.811	correct	2back	Block4	2back/STIM_013.jpg
2202.886	0.602	correct	2back	Block4	2back/STIM_014.jpg
2205.775	0.396	correct	2back	Block4	2back/STIM_014.jpg
2208.408	0.531	correct	2back	Block4	2back/STIM_014.jpg
2210.992	0.544	correct	2back	Block4	2back/STIM_015.jpg
2215.406	0.727	correct	2back	Block4	2back/STIM_015.jpg
2219.183	0.678	correct	2back	Block4	2back/STIM_015.jpg
2222.604	0.583	correct	2back	Block4	2back/STIM_016.jpg
2226.831	0.73	correct	2back	Block4	2back/STIM_016.jpg
2229.951	0.577	correct	2back	Block4	2back/STIM_016.jpg
2233.637	0.666	correct	2back	Block4	2back/STIM_017.jpg
2237.118	0.813	correct	2back	Block4	2back/STIM_017.jpg
2241.058	0.798	correct	2back	Block4	2back/STIM_017.jpg
2245.096	0.658	correct	2back	Block4	2back/STIM_018.jpg
2248.224	0.823	correct	2back	Block4	2back/STIM_018.jpg
2252.786	0.782	correct	2back	Block4	2back/STIM_018.jpg
2257.573	0.627	correct	2back	Block4	2back/STIM_019.jpg
2262.129	0.6	correct	2back	Block4	2back/STIM_019.jpg
2265.493	0.526	correct	2back	Block4	2back/STIM_019.jpg
2268.875	0.594	correct	2back	Block4	2back/STIM_020.jpg
2272.718	0.628	correct	2back	Block4	2back/STIM_020.jpg
2276.725	0.876	correct	2back	Block4	2back/STIM_020.jpg
2280.182	0.589	correct	2back	Block4	2back/STIM_021.jpg
2283.767	0.718	correct	2back	Block4	2back/STIM_021.jpg
2288.194	0.765	correct	2back	Block4	2back/STIM_021.jpg
2292.408	0.889	correct	2back	Block4	2back/STIM_022.jpg
2295.399	0.662	correct	2back	Block4	2back/STIM_022.jpg
2298.269	0.58	correct	2back	Block4	2back/STIM_022.jpg
2302.598	0.935	correct	2back	Block4	2back/STIM_023.jpg
2307.335	0.84	correct	2back	Block4	2back/STIM_023.jpg
2311.909	0.754	correct	2back	Block4	2back/STIM_023.jpg
2315.965	0.539	correct	2back	Block4	2back/STIM_024.jpg
2319.362	0.775	correct	2back	Block4	2back/STIM_024.jpg
2323.868	0.634	correct	2back	Block4	2back/STIM_024.jpg
2327.909	0.666	correct	2back	Block4	2back/STIM_025.jpg
2330.687	0.599	correct	2back	Block4	2back/STIM_025.jpg
2333.842	0.516	correct	2back	Block4	2back/STIM_025.jpg
2337.775	0.749	correct	2back	Block4	2back/STIM_026.jpg
2342.163	0.991	correct	2back	Block4	2back/STIM_026.jpg
2346.387	0.699	correct	2back	Block4	2back/STIM_026.jpg
2350.862	0.996	correct	2back	Block4	2back/STIM_027.jpg
2355.009	0.65	correct	2back	Block4	2back/STIM_027.jpg
2358.893	0.586	correct	2back	Block4	2back/STIM_027.jpg
2361.946	0.643	correct	2back	Block4	2back/STIM_028.jpg
2365.315	0.509	correct	2back	Block4	2back/STIM_028.jpg
2368.011	0.838	correct	2back	Block4	2back/STIM_028.jpg
2372.428	0.712	correct	2back	Block4	2back/STIM_029.jpg
2376.383	0.893	correct	2back	Block4	2back/STIM_029.jpg
2380.61	0.842	correct	2back	Block4	2back/STIM_029.jpg
2384.472	0.399	correct	2back	Block4	2back/STIM_030.jpg
2388.886	0.673	correct	2back	Block4	2back/STIM_030.jpg
2393.059	0.644	correct	2back	Block4	2back/STIM_030.jpg
2397.346	0.876	correct	2back	Block4	2back/STIM_031.jpg
2400.672	0.699	correct	2back	Block4	2back/STIM_031.jpg
2404.785	0.845	correct	2back	Block4	2back/STIM_031.jpg
2408.309	0.635	correct	2back	Block4	2back/STIM_032.jpg
2412.669	0.512	correct	2back	Block4	2back/STIM_032.jpg
2415.825	0.883	correct	2back	Block4	2back/STIM_032.jpg
2420.022	0.712	correct	2back	Block4	2back/STIM_033.jpg
2423.407	0.961	correct	2back	Block4	2back/STIM_033.jpg
2427.752	0.559	correct	2back	Block4	2back/STIM_033.jpg
2431.396	0.588	correct	2back	Block4	2back/STIM_034.jpg
2435.619	0.771	correct	2back	Block4	2back/STIM_034.jpg
2439.685	0.546	correct	2back	Block4	2back/STIM_034.jpg
2442.427	0.865	correct	2back	Block4	2back/STIM_035.jpg
2446.55	0.962	correct	2back	Block4	2back/STIM_035.jpg
2450.919	0.608	correct	2back	Block4	2back/STIM_035.jpg
2454.681	0.375	correct	2back	Block4	2back/STIM_036.jpg
2459.1	0.535	correct	2back	Block4	2back/STIM_036.jpg
2463.504	0.585	correct	2back	Block4	2back/STIM_036.jpg
2466.272	0.774	correct	2back	Block4	2back/STIM_037.jpg
2469.77	0.676	correct	2back	Block4	2back/STIM_037.jpg
2474.394	0.828	correct	2back	Block4	2back/STIM_037.jpg
2478.221	0.898	correct	2back	Block4	2back/STIM_038.jpg
2482.607	0.87	correct	2back	Block4	2back/STIM_038.jpg
2485.649	0.757	correct	2back	Block4	2back/STIM_038.jpg
2490.188	0.746	correct	2back	Block4	2back/STIM_039.jpg
2493.587	0.63	correct	2back	Block4	2back/STIM_039.jpg
2496.205	0.744	correct	2back	Block4	2back/STIM_039.jpg
2500.828	0.805	correct	0back	Block4	0back/STIM_000.jpg
2504.292	0.432	correct	0back	Block4	0back/STIM_000.jpg
2507.019	0.341	correct	0back	Block4	0back/STIM_000.jpg
2509.774	0.435	correct	0back	Block4	0back/STIM_001.jpg
2513.192	0.488	correct	0back	Block4	0back/STIM_001.jpg
2517.487	0.47	correct	0back	Block4	0back/STIM_001.jpg
2520.983	0.702	correct	0back	Block4	0back/STIM_002.jpg
2525.385	0.615	correct	0back	Block4	0back/STIM_002.jpg
2528.284	0.514	correct	0back	Block4	0back/STIM_002.jpg
2532.726	0.576	correct	0back	Block4	0back/STIM_003.jpg
2536.226	0.772	correct	0back	Block4	0back/STIM_003.jpg
2540.88	0.679	correct	0back	Block4	0back/STIM_003.jpg
2545.498	0.747	correct	0back	Block4	0back/STIM_004.jpg
2548.803	0.564	incorrect	0back	Block4	0back/STIM_004.jpg
2551.511	0.744	correct	0back	Block4	0back/STIM_004.jpg
2554.699	0.56	correct	0back	Block4	0back/STIM_005.jpg
2557.626	0.462	correct	0back	Block4	0back/STIM_005.jpg
2560.771	0.46	correct	0back	Block4	0back/STIM_005.jpg
2563.554	0.604	incorrect	0back	Block4	0back/STIM_006.jpg
2566.721	0.734	correct	0back	Block4	0back/STIM_006.jpg
2570.279	0.77	correct	0back	Block4	0back/STIM_006.jpg
2573.191	0.554	correct	0back	Block4	0back/STIM_007.jpg
2576.909	0.684	correct	0back	Block4	0back/STIM_007.jpg
2580.121	0.765	correct	0back	Block4	0back/STIM_007.jpg
2582.86	0.548	correct	0back	Block4	0back/STIM_008.jpg
2586.25	0.555	correct	0back	Block4	0back/STIM_008.jpg
2590.26	0.603	correct	0back	Block4	0back/STIM_008.jpg
2593.637	0.509	correct	0back	Block4	0back/STIM_009.jpg
2597.816	0.774	correct	0back	Block4	0back/STIM_009.jpg
2601.833	0.526	correct	0back	Block4	0back/STIM_009.jpg
2605.709	0.56	correct	0back	Block4	0back/STIM_010.jpg
2608.396	0.693	correct	0back	Block4	0back/STIM_010.jpg
2612.535	0.818	correct	0back	Block4	0back/STIM_010.jpg
2615.419	0.539	correct	0back	Block4	0back/STIM_011.jpg
2619.595	0.592	correct	0back	Block4	0back/STIM_011.jpg
2623.722	0.75	correct	0back	Block4	0back/STIM_011.jpg
2626.882	0.646	correct	0back	Block4	0back/STIM_012.jpg
2629.636	0.614	correct	0back	Block4	0back/STIM_012.jpg
2632.965	0.499	correct	0back	Block4	0back/STIM_012.jpg
2636.401	0.573	correct	0back	Block4	0back/STIM_013.jpg
2639.858	0.761	correct	0back	Block4	0back/STIM_013.jpg
2642.836	0.622	correct	0back	Block4	0back/STIM_013.jpg
2646.478	0.764	correct	0back	Block4	0back/STIM_014.jpg
2649.652	0.783	correct	0back	Block4	0back/STIM_014.jpg
2654.156	0.774	correct	0back	Block4	0back/STIM_014.jpg
2658.846	0.44	correct	0back	Block4	0back/STIM_015.jpg
2662.761	0.805	correct	0back	Block4	0back/STIM_015.jpg
2665.545	0.373	correct	0back	Block4	0back/STIM_015.jpg
2669.117	0.465	correct	0back	Block4	0back/STIM_016.jpg
2673.47	0.768	correct	0back	Block4	0back/STIM_016.jpg
2676.948	0.577	correct	0back	Block4	0back/STIM_016.jpg
2681.208	0.499	correct	0back	Block4	0back/STIM_017.jpg
2684.36	0.859	incorrect	0back	Block4	0back/STIM_017.jpg
2687.41	0.542	correct	0back	Block4	0back/STIM_017.jpg
2690.381	0.552	correct	0back	Block4	0back/STIM_018.jpg
2692.973	0.74	correct	0back	Block4	0back/STIM_018.jpg
2697.473	0.577	correct	0back	Block4	0back/STIM_018.jpg
2700.237	0.674	correct	0back	Block4	0back/STIM_019.jpg
2703.77	0.611	correct	0back	Block4	0back/STIM_019.jpg
2706.518	0.652	correct	0back	Block4	0back/STIM_019.jpg
