onset	duration	response_time_ms	trial_type	learning_stage	stimulus	response_port
0.0	1.194	1194.1	2back	Block1	2back/STIM_000.jpg	99
4.65	1.084	1084.5	2back	Block1	2back/STIM_000.jpg	100
8.067	0.854	854.3	2back	Block1	2back/STIM_000.jpg	99
11.235	0.591	591.0	2back	Block1	2back/STIM_001.jpg	99
14.402	0.834	834.0	2back	Block1	2back/STIM_001.jpg	99
17.383	1.038	1037.7	2back	Block1	2back/STIM_001.jpg	100
21.689	1.089	1089.2	2back	Block1	2back/STIM_002.jpg	99
25.415	1.093	1092.7	2back	Block1	2back/STIM_002.jpg	100
29.575	1.008	1007.7	2back	Block1	2back/STIM_002.jpg	99
34.283	0.748	748.2	2back	Block1	2back/STIM_003.jpg	100
37.387	1.075	1075.0	2back	Block1	2back/STIM_003.jpg	99
41.657	1.122	1122.3	2back	Block1	2back/STIM_003.jpg	99
46.674	0.599	598.8	2back	Block1	2back/STIM_004.jpg	99
51.049	0.584	583.8	2back	Block1	2back/STIM_004.jpg	100
54.219	0.896	895.5	2back	Block1	2back/STIM_004.jpg	100
58.842	1.315	1315.1	2back	Block1	2back/STIM_005.jpg	100
63.993	0.818	818.1	2back	Block1	2back/STIM_005.jpg	100
67.99	0.609	608.9	2back	Block1	2back/STIM_005.jpg	99
70.952	1.099	1098.6	2back	Block1	2back/STIM_006.jpg	100
75.559	1.034	1033.5	2back	Block1	2back/STIM_006.jpg	100
80.199	0.802	801.6	2back	Block1	2back/STIM_006.jpg	99
84.992	1.164	1164.2	2back	Block1	2back/STIM_007.jpg	99
88.457	0.721	721.0	2back	Block1	2back/STIM_007.jpg	99
93.013	0.772	771.6	2back	Block1	2back/STIM_007.jpg	100
96.818	1.371	1371.4	2back	Block1	2back/STIM_008.jpg	100
100.227	0.962	962.5	2back	Block1	2back/STIM_008.jpg	100
103.34	0.925	924.8	2back	Block1	2back/STIM_008.jpg	99
107.249	0.873	872.8	2back	Block1	2back/STIM_009.jpg	100
111.904	1.185	1185.1	2back	Block1	2back/STIM_009.jpg	100
115.654	0.576	576.2	2back	Block1	2back/STIM_009.jpg	99
118.961	0.744	744.5	2back	Block1	2back/STIM_010.jpg	99
122.419	0.784	783.7	2back	Block1	2back/STIM_010.jpg	99
126.985	0.548	547.8	2back	Block1	2back/STIM_010.jpg	99
130.722	1.374	1373.9	2back	Block1	2back/STIM_011.jpg	100
135.681	0.88	879.5	2back	Block1	2back/STIM_011.jpg	99
139.014	0.981	981.1	2back	Block1	2back/STIM_011.jpg	100
143.566	0.758	758.5	2back	Block1	2back/STIM_012.jpg	100
147.261	1.115	1115.3	2back	Block1	2back/STIM_012.jpg	100
151.527	1.011	1011.0	2back	Block1	2back/STIM_012.jpg	99
156.277	1.246	1246.3	2back	Block1	2back/STIM_013.jpg	99
161.372	0.758	757.8	2back	Block1	2back/STIM_013.jpg	100
164.334	1.218	1217.8	2back	Block1	2back/STIM_013.jpg	99
168.973	0.585	584.8	2back	Block1	2back/STIM_014.jpg	99
171.815	1.244	1243.7	2back	Block1	2back/STIM_014.jpg	100
176.336	0.958	957.6	2back	Block1	2back/STIM_014.jpg	99
180.896	1.398	1398.0	2back	Block1	2back/STIM_015.jpg	100
185.091	0.908	908.3	2back	Block1	2back/STIM_015.jpg	100
189.645	1.039	1038.7	2back	Block1	2back/STIM_015.jpg	99
193.005	0.873	873.4	2back	Block1	2back/STIM_016.jpg	99
196.25	0.541	541.3	2back	Block1	2back/STIM_016.jpg	100
199.459	0.611	611.1	2back	Block1	2back/STIM_016.jpg	99
202.379	1.107	1106.9	2back	Block1	2back/STIM_017.jpg	99
207.155	1.124	1124.1	2back	Block1	2back/STIM_017.jpg	100
212.138	0.987	986.6	2back	Block1	2back/STIM_017.jpg	100
216.681	0.953	952.8	2back	Block1	2back/STIM_018.jpg	100
219.882	1.196	1196.0	2back	Block1	2back/STIM_018.jpg	100
224.401	0.662	661.7	2back	Block1	2back/STIM_018.jpg	99
227.082	0.871	870.7	2back	Block1	2back/STIM_019.jpg	100
231.567	0.81	809.7	2back	Block1	2back/STIM_019.jpg	100
234.805	1.266	1266.1	2back	Block1	2back/STIM_019.jpg	100
240.017	0.956	956.3	2back	Block1	2back/STIM_020.jpg	99
242.949	0.636	636.0	2back	Block1	2back/STIM_020.jpg	99
247.519	0.684	683.9	2back	Block1	2back/STIM_020.jpg	99
251.422	1.356	1356.4	2back	Block1	2back/STIM_021.jpg	99
255.84	0.735	734.6	2back	Block1	2back/STIM_021.jpg	100
259.178	0.684	683.5	2back	Block1	2back/STIM_021.jpg	99
263.621	1.2	1200.0	2back	Block1	2back/STIM_022.jpg	100
267.145	1.218	1217.9	2back	Block1	2back/STIM_022.jpg	100
271.743	1.114	1113.9	2back	Block1	2back/STIM_022.jpg	99
276.575	1.034	1034.5	2back	Block1	2back/STIM_023.jpg	99
280.378	1.28	1279.7	2back	Block1	2back/STIM_023.jpg	99
284.569	0.564	564.0	2back	Block1	2back/STIM_023.jpg	99
288.971	1.375	1375.2	2back	Block1	2back/STIM_024.jpg	100
292.395	0.933	932.6	2back	Block1	2back/STIM_024.jpg	100
296.699	0.554	554.0	2back	Block1	2back/STIM_024.jpg	100
301.049	1.087	1086.9	2back	Block1	2back/STIM_025.jpg	99
304.178	1.203	1202.9	2back	Block1	2back/STIM_025.jpg	100
308.318	1.116	1115.7	2back	Block1	2back/STIM_025.jpg	99
313.322	1.059	1058.8	2back	Block1	2back/STIM_026.jpg	100
316.716	0.929	929.0	2back	Block1	2back/STIM_026.jpg	99
321.39	0.639	639.2	2back	Block1	2back/STIM_026.jpg	99
324.773	1.064	1064.0	2back	Block1	2back/STIM_027.jpg	99
328.353	0.699	698.9	2back	Block1	2back/STIM_027.jpg	99
332.529	1.071	1071.0	2back	Block1	2back/STIM_027.jpg	100
336.758	0.762	762.2	2back	Block1	2back/STIM_028.jpg	100
339.96	0.656	656.0	2back	Block1	2back/STIM_028.jpg	100
343.451	0.594	594.0	2back	Block1	2back/STIM_028.jpg	100
347.013	1.283	1283.0	2back	Block1	2back/STIM_029.jpg	99
351.587	1.167	1167.4	2back	Block1	2back/STIM_029.jpg	100
356.361	1.013	1013.3	2back	Block1	2back/STIM_029.jpg	100
361.06	0.758	757.5	2back	Block1	2back/STIM_030.jpg	100
364.115	0.783	783.3	2back	Block1	2back/STIM_030.jpg	100
368.464	0.883	882.6	2back	Block1	2back/STIM_030.jpg	100
372.331	1.063	1062.8	2back	Block1	2back/STIM_031.jpg	99
376.354	0.857	856.7	2back	Block1	2back/STIM_031.jpg	99
380.775	0.956	955.5	2back	Block1	2back/STIM_031.jpg	99
384.035	1.271	1270.6	2back	Block1	2back/STIM_032.jpg	100
387.373	1.091	1091.4	2back	Block1	2back/STIM_032.jpg	100
390.981	0.873	872.8	2back	Block1	2back/STIM_032.jpg	99
395.516	1.197	1197.4	2back	Block1	2back/STIM_033.jpg	99
399.07	0.784	784.3	2back	Block1	2back/STIM_033.jpg	99
402.666	0.553	553.0	2back	Block1	2back/STIM_033.jpg	100
405.724	0.669	668.8	2back	Block1	2back/STIM_034.jpg	100
408.876	0.736	736.3	2back	Block1	2back/STIM_034.jpg	100
412.298	0.935	935.2	2back	Block1	2back/STIM_034.jpg	99
415.602	0.948	947.7	2back	Block1	2back/STIM_035.jpg	100
420.511	0.751	751.2	2back	Block1	2back/STIM_035.jpg	100
424.084	1.063	1063.4	2back	Block1	2back/STIM_035.jpg	100
427.856	1.143	1143.1	2back	Block1	2back/STIM_036.jpg	99
431.435	0.713	712.6	2back	Block1	2back/STIM_036.jpg	99
435.503	0.689	688.7	2back	Block1	2back/STIM_036.jpg	100
440.06	0.541	541.1	2back	Block1	2back/STIM_037.jpg	99
443.821	1.137	1136.6	2back	Block1	2back/STIM_037.jpg	99
448.932	1.019	1018.7	2back	Block1	2back/STIM_037.jpg	99
452.174	0.696	696.2	2back	Block1	2back/STIM_038.jpg	99
456.086	0.531	530.7	2back	Block1	2back/STIM_038.jpg	99
459.156	1.141	1141.2	2back	Block1	2back/STIM_038.jpg	99
463.207	1.202	1201.5	2back	Block1	2back/STIM_039.jpg	100
467.001	0.676	675.8	2back	Block1	2back/STIM_039.jpg	100
469.85	0.829	829.4	2back	Block1	2back/STIM_039.jpg	99
473.839	0.641	641.3	0back	Block1	0back/STIM_000.jpg	99
477.954	0.578	578.2	0back	Block1	0back/STIM_000.jpg	100
482.404	0.532	532.2	0back	Block1	0back/STIM_000.jpg	99
486.062	0.327	326.7	0back	Block1	0back/STIM_001.jpg	100
488.838	0.567	566.9	0back	Block1	0back/STIM_001.jpg	99
492.547	0.594	594.1	0back	Block1	0back/STIM_001.jpg	99
496.755	0.729	729.2	0back	Block1	0back/STIM_002.jpg	99
501.214	0.63	629.7	0back	Block1	0back/STIM_002.jpg	99
504.419	0.509	508.9	0back	Block1	0back/STIM_002.jpg	100
508.189	0.761	761.4	0back	Block1	0back/STIM_003.jpg	100
511.33	0.488	487.9	0back	Block1	0back/STIM_003.jpg	99
515.016	0.72	720.2	0back	Block1	0back/STIM_003.jpg	100
518.63	0.588	587.7	0back	Block1	0back/STIM_004.jpg	99
521.642	0.473	472.9	0back	Block1	0back/STIM_004.jpg	100
524.803	0.487	486.6	0back	Block1	0back/STIM_004.jpg	99
528.094	0.447	446.7	0back	Block1	0back/STIM_005.jpg	100
531.642	0.651	651.1	0back	Block1	0back/STIM_005.jpg	100
535.038	0.616	616.4	0back	Block1	0back/STIM_005.jpg	100
538.067	0.762	762.1	0back	Block1	0back/STIM_006.jpg	99
540.829	0.514	514.2	0back	Block1	0back/STIM_006.jpg	100
543.971	0.658	658.4	0back	Block1	0back/STIM_006.jpg	99
547.635	0.746	745.7	0back	Block1	0back/STIM_007.jpg	100
551.184	0.704	703.8	0back	Block1	0back/STIM_007.jpg	99
554.297	0.652	651.7	0back	Block1	0back/STIM_007.jpg	99
558.385	0.513	512.8	0back	Block1	0back/STIM_008.jpg	99
562.812	0.684	684.5	0back	Block1	0back/STIM_008.jpg	99
567.44	0.668	667.6	0back	Block1	0back/STIM_008.jpg	99
571.582	0.484	483.7	0back	Block1	0back/STIM_009.jpg	100
574.296	0.734	734.5	0back	Block1	0back/STIM_009.jpg	99
578.59	0.466	466.3	0back	Block1	0back/STIM_009.jpg	99
581.381	0.393	393.4	0back	Block1	0back/STIM_010.jpg	100
584.39	0.499	498.6	0back	Block1	0back/STIM_010.jpg	100
587.578	0.623	622.8	0back	Block1	0back/STIM_010.jpg	100
592.127	0.524	523.7	0back	Block1	0back/STIM_011.jpg	99
596.132	0.601	600.6	0back	Block1	0back/STIM_011.jpg	99
600.43	0.74	739.6	0back	Block1	0back/STIM_011.jpg	99
604.068	0.526	526.5	0back	Block1	0back/STIM_012.jpg	99
607.694	0.562	562.3	0back	Block1	0back/STIM_012.jpg	100
611.47	0.395	394.8	0back	Block1	0back/STIM_012.jpg	100
615.032	0.434	434.2	0back	Block1	0back/STIM_013.jpg	100
619.292	0.349	349.1	0back	Block1	0back/STIM_013.jpg	100
623.295	0.454	453.9	0back	Block1	0back/STIM_013.jpg	100
627.025	0.574	574.0	0back	Block1	0back/STIM_014.jpg	99
630.593	0.502	502.4	0back	Block1	0back/STIM_014.jpg	100
634.757	0.79	790.4	0back	Block1	0back/STIM_014.jpg	99
639.145	0.708	707.7	0back	Block1	0back/STIM_015.jpg	100
642.774	0.701	701.4	0back	Block1	0back/STIM_015.jpg	99
647.071	0.645	645.0	0back	Block1	0back/STIM_015.jpg	100
651.466	0.434	434.1	0back	Block1	0back/STIM_016.jpg	100
654.358	0.498	498.3	0back	Block1	0back/STIM_016.jpg	99
657.34	0.783	783.1	0back	Block1	0back/STIM_016.jpg	99
661.02	0.691	690.8	0back	Block1	0back/STIM_017.jpg	99
664.923	0.618	618.3	0back	Block1	0back/STIM_017.jpg	99
669.291	0.493	492.8	0back	Block1	0back/STIM_017.jpg	99
672.015	0.795	795.0	0back	Block1	0back/STIM_018.jpg	99
676.406	0.417	416.8	0back	Block1	0back/STIM_018.jpg	99
680.825	0.462	462.0	0back	Block1	0back/STIM_018.jpg	100
684.136	0.694	694.2	0back	Block1	0back/STIM_019.jpg	100
687.036	0.747	747.3	0back	Block1	0back/STIM_019.jpg	100
690.347	0.398	397.9	0back	Block1	0back/STIM_019.jpg	99
693.62	0.673	673.2	2back	Block2	2back/STIM_000.jpg	99
697.543	0.702	702.4	2back	Block2	2back/STIM_000.jpg	100
700.475	0.923	922.6	2back	Block2	2back/STIM_000.jpg	100
705.419	1.025	1025.2	2back	Block2	2back/STIM_001.jpg	99
709.119	0.87	870.5	2back	Block2	2back/STIM_001.jpg	100
712.349	0.97	970.3	2back	Block2	2back/STIM_001.jpg	100
716.898	0.577	577.0	2back	Block2	2back/STIM_002.jpg	99
720.092	0.695	695.0	2back	Block2	2back/STIM_002.jpg	99
724.512	0.464	464.0	2back	Block2	2back/STIM_002.jpg	99
727.26	1.216	1215.6	2back	Block2	2back/STIM_003.jpg	100
732.204	0.447	447.0	2back	Block2	2back/STIM_003.jpg	99
735.699	0.871	871.1	2back	Block2	2back/STIM_003.jpg	100
739.508	0.884	883.5	2back	Block2	2back/STIM_004.jpg	100
743.911	0.568	568.0	2back	Block2	2back/STIM_004.jpg	99
748.148	0.903	902.8	2back	Block2	2back/STIM_004.jpg	99
752.396	0.802	802.3	2back	Block2	2back/STIM_005.jpg	99
756.675	0.459	459.0	2back	Block2	2back/STIM_005.jpg	100
760.557	0.688	687.9	2back	Block2	2back/STIM_005.jpg	99
764.999	1.074	1073.8	2back	Block2	2back/STIM_006.jpg	99
769.543	0.893	893.2	2back	Block2	2back/STIM_006.jpg	100
773.872	0.473	472.8	2back	Block2	2back/STIM_006.jpg	100
777.609	1.078	1078.2	2back	Block2	2back/STIM_007.jpg	99
781.059	0.832	831.5	2back	Block2	2back/STIM_007.jpg	99
785.238	0.612	612.4	2back	Block2	2back/STIM_007.jpg	100
788.933	0.991	991.4	2back	Block2	2back/STIM_008.jpg	99
792.023	0.706	705.5	2back	Block2	2back/STIM_008.jpg	99
796.105	0.893	893.1	2back	Block2	2back/STIM_008.jpg	100
800.034	0.704	703.6	2back	Block2	2back/STIM_009.jpg	99
803.313	0.939	938.7	2back	Block2	2back/STIM_009.jpg	99
807.469	0.648	648.1	2back	Block2	2back/STIM_009.jpg	99
811.365	0.449	449.1	2back	Block2	2back/STIM_010.jpg	100
814.804	0.857	856.6	2back	Block2	2back/STIM_010.jpg	100
818.475	0.895	894.7	2back	Block2	2back/STIM_010.jpg	100
821.845	0.538	538.3	2back	Block2	2back/STIM_011.jpg	99
826.043	0.79	790.0	2back	Block2	2back/STIM_011.jpg	99
830.572	0.839	838.8	2back	Block2	2back/STIM_011.jpg	99
834.851	1.062	1061.8	2back	Block2	2back/STIM_012.jpg	100
838.888	1.143	1143.0	2back	Block2	2back/STIM_012.jpg	99
843.838	0.849	849.3	2back	Block2	2back/STIM_012.jpg	100
847.514	1.194	1193.7	2back	Block2	2back/STIM_013.jpg	100
852.044	0.693	693.4	2back	Block2	2back/STIM_013.jpg	99
856.144	0.706	706.3	2back	Block2	2back/STIM_013.jpg	99
860.438	0.682	682.2	2back	Block2	2back/STIM_014.jpg	100
864.997	0.935	934.7	2back	Block2	2back/STIM_014.jpg	99
869.0	0.928	928.5	2back	Block2	2back/STIM_014.jpg	99
873.133	0.977	977.4	2back	Block2	2back/STIM_015.jpg	100
877.155	1.093	1093.3	2back	Block2	2back/STIM_015.jpg	100
880.86	0.707	706.7	2back	Block2	2back/STIM_015.jpg	100
883.554	0.902	901.7	2back	Block2	2back/STIM_016.jpg	100
887.218	0.85	849.9	2back	Block2	2back/STIM_016.jpg	100
890.756	0.821	820.8	2back	Block2	2back/STIM_016.jpg	99
893.952	1.084	1083.9	2back	Block2	2back/STIM_017.jpg	99
898.129	0.604	604.2	2back	Block2	2back/STIM_017.jpg	100
902.341	0.993	992.8	2back	Block2	2back/STIM_017.jpg	99
905.448	0.862	862.4	2back	Block2	2back/STIM_018.jpg	99
908.323	0.842	841.5	2back	Block2	2back/STIM_018.jpg	100
911.3	0.789	789.3	2back	Block2	2back/STIM_018.jpg	100
916.12	0.88	879.9	2back	Block2	2back/STIM_019.jpg	100
919.7	0.905	905.4	2back	Block2	2back/STIM_019.jpg	99
923.303	0.758	757.5	2back	Block2	2back/STIM_019.jpg	100
927.635	0.761	761.2	2back	Block2	2back/STIM_020.jpg	100
932.34	0.722	721.6	2back	Block2	2back/STIM_020.jpg	100
935.56	0.481	481.0	2back	Block2	2back/STIM_020.jpg	99
939.806	0.624	624.1	2back	Block2	2back/STIM_021.jpg	99
944.3	0.65	650.1	2back	Block2	2back/STIM_021.jpg	99
948.114	0.56	560.1	2back	Block2	2back/STIM_021.jpg	100
952.491	0.601	600.7	2back	Block2	2back/STIM_022.jpg	99
957.057	0.935	934.7	2back	Block2	2back/STIM_022.jpg	100
960.682	0.922	922.3	2back	Block2	2back/STIM_022.jpg	99
964.6	0.876	875.5	2back	Block2	2back/STIM_023.jpg	100
968.041	0.973	972.7	2back	Block2	2back/STIM_023.jpg	99
971.104	0.548	548.3	2back	Block2	2back/STIM_023.jpg	99
975.58	1.1	1100.1	2back	Block2	2back/STIM_024.jpg	100
980.648	0.537	537.1	2back	Block2	2back/STIM_024.jpg	99
983.516	0.982	982.5	2back	Block2	2back/STIM_024.jpg	99
988.523	0.75	750.3	2back	Block2	2back/STIM_025.jpg	99
992.691	0.843	843.3	2back	Block2	2back/STIM_025.jpg	99
996.629	0.549	548.7	2back	Block2	2back/STIM_025.jpg	99
1001.157	0.622	621.5	2back	Block2	2back/STIM_026.jpg	99
1004.93	0.745	744.7	2back	Block2	2back/STIM_026.jpg	99
1008.392	0.768	767.7	2back	Block2	2back/STIM_026.jpg	100
1012.225	0.528	527.6	2back	Block2	2back/STIM_027.jpg	100
1016.188	0.94	940.5	2back	Block2	2back/STIM_027.jpg	99
1020.569	0.749	749.3	2back	Block2	2back/STIM_027.jpg	100
1024.522	1.132	1131.7	2back	Block2	2back/STIM_028.jpg	100
1029.457	0.874	874.5	2back	Block2	2back/STIM_028.jpg	99
1033.773	0.934	934.5	2back	Block2	2back/STIM_028.jpg	100
1037.032	0.665	664.7	2back	Block2	2back/STIM_029.jpg	100
1039.968	0.627	626.9	2back	Block2	2back/STIM_029.jpg	100
1043.593	0.485	484.9	2back	Block2	2back/STIM_029.jpg	99
1047.488	1.02	1019.8	2back	Block2	2back/STIM_030.jpg	99
1050.535	0.636	636.5	2back	Block2	2back/STIM_030.jpg	100
1054.893	0.793	792.7	2back	Block2	2back/STIM_030.jpg	100
1059.461	1.024	1024.1	2back	Block2	2back/STIM_031.jpg	99
1062.767	0.625	624.9	2back	Block2	2back/STIM_031.jpg	100
1065.46	0.574	574.0	2back	Block2	2back/STIM_031.jpg	100
1068.715	0.866	866.0	2back	Block2	2back/STIM_032.jpg	100
1073.073	0.603	602.8	2back	Block2	2back/STIM_032.jpg	100
1076.772	0.907	906.9	2back	Block2	2back/STIM_032.jpg	100
1081.262	0.829	829.3	2back	Block2	2back/STIM_033.jpg	100
1085.915	0.573	573.0	2back	Block2	2back/STIM_033.jpg	100
1088.751	0.915	914.9	2back	Block2	2back/STIM_033.jpg	99
1093.327	1.04	1039.5	2back	Block2	2back/STIM_034.jpg	99
1096.906	0.526	525.5	2back	Block2	2back/STIM_034.jpg	99
1099.486	0.608	608.3	2back	Block2	2back/STIM_034.jpg	99
1103.78	1.148	1148.5	2back	Block2	2back/STIM_035.jpg	99
1107.346	0.987	986.8	2back	Block2	2back/STIM_035.jpg	99
1110.523	0.975	974.9	2back	Block2	2back/STIM_035.jpg	99
1115.073	0.539	538.6	2back	Block2	2back/STIM_036.jpg	100
1117.979	0.864	864.5	2back	Block2	2back/STIM_036.jpg	100
1120.884	0.975	975.3	2back	Block2	2back/STIM_036.jpg	100
1124.502	0.512	512.4	2back	Block2	2back/STIM_037.jpg	100
1128.716	0.612	611.6	2back	Block2	2back/STIM_037.jpg	99
1132.16	0.524	523.6	2back	Block2	2back/STIM_037.jpg	99
1136.225	0.785	784.8	2back	Block2	2back/STIM_038.jpg	99
1139.946	0.472	471.6	2back	Block2	2back/STIM_038.jpg	99
1143.449	0.805	804.7	2back	Block2	2back/STIM_038.jpg	99
1148.266	0.74	740.3	2back	Block2	2back/STIM_039.jpg	100
1151.473	0.798	798.2	2back	Block2	2back/STIM_039.jpg	100
1155.244	0.671	671.1	2back	Block2	2back/STIM_039.jpg	99
1159.304	0.641	641.3	0back	Block2	0back/STIM_000.jpg	100
1162.187	0.685	684.7	0back	Block2	0back/STIM_000.jpg	100
1166.448	0.712	712.5	0back	Block2	0back/STIM_000.jpg	100
1169.648	0.687	687.2	0back	Block2	0back/STIM_001.jpg	100
1172.563	0.57	570.4	0back	Block2	0back/STIM_001.jpg	100
1176.152	0.519	518.8	0back	Block2	0back/STIM_001.jpg	99
1179.633	0.697	696.7	0back	Block2	0back/STIM_002.jpg	100
1182.874	0.522	521.9	0back	Block2	0back/STIM_002.jpg	100
1185.837	0.374	374.3	0back	Block2	0back/STIM_002.jpg	100
1189.896	0.578	578.1	0back	Block2	0back/STIM_003.jpg	100
1193.43	0.821	821.2	0back	Block2	0back/STIM_003.jpg	100
1198.131	0.404	404.1	0back	Block2	0back/STIM_003.jpg	100
1200.895	0.794	794.3	0back	Block2	0back/STIM_004.jpg	100
1204.372	0.467	467.2	0back	Block2	0back/STIM_004.jpg	100
1208.727	0.594	594.1	0back	Block2	0back/STIM_004.jpg	99
1213.022	0.636	635.6	0back	Block2	0back/STIM_005.jpg	100
1215.74	0.602	602.1	0back	Block2	0back/STIM_005.jpg	100
1220.334	0.699	699.3	0back	Block2	0back/STIM_005.jpg	100
1223.933	0.404	404.2	0back	Block2	0back/STIM_006.jpg	99
1227.906	0.626	625.8	0back	Block2	0back/STIM_006.jpg	100
1230.716	0.477	476.7	0back	Block2	0back/STIM_006.jpg	100
1233.797	0.7	700.4	0back	Block2	0back/STIM_007.jpg	100
1238.2	0.799	798.7	0back	Block2	0back/STIM_007.jpg	99
1241.846	0.602	602.5	0back	Block2	0back/STIM_007.jpg	100
1246.199	0.736	736.0	0back	Block2	0back/STIM_008.jpg	99
1249.9	0.488	487.7	0back	Block2	0back/STIM_008.jpg	100
1253.048	0.645	645.4	0back	Block2	0back/STIM_008.jpg	99
1255.73	0.467	467.1	0back	Block2	0back/STIM_009.jpg	99
1258.211	0.399	398.7	0back	Block2	0back/STIM_009.jpg	99
1262.534	0.826	826.0	0back	Block2	0back/STIM_009.jpg	100
1266.948	0.691	690.8	0back	Block2	0back/STIM_010.jpg	99
1271.104	0.646	645.8	0back	Block2	0back/STIM_010.jpg	99
1274.882	0.54	540.2	0back	Block2	0back/STIM_010.jpg	99
1278.835	0.488	488.4	0back	Block2	0back/STIM_011.jpg	99
1282.327	0.805	805.4	0back	Block2	0back/STIM_011.jpg	100
1285.632	0.618	617.7	0back	Block2	0back/STIM_011.jpg	100
1289.639	0.398	397.6	0back	Block2	0back/STIM_012.jpg	99
1293.222	0.619	618.9	0back	Block2	0back/STIM_012.jpg	99
1296.814	0.636	636.2	0back	Block2	0back/STIM_012.jpg	99
1299.779	0.58	580.3	0back	Block2	0back/STIM_013.jpg	100
1302.484	0.49	490.2	0back	Block2	0back/STIM_013.jpg	99
1306.704	0.581	580.9	0back	Block2	0back/STIM_013.jpg	99
1310.938	0.443	442.9	0back	Block2	0back/STIM_014.jpg	100
1315.055	0.842	842.1	0back	Block2	0back/STIM_014.jpg	100
1318.007	0.522	521.5	0back	Block2	0back/STIM_014.jpg	100
1321.377	0.618	617.6	0back	Block2	0back/STIM_015.jpg	100
1325.336	0.408	408.2	0back	Block2	0back/STIM_015.jpg	100
1328.415	0.452	452.4	0back	Block2	0back/STIM_015.jpg	99
1332.7	0.706	705.7	0back	Block2	0back/STIM_016.jpg	100
1335.575	0.732	732.1	0back	Block2	0back/STIM_016.jpg	99
1338.554	0.585	585.2	0back	Block2	0back/STIM_016.jpg	99
1342.704	0.638	637.5	0back	Block2	0back/STIM_017.jpg	99
1346.076	0.571	570.9	0back	Block2	0back/STIM_017.jpg	99
1350.21	0.492	492.3	0back	Block2	0back/STIM_017.jpg	99
1354.279	0.526	525.9	0back	Block2	0back/STIM_018.jpg	99
1358.742	0.586	585.7	0back	Block2	0back/STIM_018.jpg	100
1362.106	0.393	392.9	0back	Block2	0back/STIM_018.jpg	99
1366.18	0.529	529.2	0back	Block2	0back/STIM_019.jpg	100
1369.211	0.62	620.1	0back	Block2	0back/STIM_019.jpg	99
1372.859	0.536	536.2	0back	Block2	0back/STIM_019.jpg	100
1376.625	0.792	791.8	2back	Block3	2back/STIM_000.jpg	99
1380.894	0.786	786.0	2back	Block3	2back/STIM_000.jpg	100
1384.806	0.722	722.0	2back	Block3	2back/STIM_000.jpg	99
1389.181	0.436	436.5	2back	Block3	2back/STIM_001.jpg	99
1392.199	0.68	679.8	2back	Block3	2back/STIM_001.jpg	100
1396.472	0.706	706.0	2back	Block3	2back/STIM_001.jpg	100
1399.48	0.622	621.8	2back	Block3	2back/STIM_002.jpg	100
1403.933	0.402	402.0	2back	Block3	2back/STIM_002.jpg	100
1407.634	0.516	515.9	2back	Block3	2back/STIM_002.jpg	99
1410.662	0.952	951.8	2back	Block3	2back/STIM_003.jpg	100
1414.611	0.749	749.2	2back	Block3	2back/STIM_003.jpg	99
1419.182	0.726	726.1	2back	Block3	2back/STIM_003.jpg	99
1422.067	0.776	776.0	2back	Block3	2back/STIM_004.jpg	100
1425.07	0.702	701.7	2back	Block3	2back/STIM_004.jpg	99
1428.355	0.649	648.9	2back	Block3	2back/STIM_004.jpg	100
1431.277	0.533	532.7	2back	Block3	2back/STIM_005.jpg	99
1435.012	0.6	599.6	2back	Block3	2back/STIM_005.jpg	99
1439.336	0.708	708.4	2back	Block3	2back/STIM_005.jpg	100
1442.98	0.469	468.8	2back	Block3	2back/STIM_006.jpg	99
1447.108	0.879	878.6	2back	Block3	2back/STIM_006.jpg	99
1451.06	0.774	774.1	2back	Block3	2back/STIM_006.jpg	100
1455.118	0.77	770.2	2back	Block3	2back/STIM_007.jpg	100
1458.16	0.53	529.6	2back	Block3	2back/STIM_007.jpg	100
1461.704	0.948	948.0	2back	Block3	2back/STIM_007.jpg	100
1466.608	0.615	615.3	2back	Block3	2back/STIM_008.jpg	99
1470.666	0.869	868.7	2back	Block3	2back/STIM_008.jpg	100
1475.474	0.447	446.6	2back	Block3	2back/STIM_008.jpg	99
1478.465	0.625	624.9	2back	Block3	2back/STIM_009.jpg	99
1482.537	0.656	655.5	2back	Block3	2back/STIM_009.jpg	100
1485.824	0.427	427.2	2back	Block3	2back/STIM_009.jpg	99
1489.606	0.456	455.7	2back	Block3	2back/STIM_010.jpg	99
1492.389	0.378	377.5	2back	Block3	2back/STIM_010.jpg	99
1495.691	0.521	521.2	2back	Block3	2back/STIM_010.jpg	100
1498.725	0.432	432.4	2back	Block3	2back/STIM_011.jpg	99
1502.697	0.494	494.5	2back	Block3	2back/STIM_011.jpg	99
1506.515	0.64	640.4	2back	Block3	2back/STIM_011.jpg	100
1510.491	0.507	507.2	2back	Block3	2back/STIM_012.jpg	100
1514.874	0.864	864.4	2back	Block3	2back/STIM_012.jpg	99
1517.863	0.604	603.8	2back	Block3	2back/STIM_012.jpg	100
1520.525	0.489	489.4	2back	Block3	2back/STIM_013.jpg	100
1524.462	0.816	816.3	2back	Block3	2back/STIM_013.jpg	99
1528.581	0.512	512.1	2back	Block3	2back/STIM_013.jpg	100
1532.477	0.964	963.5	2back	Block3	2back/STIM_014.jpg	100
1535.699	0.64	640.5	2back	Block3	2back/STIM_014.jpg	99
1539.836	0.925	925.4	2back	Block3	2back/STIM_014.jpg	100
1543.262	0.843	843.0	2back	Block3	2back/STIM_015.jpg	99
1546.68	0.94	939.5	2back	Block3	2back/STIM_015.jpg	99
1550.936	0.515	515.0	2back	Block3	2back/STIM_015.jpg	99
1554.174	0.527	526.6	2back	Block3	2back/STIM_016.jpg	99
1558.526	0.91	910.5	2back	Block3	2back/STIM_016.jpg	100
1561.487	0.473	473.4	2back	Block3	2back/STIM_016.jpg	99
1565.041	0.426	426.3	2back	Block3	2back/STIM_017.jpg	100
1569.278	0.638	637.9	2back	Block3	2back/STIM_017.jpg	99
1572.923	0.927	926.7	2back	Block3	2back/STIM_017.jpg	99
1577.246	0.873	873.2	2back	Block3	2back/STIM_018.jpg	100
1581.821	0.533	533.3	2back	Block3	2back/STIM_018.jpg	100
1585.704	0.898	898.0	2back	Block3	2back/STIM_018.jpg	100
1588.839	0.829	829.0	2back	Block3	2back/STIM_019.jpg	100
1593.518	0.613	613.2	2back	Block3	2back/STIM_019.jpg	100
1597.413	0.869	869.2	2back	Block3	2back/STIM_019.jpg	99
1602.357	0.631	630.8	2back	Block3	2back/STIM_020.jpg	100
1606.095	0.555	554.7	2back	Block3	2back/STIM_020.jpg	100
1610.371	0.759	759.3	2back	Block3	2back/STIM_020.jpg	99
1613.362	0.949	949.2	2back	Block3	2back/STIM_021.jpg	99
1617.438	0.973	973.3	2back	Block3	2back/STIM_021.jpg	99
1621.374	0.87	870.1	2back	Block3	2back/STIM_021.jpg	99
1624.477	0.777	776.9	2back	Block3	2back/STIM_022.jpg	100
1629.188	0.732	732.5	2back	Block3	2back/STIM_022.jpg	100
1633.435	0.76	760.1	2back	Block3	2back/STIM_022.jpg	99
1637.399	1.013	1012.6	2back	Block3	2back/STIM_023.jpg	99
1642.188	0.47	470.1	2back	Block3	2back/STIM_023.jpg	99
1646.33	0.496	495.6	2back	Block3	2back/STIM_023.jpg	100
1650.762	0.515	514.9	2back	Block3	2back/STIM_024.jpg	99
1654.55	0.622	621.5	2back	Block3	2back/STIM_024.jpg	99
1657.945	0.622	621.7	2back	Block3	2back/STIM_024.jpg	100
1660.76	1.008	1008.4	2back	Block3	2back/STIM_025.jpg	99
1665.288	0.909	908.9	2back	Block3	2back/STIM_025.jpg	100
1668.338	0.449	449.0	2back	Block3	2back/STIM_025.jpg	100
1670.993	0.811	810.8	2back	Block3	2back/STIM_026.jpg	100
1675.75	0.816	816.3	2back	Block3	2back/STIM_026.jpg	100
1680.376	0.617	617.4	2back	Block3	2back/STIM_026.jpg	100
1684.893	0.72	720.1	2back	Block3	2back/STIM_027.jpg	100
1689.011	0.592	592.0	2back	Block3	2back/STIM_027.jpg	99
1692.833	0.914	913.6	2back	Block3	2back/STIM_027.jpg	100
1696.482	0.436	436.3	2back	Block3	2back/STIM_028.jpg	100
1700.294	0.461	461.4	2back	Block3	2back/STIM_028.jpg	99
1703.241	0.533	533.4	2back	Block3	2back/STIM_028.jpg	100
1706.818	0.962	961.9	2back	Block3	2back/STIM_029.jpg	100
1710.695	0.507	507.4	2back	Block3	2back/STIM_029.jpg	99
1715.191	0.582	582.2	2back	Block3	2back/STIM_029.jpg	99
1719.153	0.646	646.4	2back	Block3	2back/STIM_030.jpg	99
1722.463	0.598	598.5	2back	Block3	2back/STIM_030.jpg	100
1725.433	0.631	631.0	2back	Block3	2back/STIM_030.jpg	99
1728.371	0.873	873.3	2back	Block3	2back/STIM_031.jpg	99
1732.38	0.609	608.7	2back	Block3	2back/STIM_031.jpg	99
1735.265	0.833	833.4	2back	Block3	2back/STIM_031.jpg	99
1738.095	0.785	785.4	2back	Block3	2back/STIM_032.jpg	99
1741.225	0.793	792.8	2back	Block3	2back/STIM_032.jpg	100
1745.287	0.921	921.1	2back	Block3	2back/STIM_032.jpg	99
1748.518	0.765	765.0	2back	Block3	2back/STIM_033.jpg	100
1752.477	0.88	880.1	2back	Block3	2back/STIM_033.jpg	100
1756.335	0.599	599.0	2back	Block3	2back/STIM_033.jpg	100
1759.857	0.902	902.0	2back	Block3	2back/STIM_034.jpg	100
1763.048	0.913	913.2	2back	Block3	2back/STIM_034.jpg	100
1767.731	0.87	870.1	2back	Block3	2back/STIM_034.jpg	100
1772.513	0.573	572.6	2back	Block3	2back/STIM_035.jpg	99
1775.743	0.469	468.9	2back	Block3	2back/STIM_035.jpg	100
1779.215	0.64	640.5	2back	Block3	2back/STIM_035.jpg	100
1783.821	0.856	856.1	2back	Block3	2back/STIM_036.jpg	100
1788.654	0.912	911.8	2back	Block3	2back/STIM_036.jpg	99
1793.157	0.652	651.9	2back	Block3	2back/STIM_036.jpg	100
1797.611	0.571	571.4	2back	Block3	2back/STIM_037.jpg	99
1801.608	0.847	847.1	2back	Block3	2back/STIM_037.jpg	100
1804.718	1.018	1018.2	2back	Block3	2back/STIM_037.jpg	99
1808.404	0.828	828.3	2back	Block3	2back/STIM_038.jpg	100
1812.961	0.989	989.4	2back	Block3	2back/STIM_038.jpg	99
1817.113	0.902	902.3	2back	Block3	2back/STIM_038.jpg	99
1821.907	0.608	608.2	2back	Block3	2back/STIM_039.jpg	99
1825.214	0.978	977.7	2back	Block3	2back/STIM_039.jpg	100
1828.333	0.788	787.7	2back	Block3	2back/STIM_039.jpg	100
1831.472	0.627	626.8	0back	Block3	0back/STIM_000.jpg	100
1834.702	0.858	857.7	0back	Block3	0back/STIM_000.jpg	99
1838.883	0.486	486.2	0back	Block3	0back/STIM_000.jpg	100
1841.846	0.722	722.2	0back	Block3	0back/STIM_001.jpg	99
1845.24	0.726	726.1	0back	Block3	0back/STIM_001.jpg	100
1849.537	0.553	552.6	0back	Block3	0back/STIM_001.jpg	99
1853.218	0.675	674.7	0back	Block3	0back/STIM_002.jpg	100
1856.696	0.614	613.7	0back	Block3	0back/STIM_002.jpg	99
1860.051	0.531	530.8	0back	Block3	0back/STIM_002.jpg	100
1863.045	0.625	625.3	0back	Block3	0back/STIM_003.jpg	100
1866.996	0.404	403.6	0back	Block3	0back/STIM_003.jpg	100
1871.089	0.68	679.5	0back	Block3	0back/STIM_003.jpg	99
1874.904	0.73	729.5	0back	Block3	0back/STIM_004.jpg	100
1879.511	0.62	620.5	0back	Block3	0back/STIM_004.jpg	100
1882.263	0.709	709.4	0back	Block3	0back/STIM_004.jpg	100
1886.554	0.735	735.1	0back	Block3	0back/STIM_005.jpg	100
1889.516	0.377	376.8	0back	Block3	0back/STIM_005.jpg	100
1892.511	0.699	698.8	0back	Block3	0back/STIM_005.jpg	100
1895.673	0.611	611.1	0back	Block3	0back/STIM_006.jpg	99
1899.019	0.75	750.2	0back	Block3	0back/STIM_006.jpg	99
1901.982	0.349	348.9	0back	Block3	0back/STIM_006.jpg	99
1904.995	0.722	722.0	0back	Block3	0back/STIM_007.jpg	99
1908.979	0.773	773.2	0back	Block3	0back/STIM_007.jpg	99
1912.318	0.496	496.5	0back	Block3	0back/STIM_007.jpg	99
1916.579	0.455	455.0	0back	Block3	0back/STIM_008.jpg	100
1919.284	0.395	395.4	0back	Block3	0back/STIM_008.jpg	100
1922.095	0.683	682.9	0back	Block3	0back/STIM_008.jpg	99
1925.201	0.73	729.6	0back	Block3	0back/STIM_009.jpg	99
1929.504	0.654	653.8	0back	Block3	0back/STIM_009.jpg	100
1933.417	0.664	663.7	0back	Block3	0back/STIM_009.jpg	100
1937.59	0.742	741.8	0back	Block3	0back/STIM_010.jpg	99
1941.855	0.652	652.1	0back	Block3	0back/STIM_010.jpg	99
1945.112	0.69	689.8	0back	Block3	0back/STIM_010.jpg	100
1949.756	0.623	623.0	0back	Block3	0back/STIM_011.jpg	100
1952.467	0.585	585.0	0back	Block3	0back/STIM_011.jpg	100
1956.38	0.595	594.9	0back	Block3	0back/STIM_011.jpg	100
1960.211	0.571	570.6	0back	Block3	0back/STIM_012.jpg	99
1962.947	0.705	705.3	0back	Block3	0back/STIM_012.jpg	99
1966.675	0.572	571.9	0back	Block3	0back/STIM_012.jpg	99
1969.467	0.55	549.6	0back	Block3	0back/STIM_013.jpg	100
1972.141	0.445	444.6	0back	Block3	0back/STIM_013.jpg	99
1975.464	0.344	343.5	0back	Block3	0back/STIM_013.jpg	100
1979.674	0.443	442.9	0back	Block3	0back/STIM_014.jpg	100
1983.632	0.456	455.8	0back	Block3	0back/STIM_014.jpg	100
1987.115	0.795	795.2	0back	Block3	0back/STIM_014.jpg	99
1990.736	0.759	759.1	0back	Block3	0back/STIM_015.jpg	100
1993.996	0.409	409.1	0back	Block3	0back/STIM_015.jpg	100
1997.678	0.662	662.0	0back	Block3	0back/STIM_015.jpg	99
2001.813	0.6	599.5	0back	Block3	0back/STIM_016.jpg	100
2005.167	0.529	529.3	0back	Block3	0back/STIM_016.jpg	99
2009.344	0.566	565.9	0back	Block3	0back/STIM_016.jpg	100
2012.187	0.645	645.4	0back	Block3	0back/STIM_017.jpg	100
2014.767	0.72	719.8	0back	Block3	0back/STIM_017.jpg	99
2019.321	0.774	773.5	0back	Block3	0back/STIM_017.jpg	100
2023.461	0.518	518.3	0back	Block3	0back/STIM_018.jpg	99
2027.543	0.568	567.8	0back	Block3	0back/STIM_018.jpg	100
2031.882	0.382	382.3	0back	Block3	0back/STIM_018.jpg	99
2034.96	0.672	671.9	0back	Block3	0back/STIM_019.jpg	100
2039.478	0.538	537.5	0back	Block3	0back/STIM_019.jpg	100
2043.738	0.841	841.4	0back	Block3	0back/STIM_019.jpg	100
2046.795	0.593	593.0	2back	Block4	2back/STIM_000.jpg	100
2049.841	0.615	614.7	2back	Block4	2back/STIM_000.jpg	99
2054.105	0.953	952.9	2back	Block4	2back/STIM_000.jpg	100
2057.045	0.555	554.9	2back	Block4	2back/STIM_001.jpg	99
2060.67	0.975	974.9	2back	Block4	2back/STIM_001.jpg	99
2064.913	0.868	868.0	2back	Block4	2back/STIM_001.jpg	99
2069.228	0.851	850.8	2back	Block4	2back/STIM_002.jpg	99
2073.929	0.97	970.3	2back	Block4	2back/STIM_002.jpg	99
2078.513	0.628	627.5	2back	Block4	2back/STIM_002.jpg	100
2081.279	0.636	636.4	2back	Block4	2back/STIM_003.jpg	99
2085.841	0.625	625.4	2back	Block4	2back/STIM_003.jpg	100
2089.634	0.975	974.6	2back	Block4	2back/STIM_003.jpg	100
2093.025	0.69	690.5	2back	Block4	2back/STIM_004.jpg	99
2096.896	0.759	758.9	2back	Block4	2back/STIM_004.jpg	100
2099.917	0.644	644.3	2back	Block4	2back/STIM_004.jpg	99
2103.104	0.544	544.3	2back	Block4	2back/STIM_005.jpg	99
2105.985	0.934	934.2	2back	Block4	2back/STIM_005.jpg	100
2109.893	0.621	620.8	2back	Block4	2back/STIM_005.jpg	99
2113.945	0.59	589.6	2back	Block4	2back/STIM_006.jpg	99
2117.298	0.594	594.1	2back	Block4	2back/STIM_006.jpg	100
2121.07	0.892	892.0	2back	Block4	2back/STIM_006.jpg	99
2125.255	0.792	791.9	2back	Block4	2back/STIM_007.jpg	99
2129.553	0.786	785.6	2back	Block4	2back/STIM_007.jpg	100
2132.903	0.644	643.7	2back	Block4	2back/STIM_007.jpg	99
2135.609	0.524	524.0	2back	Block4	2back/STIM_008.jpg	100
2140.039	0.466	465.9	2back	Block4	2back/STIM_008.jpg	100
2143.752	0.636	636.0	2back	Block4	2back/STIM_008.jpg	100
2147.267	0.499	499.2	2back	Block4	2back/STIM_009.jpg	100
2151.554	0.557	557.4	2back	Block4	2back/STIM_009.jpg	99
2154.273	0.751	751.2	2back	Block4	2back/STIM_009.jpg	100
2157.518	0.951	951.4	2back	Block4	2back/STIM_010.jpg	99
2160.892	0.783	782.8	2back	Block4	2back/STIM_010.jpg	100
2164.448	0.817	816.9	2back	Block4	2back/STIM_010.jpg	99
2169.052	0.959	958.9	2back	Block4	2back/STIM_011.jpg	100
2173.044	0.471	471.0	2back	Block4	2back/STIM_011.jpg	99
2176.964	0.741	741.0	2back	Block4	2back/STIM_011.jpg	100
2180.522	0.705	705.2	2back	Block4	2back/STIM_012.jpg	100
2183.401	0.65	650.1	2back	Block4	2back/STIM_012.jpg	99
2187.677	0.516	516.5	2back	Block4	2back/STIM_012.jpg	99
2191.701	0.537	536.8	2back	Block4	2back/STIM_013.jpg	99
2195.075	0.795	794.9	2back	Block4	2back/STIM_013.jpg	100
2198.653	0.811	810.8	2back	Block4	2back/STIM_013.jpg	100
2202.886	0.602	601.5	2back	Block4	2back/STIM_014.jpg	99
2205.775	0.396	396.1	2back	Block4	2back/STIM_014.jpg	100
2208.408	0.531	530.7	2back	Block4	2back/STIM_014.jpg	100
2210.992	0.544	543.6	2back	Block4	2back/STIM_015.jpg	100
2215.406	0.727	726.6	2back	Block4	2back/STIM_015.jpg	100
2219.183	0.678	678.5	2back	Block4	2back/STIM_015.jpg	99
2222.604	0.583	583.0	2back	Block4	2back/STIM_016.jpg	100
2226.831	0.73	730.3	2back	Block4	2back/STIM_016.jpg	99
2229.951	0.577	577.4	2back	Block4	2back/STIM_016.jpg	100
2233.637	0.666	665.8	2back	Block4	2back/STIM_017.jpg	100
2237.118	0.813	812.7	2back	Block4	2back/STIM_017.jpg	100
2241.058	0.798	797.8	2back	Block4	2back/STIM_017.jpg	99
2245.096	0.658	657.7	2back	Block4	2back/STIM_018.jpg	100
2248.224	0.823	823.1	2back	Block4	2back/STIM_018.jpg	99
2252.786	0.782	782.5	2back	Block4	2back/STIM_018.jpg	99
2257.573	0.627	626.6	2back	Block4	2back/STIM_019.jpg	99
2262.129	0.6	600.5	2back	Block4	2back/STIM_019.jpg	99
2265.493	0.526	525.7	2back	Block4	2back/STIM_019.jpg	100
2268.875	0.594	594.2	2back	Block4	2back/STIM_020.jpg	99
2272.718	0.628	628.5	2back	Block4	2back/STIM_020.jpg	99
2276.725	0.876	876.1	2back	Block4	2back/STIM_020.jpg	99
2280.182	0.589	589.3	2back	Block4	2back/STIM_021.jpg	100
2283.767	0.718	718.5	2back	Block4	2back/STIM_021.jpg	100
2288.194	0.765	765.4	2back	Block4	2back/STIM_021.jpg	100
2292.408	0.889	889.1	2back	Block4	2back/STIM_022.jpg	100
2295.399	0.662	661.6	2back	Block4	2back/STIM_022.jpg	99
2298.269	0.58	580.5	2back	Block4	2back/STIM_022.jpg	99
2302.598	0.935	935.0	2back	Block4	2back/STIM_023.jpg	100
2307.335	0.84	839.7	2back	Block4	2back/STIM_023.jpg	99
2311.909	0.754	753.5	2back	Block4	2back/STIM_023.jpg	99
2315.965	0.539	539.1	2back	Block4	2back/STIM_024.jpg	100
2319.362	0.775	775.0	2back	Block4	2back/STIM_024.jpg	100
2323.868	0.634	634.5	2back	Block4	2back/STIM_024.jpg	100
2327.909	0.666	665.6	2back	Block4	2back/STIM_025.jpg	99
2330.687	0.599	599.4	2back	Block4	2back/STIM_025.jpg	100
2333.842	0.516	516.1	2back	Block4	2back/STIM_025.jpg	99
2337.775	0.749	748.9	2back	Block4	2back/STIM_026.jpg	99
2342.163	0.991	991.1	2back	Block4	2back/STIM_026.jpg	100
2346.387	0.699	698.8	2back	Block4	2back/STIM_026.jpg	99
2350.862	0.996	996.0	2back	Block4	2back/STIM_027.jpg	100
2355.009	0.65	649.8	2back	Block4	2back/STIM_027.jpg	100
2358.893	0.586	585.7	2back	Block4	2back/STIM_027.jpg	100
2361.946	0.643	642.6	2back	Block4	2back/STIM_028.jpg	100
2365.315	0.509	509.1	2back	Block4	2back/STIM_028.jpg	100
2368.011	0.838	838.2	2back	Block4	2back/STIM_028.jpg	100
2372.428	0.712	712.0	2back	Block4	2back/STIM_029.jpg	100
2376.383	0.893	892.9	2back	Block4	2back/STIM_029.jpg	100
2380.61	0.842	842.2	2back	Block4	2back/STIM_029.jpg	99
2384.472	0.399	399.1	2back	Block4	2back/STIM_030.jpg	99
2388.886	0.673	673.1	2back	Block4	2back/STIM_030.jpg	99
2393.059	0.644	644.0	2back	Block4	2back/STIM_030.jpg	99
2397.346	0.876	875.9	2back	Block4	2back/STIM_031.jpg	100
2400.672	0.699	699.4	2back	Block4	2back/STIM_031.jpg	99
2404.785	0.845	845.4	2back	Block4	2back/STIM_031.jpg	100
2408.309	0.635	634.8	2back	Block4	2back/STIM_032.jpg	100
2412.669	0.512	511.6	2back	Block4	2back/STIM_032.jpg	100
2415.825	0.883	883.0	2back	Block4	2back/STIM_032.jpg	100
2420.022	0.712	712.0	2back	Block4	2back/STIM_033.jpg	99
2423.407	0.961	960.6	2back	Block4	2back/STIM_033.jpg	100
2427.752	0.559	559.1	2back	Block4	2back/STIM_033.jpg	100
2431.396	0.588	588.1	2back	Block4	2back/STIM_034.jpg	99
2435.619	0.771	771.3	2back	Block4	2back/STIM_034.jpg	100
2439.685	0.546	545.9	2back	Block4	2back/STIM_034.jpg	99
2442.427	0.865	864.9	2back	Block4	2back/STIM_035.jpg	99
2446.55	0.962	962.4	2back	Block4	2back/STIM_035.jpg	99
2450.919	0.608	607.5	2back	Block4	2back/STIM_035.jpg	99
2454.681	0.375	375.0	2back	Block4	2back/STIM_036.jpg	100
2459.1	0.535	534.7	2back	Block4	2back/STIM_036.jpg	100
2463.504	0.585	585.3	2back	Block4	2back/STIM_036.jpg	100
2466.272	0.774	773.9	2back	Block4	2back/STIM_037.jpg	100
2469.77	0.676	675.9	2back	Block4	2back/STIM_037.jpg	100
2474.394	0.828	828.1	2back	Block4	2back/STIM_037.jpg	99
2478.221	0.898	897.6	2back	Block4	2back/STIM_038.jpg	99
2482.607	0.87	870.2	2back	Block4	2back/STIM_038.jpg	99
2485.649	0.757	757.2	2back	Block4	2back/STIM_038.jpg	99
2490.188	0.746	745.6	2back	Block4	2back/STIM_039.jpg	100
2493.587	0.63	629.6	2back	Block4	2back/STIM_039.jpg	100
2496.205	0.744	744.4	2back	Block4	2back/STIM_039.jpg	99
2500.828	0.805	804.7	0back	Block4	0back/STIM_000.jpg	99
2504.292	0.432	432.3	0back	Block4	0back/STIM_000.jpg	99
2507.019	0.341	340.6	0back	Block4	0back/STIM_000.jpg	99
2509.774	0.435	434.9	0back	Block4	0back/STIM_001.jpg	100
2513.192	0.488	487.6	0back	Block4	0back/STIM_001.jpg	99
2517.487	0.47	470.0	0back	Block4	0back/STIM_001.jpg	100
2520.983	0.702	702.3	0back	Block4	0back/STIM_002.jpg	99
2525.385	0.615	614.6	0back	Block4	0back/STIM_002.jpg	99
2528.284	0.514	514.4	0back	Block4	0back/STIM_002.jpg	100
2532.726	0.576	575.8	0back	Block4	0back/STIM_003.jpg	99
2536.226	0.772	772.0	0back	Block4	0back/STIM_003.jpg	99
2540.88	0.679	678.6	0back	Block4	0back/STIM_003.jpg	99
2545.498	0.747	747.1	0back	Block4	0back/STIM_004.jpg	99
2548.803	0.564	563.5	0back	Block4	0back/STIM_004.jpg	99
2551.511	0.744	743.9	0back	Block4	0back/STIM_004.jpg	99
2554.699	0.56	559.7	0back	Block4	0back/STIM_005.jpg	100
2557.626	0.462	461.7	0back	Block4	0back/STIM_005.jpg	100
2560.771	0.46	459.5	0back	Block4	0back/STIM_005.jpg	99
2563.554	0.604	603.8	0back	Block4	0back/STIM_006.jpg	99
2566.721	0.734	734.1	0back	Block4	0back/STIM_006.jpg	100
2570.279	0.77	769.7	0back	Block4	0back/STIM_006.jpg	99
2573.191	0.554	553.6	0back	Block4	0back/STIM_007.jpg	99
2576.909	0.684	684.2	0back	Block4	0back/STIM_007.jpg	99
2580.121	0.765	765.3	0back	Block4	0back/STIM_007.jpg	100
2582.86	0.548	548.5	0back	Block4	0back/STIM_008.jpg	99
2586.25	0.555	555.2	0back	Block4	0back/STIM_008.jpg	99
2590.26	0.603	602.7	0back	Block4	0back/STIM_008.jpg	99
2593.637	0.509	508.8	0back	Block4	0back/STIM_009.jpg	100
2597.816	0.774	774.5	0back	Block4	0back/STIM_009.jpg	99
2601.833	0.526	526.3	0back	Block4	0back/STIM_009.jpg	99
2605.709	0.56	559.5	0back	Block4	0back/STIM_010.jpg	100
2608.396	0.693	693.1	0back	Block4	0back/STIM_010.jpg	100
2612.535	0.818	817.7	0back	Block4	0back/STIM_010.jpg	99
2615.419	0.539	538.9	0back	Block4	0back/STIM_011.jpg	99
2619.595	0.592	591.8	0back	Block4	0back/STIM_011.jpg	99
2623.722	0.75	750.4	0back	Block4	0back/STIM_011.jpg	99
2626.882	0.646	646.3	0back	Block4	0back/STIM_012.jpg	99
2629.636	0.614	613.8	0back	Block4	0back/STIM_012.jpg	100
2632.965	0.499	498.8	0back	Block4	0back/STIM_012.jpg	100
2636.401	0.573	572.7	0back	Block4	0back/STIM_013.jpg	100
2639.858	0.761	760.6	0back	Block4	0back/STIM_013.jpg	99
2642.836	0.622	622.3	0back	Block4	0back/STIM_013.jpg	99
2646.478	0.764	764.2	0back	Block4	0back/STIM_014.jpg	100
2649.652	0.783	782.8	0back	Block4	0back/STIM_014.jpg	100
2654.156	0.774	774.2	0back	Block4	0back/STIM_014.jpg	99
2658.846	0.44	439.5	0back	Block4	0back/STIM_015.jpg	99
2662.761	0.805	804.7	0back	Block4	0back/STIM_015.jpg	100
2665.545	0.373	373.4	0back	Block4	0back/STIM_015.jpg	100
2669.117	0.465	464.9	0back	Block4	0back/STIM_016.jpg	99
2673.47	0.768	767.5	0back	Block4	0back/STIM_016.jpg	100
2676.948	0.577	577.3	0back	Block4	0back/STIM_016.jpg	99
2681.208	0.499	499.0	0back	Block4	0back/STIM_017.jpg	100
2684.36	0.859	859.4	0back	Block4	0back/STIM_017.jpg	99
2687.41	0.542	541.6	0back	Block4	0back/STIM_017.jpg	99
2690.381	0.552	552.1	0back	Block4	0back/STIM_018.jpg	100
2692.973	0.74	740.2	0back	Block4	0back/STIM_018.jpg	99
2697.473	0.577	577.0	0back	Block4	0back/STIM_018.jpg	100
2700.237	0.674	674.0	0back	Block4	0back/STIM_019.jpg	100
2703.77	0.611	610.8	0back	Block4	0back/STIM_019.jpg	99
2706.518	0.652	651.9	0back	Block4	0back/STIM_019.jpg	99
