onset	duration	response_time_ms	trial_type	learning_stage	stimulus	response_port
0.0	0.876	876.4	2back	Block1	2back/STIM_000.jpg	99
3.723	0.789	788.7	2back	Block1	2back/STIM_000.jpg	99
6.78	1.022	1022.1	2back	Block1	2back/STIM_000.jpg	99
11.261	1.422	1422.2	2back	Block1	2back/STIM_001.jpg	100
15.521	1.054	1054.4	2back	Block1	2back/STIM_001.jpg	100
19.662	0.954	954.5	2back	Block1	2back/STIM_001.jpg	99
23.217	0.981	981.3	2back	Block1	2back/STIM_002.jpg	100
26.685	0.742	741.7	2back	Block1	2back/STIM_002.jpg	100
30.306	1.102	1102.0	2back	Block1	2back/STIM_002.jpg	100
34.449	0.707	706.8	2back	Block1	2back/STIM_003.jpg	99
38.992	0.884	884.5	2back	Block1	2back/STIM_003.jpg	99
42.581	1.063	1063.1	2back	Block1	2back/STIM_003.jpg	100
45.875	0.958	957.7	2back	Block1	2back/STIM_004.jpg	100
49.909	1.298	1298.3	2back	Block1	2back/STIM_004.jpg	100
53.248	1.162	1162.3	2back	Block1	2back/STIM_004.jpg	99
57.632	1.439	1438.9	2back	Block1	2back/STIM_005.jpg	99
61.923	1.454	1454.0	2back	Block1	2back/STIM_005.jpg	99
66.582	0.902	902.5	2back	Block1	2back/STIM_005.jpg	99
70.618	0.782	782.0	2back	Block1	2back/STIM_006.jpg	100
75.001	1.089	1089.0	2back	Block1	2back/STIM_006.jpg	99
78.847	1.321	1321.4	2back	Block1	2back/STIM_006.jpg	100
82.886	1.47	1470.4	2back	Block1	2back/STIM_007.jpg	99
86.788	0.735	735.0	2back	Block1	2back/STIM_007.jpg	100
89.652	0.736	736.2	2back	Block1	2back/STIM_007.jpg	99
93.785	1.337	1337.2	2back	Block1	2back/STIM_008.jpg	100
97.193	0.889	888.8	2back	Block1	2back/STIM_008.jpg	99
100.855	1.128	1128.4	2back	Block1	2back/STIM_008.jpg	99
104.196	1.391	1391.0	2back	Block1	2back/STIM_009.jpg	100
108.911	0.845	845.1	2back	Block1	2back/STIM_009.jpg	99
113.321	1.108	1107.8	2back	Block1	2back/STIM_009.jpg	100
118.314	1.131	1131.2	2back	Block1	2back/STIM_010.jpg	100
121.601	1.176	1176.2	2back	Block1	2back/STIM_010.jpg	100
126.179	0.799	799.0	2back	Block1	2back/STIM_010.jpg	99
130.252	0.99	989.7	2back	Block1	2back/STIM_011.jpg	100
133.968	0.905	904.7	2back	Block1	2back/STIM_011.jpg	99
136.997	0.978	978.1	2back	Block1	2back/STIM_011.jpg	99
141.34	1.536	1535.9	2back	Block1	2back/STIM_012.jpg	100
146.444	1.314	1314.0	2back	Block1	2back/STIM_012.jpg	99
150.509	0.682	681.9	2back	Block1	2back/STIM_012.jpg	100
153.809	1.376	1375.5	2back	Block1	2back/STIM_013.jpg	100
157.325	1.114	1113.7	2back	Block1	2back/STIM_013.jpg	100
161.683	0.955	954.6	2back	Block1	2back/STIM_013.jpg	100
165.543	0.809	809.1	2back	Block1	2back/STIM_014.jpg	100
168.457	1.439	1438.7	2back	Block1	2back/STIM_014.jpg	99
172.046	0.873	873.3	2back	Block1	2back/STIM_014.jpg	100
176.482	1.287	1286.7	2back	Block1	2back/STIM_015.jpg	100
180.123	1.46	1459.8	2back	Block1	2back/STIM_015.jpg	100
185.476	1.27	1269.7	2back	Block1	2back/STIM_015.jpg	99
189.776	1.134	1134.2	2back	Block1	2back/STIM_016.jpg	99
193.767	0.674	674.3	2back	Block1	2back/STIM_016.jpg	99
196.675	1.152	1152.0	2back	Block1	2back/STIM_016.jpg	99
200.126	0.914	914.2	2back	Block1	2back/STIM_017.jpg	100
204.116	1.313	1313.0	2back	Block1	2back/STIM_017.jpg	100
208.1	1.186	1185.8	2back	Block1	2back/STIM_017.jpg	100
212.989	1.199	1199.0	2back	Block1	2back/STIM_018.jpg	100
216.473	0.726	725.9	2back	Block1	2back/STIM_018.jpg	100
219.273	1.169	1168.6	2back	Block1	2back/STIM_018.jpg	99
222.465	0.724	724.3	2back	Block1	2back/STIM_019.jpg	100
226.679	0.717	717.0	2back	Block1	2back/STIM_019.jpg	100
230.889	0.869	869.1	2back	Block1	2back/STIM_019.jpg	99
235.304	0.768	767.9	2back	Block1	2back/STIM_020.jpg	99
238.692	1.094	1094.0	2back	Block1	2back/STIM_020.jpg	99
243.521	1.24	1239.9	2back	Block1	2back/STIM_020.jpg	99
247.446	0.966	966.1	2back	Block1	2back/STIM_021.jpg	99
252.405	0.91	909.6	2back	Block1	2back/STIM_021.jpg	99
256.811	0.718	718.1	2back	Block1	2back/STIM_021.jpg	100
260.835	0.678	677.5	2back	Block1	2back/STIM_022.jpg	99
264.212	1.442	1441.7	2back	Block1	2back/STIM_022.jpg	99
268.15	1.048	1047.7	2back	Block1	2back/STIM_022.jpg	99
271.3	1.107	1106.9	2back	Block1	2back/STIM_023.jpg	99
276.321	1.433	1433.4	2back	Block1	2back/STIM_023.jpg	100
280.223	0.788	787.6	2back	Block1	2back/STIM_023.jpg	100
283.813	0.986	985.9	2back	Block1	2back/STIM_024.jpg	99
287.19	1.282	1282.1	2back	Block1	2back/STIM_024.jpg	99
291.561	0.777	776.6	2back	Block1	2back/STIM_024.jpg	99
295.81	0.927	927.4	2back	Block1	2back/STIM_025.jpg	99
300.293	0.79	789.7	2back	Block1	2back/STIM_025.jpg	100
305.031	0.917	916.8	2back	Block1	2back/STIM_025.jpg	100
308.087	0.78	780.4	2back	Block1	2back/STIM_026.jpg	99
312.536	0.8	799.9	2back	Block1	2back/STIM_026.jpg	100
315.404	0.827	827.3	2back	Block1	2back/STIM_026.jpg	100
318.911	1.018	1017.6	2back	Block1	2back/STIM_027.jpg	99
321.945	1.364	1363.7	2back	Block1	2back/STIM_027.jpg	99
325.942	1.342	1341.5	2back	Block1	2back/STIM_027.jpg	99
330.047	1.256	1255.5	2back	Block1	2back/STIM_028.jpg	99
334.613	0.665	664.7	2back	Block1	2back/STIM_028.jpg	100
338.867	1.38	1380.5	2back	Block1	2back/STIM_028.jpg	99
343.355	1.107	1107.0	2back	Block1	2back/STIM_029.jpg	99
348.12	1.119	1119.3	2back	Block1	2back/STIM_029.jpg	99
352.016	1.231	1231.4	2back	Block1	2back/STIM_029.jpg	99
356.871	1.414	1414.4	2back	Block1	2back/STIM_030.jpg	100
360.372	0.861	860.7	2back	Block1	2back/STIM_030.jpg	99
363.952	0.81	810.2	2back	Block1	2back/STIM_030.jpg	100
367.673	1.29	1289.9	2back	Block1	2back/STIM_031.jpg	99
372.358	1.334	1334.4	2back	Block1	2back/STIM_031.jpg	100
376.825	1.003	1003.1	2back	Block1	2back/STIM_031.jpg	99
380.136	0.734	734.2	2back	Block1	2back/STIM_032.jpg	99
384.054	1.101	1100.9	2back	Block1	2back/STIM_032.jpg	99
388.177	1.332	1331.6	2back	Block1	2back/STIM_032.jpg	99
393.313	1.396	1395.6	2back	Block1	2back/STIM_033.jpg	100
398.666	0.738	737.8	2back	Block1	2back/STIM_033.jpg	100
402.224	1.083	1082.9	2back	Block1	2back/STIM_033.jpg	99
406.432	0.969	969.2	2back	Block1	2back/STIM_034.jpg	99
409.717	1.262	1262.1	2back	Block1	2back/STIM_034.jpg	100
414.191	0.952	952.2	2back	Block1	2back/STIM_034.jpg	100
419.005	1.493	1492.7	2back	Block1	2back/STIM_035.jpg	100
423.285	1.148	1148.5	2back	Block1	2back/STIM_035.jpg	100
428.092	0.682	682.1	2back	Block1	2back/STIM_035.jpg	99
432.464	1.316	1315.6	2back	Block1	2back/STIM_036.jpg	100
437.001	1.19	1189.6	2back	Block1	2back/STIM_036.jpg	99
441.521	0.996	996.4	2back	Block1	2back/STIM_036.jpg	99
446.316	1.326	1325.6	2back	Block1	2back/STIM_037.jpg	99
449.734	1.157	1157.4	2back	Block1	2back/STIM_037.jpg	99
453.175	0.612	611.6	2back	Block1	2back/STIM_037.jpg	100
456.53	1.52	1520.1	2back	Block1	2back/STIM_038.jpg	100
461.888	0.871	870.7	2back	Block1	2back/STIM_038.jpg	99
466.28	1.176	1176.4	2back	Block1	2back/STIM_038.jpg	100
471.29	0.885	885.3	2back	Block1	2back/STIM_039.jpg	99
475.139	0.804	803.6	2back	Block1	2back/STIM_039.jpg	100
478.828	0.867	867.1	2back	Block1	2back/STIM_039.jpg	99
482.137	0.687	686.6	0back	Block1	0back/STIM_000.jpg	100
485.745	0.489	489.2	0back	Block1	0back/STIM_000.jpg	100
489.435	0.454	453.8	0back	Block1	0back/STIM_000.jpg	99
493.835	0.579	579.3	0back	Block1	0back/STIM_001.jpg	100
497.046	0.82	819.9	0back	Block1	0back/STIM_001.jpg	99
500.25	0.547	547.0	0back	Block1	0back/STIM_001.jpg	100
504.314	0.842	842.4	0back	Block1	0back/STIM_002.jpg	100
507.493	0.477	477.3	0back	Block1	0back/STIM_002.jpg	100
510.996	0.481	480.7	0back	Block1	0back/STIM_002.jpg	100
514.626	0.664	663.8	0back	Block1	0back/STIM_003.jpg	100
517.91	0.71	709.8	0back	Block1	0back/STIM_003.jpg	99
520.965	0.884	883.7	0back	Block1	0back/STIM_003.jpg	99
523.875	0.687	687.4	0back	Block1	0back/STIM_004.jpg	99
528.169	0.799	798.7	0back	Block1	0back/STIM_004.jpg	100
531.069	0.769	768.8	0back	Block1	0back/STIM_004.jpg	99
535.482	0.684	684.1	0back	Block1	0back/STIM_005.jpg	100
538.838	0.813	812.9	0back	Block1	0back/STIM_005.jpg	100
542.41	0.7	699.5	0back	Block1	0back/STIM_005.jpg	99
545.93	0.876	875.6	0back	Block1	0back/STIM_006.jpg	100
549.554	0.86	859.7	0back	Block1	0back/STIM_006.jpg	100
552.86	0.544	544.2	0back	Block1	0back/STIM_006.jpg	99
556.475	0.797	797.2	0back	Block1	0back/STIM_007.jpg	100
561.133	0.558	558.2	0back	Block1	0back/STIM_007.jpg	100
565.284	0.583	582.8	0back	Block1	0back/STIM_007.jpg	99
569.297	0.875	874.9	0back	Block1	0back/STIM_008.jpg	100
572.287	0.845	845.3	0back	Block1	0back/STIM_008.jpg	99
575.723	0.514	514.2	0back	Block1	0back/STIM_008.jpg	100
579.327	0.674	673.5	0back	Block1	0back/STIM_009.jpg	99
583.765	0.728	727.7	0back	Block1	0back/STIM_009.jpg	99
586.761	0.502	502.0	0back	Block1	0back/STIM_009.jpg	100
589.615	0.854	853.9	0back	Block1	0back/STIM_010.jpg	100
593.974	0.634	633.5	0back	Block1	0back/STIM_010.jpg	99
597.866	0.469	469.3	0back	Block1	0back/STIM_010.jpg	99
601.501	0.568	567.8	0back	Block1	0back/STIM_011.jpg	100
605.377	0.705	705.0	0back	Block1	0back/STIM_011.jpg	100
608.968	0.534	533.5	0back	Block1	0back/STIM_011.jpg	99
612.261	0.494	494.5	0back	Block1	0back/STIM_012.jpg	99
615.014	0.518	518.3	0back	Block1	0back/STIM_012.jpg	100
619.3	0.812	811.8	0back	Block1	0back/STIM_012.jpg	99
623.75	0.453	452.9	0back	Block1	0back/STIM_013.jpg	99
627.048	0.684	684.5	0back	Block1	0back/STIM_013.jpg	100
630.913	0.786	786.0	0back	Block1	0back/STIM_013.jpg	100
634.654	0.768	767.7	0back	Block1	0back/STIM_014.jpg	100
637.741	0.809	808.6	0back	Block1	0back/STIM_014.jpg	100
641.641	0.832	832.1	0back	Block1	0back/STIM_014.jpg	100
646.441	0.878	878.3	0back	Block1	0back/STIM_015.jpg	99
649.995	0.777	777.4	0back	Block1	0back/STIM_015.jpg	100
654.604	0.528	527.5	0back	Block1	0back/STIM_015.jpg	99
657.526	0.844	843.9	0back	Block1	0back/STIM_016.jpg	99
660.987	0.694	693.9	0back	Block1	0back/STIM_016.jpg	99
665.125	0.884	884.1	0back	Block1	0back/STIM_016.jpg	99
668.315	0.714	714.1	0back	Block1	0back/STIM_017.jpg	99
672.239	0.468	468.2	0back	Block1	0back/STIM_017.jpg	99
674.943	0.63	629.9	0back	Block1	0back/STIM_017.jpg	100
678.309	0.553	552.8	0back	Block1	0back/STIM_018.jpg	99
682.778	0.807	806.7	0back	Block1	0back/STIM_018.jpg	100
685.625	0.658	657.9	0back	Block1	0back/STIM_018.jpg	99
689.897	0.503	502.9	0back	Block1	0back/STIM_019.jpg	99
692.822	0.52	520.1	0back	Block1	0back/STIM_019.jpg	100
697.229	0.828	828.4	0back	Block1	0back/STIM_019.jpg	100
702.055	0.705	705.0	2back	Block2	2back/STIM_000.jpg	100
705.582	0.877	876.7	2back	Block2	2back/STIM_000.jpg	99
708.669	0.699	699.1	2back	Block2	2back/STIM_000.jpg	99
712.817	1.302	1302.1	2back	Block2	2back/STIM_001.jpg	100
718.096	0.928	928.4	2back	Block2	2back/STIM_001.jpg	99
722.569	1.073	1072.7	2back	Block2	2back/STIM_001.jpg	100
726.219	1.306	1306.3	2back	Block2	2back/STIM_002.jpg	99
729.912	1.033	1033.4	2back	Block2	2back/STIM_002.jpg	100
733.122	0.622	622.1	2back	Block2	2back/STIM_002.jpg	100
737.063	0.852	851.6	2back	Block2	2back/STIM_003.jpg	100
741.364	0.892	892.2	2back	Block2	2back/STIM_003.jpg	99
744.422	0.687	687.3	2back	Block2	2back/STIM_003.jpg	100
747.346	0.665	664.7	2back	Block2	2back/STIM_004.jpg	100
751.242	0.756	755.7	2back	Block2	2back/STIM_004.jpg	99
755.559	1.157	1157.3	2back	Block2	2back/STIM_004.jpg	99
759.277	0.592	591.6	2back	Block2	2back/STIM_005.jpg	100
763.838	1.158	1157.6	2back	Block2	2back/STIM_005.jpg	100
767.594	0.659	659.1	2back	Block2	2back/STIM_005.jpg	99
771.953	1.098	1097.8	2back	Block2	2back/STIM_006.jpg	99
775.912	0.891	891.2	2back	Block2	2back/STIM_006.jpg	100
779.036	0.744	744.1	2back	Block2	2back/STIM_006.jpg	100
782.293	1.268	1267.8	2back	Block2	2back/STIM_007.jpg	99
785.912	1.183	1183.4	2back	Block2	2back/STIM_007.jpg	99
789.63	0.596	595.7	2back	Block2	2back/STIM_007.jpg	100
792.535	1.256	1255.6	2back	Block2	2back/STIM_008.jpg	100
797.116	0.554	554.4	2back	Block2	2back/STIM_008.jpg	99
800.796	0.516	515.6	2back	Block2	2back/STIM_008.jpg	100
804.259	0.902	902.3	2back	Block2	2back/STIM_009.jpg	99
808.085	1.139	1138.7	2back	Block2	2back/STIM_009.jpg	99
811.343	0.676	676.3	2back	Block2	2back/STIM_009.jpg	99
814.582	0.889	889.2	2back	Block2	2back/STIM_010.jpg	100
817.622	0.588	588.1	2back	Block2	2back/STIM_010.jpg	99
820.528	0.967	967.2	2back	Block2	2back/STIM_010.jpg	99
824.013	0.676	676.0	2back	Block2	2back/STIM_011.jpg	99
827.253	0.975	975.2	2back	Block2	2back/STIM_011.jpg	100
830.901	0.955	954.8	2back	Block2	2back/STIM_011.jpg	100
833.902	0.815	814.9	2back	Block2	2back/STIM_012.jpg	99
837.076	0.675	674.7	2back	Block2	2back/STIM_012.jpg	100
839.857	0.834	834.3	2back	Block2	2back/STIM_012.jpg	99
842.994	0.858	858.0	2back	Block2	2back/STIM_013.jpg	100
847.249	1.111	1111.1	2back	Block2	2back/STIM_013.jpg	99
852.312	0.922	922.4	2back	Block2	2back/STIM_013.jpg	100
855.497	1.135	1135.0	2back	Block2	2back/STIM_014.jpg	99
859.603	1.075	1074.9	2back	Block2	2back/STIM_014.jpg	100
863.915	0.938	938.5	2back	Block2	2back/STIM_014.jpg	99
868.21	0.629	629.2	2back	Block2	2back/STIM_015.jpg	100
871.902	0.951	951.1	2back	Block2	2back/STIM_015.jpg	100
875.762	1.054	1053.7	2back	Block2	2back/STIM_015.jpg	100
880.236	1.08	1079.7	2back	Block2	2back/STIM_016.jpg	100
884.889	1.147	1146.7	2back	Block2	2back/STIM_016.jpg	99
888.636	0.86	859.8	2back	Block2	2back/STIM_016.jpg	100
892.434	0.78	779.6	2back	Block2	2back/STIM_017.jpg	100
897.083	0.697	696.8	2back	Block2	2back/STIM_017.jpg	100
901.077	0.916	915.7	2back	Block2	2back/STIM_017.jpg	99
904.317	0.849	848.9	2back	Block2	2back/STIM_018.jpg	99
908.52	0.933	933.0	2back	Block2	2back/STIM_018.jpg	99
912.144	0.961	960.6	2back	Block2	2back/STIM_018.jpg	99
915.127	1.225	1225.0	2back	Block2	2back/STIM_019.jpg	99
919.737	0.866	865.8	2back	Block2	2back/STIM_019.jpg	99
924.061	0.714	713.5	2back	Block2	2back/STIM_019.jpg	100
926.819	0.588	588.4	2back	Block2	2back/STIM_020.jpg	99
929.588	0.883	882.8	2back	Block2	2back/STIM_020.jpg	99
933.184	1.131	1131.1	2back	Block2	2back/STIM_020.jpg	99
937.924	1.273	1273.3	2back	Block2	2back/STIM_021.jpg	99
942.863	1.226	1226.3	2back	Block2	2back/STIM_021.jpg	99
947.713	1.055	1054.8	2back	Block2	2back/STIM_021.jpg	100
951.949	1.084	1083.7	2back	Block2	2back/STIM_022.jpg	99
956.028	0.578	577.7	2back	Block2	2back/STIM_022.jpg	99
960.201	0.547	546.6	2back	Block2	2back/STIM_022.jpg	100
964.326	0.998	998.1	2back	Block2	2back/STIM_023.jpg	100
969.314	1.084	1083.6	2back	Block2	2back/STIM_023.jpg	100
974.293	1.126	1126.1	2back	Block2	2back/STIM_023.jpg	99
978.878	1.013	1012.7	2back	Block2	2back/STIM_024.jpg	99
982.605	1.168	1168.4	2back	Block2	2back/STIM_024.jpg	99
987.316	1.035	1034.6	2back	Block2	2back/STIM_024.jpg	100
992.122	0.592	592.1	2back	Block2	2back/STIM_025.jpg	99
995.085	0.669	669.4	2back	Block2	2back/STIM_025.jpg	100
999.681	0.983	982.8	2back	Block2	2back/STIM_025.jpg	99
1004.029	1.114	1113.6	2back	Block2	2back/STIM_026.jpg	99
1008.901	0.67	669.9	2back	Block2	2back/STIM_026.jpg	99
1011.663	0.507	506.6	2back	Block2	2back/STIM_026.jpg	100
1014.799	0.771	770.8	2back	Block2	2back/STIM_027.jpg	100
1018.197	1.04	1040.0	2back	Block2	2back/STIM_027.jpg	100
1023.197	0.925	924.8	2back	Block2	2back/STIM_027.jpg	99
1026.456	0.909	908.9	2back	Block2	2back/STIM_028.jpg	99
1029.908	0.658	658.1	2back	Block2	2back/STIM_028.jpg	99
1033.971	0.544	544.0	2back	Block2	2back/STIM_028.jpg	99
1038.011	1.057	1056.8	2back	Block2	2back/STIM_029.jpg	100
1042.781	0.604	604.4	2back	Block2	2back/STIM_029.jpg	100
1045.718	0.903	902.7	2back	Block2	2back/STIM_029.jpg	99
1049.584	1.072	1072.5	2back	Block2	2back/STIM_030.jpg	99
1054.467	0.652	651.9	2back	Block2	2back/STIM_030.jpg	100
1058.223	0.632	632.0	2back	Block2	2back/STIM_030.jpg	100
1061.115	1.044	1043.6	2back	Block2	2back/STIM_031.jpg	99
1064.79	0.598	597.7	2back	Block2	2back/STIM_031.jpg	99
1068.814	1.106	1106.1	2back	Block2	2back/STIM_031.jpg	99
1073.503	1.117	1117.0	2back	Block2	2back/STIM_032.jpg	99
1076.729	0.954	953.9	2back	Block2	2back/STIM_032.jpg	100
1080.579	0.854	854.2	2back	Block2	2back/STIM_032.jpg	100
1085.422	1.249	1249.3	2back	Block2	2back/STIM_033.jpg	99
1090.257	0.816	815.8	2back	Block2	2back/STIM_033.jpg	99
1094.609	0.736	736.3	2back	Block2	2back/STIM_033.jpg	99
1097.66	0.838	838.4	2back	Block2	2back/STIM_034.jpg	99
1101.175	1.04	1040.1	2back	Block2	2back/STIM_034.jpg	99
1105.956	0.668	668.5	2back	Block2	2back/STIM_034.jpg	100
1110.158	0.994	994.4	2back	Block2	2back/STIM_035.jpg	100
1114.882	0.923	922.6	2back	Block2	2back/STIM_035.jpg	100
1118.548	1.14	1139.8	2back	Block2	2back/STIM_035.jpg	100
1122.563	0.948	948.5	2back	Block2	2back/STIM_036.jpg	99
1126.8	1.142	1142.3	2back	Block2	2back/STIM_036.jpg	100
1130.94	0.709	708.7	2back	Block2	2back/STIM_036.jpg	99
1134.579	1.284	1283.6	2back	Block2	2back/STIM_037.jpg	99
1138.1	0.576	576.2	2back	Block2	2back/STIM_037.jpg	100
1142.637	0.802	802.4	2back	Block2	2back/STIM_037.jpg	99
1146.245	1.239	1238.8	2back	Block2	2back/STIM_038.jpg	99
1150.366	0.936	936.1	2back	Block2	2back/STIM_038.jpg	100
1154.825	0.9	899.5	2back	Block2	2back/STIM_038.jpg	100
1158.123	0.648	647.8	2back	Block2	2back/STIM_039.jpg	99
1161.139	1.009	1008.6	2back	Block2	2back/STIM_039.jpg	99
1165.305	1.005	1004.6	2back	Block2	2back/STIM_039.jpg	99
1169.602	0.45	450.4	0back	Block2	0back/STIM_000.jpg	100
1172.117	0.584	583.9	0back	Block2	0back/STIM_000.jpg	99
1174.902	0.6	600.1	0back	Block2	0back/STIM_000.jpg	100
1177.88	0.495	494.6	0back	Block2	0back/STIM_001.jpg	99
1181.581	0.62	620.2	0back	Block2	0back/STIM_001.jpg	99
1185.851	0.791	790.8	0back	Block2	0back/STIM_001.jpg	100
1188.982	0.867	866.9	0back	Block2	0back/STIM_002.jpg	100
1193.728	0.78	780.3	0back	Block2	0back/STIM_002.jpg	100
1196.965	0.686	685.7	0back	Block2	0back/STIM_002.jpg	100
1201.64	0.773	772.6	0back	Block2	0back/STIM_003.jpg	100
1205.319	0.741	741.0	0back	Block2	0back/STIM_003.jpg	100
1209.281	0.694	694.2	0back	Block2	0back/STIM_003.jpg	99
1213.873	0.739	738.8	0back	Block2	0back/STIM_004.jpg	100
1217.045	0.609	609.2	0back	Block2	0back/STIM_004.jpg	99
1221.47	0.676	675.5	0back	Block2	0back/STIM_004.jpg	100
1225.604	0.634	634.4	0back	Block2	0back/STIM_005.jpg	99
1229.394	0.77	770.2	0back	Block2	0back/STIM_005.jpg	99
1233.276	0.492	492.3	0back	Block2	0back/STIM_005.jpg	100
1236.482	0.454	453.7	0back	Block2	0back/STIM_006.jpg	100
1240.724	0.801	801.0	0back	Block2	0back/STIM_006.jpg	99
1245.065	0.748	748.5	0back	Block2	0back/STIM_006.jpg	100
1248.093	0.708	708.2	0back	Block2	0back/STIM_007.jpg	100
1250.83	0.835	835.3	0back	Block2	0back/STIM_007.jpg	99
1253.888	0.833	833.3	0back	Block2	0back/STIM_007.jpg	99
1256.898	0.524	524.5	0back	Block2	0back/STIM_008.jpg	100
1259.689	0.72	720.5	0back	Block2	0back/STIM_008.jpg	100
1263.997	0.72	719.9	0back	Block2	0back/STIM_008.jpg	99
1267.298	0.504	504.0	0back	Block2	0back/STIM_009.jpg	99
1269.849	0.729	729.3	0back	Block2	0back/STIM_009.jpg	100
1273.577	0.589	589.3	0back	Block2	0back/STIM_009.jpg	99
1278.096	0.752	752.1	0back	Block2	0back/STIM_010.jpg	100
1282.638	0.723	723.3	0back	Block2	0back/STIM_010.jpg	99
1285.902	0.824	824.0	0back	Block2	0back/STIM_010.jpg	100
1289.632	0.626	626.3	0back	Block2	0back/STIM_011.jpg	100
1292.493	0.818	818.4	0back	Block2	0back/STIM_011.jpg	99
1296.782	0.653	652.9	0back	Block2	0back/STIM_011.jpg	99
1299.9	0.746	745.9	0back	Block2	0back/STIM_012.jpg	99
1304.341	0.698	698.3	0back	Block2	0back/STIM_012.jpg	99
1307.745	0.658	657.8	0back	Block2	0back/STIM_012.jpg	99
1311.819	0.55	549.5	0back	Block2	0back/STIM_013.jpg	99
1314.662	0.626	626.0	0back	Block2	0back/STIM_013.jpg	99
1317.833	0.854	854.3	0back	Block2	0back/STIM_013.jpg	100
1321.036	0.696	695.6	0back	Block2	0back/STIM_014.jpg	99
1325.048	0.552	552.3	0back	Block2	0back/STIM_014.jpg	100
1329.346	0.792	791.6	0back	Block2	0back/STIM_014.jpg	99
1333.82	0.467	466.8	0back	Block2	0back/STIM_015.jpg	99
1337.414	0.758	758.1	0back	Block2	0back/STIM_015.jpg	99
1341.927	0.64	640.4	0back	Block2	0back/STIM_015.jpg	100
1345.156	0.877	877.3	0back	Block2	0back/STIM_016.jpg	100
1349.14	0.816	816.1	0back	Block2	0back/STIM_016.jpg	100
1352.726	0.492	492.0	0back	Block2	0back/STIM_016.jpg	100
1355.534	0.826	826.2	0back	Block2	0back/STIM_017.jpg	100
1359.381	0.521	520.8	0back	Block2	0back/STIM_017.jpg	99
1361.981	0.778	778.4	0back	Block2	0back/STIM_017.jpg	99
1366.594	0.831	831.3	0back	Block2	0back/STIM_018.jpg	99
1370.916	0.759	758.7	0back	Block2	0back/STIM_018.jpg	99
1374.182	0.503	502.9	0back	Block2	0back/STIM_018.jpg	100
1378.338	0.695	695.0	0back	Block2	0back/STIM_019.jpg	100
1381.154	0.6	600.2	0back	Block2	0back/STIM_019.jpg	99
1385.134	0.842	841.8	0back	Block2	0back/STIM_019.jpg	100
1388.724	0.652	652.0	2back	Block3	2back/STIM_000.jpg	100
1392.935	1.01	1010.0	2back	Block3	2back/STIM_000.jpg	99
1397.047	0.781	781.4	2back	Block3	2back/STIM_000.jpg	99
1401.359	1.08	1080.5	2back	Block3	2back/STIM_001.jpg	99
1405.569	0.648	647.9	2back	Block3	2back/STIM_001.jpg	99
1408.327	0.565	564.8	2back	Block3	2back/STIM_001.jpg	100
1411.021	1.003	1003.1	2back	Block3	2back/STIM_002.jpg	99
1415.152	0.566	566.1	2back	Block3	2back/STIM_002.jpg	99
1419.221	0.983	982.7	2back	Block3	2back/STIM_002.jpg	100
1423.485	0.651	651.0	2back	Block3	2back/STIM_003.jpg	99
1426.4	0.802	801.8	2back	Block3	2back/STIM_003.jpg	100
1430.558	0.663	662.7	2back	Block3	2back/STIM_003.jpg	99
1433.241	0.576	576.0	2back	Block3	2back/STIM_004.jpg	100
1436.91	0.672	672.4	2back	Block3	2back/STIM_004.jpg	99
1440.498	0.919	919.3	2back	Block3	2back/STIM_004.jpg	99
1443.769	1.074	1074.5	2back	Block3	2back/STIM_005.jpg	99
1447.336	1.001	1001.3	2back	Block3	2back/STIM_005.jpg	100
1451.788	1.011	1011.3	2back	Block3	2back/STIM_005.jpg	100
1455.93	1.008	1007.5	2back	Block3	2back/STIM_006.jpg	99
1459.826	0.553	553.1	2back	Block3	2back/STIM_006.jpg	99
1464.114	0.506	506.2	2back	Block3	2back/STIM_006.jpg	100
1466.929	0.7	699.8	2back	Block3	2back/STIM_007.jpg	99
1469.981	0.781	781.0	2back	Block3	2back/STIM_007.jpg	100
1474.424	0.91	910.2	2back	Block3	2back/STIM_007.jpg	100
1478.541	0.782	781.6	2back	Block3	2back/STIM_008.jpg	99
1482.894	0.567	567.3	2back	Block3	2back/STIM_008.jpg	100
1486.35	0.828	827.7	2back	Block3	2back/STIM_008.jpg	100
1490.862	0.878	877.5	2back	Block3	2back/STIM_009.jpg	99
1495.183	0.713	713.2	2back	Block3	2back/STIM_009.jpg	100
1498.222	0.555	554.6	2back	Block3	2back/STIM_009.jpg	99
1500.782	0.793	793.0	2back	Block3	2back/STIM_010.jpg	100
1503.777	0.971	971.3	2back	Block3	2back/STIM_010.jpg	99
1507.723	0.86	860.2	2back	Block3	2back/STIM_010.jpg	99
1510.721	0.713	713.0	2back	Block3	2back/STIM_011.jpg	99
1513.959	0.984	983.9	2back	Block3	2back/STIM_011.jpg	99
1517.826	0.798	797.7	2back	Block3	2back/STIM_011.jpg	100
1521.802	1.044	1044.3	2back	Block3	2back/STIM_012.jpg	99
1525.808	0.53	530.0	2back	Block3	2back/STIM_012.jpg	99
1528.854	0.948	948.3	2back	Block3	2back/STIM_012.jpg	99
1532.267	0.737	736.6	2back	Block3	2back/STIM_013.jpg	100
1536.158	0.644	643.5	2back	Block3	2back/STIM_013.jpg	99
1539.164	0.466	465.6	2back	Block3	2back/STIM_013.jpg	100
1542.493	0.909	909.4	2back	Block3	2back/STIM_014.jpg	100
1547.001	0.598	597.8	2back	Block3	2back/STIM_014.jpg	99
1551.144	1.062	1061.6	2back	Block3	2back/STIM_014.jpg	100
1554.324	0.819	819.3	2back	Block3	2back/STIM_015.jpg	99
1557.877	0.859	859.3	2back	Block3	2back/STIM_015.jpg	100
1561.307	0.648	648.5	2back	Block3	2back/STIM_015.jpg	100
1565.714	0.499	498.7	2back	Block3	2back/STIM_016.jpg	100
1568.808	1.056	1056.5	2back	Block3	2back/STIM_016.jpg	99
1573.185	0.953	952.7	2back	Block3	2back/STIM_016.jpg	99
1577.338	0.932	932.4	2back	Block3	2back/STIM_017.jpg	99
1581.437	0.632	631.8	2back	Block3	2back/STIM_017.jpg	99
1586.045	0.698	698.4	2back	Block3	2back/STIM_017.jpg	99
1589.55	0.85	850.0	2back	Block3	2back/STIM_018.jpg	100
1594.343	0.711	710.9	2back	Block3	2back/STIM_018.jpg	99
1597.161	0.512	512.5	2back	Block3	2back/STIM_018.jpg	99
1600.249	0.959	959.0	2back	Block3	2back/STIM_019.jpg	100
1604.654	0.599	599.1	2back	Block3	2back/STIM_019.jpg	100
1607.897	0.958	958.2	2back	Block3	2back/STIM_019.jpg	100
1610.991	0.838	838.2	2back	Block3	2back/STIM_020.jpg	100
1614.269	0.674	673.7	2back	Block3	2back/STIM_020.jpg	100
1618.707	0.846	846.1	2back	Block3	2back/STIM_020.jpg	99
1622.39	0.788	787.7	2back	Block3	2back/STIM_021.jpg	100
1626.158	0.509	509.3	2back	Block3	2back/STIM_021.jpg	99
1629.588	0.831	830.8	2back	Block3	2back/STIM_021.jpg	100
1632.94	0.841	840.9	2back	Block3	2back/STIM_022.jpg	100
1636.55	0.824	824.2	2back	Block3	2back/STIM_022.jpg	100
1639.514	0.854	854.3	2back	Block3	2back/STIM_022.jpg	100
1642.767	1.034	1033.6	2back	Block3	2back/STIM_023.jpg	99
1646.196	0.749	748.7	2back	Block3	2back/STIM_023.jpg	100
1649.831	0.864	864.5	2back	Block3	2back/STIM_023.jpg	99
1653.053	0.476	475.5	2back	Block3	2back/STIM_024.jpg	100
1656.284	1.04	1039.5	2back	Block3	2back/STIM_024.jpg	100
1659.854	0.818	817.7	2back	Block3	2back/STIM_024.jpg	99
1664.285	0.641	641.0	2back	Block3	2back/STIM_025.jpg	99
1667.49	1.019	1019.4	2back	Block3	2back/STIM_025.jpg	100
1671.604	0.774	774.5	2back	Block3	2back/STIM_025.jpg	99
1674.666	1.0	999.8	2back	Block3	2back/STIM_026.jpg	99
1678.908	1.034	1034.5	2back	Block3	2back/STIM_026.jpg	99
1683.373	0.878	878.5	2back	Block3	2back/STIM_026.jpg	99
1687.244	0.561	561.1	2back	Block3	2back/STIM_027.jpg	99
1690.152	0.93	929.7	2back	Block3	2back/STIM_027.jpg	99
1693.342	0.913	912.6	2back	Block3	2back/STIM_027.jpg	99
1698.181	0.523	522.6	2back	Block3	2back/STIM_028.jpg	99
1700.942	0.834	833.5	2back	Block3	2back/STIM_028.jpg	100
1704.489	0.591	591.2	2back	Block3	2back/STIM_028.jpg	100
1707.733	0.827	826.6	2back	Block3	2back/STIM_029.jpg	100
1711.557	0.819	819.4	2back	Block3	2back/STIM_029.jpg	99
1714.817	0.992	991.7	2back	Block3	2back/STIM_029.jpg	100
1718.602	0.935	934.7	2back	Block3	2back/STIM_030.jpg	99
1723.284	0.469	468.7	2back	Block3	2back/STIM_030.jpg	99
1727.353	0.83	829.8	2back	Block3	2back/STIM_030.jpg	100
1731.343	0.674	673.6	2back	Block3	2back/STIM_031.jpg	99
1735.353	0.574	573.9	2back	Block3	2back/STIM_031.jpg	100
1738.546	1.002	1001.5	2back	Block3	2back/STIM_031.jpg	100
1741.64	0.755	755.1	2back	Block3	2back/STIM_032.jpg	99
1744.47	0.915	914.9	2back	Block3	2back/STIM_032.jpg	100
1747.395	0.94	939.7	2back	Block3	2back/STIM_032.jpg	99
1750.741	0.592	592.0	2back	Block3	2back/STIM_033.jpg	99
1753.997	0.571	571.3	2back	Block3	2back/STIM_033.jpg	100
1757.841	0.556	556.4	2back	Block3	2back/STIM_033.jpg	99
1761.356	0.632	632.5	2back	Block3	2back/STIM_034.jpg	100
1764.353	0.741	741.0	2back	Block3	2back/STIM_034.jpg	100
1767.879	1.035	1035.4	2back	Block3	2back/STIM_034.jpg	100
1772.1	0.859	859.2	2back	Block3	2back/STIM_035.jpg	100
1776.34	0.649	648.8	2back	Block3	2back/STIM_035.jpg	99
1779.336	0.554	553.6	2back	Block3	2back/STIM_035.jpg	100
1783.03	0.524	524.2	2back	Block3	2back/STIM_036.jpg	99
1786.36	0.724	723.5	2back	Block3	2back/STIM_036.jpg	99
1790.727	0.838	837.7	2back	Block3	2back/STIM_036.jpg	100
1795.312	0.75	749.6	2back	Block3	2back/STIM_037.jpg	100
1799.192	0.492	492.4	2back	Block3	2back/STIM_037.jpg	99
1803.36	0.531	531.0	2back	Block3	2back/STIM_037.jpg	99
1807.127	0.858	857.5	2back	Block3	2back/STIM_038.jpg	99
1810.875	1.049	1049.2	2back	Block3	2back/STIM_038.jpg	100
1815.016	1.056	1055.9	2back	Block3	2back/STIM_038.jpg	100
1818.899	0.91	910.2	2back	Block3	2back/STIM_039.jpg	99
1822.877	0.536	535.5	2back	Block3	2back/STIM_039.jpg	99
1825.645	0.511	511.0	2back	Block3	2back/STIM_039.jpg	99
1828.755	0.603	603.1	0back	Block3	0back/STIM_000.jpg	100
1831.732	0.875	875.3	0back	Block3	0back/STIM_000.jpg	100
1836.49	0.499	498.9	0back	Block3	0back/STIM_000.jpg	100
1840.86	0.838	838.2	0back	Block3	0back/STIM_001.jpg	99
1844.843	0.874	874.1	0back	Block3	0back/STIM_001.jpg	99
1848.792	0.51	510.4	0back	Block3	0back/STIM_001.jpg	100
1852.421	0.444	443.6	0back	Block3	0back/STIM_002.jpg	100
1855.845	0.657	657.4	0back	Block3	0back/STIM_002.jpg	100
1859.531	0.852	852.0	0back	Block3	0back/STIM_002.jpg	100
1863.585	0.556	556.1	0back	Block3	0back/STIM_003.jpg	100
1867.795	0.522	522.1	0back	Block3	0back/STIM_003.jpg	100
1872.13	0.509	508.6	0back	Block3	0back/STIM_003.jpg	100
1875.587	0.543	543.4	0back	Block3	0back/STIM_004.jpg	100
1878.982	0.807	807.1	0back	Block3	0back/STIM_004.jpg	100
1883.316	0.513	513.3	0back	Block3	0back/STIM_004.jpg	99
1886.453	0.699	698.8	0back	Block3	0back/STIM_005.jpg	99
1889.277	0.519	519.0	0back	Block3	0back/STIM_005.jpg	100
1893.025	0.541	540.7	0back	Block3	0back/STIM_005.jpg	100
1896.913	0.822	822.0	0back	Block3	0back/STIM_006.jpg	100
1900.302	0.454	454.2	0back	Block3	0back/STIM_006.jpg	99
1904.449	0.639	639.0	0back	Block3	0back/STIM_006.jpg	99
1908.281	0.746	746.4	0back	Block3	0back/STIM_007.jpg	100
1911.107	0.727	727.3	0back	Block3	0back/STIM_007.jpg	100
1915.046	0.692	692.0	0back	Block3	0back/STIM_007.jpg	100
1918.148	0.609	608.7	0back	Block3	0back/STIM_008.jpg	100
1921.633	0.538	537.5	0back	Block3	0back/STIM_008.jpg	100
1925.927	0.514	513.6	0back	Block3	0back/STIM_008.jpg	99
1929.108	0.822	822.2	0back	Block3	0back/STIM_009.jpg	100
1933.212	0.815	815.0	0back	Block3	0back/STIM_009.jpg	99
1936.356	0.796	796.0	0back	Block3	0back/STIM_009.jpg	99
1940.576	0.558	557.7	0back	Block3	0back/STIM_010.jpg	100
1943.956	0.676	676.2	0back	Block3	0back/STIM_010.jpg	99
1948.586	0.548	548.5	0back	Block3	0back/STIM_010.jpg	100
1952.52	0.532	531.9	0back	Block3	0back/STIM_011.jpg	100
1955.343	0.482	482.0	0back	Block3	0back/STIM_011.jpg	100
1959.635	0.626	625.5	0back	Block3	0back/STIM_011.jpg	100
1962.311	0.745	745.1	0back	Block3	0back/STIM_012.jpg	99
1967.05	0.602	602.3	0back	Block3	0back/STIM_012.jpg	100
1969.886	0.65	649.6	0back	Block3	0back/STIM_012.jpg	100
1973.858	0.534	534.1	0back	Block3	0back/STIM_013.jpg	99
1977.687	0.701	701.2	0back	Block3	0back/STIM_013.jpg	100
1981.203	0.493	493.0	0back	Block3	0back/STIM_013.jpg	99
1983.886	0.849	849.4	0back	Block3	0back/STIM_014.jpg	99
1988.083	0.758	757.8	0back	Block3	0back/STIM_014.jpg	100
1992.211	0.855	854.6	0back	Block3	0back/STIM_014.jpg	99
1996.548	0.639	638.7	0back	Block3	0back/STIM_015.jpg	100
1999.621	0.846	846.2	0back	Block3	0back/STIM_015.jpg	99
2003.336	0.7	700.2	0back	Block3	0back/STIM_015.jpg	100
2008.023	0.596	596.4	0back	Block3	0back/STIM_016.jpg	99
2011.586	0.549	549.3	0back	Block3	0back/STIM_016.jpg	99
2014.388	0.647	647.0	0back	Block3	0back/STIM_016.jpg	100
2018.528	0.608	607.9	0back	Block3	0back/STIM_017.jpg	100
2023.012	0.786	785.6	0back	Block3	0back/STIM_017.jpg	99
2027.59	0.49	489.9	0back	Block3	0back/STIM_017.jpg	100
2030.355	0.539	538.8	0back	Block3	0back/STIM_018.jpg	100
2034.172	0.839	839.4	0back	Block3	0back/STIM_018.jpg	99
2037.772	0.853	852.9	0back	Block3	0back/STIM_018.jpg	99
2041.706	0.484	483.9	0back	Block3	0back/STIM_019.jpg	99
2045.767	0.557	556.6	0back	Block3	0back/STIM_019.jpg	99
2048.664	0.772	771.6	0back	Block3	0back/STIM_019.jpg	100
2052.94	1.06	1060.4	2back	Block4	2back/STIM_000.jpg	99
2056.267	0.491	491.1	2back	Block4	2back/STIM_000.jpg	100
2059.839	0.636	636.0	2back	Block4	2back/STIM_000.jpg	99
2062.649	0.848	848.0	2back	Block4	2back/STIM_001.jpg	100
2066.368	0.489	488.8	2back	Block4	2back/STIM_001.jpg	99
2070.351	0.543	542.7	2back	Block4	2back/STIM_001.jpg	100
2073.99	0.63	630.0	2back	Block4	2back/STIM_002.jpg	100
2077.42	0.55	550.0	2back	Block4	2back/STIM_002.jpg	100
2080.641	0.932	932.5	2back	Block4	2back/STIM_002.jpg	100
2084.02	0.777	777.2	2back	Block4	2back/STIM_003.jpg	99
2087.104	0.766	766.4	2back	Block4	2back/STIM_003.jpg	99
2091.745	0.562	561.7	2back	Block4	2back/STIM_003.jpg	99
2095.893	0.868	868.4	2back	Block4	2back/STIM_004.jpg	100
2100.22	0.696	696.5	2back	Block4	2back/STIM_004.jpg	99
2103.323	0.745	745.4	2back	Block4	2back/STIM_004.jpg	99
2107.493	0.632	631.5	2back	Block4	2back/STIM_005.jpg	100
2110.568	0.6	600.0	2back	Block4	2back/STIM_005.jpg	99
2115.115	0.62	619.7	2back	Block4	2back/STIM_005.jpg	99
2117.912	1.069	1068.6	2back	Block4	2back/STIM_006.jpg	100
2121.028	0.977	976.9	2back	Block4	2back/STIM_006.jpg	99
2124.978	0.726	726.1	2back	Block4	2back/STIM_006.jpg	100
2129.505	1.004	1003.9	2back	Block4	2back/STIM_007.jpg	100
2134.236	1.043	1042.6	2back	Block4	2back/STIM_007.jpg	99
2138.576	1.059	1059.0	2back	Block4	2back/STIM_007.jpg	99
2142.783	0.793	793.1	2back	Block4	2back/STIM_008.jpg	99
2146.73	0.531	530.6	2back	Block4	2back/STIM_008.jpg	99
2149.636	0.951	950.9	2back	Block4	2back/STIM_008.jpg	99
2153.896	0.487	486.8	2back	Block4	2back/STIM_009.jpg	100
2157.081	0.972	972.5	2back	Block4	2back/STIM_009.jpg	99
2161.521	0.869	869.4	2back	Block4	2back/STIM_009.jpg	100
2164.609	0.842	841.5	2back	Block4	2back/STIM_010.jpg	99
2168.609	0.509	508.9	2back	Block4	2back/STIM_010.jpg	100
2171.401	0.839	838.8	2back	Block4	2back/STIM_010.jpg	100
2175.01	0.922	922.5	2back	Block4	2back/STIM_011.jpg	99
2177.989	1.022	1022.0	2back	Block4	2back/STIM_011.jpg	99
2182.539	0.557	556.8	2back	Block4	2back/STIM_011.jpg	100
2185.218	0.73	729.9	2back	Block4	2back/STIM_012.jpg	99
2187.982	0.867	866.7	2back	Block4	2back/STIM_012.jpg	99
2191.774	0.63	630.3	2back	Block4	2back/STIM_012.jpg	100
2196.088	0.886	885.7	2back	Block4	2back/STIM_013.jpg	99
2199.777	0.92	920.4	2back	Block4	2back/STIM_013.jpg	99
2203.183	0.988	988.5	2back	Block4	2back/STIM_013.jpg	99
2208.141	0.665	664.7	2back	Block4	2back/STIM_014.jpg	99
2211.093	0.692	691.9	2back	Block4	2back/STIM_014.jpg	100
2214.913	0.66	659.6	2back	Block4	2back/STIM_014.jpg	100
2218.035	0.732	731.9	2back	Block4	2back/STIM_015.jpg	99
2221.291	0.693	692.7	2back	Block4	2back/STIM_015.jpg	100
2224.002	0.564	563.8	2back	Block4	2back/STIM_015.jpg	99
2228.224	0.761	760.9	2back	Block4	2back/STIM_016.jpg	100
2232.574	0.792	792.2	2back	Block4	2back/STIM_016.jpg	100
2236.142	0.472	471.6	2back	Block4	2back/STIM_016.jpg	99
2240.555	0.772	772.0	2back	Block4	2back/STIM_017.jpg	99
2245.263	0.906	905.8	2back	Block4	2back/STIM_017.jpg	100
2250.03	0.77	769.6	2back	Block4	2back/STIM_017.jpg	100
2253.73	0.673	672.9	2back	Block4	2back/STIM_018.jpg	99
2256.685	0.929	929.1	2back	Block4	2back/STIM_018.jpg	100
2260.775	0.691	691.1	2back	Block4	2back/STIM_018.jpg	100
2265.424	0.828	828.0	2back	Block4	2back/STIM_019.jpg	99
2268.581	0.513	513.2	2back	Block4	2back/STIM_019.jpg	100
2272.372	0.772	771.9	2back	Block4	2back/STIM_019.jpg	99
2275.86	0.974	974.2	2back	Block4	2back/STIM_020.jpg	100
2278.982	0.964	963.8	2back	Block4	2back/STIM_020.jpg	99
2282.243	1.014	1014.0	2back	Block4	2back/STIM_020.jpg	100
2286.639	1.064	1063.8	2back	Block4	2back/STIM_021.jpg	99
2289.843	0.531	530.9	2back	Block4	2back/STIM_021.jpg	100
2293.05	0.814	814.3	2back	Block4	2back/STIM_021.jpg	99
2296.97	0.951	951.3	2back	Block4	2back/STIM_022.jpg	99
2300.741	0.669	668.9	2back	Block4	2back/STIM_022.jpg	99
2304.228	0.536	536.4	2back	Block4	2back/STIM_022.jpg	99
2308.573	0.885	885.2	2back	Block4	2back/STIM_023.jpg	100
2312.133	0.96	959.6	2back	Block4	2back/STIM_023.jpg	100
2315.732	0.696	695.9	2back	Block4	2back/STIM_023.jpg	100
2319.894	0.479	478.9	2back	Block4	2back/STIM_024.jpg	99
2322.578	0.866	866.0	2back	Block4	2back/STIM_024.jpg	100
2327.323	0.648	647.7	2back	Block4	2back/STIM_024.jpg	99
2331.44	0.702	701.5	2back	Block4	2back/STIM_025.jpg	100
2335.252	0.757	757.4	2back	Block4	2back/STIM_025.jpg	100
2339.071	0.917	916.9	2back	Block4	2back/STIM_025.jpg	99
2342.372	0.506	505.7	2back	Block4	2back/STIM_026.jpg	99
2345.336	0.745	744.6	2back	Block4	2back/STIM_026.jpg	100
2349.413	0.932	931.8	2back	Block4	2back/STIM_026.jpg	99
2352.998	0.525	525.3	2back	Block4	2back/STIM_027.jpg	99
2356.437	0.588	587.6	2back	Block4	2back/STIM_027.jpg	100
2359.204	0.61	609.6	2back	Block4	2back/STIM_027.jpg	99
2363.762	0.824	823.5	2back	Block4	2back/STIM_028.jpg	100
2367.65	0.567	566.6	2back	Block4	2back/STIM_028.jpg	99
2370.892	1.014	1014.2	2back	Block4	2back/STIM_028.jpg	100
2375.101	1.06	1060.5	2back	Block4	2back/STIM_029.jpg	100
2379.062	0.616	616.3	2back	Block4	2back/STIM_029.jpg	99
2383.123	0.942	941.5	2back	Block4	2back/STIM_029.jpg	99
2386.629	0.895	895.1	2back	Block4	2back/STIM_030.jpg	99
2390.729	0.931	931.2	2back	Block4	2back/STIM_030.jpg	100
2395.145	0.836	835.9	2back	Block4	2back/STIM_030.jpg	100
2399.05	0.486	486.1	2back	Block4	2back/STIM_031.jpg	99
2402.969	0.998	997.9	2back	Block4	2back/STIM_031.jpg	99
2406.708	0.674	673.9	2back	Block4	2back/STIM_031.jpg	99
2410.176	0.482	482.2	2back	Block4	2back/STIM_032.jpg	99
2413.76	0.658	658.1	2back	Block4	2back/STIM_032.jpg	100
2417.637	0.708	707.6	2back	Block4	2back/STIM_032.jpg	99
2421.3	0.813	813.3	2back	Block4	2back/STIM_033.jpg	100
2425.607	0.877	876.6	2back	Block4	2back/STIM_033.jpg	100
2429.422	0.638	637.8	2back	Block4	2back/STIM_033.jpg	99
2432.981	0.629	628.9	2back	Block4	2back/STIM_034.jpg	99
2435.831	0.903	902.6	2back	Block4	2back/STIM_034.jpg	99
2438.823	0.568	568.5	2back	Block4	2back/STIM_034.jpg	99
2441.553	0.704	703.8	2back	Block4	2back/STIM_035.jpg	100
2445.586	0.604	603.7	2back	Block4	2back/STIM_035.jpg	100
2449.675	0.582	581.8	2back	Block4	2back/STIM_035.jpg	100
2452.297	1.062	1062.2	2back	Block4	2back/STIM_036.jpg	100
2456.985	0.875	874.9	2back	Block4	2back/STIM_036.jpg	99
2461.652	0.904	903.9	2back	Block4	2back/STIM_036.jpg	99
2464.936	0.66	659.9	2back	Block4	2back/STIM_037.jpg	99
2469.522	0.655	655.4	2back	Block4	2back/STIM_037.jpg	99
2473.008	0.625	625.2	2back	Block4	2back/STIM_037.jpg	99
2476.969	0.729	728.6	2back	Block4	2back/STIM_038.jpg	100
2480.074	0.549	548.9	2back	Block4	2back/STIM_038.jpg	100
2483.605	0.654	654.1	2back	Block4	2back/STIM_038.jpg	99
2487.058	1.052	1051.5	2back	Block4	2back/STIM_039.jpg	100
2490.934	0.986	986.4	2back	Block4	2back/STIM_039.jpg	99
2494.132	0.605	605.0	2back	Block4	2back/STIM_039.jpg	100
2497.49	0.464	464.2	0back	Block4	0back/STIM_000.jpg	100
2501.027	0.588	588.5	0back	Block4	0back/STIM_000.jpg	100
2503.809	0.498	497.8	0back	Block4	0back/STIM_000.jpg	99
2507.238	0.656	656.5	0back	Block4	0back/STIM_001.jpg	100
2509.911	0.77	770.3	0back	Block4	0back/STIM_001.jpg	99
2513.507	0.461	460.6	0back	Block4	0back/STIM_001.jpg	100
2516.607	0.67	669.5	0back	Block4	0back/STIM_002.jpg	99
2519.343	0.842	842.3	0back	Block4	0back/STIM_002.jpg	99
2522.656	0.877	876.7	0back	Block4	0back/STIM_002.jpg	100
2527.337	0.667	667.4	0back	Block4	0back/STIM_003.jpg	99
2530.232	0.446	446.5	0back	Block4	0back/STIM_003.jpg	100
2534.654	0.778	778.4	0back	Block4	0back/STIM_003.jpg	100
2538.991	0.566	565.8	0back	Block4	0back/STIM_004.jpg	99
2542.931	0.665	664.8	0back	Block4	0back/STIM_004.jpg	100
2546.328	0.529	529.0	0back	Block4	0back/STIM_004.jpg	100
2550.563	0.84	839.5	0back	Block4	0back/STIM_005.jpg	100
2554.032	0.473	473.2	0back	Block4	0back/STIM_005.jpg	99
2557.694	0.524	523.9	0back	Block4	0back/STIM_005.jpg	100
2560.56	0.694	694.2	0back	Block4	0back/STIM_006.jpg	100
2563.453	0.634	633.5	0back	Block4	0back/STIM_006.jpg	100
2566.777	0.742	741.9	0back	Block4	0back/STIM_006.jpg	100
2569.564	0.453	453.3	0back	Block4	0back/STIM_007.jpg	99
2572.684	0.587	586.7	0back	Block4	0back/STIM_007.jpg	100
2576.783	0.476	475.7	0back	Block4	0back/STIM_007.jpg	99
2581.023	0.672	672.0	0back	Block4	0back/STIM_008.jpg	100
2584.235	0.738	738.3	0back	Block4	0back/STIM_008.jpg	100
2588.18	0.596	596.4	0back	Block4	0back/STIM_008.jpg	99
2591.454	0.578	577.5	0back	Block4	0back/STIM_009.jpg	100
2594.164	0.847	847.0	0back	Block4	0back/STIM_009.jpg	100
2597.555	0.678	677.5	0back	Block4	0back/STIM_009.jpg	99
2601.433	0.738	737.8	0back	Block4	0back/STIM_010.jpg	99
2606.032	0.506	506.5	0back	Block4	0back/STIM_010.jpg	99
2608.914	0.827	827.1	0back	Block4	0back/STIM_010.jpg	100
2612.585	0.813	812.8	0back	Block4	0back/STIM_011.jpg	100
2615.885	0.582	582.3	0back	Block4	0back/STIM_011.jpg	99
2620.389	0.615	615.0	0back	Block4	0back/STIM_011.jpg	100
2623.631	0.689	688.9	0back	Block4	0back/STIM_012.jpg	99
2627.049	0.797	796.9	0back	Block4	0back/STIM_012.jpg	100
2631.539	0.618	618.5	0back	Block4	0back/STIM_012.jpg	99
2635.355	0.49	490.2	0back	Block4	0back/STIM_013.jpg	100
2638.346	0.616	616.1	0back	Block4	0back/STIM_013.jpg	100
2642.863	0.859	859.4	0back	Block4	0back/STIM_013.jpg	99
2647.159	0.881	881.3	0back	Block4	0back/STIM_014.jpg	99
2650.899	0.619	618.9	0back	Block4	0back/STIM_014.jpg	99
2655.447	0.626	625.6	0back	Block4	0back/STIM_014.jpg	100
2659.652	0.567	566.9	0back	Block4	0back/STIM_015.jpg	99
2662.905	0.634	634.2	0back	Block4	0back/STIM_015.jpg	100
2665.612	0.723	722.8	0back	Block4	0back/STIM_015.jpg	100
2669.6	0.671	671.3	0back	Block4	0back/STIM_016.jpg	99
2673.306	0.485	485.4	0back	Block4	0back/STIM_016.jpg	100
2677.542	0.757	757.2	0back	Block4	0back/STIM_016.jpg	100
2681.991	0.472	472.3	0back	Block4	0back/STIM_017.jpg	99
2686.419	0.843	842.8	0back	Block4	0back/STIM_017.jpg	99
2691.199	0.705	704.9	0back	Block4	0back/STIM_017.jpg	100
2695.148	0.717	716.8	0back	Block4	0back/STIM_018.jpg	99
2697.938	0.562	561.8	0back	Block4	0back/STIM_018.jpg	99
2701.734	0.444	444.5	0back	Block4	0back/STIM_018.jpg	100
2705.507	0.571	570.8	0back	Block4	0back/STIM_019.jpg	100
2708.726	0.775	774.9	0back	Block4	0back/STIM_019.jpg	99
2712.718	0.85	849.9	0back	Block4	0back/STIM_019.jpg	99
