onset	duration	accuracy	trial_type	learning_stage	stimulus
0.0	0.876	correct	2back	Block1	2back/STIM_000.jpg
3.723	0.789	correct	2back	Block1	2back/STIM_000.jpg
6.78	1.022	correct	2back	Block1	2back/STIM_000.jpg
11.261	1.422	correct	2back	Block1	2back/STIM_001.jpg
15.521	1.054	correct	2back	Block1	2back/STIM_001.jpg
19.662	0.954	correct	2back	Block1	2back/STIM_001.jpg
23.217	0.981	incorrect	2back	Block1	2back/STIM_002.jpg
26.685	0.742	correct	2back	Block1	2back/STIM_002.jpg
30.306	1.102	correct	2back	Block1	2back/STIM_002.jpg
34.449	0.707	correct	2back	Block1	2back/STIM_003.jpg
38.992	0.884	correct	2back	Block1	2back/STIM_003.jpg
42.581	1.063	correct	2back	Block1	2back/STIM_003.jpg
45.875	0.958	correct	2back	Block1	2back/STIM_004.jpg
49.909	1.298	correct	2back	Block1	2back/STIM_004.jpg
53.248	1.162	correct	2back	Block1	2back/STIM_004.jpg
57.632	1.439	correct	2back	Block1	2back/STIM_005.jpg
61.923	1.454	correct	2back	Block1	2back/STIM_005.jpg
66.582	0.902	incorrect	2back	Block1	2back/STIM_005.jpg
70.618	0.782	correct	2back	Block1	2back/STIM_006.jpg
75.001	1.089	correct	2back	Block1	2back/STIM_006.jpg
78.847	1.321	correct	2back	Block1	2back/STIM_006.jpg
82.886	1.47	correct	2back	Block1	2back/STIM_007.jpg
86.788	0.735	correct	2back	Block1	2back/STIM_007.jpg
89.652	0.736	correct	2back	Block1	2back/STIM_007.jpg
93.785	1.337	correct	2back	Block1	2back/STIM_008.jpg
97.193	0.889	correct	2back	Block1	2back/STIM_008.jpg
100.855	1.128	correct	2back	Block1	2back/STIM_008.jpg
104.196	1.391	correct	2back	Block1	2back/STIM_009.jpg
108.911	0.845	correct	2back	Block1	2back/STIM_009.jpg
113.321	1.108	correct	2back	Block1	2back/STIM_009.jpg
118.314	1.131	correct	2back	Block1	2back/STIM_010.jpg
121.601	1.176	correct	2back	Block1	2back/STIM_010.jpg
126.179	0.799	correct	2back	Block1	2back/STIM_010.jpg
130.252	0.99	correct	2back	Block1	2back/STIM_011.jpg
133.968	0.905	correct	2back	Block1	2back/STIM_011.jpg
136.997	0.978	correct	2back	Block1	2back/STIM_011.jpg
141.34	1.536	correct	2back	Block1	2back/STIM_012.jpg
146.444	1.314	correct	2back	Block1	2back/STIM_012.jpg
150.509	0.682	correct	2back	Block1	2back/STIM_012.jpg
153.809	1.376	correct	2back	Block1	2back/STIM_013.jpg
157.325	1.114	correct	2back	Block1	2back/STIM_013.jpg
161.683	0.955	incorrect	2back	Block1	2back/STIM_013.jpg
165.543	0.809	correct	2back	Block1	2back/STIM_014.jpg
168.457	1.439	correct	2back	Block1	2back/STIM_014.jpg
172.046	0.873	correct	2back	Block1	2back/STIM_014.jpg
176.482	1.287	correct	2back	Block1	2back/STIM_015.jpg
180.123	1.46	correct	2back	Block1	2back/STIM_015.jpg
185.476	1.27	correct	2back	Block1	2back/STIM_015.jpg
189.776	1.134	correct	2back	Block1	2back/STIM_016.jpg
193.767	0.674	correct	2back	Block1	2back/STIM_016.jpg
196.675	1.152	correct	2back	Block1	2back/STIM_016.jpg
200.126	0.914	correct	2back	Block1	2back/STIM_017.jpg
204.116	1.313	correct	2back	Block1	2back/STIM_017.jpg
208.1	1.186	correct	2back	Block1	2back/STIM_017.jpg
212.989	1.199	correct	2back	Block1	2back/STIM_018.jpg
216.473	0.726	correct	2back	Block1	2back/STIM_018.jpg
219.273	1.169	correct	2back	Block1	2back/STIM_018.jpg
222.465	0.724	correct	2back	Block1	2back/STIM_019.jpg
226.679	0.717	correct	2back	Block1	2back/STIM_019.jpg
230.889	0.869	correct	2back	Block1	2back/STIM_019.jpg
235.304	0.768	correct	2back	Block1	2back/STIM_020.jpg
238.692	1.094	correct	2back	Block1	2back/STIM_020.jpg
243.521	1.24	correct	2back	Block1	2back/STIM_020.jpg
247.446	0.966	correct	2back	Block1	2back/STIM_021.jpg
252.405	0.91	correct	2back	Block1	2back/STIM_021.jpg
256.811	0.718	correct	2back	Block1	2back/STIM_021.jpg
260.835	0.678	correct	2back	Block1	2back/STIM_022.jpg
264.212	1.442	correct	2back	Block1	2back/STIM_022.jpg
268.15	1.048	correct	2back	Block1	2back/STIM_022.jpg
271.3	1.107	correct	2back	Block1	2back/STIM_023.jpg
276.321	1.433	correct	2back	Block1	2back/STIM_023.jpg
280.223	0.788	correct	2back	Block1	2back/STIM_023.jpg
283.813	0.986	correct	2back	Block1	2back/STIM_024.jpg
287.19	1.282	correct	2back	Block1	2back/STIM_024.jpg
291.561	0.777	correct	2back	Block1	2back/STIM_024.jpg
295.81	0.927	correct	2back	Block1	2back/STIM_025.jpg
300.293	0.79	correct	2back	Block1	2back/STIM_025.jpg
305.031	0.917	correct	2back	Block1	2back/STIM_025.jpg
308.087	0.78	correct	2back	Block1	2back/STIM_026.jpg
312.536	0.8	correct	2back	Block1	2back/STIM_026.jpg
315.404	0.827	correct	2back	Block1	2back/STIM_026.jpg
318.911	1.018	correct	2back	Block1	2back/STIM_027.jpg
321.945	1.364	correct	2back	Block1	2back/STIM_027.jpg
325.942	1.342	correct	2back	Block1	2back/STIM_027.jpg
330.047	1.256	correct	2back	Block1	2back/STIM_028.jpg
334.613	0.665	correct	2back	Block1	2back/STIM_028.jpg
338.867	1.38	correct	2back	Block1	2back/STIM_028.jpg
343.355	1.107	correct	2back	Block1	2back/STIM_029.jpg
348.12	1.119	correct	2back	Block1	2back/STIM_029.jpg
352.016	1.231	correct	2back	Block1	2back/STIM_029.jpg
356.871	1.414	correct	2back	Block1	2back/STIM_030.jpg
360.372	0.861	correct	2back	Block1	2back/STIM_030.jpg
363.952	0.81	correct	2back	Block1	2back/STIM_030.jpg
367.673	1.29	correct	2back	Block1	2back/STIM_031.jpg
372.358	1.334	correct	2back	Block1	2back/STIM_031.jpg
376.825	1.003	correct	2back	Block1	2back/STIM_031.jpg
380.136	0.734	correct	2back	Block1	2back/STIM_032.jpg
384.054	1.101	correct	2back	Block1	2back/STIM_032.jpg
388.177	1.332	correct	2back	Block1	2back/STIM_032.jpg
393.313	1.396	correct	2back	Block1	2back/STIM_033.jpg
398.666	0.738	correct	2back	Block1	2back/STIM_033.jpg
402.224	1.083	correct	2back	Block1	2back/STIM_033.jpg
406.432	0.969	correct	2back	Block1	2back/STIM_034.jpg
409.717	1.262	correct	2back	Block1	2back/STIM_034.jpg
414.191	0.952	correct	2back	Block1	2back/STIM_034.jpg
419.005	1.493	correct	2back	Block1	2back/STIM_035.jpg
423.285	1.148	correct	2back	Block1	2back/STIM_035.jpg
428.092	0.682	correct	2back	Block1	2back/STIM_035.jpg
432.464	1.316	correct	2back	Block1	2back/STIM_036.jpg
437.001	1.19	correct	2back	Block1	2back/STIM_036.jpg
441.521	0.996	correct	2back	Block1	2back/STIM_036.jpg
446.316	1.326	correct	2back	Block1	2back/STIM_037.jpg
449.734	1.157	correct	2back	Block1	2back/STIM_037.jpg
453.175	0.612	correct	2back	Block1	2back/STIM_037.jpg
456.53	1.52	correct	2back	Block1	2back/STIM_038.jpg
461.888	0.871	correct	2back	Block1	2back/STIM_038.jpg
466.28	1.176	correct	2back	Block1	2back/STIM_038.jpg
471.29	0.885	correct	2back	Block1	2back/STIM_039.jpg
475.139	0.804	correct	2back	Block1	2back/STIM_039.jpg
478.828	0.867	correct	2back	Block1	2back/STIM_039.jpg
482.137	0.687	correct	0back	Block1	0back/STIM_000.jpg
485.745	0.489	correct	0back	Block1	0back/STIM_000.jpg
489.435	0.454	correct	0back	Block1	0back/STIM_000.jpg
493.835	0.579	correct	0back	Block1	0back/STIM_001.jpg
497.046	0.82	correct	0back	Block1	0back/STIM_001.jpg
500.25	0.547	correct	0back	Block1	0back/STIM_001.jpg
504.314	0.842	correct	0back	Block1	0back/STIM_002.jpg
507.493	0.477	correct	0back	Block1	0back/STIM_002.jpg
510.996	0.481	correct	0back	Block1	0back/STIM_002.jpg
514.626	0.664	correct	0back	Block1	0back/STIM_003.jpg
517.91	0.71	correct	0back	Block1	0back/STIM_003.jpg
520.965	0.884	correct	0back	Block1	0back/STIM_003.jpg
523.875	0.687	correct	0back	Block1	0back/STIM_004.jpg
528.169	0.799	correct	0back	Block1	0back/STIM_004.jpg
531.069	0.769	correct	0back	Block1	0back/STIM_004.jpg
535.482	0.684	correct	0back	Block1	0back/STIM_005.jpg
538.838	0.813	correct	0back	Block1	0back/STIM_005.jpg
542.41	0.7	correct	0back	Block1	0back/STIM_005.jpg
545.93	0.876	correct	0back	Block1	0back/STIM_006.jpg
549.554	0.86	correct	0back	Block1	0back/STIM_006.jpg
552.86	0.544	correct	0back	Block1	0back/STIM_006.jpg
556.475	0.797	correct	0back	Block1	0back/STIM_007.jpg
561.133	0.558	correct	0back	Block1	0back/STIM_007.jpg
565.284	0.583	correct	0back	Block1	0back/STIM_007.jpg
569.297	0.875	correct	0back	Block1	0back/STIM_008.jpg
572.287	0.845	correct	0back	Block1	0back/STIM_008.jpg
575.723	0.514	correct	0back	Block1	0back/STIM_008.jpg
579.327	0.674	correct	0back	Block1	0back/STIM_009.jpg
583.765	0.728	correct	0back	Block1	0back/STIM_009.jpg
586.761	0.502	correct	0back	Block1	0back/STIM_009.jpg
589.615	0.854	correct	0back	Block1	0back/STIM_010.jpg
593.974	0.634	correct	0back	Block1	0back/STIM_010.jpg
597.866	0.469	correct	0back	Block1	0back/STIM_010.jpg
601.501	0.568	correct	0back	Block1	0back/STIM_011.jpg
605.377	0.705	correct	0back	Block1	0back/STIM_011.jpg
608.968	0.534	correct	0back	Block1	0back/STIM_011.jpg
612.261	0.494	correct	0back	Block1	0back/STIM_012.jpg
615.014	0.518	correct	0back	Block1	0back/STIM_012.jpg
619.3	0.812	correct	0back	Block1	0back/STIM_012.jpg
623.75	0.453	correct	0back	Block1	0back/STIM_013.jpg
627.048	0.684	correct	0back	Block1	0back/STIM_013.jpg
630.913	0.786	correct	0back	Block1	0back/STIM_013.jpg
634.654	0.768	correct	0back	Block1	0back/STIM_014.jpg
637.741	0.809	correct	0back	Block1	0back/STIM_014.jpg
641.641	0.832	correct	0back	Block1	0back/STIM_014.jpg
646.441	0.878	correct	0back	Block1	0back/STIM_015.jpg
649.995	0.777	correct	0back	Block1	0back/STIM_015.jpg
654.604	0.528	correct	0back	Block1	0back/STIM_015.jpg
657.526	0.844	correct	0back	Block1	0back/STIM_016.jpg
660.987	0.694	correct	0back	Block1	0back/STIM_016.jpg
665.125	0.884	correct	0back	Block1	0back/STIM_016.jpg
668.315	0.714	correct	0back	Block1	0back/STIM_017.jpg
672.239	0.468	correct	0back	Block1	0back/STIM_017.jpg
674.943	0.63	incorrect	0back	Block1	0back/STIM_017.jpg
678.309	0.553	correct	0back	Block1	0back/STIM_018.jpg
682.778	0.807	incorrect	0back	Block1	0back/STIM_018.jpg
685.625	0.658	correct	0back	Block1	0back/STIM_018.jpg
689.897	0.503	correct	0back	Block1	0back/STIM_019.jpg
692.822	0.52	correct	0back	Block1	0back/STIM_019.jpg
697.229	0.828	correct	0back	Block1	0back/STIM_019.jpg
702.055	0.705	correct	2back	Block2	2back/STIM_000.jpg
705.582	0.877	correct	2back	Block2	2back/STIM_000.jpg
708.669	0.699	correct	2back	Block2	2back/STIM_000.jpg
712.817	1.302	correct	2back	Block2	2back/STIM_001.jpg
718.096	0.928	correct	2back	Block2	2back/STIM_001.jpg
722.569	1.073	correct	2back	Block2	2back/STIM_001.jpg
726.219	1.306	correct	2back	Block2	2back/STIM_002.jpg
729.912	1.033	correct	2back	Block2	2back/STIM_002.jpg
733.122	0.622	correct	2back	Block2	2back/STIM_002.jpg
737.063	0.852	correct	2back	Block2	2back/STIM_003.jpg
741.364	0.892	correct	2back	Block2	2back/STIM_003.jpg
744.422	0.687	correct	2back	Block2	2back/STIM_003.jpg
747.346	0.665	correct	2back	Block2	2back/STIM_004.jpg
751.242	0.756	correct	2back	Block2	2back/STIM_004.jpg
755.559	1.157	correct	2back	Block2	2back/STIM_004.jpg
759.277	0.592	correct	2back	Block2	2back/STIM_005.jpg
763.838	1.158	correct	2back	Block2	2back/STIM_005.jpg
767.594	0.659	correct	2back	Block2	2back/STIM_005.jpg
771.953	1.098	correct	2back	Block2	2back/STIM_006.jpg
775.912	0.891	correct	2back	Block2	2back/STIM_006.jpg
779.036	0.744	correct	2back	Block2	2back/STIM_006.jpg
782.293	1.268	correct	2back	Block2	2back/STIM_007.jpg
785.912	1.183	correct	2back	Block2	2back/STIM_007.jpg
789.63	0.596	correct	2back	Block2	2back/STIM_007.jpg
792.535	1.256	correct	2back	Block2	2back/STIM_008.jpg
797.116	0.554	correct	2back	Block2	2back/STIM_008.jpg
800.796	0.516	correct	2back	Block2	2back/STIM_008.jpg
804.259	0.902	correct	2back	Block2	2back/STIM_009.jpg
808.085	1.139	correct	2back	Block2	2back/STIM_009.jpg
811.343	0.676	correct	2back	Block2	2back/STIM_009.jpg
814.582	0.889	correct	2back	Block2	2back/STIM_010.jpg
817.622	0.588	correct	2back	Block2	2back/STIM_010.jpg
820.528	0.967	correct	2back	Block2	2back/STIM_010.jpg
824.013	0.676	correct	2back	Block2	2back/STIM_011.jpg
827.253	0.975	correct	2back	Block2	2back/STIM_011.jpg
830.901	0.955	correct	2back	Block2	2back/STIM_011.jpg
833.902	0.815	correct	2back	Block2	2back/STIM_012.jpg
837.076	0.675	correct	2back	Block2	2back/STIM_012.jpg
839.857	0.834	correct	2back	Block2	2back/STIM_012.jpg
842.994	0.858	correct	2back	Block2	2back/STIM_013.jpg
847.249	1.111	correct	2back	Block2	2back/STIM_013.jpg
852.312	0.922	correct	2back	Block2	2back/STIM_013.jpg
855.497	1.135	correct	2back	Block2	2back/STIM_014.jpg
859.603	1.075	correct	2back	Block2	2back/STIM_014.jpg
863.915	0.938	correct	2back	Block2	2back/STIM_014.jpg
868.21	0.629	correct	2back	Block2	2back/STIM_015.jpg
871.902	0.951	correct	2back	Block2	2back/STIM_015.jpg
875.762	1.054	correct	2back	Block2	2back/STIM_015.jpg
880.236	1.08	correct	2back	Block2	2back/STIM_016.jpg
884.889	1.147	correct	2back	Block2	2back/STIM_016.jpg
888.636	0.86	correct	2back	Block2	2back/STIM_016.jpg
892.434	0.78	correct	2back	Block2	2back/STIM_017.jpg
897.083	0.697	correct	2back	Block2	2back/STIM_017.jpg
901.077	0.916	correct	2back	Block2	2back/STIM_017.jpg
904.317	0.849	correct	2back	Block2	2back/STIM_018.jpg
908.52	0.933	correct	2back	Block2	2back/STIM_018.jpg
912.144	0.961	correct	2back	Block2	2back/STIM_018.jpg
915.127	1.225	correct	2back	Block2	2back/STIM_019.jpg
919.737	0.866	correct	2back	Block2	2back/STIM_019.jpg
924.061	0.714	correct	2back	Block2	2back/STIM_019.jpg
926.819	0.588	incorrect	2back	Block2	2back/STIM_020.jpg
929.588	0.883	correct	2back	Block2	2back/STIM_020.jpg
933.184	1.131	correct	2back	Block2	2back/STIM_020.jpg
937.924	1.273	correct	2back	Block2	2back/STIM_021.jpg
942.863	1.226	correct	2back	Block2	2back/STIM_021.jpg
947.713	1.055	correct	2back	Block2	2back/STIM_021.jpg
951.949	1.084	correct	2back	Block2	2back/STIM_022.jpg
956.028	0.578	correct	2back	Block2	2back/STIM_022.jpg
960.201	0.547	correct	2back	Block2	2back/STIM_022.jpg
964.326	0.998	correct	2back	Block2	2back/STIM_023.jpg
969.314	1.084	correct	2back	Block2	2back/STIM_023.jpg
974.293	1.126	correct	2back	Block2	2back/STIM_023.jpg
978.878	1.013	correct	2back	Block2	2back/STIM_024.jpg
982.605	1.168	correct	2back	Block2	2back/STIM_024.jpg
987.316	1.035	correct	2back	Block2	2back/STIM_024.jpg
992.122	0.592	correct	2back	Block2	2back/STIM_025.jpg
995.085	0.669	correct	2back	Block2	2back/STIM_025.jpg
999.681	0.983	correct	2back	Block2	2back/STIM_025.jpg
1004.029	1.114	correct	2back	Block2	2back/STIM_026.jpg
1008.901	0.67	correct	2back	Block2	2back/STIM_026.jpg
1011.663	0.507	correct	2back	Block2	2back/STIM_026.jpg
1014.799	0.771	correct	2back	Block2	2back/STIM_027.jpg
1018.197	1.04	correct	2back	Block2	2back/STIM_027.jpg
1023.197	0.925	correct	2back	Block2	2back/STIM_027.jpg
1026.456	0.909	correct	2back	Block2	2back/STIM_028.jpg
1029.908	0.658	correct	2back	Block2	2back/STIM_028.jpg
1033.971	0.544	correct	2back	Block2	2back/STIM_028.jpg
1038.011	1.057	correct	2back	Block2	2back/STIM_029.jpg
1042.781	0.604	correct	2back	Block2	2back/STIM_029.jpg
1045.718	0.903	correct	2back	Block2	2back/STIM_029.jpg
1049.584	1.072	correct	2back	Block2	2back/STIM_030.jpg
1054.467	0.652	correct	2back	Block2	2back/STIM_030.jpg
1058.223	0.632	correct	2back	Block2	2back/STIM_030.jpg
1061.115	1.044	correct	2back	Block2	2back/STIM_031.jpg
1064.79	0.598	correct	2back	Block2	2back/STIM_031.jpg
1068.814	1.106	correct	2back	Block2	2back/STIM_031.jpg
1073.503	1.117	incorrect	2back	Block2	2back/STIM_032.jpg
1076.729	0.954	correct	2back	Block2	2back/STIM_032.jpg
1080.579	0.854	correct	2back	Block2	2back/STIM_032.jpg
1085.422	1.249	correct	2back	Block2	2back/STIM_033.jpg
1090.257	0.816	correct	2back	Block2	2back/STIM_033.jpg
1094.609	0.736	correct	2back	Block2	2back/STIM_033.jpg
1097.66	0.838	correct	2back	Block2	2back/STIM_034.jpg
1101.175	1.04	incorrect	2back	Block2	2back/STIM_034.jpg
1105.956	0.668	correct	2back	Block2	2back/STIM_034.jpg
1110.158	0.994	correct	2back	Block2	2back/STIM_035.jpg
1114.882	0.923	correct	2back	Block2	2back/STIM_035.jpg
1118.548	1.14	correct	2back	Block2	2back/STIM_035.jpg
1122.563	0.948	correct	2back	Block2	2back/STIM_036.jpg
1126.8	1.142	correct	2back	Block2	2back/STIM_036.jpg
1130.94	0.709	correct	2back	Block2	2back/STIM_036.jpg
1134.579	1.284	correct	2back	Block2	2back/STIM_037.jpg
1138.1	0.576	correct	2back	Block2	2back/STIM_037.jpg
1142.637	0.802	correct	2back	Block2	2back/STIM_037.jpg
1146.245	1.239	correct	2back	Block2	2back/STIM_038.jpg
1150.366	0.936	correct	2back	Block2	2back/STIM_038.jpg
1154.825	0.9	correct	2back	Block2	2back/STIM_038.jpg
1158.123	0.648	correct	2back	Block2	2back/STIM_039.jpg
1161.139	1.009	correct	2back	Block2	2back/STIM_039.jpg
1165.305	1.005	incorrect	2back	Block2	2back/STIM_039.jpg
1169.602	0.45	correct	0back	Block2	0back/STIM_000.jpg
1172.117	0.584	correct	0back	Block2	0back/STIM_000.jpg
1174.902	0.6	correct	0back	Block2	0back/STIM_000.jpg
1177.88	0.495	correct	0back	Block2	0back/STIM_001.jpg
1181.581	0.62	correct	0back	Block2	0back/STIM_001.jpg
1185.851	0.791	correct	0back	Block2	0back/STIM_001.jpg
1188.982	0.867	correct	0back	Block2	0back/STIM_002.jpg
1193.728	0.78	correct	0back	Block2	0back/STIM_002.jpg
1196.965	0.686	correct	0back	Block2	0back/STIM_002.jpg
1201.64	0.773	correct	0back	Block2	0back/STIM_003.jpg
1205.319	0.741	correct	0back	Block2	0back/STIM_003.jpg
1209.281	0.694	correct	0back	Block2	0back/STIM_003.jpg
1213.873	0.739	correct	0back	Block2	0back/STIM_004.jpg
1217.045	0.609	correct	0back	Block2	0back/STIM_004.jpg
1221.47	0.676	correct	0back	Block2	0back/STIM_004.jpg
1225.604	0.634	correct	0back	Block2	0back/STIM_005.jpg
1229.394	0.77	correct	0back	Block2	0back/STIM_005.jpg
1233.276	0.492	correct	0back	Block2	0back/STIM_005.jpg
1236.482	0.454	correct	0back	Block2	0back/STIM_006.jpg
1240.724	0.801	correct	0back	Block2	0back/STIM_006.jpg
1245.065	0.748	correct	0back	Block2	0back/STIM_006.jpg
1248.093	0.708	correct	0back	Block2	0back/STIM_007.jpg
1250.83	0.835	correct	0back	Block2	0back/STIM_007.jpg
1253.888	0.833	correct	0back	Block2	0back/STIM_007.jpg
1256.898	0.524	correct	0back	Block2	0back/STIM_008.jpg
1259.689	0.72	correct	0back	Block2	0back/STIM_008.jpg
1263.997	0.72	correct	0back	Block2	0back/STIM_008.jpg
1267.298	0.504	correct	0back	Block2	0back/STIM_009.jpg
1269.849	0.729	correct	0back	Block2	0back/STIM_009.jpg
1273.577	0.589	correct	0back	Block2	0back/STIM_009.jpg
1278.096	0.752	correct	0back	Block2	0back/STIM_010.jpg
1282.638	0.723	correct	0back	Block2	0back/STIM_010.jpg
1285.902	0.824	correct	0back	Block2	0back/STIM_010.jpg
1289.632	0.626	correct	0back	Block2	0back/STIM_011.jpg
1292.493	0.818	correct	0back	Block2	0back/STIM_011.jpg
1296.782	0.653	correct	0back	Block2	0back/STIM_011.jpg
1299.9	0.746	correct	0back	Block2	0back/STIM_012.jpg
1304.341	0.698	correct	0back	Block2	0back/STIM_012.jpg
1307.745	0.658	correct	0back	Block2	0back/STIM_012.jpg
1311.819	0.55	correct	0back	Block2	0back/STIM_013.jpg
1314.662	0.626	correct	0back	Block2	0back/STIM_013.jpg
1317.833	0.854	correct	0back	Block2	0back/STIM_013.jpg
1321.036	0.696	correct	0back	Block2	0back/STIM_014.jpg
1325.048	0.552	correct	0back	Block2	0back/STIM_014.jpg
1329.346	0.792	correct	0back	Block2	0back/STIM_014.jpg
1333.82	0.467	correct	0back	Block2	0back/STIM_015.jpg
1337.414	0.758	correct	0back	Block2	0back/STIM_015.jpg
1341.927	0.64	correct	0back	Block2	0back/STIM_015.jpg
1345.156	0.877	correct	0back	Block2	0back/STIM_016.jpg
1349.14	0.816	correct	0back	Block2	0back/STIM_016.jpg
1352.726	0.492	correct	0back	Block2	0back/STIM_016.jpg
1355.534	0.826	correct	0back	Block2	0back/STIM_017.jpg
1359.381	0.521	correct	0back	Block2	0back/STIM_017.jpg
1361.981	0.778	correct	0back	Block2	0back/STIM_017.jpg
1366.594	0.831	correct	0back	Block2	0back/STIM_018.jpg
1370.916	0.759	correct	0back	Block2	0back/STIM_018.jpg
1374.182	0.503	correct	0back	Block2	0back/STIM_018.jpg
1378.338	0.695	correct	0back	Block2	0back/STIM_019.jpg
1381.154	0.6	incorrect	0back	Block2	0back/STIM_019.jpg
1385.134	0.842	correct	0back	Block2	0back/STIM_019.jpg
1388.724	0.652	correct	2back	Block3	2back/STIM_000.jpg
1392.935	1.01	correct	2back	Block3	2back/STIM_000.jpg
1397.047	0.781	correct	2back	Block3	2back/STIM_000.jpg
1401.359	1.08	correct	2back	Block3	2back/STIM_001.jpg
1405.569	0.648	correct	2back	Block3	2back/STIM_001.jpg
1408.327	0.565	correct	2back	Block3	2back/STIM_001.jpg
1411.021	1.003	correct	2back	Block3	2back/STIM_002.jpg
1415.152	0.566	correct	2back	Block3	2back/STIM_002.jpg
1419.221	0.983	correct	2back	Block3	2back/STIM_002.jpg
1423.485	0.651	correct	2back	Block3	2back/STIM_003.jpg
1426.4	0.802	correct	2back	Block3	2back/STIM_003.jpg
1430.558	0.663	correct	2back	Block3	2back/STIM_003.jpg
1433.241	0.576	correct	2back	Block3	2back/STIM_004.jpg
1436.91	0.672	correct	2back	Block3	2back/STIM_004.jpg
1440.498	0.919	correct	2back	Block3	2back/STIM_004.jpg
1443.769	1.074	correct	2back	Block3	2back/STIM_005.jpg
1447.336	1.001	correct	2back	Block3	2back/STIM_005.jpg
1451.788	1.011	correct	2back	Block3	2back/STIM_005.jpg
1455.93	1.008	correct	2back	Block3	2back/STIM_006.jpg
1459.826	0.553	correct	2back	Block3	2back/STIM_006.jpg
1464.114	0.506	correct	2back	Block3	2back/STIM_006.jpg
1466.929	0.7	correct	2back	Block3	2back/STIM_007.jpg
1469.981	0.781	correct	2back	Block3	2back/STIM_007.jpg
1474.424	0.91	correct	2back	Block3	2back/STIM_007.jpg
1478.541	0.782	correct	2back	Block3	2back/STIM_008.jpg
1482.894	0.567	correct	2back	Block3	2back/STIM_008.jpg
1486.35	0.828	incorrect	2back	Block3	2back/STIM_008.jpg
1490.862	0.878	correct	2back	Block3	2back/STIM_009.jpg
1495.183	0.713	correct	2back	Block3	2back/STIM_009.jpg
1498.222	0.555	correct	2back	Block3	2back/STIM_009.jpg
1500.782	0.793	correct	2back	Block3	2back/STIM_010.jpg
1503.777	0.971	correct	2back	Block3	2back/STIM_010.jpg
1507.723	0.86	correct	2back	Block3	2back/STIM_010.jpg
1510.721	0.713	correct	2back	Block3	2back/STIM_011.jpg
1513.959	0.984	correct	2back	Block3	2back/STIM_011.jpg
1517.826	0.798	correct	2back	Block3	2back/STIM_011.jpg
1521.802	1.044	correct	2back	Block3	2back/STIM_012.jpg
1525.808	0.53	correct	2back	Block3	2back/STIM_012.jpg
1528.854	0.948	correct	2back	Block3	2back/STIM_012.jpg
1532.267	0.737	correct	2back	Block3	2back/STIM_013.jpg
1536.158	0.644	correct	2back	Block3	2back/STIM_013.jpg
1539.164	0.466	correct	2back	Block3	2back/STIM_013.jpg
1542.493	0.909	correct	2back	Block3	2back/STIM_014.jpg
1547.001	0.598	correct	2back	Block3	2back/STIM_014.jpg
1551.144	1.062	correct	2back	Block3	2back/STIM_014.jpg
1554.324	0.819	correct	2back	Block3	2back/STIM_015.jpg
1557.877	0.859	correct	2back	Block3	2back/STIM_015.jpg
1561.307	0.648	correct	2back	Block3	2back/STIM_015.jpg
1565.714	0.499	correct	2back	Block3	2back/STIM_016.jpg
1568.808	1.056	correct	2back	Block3	2back/STIM_016.jpg
1573.185	0.953	correct	2back	Block3	2back/STIM_016.jpg
1577.338	0.932	correct	2back	Block3	2back/STIM_017.jpg
1581.437	0.632	correct	2back	Block3	2back/STIM_017.jpg
1586.045	0.698	correct	2back	Block3	2back/STIM_017.jpg
1589.55	0.85	correct	2back	Block3	2back/STIM_018.jpg
1594.343	0.711	correct	2back	Block3	2back/STIM_018.jpg
1597.161	0.512	correct	2back	Block3	2back/STIM_018.jpg
1600.249	0.959	correct	2back	Block3	2back/STIM_019.jpg
1604.654	0.599	correct	2back	Block3	2back/STIM_019.jpg
1607.897	0.958	correct	2back	Block3	2back/STIM_019.jpg
1610.991	0.838	correct	2back	Block3	2back/STIM_020.jpg
1614.269	0.674	correct	2back	Block3	2back/STIM_020.jpg
1618.707	0.846	correct	2back	Block3	2back/STIM_020.jpg
1622.39	0.788	correct	2back	Block3	2back/STIM_021.jpg
1626.158	0.509	correct	2back	Block3	2back/STIM_021.jpg
1629.588	0.831	correct	2back	Block3	2back/STIM_021.jpg
1632.94	0.841	correct	2back	Block3	2back/STIM_022.jpg
1636.55	0.824	correct	2back	Block3	2back/STIM_022.jpg
1639.514	0.854	correct	2back	Block3	2back/STIM_022.jpg
1642.767	1.034	correct	2back	Block3	2back/STIM_023.jpg
1646.196	0.749	correct	2back	Block3	2back/STIM_023.jpg
1649.831	0.864	correct	2back	Block3	2back/STIM_023.jpg
1653.053	0.476	correct	2back	Block3	2back/STIM_024.jpg
1656.284	1.04	correct	2back	Block3	2back/STIM_024.jpg
1659.854	0.818	correct	2back	Block3	2back/STIM_024.jpg
1664.285	0.641	correct	2back	Block3	2back/STIM_025.jpg
1667.49	1.019	correct	2back	Block3	2back/STIM_025.jpg
1671.604	0.774	correct	2back	Block3	2back/STIM_025.jpg
1674.666	1.0	correct	2back	Block3	2back/STIM_026.jpg
1678.908	1.034	correct	2back	Block3	2back/STIM_026.jpg
1683.373	0.878	correct	2back	Block3	2back/STIM_026.jpg
1687.244	0.561	correct	2back	Block3	2back/STIM_027.jpg
1690.152	0.93	correct	2back	Block3	2back/STIM_027.jpg
1693.342	0.913	correct	2back	Block3	2back/STIM_027.jpg
1698.181	0.523	correct	2back	Block3	2back/STIM_028.jpg
1700.942	0.834	correct	2back	Block3	2back/STIM_028.jpg
1704.489	0.591	correct	2back	Block3	2back/STIM_028.jpg
1707.733	0.827	correct	2back	Block3	2back/STIM_029.jpg
1711.557	0.819	correct	2back	Block3	2back/STIM_029.jpg
1714.817	0.992	correct	2back	Block3	2back/STIM_029.jpg
1718.602	0.935	correct	2back	Block3	2back/STIM_030.jpg
1723.284	0.469	correct	2back	Block3	2back/STIM_030.jpg
1727.353	0.83	correct	2back	Block3	2back/STIM_030.jpg
1731.343	0.674	correct	2back	Block3	2back/STIM_031.jpg
1735.353	0.574	correct	2back	Block3	2back/STIM_031.jpg
1738.546	1.002	correct	2back	Block3	2back/STIM_031.jpg
1741.64	0.755	correct	2back	Block3	2back/STIM_032.jpg
1744.47	0.915	correct	2back	Block3	2back/STIM_032.jpg
1747.395	0.94	correct	2back	Block3	2back/STIM_032.jpg
1750.741	0.592	correct	2back	Block3	2back/STIM_033.jpg
1753.997	0.571	correct	2back	Block3	2back/STIM_033.jpg
1757.841	0.556	correct	2back	Block3	2back/STIM_033.jpg
1761.356	0.632	correct	2back	Block3	2back/STIM_034.jpg
1764.353	0.741	correct	2back	Block3	2back/STIM_034.jpg
1767.879	1.035	correct	2back	Block3	2back/STIM_034.jpg
1772.1	0.859	correct	2back	Block3	2back/STIM_035.jpg
1776.34	0.649	correct	2back	Block3	2back/STIM_035.jpg
1779.336	0.554	correct	2back	Block3	2back/STIM_035.jpg
1783.03	0.524	correct	2back	Block3	2back/STIM_036.jpg
1786.36	0.724	correct	2back	Block3	2back/STIM_036.jpg
1790.727	0.838	correct	2back	Block3	2back/STIM_036.jpg
1795.312	0.75	correct	2back	Block3	2back/STIM_037.jpg
1799.192	0.492	correct	2back	Block3	2back/STIM_037.jpg
1803.36	0.531	correct	2back	Block3	2back/STIM_037.jpg
1807.127	0.858	correct	2back	Block3	2back/STIM_038.jpg
1810.875	1.049	correct	2back	Block3	2back/STIM_038.jpg
1815.016	1.056	correct	2back	Block3	2back/STIM_038.jpg
1818.899	0.91	correct	2back	Block3	2back/STIM_039.jpg
1822.877	0.536	correct	2back	Block3	2back/STIM_039.jpg
1825.645	0.511	correct	2back	Block3	2back/STIM_039.jpg
1828.755	0.603	correct	0back	Block3	0back/STIM_000.jpg
1831.732	0.875	correct	0back	Block3	0back/STIM_000.jpg
1836.49	0.499	correct	0back	Block3	0back/STIM_000.jpg
1840.86	0.838	correct	0back	Block3	0back/STIM_001.jpg
1844.843	0.874	correct	0back	Block3	0back/STIM_001.jpg
1848.792	0.51	correct	0back	Block3	0back/STIM_001.jpg
1852.421	0.444	correct	0back	Block3	0back/STIM_002.jpg
1855.845	0.657	correct	0back	Block3	0back/STIM_002.jpg
1859.531	0.852	correct	0back	Block3	0back/STIM_002.jpg
1863.585	0.556	correct	0back	Block3	0back/STIM_003.jpg
1867.795	0.522	correct	0back	Block3	0back/STIM_003.jpg
1872.13	0.509	correct	0back	Block3	0back/STIM_003.jpg
1875.587	0.543	correct	0back	Block3	0back/STIM_004.jpg
1878.982	0.807	correct	0back	Block3	0back/STIM_004.jpg
1883.316	0.513	correct	0back	Block3	0back/STIM_004.jpg
1886.453	0.699	correct	0back	Block3	0back/STIM_005.jpg
1889.277	0.519	correct	0back	Block3	0back/STIM_005.jpg
1893.025	0.541	correct	0back	Block3	0back/STIM_005.jpg
1896.913	0.822	correct	0back	Block3	0back/STIM_006.jpg
1900.302	0.454	correct	0back	Block3	0back/STIM_006.jpg
1904.449	0.639	correct	0back	Block3	0back/STIM_006.jpg
1908.281	0.746	correct	0back	Block3	0back/STIM_007.jpg
1911.107	0.727	correct	0back	Block3	0back/STIM_007.jpg
1915.046	0.692	correct	0back	Block3	0back/STIM_007.jpg
1918.148	0.609	correct	0back	Block3	0back/STIM_008.jpg
1921.633	0.538	correct	0back	Block3	0back/STIM_008.jpg
1925.927	0.514	correct	0back	Block3	0back/STIM_008.jpg
1929.108	0.822	correct	0back	Block3	0back/STIM_009.jpg
1933.212	0.815	correct	0back	Block3	0back/STIM_009.jpg
1936.356	0.796	correct	0back	Block3	0back/STIM_009.jpg
1940.576	0.558	correct	0back	Block3	0back/STIM_010.jpg
1943.956	0.676	correct	0back	Block3	0back/STIM_010.jpg
1948.586	0.548	correct	0back	Block3	0back/STIM_010.jpg
1952.52	0.532	correct	0back	Block3	0back/STIM_011.jpg
1955.343	0.482	correct	0back	Block3	0back/STIM_011.jpg
1959.635	0.626	correct	0back	Block3	0back/STIM_011.jpg
1962.311	0.745	correct	0back	Block3	0back/STIM_012.jpg
1967.05	0.602	correct	0back	Block3	0back/STIM_012.jpg
1969.886	0.65	correct	0back	Block3	0back/STIM_012.jpg
1973.858	0.534	correct	0back	Block3	0back/STIM_013.jpg
1977.687	0.701	correct	0back	Block3	0back/STIM_013.jpg
1981.203	0.493	correct	0back	Block3	0back/STIM_013.jpg
1983.886	0.849	correct	0back	Block3	0back/STIM_014.jpg
1988.083	0.758	correct	0back	Block3	0back/STIM_014.jpg
1992.211	0.855	correct	0back	Block3	0back/STIM_014.jpg
1996.548	0.639	correct	0back	Block3	0back/STIM_015.jpg
1999.621	0.846	correct	0back	Block3	0back/STIM_015.jpg
2003.336	0.7	correct	0back	Block3	0back/STIM_015.jpg
2008.023	0.596	correct	0back	Block3	0back/STIM_016.jpg
2011.586	0.549	correct	0back	Block3	0back/STIM_016.jpg
2014.388	0.647	correct	0back	Block3	0back/STIM_016.jpg
2018.528	0.608	correct	0back	Block3	0back/STIM_017.jpg
2023.012	0.786	correct	0back	Block3	0back/STIM_017.jpg
2027.59	0.49	correct	0back	Block3	0back/STIM_017.jpg
2030.355	0.539	correct	0back	Block3	0back/STIM_018.jpg
2034.172	0.839	correct	0back	Block3	0back/STIM_018.jpg
2037.772	0.853	correct	0back	Block3	0back/STIM_018.jpg
2041.706	0.484	correct	0back	Block3	0back/STIM_019.jpg
2045.767	0.557	correct	0back	Block3	0back/STIM_019.jpg
2048.664	0.772	correct	0back	Block3	0back/STIM_019.jpg
2052.94	1.06	correct	2back	Block4	2back/STIM_000.jpg
2056.267	0.491	correct	2back	Block4	2back/STIM_000.jpg
2059.839	0.636	correct	2back	Block4	2back/STIM_000.jpg
2062.649	0.848	correct	2back	Block4	2back/STIM_001.jpg
2066.368	0.489	correct	2back	Block4	2back/STIM_001.jpg
2070.351	0.543	correct	2back	Block4	2back/STIM_001.jpg
2073.99	0.63	correct	2back	Block4	2back/STIM_002.jpg
2077.42	0.55	correct	2back	Block4	2back/STIM_002.jpg
2080.641	0.932	correct	2back	Block4	2back/STIM_002.jpg
2084.02	0.777	correct	2back	Block4	2back/STIM_003.jpg
2087.104	0.766	correct	2back	Block4	2back/STIM_003.jpg
2091.745	0.562	correct	2back	Block4	2back/STIM_003.jpg
2095.893	0.868	correct	2back	Block4	2back/STIM_004.jpg
2100.22	0.696	correct	2back	Block4	2back/STIM_004.jpg
2103.323	0.745	correct	2back	Block4	2back/STIM_004.jpg
2107.493	0.632	correct	2back	Block4	2back/STIM_005.jpg
2110.568	0.6	correct	2back	Block4	2back/STIM_005.jpg
2115.115	0.62	correct	2back	Block4	2back/STIM_005.jpg
2117.912	1.069	correct	2back	Block4	2back/STIM_006.jpg
2121.028	0.977	correct	2back	Block4	2back/STIM_006.jpg
2124.978	0.726	correct	2back	Block4	2back/STIM_006.jpg
2129.505	1.004	correct	2back	Block4	2back/STIM_007.jpg
2134.236	1.043	correct	2back	Block4	2back/STIM_007.jpg
2138.576	1.059	correct	2back	Block4	2back/STIM_007.jpg
2142.783	0.793	correct	2back	Block4	2back/STIM_008.jpg
2146.73	0.531	correct	2back	Block4	2back/STIM_008.jpg
2149.636	0.951	correct	2back	Block4	2back/STIM_008.jpg
2153.896	0.487	correct	2back	Block4	2back/STIM_009.jpg
2157.081	0.972	correct	2back	Block4	2back/STIM_009.jpg
2161.521	0.869	correct	2back	Block4	2back/STIM_009.jpg
2164.609	0.842	correct	2back	Block4	2back/STIM_010.jpg
2168.609	0.509	correct	2back	Block4	2back/STIM_010.jpg
2171.401	0.839	correct	2back	Block4	2back/STIM_010.jpg
2175.01	0.922	correct	2back	Block4	2back/STIM_011.jpg
2177.989	1.022	correct	2back	Block4	2back/STIM_011.jpg
2182.539	0.557	correct	2back	Block4	2back/STIM_011.jpg
2185.218	0.73	correct	2back	Block4	2back/STIM_012.jpg
2187.982	0.867	correct	2back	Block4	2back/STIM_012.jpg
2191.774	0.63	correct	2back	Block4	2back/STIM_012.jpg
2196.088	0.886	correct	2back	Block4	2back/STIM_013.jpg
2199.777	0.92	correct	2back	Block4	2back/STIM_013.jpg
2203.183	0.988	correct	2back	Block4	2back/STIM_013.jpg
2208.141	0.665	correct	2back	Block4	2back/STIM_014.jpg
2211.093	0.692	correct	2back	Block4	2back/STIM_014.jpg
2214.913	0.66	correct	2back	Block4	2back/STIM_014.jpg
2218.035	0.732	correct	2back	Block4	2back/STIM_015.jpg
2221.291	0.693	correct	2back	Block4	2back/STIM_015.jpg
2224.002	0.564	correct	2back	Block4	2back/STIM_015.jpg
2228.224	0.761	correct	2back	Block4	2back/STIM_016.jpg
2232.574	0.792	correct	2back	Block4	2back/STIM_016.jpg
2236.142	0.472	correct	2back	Block4	2back/STIM_016.jpg
2240.555	0.772	correct	2back	Block4	2back/STIM_017.jpg
2245.263	0.906	correct	2back	Block4	2back/STIM_017.jpg
2250.03	0.77	correct	2back	Block4	2back/STIM_017.jpg
2253.73	0.673	correct	2back	Block4	2back/STIM_018.jpg
2256.685	0.929	correct	2back	Block4	2back/STIM_018.jpg
2260.775	0.691	correct	2back	Block4	2back/STIM_018.jpg
2265.424	0.828	correct	2back	Block4	2back/STIM_019.jpg
2268.581	0.513	correct	2back	Block4	2back/STIM_019.jpg
2272.372	0.772	correct	2back	Block4	2back/STIM_019.jpg
2275.86	0.974	correct	2back	Block4	2back/STIM_020.jpg
2278.982	0.964	incorrect	2back	Block4	2back/STIM_020.jpg
2282.243	1.014	correct	2back	Block4	2back/STIM_020.jpg
2286.639	1.064	correct	2back	Block4	2back/STIM_021.jpg
2289.843	0.531	correct	2back	Block4	2back/STIM_021.jpg
2293.05	0.814	correct	2back	Block4	2back/STIM_021.jpg
2296.97	0.951	correct	2back	Block4	2back/STIM_022.jpg
2300.741	0.669	correct	2back	Block4	2back/STIM_022.jpg
2304.228	0.536	correct	2back	Block4	2back/STIM_022.jpg
2308.573	0.885	correct	2back	Block4	2back/STIM_023.jpg
2312.133	0.96	correct	2back	Block4	2back/STIM_023.jpg
2315.732	0.696	correct	2back	Block4	2back/STIM_023.jpg
2319.894	0.479	correct	2back	Block4	2back/STIM_024.jpg
2322.578	0.866	correct	2back	Block4	2back/STIM_024.jpg
2327.323	0.648	correct	2back	Block4	2back/STIM_024.jpg
2331.44	0.702	correct	2back	Block4	2back/STIM_025.jpg
2335.252	0.757	correct	2back	Block4	2back/STIM_025.jpg
2339.071	0.917	correct	2back	Block4	2back/STIM_025.jpg
2342.372	0.506	correct	2back	Block4	2back/STIM_026.jpg
2345.336	0.745	correct	2back	Block4	2back/STIM_026.jpg
2349.413	0.932	correct	2back	Block4	2back/STIM_026.jpg
2352.998	0.525	correct	2back	Block4	2back/STIM_027.jpg
2356.437	0.588	correct	2back	Block4	2back/STIM_027.jpg
2359.204	0.61	correct	2back	Block4	2back/STIM_027.jpg
2363.762	0.824	correct	2back	Block4	2back/STIM_028.jpg
2367.65	0.567	correct	2back	Block4	2back/STIM_028.jpg
2370.892	1.014	correct	2back	Block4	2back/STIM_028.jpg
2375.101	1.06	correct	2back	Block4	2back/STIM_029.jpg
2379.062	0.616	correct	2back	Block4	2back/STIM_029.jpg
2383.123	0.942	correct	2back	Block4	2back/STIM_029.jpg
2386.629	0.895	correct	2back	Block4	2back/STIM_030.jpg
2390.729	0.931	correct	2back	Block4	2back/STIM_030.jpg
2395.145	0.836	correct	2back	Block4	2back/STIM_030.jpg
2399.05	0.486	correct	2back	Block4	2back/STIM_031.jpg
2402.969	0.998	correct	2back	Block4	2back/STIM_031.jpg
2406.708	0.674	correct	2back	Block4	2back/STIM_031.jpg
2410.176	0.482	correct	2back	Block4	2back/STIM_032.jpg
2413.76	0.658	correct	2back	Block4	2back/STIM_032.jpg
2417.637	0.708	incorrect	2back	Block4	2back/STIM_032.jpg
2421.3	0.813	correct	2back	Block4	2back/STIM_033.jpg
2425.607	0.877	correct	2back	Block4	2back/STIM_033.jpg
2429.422	0.638	correct	2back	Block4	2back/STIM_033.jpg
2432.981	0.629	correct	2back	Block4	2back/STIM_034.jpg
2435.831	0.903	correct	2back	Block4	2back/STIM_034.jpg
2438.823	0.568	correct	2back	Block4	2back/STIM_034.jpg
2441.553	0.704	correct	2back	Block4	2back/STIM_035.jpg
2445.586	0.604	correct	2back	Block4	2back/STIM_035.jpg
2449.675	0.582	correct	2back	Block4	2back/STIM_035.jpg
2452.297	1.062	correct	2back	Block4	2back/STIM_036.jpg
2456.985	0.875	correct	2back	Block4	2back/STIM_036.jpg
2461.652	0.904	correct	2back	Block4	2back/STIM_036.jpg
2464.936	0.66	correct	2back	Block4	2back/STIM_037.jpg
2469.522	0.655	correct	2back	Block4	2back/STIM_037.jpg
2473.008	0.625	correct	2back	Block4	2back/STIM_037.jpg
2476.969	0.729	correct	2back	Block4	2back/STIM_038.jpg
2480.074	0.549	correct	2back	Block4	2back/STIM_038.jpg
2483.605	0.654	correct	2back	Block4	2back/STIM_038.jpg
2487.058	1.052	correct	2back	Block4	2back/STIM_039.jpg
2490.934	0.986	correct	2back	Block4	2back/STIM_039.jpg
2494.132	0.605	correct	2back	Block4	2back/STIM_039.jpg
2497.49	0.464	correct	0back	Block4	0back/STIM_000.jpg
2501.027	0.588	correct	0back	Block4	0back/STIM_000.jpg
2503.809	0.498	correct	0back	Block4	0back/STIM_000.jpg
2507.238	0.656	correct	0back	Block4	0back/STIM_001.jpg
2509.911	0.77	correct	0back	Block4	0back/STIM_001.jpg
2513.507	0.461	correct	0back	Block4	0back/STIM_001.jpg
2516.607	0.67	correct	0back	Block4	0back/STIM_002.jpg
2519.343	0.842	correct	0back	Block4	0back/STIM_002.jpg
2522.656	0.877	correct	0back	Block4	0back/STIM_002.jpg
2527.337	0.667	correct	0back	Block4	0back/STIM_003.jpg
2530.232	0.446	correct	0back	Block4	0back/STIM_003.jpg
2534.654	0.778	correct	0back	Block4	0back/STIM_003.jpg
2538.991	0.566	correct	0back	Block4	0back/STIM_004.jpg
2542.931	0.665	correct	0back	Block4	0back/STIM_004.jpg
2546.328	0.529	correct	0back	Block4	0back/STIM_004.jpg
2550.563	0.84	correct	0back	Block4	0back/STIM_005.jpg
2554.032	0.473	correct	0back	Block4	0back/STIM_005.jpg
2557.694	0.524	correct	0back	Block4	0back/STIM_005.jpg
2560.56	0.694	correct	0back	Block4	0back/STIM_006.jpg
2563.453	0.634	correct	0back	Block4	0back/STIM_006.jpg
2566.777	0.742	correct	0back	Block4	0back/STIM_006.jpg
2569.564	0.453	correct	0back	Block4	0back/STIM_007.jpg
2572.684	0.587	correct	0back	Block4	0back/STIM_007.jpg
2576.783	0.476	correct	0back	Block4	0back/STIM_007.jpg
2581.023	0.672	correct	0back	Block4	0back/STIM_008.jpg
2584.235	0.738	correct	0back	Block4	0back/STIM_008.jpg
2588.18	0.596	correct	0back	Block4	0back/STIM_008.jpg
2591.454	0.578	correct	0back	Block4	0back/STIM_009.jpg
2594.164	0.847	correct	0back	Block4	0back/STIM_009.jpg
2597.555	0.678	correct	0back	Block4	0back/STIM_009.jpg
2601.433	0.738	correct	0back	Block4	0back/STIM_010.jpg
2606.032	0.506	correct	0back	Block4	0back/STIM_010.jpg
2608.914	0.827	correct	0back	Block4	0back/STIM_010.jpg
2612.585	0.813	correct	0back	Block4	0back/STIM_011.jpg
2615.885	0.582	correct	0back	Block4	0back/STIM_011.jpg
2620.389	0.615	correct	0back	Block4	0back/STIM_011.jpg
2623.631	0.689	correct	0back	Block4	0back/STIM_012.jpg
2627.049	0.797	correct	0back	Block4	0back/STIM_012.jpg
2631.539	0.618	correct	0back	Block4	0back/STIM_012.jpg
2635.355	0.49	correct	0back	Block4	0back/STIM_013.jpg
2638.346	0.616	correct	0back	Block4	0back/STIM_013.jpg
2642.863	0.859	correct	0back	Block4	0back/STIM_013.jpg
2647.159	0.881	correct	0back	Block4	0back/STIM_014.jpg
2650.899	0.619	correct	0back	Block4	0back/STIM_014.jpg
2655.447	0.626	correct	0back	Block4	0back/STIM_014.jpg
2659.652	0.567	correct	0back	Block4	0back/STIM_015.jpg
2662.905	0.634	correct	0back	Block4	0back/STIM_015.jpg
2665.612	0.723	correct	0back	Block4	0back/STIM_015.jpg
2669.6	0.671	correct	0back	Block4	0back/STIM_016.jpg
2673.306	0.485	correct	0back	Block4	0back/STIM_016.jpg
2677.542	0.757	correct	0back	Block4	0back/STIM_016.jpg
2681.991	0.472	correct	0back	Block4	0back/STIM_017.jpg
2686.419	0.843	correct	0back	Block4	0back/STIM_017.jpg
2691.199	0.705	correct	0back	Block4	0back/STIM_017.jpg
2695.148	0.717	correct	0back	Block4	0back/STIM_018.jpg
2697.938	0.562	correct	0back	Block4	0back/STIM_018.jpg
2701.734	0.444	correct	0back	Block4	0back/STIM_018.jpg
2705.507	0.571	correct	0back	Block4	0back/STIM_019.jpg
2708.726	0.775	correct	0back	Block4	0back/STIM_019.jpg
2712.718	0.85	correct	0back	Block4	0back/STIM_019.jpg
