onset	duration	response_time_ms	trial_type	learning_stage	stimulus	response_port
0.0	0.655	655.1	2back	Block1	2back/STIM_000.jpg	100
4.249	0.797	797.0	2back	Block1	2back/STIM_000.jpg	99
8.473	1.158	1157.8	2back	Block1	2back/STIM_000.jpg	99
12.729	1.126	1126.4	2back	Block1	2back/STIM_001.jpg	99
16.093	1.072	1072.4	2back	Block1	2back/STIM_001.jpg	100
20.547	0.747	747.2	2back	Block1	2back/STIM_001.jpg	99
23.739	1.188	1187.7	2back	Block1	2back/STIM_002.jpg	99
27.575	1.331	1330.7	2back	Block1	2back/STIM_002.jpg	99
31.601	0.77	769.8	2back	Block1	2back/STIM_002.jpg	100
35.181	1.249	1249.3	2back	Block1	2back/STIM_003.jpg	99
38.971	0.608	607.5	2back	Block1	2back/STIM_003.jpg	100
42.588	1.164	1163.9	2back	Block1	2back/STIM_003.jpg	100
46.918	1.048	1048.4	2back	Block1	2back/STIM_004.jpg	99
50.865	0.847	847.4	2back	Block1	2back/STIM_004.jpg	99
55.429	0.589	589.1	2back	Block1	2back/STIM_004.jpg	100
59.546	1.347	1346.6	2back	Block1	2back/STIM_005.jpg	99
64.541	0.829	828.7	2back	Block1	2back/STIM_005.jpg	100
68.506	1.245	1245.4	2back	Block1	2back/STIM_005.jpg	100
72.984	1.037	1037.1	2back	Block1	2back/STIM_006.jpg	100
77.812	0.859	859.3	2back	Block1	2back/STIM_006.jpg	100
82.13	1.02	1020.3	2back	Block1	2back/STIM_006.jpg	99
85.742	1.413	1412.7	2back	Block1	2back/STIM_007.jpg	100
90.875	0.847	847.2	2back	Block1	2back/STIM_007.jpg	99
94.751	1.021	1021.4	2back	Block1	2back/STIM_007.jpg	100
99.726	0.789	789.0	2back	Block1	2back/STIM_008.jpg	100
104.046	0.677	676.9	2back	Block1	2back/STIM_008.jpg	99
107.315	0.774	773.6	2back	Block1	2back/STIM_008.jpg	99
110.827	0.957	957.2	2back	Block1	2back/STIM_009.jpg	100
113.997	1.197	1196.9	2back	Block1	2back/STIM_009.jpg	99
118.42	1.153	1153.3	2back	Block1	2back/STIM_009.jpg	100
122.262	0.776	775.9	2back	Block1	2back/STIM_010.jpg	100
126.354	0.647	647.3	2back	Block1	2back/STIM_010.jpg	99
129.146	0.828	827.6	2back	Block1	2back/STIM_010.jpg	99
132.78	0.645	645.2	2back	Block1	2back/STIM_011.jpg	100
136.825	1.257	1256.6	2back	Block1	2back/STIM_011.jpg	100
141.18	0.634	634.4	2back	Block1	2back/STIM_011.jpg	100
145.704	0.712	712.4	2back	Block1	2back/STIM_012.jpg	99
150.022	1.263	1263.1	2back	Block1	2back/STIM_012.jpg	99
155.184	1.021	1021.4	2back	Block1	2back/STIM_012.jpg	100
159.549	1.27	1270.1	2back	Block1	2back/STIM_013.jpg	99
164.101	0.782	782.2	2back	Block1	2back/STIM_013.jpg	99
168.385	1.198	1197.9	2back	Block1	2back/STIM_013.jpg	100
173.122	0.652	652.1	2back	Block1	2back/STIM_014.jpg	99
175.988	1.051	1051.1	2back	Block1	2back/STIM_014.jpg	100
180.212	1.187	1187.3	2back	Block1	2back/STIM_014.jpg	99
183.603	0.719	719.0	2back	Block1	2back/STIM_015.jpg	99
188.303	1.366	1366.4	2back	Block1	2back/STIM_015.jpg	100
193.498	0.974	973.8	2back	Block1	2back/STIM_015.jpg	100
197.355	1.146	1146.4	2back	Block1	2back/STIM_016.jpg	99
200.906	1.171	1171.4	2back	Block1	2back/STIM_016.jpg	100
204.204	1.136	1135.9	2back	Block1	2back/STIM_016.jpg	100
208.801	1.345	1344.6	2back	Block1	2back/STIM_017.jpg	99
213.296	0.945	944.6	2back	Block1	2back/STIM_017.jpg	99
216.425	1.144	1143.5	2back	Block1	2back/STIM_017.jpg	99
219.661	1.31	1310.5	2back	Block1	2back/STIM_018.jpg	100
224.071	0.951	950.6	2back	Block1	2back/STIM_018.jpg	99
228.307	1.163	1162.7	2back	Block1	2back/STIM_018.jpg	99
231.873	0.627	627.1	2back	Block1	2back/STIM_019.jpg	99
234.506	0.857	857.4	2back	Block1	2back/STIM_019.jpg	99
237.658	0.715	715.3	2back	Block1	2back/STIM_019.jpg	100
241.79	0.77	769.7	2back	Block1	2back/STIM_020.jpg	100
246.325	1.19	1189.7	2back	Block1	2back/STIM_020.jpg	99
251.199	0.85	849.8	2back	Block1	2back/STIM_020.jpg	99
254.422	1.309	1308.6	2back	Block1	2back/STIM_021.jpg	100
258.814	1.123	1123.0	2back	Block1	2back/STIM_021.jpg	100
263.845	1.04	1039.7	2back	Block1	2back/STIM_021.jpg	100
267.807	1.112	1111.9	2back	Block1	2back/STIM_022.jpg	99
272.359	0.745	745.3	2back	Block1	2back/STIM_022.jpg	100
276.662	0.612	611.9	2back	Block1	2back/STIM_022.jpg	99
280.128	0.624	623.5	2back	Block1	2back/STIM_023.jpg	100
283.432	1.33	1329.8	2back	Block1	2back/STIM_023.jpg	100
287.582	1.048	1048.5	2back	Block1	2back/STIM_023.jpg	99
291.383	0.943	942.6	2back	Block1	2back/STIM_024.jpg	100
294.797	0.982	981.6	2back	Block1	2back/STIM_024.jpg	100
299.766	0.912	911.7	2back	Block1	2back/STIM_024.jpg	100
304.52	1.018	1017.5	2back	Block1	2back/STIM_025.jpg	100
308.04	1.372	1372.0	2back	Block1	2back/STIM_025.jpg	100
312.416	0.902	902.2	2back	Block1	2back/STIM_025.jpg	99
317.193	0.766	765.8	2back	Block1	2back/STIM_026.jpg	100
321.057	1.168	1168.0	2back	Block1	2back/STIM_026.jpg	99
325.995	1.004	1003.8	2back	Block1	2back/STIM_026.jpg	99
329.944	0.896	895.8	2back	Block1	2back/STIM_027.jpg	100
333.025	0.922	921.8	2back	Block1	2back/STIM_027.jpg	100
337.216	0.989	988.8	2back	Block1	2back/STIM_027.jpg	100
341.159	1.219	1219.0	2back	Block1	2back/STIM_028.jpg	99
346.344	0.936	935.5	2back	Block1	2back/STIM_028.jpg	99
350.986	1.013	1013.4	2back	Block1	2back/STIM_028.jpg	100
354.191	0.896	896.4	2back	Block1	2back/STIM_029.jpg	99
357.52	0.864	864.5	2back	Block1	2back/STIM_029.jpg	99
361.384	1.128	1127.6	2back	Block1	2back/STIM_029.jpg	99
365.355	1.057	1057.0	2back	Block1	2back/STIM_030.jpg	99
370.305	1.069	1068.6	2back	Block1	2back/STIM_030.jpg	100
374.336	1.018	1017.9	2back	Block1	2back/STIM_030.jpg	99
377.698	0.773	773.4	2back	Block1	2back/STIM_031.jpg	100
381.894	0.63	630.1	2back	Block1	2back/STIM_031.jpg	99
386.303	0.89	890.5	2back	Block1	2back/STIM_031.jpg	99
389.552	0.93	929.7	2back	Block1	2back/STIM_032.jpg	99
394.327	0.706	706.4	2back	Block1	2back/STIM_032.jpg	99
397.101	0.871	871.0	2back	Block1	2back/STIM_032.jpg	99
401.416	0.713	712.6	2back	Block1	2back/STIM_033.jpg	99
406.033	1.117	1117.2	2back	Block1	2back/STIM_033.jpg	100
409.922	0.917	916.8	2back	Block1	2back/STIM_033.jpg	99
413.334	1.038	1037.6	2back	Block1	2back/STIM_034.jpg	99
418.321	1.334	1334.0	2back	Block1	2back/STIM_034.jpg	100
423.493	0.852	851.8	2back	Block1	2back/STIM_034.jpg	99
427.957	0.733	733.3	2back	Block1	2back/STIM_035.jpg	99
431.168	1.146	1146.5	2back	Block1	2back/STIM_035.jpg	99
435.081	0.871	870.7	2back	Block1	2back/STIM_035.jpg	99
439.857	0.871	870.8	2back	Block1	2back/STIM_036.jpg	100
443.339	0.947	946.8	2back	Block1	2back/STIM_036.jpg	100
446.621	0.575	574.9	2back	Block1	2back/STIM_036.jpg	99
450.398	0.75	750.2	2back	Block1	2back/STIM_037.jpg	99
454.116	0.629	629.1	2back	Block1	2back/STIM_037.jpg	99
458.543	0.634	633.5	2back	Block1	2back/STIM_037.jpg	99
461.269	1.038	1038.1	2back	Block1	2back/STIM_038.jpg	100
464.456	0.864	863.7	2back	Block1	2back/STIM_038.jpg	99
468.342	0.899	899.2	2back	Block1	2back/STIM_038.jpg	100
472.28	0.851	851.2	2back	Block1	2back/STIM_039.jpg	99
475.678	1.165	1165.0	2back	Block1	2back/STIM_039.jpg	100
480.379	0.782	782.0	2back	Block1	2back/STIM_039.jpg	100
484.036	0.438	438.2	0back	Block1	0back/STIM_000.jpg	100
486.602	0.695	695.4	0back	Block1	0back/STIM_000.jpg	100
490.669	0.723	722.7	0back	Block1	0back/STIM_000.jpg	99
493.47	0.81	809.8	0back	Block1	0back/STIM_001.jpg	100
497.876	0.828	827.9	0back	Block1	0back/STIM_001.jpg	99
501.64	0.683	683.4	0back	Block1	0back/STIM_001.jpg	99
504.85	0.74	739.6	0back	Block1	0back/STIM_002.jpg	100
508.975	0.449	448.6	0back	Block1	0back/STIM_002.jpg	99
513.21	0.709	708.8	0back	Block1	0back/STIM_002.jpg	100
516.294	0.501	501.4	0back	Block1	0back/STIM_003.jpg	100
519.617	0.707	706.8	0back	Block1	0back/STIM_003.jpg	100
522.423	0.756	756.2	0back	Block1	0back/STIM_003.jpg	100
526.048	0.569	569.4	0back	Block1	0back/STIM_004.jpg	100
529.567	0.417	416.9	0back	Block1	0back/STIM_004.jpg	99
532.938	0.419	419.4	0back	Block1	0back/STIM_004.jpg	100
537.089	0.682	682.0	0back	Block1	0back/STIM_005.jpg	100
541.102	0.503	502.9	0back	Block1	0back/STIM_005.jpg	100
545.035	0.522	521.9	0back	Block1	0back/STIM_005.jpg	99
548.25	0.437	437.2	0back	Block1	0back/STIM_006.jpg	99
552.252	0.461	461.2	0back	Block1	0back/STIM_006.jpg	99
555.694	0.647	647.1	0back	Block1	0back/STIM_006.jpg	99
560.24	0.505	504.6	0back	Block1	0back/STIM_007.jpg	99
562.797	0.465	465.2	0back	Block1	0back/STIM_007.jpg	100
566.949	0.628	627.9	0back	Block1	0back/STIM_007.jpg	99
571.423	0.628	627.9	0back	Block1	0back/STIM_008.jpg	99
575.481	0.571	570.7	0back	Block1	0back/STIM_008.jpg	100
579.484	0.439	439.0	0back	Block1	0back/STIM_008.jpg	99
583.425	0.75	750.4	0back	Block1	0back/STIM_009.jpg	99
587.264	0.628	628.1	0back	Block1	0back/STIM_009.jpg	100
590.025	0.534	533.5	0back	Block1	0back/STIM_009.jpg	99
592.708	0.562	562.1	0back	Block1	0back/STIM_010.jpg	100
596.737	0.562	561.7	0back	Block1	0back/STIM_010.jpg	100
599.612	0.56	559.5	0back	Block1	0back/STIM_010.jpg	100
602.762	0.73	729.6	0back	Block1	0back/STIM_011.jpg	100
606.988	0.808	807.6	0back	Block1	0back/STIM_011.jpg	99
610.06	0.62	620.2	0back	Block1	0back/STIM_011.jpg	100
612.999	0.822	822.5	0back	Block1	0back/STIM_012.jpg	100
617.788	0.77	769.8	0back	Block1	0back/STIM_012.jpg	99
621.119	0.815	815.0	0back	Block1	0back/STIM_012.jpg	99
624.778	0.468	467.7	0back	Block1	0back/STIM_013.jpg	99
629.174	0.648	647.7	0back	Block1	0back/STIM_013.jpg	99
632.958	0.449	448.6	0back	Block1	0back/STIM_013.jpg	100
636.778	0.598	598.4	0back	Block1	0back/STIM_014.jpg	100
640.489	0.719	719.4	0back	Block1	0back/STIM_014.jpg	99
644.917	0.454	454.2	0back	Block1	0back/STIM_014.jpg	99
648.745	0.534	534.1	0back	Block1	0back/STIM_015.jpg	100
652.222	0.538	538.5	0back	Block1	0back/STIM_015.jpg	99
656.174	0.721	721.4	0back	Block1	0back/STIM_015.jpg	100
659.037	0.65	649.6	0back	Block1	0back/STIM_016.jpg	100
661.741	0.629	629.4	0back	Block1	0back/STIM_016.jpg	99
665.144	0.779	778.8	0back	Block1	0back/STIM_016.jpg	99
669.923	0.704	704.5	0back	Block1	0back/STIM_017.jpg	100
672.955	0.712	711.6	0back	Block1	0back/STIM_017.jpg	100
676.329	0.686	685.6	0back	Block1	0back/STIM_017.jpg	100
680.482	0.501	500.9	0back	Block1	0back/STIM_018.jpg	100
684.806	0.76	760.2	0back	Block1	0back/STIM_018.jpg	100
689.06	0.802	801.9	0back	Block1	0back/STIM_018.jpg	100
693.576	0.575	574.6	0back	Block1	0back/STIM_019.jpg	100
697.512	0.775	775.0	0back	Block1	0back/STIM_019.jpg	99
701.236	0.574	574.3	0back	Block1	0back/STIM_019.jpg	100
704.819	0.535	535.1	2back	Block2	2back/STIM_000.jpg	100
708.024	0.694	694.2	2back	Block2	2back/STIM_000.jpg	99
712.208	0.689	688.6	2back	Block2	2back/STIM_000.jpg	100
716.01	0.79	789.7	2back	Block2	2back/STIM_001.jpg	100
719.974	0.937	937.1	2back	Block2	2back/STIM_001.jpg	99
724.007	0.726	725.6	2back	Block2	2back/STIM_001.jpg	99
727.95	1.069	1068.6	2back	Block2	2back/STIM_002.jpg	100
731.95	0.681	681.2	2back	Block2	2back/STIM_002.jpg	100
736.35	0.512	511.7	2back	Block2	2back/STIM_002.jpg	99
739.134	0.959	959.0	2back	Block2	2back/STIM_003.jpg	100
743.651	1.142	1142.0	2back	Block2	2back/STIM_003.jpg	99
747.588	0.553	553.2	2back	Block2	2back/STIM_003.jpg	99
750.906	0.676	676.0	2back	Block2	2back/STIM_004.jpg	100
753.773	0.764	763.5	2back	Block2	2back/STIM_004.jpg	99
757.519	1.046	1045.7	2back	Block2	2back/STIM_004.jpg	100
760.854	0.806	806.4	2back	Block2	2back/STIM_005.jpg	99
764.438	0.881	880.7	2back	Block2	2back/STIM_005.jpg	100
768.612	0.969	969.1	2back	Block2	2back/STIM_005.jpg	99
772.973	0.642	642.4	2back	Block2	2back/STIM_006.jpg	100
776.787	1.131	1130.7	2back	Block2	2back/STIM_006.jpg	99
780.38	0.954	954.4	2back	Block2	2back/STIM_006.jpg	99
783.723	1.136	1135.8	2back	Block2	2back/STIM_007.jpg	100
788.856	0.96	959.9	2back	Block2	2back/STIM_007.jpg	100
792.719	0.98	980.0	2back	Block2	2back/STIM_007.jpg	100
796.74	0.73	730.1	2back	Block2	2back/STIM_008.jpg	100
801.396	1.005	1005.0	2back	Block2	2back/STIM_008.jpg	99
805.59	0.752	751.6	2back	Block2	2back/STIM_008.jpg	99
810.045	0.61	609.8	2back	Block2	2back/STIM_009.jpg	100
813.298	1.135	1134.8	2back	Block2	2back/STIM_009.jpg	99
817.78	0.715	715.0	2back	Block2	2back/STIM_009.jpg	100
822.113	0.735	735.3	2back	Block2	2back/STIM_010.jpg	99
826.566	0.837	837.1	2back	Block2	2back/STIM_010.jpg	100
829.627	0.73	730.3	2back	Block2	2back/STIM_010.jpg	99
832.848	1.193	1193.3	2back	Block2	2back/STIM_011.jpg	100
836.564	0.654	653.8	2back	Block2	2back/STIM_011.jpg	99
839.469	0.588	588.2	2back	Block2	2back/STIM_011.jpg	99
842.946	0.988	988.2	2back	Block2	2back/STIM_012.jpg	100
846.525	0.814	813.6	2back	Block2	2back/STIM_012.jpg	99
849.592	0.974	973.7	2back	Block2	2back/STIM_012.jpg	99
853.663	0.898	897.7	2back	Block2	2back/STIM_013.jpg	100
857.105	0.669	668.6	2back	Block2	2back/STIM_013.jpg	99
860.215	1.081	1080.8	2back	Block2	2back/STIM_013.jpg	99
863.973	0.741	741.3	2back	Block2	2back/STIM_014.jpg	99
868.402	0.604	603.9	2back	Block2	2back/STIM_014.jpg	99
872.987	0.811	810.6	2back	Block2	2back/STIM_014.jpg	99
877.189	0.765	765.2	2back	Block2	2back/STIM_015.jpg	99
881.766	0.503	502.9	2back	Block2	2back/STIM_015.jpg	100
885.567	0.872	872.3	2back	Block2	2back/STIM_015.jpg	100
890.049	0.711	711.0	2back	Block2	2back/STIM_016.jpg	100
893.037	0.592	591.9	2back	Block2	2back/STIM_016.jpg	99
895.825	0.58	580.3	2back	Block2	2back/STIM_016.jpg	99
899.778	1.103	1102.8	2back	Block2	2back/STIM_017.jpg	100
904.114	0.799	799.0	2back	Block2	2back/STIM_017.jpg	99
907.102	0.945	945.1	2back	Block2	2back/STIM_017.jpg	99
910.302	0.809	808.8	2back	Block2	2back/STIM_018.jpg	99
914.972	0.681	681.4	2back	Block2	2back/STIM_018.jpg	99
919.046	1.055	1055.2	2back	Block2	2back/STIM_018.jpg	99
922.783	1.116	1115.8	2back	Block2	2back/STIM_019.jpg	99
927.427	0.935	934.8	2back	Block2	2back/STIM_019.jpg	100
930.85	0.847	846.8	2back	Block2	2back/STIM_019.jpg	99
934.776	0.532	531.9	2back	Block2	2back/STIM_020.jpg	99
938.129	0.562	562.4	2back	Block2	2back/STIM_020.jpg	100
942.193	0.842	842.4	2back	Block2	2back/STIM_020.jpg	100
946.14	0.872	872.1	2back	Block2	2back/STIM_021.jpg	99
950.473	1.132	1132.2	2back	Block2	2back/STIM_021.jpg	99
953.78	0.774	774.3	2back	Block2	2back/STIM_021.jpg	100
958.092	0.914	913.9	2back	Block2	2back/STIM_022.jpg	99
961.772	0.811	811.2	2back	Block2	2back/STIM_022.jpg	99
965.304	0.731	730.6	2back	Block2	2back/STIM_022.jpg	100
968.844	1.22	1220.5	2back	Block2	2back/STIM_023.jpg	99
973.203	0.7	699.7	2back	Block2	2back/STIM_023.jpg	99
977.164	0.978	978.4	2back	Block2	2back/STIM_023.jpg	100
981.682	0.751	751.1	2back	Block2	2back/STIM_024.jpg	100
985.618	0.884	884.4	2back	Block2	2back/STIM_024.jpg	100
990.079	0.953	952.6	2back	Block2	2back/STIM_024.jpg	99
993.958	0.952	952.0	2back	Block2	2back/STIM_025.jpg	100
998.436	0.897	897.0	2back	Block2	2back/STIM_025.jpg	99
1002.661	0.481	480.6	2back	Block2	2back/STIM_025.jpg	99
1005.77	0.997	996.8	2back	Block2	2back/STIM_026.jpg	99
1009.882	0.602	602.2	2back	Block2	2back/STIM_026.jpg	100
1013.875	0.564	564.3	2back	Block2	2back/STIM_026.jpg	99
1016.926	0.815	815.4	2back	Block2	2back/STIM_027.jpg	100
1021.411	0.684	684.2	2back	Block2	2back/STIM_027.jpg	99
1024.66	0.886	885.9	2back	Block2	2back/STIM_027.jpg	99
1028.04	0.796	795.8	2back	Block2	2back/STIM_028.jpg	100
1032.823	0.888	888.5	2back	Block2	2back/STIM_028.jpg	99
1036.185	0.896	896.2	2back	Block2	2back/STIM_028.jpg	100
1040.301	0.616	615.8	2back	Block2	2back/STIM_029.jpg	99
1043.443	0.499	498.8	2back	Block2	2back/STIM_029.jpg	99
1047.802	0.761	760.8	2back	Block2	2back/STIM_029.jpg	100
1050.614	1.023	1022.7	2back	Block2	2back/STIM_030.jpg	99
1054.079	0.762	761.6	2back	Block2	2back/STIM_030.jpg	99
1058.461	0.604	603.8	2back	Block2	2back/STIM_030.jpg	100
1062.889	0.94	940.2	2back	Block2	2back/STIM_031.jpg	99
1066.427	0.585	584.8	2back	Block2	2back/STIM_031.jpg	100
1070.039	0.991	990.6	2back	Block2	2back/STIM_031.jpg	100
1073.7	0.965	965.3	2back	Block2	2back/STIM_032.jpg	99
1078.359	0.936	935.5	2back	Block2	2back/STIM_032.jpg	100
1082.53	0.629	628.7	2back	Block2	2back/STIM_032.jpg	99
1086.039	0.879	878.9	2back	Block2	2back/STIM_033.jpg	100
1089.34	0.511	511.5	2back	Block2	2back/STIM_033.jpg	100
1092.59	0.816	815.8	2back	Block2	2back/STIM_033.jpg	100
1096.151	0.712	711.6	2back	Block2	2back/STIM_034.jpg	99
1100.131	0.753	753.2	2back	Block2	2back/STIM_034.jpg	99
1104.646	0.912	911.6	2back	Block2	2back/STIM_034.jpg	99
1109.015	0.811	811.4	2back	Block2	2back/STIM_035.jpg	100
1112.046	0.944	943.6	2back	Block2	2back/STIM_035.jpg	99
1115.423	0.718	718.4	2back	Block2	2back/STIM_035.jpg	99
1118.581	0.639	639.0	2back	Block2	2back/STIM_036.jpg	100
1121.432	0.876	876.3	2back	Block2	2back/STIM_036.jpg	99
1124.743	0.994	993.9	2back	Block2	2back/STIM_036.jpg	99
1129.648	1.173	1172.9	2back	Block2	2back/STIM_037.jpg	99
1134.268	0.528	527.5	2back	Block2	2back/STIM_037.jpg	100
1138.536	0.875	875.0	2back	Block2	2back/STIM_037.jpg	100
1142.924	1.15	1149.8	2back	Block2	2back/STIM_038.jpg	99
1146.35	0.506	505.7	2back	Block2	2back/STIM_038.jpg	100
1149.457	0.842	841.7	2back	Block2	2back/STIM_038.jpg	100
1153.634	0.714	714.1	2back	Block2	2back/STIM_039.jpg	99
1158.155	0.695	695.1	2back	Block2	2back/STIM_039.jpg	100
1162.751	0.481	481.0	2back	Block2	2back/STIM_039.jpg	99
1165.303	0.614	613.7	0back	Block2	0back/STIM_000.jpg	99
1169.917	0.458	457.7	0back	Block2	0back/STIM_000.jpg	100
1172.755	0.785	784.7	0back	Block2	0back/STIM_000.jpg	100
1176.647	0.782	781.5	0back	Block2	0back/STIM_001.jpg	100
1179.497	0.817	817.4	0back	Block2	0back/STIM_001.jpg	100
1183.328	0.679	678.9	0back	Block2	0back/STIM_001.jpg	99
1186.867	0.621	620.6	0back	Block2	0back/STIM_002.jpg	99
1190.221	0.805	805.1	0back	Block2	0back/STIM_002.jpg	99
1193.058	0.466	466.0	0back	Block2	0back/STIM_002.jpg	100
1197.21	0.497	497.2	0back	Block2	0back/STIM_003.jpg	100
1201.411	0.476	475.8	0back	Block2	0back/STIM_003.jpg	100
1205.54	0.557	557.2	0back	Block2	0back/STIM_003.jpg	99
1209.272	0.507	507.2	0back	Block2	0back/STIM_004.jpg	99
1212.981	0.532	532.0	0back	Block2	0back/STIM_004.jpg	99
1217.385	0.446	446.3	0back	Block2	0back/STIM_004.jpg	99
1220.686	0.539	539.0	0back	Block2	0back/STIM_005.jpg	100
1224.744	0.571	571.4	0back	Block2	0back/STIM_005.jpg	99
1228.658	0.618	617.7	0back	Block2	0back/STIM_005.jpg	100
1232.632	0.633	633.1	0back	Block2	0back/STIM_006.jpg	99
1236.698	0.602	602.0	0back	Block2	0back/STIM_006.jpg	99
1240.939	0.484	483.7	0back	Block2	0back/STIM_006.jpg	99
1244.244	0.794	794.0	0back	Block2	0back/STIM_007.jpg	99
1248.456	0.82	820.4	0back	Block2	0back/STIM_007.jpg	99
1252.985	0.767	766.7	0back	Block2	0back/STIM_007.jpg	99
1256.908	0.714	713.7	0back	Block2	0back/STIM_008.jpg	99
1260.781	0.508	507.8	0back	Block2	0back/STIM_008.jpg	100
1264.448	0.791	790.7	0back	Block2	0back/STIM_008.jpg	99
1268.311	0.598	598.1	0back	Block2	0back/STIM_009.jpg	100
1271.489	0.789	789.0	0back	Block2	0back/STIM_009.jpg	99
1275.542	0.432	431.8	0back	Block2	0back/STIM_009.jpg	100
1278.109	0.6	599.9	0back	Block2	0back/STIM_010.jpg	99
1281.978	0.784	784.3	0back	Block2	0back/STIM_010.jpg	99
1284.931	0.695	694.9	0back	Block2	0back/STIM_010.jpg	100
1289.16	0.472	471.9	0back	Block2	0back/STIM_011.jpg	100
1292.047	0.509	508.8	0back	Block2	0back/STIM_011.jpg	100
1296.119	0.448	448.3	0back	Block2	0back/STIM_011.jpg	99
1298.858	0.583	582.6	0back	Block2	0back/STIM_012.jpg	99
1302.974	0.704	704.1	0back	Block2	0back/STIM_012.jpg	100
1306.897	0.657	656.7	0back	Block2	0back/STIM_012.jpg	99
1309.913	0.472	472.2	0back	Block2	0back/STIM_013.jpg	100
1314.115	0.461	461.2	0back	Block2	0back/STIM_013.jpg	100
1318.064	0.418	418.1	0back	Block2	0back/STIM_013.jpg	100
1321.637	0.446	445.7	0back	Block2	0back/STIM_014.jpg	100
1324.548	0.533	533.1	0back	Block2	0back/STIM_014.jpg	99
1328.402	0.67	669.5	0back	Block2	0back/STIM_014.jpg	100
1331.644	0.772	771.8	0back	Block2	0back/STIM_015.jpg	100
1335.74	0.603	602.9	0back	Block2	0back/STIM_015.jpg	99
1339.386	0.487	486.9	0back	Block2	0back/STIM_015.jpg	99
1343.49	0.491	490.8	0back	Block2	0back/STIM_016.jpg	100
1346.015	0.508	507.9	0back	Block2	0back/STIM_016.jpg	100
1348.531	0.628	627.5	0back	Block2	0back/STIM_016.jpg	100
1351.968	0.652	652.4	0back	Block2	0back/STIM_017.jpg	99
1355.15	0.761	760.9	0back	Block2	0back/STIM_017.jpg	99
1359.437	0.789	788.9	0back	Block2	0back/STIM_017.jpg	99
1363.088	0.658	658.2	0back	Block2	0back/STIM_018.jpg	99
1365.826	0.591	590.7	0back	Block2	0back/STIM_018.jpg	99
1368.958	0.796	795.5	0back	Block2	0back/STIM_018.jpg	100
1372.323	0.763	762.9	0back	Block2	0back/STIM_019.jpg	100
1375.987	0.518	517.5	0back	Block2	0back/STIM_019.jpg	99
1379.17	0.769	769.3	0back	Block2	0back/STIM_019.jpg	100
1382.66	0.698	698.2	2back	Block3	2back/STIM_000.jpg	99
1386.933	0.976	975.9	2back	Block3	2back/STIM_000.jpg	99
1390.418	0.505	505.0	2back	Block3	2back/STIM_000.jpg	99
1394.542	0.716	716.4	2back	Block3	2back/STIM_001.jpg	99
1397.33	0.494	494.3	2back	Block3	2back/STIM_001.jpg	99
1400.356	0.572	572.3	2back	Block3	2back/STIM_001.jpg	99
1404.203	0.725	724.6	2back	Block3	2back/STIM_002.jpg	100
1408.017	0.459	459.4	2back	Block3	2back/STIM_002.jpg	100
1410.751	0.817	816.9	2back	Block3	2back/STIM_002.jpg	100
1414.392	0.854	854.0	2back	Block3	2back/STIM_003.jpg	100
1419.14	0.905	905.2	2back	Block3	2back/STIM_003.jpg	100
1423.19	0.458	457.6	2back	Block3	2back/STIM_003.jpg	99
1425.89	0.812	811.9	2back	Block3	2back/STIM_004.jpg	100
1429.442	0.829	829.3	2back	Block3	2back/STIM_004.jpg	99
1433.72	0.473	472.7	2back	Block3	2back/STIM_004.jpg	99
1437.53	0.789	789.1	2back	Block3	2back/STIM_005.jpg	99
1440.568	0.703	703.2	2back	Block3	2back/STIM_005.jpg	100
1444.464	0.718	717.6	2back	Block3	2back/STIM_005.jpg	99
1447.208	0.771	770.6	2back	Block3	2back/STIM_006.jpg	99
1451.568	0.92	920.4	2back	Block3	2back/STIM_006.jpg	99
1454.551	0.816	816.4	2back	Block3	2back/STIM_006.jpg	99
1459.004	0.51	510.4	2back	Block3	2back/STIM_007.jpg	99
1463.252	0.818	818.1	2back	Block3	2back/STIM_007.jpg	100
1466.791	0.63	630.5	2back	Block3	2back/STIM_007.jpg	99
1471.079	0.474	473.5	2back	Block3	2back/STIM_008.jpg	100
1474.296	0.52	519.8	2back	Block3	2back/STIM_008.jpg	100
1478.528	0.698	697.6	2back	Block3	2back/STIM_008.jpg	99
1482.089	0.529	529.3	2back	Block3	2back/STIM_009.jpg	99
1485.094	0.808	808.3	2back	Block3	2back/STIM_009.jpg	99
1488.099	0.795	794.7	2back	Block3	2back/STIM_009.jpg	100
1491.04	0.684	684.2	2back	Block3	2back/STIM_010.jpg	100
1495.6	0.498	497.5	2back	Block3	2back/STIM_010.jpg	100
1499.473	0.679	679.2	2back	Block3	2back/STIM_010.jpg	99
1503.898	0.79	790.4	2back	Block3	2back/STIM_011.jpg	99
1508.499	0.978	978.3	2back	Block3	2back/STIM_011.jpg	99
1512.884	0.627	627.1	2back	Block3	2back/STIM_011.jpg	100
1516.437	0.95	950.4	2back	Block3	2back/STIM_012.jpg	99
1520.96	0.574	574.4	2back	Block3	2back/STIM_012.jpg	99
1525.394	0.826	825.8	2back	Block3	2back/STIM_012.jpg	100
1529.244	0.948	947.6	2back	Block3	2back/STIM_013.jpg	100
1533.324	0.755	755.1	2back	Block3	2back/STIM_013.jpg	99
1537.141	0.632	632.3	2back	Block3	2back/STIM_013.jpg	99
1540.502	0.55	550.1	2back	Block3	2back/STIM_014.jpg	99
1543.583	0.879	879.4	2back	Block3	2back/STIM_014.jpg	99
1547.93	0.976	976.1	2back	Block3	2back/STIM_014.jpg	100
1552.205	0.548	548.1	2back	Block3	2back/STIM_015.jpg	99
1556.111	0.75	749.5	2back	Block3	2back/STIM_015.jpg	100
1559.826	0.889	889.4	2back	Block3	2back/STIM_015.jpg	99
1563.537	0.535	534.8	2back	Block3	2back/STIM_016.jpg	100
1566.076	0.789	789.1	2back	Block3	2back/STIM_016.jpg	100
1570.776	0.851	850.6	2back	Block3	2back/STIM_016.jpg	99
1575.001	0.75	749.8	2back	Block3	2back/STIM_017.jpg	99
1579.41	0.555	555.2	2back	Block3	2back/STIM_017.jpg	100
1583.846	0.809	809.0	2back	Block3	2back/STIM_017.jpg	100
1588.247	0.608	607.5	2back	Block3	2back/STIM_018.jpg	100
1591.494	0.594	593.8	2back	Block3	2back/STIM_018.jpg	100
1594.198	0.846	845.7	2back	Block3	2back/STIM_018.jpg	100
1598.42	0.528	528.0	2back	Block3	2back/STIM_019.jpg	99
1602.756	0.445	445.1	2back	Block3	2back/STIM_019.jpg	99
1605.724	0.668	667.8	2back	Block3	2back/STIM_019.jpg	100
1608.499	0.552	552.4	2back	Block3	2back/STIM_020.jpg	100
1611.329	0.81	810.3	2back	Block3	2back/STIM_020.jpg	100
1615.058	0.665	665.0	2back	Block3	2back/STIM_020.jpg	100
1618.971	0.45	449.9	2back	Block3	2back/STIM_021.jpg	100
1622.824	0.566	566.3	2back	Block3	2back/STIM_021.jpg	99
1625.768	0.64	639.9	2back	Block3	2back/STIM_021.jpg	100
1630.067	0.955	954.9	2back	Block3	2back/STIM_022.jpg	100
1633.294	0.855	854.8	2back	Block3	2back/STIM_022.jpg	99
1636.8	0.589	589.2	2back	Block3	2back/STIM_022.jpg	99
1640.006	1.007	1007.4	2back	Block3	2back/STIM_023.jpg	99
1644.802	0.798	797.9	2back	Block3	2back/STIM_023.jpg	99
1649.186	0.782	782.5	2back	Block3	2back/STIM_023.jpg	99
1652.608	0.837	837.2	2back	Block3	2back/STIM_024.jpg	100
1657.195	0.81	809.7	2back	Block3	2back/STIM_024.jpg	99
1660.405	0.486	486.3	2back	Block3	2back/STIM_024.jpg	99
1664.785	0.956	956.0	2back	Block3	2back/STIM_025.jpg	100
1668.251	0.978	978.2	2back	Block3	2back/STIM_025.jpg	99
1672.614	0.447	447.3	2back	Block3	2back/STIM_025.jpg	99
1676.465	0.611	610.6	2back	Block3	2back/STIM_026.jpg	100
1680.322	0.932	931.6	2back	Block3	2back/STIM_026.jpg	99
1684.562	0.596	595.7	2back	Block3	2back/STIM_026.jpg	99
1687.668	0.846	846.3	2back	Block3	2back/STIM_027.jpg	99
1691.485	0.998	997.8	2back	Block3	2back/STIM_027.jpg	99
1695.093	0.482	481.5	2back	Block3	2back/STIM_027.jpg	99
1697.686	0.632	632.5	2back	Block3	2back/STIM_028.jpg	100
1702.191	0.87	869.8	2back	Block3	2back/STIM_028.jpg	99
1706.095	0.519	519.0	2back	Block3	2back/STIM_028.jpg	100
1710.433	0.964	963.6	2back	Block3	2back/STIM_029.jpg	99
1713.829	0.716	715.6	2back	Block3	2back/STIM_029.jpg	99
1717.986	0.604	603.6	2back	Block3	2back/STIM_029.jpg	99
1722.581	0.44	439.8	2back	Block3	2back/STIM_030.jpg	100
1726.056	0.622	621.6	2back	Block3	2back/STIM_030.jpg	99
1728.867	0.829	829.0	2back	Block3	2back/STIM_030.jpg	99
1731.941	0.575	574.8	2back	Block3	2back/STIM_031.jpg	99
1736.33	0.616	616.0	2back	Block3	2back/STIM_031.jpg	99
1740.442	0.512	512.3	2back	Block3	2back/STIM_031.jpg	99
1744.151	0.668	667.8	2back	Block3	2back/STIM_032.jpg	100
1747.016	0.7	699.9	2back	Block3	2back/STIM_032.jpg	99
1749.978	0.483	483.3	2back	Block3	2back/STIM_032.jpg	99
1752.587	0.863	862.7	2back	Block3	2back/STIM_033.jpg	100
1756.555	0.767	767.1	2back	Block3	2back/STIM_033.jpg	100
1760.272	0.86	860.5	2back	Block3	2back/STIM_033.jpg	100
1763.24	0.95	950.2	2back	Block3	2back/STIM_034.jpg	99
1766.258	0.633	632.9	2back	Block3	2back/STIM_034.jpg	100
1769.718	0.524	523.6	2back	Block3	2back/STIM_034.jpg	99
1772.664	0.944	944.0	2back	Block3	2back/STIM_035.jpg	100
1775.886	0.544	544.3	2back	Block3	2back/STIM_035.jpg	100
1778.872	0.573	573.0	2back	Block3	2back/STIM_035.jpg	99
1781.908	0.73	730.1	2back	Block3	2back/STIM_036.jpg	100
1786.063	0.82	820.2	2back	Block3	2back/STIM_036.jpg	99
1790.45	0.534	533.9	2back	Block3	2back/STIM_036.jpg	100
1794.541	0.575	575.3	2back	Block3	2back/STIM_037.jpg	100
1798.643	0.688	688.5	2back	Block3	2back/STIM_037.jpg	100
1801.388	0.508	508.3	2back	Block3	2back/STIM_037.jpg	100
1804.1	0.662	662.1	2back	Block3	2back/STIM_038.jpg	100
1808.404	0.652	652.2	2back	Block3	2back/STIM_038.jpg	99
1811.813	0.845	845.1	2back	Block3	2back/STIM_038.jpg	100
1816.527	0.6	599.9	2back	Block3	2back/STIM_039.jpg	100
1820.192	0.516	516.3	2back	Block3	2back/STIM_039.jpg	100
1823.905	0.435	435.4	2back	Block3	2back/STIM_039.jpg	100
1827.477	0.738	738.1	0back	Block3	0back/STIM_000.jpg	99
1830.734	0.569	568.7	0back	Block3	0back/STIM_000.jpg	99
1835.255	0.56	560.0	0back	Block3	0back/STIM_000.jpg	99
1839.611	0.752	751.8	0back	Block3	0back/STIM_001.jpg	99
1842.634	0.638	638.1	0back	Block3	0back/STIM_001.jpg	99
1847.239	0.663	663.3	0back	Block3	0back/STIM_001.jpg	100
1851.111	0.713	713.0	0back	Block3	0back/STIM_002.jpg	100
1854.485	0.813	813.2	0back	Block3	0back/STIM_002.jpg	100
1858.542	0.821	820.9	0back	Block3	0back/STIM_002.jpg	100
1861.858	0.486	486.2	0back	Block3	0back/STIM_003.jpg	100
1864.403	0.735	735.1	0back	Block3	0back/STIM_003.jpg	100
1867.274	0.71	710.1	0back	Block3	0back/STIM_003.jpg	99
1870.135	0.637	637.1	0back	Block3	0back/STIM_004.jpg	99
1874.702	0.527	526.7	0back	Block3	0back/STIM_004.jpg	100
1877.461	0.641	641.2	0back	Block3	0back/STIM_004.jpg	100
1881.445	0.59	589.5	0back	Block3	0back/STIM_005.jpg	100
1885.012	0.44	439.7	0back	Block3	0back/STIM_005.jpg	99
1889.085	0.416	415.5	0back	Block3	0back/STIM_005.jpg	100
1891.915	0.646	645.5	0back	Block3	0back/STIM_006.jpg	100
1896.342	0.512	512.5	0back	Block3	0back/STIM_006.jpg	99
1900.245	0.615	614.7	0back	Block3	0back/STIM_006.jpg	100
1904.135	0.664	664.0	0back	Block3	0back/STIM_007.jpg	99
1907.102	0.585	585.2	0back	Block3	0back/STIM_007.jpg	99
1910.25	0.421	420.7	0back	Block3	0back/STIM_007.jpg	99
1913.733	0.494	494.1	0back	Block3	0back/STIM_008.jpg	100
1917.653	0.619	619.1	0back	Block3	0back/STIM_008.jpg	100
1921.278	0.544	544.4	0back	Block3	0back/STIM_008.jpg	99
1925.344	0.797	796.8	0back	Block3	0back/STIM_009.jpg	99
1928.179	0.498	497.9	0back	Block3	0back/STIM_009.jpg	99
1932.648	0.794	793.5	0back	Block3	0back/STIM_009.jpg	100
1935.836	0.488	488.5	0back	Block3	0back/STIM_010.jpg	100
1940.152	0.46	459.6	0back	Block3	0back/STIM_010.jpg	100
1944.524	0.494	493.7	0back	Block3	0back/STIM_010.jpg	99
1948.835	0.733	732.8	0back	Block3	0back/STIM_011.jpg	100
1953.441	0.523	523.4	0back	Block3	0back/STIM_011.jpg	100
1956.857	0.468	468.2	0back	Block3	0back/STIM_011.jpg	100
1961.241	0.564	564.5	0back	Block3	0back/STIM_012.jpg	99
1964.747	0.644	643.7	0back	Block3	0back/STIM_012.jpg	99
1968.404	0.414	414.4	0back	Block3	0back/STIM_012.jpg	99
1971.635	0.446	445.5	0back	Block3	0back/STIM_013.jpg	100
1975.554	0.605	605.4	0back	Block3	0back/STIM_013.jpg	99
1979.124	0.748	748.2	0back	Block3	0back/STIM_013.jpg	100
1982.191	0.584	583.7	0back	Block3	0back/STIM_014.jpg	99
1986.35	0.56	560.5	0back	Block3	0back/STIM_014.jpg	100
1990.068	0.76	759.6	0back	Block3	0back/STIM_014.jpg	99
1993.589	0.674	674.5	0back	Block3	0back/STIM_015.jpg	99
1996.299	0.468	468.3	0back	Block3	0back/STIM_015.jpg	100
1998.855	0.454	454.4	0back	Block3	0back/STIM_015.jpg	99
2001.422	0.664	663.6	0back	Block3	0back/STIM_016.jpg	99
2004.188	0.433	432.8	0back	Block3	0back/STIM_016.jpg	99
2008.164	0.536	535.9	0back	Block3	0back/STIM_016.jpg	99
2010.717	0.447	447.0	0back	Block3	0back/STIM_017.jpg	99
2013.888	0.746	745.9	0back	Block3	0back/STIM_017.jpg	99
2018.27	0.563	562.6	0back	Block3	0back/STIM_017.jpg	100
2021.212	0.65	649.6	0back	Block3	0back/STIM_018.jpg	99
2024.287	0.482	482.1	0back	Block3	0back/STIM_018.jpg	100
2028.159	0.611	611.2	0back	Block3	0back/STIM_018.jpg	100
2031.48	0.734	734.4	0back	Block3	0back/STIM_019.jpg	100
2034.872	0.593	593.1	0back	Block3	0back/STIM_019.jpg	99
2038.067	0.699	698.8	0back	Block3	0back/STIM_019.jpg	99
2041.333	0.839	838.8	2back	Block4	2back/STIM_000.jpg	100
2045.464	0.974	973.6	2back	Block4	2back/STIM_000.jpg	100
2050.281	0.564	563.6	2back	Block4	2back/STIM_000.jpg	99
2054.494	0.826	825.8	2back	Block4	2back/STIM_001.jpg	99
2057.597	0.729	728.9	2back	Block4	2back/STIM_001.jpg	100
2061.549	0.441	440.9	2back	Block4	2back/STIM_001.jpg	99
2065.756	0.875	874.8	2back	Block4	2back/STIM_002.jpg	100
2068.877	0.877	876.7	2back	Block4	2back/STIM_002.jpg	99
2072.843	0.554	554.2	2back	Block4	2back/STIM_002.jpg	99
2077.135	0.906	906.3	2back	Block4	2back/STIM_003.jpg	99
2080.735	0.747	747.4	2back	Block4	2back/STIM_003.jpg	99
2083.838	0.61	610.2	2back	Block4	2back/STIM_003.jpg	100
2086.989	0.87	869.7	2back	Block4	2back/STIM_004.jpg	100
2091.734	0.977	977.2	2back	Block4	2back/STIM_004.jpg	99
2095.707	0.649	649.3	2back	Block4	2back/STIM_004.jpg	100
2099.57	0.766	766.5	2back	Block4	2back/STIM_005.jpg	100
2104.26	0.881	880.8	2back	Block4	2back/STIM_005.jpg	100
2107.908	0.693	693.2	2back	Block4	2back/STIM_005.jpg	99
2112.204	0.61	609.9	2back	Block4	2back/STIM_006.jpg	99
2115.91	0.445	445.2	2back	Block4	2back/STIM_006.jpg	99
2118.62	0.683	683.2	2back	Block4	2back/STIM_006.jpg	100
2122.807	0.775	775.4	2back	Block4	2back/STIM_007.jpg	99
2127.062	0.98	979.6	2back	Block4	2back/STIM_007.jpg	99
2130.119	0.994	993.8	2back	Block4	2back/STIM_007.jpg	100
2134.784	0.79	790.0	2back	Block4	2back/STIM_008.jpg	99
2138.814	0.815	815.4	2back	Block4	2back/STIM_008.jpg	100
2142.061	0.929	928.6	2back	Block4	2back/STIM_008.jpg	99
2145.416	0.9	900.4	2back	Block4	2back/STIM_009.jpg	99
2149.472	0.84	840.3	2back	Block4	2back/STIM_009.jpg	100
2154.299	0.909	908.8	2back	Block4	2back/STIM_009.jpg	99
2159.149	0.969	968.9	2back	Block4	2back/STIM_010.jpg	99
2162.802	0.566	565.6	2back	Block4	2back/STIM_010.jpg	99
2165.377	0.923	923.0	2back	Block4	2back/STIM_010.jpg	99
2168.517	0.92	919.8	2back	Block4	2back/STIM_011.jpg	100
2172.2	0.56	560.5	2back	Block4	2back/STIM_011.jpg	100
2175.224	0.807	807.3	2back	Block4	2back/STIM_011.jpg	99
2179.196	0.549	549.3	2back	Block4	2back/STIM_012.jpg	99
2183.151	0.871	871.4	2back	Block4	2back/STIM_012.jpg	99
2187.708	0.984	983.8	2back	Block4	2back/STIM_012.jpg	99
2192.072	0.638	638.0	2back	Block4	2back/STIM_013.jpg	100
2196.598	0.801	800.9	2back	Block4	2back/STIM_013.jpg	99
2200.343	0.774	774.3	2back	Block4	2back/STIM_013.jpg	100
2204.308	0.968	968.4	2back	Block4	2back/STIM_014.jpg	100
2207.88	0.982	982.5	2back	Block4	2back/STIM_014.jpg	100
2212.099	0.864	863.9	2back	Block4	2back/STIM_014.jpg	100
2216.874	0.824	823.9	2back	Block4	2back/STIM_015.jpg	100
2221.113	0.455	455.4	2back	Block4	2back/STIM_015.jpg	99
2224.944	0.828	828.2	2back	Block4	2back/STIM_015.jpg	100
2227.821	0.634	634.5	2back	Block4	2back/STIM_016.jpg	100
2232.105	0.829	828.6	2back	Block4	2back/STIM_016.jpg	100
2236.177	0.875	875.3	2back	Block4	2back/STIM_016.jpg	100
2239.458	0.543	543.3	2back	Block4	2back/STIM_017.jpg	99
2243.924	0.628	628.1	2back	Block4	2back/STIM_017.jpg	100
2247.264	0.804	804.4	2back	Block4	2back/STIM_017.jpg	100
2251.753	0.781	781.2	2back	Block4	2back/STIM_018.jpg	100
2255.028	0.451	451.4	2back	Block4	2back/STIM_018.jpg	99
2258.506	0.624	624.0	2back	Block4	2back/STIM_018.jpg	100
2261.454	0.891	891.2	2back	Block4	2back/STIM_019.jpg	99
2264.462	1.003	1003.1	2back	Block4	2back/STIM_019.jpg	100
2268.837	0.936	935.6	2back	Block4	2back/STIM_019.jpg	99
2271.962	0.991	991.2	2back	Block4	2back/STIM_020.jpg	100
2276.896	0.914	914.3	2back	Block4	2back/STIM_020.jpg	100
2279.903	0.474	474.4	2back	Block4	2back/STIM_020.jpg	100
2283.231	0.753	752.8	2back	Block4	2back/STIM_021.jpg	100
2286.501	0.704	704.4	2back	Block4	2back/STIM_021.jpg	99
2289.66	0.784	784.3	2back	Block4	2back/STIM_021.jpg	100
2293.459	0.621	621.4	2back	Block4	2back/STIM_022.jpg	100
2297.907	0.916	916.3	2back	Block4	2back/STIM_022.jpg	100
2302.1	1.002	1001.8	2back	Block4	2back/STIM_022.jpg	99
2306.27	0.534	534.5	2back	Block4	2back/STIM_023.jpg	99
2309.138	1.013	1013.1	2back	Block4	2back/STIM_023.jpg	99
2313.412	0.606	605.8	2back	Block4	2back/STIM_023.jpg	100
2317.254	0.68	680.0	2back	Block4	2back/STIM_024.jpg	99
2320.568	0.516	516.2	2back	Block4	2back/STIM_024.jpg	99
2324.482	0.571	571.2	2back	Block4	2back/STIM_024.jpg	99
2328.569	0.996	996.1	2back	Block4	2back/STIM_025.jpg	99
2333.043	0.901	901.0	2back	Block4	2back/STIM_025.jpg	100
2337.298	0.96	959.5	2back	Block4	2back/STIM_025.jpg	99
2342.206	0.544	544.2	2back	Block4	2back/STIM_026.jpg	99
2346.253	0.688	687.6	2back	Block4	2back/STIM_026.jpg	99
2350.265	0.615	615.4	2back	Block4	2back/STIM_026.jpg	99
2354.173	0.607	606.8	2back	Block4	2back/STIM_027.jpg	100
2358.347	0.755	754.8	2back	Block4	2back/STIM_027.jpg	99
2361.728	0.879	879.1	2back	Block4	2back/STIM_027.jpg	100
2366.581	0.952	952.1	2back	Block4	2back/STIM_028.jpg	99
2370.716	0.564	563.5	2back	Block4	2back/STIM_028.jpg	100
2373.845	0.934	934.2	2back	Block4	2back/STIM_028.jpg	100
2377.896	0.736	736.5	2back	Block4	2back/STIM_029.jpg	100
2382.012	0.489	488.7	2back	Block4	2back/STIM_029.jpg	100
2385.729	0.76	759.5	2back	Block4	2back/STIM_029.jpg	100
2389.698	0.957	956.9	2back	Block4	2back/STIM_030.jpg	100
2394.479	0.538	538.5	2back	Block4	2back/STIM_030.jpg	99
2398.195	0.48	479.9	2back	Block4	2back/STIM_030.jpg	100
2402.043	0.869	868.7	2back	Block4	2back/STIM_031.jpg	100
2404.983	0.945	945.1	2back	Block4	2back/STIM_031.jpg	99
2409.256	0.779	778.8	2back	Block4	2back/STIM_031.jpg	99
2413.382	0.825	824.7	2back	Block4	2back/STIM_032.jpg	100
2418.097	0.714	713.6	2back	Block4	2back/STIM_032.jpg	100
2422.235	0.989	989.2	2back	Block4	2back/STIM_032.jpg	100
2426.059	0.684	683.6	2back	Block4	2back/STIM_033.jpg	99
2429.835	0.599	599.0	2back	Block4	2back/STIM_033.jpg	99
2433.657	0.604	604.0	2back	Block4	2back/STIM_033.jpg	99
2436.546	0.62	620.0	2back	Block4	2back/STIM_034.jpg	99
2440.654	0.464	463.6	2back	Block4	2back/STIM_034.jpg	100
2443.186	0.989	988.9	2back	Block4	2back/STIM_034.jpg	99
2446.762	0.621	620.8	2back	Block4	2back/STIM_035.jpg	99
2450.584	0.597	596.8	2back	Block4	2back/STIM_035.jpg	99
2454.09	0.942	942.1	2back	Block4	2back/STIM_035.jpg	100
2458.191	0.831	831.4	2back	Block4	2back/STIM_036.jpg	99
2462.375	0.597	597.0	2back	Block4	2back/STIM_036.jpg	100
2465.008	0.498	498.1	2back	Block4	2back/STIM_036.jpg	99
2468.159	0.842	842.5	2back	Block4	2back/STIM_037.jpg	99
2471.905	0.753	752.6	2back	Block4	2back/STIM_037.jpg	99
2475.712	0.593	592.7	2back	Block4	2back/STIM_037.jpg	99
2479.624	0.958	957.6	2back	Block4	2back/STIM_038.jpg	99
2483.949	0.738	738.4	2back	Block4	2back/STIM_038.jpg	100
2487.457	0.6	599.7	2back	Block4	2back/STIM_038.jpg	99
2490.766	0.744	743.8	2back	Block4	2back/STIM_039.jpg	100
2495.299	0.857	856.6	2back	Block4	2back/STIM_039.jpg	100
2498.518	0.828	828.5	2back	Block4	2back/STIM_039.jpg	100
2502.303	0.646	645.7	0back	Block4	0back/STIM_000.jpg	99
2506.907	0.733	732.9	0back	Block4	0back/STIM_000.jpg	100
2510.676	0.796	796.4	0back	Block4	0back/STIM_000.jpg	100
2515.063	0.781	780.9	0back	Block4	0back/STIM_001.jpg	99
2518.783	0.522	522.2	0back	Block4	0back/STIM_001.jpg	99
2521.809	0.59	590.1	0back	Block4	0back/STIM_001.jpg	99
2526.201	0.569	569.4	0back	Block4	0back/STIM_002.jpg	100
2530.281	0.511	511.4	0back	Block4	0back/STIM_002.jpg	100
2533.511	0.415	415.1	0back	Block4	0back/STIM_002.jpg	100
2537.075	0.47	469.7	0back	Block4	0back/STIM_003.jpg	99
2540.902	0.574	573.8	0back	Block4	0back/STIM_003.jpg	99
2544.132	0.742	742.4	0back	Block4	0back/STIM_003.jpg	100
2548.733	0.759	759.2	0back	Block4	0back/STIM_004.jpg	99
2551.988	0.52	520.2	0back	Block4	0back/STIM_004.jpg	99
2556.167	0.49	490.2	0back	Block4	0back/STIM_004.jpg	100
2559.396	0.428	427.5	0back	Block4	0back/STIM_005.jpg	100
2561.83	0.486	486.4	0back	Block4	0back/STIM_005.jpg	100
2565.819	0.826	826.5	0back	Block4	0back/STIM_005.jpg	100
2569.301	0.603	603.4	0back	Block4	0back/STIM_006.jpg	100
2572.172	0.784	784.1	0back	Block4	0back/STIM_006.jpg	100
2575.154	0.818	818.0	0back	Block4	0back/STIM_006.jpg	100
2579.687	0.442	442.0	0back	Block4	0back/STIM_007.jpg	99
2583.399	0.443	443.1	0back	Block4	0back/STIM_007.jpg	100
2586.257	0.565	564.9	0back	Block4	0back/STIM_007.jpg	99
2590.275	0.765	764.7	0back	Block4	0back/STIM_008.jpg	99
2594.106	0.676	675.7	0back	Block4	0back/STIM_008.jpg	99
2596.856	0.817	817.3	0back	Block4	0back/STIM_008.jpg	100
2600.508	0.818	817.7	0back	Block4	0back/STIM_009.jpg	100
2604.937	0.655	655.3	0back	Block4	0back/STIM_009.jpg	100
2607.896	0.596	595.5	0back	Block4	0back/STIM_009.jpg	99
2611.987	0.765	764.8	0back	Block4	0back/STIM_010.jpg	99
2615.321	0.573	573.4	0back	Block4	0back/STIM_010.jpg	100
2619.327	0.6	599.7	0back	Block4	0back/STIM_010.jpg	99
2623.203	0.53	529.6	0back	Block4	0back/STIM_011.jpg	99
2626.243	0.606	605.6	0back	Block4	0back/STIM_011.jpg	99
2629.828	0.573	572.7	0back	Block4	0back/STIM_011.jpg	100
2632.556	0.653	653.0	0back	Block4	0back/STIM_012.jpg	100
2635.31	0.432	431.5	0back	Block4	0back/STIM_012.jpg	99
2639.133	0.721	721.3	0back	Block4	0back/STIM_012.jpg	99
2642.27	0.64	639.8	0back	Block4	0back/STIM_013.jpg	99
2644.998	0.625	625.2	0back	Block4	0back/STIM_013.jpg	100
2647.703	0.787	786.6	0back	Block4	0back/STIM_013.jpg	99
2652.198	0.511	510.9	0back	Block4	0back/STIM_014.jpg	99
2655.894	0.628	627.7	0back	Block4	0back/STIM_014.jpg	100
2658.974	0.608	607.9	0back	Block4	0back/STIM_014.jpg	100
2662.675	0.636	635.6	0back	Block4	0back/STIM_015.jpg	100
2667.029	0.801	801.2	0back	Block4	0back/STIM_015.jpg	100
2670.568	0.523	522.6	0back	Block4	0back/STIM_015.jpg	100
2673.143	0.468	467.6	0back	Block4	0back/STIM_016.jpg	99
2676.046	0.476	475.7	0back	Block4	0back/STIM_016.jpg	100
2679.544	0.723	722.9	0back	Block4	0back/STIM_016.jpg	100
2682.918	0.817	817.2	0back	Block4	0back/STIM_017.jpg	99
2686.539	0.671	670.6	0back	Block4	0back/STIM_017.jpg	100
2689.271	0.517	517.0	0back	Block4	0back/STIM_017.jpg	100
2693.67	0.785	785.3	0back	Block4	0back/STIM_018.jpg	100
2697.804	0.822	821.7	0back	Block4	0back/STIM_018.jpg	99
2700.941	0.642	642.2	0back	Block4	0back/STIM_018.jpg	99
2704.017	0.485	485.0	0back	Block4	0back/STIM_019.jpg	99
2707.269	0.642	641.6	0back	Block4	0back/STIM_019.jpg	100
2710.471	0.728	727.7	0back	Block4	0back/STIM_019.jpg	99
