onset	duration	response_time_ms	trial_type	learning_stage	stimulus	response_port
0.0	2.08	2079.5	regulate	Run1	regulate/STIM_000.jpg	99
4.053	2.548	2547.9	regulate	Run1	regulate/STIM_000.jpg	99
8.883	3.224	3224.2	regulate	Run1	regulate/STIM_000.jpg	100
14.208	3.115	3114.7	regulate	Run1	regulate/STIM_000.jpg	100
19.647	3.757	3756.8	regulate	Run1	regulate/STIM_001.jpg	99
26.536	1.721	1721.3	regulate	Run1	regulate/STIM_001.jpg	100
31.308	3.225	3224.8	regulate	Run1	regulate/STIM_001.jpg	100
36.243	1.818	1817.8	regulate	Run1	regulate/STIM_001.jpg	100
41.624	3.318	3318.4	regulate	Run1	regulate/STIM_002.jpg	99
47.679	2.324	2323.9	regulate	Run1	regulate/STIM_002.jpg	100
53.171	2.504	2504.4	regulate	Run1	regulate/STIM_002.jpg	100
58.024	2.851	2850.9	regulate	Run1	regulate/STIM_002.jpg	99
63.731	2.527	2527.4	regulate	Run1	regulate/STIM_003.jpg	100
68.661	3.557	3557.1	regulate	Run1	regulate/STIM_003.jpg	100
75.393	2.995	2994.9	regulate	Run1	regulate/STIM_003.jpg	100
80.691	1.498	1498.2	regulate	Run1	regulate/STIM_003.jpg	99
84.971	3.456	3455.5	regulate	Run1	regulate/STIM_004.jpg	99
91.864	2.218	2218.3	regulate	Run1	regulate/STIM_004.jpg	99
96.962	2.496	2495.7	regulate	Run1	regulate/STIM_004.jpg	99
101.426	2.301	2301.2	regulate	Run1	regulate/STIM_004.jpg	100
106.251	2.651	2650.6	regulate	Run1	regulate/STIM_005.jpg	100
112.455	2.769	2769.3	regulate	Run1	regulate/STIM_005.jpg	100
117.626	1.57	1570.2	regulate	Run1	regulate/STIM_005.jpg	100
122.147	3.203	3203.0	regulate	Run1	regulate/STIM_005.jpg	100
128.728	2.563	2563.3	regulate	Run1	regulate/STIM_006.jpg	99
134.345	2.827	2826.8	regulate	Run1	regulate/STIM_006.jpg	99
138.998	2.251	2251.2	regulate	Run1	regulate/STIM_006.jpg	100
144.119	3.05	3049.7	regulate	Run1	regulate/STIM_006.jpg	100
149.783	3.119	3118.9	regulate	Run1	regulate/STIM_007.jpg	100
156.16	2.333	2333.3	regulate	Run1	regulate/STIM_007.jpg	99
162.242	2.634	2634.3	regulate	Run1	regulate/STIM_007.jpg	100
167.473	2.505	2504.9	regulate	Run1	regulate/STIM_007.jpg	99
172.183	3.439	3439.3	regulate	Run1	regulate/STIM_008.jpg	99
178.229	2.418	2418.4	regulate	Run1	regulate/STIM_008.jpg	100
183.168	3.432	3431.9	regulate	Run1	regulate/STIM_008.jpg	99
189.665	2.944	2943.5	regulate	Run1	regulate/STIM_008.jpg	99
195.947	1.928	1928.2	regulate	Run1	regulate/STIM_009.jpg	100
201.681	3.549	3548.7	regulate	Run1	regulate/STIM_009.jpg	100
206.894	1.608	1607.9	regulate	Run1	regulate/STIM_009.jpg	100
210.697	2.092	2092.1	regulate	Run1	regulate/STIM_009.jpg	100
216.103	1.655	1654.8	regulate	Run1	regulate/STIM_010.jpg	99
220.339	2.463	2462.6	regulate	Run1	regulate/STIM_010.jpg	99
225.078	3.324	3324.0	regulate	Run1	regulate/STIM_010.jpg	99
231.037	3.035	3034.6	regulate	Run1	regulate/STIM_010.jpg	100
237.389	2.474	2473.9	regulate	Run1	regulate/STIM_011.jpg	100
241.66	2.007	2007.3	regulate	Run1	regulate/STIM_011.jpg	99
247.237	2.502	2502.5	regulate	Run1	regulate/STIM_011.jpg	99
251.836	2.278	2277.8	regulate	Run1	regulate/STIM_011.jpg	100
257.473	1.703	1703.1	regulate	Run1	regulate/STIM_012.jpg	99
261.604	2.247	2247.1	regulate	Run1	regulate/STIM_012.jpg	100
267.041	3.348	3347.9	regulate	Run1	regulate/STIM_012.jpg	100
273.922	3.302	3302.2	regulate	Run1	regulate/STIM_012.jpg	100
280.073	3.64	3640.5	regulate	Run1	regulate/STIM_013.jpg	99
287.001	2.67	2669.8	regulate	Run1	regulate/STIM_013.jpg	99
291.974	3.378	3378.4	regulate	Run1	regulate/STIM_013.jpg	100
298.074	2.208	2207.7	regulate	Run1	regulate/STIM_013.jpg	99
304.039	1.848	1848.2	regulate	Run1	regulate/STIM_014.jpg	99
308.693	3.0	2999.7	regulate	Run1	regulate/STIM_014.jpg	99
314.11	1.764	1764.3	regulate	Run1	regulate/STIM_014.jpg	100
318.299	2.084	2084.2	regulate	Run1	regulate/STIM_014.jpg	99
323.611	2.572	2572.2	regulate	Run1	regulate/STIM_015.jpg	100
329.634	2.492	2492.1	regulate	Run1	regulate/STIM_015.jpg	100
335.128	1.594	1594.5	regulate	Run1	regulate/STIM_015.jpg	99
339.874	1.779	1779.1	regulate	Run1	regulate/STIM_015.jpg	99
344.879	2.176	2175.5	regulate	Run1	regulate/STIM_016.jpg	100
350.431	3.591	3591.2	regulate	Run1	regulate/STIM_016.jpg	99
356.245	3.283	3282.6	regulate	Run1	regulate/STIM_016.jpg	99
363.042	2.507	2506.8	regulate	Run1	regulate/STIM_016.jpg	100
368.8	2.019	2018.8	regulate	Run1	regulate/STIM_017.jpg	100
373.5	3.401	3401.4	regulate	Run1	regulate/STIM_017.jpg	99
379.64	1.735	1734.7	regulate	Run1	regulate/STIM_017.jpg	100
383.372	1.468	1468.1	regulate	Run1	regulate/STIM_017.jpg	100
386.985	2.592	2592.0	regulate	Run1	regulate/STIM_018.jpg	99
391.992	3.333	3332.9	regulate	Run1	regulate/STIM_018.jpg	99
397.274	2.634	2634.4	regulate	Run1	regulate/STIM_018.jpg	99
402.867	2.478	2477.5	regulate	Run1	regulate/STIM_018.jpg	99
407.686	2.403	2403.3	regulate	Run1	regulate/STIM_019.jpg	99
412.431	1.649	1648.6	regulate	Run1	regulate/STIM_019.jpg	99
417.625	3.443	3443.3	regulate	Run1	regulate/STIM_019.jpg	99
423.73	2.974	2974.2	regulate	Run1	regulate/STIM_019.jpg	100
429.049	2.146	2146.5	regulate	Run1	regulate/STIM_020.jpg	99
434.132	3.444	3444.5	regulate	Run1	regulate/STIM_020.jpg	100
440.967	1.812	1812.4	regulate	Run1	regulate/STIM_020.jpg	100
446.524	2.206	2206.3	regulate	Run1	regulate/STIM_020.jpg	99
450.716	2.343	2342.7	regulate	Run1	regulate/STIM_021.jpg	100
455.615	2.588	2587.7	regulate	Run1	regulate/STIM_021.jpg	99
461.63	2.331	2330.8	regulate	Run1	regulate/STIM_021.jpg	99
466.475	1.744	1744.3	regulate	Run1	regulate/STIM_021.jpg	100
471.219	3.121	3121.2	regulate	Run1	regulate/STIM_022.jpg	99
476.952	2.321	2321.0	regulate	Run1	regulate/STIM_022.jpg	99
481.816	3.146	3145.8	regulate	Run1	regulate/STIM_022.jpg	100
487.647	3.015	3014.9	regulate	Run1	regulate/STIM_022.jpg	100
492.426	3.66	3659.9	regulate	Run1	regulate/STIM_023.jpg	99
498.377	2.7	2699.9	regulate	Run1	regulate/STIM_023.jpg	100
504.322	2.558	2558.5	regulate	Run1	regulate/STIM_023.jpg	99
509.235	2.964	2963.5	regulate	Run1	regulate/STIM_023.jpg	99
514.878	1.725	1725.2	regulate	Run1	regulate/STIM_024.jpg	100
520.179	2.35	2350.1	regulate	Run1	regulate/STIM_024.jpg	99
526.101	2.766	2766.1	regulate	Run1	regulate/STIM_024.jpg	100
530.756	2.532	2531.9	regulate	Run1	regulate/STIM_024.jpg	100
535.233	3.742	3742.3	regulate	Run1	regulate/STIM_025.jpg	99
541.977	1.82	1819.5	regulate	Run1	regulate/STIM_025.jpg	99
546.011	2.276	2276.5	regulate	Run1	regulate/STIM_025.jpg	99
551.196	1.867	1867.1	regulate	Run1	regulate/STIM_025.jpg	99
555.955	3.574	3574.1	regulate	Run1	regulate/STIM_026.jpg	100
561.444	3.436	3435.8	regulate	Run1	regulate/STIM_026.jpg	99
568.4	2.516	2516.0	regulate	Run1	regulate/STIM_026.jpg	100
573.714	1.606	1606.3	regulate	Run1	regulate/STIM_026.jpg	99
578.57	2.056	2056.4	regulate	Run1	regulate/STIM_027.jpg	99
583.024	3.133	3133.2	regulate	Run1	regulate/STIM_027.jpg	99
588.983	1.649	1649.1	regulate	Run1	regulate/STIM_027.jpg	100
593.893	2.502	2502.4	regulate	Run1	regulate/STIM_027.jpg	99
598.679	1.976	1976.2	regulate	Run1	regulate/STIM_028.jpg	100
602.697	3.339	3339.1	regulate	Run1	regulate/STIM_028.jpg	99
609.055	2.498	2497.6	regulate	Run1	regulate/STIM_028.jpg	99
614.998	2.772	2772.0	regulate	Run1	regulate/STIM_028.jpg	99
621.06	3.188	3188.5	regulate	Run1	regulate/STIM_029.jpg	99
626.688	3.103	3103.4	regulate	Run1	regulate/STIM_029.jpg	99
632.786	1.658	1658.5	regulate	Run1	regulate/STIM_029.jpg	99
637.821	2.138	2138.0	regulate	Run1	regulate/STIM_029.jpg	100
642.412	1.513	1512.9	observe	Run1	observe/STIM_000.jpg	99
647.483	1.558	1558.3	observe	Run1	observe/STIM_000.jpg	99
651.78	1.389	1389.3	observe	Run1	observe/STIM_000.jpg	100
656.444	1.318	1317.6	observe	Run1	observe/STIM_000.jpg	99
660.779	1.332	1332.0	observe	Run1	observe/STIM_001.jpg	99
665.168	1.064	1064.5	observe	Run1	observe/STIM_001.jpg	100
669.727	1.488	1487.7	observe	Run1	observe/STIM_001.jpg	99
674.284	1.254	1254.3	observe	Run1	observe/STIM_001.jpg	100
678.635	1.561	1560.6	observe	Run1	observe/STIM_002.jpg	100
682.704	1.731	1730.7	observe	Run1	observe/STIM_002.jpg	100
686.818	1.207	1206.9	observe	Run1	observe/STIM_002.jpg	100
690.88	1.564	1563.6	observe	Run1	observe/STIM_002.jpg	100
695.648	1.68	1679.9	observe	Run1	observe/STIM_003.jpg	99
699.495	1.013	1012.8	observe	Run1	observe/STIM_003.jpg	100
703.06	1.076	1075.6	observe	Run1	observe/STIM_003.jpg	99
707.01	1.48	1480.0	observe	Run1	observe/STIM_003.jpg	100
711.763	1.047	1047.3	observe	Run1	observe/STIM_004.jpg	99
716.158	1.461	1461.2	observe	Run1	observe/STIM_004.jpg	99
720.99	1.096	1096.4	observe	Run1	observe/STIM_004.jpg	100
725.29	0.891	890.9	observe	Run1	observe/STIM_004.jpg	99
728.154	1.068	1068.1	observe	Run1	observe/STIM_005.jpg	99
732.934	1.467	1467.0	observe	Run1	observe/STIM_005.jpg	99
737.066	1.632	1631.6	observe	Run1	observe/STIM_005.jpg	100
742.468	1.387	1386.7	observe	Run1	observe/STIM_005.jpg	100
746.355	1.776	1775.9	observe	Run1	observe/STIM_006.jpg	100
750.79	1.598	1597.5	observe	Run1	observe/STIM_006.jpg	99
756.175	1.272	1272.3	observe	Run1	observe/STIM_006.jpg	99
759.534	1.327	1327.2	observe	Run1	observe/STIM_006.jpg	100
764.009	0.937	937.2	observe	Run1	observe/STIM_007.jpg	100
766.955	1.721	1720.8	observe	Run1	observe/STIM_007.jpg	99
770.605	0.883	882.8	observe	Run1	observe/STIM_007.jpg	100
775.391	1.682	1681.9	observe	Run1	observe/STIM_007.jpg	100
779.192	1.117	1116.6	observe	Run1	observe/STIM_008.jpg	100
784.089	1.429	1428.6	observe	Run1	observe/STIM_008.jpg	100
787.596	1.184	1184.0	observe	Run1	observe/STIM_008.jpg	99
791.092	1.492	1491.5	observe	Run1	observe/STIM_008.jpg	99
796.25	1.399	1399.2	observe	Run1	observe/STIM_009.jpg	100
801.289	1.399	1398.7	observe	Run1	observe/STIM_009.jpg	100
805.921	1.374	1374.3	observe	Run1	observe/STIM_009.jpg	99
810.79	1.671	1671.2	observe	Run1	observe/STIM_009.jpg	100
814.286	1.417	1416.9	observe	Run1	observe/STIM_010.jpg	99
817.961	1.449	1449.3	observe	Run1	observe/STIM_010.jpg	99
822.42	1.209	1208.6	observe	Run1	observe/STIM_010.jpg	100
827.389	0.987	986.7	observe	Run1	observe/STIM_010.jpg	99
831.163	1.106	1106.3	observe	Run1	observe/STIM_011.jpg	100
834.553	1.275	1275.0	observe	Run1	observe/STIM_011.jpg	99
839.001	1.097	1097.2	observe	Run1	observe/STIM_011.jpg	99
842.074	1.252	1252.4	observe	Run1	observe/STIM_011.jpg	100
846.92	1.557	1556.8	observe	Run1	observe/STIM_012.jpg	100
852.088	1.602	1602.0	observe	Run1	observe/STIM_012.jpg	100
857.307	1.221	1221.2	observe	Run1	observe/STIM_012.jpg	99
860.795	1.213	1213.0	observe	Run1	observe/STIM_012.jpg	100
864.103	1.271	1270.9	observe	Run1	observe/STIM_013.jpg	99
868.097	1.501	1500.7	observe	Run1	observe/STIM_013.jpg	99
872.566	1.01	1009.8	observe	Run1	observe/STIM_013.jpg	99
875.911	1.403	1402.9	observe	Run1	observe/STIM_013.jpg	99
880.364	1.584	1584.2	observe	Run1	observe/STIM_014.jpg	100
885.234	1.049	1049.4	observe	Run1	observe/STIM_014.jpg	100
889.679	1.566	1566.3	observe	Run1	observe/STIM_014.jpg	100
893.066	1.173	1173.0	observe	Run1	observe/STIM_014.jpg	99
896.633	1.252	1251.9	observe	Run1	observe/STIM_015.jpg	100
900.592	0.987	987.0	observe	Run1	observe/STIM_015.jpg	99
905.118	1.152	1151.7	observe	Run1	observe/STIM_015.jpg	100
908.752	0.886	886.0	observe	Run1	observe/STIM_015.jpg	100
911.699	1.544	1544.5	observe	Run1	observe/STIM_016.jpg	100
916.926	1.692	1692.1	observe	Run1	observe/STIM_016.jpg	99
920.905	1.444	1443.7	observe	Run1	observe/STIM_016.jpg	100
925.061	1.41	1410.4	observe	Run1	observe/STIM_016.jpg	100
929.298	1.14	1139.6	observe	Run1	observe/STIM_017.jpg	100
933.857	1.362	1361.8	observe	Run1	observe/STIM_017.jpg	99
938.212	1.585	1585.0	observe	Run1	observe/STIM_017.jpg	100
943.155	1.452	1452.2	observe	Run1	observe/STIM_017.jpg	99
947.978	1.686	1686.3	observe	Run1	observe/STIM_018.jpg	100
953.247	0.954	953.6	observe	Run1	observe/STIM_018.jpg	100
956.553	1.789	1789.4	observe	Run1	observe/STIM_018.jpg	100
961.412	1.072	1071.9	observe	Run1	observe/STIM_018.jpg	100
966.291	0.914	914.3	observe	Run1	observe/STIM_019.jpg	99
970.214	1.376	1375.7	observe	Run1	observe/STIM_019.jpg	100
974.105	1.153	1153.0	observe	Run1	observe/STIM_019.jpg	100
978.974	1.351	1351.2	observe	Run1	observe/STIM_019.jpg	99
983.347	2.173	2173.2	regulate	Run2	regulate/STIM_000.jpg	99
989.246	2.296	2296.0	regulate	Run2	regulate/STIM_000.jpg	100
994.392	2.197	2197.1	regulate	Run2	regulate/STIM_000.jpg	100
998.862	2.29	2290.3	regulate	Run2	regulate/STIM_000.jpg	99
1004.996	2.965	2964.6	regulate	Run2	regulate/STIM_001.jpg	100
1009.757	2.928	2928.2	regulate	Run2	regulate/STIM_001.jpg	99
1014.564	1.739	1738.9	regulate	Run2	regulate/STIM_001.jpg	100
1018.964	1.743	1742.9	regulate	Run2	regulate/STIM_001.jpg	99
1023.872	3.339	3339.2	regulate	Run2	regulate/STIM_002.jpg	99
1029.581	2.311	2311.4	regulate	Run2	regulate/STIM_002.jpg	99
1035.551	2.861	2861.2	regulate	Run2	regulate/STIM_002.jpg	99
1041.33	1.65	1650.3	regulate	Run2	regulate/STIM_002.jpg	100
1046.665	2.735	2734.8	regulate	Run2	regulate/STIM_003.jpg	100
1052.155	2.272	2272.1	regulate	Run2	regulate/STIM_003.jpg	100
1057.233	1.493	1493.1	regulate	Run2	regulate/STIM_003.jpg	99
1062.051	1.479	1478.6	regulate	Run2	regulate/STIM_003.jpg	99
1066.058	1.474	1473.6	regulate	Run2	regulate/STIM_004.jpg	99
1070.546	2.54	2539.5	regulate	Run2	regulate/STIM_004.jpg	100
1075.259	2.48	2480.5	regulate	Run2	regulate/STIM_004.jpg	99
1080.557	2.394	2394.3	regulate	Run2	regulate/STIM_004.jpg	99
1085.863	2.751	2751.4	regulate	Run2	regulate/STIM_005.jpg	99
1090.855	1.612	1611.9	regulate	Run2	regulate/STIM_005.jpg	99
1095.544	2.173	2172.6	regulate	Run2	regulate/STIM_005.jpg	99
1100.028	2.69	2690.2	regulate	Run2	regulate/STIM_005.jpg	100
1104.918	1.866	1865.5	regulate	Run2	regulate/STIM_006.jpg	99
1108.938	2.022	2022.2	regulate	Run2	regulate/STIM_006.jpg	99
1113.672	1.882	1882.4	regulate	Run2	regulate/STIM_006.jpg	100
1118.877	2.26	2259.9	regulate	Run2	regulate/STIM_006.jpg	99
1123.478	3.023	3023.4	regulate	Run2	regulate/STIM_007.jpg	99
1130.242	2.562	2562.1	regulate	Run2	regulate/STIM_007.jpg	99
1135.472	1.42	1420.1	regulate	Run2	regulate/STIM_007.jpg	100
1140.008	2.649	2649.4	regulate	Run2	regulate/STIM_007.jpg	99
1144.455	2.509	2509.4	regulate	Run2	regulate/STIM_008.jpg	100
1149.177	1.572	1572.3	regulate	Run2	regulate/STIM_008.jpg	99
1154.134	1.374	1373.8	regulate	Run2	regulate/STIM_008.jpg	99
1158.619	2.4	2400.0	regulate	Run2	regulate/STIM_008.jpg	99
1163.239	2.139	2139.0	regulate	Run2	regulate/STIM_009.jpg	100
1168.806	2.943	2943.0	regulate	Run2	regulate/STIM_009.jpg	99
1174.258	2.875	2875.4	regulate	Run2	regulate/STIM_009.jpg	99
1180.712	2.549	2549.2	regulate	Run2	regulate/STIM_009.jpg	100
1185.629	2.336	2335.9	regulate	Run2	regulate/STIM_010.jpg	99
1190.518	2.28	2279.5	regulate	Run2	regulate/STIM_010.jpg	99
1195.106	2.009	2008.5	regulate	Run2	regulate/STIM_010.jpg	100
1199.561	1.813	1813.2	regulate	Run2	regulate/STIM_010.jpg	99
1204.722	1.782	1782.1	regulate	Run2	regulate/STIM_011.jpg	100
1209.708	2.092	2092.1	regulate	Run2	regulate/STIM_011.jpg	100
1214.898	1.379	1378.8	regulate	Run2	regulate/STIM_011.jpg	99
1218.365	1.484	1484.2	regulate	Run2	regulate/STIM_011.jpg	99
1223.128	2.612	2612.3	regulate	Run2	regulate/STIM_012.jpg	100
1228.935	2.777	2777.1	regulate	Run2	regulate/STIM_012.jpg	99
1235.133	2.777	2777.2	regulate	Run2	regulate/STIM_012.jpg	100
1240.188	1.915	1915.2	regulate	Run2	regulate/STIM_012.jpg	99
1245.337	2.944	2943.9	regulate	Run2	regulate/STIM_013.jpg	100
1250.063	2.146	2146.4	regulate	Run2	regulate/STIM_013.jpg	99
1255.143	2.79	2790.2	regulate	Run2	regulate/STIM_013.jpg	100
1261.255	2.542	2542.2	regulate	Run2	regulate/STIM_013.jpg	99
1265.944	2.09	2090.5	regulate	Run2	regulate/STIM_014.jpg	99
1271.42	2.172	2172.2	regulate	Run2	regulate/STIM_014.jpg	99
1275.643	1.508	1508.3	regulate	Run2	regulate/STIM_014.jpg	100
1279.142	1.662	1661.6	regulate	Run2	regulate/STIM_014.jpg	100
1283.117	2.93	2929.8	regulate	Run2	regulate/STIM_015.jpg	99
1288.848	2.427	2426.6	regulate	Run2	regulate/STIM_015.jpg	99
1293.186	1.827	1827.2	regulate	Run2	regulate/STIM_015.jpg	99
1297.378	1.516	1515.6	regulate	Run2	regulate/STIM_015.jpg	99
1301.943	2.819	2818.6	regulate	Run2	regulate/STIM_016.jpg	100
1306.8	2.778	2777.9	regulate	Run2	regulate/STIM_016.jpg	99
1312.928	1.305	1304.7	regulate	Run2	regulate/STIM_016.jpg	100
1316.181	1.798	1798.0	regulate	Run2	regulate/STIM_016.jpg	100
1321.079	1.705	1704.7	regulate	Run2	regulate/STIM_017.jpg	100
1324.895	3.059	3059.4	regulate	Run2	regulate/STIM_017.jpg	100
1330.021	2.261	2261.4	regulate	Run2	regulate/STIM_017.jpg	99
1334.558	1.468	1467.6	regulate	Run2	regulate/STIM_017.jpg	99
1338.498	1.756	1756.2	regulate	Run2	regulate/STIM_018.jpg	100
1342.859	2.421	2421.2	regulate	Run2	regulate/STIM_018.jpg	100
1348.962	1.292	1292.2	regulate	Run2	regulate/STIM_018.jpg	100
1353.044	2.492	2491.8	regulate	Run2	regulate/STIM_018.jpg	100
1358.662	2.332	2331.9	regulate	Run2	regulate/STIM_019.jpg	100
1364.745	2.289	2288.9	regulate	Run2	regulate/STIM_019.jpg	100
1368.776	2.388	2388.5	regulate	Run2	regulate/STIM_019.jpg	100
1374.977	1.725	1725.3	regulate	Run2	regulate/STIM_019.jpg	100
1378.966	1.932	1932.2	regulate	Run2	regulate/STIM_020.jpg	100
1382.926	1.68	1680.5	regulate	Run2	regulate/STIM_020.jpg	100
1387.781	1.244	1244.0	regulate	Run2	regulate/STIM_020.jpg	100
1391.522	2.104	2103.9	regulate	Run2	regulate/STIM_020.jpg	99
1395.984	2.242	2241.5	regulate	Run2	regulate/STIM_021.jpg	99
1401.86	2.224	2224.4	regulate	Run2	regulate/STIM_021.jpg	99
1406.632	2.801	2800.9	regulate	Run2	regulate/STIM_021.jpg	100
1412.245	2.609	2608.6	regulate	Run2	regulate/STIM_021.jpg	100
1417.976	3.141	3141.0	regulate	Run2	regulate/STIM_022.jpg	99
1424.216	1.752	1752.4	regulate	Run2	regulate/STIM_022.jpg	100
1428.128	1.778	1777.6	regulate	Run2	regulate/STIM_022.jpg	99
1432.87	2.345	2344.7	regulate	Run2	regulate/STIM_022.jpg	99
1438.304	1.833	1833.1	regulate	Run2	regulate/STIM_023.jpg	99
1443.215	2.692	2691.9	regulate	Run2	regulate/STIM_023.jpg	100
1448.0	2.508	2508.5	regulate	Run2	regulate/STIM_023.jpg	100
1452.569	1.701	1701.4	regulate	Run2	regulate/STIM_023.jpg	99
1456.215	1.506	1506.4	regulate	Run2	regulate/STIM_024.jpg	99
1459.824	2.025	2025.0	regulate	Run2	regulate/STIM_024.jpg	100
1464.524	2.086	2086.5	regulate	Run2	regulate/STIM_024.jpg	100
1468.527	1.658	1657.8	regulate	Run2	regulate/STIM_024.jpg	99
1472.777	2.762	2762.4	regulate	Run2	regulate/STIM_025.jpg	100
1479.1	2.25	2250.2	regulate	Run2	regulate/STIM_025.jpg	100
1485.104	2.072	2072.1	regulate	Run2	regulate/STIM_025.jpg	100
1490.608	2.071	2070.7	regulate	Run2	regulate/STIM_025.jpg	100
1496.292	2.539	2539.0	regulate	Run2	regulate/STIM_026.jpg	99
1502.193	2.271	2270.6	regulate	Run2	regulate/STIM_026.jpg	100
1508.109	1.858	1858.5	regulate	Run2	regulate/STIM_026.jpg	99
1513.391	2.112	2111.7	regulate	Run2	regulate/STIM_026.jpg	100
1517.941	2.459	2459.1	regulate	Run2	regulate/STIM_027.jpg	100
1522.952	2.395	2395.0	regulate	Run2	regulate/STIM_027.jpg	99
1528.338	2.477	2476.8	regulate	Run2	regulate/STIM_027.jpg	100
1533.33	2.216	2215.8	regulate	Run2	regulate/STIM_027.jpg	100
1538.083	3.172	3172.1	regulate	Run2	regulate/STIM_028.jpg	99
1543.732	2.883	2883.2	regulate	Run2	regulate/STIM_028.jpg	99
1549.08	2.249	2248.6	regulate	Run2	regulate/STIM_028.jpg	100
1554.789	2.329	2329.4	regulate	Run2	regulate/STIM_028.jpg	100
1560.376	2.745	2744.9	regulate	Run2	regulate/STIM_029.jpg	99
1566.395	2.488	2487.9	regulate	Run2	regulate/STIM_029.jpg	99
1570.779	2.874	2873.8	regulate	Run2	regulate/STIM_029.jpg	99
1577.218	2.151	2151.3	regulate	Run2	regulate/STIM_029.jpg	100
1581.173	0.93	930.1	observe	Run2	observe/STIM_000.jpg	99
1584.205	1.164	1164.4	observe	Run2	observe/STIM_000.jpg	99
1588.967	1.276	1276.4	observe	Run2	observe/STIM_000.jpg	100
1592.425	1.015	1015.2	observe	Run2	observe/STIM_000.jpg	100
1597.203	1.688	1687.7	observe	Run2	observe/STIM_001.jpg	100
1600.989	1.495	1495.2	observe	Run2	observe/STIM_001.jpg	100
1605.245	1.294	1294.1	observe	Run2	observe/STIM_001.jpg	99
1609.934	1.171	1171.2	observe	Run2	observe/STIM_001.jpg	99
1614.271	1.553	1553.2	observe	Run2	observe/STIM_002.jpg	100
1618.491	1.661	1660.6	observe	Run2	observe/STIM_002.jpg	99
1623.218	1.64	1639.5	observe	Run2	observe/STIM_002.jpg	100
1628.628	1.632	1631.7	observe	Run2	observe/STIM_002.jpg	99
1633.076	0.912	911.6	observe	Run2	observe/STIM_003.jpg	100
1637.872	1.194	1193.5	observe	Run2	observe/STIM_003.jpg	99
1642.686	0.994	993.9	observe	Run2	observe/STIM_003.jpg	100
1647.132	1.746	1746.2	observe	Run2	observe/STIM_003.jpg	99
1650.753	1.395	1395.0	observe	Run2	observe/STIM_004.jpg	99
1654.477	1.693	1693.0	observe	Run2	observe/STIM_004.jpg	99
1659.551	1.41	1410.2	observe	Run2	observe/STIM_004.jpg	99
1663.89	1.666	1666.3	observe	Run2	observe/STIM_004.jpg	100
1668.865	0.952	951.9	observe	Run2	observe/STIM_005.jpg	99
1671.793	1.475	1475.1	observe	Run2	observe/STIM_005.jpg	100
1675.987	1.31	1309.8	observe	Run2	observe/STIM_005.jpg	100
1680.045	1.029	1028.6	observe	Run2	observe/STIM_005.jpg	99
1684.485	1.536	1536.4	observe	Run2	observe/STIM_006.jpg	100
1688.497	1.2	1200.1	observe	Run2	observe/STIM_006.jpg	99
1691.619	1.649	1648.7	observe	Run2	observe/STIM_006.jpg	99
1696.168	1.126	1126.1	observe	Run2	observe/STIM_006.jpg	100
1700.829	1.536	1536.4	observe	Run2	observe/STIM_007.jpg	99
1704.787	1.048	1048.1	observe	Run2	observe/STIM_007.jpg	99
1708.325	0.888	887.9	observe	Run2	observe/STIM_007.jpg	99
1713.005	1.618	1617.7	observe	Run2	observe/STIM_007.jpg	99
1717.811	1.365	1365.1	observe	Run2	observe/STIM_008.jpg	99
1722.13	1.437	1436.6	observe	Run2	observe/STIM_008.jpg	100
1726.999	0.777	777.2	observe	Run2	observe/STIM_008.jpg	100
1731.01	1.097	1097.3	observe	Run2	observe/STIM_008.jpg	99
1735.318	1.113	1113.2	observe	Run2	observe/STIM_009.jpg	100
1739.883	1.466	1466.4	observe	Run2	observe/STIM_009.jpg	100
1743.856	1.252	1252.1	observe	Run2	observe/STIM_009.jpg	99
1748.805	1.483	1482.6	observe	Run2	observe/STIM_009.jpg	99
1753.384	1.612	1612.1	observe	Run2	observe/STIM_010.jpg	99
1757.335	1.595	1595.2	observe	Run2	observe/STIM_010.jpg	100
1761.461	1.484	1483.7	observe	Run2	observe/STIM_010.jpg	99
1766.305	1.129	1129.3	observe	Run2	observe/STIM_010.jpg	99
1769.883	0.919	918.6	observe	Run2	observe/STIM_011.jpg	100
1774.521	1.01	1010.3	observe	Run2	observe/STIM_011.jpg	100
1778.17	1.753	1752.8	observe	Run2	observe/STIM_011.jpg	99
1781.798	1.108	1107.9	observe	Run2	observe/STIM_011.jpg	99
1786.566	1.255	1255.2	observe	Run2	observe/STIM_012.jpg	99
1791.444	1.126	1125.9	observe	Run2	observe/STIM_012.jpg	100
1795.921	1.569	1568.7	observe	Run2	observe/STIM_012.jpg	99
1800.167	1.178	1178.4	observe	Run2	observe/STIM_012.jpg	99
1803.685	1.538	1538.5	observe	Run2	observe/STIM_013.jpg	99
1808.862	1.378	1378.3	observe	Run2	observe/STIM_013.jpg	100
1812.254	1.068	1067.9	observe	Run2	observe/STIM_013.jpg	99
1815.382	1.283	1282.9	observe	Run2	observe/STIM_013.jpg	99
1820.108	0.898	898.2	observe	Run2	observe/STIM_014.jpg	99
1824.0	1.027	1027.2	observe	Run2	observe/STIM_014.jpg	99
1827.85	0.921	921.4	observe	Run2	observe/STIM_014.jpg	99
1831.176	1.764	1763.9	observe	Run2	observe/STIM_014.jpg	99
1835.195	0.981	980.9	observe	Run2	observe/STIM_015.jpg	99
1839.547	1.654	1653.8	observe	Run2	observe/STIM_015.jpg	99
1844.475	0.892	892.5	observe	Run2	observe/STIM_015.jpg	100
1848.838	1.078	1078.1	observe	Run2	observe/STIM_015.jpg	100
1852.93	1.059	1058.8	observe	Run2	observe/STIM_016.jpg	100
1857.492	1.052	1051.5	observe	Run2	observe/STIM_016.jpg	99
1861.181	1.418	1417.5	observe	Run2	observe/STIM_016.jpg	99
1865.311	1.172	1171.7	observe	Run2	observe/STIM_016.jpg	99
1870.131	0.946	946.1	observe	Run2	observe/STIM_017.jpg	99
1874.888	1.251	1251.0	observe	Run2	observe/STIM_017.jpg	99
1879.801	1.145	1145.1	observe	Run2	observe/STIM_017.jpg	100
1884.229	1.092	1092.4	observe	Run2	observe/STIM_017.jpg	100
1887.68	1.53	1530.4	observe	Run2	observe/STIM_018.jpg	100
1893.094	1.074	1074.5	observe	Run2	observe/STIM_018.jpg	100
1897.851	1.494	1494.3	observe	Run2	observe/STIM_018.jpg	99
1901.642	1.048	1047.7	observe	Run2	observe/STIM_018.jpg	100
1905.482	1.538	1538.0	observe	Run2	observe/STIM_019.jpg	100
1908.851	1.252	1251.7	observe	Run2	observe/STIM_019.jpg	100
1911.981	0.934	933.9	observe	Run2	observe/STIM_019.jpg	100
1916.81	0.949	949.3	observe	Run2	observe/STIM_019.jpg	99
1920.212	1.464	1464.4	regulate	Run3	regulate/STIM_000.jpg	100
1924.206	2.556	2556.3	regulate	Run3	regulate/STIM_000.jpg	99
1929.302	1.594	1594.3	regulate	Run3	regulate/STIM_000.jpg	100
1933.157	1.813	1812.8	regulate	Run3	regulate/STIM_000.jpg	99
1937.553	1.969	1969.3	regulate	Run3	regulate/STIM_001.jpg	100
1941.662	2.311	2310.7	regulate	Run3	regulate/STIM_001.jpg	99
1945.909	2.66	2659.5	regulate	Run3	regulate/STIM_001.jpg	100
1951.732	2.113	2112.8	regulate	Run3	regulate/STIM_001.jpg	99
1957.047	2.492	2492.4	regulate	Run3	regulate/STIM_002.jpg	99
1962.188	2.395	2394.8	regulate	Run3	regulate/STIM_002.jpg	100
1967.1	2.344	2343.6	regulate	Run3	regulate/STIM_002.jpg	99
1972.456	2.042	2041.5	regulate	Run3	regulate/STIM_002.jpg	100
1976.999	2.195	2194.8	regulate	Run3	regulate/STIM_003.jpg	100
1982.304	1.321	1321.4	regulate	Run3	regulate/STIM_003.jpg	99
1985.844	2.053	2052.6	regulate	Run3	regulate/STIM_003.jpg	99
1990.279	2.676	2676.3	regulate	Run3	regulate/STIM_003.jpg	100
1995.544	2.049	2049.4	regulate	Run3	regulate/STIM_004.jpg	99
1999.575	1.769	1769.2	regulate	Run3	regulate/STIM_004.jpg	99
2004.694	1.842	1842.2	regulate	Run3	regulate/STIM_004.jpg	99
2008.752	1.621	1621.2	regulate	Run3	regulate/STIM_004.jpg	99
2013.642	2.113	2113.1	regulate	Run3	regulate/STIM_005.jpg	100
2018.318	2.358	2357.5	regulate	Run3	regulate/STIM_005.jpg	100
2022.46	2.089	2088.6	regulate	Run3	regulate/STIM_005.jpg	100
2027.723	2.005	2004.9	regulate	Run3	regulate/STIM_005.jpg	99
2031.745	1.678	1678.0	regulate	Run3	regulate/STIM_006.jpg	99
2036.775	1.167	1166.9	regulate	Run3	regulate/STIM_006.jpg	100
2040.961	1.731	1731.2	regulate	Run3	regulate/STIM_006.jpg	100
2045.667	1.436	1436.2	regulate	Run3	regulate/STIM_006.jpg	100
2049.441	2.141	2140.6	regulate	Run3	regulate/STIM_007.jpg	99
2055.268	1.644	1643.5	regulate	Run3	regulate/STIM_007.jpg	99
2060.11	1.261	1260.7	regulate	Run3	regulate/STIM_007.jpg	99
2064.708	2.226	2225.5	regulate	Run3	regulate/STIM_007.jpg	100
2069.3	1.638	1638.1	regulate	Run3	regulate/STIM_008.jpg	100
2074.775	1.676	1676.4	regulate	Run3	regulate/STIM_008.jpg	100
2079.816	2.618	2618.5	regulate	Run3	regulate/STIM_008.jpg	99
2084.375	1.64	1639.8	regulate	Run3	regulate/STIM_008.jpg	100
2089.725	2.697	2696.8	regulate	Run3	regulate/STIM_009.jpg	100
2094.335	1.77	1769.7	regulate	Run3	regulate/STIM_009.jpg	99
2099.752	2.54	2539.9	regulate	Run3	regulate/STIM_009.jpg	100
2104.882	1.232	1231.8	regulate	Run3	regulate/STIM_009.jpg	100
2108.836	2.436	2436.0	regulate	Run3	regulate/STIM_010.jpg	99
2114.394	2.123	2123.2	regulate	Run3	regulate/STIM_010.jpg	100
2118.437	1.725	1724.7	regulate	Run3	regulate/STIM_010.jpg	99
2122.223	2.606	2606.4	regulate	Run3	regulate/STIM_010.jpg	99
2128.46	1.21	1209.7	regulate	Run3	regulate/STIM_011.jpg	99
2132.344	2.31	2309.8	regulate	Run3	regulate/STIM_011.jpg	100
2138.314	2.249	2248.9	regulate	Run3	regulate/STIM_011.jpg	99
2142.891	2.119	2119.0	regulate	Run3	regulate/STIM_011.jpg	100
2148.605	2.451	2451.3	regulate	Run3	regulate/STIM_012.jpg	99
2154.742	1.198	1197.5	regulate	Run3	regulate/STIM_012.jpg	100
2159.754	1.92	1920.4	regulate	Run3	regulate/STIM_012.jpg	100
2164.317	1.905	1905.4	regulate	Run3	regulate/STIM_012.jpg	99
2169.623	2.502	2501.8	regulate	Run3	regulate/STIM_013.jpg	100
2175.187	1.544	1543.5	regulate	Run3	regulate/STIM_013.jpg	99
2179.323	1.934	1934.5	regulate	Run3	regulate/STIM_013.jpg	99
2183.508	2.24	2240.3	regulate	Run3	regulate/STIM_013.jpg	100
2189.327	1.739	1739.2	regulate	Run3	regulate/STIM_014.jpg	99
2193.137	1.813	1812.9	regulate	Run3	regulate/STIM_014.jpg	99
2198.004	2.494	2494.5	regulate	Run3	regulate/STIM_014.jpg	100
2202.413	2.641	2640.8	regulate	Run3	regulate/STIM_014.jpg	100
2206.835	1.328	1328.4	regulate	Run3	regulate/STIM_015.jpg	100
2210.774	1.75	1750.3	regulate	Run3	regulate/STIM_015.jpg	100
2215.079	1.445	1444.9	regulate	Run3	regulate/STIM_015.jpg	99
2219.757	1.6	1600.0	regulate	Run3	regulate/STIM_015.jpg	99
2223.349	2.36	2359.6	regulate	Run3	regulate/STIM_016.jpg	99
2228.268	2.651	2650.8	regulate	Run3	regulate/STIM_016.jpg	99
2234.549	2.512	2511.9	regulate	Run3	regulate/STIM_016.jpg	100
2238.881	1.235	1234.8	regulate	Run3	regulate/STIM_016.jpg	99
2242.256	2.541	2541.4	regulate	Run3	regulate/STIM_017.jpg	99
2247.298	1.84	1839.6	regulate	Run3	regulate/STIM_017.jpg	100
2252.17	1.873	1873.3	regulate	Run3	regulate/STIM_017.jpg	99
2256.044	1.346	1345.5	regulate	Run3	regulate/STIM_017.jpg	99
2260.093	1.292	1292.5	regulate	Run3	regulate/STIM_018.jpg	100
2263.804	1.32	1319.6	regulate	Run3	regulate/STIM_018.jpg	99
2268.774	2.766	2766.0	regulate	Run3	regulate/STIM_018.jpg	100
2273.911	2.029	2028.7	regulate	Run3	regulate/STIM_018.jpg	99
2278.108	2.045	2044.5	regulate	Run3	regulate/STIM_019.jpg	100
2283.656	2.164	2163.9	regulate	Run3	regulate/STIM_019.jpg	99
2289.032	1.458	1458.3	regulate	Run3	regulate/STIM_019.jpg	100
2293.192	1.366	1366.3	regulate	Run3	regulate/STIM_019.jpg	100
2296.985	1.422	1422.0	regulate	Run3	regulate/STIM_020.jpg	100
2300.527	1.69	1689.9	regulate	Run3	regulate/STIM_020.jpg	100
2304.363	1.501	1500.6	regulate	Run3	regulate/STIM_020.jpg	100
2308.928	1.339	1339.0	regulate	Run3	regulate/STIM_020.jpg	100
2313.138	1.305	1305.1	regulate	Run3	regulate/STIM_021.jpg	99
2318.039	2.222	2222.3	regulate	Run3	regulate/STIM_021.jpg	100
2323.982	2.453	2453.0	regulate	Run3	regulate/STIM_021.jpg	100
2330.032	2.133	2133.3	regulate	Run3	regulate/STIM_021.jpg	99
2334.606	1.39	1389.6	regulate	Run3	regulate/STIM_022.jpg	99
2339.482	2.03	2030.0	regulate	Run3	regulate/STIM_022.jpg	100
2344.871	2.238	2238.3	regulate	Run3	regulate/STIM_022.jpg	99
2350.503	1.464	1463.8	regulate	Run3	regulate/STIM_022.jpg	99
2355.391	2.355	2354.9	regulate	Run3	regulate/STIM_023.jpg	100
2360.965	2.578	2578.2	regulate	Run3	regulate/STIM_023.jpg	100
2366.232	1.341	1341.4	regulate	Run3	regulate/STIM_023.jpg	100
2371.149	1.202	1202.2	regulate	Run3	regulate/STIM_023.jpg	99
2375.301	2.718	2717.7	regulate	Run3	regulate/STIM_024.jpg	100
2379.768	1.68	1679.6	regulate	Run3	regulate/STIM_024.jpg	100
2383.66	1.247	1246.8	regulate	Run3	regulate/STIM_024.jpg	99
2387.264	2.424	2424.0	regulate	Run3	regulate/STIM_024.jpg	99
2392.828	2.36	2359.9	regulate	Run3	regulate/STIM_025.jpg	99
2397.673	1.114	1114.1	regulate	Run3	regulate/STIM_025.jpg	99
2400.935	2.311	2310.6	regulate	Run3	regulate/STIM_025.jpg	100
2406.817	2.295	2294.9	regulate	Run3	regulate/STIM_025.jpg	99
2412.158	1.497	1496.9	regulate	Run3	regulate/STIM_026.jpg	99
2416.241	2.35	2349.7	regulate	Run3	regulate/STIM_026.jpg	99
2420.672	2.422	2422.4	regulate	Run3	regulate/STIM_026.jpg	99
2425.831	2.495	2495.0	regulate	Run3	regulate/STIM_026.jpg	99
2431.869	1.487	1486.8	regulate	Run3	regulate/STIM_027.jpg	100
2436.315	1.466	1465.7	regulate	Run3	regulate/STIM_027.jpg	100
2439.961	2.565	2565.1	regulate	Run3	regulate/STIM_027.jpg	100
2444.927	1.666	1666.4	regulate	Run3	regulate/STIM_027.jpg	100
2449.591	1.433	1432.9	regulate	Run3	regulate/STIM_028.jpg	100
2452.971	1.732	1732.0	regulate	Run3	regulate/STIM_028.jpg	100
2456.782	2.204	2204.5	regulate	Run3	regulate/STIM_028.jpg	99
2461.507	1.386	1385.7	regulate	Run3	regulate/STIM_028.jpg	100
2465.07	1.763	1762.8	regulate	Run3	regulate/STIM_029.jpg	100
2469.849	1.742	1741.7	regulate	Run3	regulate/STIM_029.jpg	99
2474.941	1.906	1905.9	regulate	Run3	regulate/STIM_029.jpg	99
2479.277	2.52	2519.5	regulate	Run3	regulate/STIM_029.jpg	100
2484.296	1.171	1171.0	observe	Run3	observe/STIM_000.jpg	100
2487.58	1.498	1498.3	observe	Run3	observe/STIM_000.jpg	99
2492.19	1.498	1498.2	observe	Run3	observe/STIM_000.jpg	100
2496.211	0.827	827.2	observe	Run3	observe/STIM_000.jpg	99
2499.83	1.274	1274.5	observe	Run3	observe/STIM_001.jpg	100
2503.393	1.399	1398.7	observe	Run3	observe/STIM_001.jpg	100
2507.877	1.312	1311.9	observe	Run3	observe/STIM_001.jpg	100
2512.039	1.133	1132.8	observe	Run3	observe/STIM_001.jpg	99
2516.869	1.248	1248.5	observe	Run3	observe/STIM_002.jpg	100
2520.085	1.615	1614.6	observe	Run3	observe/STIM_002.jpg	99
2525.436	0.865	864.6	observe	Run3	observe/STIM_002.jpg	99
2529.803	1.494	1493.6	observe	Run3	observe/STIM_002.jpg	100
2534.512	1.081	1080.7	observe	Run3	observe/STIM_003.jpg	100
2539.072	1.221	1221.0	observe	Run3	observe/STIM_003.jpg	99
2544.008	1.07	1069.5	observe	Run3	observe/STIM_003.jpg	99
2548.005	1.785	1785.3	observe	Run3	observe/STIM_003.jpg	99
2552.257	1.026	1025.9	observe	Run3	observe/STIM_004.jpg	100
2557.164	0.993	993.1	observe	Run3	observe/STIM_004.jpg	99
2560.096	1.402	1401.8	observe	Run3	observe/STIM_004.jpg	100
2564.247	1.341	1341.2	observe	Run3	observe/STIM_004.jpg	99
2568.69	1.052	1052.4	observe	Run3	observe/STIM_005.jpg	100
2572.575	1.651	1650.6	observe	Run3	observe/STIM_005.jpg	100
2577.739	1.367	1367.3	observe	Run3	observe/STIM_005.jpg	99
2582.835	1.494	1494.5	observe	Run3	observe/STIM_005.jpg	99
2587.273	1.556	1556.3	observe	Run3	observe/STIM_006.jpg	99
2590.739	1.473	1473.1	observe	Run3	observe/STIM_006.jpg	100
2595.164	1.656	1655.7	observe	Run3	observe/STIM_006.jpg	100
2599.738	1.603	1603.0	observe	Run3	observe/STIM_006.jpg	100
2604.053	1.442	1441.8	observe	Run3	observe/STIM_007.jpg	100
2608.637	1.058	1058.1	observe	Run3	observe/STIM_007.jpg	100
2612.24	1.483	1482.6	observe	Run3	observe/STIM_007.jpg	100
2615.774	1.464	1464.4	observe	Run3	observe/STIM_007.jpg	100
2619.872	1.257	1257.0	observe	Run3	observe/STIM_008.jpg	99
2624.001	1.0	1000.4	observe	Run3	observe/STIM_008.jpg	100
2627.134	1.372	1371.9	observe	Run3	observe/STIM_008.jpg	99
2630.902	1.291	1290.9	observe	Run3	observe/STIM_008.jpg	100
2635.173	1.238	1238.4	observe	Run3	observe/STIM_009.jpg	100
2640.127	1.31	1310.4	observe	Run3	observe/STIM_009.jpg	99
2645.103	0.911	911.1	observe	Run3	observe/STIM_009.jpg	100
2648.006	1.479	1479.1	observe	Run3	observe/STIM_009.jpg	100
2652.641	1.4	1400.0	observe	Run3	observe/STIM_010.jpg	100
2657.609	1.48	1480.5	observe	Run3	observe/STIM_010.jpg	100
2662.745	1.191	1191.3	observe	Run3	observe/STIM_010.jpg	100
2666.909	1.55	1550.1	observe	Run3	observe/STIM_010.jpg	99
2670.505	1.312	1312.1	observe	Run3	observe/STIM_011.jpg	99
2675.203	1.62	1620.1	observe	Run3	observe/STIM_011.jpg	100
2679.107	1.425	1424.6	observe	Run3	observe/STIM_011.jpg	100
2683.36	1.538	1537.8	observe	Run3	observe/STIM_011.jpg	99
2688.072	1.059	1059.4	observe	Run3	observe/STIM_012.jpg	100
2691.164	1.68	1680.1	observe	Run3	observe/STIM_012.jpg	99
2695.149	0.878	878.4	observe	Run3	observe/STIM_012.jpg	99
2698.403	1.591	1591.2	observe	Run3	observe/STIM_012.jpg	100
2703.748	1.4	1399.9	observe	Run3	observe/STIM_013.jpg	99
2707.307	1.052	1051.7	observe	Run3	observe/STIM_013.jpg	100
2712.23	1.384	1383.5	observe	Run3	observe/STIM_013.jpg	99
2716.32	1.686	1686.4	observe	Run3	observe/STIM_013.jpg	99
2721.157	1.477	1476.9	observe	Run3	observe/STIM_014.jpg	100
2725.436	1.476	1476.4	observe	Run3	observe/STIM_014.jpg	100
2729.767	1.51	1510.1	observe	Run3	observe/STIM_014.jpg	99
2734.111	1.08	1079.6	observe	Run3	observe/STIM_014.jpg	100
2737.498	1.394	1394.1	observe	Run3	observe/STIM_015.jpg	99
2741.223	0.973	973.4	observe	Run3	observe/STIM_015.jpg	99
2745.098	0.961	961.2	observe	Run3	observe/STIM_015.jpg	100
2749.795	1.466	1465.6	observe	Run3	observe/STIM_015.jpg	100
2754.028	1.45	1449.6	observe	Run3	observe/STIM_016.jpg	100
2759.065	1.544	1543.8	observe	Run3	observe/STIM_016.jpg	100
2763.338	1.45	1449.8	observe	Run3	observe/STIM_016.jpg	100
2768.552	1.051	1050.7	observe	Run3	observe/STIM_016.jpg	99
2773.243	1.408	1407.9	observe	Run3	observe/STIM_017.jpg	99
2776.644	1.554	1553.9	observe	Run3	observe/STIM_017.jpg	99
2780.695	1.67	1670.3	observe	Run3	observe/STIM_017.jpg	99
2785.569	1.101	1100.8	observe	Run3	observe/STIM_017.jpg	100
2789.281	1.314	1313.6	observe	Run3	observe/STIM_018.jpg	99
2794.321	1.347	1346.8	observe	Run3	observe/STIM_018.jpg	100
2799.016	1.348	1347.6	observe	Run3	observe/STIM_018.jpg	99
2802.965	1.439	1438.7	observe	Run3	observe/STIM_018.jpg	99
2807.83	1.559	1558.7	observe	Run3	observe/STIM_019.jpg	100
2811.411	1.268	1267.9	observe	Run3	observe/STIM_019.jpg	99
2815.44	0.935	935.4	observe	Run3	observe/STIM_019.jpg	99
2819.017	1.794	1793.9	observe	Run3	observe/STIM_019.jpg	100
