onset	duration	response_time_ms	trial_type	learning_stage	stimulus	response_port
0.0	1.503	1502.7	study	Phase1	study/STIM_000.jpg	100
4.111	1.354	1353.9	study	Phase1	study/STIM_000.jpg	100
8.844	1.356	1356.4	study	Phase1	study/STIM_000.jpg	100
13.547	1.373	1372.8	study	Phase1	study/STIM_001.jpg	100
19.05	1.115	1115.0	study	Phase1	study/STIM_001.jpg	99
23.638	0.828	827.9	study	Phase1	study/STIM_001.jpg	99
26.642	1.024	1024.3	study	Phase1	study/STIM_002.jpg	100
30.599	0.974	974.0	study	Phase1	study/STIM_002.jpg	100
34.801	0.776	775.6	study	Phase1	study/STIM_002.jpg	99
37.707	1.031	1031.0	study	Phase1	study/STIM_003.jpg	100
42.642	0.87	870.1	study	Phase1	study/STIM_003.jpg	99
47.202	1.194	1194.5	study	Phase1	study/STIM_003.jpg	99
50.718	1.318	1318.0	study	Phase1	study/STIM_004.jpg	100
55.482	1.314	1313.8	study	Phase1	study/STIM_004.jpg	99
60.098	1.114	1113.9	study	Phase1	study/STIM_004.jpg	100
64.878	1.092	1092.4	study	Phase1	study/STIM_005.jpg	100
69.177	1.116	1116.4	study	Phase1	study/STIM_005.jpg	99
73.017	0.931	930.9	study	Phase1	study/STIM_005.jpg	99
77.922	1.449	1448.8	study	Phase1	study/STIM_006.jpg	100
83.314	0.711	710.6	study	Phase1	study/STIM_006.jpg	99
87.983	0.71	709.5	study	Phase1	study/STIM_006.jpg	100
92.471	1.152	1152.2	study	Phase1	study/STIM_007.jpg	100
96.775	1.239	1239.4	study	Phase1	study/STIM_007.jpg	99
101.299	1.172	1172.3	study	Phase1	study/STIM_007.jpg	99
105.216	0.837	836.7	study	Phase1	study/STIM_008.jpg	100
109.397	1.379	1378.7	study	Phase1	study/STIM_008.jpg	99
113.197	1.091	1090.8	study	Phase1	study/STIM_008.jpg	100
118.265	0.768	768.4	study	Phase1	study/STIM_009.jpg	100
122.69	1.394	1394.3	study	Phase1	study/STIM_009.jpg	99
127.898	0.932	931.9	study	Phase1	study/STIM_009.jpg	99
132.167	0.866	865.8	study	Phase1	study/STIM_010.jpg	100
136.205	1.638	1638.0	study	Phase1	study/STIM_010.jpg	99
141.528	0.768	767.5	study	Phase1	study/STIM_010.jpg	100
145.449	1.52	1519.5	study	Phase1	study/STIM_011.jpg	99
149.22	1.412	1412.2	study	Phase1	study/STIM_011.jpg	100
153.61	1.46	1459.6	study	Phase1	study/STIM_011.jpg	99
159.006	1.105	1105.4	study	Phase1	study/STIM_012.jpg	99
163.687	0.765	764.6	study	Phase1	study/STIM_012.jpg	99
166.636	1.253	1253.1	study	Phase1	study/STIM_012.jpg	100
170.127	1.375	1375.1	study	Phase1	study/STIM_013.jpg	99
175.664	0.976	975.7	study	Phase1	study/STIM_013.jpg	100
180.652	1.047	1047.4	study	Phase1	study/STIM_013.jpg	100
183.752	0.86	859.9	study	Phase1	study/STIM_014.jpg	100
187.884	0.832	832.1	study	Phase1	study/STIM_014.jpg	99
191.5	0.897	896.8	study	Phase1	study/STIM_014.jpg	100
194.474	1.383	1383.3	study	Phase1	study/STIM_015.jpg	100
199.334	1.216	1216.4	study	Phase1	study/STIM_015.jpg	100
203.356	1.401	1400.8	study	Phase1	study/STIM_015.jpg	100
208.775	0.922	921.8	study	Phase1	study/STIM_016.jpg	100
212.171	1.438	1437.6	study	Phase1	study/STIM_016.jpg	100
215.868	0.868	867.8	study	Phase1	study/STIM_016.jpg	100
220.747	1.028	1027.9	study	Phase1	study/STIM_017.jpg	99
224.964	0.964	963.8	study	Phase1	study/STIM_017.jpg	99
229.91	1.212	1211.9	study	Phase1	study/STIM_017.jpg	99
234.4	1.314	1314.0	study	Phase1	study/STIM_018.jpg	100
239.41	1.231	1230.8	study	Phase1	study/STIM_018.jpg	99
243.501	1.498	1497.5	study	Phase1	study/STIM_018.jpg	99
247.429	1.484	1484.2	study	Phase1	study/STIM_019.jpg	99
251.119	0.798	797.6	study	Phase1	study/STIM_019.jpg	100
254.714	1.322	1322.5	study	Phase1	study/STIM_019.jpg	100
259.902	1.65	1649.5	study	Phase1	study/STIM_020.jpg	100
265.477	0.629	628.7	study	Phase1	study/STIM_020.jpg	100
269.273	1.467	1466.7	study	Phase1	study/STIM_020.jpg	99
273.152	1.362	1361.6	study	Phase1	study/STIM_021.jpg	99
277.441	1.355	1355.4	study	Phase1	study/STIM_021.jpg	99
280.987	0.924	924.1	study	Phase1	study/STIM_021.jpg	100
285.72	1.506	1506.4	study	Phase1	study/STIM_022.jpg	100
290.084	0.745	744.9	study	Phase1	study/STIM_022.jpg	100
293.533	0.814	813.8	study	Phase1	study/STIM_022.jpg	100
296.53	1.299	1299.3	study	Phase1	study/STIM_023.jpg	100
300.561	1.311	1311.3	study	Phase1	study/STIM_023.jpg	99
304.925	1.246	1245.9	study	Phase1	study/STIM_023.jpg	100
310.263	0.885	885.3	study	Phase1	study/STIM_024.jpg	99
313.613	0.768	767.8	study	Phase1	study/STIM_024.jpg	100
317.733	1.281	1281.0	study	Phase1	study/STIM_024.jpg	99
322.838	0.909	909.2	study	Phase1	study/STIM_025.jpg	100
326.462	1.569	1568.7	study	Phase1	study/STIM_025.jpg	100
330.82	0.986	986.0	study	Phase1	study/STIM_025.jpg	100
334.268	0.894	894.2	study	Phase1	study/STIM_026.jpg	100
338.425	0.861	861.4	study	Phase1	study/STIM_026.jpg	99
342.734	1.05	1050.0	study	Phase1	study/STIM_026.jpg	99
347.136	0.97	970.4	study	Phase1	study/STIM_027.jpg	99
351.16	0.753	753.4	study	Phase1	study/STIM_027.jpg	99
355.319	0.763	762.6	study	Phase1	study/STIM_027.jpg	100
358.576	1.246	1245.5	study	Phase1	study/STIM_028.jpg	99
362.145	1.544	1544.2	study	Phase1	study/STIM_028.jpg	99
366.476	0.863	863.2	study	Phase1	study/STIM_028.jpg	99
369.483	1.42	1419.5	study	Phase1	study/STIM_029.jpg	100
373.963	1.534	1534.0	study	Phase1	study/STIM_029.jpg	99
377.712	1.264	1264.5	study	Phase1	study/STIM_029.jpg	100
381.418	0.77	770.5	test	Phase1	test/STIM_000.jpg	100
385.559	0.849	849.0	test	Phase1	test/STIM_000.jpg	100
389.451	0.664	664.2	test	Phase1	test/STIM_000.jpg	99
392.996	0.803	802.9	test	Phase1	test/STIM_001.jpg	99
396.529	0.711	711.0	test	Phase1	test/STIM_001.jpg	99
400.675	0.966	965.8	test	Phase1	test/STIM_001.jpg	100
403.938	0.57	569.8	test	Phase1	test/STIM_002.jpg	100
407.636	0.949	948.6	test	Phase1	test/STIM_002.jpg	99
412.552	1.069	1069.2	test	Phase1	test/STIM_002.jpg	99
416.856	0.658	658.1	test	Phase1	test/STIM_003.jpg	100
420.194	0.901	901.0	test	Phase1	test/STIM_003.jpg	99
424.223	0.677	676.9	test	Phase1	test/STIM_003.jpg	100
427.521	0.863	863.3	test	Phase1	test/STIM_004.jpg	100
432.32	0.664	663.6	test	Phase1	test/STIM_004.jpg	100
436.243	1.212	1211.8	test	Phase1	test/STIM_004.jpg	99
440.537	0.95	950.3	test	Phase1	test/STIM_005.jpg	99
443.938	0.804	804.5	test	Phase1	test/STIM_005.jpg	100
448.075	0.972	971.9	test	Phase1	test/STIM_005.jpg	99
451.882	0.987	987.2	test	Phase1	test/STIM_006.jpg	100
456.003	0.998	997.8	test	Phase1	test/STIM_006.jpg	99
460.338	1.096	1095.8	test	Phase1	test/STIM_006.jpg	99
464.618	0.707	707.2	test	Phase1	test/STIM_007.jpg	100
469.073	0.863	863.3	test	Phase1	test/STIM_007.jpg	99
473.905	0.886	886.3	test	Phase1	test/STIM_007.jpg	99
477.924	0.812	812.4	test	Phase1	test/STIM_008.jpg	100
481.806	1.018	1017.8	test	Phase1	test/STIM_008.jpg	100
486.253	1.066	1066.0	test	Phase1	test/STIM_008.jpg	100
490.287	1.095	1095.3	test	Phase1	test/STIM_009.jpg	100
493.691	0.67	669.5	test	Phase1	test/STIM_009.jpg	100
498.129	0.819	819.3	test	Phase1	test/STIM_009.jpg	100
501.871	0.715	715.4	test	Phase1	test/STIM_010.jpg	100
505.331	0.687	687.2	test	Phase1	test/STIM_010.jpg	99
510.035	0.997	996.9	test	Phase1	test/STIM_010.jpg	99
513.154	0.853	853.2	test	Phase1	test/STIM_011.jpg	99
516.134	0.974	973.8	test	Phase1	test/STIM_011.jpg	100
520.28	0.656	655.7	test	Phase1	test/STIM_011.jpg	100
523.306	0.846	845.9	test	Phase1	test/STIM_012.jpg	99
527.765	0.732	731.8	test	Phase1	test/STIM_012.jpg	100
531.72	1.23	1229.6	test	Phase1	test/STIM_012.jpg	99
536.748	1.114	1114.5	test	Phase1	test/STIM_013.jpg	100
541.006	0.958	957.8	test	Phase1	test/STIM_013.jpg	100
545.626	1.166	1165.7	test	Phase1	test/STIM_013.jpg	99
549.785	0.75	749.8	test	Phase1	test/STIM_014.jpg	100
552.813	0.736	736.2	test	Phase1	test/STIM_014.jpg	100
557.443	0.551	551.0	test	Phase1	test/STIM_014.jpg	100
561.935	0.881	881.1	test	Phase1	test/STIM_015.jpg	100
566.269	0.662	662.2	test	Phase1	test/STIM_015.jpg	99
570.226	0.665	664.6	test	Phase1	test/STIM_015.jpg	100
572.903	0.651	650.7	test	Phase1	test/STIM_016.jpg	99
577.399	0.673	673.0	test	Phase1	test/STIM_016.jpg	100
581.295	0.98	980.2	test	Phase1	test/STIM_016.jpg	100
585.117	1.037	1037.2	test	Phase1	test/STIM_017.jpg	99
590.242	0.999	998.7	test	Phase1	test/STIM_017.jpg	100
593.574	1.179	1178.8	test	Phase1	test/STIM_017.jpg	100
597.835	1.073	1073.3	test	Phase1	test/STIM_018.jpg	99
601.405	0.686	685.7	test	Phase1	test/STIM_018.jpg	99
604.88	0.554	554.1	test	Phase1	test/STIM_018.jpg	100
609.387	0.791	791.2	test	Phase1	test/STIM_019.jpg	99
613.952	0.76	760.4	test	Phase1	test/STIM_019.jpg	100
617.789	0.728	727.5	test	Phase1	test/STIM_019.jpg	99
622.484	0.945	945.0	test	Phase1	test/STIM_020.jpg	100
626.187	0.954	954.5	test	Phase1	test/STIM_020.jpg	100
629.948	0.983	982.7	test	Phase1	test/STIM_020.jpg	100
633.621	0.64	640.2	test	Phase1	test/STIM_021.jpg	99
636.945	1.194	1194.4	test	Phase1	test/STIM_021.jpg	100
641.299	0.559	559.1	test	Phase1	test/STIM_021.jpg	99
645.659	0.688	688.2	test	Phase1	test/STIM_022.jpg	100
648.504	1.175	1175.3	test	Phase1	test/STIM_022.jpg	100
652.957	0.986	985.5	test	Phase1	test/STIM_022.jpg	99
657.975	0.709	708.9	test	Phase1	test/STIM_023.jpg	100
662.293	0.489	489.2	test	Phase1	test/STIM_023.jpg	99
665.444	0.562	562.1	test	Phase1	test/STIM_023.jpg	99
669.352	1.172	1171.9	test	Phase1	test/STIM_024.jpg	100
673.395	0.892	892.1	test	Phase1	test/STIM_024.jpg	100
676.378	0.853	852.9	test	Phase1	test/STIM_024.jpg	100
680.372	0.752	752.3	test	Phase1	test/STIM_025.jpg	100
683.327	0.628	627.8	test	Phase1	test/STIM_025.jpg	100
687.214	1.079	1079.2	test	Phase1	test/STIM_025.jpg	99
690.431	0.756	756.1	test	Phase1	test/STIM_026.jpg	100
695.047	0.712	711.9	test	Phase1	test/STIM_026.jpg	99
698.506	0.904	903.7	test	Phase1	test/STIM_026.jpg	99
702.929	1.048	1048.5	test	Phase1	test/STIM_027.jpg	100
707.234	0.853	853.3	test	Phase1	test/STIM_027.jpg	100
712.027	1.084	1084.2	test	Phase1	test/STIM_027.jpg	99
715.491	1.07	1070.0	test	Phase1	test/STIM_028.jpg	100
720.343	0.736	736.2	test	Phase1	test/STIM_028.jpg	100
723.753	0.776	775.8	test	Phase1	test/STIM_028.jpg	100
726.995	0.969	969.1	test	Phase1	test/STIM_029.jpg	100
731.461	1.106	1105.9	test	Phase1	test/STIM_029.jpg	100
734.842	0.844	844.1	test	Phase1	test/STIM_029.jpg	100
739.114	1.186	1186.5	study	Phase2	study/STIM_000.jpg	99
744.26	0.686	686.4	study	Phase2	study/STIM_000.jpg	100
748.88	0.729	729.2	study	Phase2	study/STIM_000.jpg	99
751.891	1.279	1279.4	study	Phase2	study/STIM_001.jpg	99
755.73	0.707	707.3	study	Phase2	study/STIM_001.jpg	100
759.109	1.029	1029.4	study	Phase2	study/STIM_001.jpg	100
762.809	0.68	679.9	study	Phase2	study/STIM_002.jpg	100
766.977	0.617	617.3	study	Phase2	study/STIM_002.jpg	100
770.617	0.617	616.7	study	Phase2	study/STIM_002.jpg	100
774.089	0.785	784.9	study	Phase2	study/STIM_003.jpg	100
778.154	0.847	847.2	study	Phase2	study/STIM_003.jpg	99
782.152	0.702	702.1	study	Phase2	study/STIM_003.jpg	99
786.268	0.551	550.9	study	Phase2	study/STIM_004.jpg	99
789.978	1.149	1149.2	study	Phase2	study/STIM_004.jpg	99
794.998	0.823	823.4	study	Phase2	study/STIM_004.jpg	100
798.062	1.332	1332.3	study	Phase2	study/STIM_005.jpg	100
802.695	1.058	1057.5	study	Phase2	study/STIM_005.jpg	99
806.122	1.033	1032.7	study	Phase2	study/STIM_005.jpg	100
809.719	1.146	1145.6	study	Phase2	study/STIM_006.jpg	99
813.447	0.714	714.2	study	Phase2	study/STIM_006.jpg	100
817.442	0.988	987.7	study	Phase2	study/STIM_006.jpg	99
820.849	1.139	1139.3	study	Phase2	study/STIM_007.jpg	100
824.603	1.041	1040.6	study	Phase2	study/STIM_007.jpg	100
828.169	0.892	892.3	study	Phase2	study/STIM_007.jpg	100
832.106	0.787	786.9	study	Phase2	study/STIM_008.jpg	100
835.774	1.047	1046.8	study	Phase2	study/STIM_008.jpg	99
839.312	1.145	1145.1	study	Phase2	study/STIM_008.jpg	99
843.377	1.124	1124.3	study	Phase2	study/STIM_009.jpg	99
847.471	1.23	1229.5	study	Phase2	study/STIM_009.jpg	99
850.865	0.948	948.5	study	Phase2	study/STIM_009.jpg	99
854.973	0.89	890.3	study	Phase2	study/STIM_010.jpg	99
859.343	1.248	1248.1	study	Phase2	study/STIM_010.jpg	100
862.893	1.058	1058.3	study	Phase2	study/STIM_010.jpg	100
867.364	1.167	1166.9	study	Phase2	study/STIM_011.jpg	100
872.21	0.842	841.7	study	Phase2	study/STIM_011.jpg	100
876.34	0.863	863.3	study	Phase2	study/STIM_011.jpg	99
879.452	0.615	615.4	study	Phase2	study/STIM_012.jpg	99
882.749	1.14	1140.0	study	Phase2	study/STIM_012.jpg	99
887.778	0.61	610.2	study	Phase2	study/STIM_012.jpg	99
891.577	0.955	954.6	study	Phase2	study/STIM_013.jpg	100
896.048	0.693	692.9	study	Phase2	study/STIM_013.jpg	100
899.928	1.254	1254.5	study	Phase2	study/STIM_013.jpg	99
904.464	0.701	701.1	study	Phase2	study/STIM_014.jpg	99
908.348	0.698	697.6	study	Phase2	study/STIM_014.jpg	100
911.821	0.779	779.2	study	Phase2	study/STIM_014.jpg	100
915.961	0.896	896.3	study	Phase2	study/STIM_015.jpg	100
920.927	0.87	869.8	study	Phase2	study/STIM_015.jpg	100
925.279	0.815	814.9	study	Phase2	study/STIM_015.jpg	100
928.687	0.875	874.9	study	Phase2	study/STIM_016.jpg	99
932.308	1.297	1296.8	study	Phase2	study/STIM_016.jpg	100
937.58	0.8	799.7	study	Phase2	study/STIM_016.jpg	100
941.309	0.626	625.8	study	Phase2	study/STIM_017.jpg	100
945.117	0.821	821.1	study	Phase2	study/STIM_017.jpg	100
948.296	0.636	635.7	study	Phase2	study/STIM_017.jpg	99
952.481	1.39	1390.5	study	Phase2	study/STIM_018.jpg	99
956.546	1.336	1335.5	study	Phase2	study/STIM_018.jpg	100
960.648	1.005	1004.6	study	Phase2	study/STIM_018.jpg	99
963.869	0.707	707.3	study	Phase2	study/STIM_019.jpg	100
968.391	0.617	616.7	study	Phase2	study/STIM_019.jpg	99
972.963	0.451	450.9	study	Phase2	study/STIM_019.jpg	100
976.969	0.693	693.2	study	Phase2	study/STIM_020.jpg	99
980.219	0.979	978.7	study	Phase2	study/STIM_020.jpg	99
985.269	0.594	593.8	study	Phase2	study/STIM_020.jpg	99
988.955	0.761	760.7	study	Phase2	study/STIM_021.jpg	99
993.684	1.253	1252.9	study	Phase2	study/STIM_021.jpg	99
998.692	1.242	1242.5	study	Phase2	study/STIM_021.jpg	99
1003.713	0.79	790.4	study	Phase2	study/STIM_022.jpg	100
1008.092	1.106	1106.5	study	Phase2	study/STIM_022.jpg	99
1012.004	1.015	1014.8	study	Phase2	study/STIM_022.jpg	100
1015.217	1.231	1230.9	study	Phase2	study/STIM_023.jpg	100
1019.708	0.718	717.7	study	Phase2	study/STIM_023.jpg	99
1024.122	1.223	1223.3	study	Phase2	study/STIM_023.jpg	99
1029.259	1.254	1253.5	study	Phase2	study/STIM_024.jpg	100
1034.228	0.749	749.0	study	Phase2	study/STIM_024.jpg	100
1037.703	0.726	725.8	study	Phase2	study/STIM_024.jpg	99
1041.693	0.74	740.4	study	Phase2	study/STIM_025.jpg	99
1045.816	1.068	1068.1	study	Phase2	study/STIM_025.jpg	100
1050.867	0.774	774.5	study	Phase2	study/STIM_025.jpg	99
1054.801	1.384	1384.4	study	Phase2	study/STIM_026.jpg	100
1060.245	0.895	895.4	study	Phase2	study/STIM_026.jpg	99
1065.088	0.685	684.8	study	Phase2	study/STIM_026.jpg	99
1069.211	1.255	1255.2	study	Phase2	study/STIM_027.jpg	99
1072.87	1.029	1029.1	study	Phase2	study/STIM_027.jpg	99
1076.157	0.994	994.4	study	Phase2	study/STIM_027.jpg	99
1079.259	0.744	744.0	study	Phase2	study/STIM_028.jpg	99
1083.752	1.186	1186.1	study	Phase2	study/STIM_028.jpg	100
1088.518	0.929	929.4	study	Phase2	study/STIM_028.jpg	99
1092.087	1.248	1248.5	study	Phase2	study/STIM_029.jpg	99
1096.779	1.23	1230.1	study	Phase2	study/STIM_029.jpg	100
1101.418	0.908	907.9	study	Phase2	study/STIM_029.jpg	99
1104.383	0.489	488.6	test	Phase2	test/STIM_000.jpg	100
1107.755	0.691	691.0	test	Phase2	test/STIM_000.jpg	100
1111.863	0.876	876.0	test	Phase2	test/STIM_000.jpg	100
1114.868	1.109	1109.1	test	Phase2	test/STIM_001.jpg	99
1118.517	0.87	869.9	test	Phase2	test/STIM_001.jpg	100
1122.828	0.757	756.8	test	Phase2	test/STIM_001.jpg	99
1127.491	0.734	734.1	test	Phase2	test/STIM_002.jpg	100
1131.508	0.934	933.6	test	Phase2	test/STIM_002.jpg	99
1135.189	0.96	959.6	test	Phase2	test/STIM_002.jpg	100
1139.386	0.708	707.6	test	Phase2	test/STIM_003.jpg	100
1142.595	0.852	851.7	test	Phase2	test/STIM_003.jpg	100
1147.323	0.839	838.6	test	Phase2	test/STIM_003.jpg	100
1151.647	0.605	604.7	test	Phase2	test/STIM_004.jpg	99
1154.947	0.67	670.0	test	Phase2	test/STIM_004.jpg	99
1158.71	0.661	661.2	test	Phase2	test/STIM_004.jpg	99
1163.347	0.69	690.0	test	Phase2	test/STIM_005.jpg	99
1166.195	0.845	844.8	test	Phase2	test/STIM_005.jpg	100
1169.687	1.183	1182.9	test	Phase2	test/STIM_005.jpg	100
1173.658	0.838	837.8	test	Phase2	test/STIM_006.jpg	99
1177.864	1.122	1121.9	test	Phase2	test/STIM_006.jpg	100
1181.245	1.234	1233.6	test	Phase2	test/STIM_006.jpg	99
1185.29	0.916	915.6	test	Phase2	test/STIM_007.jpg	99
1188.451	0.744	743.9	test	Phase2	test/STIM_007.jpg	100
1192.583	0.879	878.6	test	Phase2	test/STIM_007.jpg	99
1197.372	1.166	1165.8	test	Phase2	test/STIM_008.jpg	99
1201.529	0.915	915.1	test	Phase2	test/STIM_008.jpg	100
1205.351	0.79	790.2	test	Phase2	test/STIM_008.jpg	99
1208.951	0.734	734.1	test	Phase2	test/STIM_009.jpg	100
1212.454	0.7	700.0	test	Phase2	test/STIM_009.jpg	100
1217.161	0.879	879.1	test	Phase2	test/STIM_009.jpg	100
1221.77	1.176	1176.0	test	Phase2	test/STIM_010.jpg	99
1225.128	0.769	768.7	test	Phase2	test/STIM_010.jpg	99
1229.286	1.009	1009.1	test	Phase2	test/STIM_010.jpg	100
1232.643	0.662	662.4	test	Phase2	test/STIM_011.jpg	100
1235.989	0.615	615.1	test	Phase2	test/STIM_011.jpg	100
1239.029	0.616	616.1	test	Phase2	test/STIM_011.jpg	99
1243.163	0.728	728.4	test	Phase2	test/STIM_012.jpg	99
1246.59	0.564	564.3	test	Phase2	test/STIM_012.jpg	100
1250.165	0.638	637.5	test	Phase2	test/STIM_012.jpg	100
1253.118	0.773	772.6	test	Phase2	test/STIM_013.jpg	100
1257.371	1.063	1062.8	test	Phase2	test/STIM_013.jpg	99
1260.843	0.99	990.2	test	Phase2	test/STIM_013.jpg	100
1265.046	0.674	674.1	test	Phase2	test/STIM_014.jpg	100
1269.298	0.928	927.9	test	Phase2	test/STIM_014.jpg	99
1273.842	1.011	1010.9	test	Phase2	test/STIM_014.jpg	100
1277.789	0.703	702.8	test	Phase2	test/STIM_015.jpg	99
1281.398	0.702	702.4	test	Phase2	test/STIM_015.jpg	100
1285.961	0.744	743.8	test	Phase2	test/STIM_015.jpg	100
1290.178	0.634	633.8	test	Phase2	test/STIM_016.jpg	99
1293.571	0.824	823.8	test	Phase2	test/STIM_016.jpg	100
1296.702	0.613	612.6	test	Phase2	test/STIM_016.jpg	100
1300.172	0.624	623.8	test	Phase2	test/STIM_017.jpg	100
1304.512	0.878	878.4	test	Phase2	test/STIM_017.jpg	99
1308.078	0.81	809.5	test	Phase2	test/STIM_017.jpg	100
1311.972	0.951	951.2	test	Phase2	test/STIM_018.jpg	100
1316.286	0.754	754.2	test	Phase2	test/STIM_018.jpg	100
1319.359	0.712	711.8	test	Phase2	test/STIM_018.jpg	100
1323.952	0.829	828.6	test	Phase2	test/STIM_019.jpg	100
1327.371	0.797	797.2	test	Phase2	test/STIM_019.jpg	99
1331.425	1.061	1061.1	test	Phase2	test/STIM_019.jpg	99
1335.434	0.894	894.4	test	Phase2	test/STIM_020.jpg	100
1339.765	0.79	789.8	test	Phase2	test/STIM_020.jpg	99
1343.863	0.555	555.1	test	Phase2	test/STIM_020.jpg	99
1348.204	0.609	609.0	test	Phase2	test/STIM_021.jpg	100
1351.624	0.933	933.4	test	Phase2	test/STIM_021.jpg	100
1355.447	0.665	665.4	test	Phase2	test/STIM_021.jpg	100
1359.903	1.175	1174.9	test	Phase2	test/STIM_022.jpg	99
1363.47	0.709	708.8	test	Phase2	test/STIM_022.jpg	99
1366.378	1.114	1114.4	test	Phase2	test/STIM_022.jpg	99
1370.411	0.706	705.8	test	Phase2	test/STIM_023.jpg	100
1373.223	0.798	797.9	test	Phase2	test/STIM_023.jpg	99
1376.599	0.698	698.0	test	Phase2	test/STIM_023.jpg	100
1381.129	0.745	745.3	test	Phase2	test/STIM_024.jpg	99
1385.754	0.759	759.4	test	Phase2	test/STIM_024.jpg	100
1389.167	0.873	872.8	test	Phase2	test/STIM_024.jpg	99
1392.928	1.078	1077.8	test	Phase2	test/STIM_025.jpg	100
1397.97	0.735	735.4	test	Phase2	test/STIM_025.jpg	100
1401.321	1.149	1148.6	test	Phase2	test/STIM_025.jpg	100
1405.759	1.073	1073.1	test	Phase2	test/STIM_026.jpg	100
1410.497	1.142	1142.2	test	Phase2	test/STIM_026.jpg	99
1414.709	0.844	843.7	test	Phase2	test/STIM_026.jpg	100
1418.635	0.678	678.2	test	Phase2	test/STIM_027.jpg	99
1421.584	1.177	1176.7	test	Phase2	test/STIM_027.jpg	99
1425.91	1.115	1115.3	test	Phase2	test/STIM_027.jpg	100
1430.936	0.853	852.8	test	Phase2	test/STIM_028.jpg	100
1434.384	1.082	1082.2	test	Phase2	test/STIM_028.jpg	99
1437.867	0.816	815.6	test	Phase2	test/STIM_028.jpg	100
1440.987	0.929	929.2	test	Phase2	test/STIM_029.jpg	100
1444.279	0.904	903.5	test	Phase2	test/STIM_029.jpg	99
1448.495	0.821	821.0	test	Phase2	test/STIM_029.jpg	99
1451.477	1.095	1095.3	study	Phase3	study/STIM_000.jpg	100
1455.643	0.85	849.8	study	Phase3	study/STIM_000.jpg	100
1460.601	0.499	499.4	study	Phase3	study/STIM_000.jpg	99
1463.673	1.034	1034.4	study	Phase3	study/STIM_001.jpg	100
1467.338	0.783	782.6	study	Phase3	study/STIM_001.jpg	99
1471.892	0.788	788.0	study	Phase3	study/STIM_001.jpg	100
1475.663	1.034	1034.0	study	Phase3	study/STIM_002.jpg	100
1479.371	0.707	706.9	study	Phase3	study/STIM_002.jpg	100
1482.976	0.612	611.8	study	Phase3	study/STIM_002.jpg	99
1487.656	1.034	1033.6	study	Phase3	study/STIM_003.jpg	100
1492.602	0.811	810.8	study	Phase3	study/STIM_003.jpg	100
1496.807	1.048	1048.3	study	Phase3	study/STIM_003.jpg	99
1500.304	0.874	874.1	study	Phase3	study/STIM_004.jpg	99
1503.462	0.51	510.3	study	Phase3	study/STIM_004.jpg	99
1506.347	0.994	994.1	study	Phase3	study/STIM_004.jpg	99
1510.78	1.092	1091.8	study	Phase3	study/STIM_005.jpg	99
1514.713	1.109	1108.8	study	Phase3	study/STIM_005.jpg	100
1519.616	0.845	845.4	study	Phase3	study/STIM_005.jpg	100
1523.89	0.735	735.4	study	Phase3	study/STIM_006.jpg	100
1527.95	0.83	830.2	study	Phase3	study/STIM_006.jpg	100
1532.59	0.676	676.2	study	Phase3	study/STIM_006.jpg	99
1537.083	0.86	859.9	study	Phase3	study/STIM_007.jpg	99
1541.251	1.092	1091.8	study	Phase3	study/STIM_007.jpg	100
1545.883	0.739	739.3	study	Phase3	study/STIM_007.jpg	99
1550.097	1.004	1003.8	study	Phase3	study/STIM_008.jpg	100
1553.502	0.797	797.1	study	Phase3	study/STIM_008.jpg	99
1558.201	1.091	1090.9	study	Phase3	study/STIM_008.jpg	100
1563.074	0.778	778.3	study	Phase3	study/STIM_009.jpg	99
1567.228	0.732	732.1	study	Phase3	study/STIM_009.jpg	100
1570.889	0.627	626.6	study	Phase3	study/STIM_009.jpg	100
1573.827	0.681	681.3	study	Phase3	study/STIM_010.jpg	100
1577.536	0.993	992.6	study	Phase3	study/STIM_010.jpg	100
1581.224	0.934	933.6	study	Phase3	study/STIM_010.jpg	100
1584.503	0.875	875.4	study	Phase3	study/STIM_011.jpg	100
1587.534	0.769	768.6	study	Phase3	study/STIM_011.jpg	99
1590.462	0.846	846.3	study	Phase3	study/STIM_011.jpg	99
1593.801	0.526	526.5	study	Phase3	study/STIM_012.jpg	99
1598.316	0.727	726.9	study	Phase3	study/STIM_012.jpg	100
1602.243	0.889	889.1	study	Phase3	study/STIM_012.jpg	99
1607.088	1.063	1063.1	study	Phase3	study/STIM_013.jpg	100
1611.395	0.542	542.5	study	Phase3	study/STIM_013.jpg	100
1615.013	0.652	652.0	study	Phase3	study/STIM_013.jpg	100
1619.631	1.019	1019.3	study	Phase3	study/STIM_014.jpg	100
1624.114	0.797	796.6	study	Phase3	study/STIM_014.jpg	99
1627.392	0.56	560.2	study	Phase3	study/STIM_014.jpg	99
1630.09	1.091	1090.9	study	Phase3	study/STIM_015.jpg	100
1634.217	0.927	926.7	study	Phase3	study/STIM_015.jpg	99
1637.9	0.627	626.6	study	Phase3	study/STIM_015.jpg	100
1641.42	1.147	1146.7	study	Phase3	study/STIM_016.jpg	99
1646.635	0.939	939.4	study	Phase3	study/STIM_016.jpg	99
1650.474	0.953	953.4	study	Phase3	study/STIM_016.jpg	100
1654.563	0.486	485.9	study	Phase3	study/STIM_017.jpg	100
1658.576	0.505	505.5	study	Phase3	study/STIM_017.jpg	99
1663.061	0.581	581.4	study	Phase3	study/STIM_017.jpg	100
1666.313	1.063	1062.9	study	Phase3	study/STIM_018.jpg	100
1670.74	0.908	907.7	study	Phase3	study/STIM_018.jpg	100
1675.439	1.207	1207.4	study	Phase3	study/STIM_018.jpg	99
1679.201	0.813	813.2	study	Phase3	study/STIM_019.jpg	100
1683.158	0.836	836.4	study	Phase3	study/STIM_019.jpg	99
1687.137	0.971	970.7	study	Phase3	study/STIM_019.jpg	99
1691.553	0.648	647.8	study	Phase3	study/STIM_020.jpg	99
1694.727	1.031	1031.2	study	Phase3	study/STIM_020.jpg	99
1699.685	0.601	601.3	study	Phase3	study/STIM_020.jpg	100
1702.719	0.646	646.1	study	Phase3	study/STIM_021.jpg	100
1707.074	0.596	596.2	study	Phase3	study/STIM_021.jpg	99
1710.292	0.589	589.1	study	Phase3	study/STIM_021.jpg	100
1714.753	0.657	656.8	study	Phase3	study/STIM_022.jpg	99
1718.136	0.824	824.3	study	Phase3	study/STIM_022.jpg	99
1721.466	0.964	964.4	study	Phase3	study/STIM_022.jpg	100
1725.413	1.032	1032.3	study	Phase3	study/STIM_023.jpg	100
1730.009	0.525	525.1	study	Phase3	study/STIM_023.jpg	100
1734.048	0.753	753.3	study	Phase3	study/STIM_023.jpg	99
1738.66	0.584	584.3	study	Phase3	study/STIM_024.jpg	99
1741.358	0.853	852.8	study	Phase3	study/STIM_024.jpg	100
1745.505	0.813	813.4	study	Phase3	study/STIM_024.jpg	100
1748.937	1.128	1128.2	study	Phase3	study/STIM_025.jpg	99
1752.509	0.848	847.5	study	Phase3	study/STIM_025.jpg	99
1756.409	0.846	846.5	study	Phase3	study/STIM_025.jpg	100
1761.068	0.686	685.9	study	Phase3	study/STIM_026.jpg	99
1764.381	1.014	1013.5	study	Phase3	study/STIM_026.jpg	99
1768.863	0.609	609.0	study	Phase3	study/STIM_026.jpg	100
1772.669	0.884	884.2	study	Phase3	study/STIM_027.jpg	99
1776.186	0.525	524.6	study	Phase3	study/STIM_027.jpg	99
1779.148	0.62	620.3	study	Phase3	study/STIM_027.jpg	100
1783.114	1.015	1014.9	study	Phase3	study/STIM_028.jpg	99
1787.738	0.904	904.2	study	Phase3	study/STIM_028.jpg	99
1792.471	0.571	571.2	study	Phase3	study/STIM_028.jpg	100
1796.407	1.005	1005.1	study	Phase3	study/STIM_029.jpg	99
1800.817	0.734	733.8	study	Phase3	study/STIM_029.jpg	100
1804.797	0.713	713.3	study	Phase3	study/STIM_029.jpg	99
1807.841	0.754	754.2	test	Phase3	test/STIM_000.jpg	99
1810.814	0.709	709.3	test	Phase3	test/STIM_000.jpg	100
1814.099	0.828	828.2	test	Phase3	test/STIM_000.jpg	99
1818.405	1.079	1078.8	test	Phase3	test/STIM_001.jpg	99
1822.137	1.051	1050.7	test	Phase3	test/STIM_001.jpg	99
1825.697	0.999	999.0	test	Phase3	test/STIM_001.jpg	99
1828.854	0.738	737.6	test	Phase3	test/STIM_002.jpg	99
1831.904	1.035	1034.8	test	Phase3	test/STIM_002.jpg	100
1835.825	1.12	1119.6	test	Phase3	test/STIM_002.jpg	99
1839.871	1.099	1099.4	test	Phase3	test/STIM_003.jpg	100
1843.407	0.545	545.0	test	Phase3	test/STIM_003.jpg	100
1847.789	0.607	606.6	test	Phase3	test/STIM_003.jpg	100
1852.175	0.868	867.9	test	Phase3	test/STIM_004.jpg	100
1856.106	0.682	681.6	test	Phase3	test/STIM_004.jpg	100
1860.408	0.968	967.5	test	Phase3	test/STIM_004.jpg	100
1864.178	0.83	829.5	test	Phase3	test/STIM_005.jpg	100
1868.785	0.666	666.3	test	Phase3	test/STIM_005.jpg	100
1873.332	1.002	1002.4	test	Phase3	test/STIM_005.jpg	99
1876.568	0.946	945.7	test	Phase3	test/STIM_006.jpg	99
1881.414	0.454	454.4	test	Phase3	test/STIM_006.jpg	100
1885.036	0.874	874.5	test	Phase3	test/STIM_006.jpg	100
1888.877	1.056	1056.0	test	Phase3	test/STIM_007.jpg	99
1892.714	0.719	718.7	test	Phase3	test/STIM_007.jpg	100
1897.145	0.599	598.7	test	Phase3	test/STIM_007.jpg	100
1900.263	0.892	891.7	test	Phase3	test/STIM_008.jpg	99
1903.857	1.165	1165.1	test	Phase3	test/STIM_008.jpg	99
1907.732	1.156	1156.5	test	Phase3	test/STIM_008.jpg	100
1911.275	1.162	1161.8	test	Phase3	test/STIM_009.jpg	100
1915.839	0.919	918.6	test	Phase3	test/STIM_009.jpg	100
1919.527	0.632	631.8	test	Phase3	test/STIM_009.jpg	100
1922.223	1.099	1099.0	test	Phase3	test/STIM_010.jpg	99
1926.305	1.004	1003.8	test	Phase3	test/STIM_010.jpg	99
1930.793	1.001	1000.9	test	Phase3	test/STIM_010.jpg	100
1933.856	0.609	609.2	test	Phase3	test/STIM_011.jpg	99
1936.557	0.901	901.4	test	Phase3	test/STIM_011.jpg	100
1940.604	0.897	897.1	test	Phase3	test/STIM_011.jpg	100
1943.781	0.728	728.4	test	Phase3	test/STIM_012.jpg	100
1948.245	0.796	796.4	test	Phase3	test/STIM_012.jpg	100
1951.127	0.96	960.5	test	Phase3	test/STIM_012.jpg	99
1955.566	1.155	1154.8	test	Phase3	test/STIM_013.jpg	100
1959.603	0.751	751.1	test	Phase3	test/STIM_013.jpg	99
1962.533	0.764	764.1	test	Phase3	test/STIM_013.jpg	100
1965.76	0.597	597.1	test	Phase3	test/STIM_014.jpg	100
1969.111	0.914	913.6	test	Phase3	test/STIM_014.jpg	100
1973.908	0.866	865.5	test	Phase3	test/STIM_014.jpg	100
1977.306	0.764	764.3	test	Phase3	test/STIM_015.jpg	100
1980.346	0.592	592.4	test	Phase3	test/STIM_015.jpg	99
1983.746	0.897	896.8	test	Phase3	test/STIM_015.jpg	100
1987.344	0.968	967.5	test	Phase3	test/STIM_016.jpg	100
1992.35	0.744	744.1	test	Phase3	test/STIM_016.jpg	100
1996.449	0.745	744.7	test	Phase3	test/STIM_016.jpg	100
2000.096	0.561	561.3	test	Phase3	test/STIM_017.jpg	99
2003.428	0.839	838.8	test	Phase3	test/STIM_017.jpg	99
2007.915	1.188	1188.2	test	Phase3	test/STIM_017.jpg	100
2012.029	0.74	740.3	test	Phase3	test/STIM_018.jpg	100
2016.437	1.059	1059.3	test	Phase3	test/STIM_018.jpg	99
2020.241	0.831	831.4	test	Phase3	test/STIM_018.jpg	100
2023.975	0.901	900.7	test	Phase3	test/STIM_019.jpg	100
2027.199	1.116	1116.1	test	Phase3	test/STIM_019.jpg	99
2032.067	0.82	819.9	test	Phase3	test/STIM_019.jpg	99
2035.091	0.9	900.0	test	Phase3	test/STIM_020.jpg	100
2038.837	0.638	638.1	test	Phase3	test/STIM_020.jpg	100
2043.39	0.692	692.1	test	Phase3	test/STIM_020.jpg	99
2048.037	0.638	638.2	test	Phase3	test/STIM_021.jpg	99
2052.468	0.657	657.4	test	Phase3	test/STIM_021.jpg	99
2055.972	0.746	746.4	test	Phase3	test/STIM_021.jpg	99
2060.629	0.977	977.4	test	Phase3	test/STIM_022.jpg	99
2065.075	1.016	1015.5	test	Phase3	test/STIM_022.jpg	99
2069.78	0.782	781.7	test	Phase3	test/STIM_022.jpg	99
2074.231	0.895	895.1	test	Phase3	test/STIM_023.jpg	99
2078.788	1.151	1150.6	test	Phase3	test/STIM_023.jpg	99
2083.215	0.755	755.1	test	Phase3	test/STIM_023.jpg	99
2087.668	0.707	706.6	test	Phase3	test/STIM_024.jpg	99
2091.592	0.966	966.5	test	Phase3	test/STIM_024.jpg	99
2095.149	1.109	1109.2	test	Phase3	test/STIM_024.jpg	100
2099.846	0.569	568.7	test	Phase3	test/STIM_025.jpg	99
2103.466	1.084	1084.5	test	Phase3	test/STIM_025.jpg	100
2106.933	0.953	953.1	test	Phase3	test/STIM_025.jpg	100
2111.217	0.821	821.2	test	Phase3	test/STIM_026.jpg	100
2115.576	0.9	900.1	test	Phase3	test/STIM_026.jpg	100
2120.246	0.847	847.3	test	Phase3	test/STIM_026.jpg	99
2123.768	0.943	943.4	test	Phase3	test/STIM_027.jpg	99
2128.338	1.068	1067.7	test	Phase3	test/STIM_027.jpg	99
2132.173	0.691	691.3	test	Phase3	test/STIM_027.jpg	99
2136.336	1.15	1149.7	test	Phase3	test/STIM_028.jpg	100
2141.571	0.911	911.4	test	Phase3	test/STIM_028.jpg	100
2145.004	0.64	639.6	test	Phase3	test/STIM_028.jpg	99
2148.407	0.671	671.4	test	Phase3	test/STIM_029.jpg	99
2151.305	0.657	656.8	test	Phase3	test/STIM_029.jpg	99
2154.947	0.642	642.0	test	Phase3	test/STIM_029.jpg	100
