onset	duration	accuracy	trial_type	learning_stage	stimulus
0.0	1.503	correct	study	Phase1	study/STIM_000.jpg
4.111	1.354	incorrect	study	Phase1	study/STIM_000.jpg
8.844	1.356	correct	study	Phase1	study/STIM_000.jpg
13.547	1.373	incorrect	study	Phase1	study/STIM_001.jpg
19.05	1.115	correct	study	Phase1	study/STIM_001.jpg
23.638	0.828	incorrect	study	Phase1	study/STIM_001.jpg
26.642	1.024	correct	study	Phase1	study/STIM_002.jpg
30.599	0.974	incorrect	study	Phase1	study/STIM_002.jpg
34.801	0.776	correct	study	Phase1	study/STIM_002.jpg
37.707	1.031	correct	study	Phase1	study/STIM_003.jpg
42.642	0.87	correct	study	Phase1	study/STIM_003.jpg
47.202	1.194	correct	study	Phase1	study/STIM_003.jpg
50.718	1.318	correct	study	Phase1	study/STIM_004.jpg
55.482	1.314	correct	study	Phase1	study/STIM_004.jpg
60.098	1.114	correct	study	Phase1	study/STIM_004.jpg
64.878	1.092	correct	study	Phase1	study/STIM_005.jpg
69.177	1.116	incorrect	study	Phase1	study/STIM_005.jpg
73.017	0.931	incorrect	study	Phase1	study/STIM_005.jpg
77.922	1.449	correct	study	Phase1	study/STIM_006.jpg
83.314	0.711	correct	study	Phase1	study/STIM_006.jpg
87.983	0.71	correct	study	Phase1	study/STIM_006.jpg
92.471	1.152	incorrect	study	Phase1	study/STIM_007.jpg
96.775	1.239	incorrect	study	Phase1	study/STIM_007.jpg
101.299	1.172	correct	study	Phase1	study/STIM_007.jpg
105.216	0.837	correct	study	Phase1	study/STIM_008.jpg
109.397	1.379	correct	study	Phase1	study/STIM_008.jpg
113.197	1.091	correct	study	Phase1	study/STIM_008.jpg
118.265	0.768	correct	study	Phase1	study/STIM_009.jpg
122.69	1.394	correct	study	Phase1	study/STIM_009.jpg
127.898	0.932	correct	study	Phase1	study/STIM_009.jpg
132.167	0.866	correct	study	Phase1	study/STIM_010.jpg
136.205	1.638	correct	study	Phase1	study/STIM_010.jpg
141.528	0.768	correct	study	Phase1	study/STIM_010.jpg
145.449	1.52	correct	study	Phase1	study/STIM_011.jpg
149.22	1.412	incorrect	study	Phase1	study/STIM_011.jpg
153.61	1.46	incorrect	study	Phase1	study/STIM_011.jpg
159.006	1.105	correct	study	Phase1	study/STIM_012.jpg
163.687	0.765	correct	study	Phase1	study/STIM_012.jpg
166.636	1.253	correct	study	Phase1	study/STIM_012.jpg
170.127	1.375	incorrect	study	Phase1	study/STIM_013.jpg
175.664	0.976	correct	study	Phase1	study/STIM_013.jpg
180.652	1.047	correct	study	Phase1	study/STIM_013.jpg
183.752	0.86	correct	study	Phase1	study/STIM_014.jpg
187.884	0.832	incorrect	study	Phase1	study/STIM_014.jpg
191.5	0.897	correct	study	Phase1	study/STIM_014.jpg
194.474	1.383	correct	study	Phase1	study/STIM_015.jpg
199.334	1.216	correct	study	Phase1	study/STIM_015.jpg
203.356	1.401	correct	study	Phase1	study/STIM_015.jpg
208.775	0.922	correct	study	Phase1	study/STIM_016.jpg
212.171	1.438	correct	study	Phase1	study/STIM_016.jpg
215.868	0.868	correct	study	Phase1	study/STIM_016.jpg
220.747	1.028	incorrect	study	Phase1	study/STIM_017.jpg
224.964	0.964	correct	study	Phase1	study/STIM_017.jpg
229.91	1.212	incorrect	study	Phase1	study/STIM_017.jpg
234.4	1.314	correct	study	Phase1	study/STIM_018.jpg
239.41	1.231	correct	study	Phase1	study/STIM_018.jpg
243.501	1.498	correct	study	Phase1	study/STIM_018.jpg
247.429	1.484	correct	study	Phase1	study/STIM_019.jpg
251.119	0.798	incorrect	study	Phase1	study/STIM_019.jpg
254.714	1.322	incorrect	study	Phase1	study/STIM_019.jpg
259.902	1.65	correct	study	Phase1	study/STIM_020.jpg
265.477	0.629	incorrect	study	Phase1	study/STIM_020.jpg
269.273	1.467	correct	study	Phase1	study/STIM_020.jpg
273.152	1.362	correct	study	Phase1	study/STIM_021.jpg
277.441	1.355	correct	study	Phase1	study/STIM_021.jpg
280.987	0.924	correct	study	Phase1	study/STIM_021.jpg
285.72	1.506	correct	study	Phase1	study/STIM_022.jpg
290.084	0.745	correct	study	Phase1	study/STIM_022.jpg
293.533	0.814	correct	study	Phase1	study/STIM_022.jpg
296.53	1.299	incorrect	study	Phase1	study/STIM_023.jpg
300.561	1.311	correct	study	Phase1	study/STIM_023.jpg
304.925	1.246	correct	study	Phase1	study/STIM_023.jpg
310.263	0.885	correct	study	Phase1	study/STIM_024.jpg
313.613	0.768	correct	study	Phase1	study/STIM_024.jpg
317.733	1.281	correct	study	Phase1	study/STIM_024.jpg
322.838	0.909	correct	study	Phase1	study/STIM_025.jpg
326.462	1.569	incorrect	study	Phase1	study/STIM_025.jpg
330.82	0.986	correct	study	Phase1	study/STIM_025.jpg
334.268	0.894	correct	study	Phase1	study/STIM_026.jpg
338.425	0.861	correct	study	Phase1	study/STIM_026.jpg
342.734	1.05	correct	study	Phase1	study/STIM_026.jpg
347.136	0.97	correct	study	Phase1	study/STIM_027.jpg
351.16	0.753	correct	study	Phase1	study/STIM_027.jpg
355.319	0.763	correct	study	Phase1	study/STIM_027.jpg
358.576	1.246	incorrect	study	Phase1	study/STIM_028.jpg
362.145	1.544	correct	study	Phase1	study/STIM_028.jpg
366.476	0.863	correct	study	Phase1	study/STIM_028.jpg
369.483	1.42	correct	study	Phase1	study/STIM_029.jpg
373.963	1.534	correct	study	Phase1	study/STIM_029.jpg
377.712	1.264	incorrect	study	Phase1	study/STIM_029.jpg
381.418	0.77	incorrect	test	Phase1	test/STIM_000.jpg
385.559	0.849	correct	test	Phase1	test/STIM_000.jpg
389.451	0.664	correct	test	Phase1	test/STIM_000.jpg
392.996	0.803	correct	test	Phase1	test/STIM_001.jpg
396.529	0.711	correct	test	Phase1	test/STIM_001.jpg
400.675	0.966	correct	test	Phase1	test/STIM_001.jpg
403.938	0.57	correct	test	Phase1	test/STIM_002.jpg
407.636	0.949	incorrect	test	Phase1	test/STIM_002.jpg
412.552	1.069	correct	test	Phase1	test/STIM_002.jpg
416.856	0.658	correct	test	Phase1	test/STIM_003.jpg
420.194	0.901	correct	test	Phase1	test/STIM_003.jpg
424.223	0.677	incorrect	test	Phase1	test/STIM_003.jpg
427.521	0.863	correct	test	Phase1	test/STIM_004.jpg
432.32	0.664	correct	test	Phase1	test/STIM_004.jpg
436.243	1.212	correct	test	Phase1	test/STIM_004.jpg
440.537	0.95	correct	test	Phase1	test/STIM_005.jpg
443.938	0.804	correct	test	Phase1	test/STIM_005.jpg
448.075	0.972	correct	test	Phase1	test/STIM_005.jpg
451.882	0.987	correct	test	Phase1	test/STIM_006.jpg
456.003	0.998	correct	test	Phase1	test/STIM_006.jpg
460.338	1.096	correct	test	Phase1	test/STIM_006.jpg
464.618	0.707	correct	test	Phase1	test/STIM_007.jpg
469.073	0.863	correct	test	Phase1	test/STIM_007.jpg
473.905	0.886	correct	test	Phase1	test/STIM_007.jpg
477.924	0.812	correct	test	Phase1	test/STIM_008.jpg
481.806	1.018	incorrect	test	Phase1	test/STIM_008.jpg
486.253	1.066	correct	test	Phase1	test/STIM_008.jpg
490.287	1.095	correct	test	Phase1	test/STIM_009.jpg
493.691	0.67	correct	test	Phase1	test/STIM_009.jpg
498.129	0.819	correct	test	Phase1	test/STIM_009.jpg
501.871	0.715	correct	test	Phase1	test/STIM_010.jpg
505.331	0.687	correct	test	Phase1	test/STIM_010.jpg
510.035	0.997	correct	test	Phase1	test/STIM_010.jpg
513.154	0.853	correct	test	Phase1	test/STIM_011.jpg
516.134	0.974	correct	test	Phase1	test/STIM_011.jpg
520.28	0.656	correct	test	Phase1	test/STIM_011.jpg
523.306	0.846	correct	test	Phase1	test/STIM_012.jpg
527.765	0.732	correct	test	Phase1	test/STIM_012.jpg
531.72	1.23	correct	test	Phase1	test/STIM_012.jpg
536.748	1.114	correct	test	Phase1	test/STIM_013.jpg
541.006	0.958	correct	test	Phase1	test/STIM_013.jpg
545.626	1.166	incorrect	test	Phase1	test/STIM_013.jpg
549.785	0.75	correct	test	Phase1	test/STIM_014.jpg
552.813	0.736	correct	test	Phase1	test/STIM_014.jpg
557.443	0.551	correct	test	Phase1	test/STIM_014.jpg
561.935	0.881	correct	test	Phase1	test/STIM_015.jpg
566.269	0.662	correct	test	Phase1	test/STIM_015.jpg
570.226	0.665	correct	test	Phase1	test/STIM_015.jpg
572.903	0.651	correct	test	Phase1	test/STIM_016.jpg
577.399	0.673	correct	test	Phase1	test/STIM_016.jpg
581.295	0.98	correct	test	Phase1	test/STIM_016.jpg
585.117	1.037	correct	test	Phase1	test/STIM_017.jpg
590.242	0.999	correct	test	Phase1	test/STIM_017.jpg
593.574	1.179	incorrect	test	Phase1	test/STIM_017.jpg
597.835	1.073	incorrect	test	Phase1	test/STIM_018.jpg
601.405	0.686	correct	test	Phase1	test/STIM_018.jpg
604.88	0.554	correct	test	Phase1	test/STIM_018.jpg
609.387	0.791	correct	test	Phase1	test/STIM_019.jpg
613.952	0.76	correct	test	Phase1	test/STIM_019.jpg
617.789	0.728	incorrect	test	Phase1	test/STIM_019.jpg
622.484	0.945	correct	test	Phase1	test/STIM_020.jpg
626.187	0.954	correct	test	Phase1	test/STIM_020.jpg
629.948	0.983	correct	test	Phase1	test/STIM_020.jpg
633.621	0.64	correct	test	Phase1	test/STIM_021.jpg
636.945	1.194	incorrect	test	Phase1	test/STIM_021.jpg
641.299	0.559	correct	test	Phase1	test/STIM_021.jpg
645.659	0.688	correct	test	Phase1	test/STIM_022.jpg
648.504	1.175	correct	test	Phase1	test/STIM_022.jpg
652.957	0.986	correct	test	Phase1	test/STIM_022.jpg
657.975	0.709	correct	test	Phase1	test/STIM_023.jpg
662.293	0.489	incorrect	test	Phase1	test/STIM_023.jpg
665.444	0.562	incorrect	test	Phase1	test/STIM_023.jpg
669.352	1.172	correct	test	Phase1	test/STIM_024.jpg
673.395	0.892	correct	test	Phase1	test/STIM_024.jpg
676.378	0.853	correct	test	Phase1	test/STIM_024.jpg
680.372	0.752	correct	test	Phase1	test/STIM_025.jpg
683.327	0.628	correct	test	Phase1	test/STIM_025.jpg
687.214	1.079	correct	test	Phase1	test/STIM_025.jpg
690.431	0.756	correct	test	Phase1	test/STIM_026.jpg
695.047	0.712	correct	test	Phase1	test/STIM_026.jpg
698.506	0.904	correct	test	Phase1	test/STIM_026.jpg
702.929	1.048	correct	test	Phase1	test/STIM_027.jpg
707.234	0.853	correct	test	Phase1	test/STIM_027.jpg
712.027	1.084	correct	test	Phase1	test/STIM_027.jpg
715.491	1.07	correct	test	Phase1	test/STIM_028.jpg
720.343	0.736	correct	test	Phase1	test/STIM_028.jpg
723.753	0.776	correct	test	Phase1	test/STIM_028.jpg
726.995	0.969	correct	test	Phase1	test/STIM_029.jpg
731.461	1.106	correct	test	Phase1	test/STIM_029.jpg
734.842	0.844	correct	test	Phase1	test/STIM_029.jpg
739.114	1.186	correct	study	Phase2	study/STIM_000.jpg
744.26	0.686	incorrect	study	Phase2	study/STIM_000.jpg
748.88	0.729	correct	study	Phase2	study/STIM_000.jpg
751.891	1.279	correct	study	Phase2	study/STIM_001.jpg
755.73	0.707	correct	study	Phase2	study/STIM_001.jpg
759.109	1.029	correct	study	Phase2	study/STIM_001.jpg
762.809	0.68	correct	study	Phase2	study/STIM_002.jpg
766.977	0.617	incorrect	study	Phase2	study/STIM_002.jpg
770.617	0.617	correct	study	Phase2	study/STIM_002.jpg
774.089	0.785	correct	study	Phase2	study/STIM_003.jpg
778.154	0.847	correct	study	Phase2	study/STIM_003.jpg
782.152	0.702	correct	study	Phase2	study/STIM_003.jpg
786.268	0.551	correct	study	Phase2	study/STIM_004.jpg
789.978	1.149	correct	study	Phase2	study/STIM_004.jpg
794.998	0.823	correct	study	Phase2	study/STIM_004.jpg
798.062	1.332	correct	study	Phase2	study/STIM_005.jpg
802.695	1.058	correct	study	Phase2	study/STIM_005.jpg
806.122	1.033	correct	study	Phase2	study/STIM_005.jpg
809.719	1.146	correct	study	Phase2	study/STIM_006.jpg
813.447	0.714	correct	study	Phase2	study/STIM_006.jpg
817.442	0.988	correct	study	Phase2	study/STIM_006.jpg
820.849	1.139	correct	study	Phase2	study/STIM_007.jpg
824.603	1.041	correct	study	Phase2	study/STIM_007.jpg
828.169	0.892	correct	study	Phase2	study/STIM_007.jpg
832.106	0.787	correct	study	Phase2	study/STIM_008.jpg
835.774	1.047	correct	study	Phase2	study/STIM_008.jpg
839.312	1.145	correct	study	Phase2	study/STIM_008.jpg
843.377	1.124	correct	study	Phase2	study/STIM_009.jpg
847.471	1.23	correct	study	Phase2	study/STIM_009.jpg
850.865	0.948	correct	study	Phase2	study/STIM_009.jpg
854.973	0.89	correct	study	Phase2	study/STIM_010.jpg
859.343	1.248	incorrect	study	Phase2	study/STIM_010.jpg
862.893	1.058	correct	study	Phase2	study/STIM_010.jpg
867.364	1.167	correct	study	Phase2	study/STIM_011.jpg
872.21	0.842	correct	study	Phase2	study/STIM_011.jpg
876.34	0.863	correct	study	Phase2	study/STIM_011.jpg
879.452	0.615	correct	study	Phase2	study/STIM_012.jpg
882.749	1.14	correct	study	Phase2	study/STIM_012.jpg
887.778	0.61	correct	study	Phase2	study/STIM_012.jpg
891.577	0.955	correct	study	Phase2	study/STIM_013.jpg
896.048	0.693	correct	study	Phase2	study/STIM_013.jpg
899.928	1.254	correct	study	Phase2	study/STIM_013.jpg
904.464	0.701	correct	study	Phase2	study/STIM_014.jpg
908.348	0.698	correct	study	Phase2	study/STIM_014.jpg
911.821	0.779	correct	study	Phase2	study/STIM_014.jpg
915.961	0.896	incorrect	study	Phase2	study/STIM_015.jpg
920.927	0.87	correct	study	Phase2	study/STIM_015.jpg
925.279	0.815	incorrect	study	Phase2	study/STIM_015.jpg
928.687	0.875	correct	study	Phase2	study/STIM_016.jpg
932.308	1.297	correct	study	Phase2	study/STIM_016.jpg
937.58	0.8	correct	study	Phase2	study/STIM_016.jpg
941.309	0.626	correct	study	Phase2	study/STIM_017.jpg
945.117	0.821	correct	study	Phase2	study/STIM_017.jpg
948.296	0.636	correct	study	Phase2	study/STIM_017.jpg
952.481	1.39	correct	study	Phase2	study/STIM_018.jpg
956.546	1.336	correct	study	Phase2	study/STIM_018.jpg
960.648	1.005	correct	study	Phase2	study/STIM_018.jpg
963.869	0.707	correct	study	Phase2	study/STIM_019.jpg
968.391	0.617	correct	study	Phase2	study/STIM_019.jpg
972.963	0.451	correct	study	Phase2	study/STIM_019.jpg
976.969	0.693	correct	study	Phase2	study/STIM_020.jpg
980.219	0.979	correct	study	Phase2	study/STIM_020.jpg
985.269	0.594	correct	study	Phase2	study/STIM_020.jpg
988.955	0.761	correct	study	Phase2	study/STIM_021.jpg
993.684	1.253	incorrect	study	Phase2	study/STIM_021.jpg
998.692	1.242	correct	study	Phase2	study/STIM_021.jpg
1003.713	0.79	correct	study	Phase2	study/STIM_022.jpg
1008.092	1.106	correct	study	Phase2	study/STIM_022.jpg
1012.004	1.015	correct	study	Phase2	study/STIM_022.jpg
1015.217	1.231	correct	study	Phase2	study/STIM_023.jpg
1019.708	0.718	correct	study	Phase2	study/STIM_023.jpg
1024.122	1.223	correct	study	Phase2	study/STIM_023.jpg
1029.259	1.254	correct	study	Phase2	study/STIM_024.jpg
1034.228	0.749	correct	study	Phase2	study/STIM_024.jpg
1037.703	0.726	correct	study	Phase2	study/STIM_024.jpg
1041.693	0.74	correct	study	Phase2	study/STIM_025.jpg
1045.816	1.068	correct	study	Phase2	study/STIM_025.jpg
1050.867	0.774	correct	study	Phase2	study/STIM_025.jpg
1054.801	1.384	correct	study	Phase2	study/STIM_026.jpg
1060.245	0.895	correct	study	Phase2	study/STIM_026.jpg
1065.088	0.685	correct	study	Phase2	study/STIM_026.jpg
1069.211	1.255	correct	study	Phase2	study/STIM_027.jpg
1072.87	1.029	correct	study	Phase2	study/STIM_027.jpg
1076.157	0.994	correct	study	Phase2	study/STIM_027.jpg
1079.259	0.744	correct	study	Phase2	study/STIM_028.jpg
1083.752	1.186	correct	study	Phase2	study/STIM_028.jpg
1088.518	0.929	correct	study	Phase2	study/STIM_028.jpg
1092.087	1.248	correct	study	Phase2	study/STIM_029.jpg
1096.779	1.23	correct	study	Phase2	study/STIM_029.jpg
1101.418	0.908	correct	study	Phase2	study/STIM_029.jpg
1104.383	0.489	correct	test	Phase2	test/STIM_000.jpg
1107.755	0.691	correct	test	Phase2	test/STIM_000.jpg
1111.863	0.876	correct	test	Phase2	test/STIM_000.jpg
1114.868	1.109	correct	test	Phase2	test/STIM_001.jpg
1118.517	0.87	correct	test	Phase2	test/STIM_001.jpg
1122.828	0.757	correct	test	Phase2	test/STIM_001.jpg
1127.491	0.734	correct	test	Phase2	test/STIM_002.jpg
1131.508	0.934	correct	test	Phase2	test/STIM_002.jpg
1135.189	0.96	correct	test	Phase2	test/STIM_002.jpg
1139.386	0.708	correct	test	Phase2	test/STIM_003.jpg
1142.595	0.852	correct	test	Phase2	test/STIM_003.jpg
1147.323	0.839	correct	test	Phase2	test/STIM_003.jpg
1151.647	0.605	correct	test	Phase2	test/STIM_004.jpg
1154.947	0.67	incorrect	test	Phase2	test/STIM_004.jpg
1158.71	0.661	correct	test	Phase2	test/STIM_004.jpg
1163.347	0.69	correct	test	Phase2	test/STIM_005.jpg
1166.195	0.845	correct	test	Phase2	test/STIM_005.jpg
1169.687	1.183	correct	test	Phase2	test/STIM_005.jpg
1173.658	0.838	correct	test	Phase2	test/STIM_006.jpg
1177.864	1.122	incorrect	test	Phase2	test/STIM_006.jpg
1181.245	1.234	correct	test	Phase2	test/STIM_006.jpg
1185.29	0.916	correct	test	Phase2	test/STIM_007.jpg
1188.451	0.744	correct	test	Phase2	test/STIM_007.jpg
1192.583	0.879	correct	test	Phase2	test/STIM_007.jpg
1197.372	1.166	correct	test	Phase2	test/STIM_008.jpg
1201.529	0.915	correct	test	Phase2	test/STIM_008.jpg
1205.351	0.79	correct	test	Phase2	test/STIM_008.jpg
1208.951	0.734	correct	test	Phase2	test/STIM_009.jpg
1212.454	0.7	correct	test	Phase2	test/STIM_009.jpg
1217.161	0.879	correct	test	Phase2	test/STIM_009.jpg
1221.77	1.176	correct	test	Phase2	test/STIM_010.jpg
1225.128	0.769	correct	test	Phase2	test/STIM_010.jpg
1229.286	1.009	correct	test	Phase2	test/STIM_010.jpg
1232.643	0.662	correct	test	Phase2	test/STIM_011.jpg
1235.989	0.615	incorrect	test	Phase2	test/STIM_011.jpg
1239.029	0.616	correct	test	Phase2	test/STIM_011.jpg
1243.163	0.728	correct	test	Phase2	test/STIM_012.jpg
1246.59	0.564	incorrect	test	Phase2	test/STIM_012.jpg
1250.165	0.638	correct	test	Phase2	test/STIM_012.jpg
1253.118	0.773	correct	test	Phase2	test/STIM_013.jpg
1257.371	1.063	correct	test	Phase2	test/STIM_013.jpg
1260.843	0.99	incorrect	test	Phase2	test/STIM_013.jpg
1265.046	0.674	correct	test	Phase2	test/STIM_014.jpg
1269.298	0.928	incorrect	test	Phase2	test/STIM_014.jpg
1273.842	1.011	correct	test	Phase2	test/STIM_014.jpg
1277.789	0.703	correct	test	Phase2	test/STIM_015.jpg
1281.398	0.702	correct	test	Phase2	test/STIM_015.jpg
1285.961	0.744	correct	test	Phase2	test/STIM_015.jpg
1290.178	0.634	incorrect	test	Phase2	test/STIM_016.jpg
1293.571	0.824	correct	test	Phase2	test/STIM_016.jpg
1296.702	0.613	correct	test	Phase2	test/STIM_016.jpg
1300.172	0.624	correct	test	Phase2	test/STIM_017.jpg
1304.512	0.878	correct	test	Phase2	test/STIM_017.jpg
1308.078	0.81	correct	test	Phase2	test/STIM_017.jpg
1311.972	0.951	correct	test	Phase2	test/STIM_018.jpg
1316.286	0.754	correct	test	Phase2	test/STIM_018.jpg
1319.359	0.712	correct	test	Phase2	test/STIM_018.jpg
1323.952	0.829	correct	test	Phase2	test/STIM_019.jpg
1327.371	0.797	correct	test	Phase2	test/STIM_019.jpg
1331.425	1.061	correct	test	Phase2	test/STIM_019.jpg
1335.434	0.894	correct	test	Phase2	test/STIM_020.jpg
1339.765	0.79	correct	test	Phase2	test/STIM_020.jpg
1343.863	0.555	correct	test	Phase2	test/STIM_020.jpg
1348.204	0.609	correct	test	Phase2	test/STIM_021.jpg
1351.624	0.933	incorrect	test	Phase2	test/STIM_021.jpg
1355.447	0.665	correct	test	Phase2	test/STIM_021.jpg
1359.903	1.175	correct	test	Phase2	test/STIM_022.jpg
1363.47	0.709	correct	test	Phase2	test/STIM_022.jpg
1366.378	1.114	incorrect	test	Phase2	test/STIM_022.jpg
1370.411	0.706	incorrect	test	Phase2	test/STIM_023.jpg
1373.223	0.798	correct	test	Phase2	test/STIM_023.jpg
1376.599	0.698	correct	test	Phase2	test/STIM_023.jpg
1381.129	0.745	correct	test	Phase2	test/STIM_024.jpg
1385.754	0.759	correct	test	Phase2	test/STIM_024.jpg
1389.167	0.873	correct	test	Phase2	test/STIM_024.jpg
1392.928	1.078	correct	test	Phase2	test/STIM_025.jpg
1397.97	0.735	correct	test	Phase2	test/STIM_025.jpg
1401.321	1.149	correct	test	Phase2	test/STIM_025.jpg
1405.759	1.073	correct	test	Phase2	test/STIM_026.jpg
1410.497	1.142	correct	test	Phase2	test/STIM_026.jpg
1414.709	0.844	correct	test	Phase2	test/STIM_026.jpg
1418.635	0.678	correct	test	Phase2	test/STIM_027.jpg
1421.584	1.177	correct	test	Phase2	test/STIM_027.jpg
1425.91	1.115	correct	test	Phase2	test/STIM_027.jpg
1430.936	0.853	correct	test	Phase2	test/STIM_028.jpg
1434.384	1.082	correct	test	Phase2	test/STIM_028.jpg
1437.867	0.816	correct	test	Phase2	test/STIM_028.jpg
1440.987	0.929	correct	test	Phase2	test/STIM_029.jpg
1444.279	0.904	correct	test	Phase2	test/STIM_029.jpg
1448.495	0.821	correct	test	Phase2	test/STIM_029.jpg
1451.477	1.095	correct	study	Phase3	study/STIM_000.jpg
1455.643	0.85	incorrect	study	Phase3	study/STIM_000.jpg
1460.601	0.499	correct	study	Phase3	study/STIM_000.jpg
1463.673	1.034	correct	study	Phase3	study/STIM_001.jpg
1467.338	0.783	correct	study	Phase3	study/STIM_001.jpg
1471.892	0.788	correct	study	Phase3	study/STIM_001.jpg
1475.663	1.034	correct	study	Phase3	study/STIM_002.jpg
1479.371	0.707	correct	study	Phase3	study/STIM_002.jpg
1482.976	0.612	correct	study	Phase3	study/STIM_002.jpg
1487.656	1.034	correct	study	Phase3	study/STIM_003.jpg
1492.602	0.811	correct	study	Phase3	study/STIM_003.jpg
1496.807	1.048	incorrect	study	Phase3	study/STIM_003.jpg
1500.304	0.874	correct	study	Phase3	study/STIM_004.jpg
1503.462	0.51	correct	study	Phase3	study/STIM_004.jpg
1506.347	0.994	correct	study	Phase3	study/STIM_004.jpg
1510.78	1.092	incorrect	study	Phase3	study/STIM_005.jpg
1514.713	1.109	correct	study	Phase3	study/STIM_005.jpg
1519.616	0.845	correct	study	Phase3	study/STIM_005.jpg
1523.89	0.735	correct	study	Phase3	study/STIM_006.jpg
1527.95	0.83	correct	study	Phase3	study/STIM_006.jpg
1532.59	0.676	correct	study	Phase3	study/STIM_006.jpg
1537.083	0.86	correct	study	Phase3	study/STIM_007.jpg
1541.251	1.092	correct	study	Phase3	study/STIM_007.jpg
1545.883	0.739	correct	study	Phase3	study/STIM_007.jpg
1550.097	1.004	correct	study	Phase3	study/STIM_008.jpg
1553.502	0.797	correct	study	Phase3	study/STIM_008.jpg
1558.201	1.091	correct	study	Phase3	study/STIM_008.jpg
1563.074	0.778	correct	study	Phase3	study/STIM_009.jpg
1567.228	0.732	correct	study	Phase3	study/STIM_009.jpg
1570.889	0.627	correct	study	Phase3	study/STIM_009.jpg
1573.827	0.681	correct	study	Phase3	study/STIM_010.jpg
1577.536	0.993	incorrect	study	Phase3	study/STIM_010.jpg
1581.224	0.934	correct	study	Phase3	study/STIM_010.jpg
1584.503	0.875	correct	study	Phase3	study/STIM_011.jpg
1587.534	0.769	correct	study	Phase3	study/STIM_011.jpg
1590.462	0.846	correct	study	Phase3	study/STIM_011.jpg
1593.801	0.526	correct	study	Phase3	study/STIM_012.jpg
1598.316	0.727	correct	study	Phase3	study/STIM_012.jpg
1602.243	0.889	correct	study	Phase3	study/STIM_012.jpg
1607.088	1.063	correct	study	Phase3	study/STIM_013.jpg
1611.395	0.542	correct	study	Phase3	study/STIM_013.jpg
1615.013	0.652	correct	study	Phase3	study/STIM_013.jpg
1619.631	1.019	correct	study	Phase3	study/STIM_014.jpg
1624.114	0.797	correct	study	Phase3	study/STIM_014.jpg
1627.392	0.56	correct	study	Phase3	study/STIM_014.jpg
1630.09	1.091	correct	study	Phase3	study/STIM_015.jpg
1634.217	0.927	correct	study	Phase3	study/STIM_015.jpg
1637.9	0.627	correct	study	Phase3	study/STIM_015.jpg
1641.42	1.147	correct	study	Phase3	study/STIM_016.jpg
1646.635	0.939	correct	study	Phase3	study/STIM_016.jpg
1650.474	0.953	correct	study	Phase3	study/STIM_016.jpg
1654.563	0.486	correct	study	Phase3	study/STIM_017.jpg
1658.576	0.505	correct	study	Phase3	study/STIM_017.jpg
1663.061	0.581	correct	study	Phase3	study/STIM_017.jpg
1666.313	1.063	correct	study	Phase3	study/STIM_018.jpg
1670.74	0.908	correct	study	Phase3	study/STIM_018.jpg
1675.439	1.207	correct	study	Phase3	study/STIM_018.jpg
1679.201	0.813	correct	study	Phase3	study/STIM_019.jpg
1683.158	0.836	correct	study	Phase3	study/STIM_019.jpg
1687.137	0.971	correct	study	Phase3	study/STIM_019.jpg
1691.553	0.648	correct	study	Phase3	study/STIM_020.jpg
1694.727	1.031	incorrect	study	Phase3	study/STIM_020.jpg
1699.685	0.601	correct	study	Phase3	study/STIM_020.jpg
1702.719	0.646	correct	study	Phase3	study/STIM_021.jpg
1707.074	0.596	correct	study	Phase3	study/STIM_021.jpg
1710.292	0.589	correct	study	Phase3	study/STIM_021.jpg
1714.753	0.657	correct	study	Phase3	study/STIM_022.jpg
1718.136	0.824	correct	study	Phase3	study/STIM_022.jpg
1721.466	0.964	correct	study	Phase3	study/STIM_022.jpg
1725.413	1.032	incorrect	study	Phase3	study/STIM_023.jpg
1730.009	0.525	correct	study	Phase3	study/STIM_023.jpg
1734.048	0.753	correct	study	Phase3	study/STIM_023.jpg
1738.66	0.584	correct	study	Phase3	study/STIM_024.jpg
1741.358	0.853	correct	study	Phase3	study/STIM_024.jpg
1745.505	0.813	correct	study	Phase3	study/STIM_024.jpg
1748.937	1.128	correct	study	Phase3	study/STIM_025.jpg
1752.509	0.848	incorrect	study	Phase3	study/STIM_025.jpg
1756.409	0.846	correct	study	Phase3	study/STIM_025.jpg
1761.068	0.686	correct	study	Phase3	study/STIM_026.jpg
1764.381	1.014	correct	study	Phase3	study/STIM_026.jpg
1768.863	0.609	correct	study	Phase3	study/STIM_026.jpg
1772.669	0.884	correct	study	Phase3	study/STIM_027.jpg
1776.186	0.525	correct	study	Phase3	study/STIM_027.jpg
1779.148	0.62	correct	study	Phase3	study/STIM_027.jpg
1783.114	1.015	correct	study	Phase3	study/STIM_028.jpg
1787.738	0.904	correct	study	Phase3	study/STIM_028.jpg
1792.471	0.571	correct	study	Phase3	study/STIM_028.jpg
1796.407	1.005	correct	study	Phase3	study/STIM_029.jpg
1800.817	0.734	correct	study	Phase3	study/STIM_029.jpg
1804.797	0.713	correct	study	Phase3	study/STIM_029.jpg
1807.841	0.754	correct	test	Phase3	test/STIM_000.jpg
1810.814	0.709	correct	test	Phase3	test/STIM_000.jpg
1814.099	0.828	correct	test	Phase3	test/STIM_000.jpg
1818.405	1.079	correct	test	Phase3	test/STIM_001.jpg
1822.137	1.051	correct	test	Phase3	test/STIM_001.jpg
1825.697	0.999	correct	test	Phase3	test/STIM_001.jpg
1828.854	0.738	correct	test	Phase3	test/STIM_002.jpg
1831.904	1.035	correct	test	Phase3	test/STIM_002.jpg
1835.825	1.12	correct	test	Phase3	test/STIM_002.jpg
1839.871	1.099	correct	test	Phase3	test/STIM_003.jpg
1843.407	0.545	correct	test	Phase3	test/STIM_003.jpg
1847.789	0.607	correct	test	Phase3	test/STIM_003.jpg
1852.175	0.868	correct	test	Phase3	test/STIM_004.jpg
1856.106	0.682	correct	test	Phase3	test/STIM_004.jpg
1860.408	0.968	correct	test	Phase3	test/STIM_004.jpg
1864.178	0.83	correct	test	Phase3	test/STIM_005.jpg
1868.785	0.666	incorrect	test	Phase3	test/STIM_005.jpg
1873.332	1.002	incorrect	test	Phase3	test/STIM_005.jpg
1876.568	0.946	correct	test	Phase3	test/STIM_006.jpg
1881.414	0.454	correct	test	Phase3	test/STIM_006.jpg
1885.036	0.874	correct	test	Phase3	test/STIM_006.jpg
1888.877	1.056	correct	test	Phase3	test/STIM_007.jpg
1892.714	0.719	correct	test	Phase3	test/STIM_007.jpg
1897.145	0.599	correct	test	Phase3	test/STIM_007.jpg
1900.263	0.892	incorrect	test	Phase3	test/STIM_008.jpg
1903.857	1.165	correct	test	Phase3	test/STIM_008.jpg
1907.732	1.156	correct	test	Phase3	test/STIM_008.jpg
1911.275	1.162	correct	test	Phase3	test/STIM_009.jpg
1915.839	0.919	correct	test	Phase3	test/STIM_009.jpg
1919.527	0.632	correct	test	Phase3	test/STIM_009.jpg
1922.223	1.099	correct	test	Phase3	test/STIM_010.jpg
1926.305	1.004	correct	test	Phase3	test/STIM_010.jpg
1930.793	1.001	correct	test	Phase3	test/STIM_010.jpg
1933.856	0.609	incorrect	test	Phase3	test/STIM_011.jpg
1936.557	0.901	correct	test	Phase3	test/STIM_011.jpg
1940.604	0.897	correct	test	Phase3	test/STIM_011.jpg
1943.781	0.728	correct	test	Phase3	test/STIM_012.jpg
1948.245	0.796	correct	test	Phase3	test/STIM_012.jpg
1951.127	0.96	correct	test	Phase3	test/STIM_012.jpg
1955.566	1.155	correct	test	Phase3	test/STIM_013.jpg
1959.603	0.751	correct	test	Phase3	test/STIM_013.jpg
1962.533	0.764	correct	test	Phase3	test/STIM_013.jpg
1965.76	0.597	correct	test	Phase3	test/STIM_014.jpg
1969.111	0.914	incorrect	test	Phase3	test/STIM_014.jpg
1973.908	0.866	correct	test	Phase3	test/STIM_014.jpg
1977.306	0.764	correct	test	Phase3	test/STIM_015.jpg
1980.346	0.592	correct	test	Phase3	test/STIM_015.jpg
1983.746	0.897	correct	test	Phase3	test/STIM_015.jpg
1987.344	0.968	correct	test	Phase3	test/STIM_016.jpg
1992.35	0.744	correct	test	Phase3	test/STIM_016.jpg
1996.449	0.745	correct	test	Phase3	test/STIM_016.jpg
2000.096	0.561	correct	test	Phase3	test/STIM_017.jpg
2003.428	0.839	correct	test	Phase3	test/STIM_017.jpg
2007.915	1.188	correct	test	Phase3	test/STIM_017.jpg
2012.029	0.74	correct	test	Phase3	test/STIM_018.jpg
2016.437	1.059	correct	test	Phase3	test/STIM_018.jpg
2020.241	0.831	correct	test	Phase3	test/STIM_018.jpg
2023.975	0.901	correct	test	Phase3	test/STIM_019.jpg
2027.199	1.116	correct	test	Phase3	test/STIM_019.jpg
2032.067	0.82	correct	test	Phase3	test/STIM_019.jpg
2035.091	0.9	incorrect	test	Phase3	test/STIM_020.jpg
2038.837	0.638	correct	test	Phase3	test/STIM_020.jpg
2043.39	0.692	correct	test	Phase3	test/STIM_020.jpg
2048.037	0.638	correct	test	Phase3	test/STIM_021.jpg
2052.468	0.657	correct	test	Phase3	test/STIM_021.jpg
2055.972	0.746	correct	test	Phase3	test/STIM_021.jpg
2060.629	0.977	correct	test	Phase3	test/STIM_022.jpg
2065.075	1.016	correct	test	Phase3	test/STIM_022.jpg
2069.78	0.782	correct	test	Phase3	test/STIM_022.jpg
2074.231	0.895	correct	test	Phase3	test/STIM_023.jpg
2078.788	1.151	correct	test	Phase3	test/STIM_023.jpg
2083.215	0.755	correct	test	Phase3	test/STIM_023.jpg
2087.668	0.707	correct	test	Phase3	test/STIM_024.jpg
2091.592	0.966	correct	test	Phase3	test/STIM_024.jpg
2095.149	1.109	correct	test	Phase3	test/STIM_024.jpg
2099.846	0.569	incorrect	test	Phase3	test/STIM_025.jpg
2103.466	1.084	correct	test	Phase3	test/STIM_025.jpg
2106.933	0.953	correct	test	Phase3	test/STIM_025.jpg
2111.217	0.821	correct	test	Phase3	test/STIM_026.jpg
2115.576	0.9	correct	test	Phase3	test/STIM_026.jpg
2120.246	0.847	correct	test	Phase3	test/STIM_026.jpg
2123.768	0.943	correct	test	Phase3	test/STIM_027.jpg
2128.338	1.068	correct	test	Phase3	test/STIM_027.jpg
2132.173	0.691	correct	test	Phase3	test/STIM_027.jpg
2136.336	1.15	correct	test	Phase3	test/STIM_028.jpg
2141.571	0.911	incorrect	test	Phase3	test/STIM_028.jpg
2145.004	0.64	correct	test	Phase3	test/STIM_028.jpg
2148.407	0.671	correct	test	Phase3	test/STIM_029.jpg
2151.305	0.657	correct	test	Phase3	test/STIM_029.jpg
2154.947	0.642	correct	test	Phase3	test/STIM_029.jpg
