onset	duration	accuracy_binary	trial_type	learning_stage	stimulus
0.0	1.992	1	generate	Run1	generate/STIM_000.jpg
5.359	1.358	1	generate	Run1	generate/STIM_000.jpg
8.904	2.29	0	generate	Run1	generate/STIM_000.jpg
14.103	1.074	1	generate	Run1	generate/STIM_000.jpg
18.379	1.63	0	generate	Run1	generate/STIM_000.jpg
22.839	1.71	0	generate	Run1	generate/STIM_001.jpg
27.292	1.176	0	generate	Run1	generate/STIM_001.jpg
30.992	2.037	0	generate	Run1	generate/STIM_001.jpg
36.109	1.695	0	generate	Run1	generate/STIM_001.jpg
41.038	1.059	1	generate	Run1	generate/STIM_001.jpg
44.558	1.218	1	generate	Run1	generate/STIM_002.jpg
49.6	2.141	1	generate	Run1	generate/STIM_002.jpg
55.991	2.362	0	generate	Run1	generate/STIM_002.jpg
60.772	1.495	1	generate	Run1	generate/STIM_002.jpg
65.851	1.586	1	generate	Run1	generate/STIM_002.jpg
70.48	2.094	1	generate	Run1	generate/STIM_003.jpg
75.865	2.466	1	generate	Run1	generate/STIM_003.jpg
82.351	1.796	1	generate	Run1	generate/STIM_003.jpg
87.902	1.116	1	generate	Run1	generate/STIM_003.jpg
92.39	1.962	1	generate	Run1	generate/STIM_003.jpg
97.399	2.627	1	generate	Run1	generate/STIM_004.jpg
103.546	1.362	1	generate	Run1	generate/STIM_004.jpg
107.878	2.372	0	generate	Run1	generate/STIM_004.jpg
113.857	1.571	1	generate	Run1	generate/STIM_004.jpg
117.744	1.347	1	generate	Run1	generate/STIM_004.jpg
122.72	1.976	0	generate	Run1	generate/STIM_005.jpg
128.442	1.838	1	generate	Run1	generate/STIM_005.jpg
133.936	1.612	1	generate	Run1	generate/STIM_005.jpg
138.71	1.779	0	generate	Run1	generate/STIM_005.jpg
142.851	1.057	1	generate	Run1	generate/STIM_005.jpg
147.089	1.5	1	generate	Run1	generate/STIM_006.jpg
151.32	1.398	1	generate	Run1	generate/STIM_006.jpg
156.265	2.14	0	generate	Run1	generate/STIM_006.jpg
162.576	2.022	0	generate	Run1	generate/STIM_006.jpg
167.743	1.57	1	generate	Run1	generate/STIM_006.jpg
171.897	1.308	1	generate	Run1	generate/STIM_007.jpg
175.684	2.231	1	generate	Run1	generate/STIM_007.jpg
181.3	1.668	1	generate	Run1	generate/STIM_007.jpg
185.471	1.294	1	generate	Run1	generate/STIM_007.jpg
189.929	1.717	1	generate	Run1	generate/STIM_007.jpg
195.695	1.852	1	generate	Run1	generate/STIM_008.jpg
200.412	2.02	1	generate	Run1	generate/STIM_008.jpg
205.241	1.309	1	generate	Run1	generate/STIM_008.jpg
210.519	1.158	0	generate	Run1	generate/STIM_008.jpg
215.328	1.475	1	generate	Run1	generate/STIM_008.jpg
220.661	2.304	0	generate	Run1	generate/STIM_009.jpg
225.929	1.481	1	generate	Run1	generate/STIM_009.jpg
230.072	1.604	1	generate	Run1	generate/STIM_009.jpg
234.449	0.945	0	generate	Run1	generate/STIM_009.jpg
238.94	0.984	1	generate	Run1	generate/STIM_009.jpg
243.773	1.142	1	generate	Run1	generate/STIM_010.jpg
248.78	1.908	1	generate	Run1	generate/STIM_010.jpg
253.147	1.025	0	generate	Run1	generate/STIM_010.jpg
257.954	1.571	0	generate	Run1	generate/STIM_010.jpg
262.956	1.448	1	generate	Run1	generate/STIM_010.jpg
268.349	1.348	1	generate	Run1	generate/STIM_011.jpg
273.601	2.374	0	generate	Run1	generate/STIM_011.jpg
278.298	1.519	1	generate	Run1	generate/STIM_011.jpg
282.318	2.013	1	generate	Run1	generate/STIM_011.jpg
286.886	1.116	1	generate	Run1	generate/STIM_011.jpg
291.88	1.977	1	generate	Run1	generate/STIM_012.jpg
297.548	1.468	1	generate	Run1	generate/STIM_012.jpg
301.668	1.584	0	generate	Run1	generate/STIM_012.jpg
306.139	1.734	1	generate	Run1	generate/STIM_012.jpg
311.654	1.403	1	generate	Run1	generate/STIM_012.jpg
316.209	2.005	1	generate	Run1	generate/STIM_013.jpg
320.531	1.237	1	generate	Run1	generate/STIM_013.jpg
325.394	1.451	0	generate	Run1	generate/STIM_013.jpg
330.631	2.02	1	generate	Run1	generate/STIM_013.jpg
335.385	1.563	1	generate	Run1	generate/STIM_013.jpg
340.665	1.131	1	generate	Run1	generate/STIM_014.jpg
344.754	1.069	1	generate	Run1	generate/STIM_014.jpg
348.957	1.774	1	generate	Run1	generate/STIM_014.jpg
353.149	2.208	1	generate	Run1	generate/STIM_014.jpg
359.035	1.606	1	generate	Run1	generate/STIM_014.jpg
362.904	1.762	0	generate	Run1	generate/STIM_015.jpg
368.409	1.795	0	generate	Run1	generate/STIM_015.jpg
373.177	1.142	1	generate	Run1	generate/STIM_015.jpg
377.132	1.032	1	generate	Run1	generate/STIM_015.jpg
380.687	1.785	0	generate	Run1	generate/STIM_015.jpg
385.723	1.436	1	generate	Run1	generate/STIM_016.jpg
390.013	2.149	1	generate	Run1	generate/STIM_016.jpg
396.405	1.047	1	generate	Run1	generate/STIM_016.jpg
400.127	0.982	1	generate	Run1	generate/STIM_016.jpg
404.338	1.109	1	generate	Run1	generate/STIM_016.jpg
408.503	1.148	1	generate	Run1	generate/STIM_017.jpg
413.669	2.466	1	generate	Run1	generate/STIM_017.jpg
420.427	1.582	1	generate	Run1	generate/STIM_017.jpg
424.831	0.92	1	generate	Run1	generate/STIM_017.jpg
429.306	1.269	1	generate	Run1	generate/STIM_017.jpg
433.35	2.431	1	generate	Run1	generate/STIM_018.jpg
439.813	2.056	0	generate	Run1	generate/STIM_018.jpg
444.669	1.597	1	generate	Run1	generate/STIM_018.jpg
449.74	2.18	1	generate	Run1	generate/STIM_018.jpg
455.654	1.457	1	generate	Run1	generate/STIM_018.jpg
460.022	1.757	1	generate	Run1	generate/STIM_019.jpg
464.359	1.984	1	generate	Run1	generate/STIM_019.jpg
469.789	2.233	1	generate	Run1	generate/STIM_019.jpg
474.876	1.861	1	generate	Run1	generate/STIM_019.jpg
480.46	1.484	1	generate	Run1	generate/STIM_019.jpg
485.06	1.339	1	generate	Run1	generate/STIM_020.jpg
489.232	2.194	0	generate	Run1	generate/STIM_020.jpg
494.812	1.025	1	generate	Run1	generate/STIM_020.jpg
498.881	1.037	1	generate	Run1	generate/STIM_020.jpg
503.098	1.306	0	generate	Run1	generate/STIM_020.jpg
508.075	1.753	1	generate	Run1	generate/STIM_021.jpg
513.064	2.183	0	generate	Run1	generate/STIM_021.jpg
518.282	2.154	1	generate	Run1	generate/STIM_021.jpg
524.062	1.598	0	generate	Run1	generate/STIM_021.jpg
528.371	2.014	1	generate	Run1	generate/STIM_021.jpg
533.262	1.442	1	generate	Run1	generate/STIM_022.jpg
537.597	2.03	1	generate	Run1	generate/STIM_022.jpg
543.044	1.655	1	generate	Run1	generate/STIM_022.jpg
548.657	1.335	1	generate	Run1	generate/STIM_022.jpg
553.148	0.986	0	generate	Run1	generate/STIM_022.jpg
556.528	2.288	0	generate	Run1	generate/STIM_023.jpg
562.435	1.403	1	generate	Run1	generate/STIM_023.jpg
567.138	1.211	0	generate	Run1	generate/STIM_023.jpg
570.563	1.8	1	generate	Run1	generate/STIM_023.jpg
576.362	1.956	1	generate	Run1	generate/STIM_023.jpg
582.276	2.404	1	generate	Run1	generate/STIM_024.jpg
588.746	1.104	1	generate	Run1	generate/STIM_024.jpg
592.76	1.001	1	generate	Run1	generate/STIM_024.jpg
597.273	1.634	1	generate	Run1	generate/STIM_024.jpg
601.301	1.794	1	generate	Run1	generate/STIM_024.jpg
606.442	0.753	1	repeat	Run1	repeat/STIM_000.jpg
609.747	0.721	1	repeat	Run1	repeat/STIM_000.jpg
613.56	0.867	1	repeat	Run1	repeat/STIM_000.jpg
617.7	0.86	1	repeat	Run1	repeat/STIM_000.jpg
621.215	0.85	1	repeat	Run1	repeat/STIM_000.jpg
624.754	0.822	1	repeat	Run1	repeat/STIM_001.jpg
629.609	0.692	1	repeat	Run1	repeat/STIM_001.jpg
633.223	0.622	1	repeat	Run1	repeat/STIM_001.jpg
636.651	0.626	1	repeat	Run1	repeat/STIM_001.jpg
639.413	0.693	1	repeat	Run1	repeat/STIM_001.jpg
643.41	0.864	1	repeat	Run1	repeat/STIM_002.jpg
647.024	0.849	1	repeat	Run1	repeat/STIM_002.jpg
651.757	0.705	1	repeat	Run1	repeat/STIM_002.jpg
654.655	0.803	1	repeat	Run1	repeat/STIM_002.jpg
659.13	0.622	1	repeat	Run1	repeat/STIM_002.jpg
661.906	0.516	1	repeat	Run1	repeat/STIM_003.jpg
666.095	0.479	1	repeat	Run1	repeat/STIM_003.jpg
669.395	0.596	1	repeat	Run1	repeat/STIM_003.jpg
672.931	0.748	1	repeat	Run1	repeat/STIM_003.jpg
677.517	0.479	1	repeat	Run1	repeat/STIM_003.jpg
680.374	0.537	1	repeat	Run1	repeat/STIM_004.jpg
684.06	0.83	1	repeat	Run1	repeat/STIM_004.jpg
688.839	0.502	1	repeat	Run1	repeat/STIM_004.jpg
691.438	0.838	1	repeat	Run1	repeat/STIM_004.jpg
694.559	0.647	1	repeat	Run1	repeat/STIM_004.jpg
697.617	0.551	1	repeat	Run1	repeat/STIM_005.jpg
701.606	0.859	1	repeat	Run1	repeat/STIM_005.jpg
706.352	0.449	1	repeat	Run1	repeat/STIM_005.jpg
710.19	0.592	1	repeat	Run1	repeat/STIM_005.jpg
713.422	0.653	1	repeat	Run1	repeat/STIM_005.jpg
716.565	0.622	1	repeat	Run1	repeat/STIM_006.jpg
720.614	0.59	1	repeat	Run1	repeat/STIM_006.jpg
724.558	0.84	1	repeat	Run1	repeat/STIM_006.jpg
727.862	0.634	1	repeat	Run1	repeat/STIM_006.jpg
732.107	0.48	1	repeat	Run1	repeat/STIM_006.jpg
735.915	0.608	1	repeat	Run1	repeat/STIM_007.jpg
740.138	0.688	1	repeat	Run1	repeat/STIM_007.jpg
743.526	0.579	1	repeat	Run1	repeat/STIM_007.jpg
746.321	0.562	1	repeat	Run1	repeat/STIM_007.jpg
749.809	0.678	1	repeat	Run1	repeat/STIM_007.jpg
753.169	0.801	1	repeat	Run1	repeat/STIM_008.jpg
756.928	0.465	1	repeat	Run1	repeat/STIM_008.jpg
761.241	0.692	1	repeat	Run1	repeat/STIM_008.jpg
764.2	0.671	1	repeat	Run1	repeat/STIM_008.jpg
768.089	0.608	1	repeat	Run1	repeat/STIM_008.jpg
772.214	0.571	1	repeat	Run1	repeat/STIM_009.jpg
776.361	0.468	1	repeat	Run1	repeat/STIM_009.jpg
780.601	0.82	1	repeat	Run1	repeat/STIM_009.jpg
783.804	0.56	1	repeat	Run1	repeat/STIM_009.jpg
787.694	0.491	1	repeat	Run1	repeat/STIM_009.jpg
791.374	0.719	1	repeat	Run1	repeat/STIM_010.jpg
795.554	0.598	1	repeat	Run1	repeat/STIM_010.jpg
798.865	0.686	1	repeat	Run1	repeat/STIM_010.jpg
801.646	0.617	1	repeat	Run1	repeat/STIM_010.jpg
804.755	0.826	1	repeat	Run1	repeat/STIM_010.jpg
809.559	0.677	1	repeat	Run1	repeat/STIM_011.jpg
813.746	0.746	1	repeat	Run1	repeat/STIM_011.jpg
817.922	0.515	1	repeat	Run1	repeat/STIM_011.jpg
822.346	0.843	1	repeat	Run1	repeat/STIM_011.jpg
826.519	0.562	1	repeat	Run1	repeat/STIM_011.jpg
830.453	0.816	1	repeat	Run1	repeat/STIM_012.jpg
834.59	0.713	1	repeat	Run1	repeat/STIM_012.jpg
838.638	0.455	1	repeat	Run1	repeat/STIM_012.jpg
842.351	0.679	1	repeat	Run1	repeat/STIM_012.jpg
845.242	0.542	1	repeat	Run1	repeat/STIM_012.jpg
848.647	0.848	1	repeat	Run1	repeat/STIM_013.jpg
851.997	0.828	1	repeat	Run1	repeat/STIM_013.jpg
856.445	0.661	1	repeat	Run1	repeat/STIM_013.jpg
859.681	0.843	1	repeat	Run1	repeat/STIM_013.jpg
864.289	0.632	1	repeat	Run1	repeat/STIM_013.jpg
868.779	0.653	1	repeat	Run1	repeat/STIM_014.jpg
871.554	0.662	1	repeat	Run1	repeat/STIM_014.jpg
876.205	0.872	1	repeat	Run1	repeat/STIM_014.jpg
879.428	0.501	1	repeat	Run1	repeat/STIM_014.jpg
882.331	0.795	1	repeat	Run1	repeat/STIM_014.jpg
886.119	1.698	0	generate	Run2	generate/STIM_000.jpg
891.194	1.821	1	generate	Run2	generate/STIM_000.jpg
895.771	1.698	1	generate	Run2	generate/STIM_000.jpg
901.006	1.174	1	generate	Run2	generate/STIM_000.jpg
905.865	1.323	1	generate	Run2	generate/STIM_000.jpg
909.594	2.23	0	generate	Run2	generate/STIM_001.jpg
915.97	1.891	1	generate	Run2	generate/STIM_001.jpg
922.084	1.667	0	generate	Run2	generate/STIM_001.jpg
927.202	1.302	1	generate	Run2	generate/STIM_001.jpg
932.11	1.345	1	generate	Run2	generate/STIM_001.jpg
937.53	1.688	1	generate	Run2	generate/STIM_002.jpg
941.906	1.018	1	generate	Run2	generate/STIM_002.jpg
946.095	1.776	0	generate	Run2	generate/STIM_002.jpg
951.592	1.135	1	generate	Run2	generate/STIM_002.jpg
955.197	1.395	1	generate	Run2	generate/STIM_002.jpg
959.431	1.6	1	generate	Run2	generate/STIM_003.jpg
964.074	1.429	1	generate	Run2	generate/STIM_003.jpg
969.253	1.574	1	generate	Run2	generate/STIM_003.jpg
973.562	1.034	1	generate	Run2	generate/STIM_003.jpg
976.964	1.641	0	generate	Run2	generate/STIM_003.jpg
982.133	1.006	1	generate	Run2	generate/STIM_004.jpg
986.786	0.986	1	generate	Run2	generate/STIM_004.jpg
991.599	0.973	1	generate	Run2	generate/STIM_004.jpg
996.114	1.766	1	generate	Run2	generate/STIM_004.jpg
1000.2	1.39	1	generate	Run2	generate/STIM_004.jpg
1003.838	2.094	1	generate	Run2	generate/STIM_005.jpg
1009.314	1.742	1	generate	Run2	generate/STIM_005.jpg
1013.88	1.016	1	generate	Run2	generate/STIM_005.jpg
1017.209	1.64	0	generate	Run2	generate/STIM_005.jpg
1022.305	1.683	1	generate	Run2	generate/STIM_005.jpg
1026.956	1.328	1	generate	Run2	generate/STIM_006.jpg
1030.507	1.426	1	generate	Run2	generate/STIM_006.jpg
1035.223	1.522	1	generate	Run2	generate/STIM_006.jpg
1040.487	1.247	1	generate	Run2	generate/STIM_006.jpg
1044.754	1.226	1	generate	Run2	generate/STIM_006.jpg
1049.844	1.92	1	generate	Run2	generate/STIM_007.jpg
1055.454	1.81	1	generate	Run2	generate/STIM_007.jpg
1060.609	1.313	1	generate	Run2	generate/STIM_007.jpg
1065.356	0.953	1	generate	Run2	generate/STIM_007.jpg
1070.212	1.01	1	generate	Run2	generate/STIM_007.jpg
1074.914	2.125	1	generate	Run2	generate/STIM_008.jpg
1080.328	1.786	1	generate	Run2	generate/STIM_008.jpg
1084.973	1.084	1	generate	Run2	generate/STIM_008.jpg
1090.0	1.649	1	generate	Run2	generate/STIM_008.jpg
1095.082	1.426	1	generate	Run2	generate/STIM_008.jpg
1099.624	1.146	1	generate	Run2	generate/STIM_009.jpg
1103.861	1.15	1	generate	Run2	generate/STIM_009.jpg
1108.307	1.324	1	generate	Run2	generate/STIM_009.jpg
1112.375	1.504	1	generate	Run2	generate/STIM_009.jpg
1116.817	1.041	1	generate	Run2	generate/STIM_009.jpg
1120.259	1.66	1	generate	Run2	generate/STIM_010.jpg
1125.848	1.297	1	generate	Run2	generate/STIM_010.jpg
1130.778	1.379	1	generate	Run2	generate/STIM_010.jpg
1134.667	1.136	1	generate	Run2	generate/STIM_010.jpg
1139.302	1.643	1	generate	Run2	generate/STIM_010.jpg
1144.475	1.704	0	generate	Run2	generate/STIM_011.jpg
1149.036	1.962	1	generate	Run2	generate/STIM_011.jpg
1153.679	1.176	1	generate	Run2	generate/STIM_011.jpg
1158.559	1.654	1	generate	Run2	generate/STIM_011.jpg
1163.944	1.415	1	generate	Run2	generate/STIM_011.jpg
1169.378	1.977	1	generate	Run2	generate/STIM_012.jpg
1175.312	1.695	1	generate	Run2	generate/STIM_012.jpg
1179.48	1.318	1	generate	Run2	generate/STIM_012.jpg
1184.565	0.976	0	generate	Run2	generate/STIM_012.jpg
1189.374	0.95	1	generate	Run2	generate/STIM_012.jpg
1192.466	1.65	1	generate	Run2	generate/STIM_013.jpg
1197.382	1.642	1	generate	Run2	generate/STIM_013.jpg
1202.312	1.428	1	generate	Run2	generate/STIM_013.jpg
1207.609	1.256	1	generate	Run2	generate/STIM_013.jpg
1211.342	0.868	1	generate	Run2	generate/STIM_013.jpg
1214.979	1.276	1	generate	Run2	generate/STIM_014.jpg
1220.313	1.131	1	generate	Run2	generate/STIM_014.jpg
1225.513	1.829	1	generate	Run2	generate/STIM_014.jpg
1231.306	1.348	1	generate	Run2	generate/STIM_014.jpg
1234.892	1.625	0	generate	Run2	generate/STIM_014.jpg
1239.228	1.713	0	generate	Run2	generate/STIM_015.jpg
1244.293	1.66	1	generate	Run2	generate/STIM_015.jpg
1249.305	1.288	1	generate	Run2	generate/STIM_015.jpg
1254.542	1.765	1	generate	Run2	generate/STIM_015.jpg
1258.84	1.587	1	generate	Run2	generate/STIM_015.jpg
1263.16	1.732	1	generate	Run2	generate/STIM_016.jpg
1267.866	1.172	0	generate	Run2	generate/STIM_016.jpg
1273.019	1.08	1	generate	Run2	generate/STIM_016.jpg
1276.42	1.022	1	generate	Run2	generate/STIM_016.jpg
1280.596	1.321	1	generate	Run2	generate/STIM_016.jpg
1285.303	1.659	1	generate	Run2	generate/STIM_017.jpg
1289.592	1.384	1	generate	Run2	generate/STIM_017.jpg
1293.663	1.328	1	generate	Run2	generate/STIM_017.jpg
1298.041	1.491	1	generate	Run2	generate/STIM_017.jpg
1302.426	0.834	1	generate	Run2	generate/STIM_017.jpg
1306.729	1.401	1	generate	Run2	generate/STIM_018.jpg
1312.267	1.182	0	generate	Run2	generate/STIM_018.jpg
1316.542	1.377	1	generate	Run2	generate/STIM_018.jpg
1320.832	1.111	1	generate	Run2	generate/STIM_018.jpg
1325.294	1.125	1	generate	Run2	generate/STIM_018.jpg
1329.709	1.891	0	generate	Run2	generate/STIM_019.jpg
1334.312	1.407	1	generate	Run2	generate/STIM_019.jpg
1338.551	1.831	1	generate	Run2	generate/STIM_019.jpg
1344.102	1.717	0	generate	Run2	generate/STIM_019.jpg
1349.363	1.223	1	generate	Run2	generate/STIM_019.jpg
1353.912	1.074	1	generate	Run2	generate/STIM_020.jpg
1357.64	1.724	1	generate	Run2	generate/STIM_020.jpg
1361.659	1.733	1	generate	Run2	generate/STIM_020.jpg
1365.64	0.786	1	generate	Run2	generate/STIM_020.jpg
1369.099	1.677	1	generate	Run2	generate/STIM_020.jpg
1374.438	0.991	1	generate	Run2	generate/STIM_021.jpg
1378.407	1.908	1	generate	Run2	generate/STIM_021.jpg
1383.893	1.378	0	generate	Run2	generate/STIM_021.jpg
1388.333	1.799	1	generate	Run2	generate/STIM_021.jpg
1393.471	1.363	1	generate	Run2	generate/STIM_021.jpg
1397.305	2.08	0	generate	Run2	generate/STIM_022.jpg
1401.993	1.417	1	generate	Run2	generate/STIM_022.jpg
1405.7	1.148	0	generate	Run2	generate/STIM_022.jpg
1410.869	1.284	1	generate	Run2	generate/STIM_022.jpg
1415.138	1.487	0	generate	Run2	generate/STIM_022.jpg
1420.314	1.278	1	generate	Run2	generate/STIM_023.jpg
1424.349	2.031	1	generate	Run2	generate/STIM_023.jpg
1428.943	1.126	1	generate	Run2	generate/STIM_023.jpg
1433.172	0.893	1	generate	Run2	generate/STIM_023.jpg
1436.617	1.427	1	generate	Run2	generate/STIM_023.jpg
1441.361	1.572	1	generate	Run2	generate/STIM_024.jpg
1446.668	1.422	1	generate	Run2	generate/STIM_024.jpg
1451.36	1.032	1	generate	Run2	generate/STIM_024.jpg
1455.819	0.933	1	generate	Run2	generate/STIM_024.jpg
1459.348	0.998	1	generate	Run2	generate/STIM_024.jpg
1462.579	0.68	1	repeat	Run2	repeat/STIM_000.jpg
1466.417	0.672	1	repeat	Run2	repeat/STIM_000.jpg
1469.796	0.591	1	repeat	Run2	repeat/STIM_000.jpg
1473.77	0.807	0	repeat	Run2	repeat/STIM_000.jpg
1477.839	0.496	1	repeat	Run2	repeat/STIM_000.jpg
1480.608	0.819	1	repeat	Run2	repeat/STIM_001.jpg
1485.11	0.755	1	repeat	Run2	repeat/STIM_001.jpg
1489.013	0.648	1	repeat	Run2	repeat/STIM_001.jpg
1492.056	0.846	1	repeat	Run2	repeat/STIM_001.jpg
1496.289	0.49	1	repeat	Run2	repeat/STIM_001.jpg
1500.672	0.58	1	repeat	Run2	repeat/STIM_002.jpg
1504.705	0.73	1	repeat	Run2	repeat/STIM_002.jpg
1508.89	0.466	1	repeat	Run2	repeat/STIM_002.jpg
1513.004	0.88	1	repeat	Run2	repeat/STIM_002.jpg
1516.808	0.577	1	repeat	Run2	repeat/STIM_002.jpg
1520.068	0.563	1	repeat	Run2	repeat/STIM_003.jpg
1523.244	0.474	0	repeat	Run2	repeat/STIM_003.jpg
1526.844	0.875	1	repeat	Run2	repeat/STIM_003.jpg
1529.92	0.742	1	repeat	Run2	repeat/STIM_003.jpg
1533.161	0.791	1	repeat	Run2	repeat/STIM_003.jpg
1536.674	0.642	1	repeat	Run2	repeat/STIM_004.jpg
1540.852	0.513	1	repeat	Run2	repeat/STIM_004.jpg
1544.434	0.621	1	repeat	Run2	repeat/STIM_004.jpg
1548.346	0.717	1	repeat	Run2	repeat/STIM_004.jpg
1551.486	0.69	1	repeat	Run2	repeat/STIM_004.jpg
1556.108	0.552	1	repeat	Run2	repeat/STIM_005.jpg
1559.582	0.452	1	repeat	Run2	repeat/STIM_005.jpg
1563.042	0.62	1	repeat	Run2	repeat/STIM_005.jpg
1565.93	0.872	1	repeat	Run2	repeat/STIM_005.jpg
1569.148	0.586	1	repeat	Run2	repeat/STIM_005.jpg
1573.193	0.776	1	repeat	Run2	repeat/STIM_006.jpg
1577.122	0.829	1	repeat	Run2	repeat/STIM_006.jpg
1581.661	0.624	1	repeat	Run2	repeat/STIM_006.jpg
1585.333	0.537	1	repeat	Run2	repeat/STIM_006.jpg
1589.16	0.764	1	repeat	Run2	repeat/STIM_006.jpg
1593.172	0.497	1	repeat	Run2	repeat/STIM_007.jpg
1596.776	0.512	0	repeat	Run2	repeat/STIM_007.jpg
1601.302	0.746	1	repeat	Run2	repeat/STIM_007.jpg
1605.554	0.596	1	repeat	Run2	repeat/STIM_007.jpg
1609.992	0.868	1	repeat	Run2	repeat/STIM_007.jpg
1614.291	0.599	1	repeat	Run2	repeat/STIM_008.jpg
1617.429	0.549	1	repeat	Run2	repeat/STIM_008.jpg
1621.645	0.452	1	repeat	Run2	repeat/STIM_008.jpg
1625.311	0.748	1	repeat	Run2	repeat/STIM_008.jpg
1628.248	0.56	0	repeat	Run2	repeat/STIM_008.jpg
1631.566	0.836	1	repeat	Run2	repeat/STIM_009.jpg
1634.607	0.841	1	repeat	Run2	repeat/STIM_009.jpg
1638.582	0.614	1	repeat	Run2	repeat/STIM_009.jpg
1642.558	0.585	1	repeat	Run2	repeat/STIM_009.jpg
1646.75	0.792	1	repeat	Run2	repeat/STIM_009.jpg
1650.473	0.834	1	repeat	Run2	repeat/STIM_010.jpg
1654.236	0.766	1	repeat	Run2	repeat/STIM_010.jpg
1658.578	0.841	1	repeat	Run2	repeat/STIM_010.jpg
1662.178	0.857	1	repeat	Run2	repeat/STIM_010.jpg
1665.784	0.66	1	repeat	Run2	repeat/STIM_010.jpg
1669.054	0.578	1	repeat	Run2	repeat/STIM_011.jpg
1672.169	0.572	1	repeat	Run2	repeat/STIM_011.jpg
1675.431	0.727	1	repeat	Run2	repeat/STIM_011.jpg
1678.584	0.519	1	repeat	Run2	repeat/STIM_011.jpg
1681.724	0.778	1	repeat	Run2	repeat/STIM_011.jpg
1685.185	0.867	1	repeat	Run2	repeat/STIM_012.jpg
1688.362	0.778	1	repeat	Run2	repeat/STIM_012.jpg
1692.348	0.615	1	repeat	Run2	repeat/STIM_012.jpg
1696.716	0.848	1	repeat	Run2	repeat/STIM_012.jpg
1700.091	0.528	1	repeat	Run2	repeat/STIM_012.jpg
1703.407	0.449	1	repeat	Run2	repeat/STIM_013.jpg
1707.697	0.514	1	repeat	Run2	repeat/STIM_013.jpg
1711.674	0.762	1	repeat	Run2	repeat/STIM_013.jpg
1715.746	0.733	1	repeat	Run2	repeat/STIM_013.jpg
1719.087	0.466	1	repeat	Run2	repeat/STIM_013.jpg
1723.403	0.617	1	repeat	Run2	repeat/STIM_014.jpg
1727.87	0.618	1	repeat	Run2	repeat/STIM_014.jpg
1732.102	0.496	1	repeat	Run2	repeat/STIM_014.jpg
1736.494	0.537	1	repeat	Run2	repeat/STIM_014.jpg
1739.636	0.868	1	repeat	Run2	repeat/STIM_014.jpg
1742.78	1.551	1	generate	Run3	generate/STIM_000.jpg
1747.394	1.319	1	generate	Run3	generate/STIM_000.jpg
1752.806	1.282	1	generate	Run3	generate/STIM_000.jpg
1757.552	0.974	1	generate	Run3	generate/STIM_000.jpg
1762.48	1.134	1	generate	Run3	generate/STIM_000.jpg
1765.779	0.979	1	generate	Run3	generate/STIM_001.jpg
1770.302	0.76	1	generate	Run3	generate/STIM_001.jpg
1774.736	0.996	1	generate	Run3	generate/STIM_001.jpg
1779.809	1.082	1	generate	Run3	generate/STIM_001.jpg
1783.638	1.03	1	generate	Run3	generate/STIM_001.jpg
1787.398	1.546	1	generate	Run3	generate/STIM_002.jpg
1792.364	1.386	1	generate	Run3	generate/STIM_002.jpg
1797.255	1.63	1	generate	Run3	generate/STIM_002.jpg
1801.568	1.538	1	generate	Run3	generate/STIM_002.jpg
1806.753	0.854	1	generate	Run3	generate/STIM_002.jpg
1810.486	1.516	1	generate	Run3	generate/STIM_003.jpg
1816.049	1.496	1	generate	Run3	generate/STIM_003.jpg
1819.844	0.806	1	generate	Run3	generate/STIM_003.jpg
1824.481	1.286	1	generate	Run3	generate/STIM_003.jpg
1829.642	1.869	1	generate	Run3	generate/STIM_003.jpg
1835.112	1.526	1	generate	Run3	generate/STIM_004.jpg
1839.361	1.837	1	generate	Run3	generate/STIM_004.jpg
1844.798	1.497	0	generate	Run3	generate/STIM_004.jpg
1848.872	1.141	1	generate	Run3	generate/STIM_004.jpg
1853.776	1.395	1	generate	Run3	generate/STIM_004.jpg
1858.449	1.208	1	generate	Run3	generate/STIM_005.jpg
1862.008	1.493	1	generate	Run3	generate/STIM_005.jpg
1866.248	1.716	1	generate	Run3	generate/STIM_005.jpg
1870.759	1.468	1	generate	Run3	generate/STIM_005.jpg
1875.156	0.865	1	generate	Run3	generate/STIM_005.jpg
1879.6	0.832	1	generate	Run3	generate/STIM_006.jpg
1884.094	1.155	1	generate	Run3	generate/STIM_006.jpg
1887.62	0.981	1	generate	Run3	generate/STIM_006.jpg
1890.843	1.228	1	generate	Run3	generate/STIM_006.jpg
1896.043	1.019	1	generate	Run3	generate/STIM_006.jpg
1900.381	0.813	1	generate	Run3	generate/STIM_007.jpg
1903.441	1.618	1	generate	Run3	generate/STIM_007.jpg
1909.001	0.999	1	generate	Run3	generate/STIM_007.jpg
1912.908	1.622	1	generate	Run3	generate/STIM_007.jpg
1917.148	1.388	1	generate	Run3	generate/STIM_007.jpg
1921.399	1.827	1	generate	Run3	generate/STIM_008.jpg
1925.93	1.096	1	generate	Run3	generate/STIM_008.jpg
1930.701	1.287	1	generate	Run3	generate/STIM_008.jpg
1935.633	0.926	1	generate	Run3	generate/STIM_008.jpg
1938.795	1.369	1	generate	Run3	generate/STIM_008.jpg
1942.473	0.76	1	generate	Run3	generate/STIM_009.jpg
1947.02	1.611	1	generate	Run3	generate/STIM_009.jpg
1951.5	1.418	1	generate	Run3	generate/STIM_009.jpg
1956.204	1.416	1	generate	Run3	generate/STIM_009.jpg
1960.95	0.794	0	generate	Run3	generate/STIM_009.jpg
1963.855	1.373	1	generate	Run3	generate/STIM_010.jpg
1969.336	0.855	1	generate	Run3	generate/STIM_010.jpg
1973.047	1.148	0	generate	Run3	generate/STIM_010.jpg
1977.998	1.598	1	generate	Run3	generate/STIM_010.jpg
1982.055	1.067	1	generate	Run3	generate/STIM_010.jpg
1986.161	1.261	1	generate	Run3	generate/STIM_011.jpg
1991.032	1.06	1	generate	Run3	generate/STIM_011.jpg
1994.272	1.011	1	generate	Run3	generate/STIM_011.jpg
1998.234	1.761	1	generate	Run3	generate/STIM_011.jpg
2002.998	0.961	1	generate	Run3	generate/STIM_011.jpg
2007.468	1.861	1	generate	Run3	generate/STIM_012.jpg
2013.227	1.774	1	generate	Run3	generate/STIM_012.jpg
2018.657	1.874	1	generate	Run3	generate/STIM_012.jpg
2022.83	1.007	1	generate	Run3	generate/STIM_012.jpg
2027.31	1.037	1	generate	Run3	generate/STIM_012.jpg
2032.283	1.665	1	generate	Run3	generate/STIM_013.jpg
2036.615	1.189	1	generate	Run3	generate/STIM_013.jpg
2041.303	1.626	1	generate	Run3	generate/STIM_013.jpg
2046.58	1.506	0	generate	Run3	generate/STIM_013.jpg
2051.462	1.094	1	generate	Run3	generate/STIM_013.jpg
2055.922	1.287	1	generate	Run3	generate/STIM_014.jpg
2059.426	0.85	1	generate	Run3	generate/STIM_014.jpg
2064.024	1.232	0	generate	Run3	generate/STIM_014.jpg
2069.296	1.257	1	generate	Run3	generate/STIM_014.jpg
2072.747	1.118	1	generate	Run3	generate/STIM_014.jpg
2076.337	1.676	1	generate	Run3	generate/STIM_015.jpg
2080.846	1.701	1	generate	Run3	generate/STIM_015.jpg
2085.334	1.207	1	generate	Run3	generate/STIM_015.jpg
2089.998	1.503	1	generate	Run3	generate/STIM_015.jpg
2094.58	1.306	1	generate	Run3	generate/STIM_015.jpg
2098.449	1.753	1	generate	Run3	generate/STIM_016.jpg
2102.555	1.326	1	generate	Run3	generate/STIM_016.jpg
2107.531	1.198	1	generate	Run3	generate/STIM_016.jpg
2111.293	1.46	1	generate	Run3	generate/STIM_016.jpg
2115.66	1.461	1	generate	Run3	generate/STIM_016.jpg
2119.7	1.398	1	generate	Run3	generate/STIM_017.jpg
2124.647	1.088	1	generate	Run3	generate/STIM_017.jpg
2128.306	1.663	1	generate	Run3	generate/STIM_017.jpg
2132.427	1.758	0	generate	Run3	generate/STIM_017.jpg
2137.317	0.897	1	generate	Run3	generate/STIM_017.jpg
2142.18	1.159	1	generate	Run3	generate/STIM_018.jpg
2146.479	1.499	1	generate	Run3	generate/STIM_018.jpg
2151.142	1.111	1	generate	Run3	generate/STIM_018.jpg
2155.67	1.411	1	generate	Run3	generate/STIM_018.jpg
2159.291	1.634	1	generate	Run3	generate/STIM_018.jpg
2165.119	1.644	1	generate	Run3	generate/STIM_019.jpg
2170.654	0.982	1	generate	Run3	generate/STIM_019.jpg
2174.304	1.713	1	generate	Run3	generate/STIM_019.jpg
2178.228	1.604	1	generate	Run3	generate/STIM_019.jpg
2183.659	1.314	1	generate	Run3	generate/STIM_019.jpg
2188.464	1.36	1	generate	Run3	generate/STIM_020.jpg
2192.636	0.837	1	generate	Run3	generate/STIM_020.jpg
2196.812	1.572	1	generate	Run3	generate/STIM_020.jpg
2200.653	1.647	1	generate	Run3	generate/STIM_020.jpg
2204.74	1.08	1	generate	Run3	generate/STIM_020.jpg
2209.578	0.96	1	generate	Run3	generate/STIM_021.jpg
2214.016	1.411	1	generate	Run3	generate/STIM_021.jpg
2218.334	0.839	1	generate	Run3	generate/STIM_021.jpg
2222.458	1.348	1	generate	Run3	generate/STIM_021.jpg
2226.871	1.758	1	generate	Run3	generate/STIM_021.jpg
2232.111	1.746	1	generate	Run3	generate/STIM_022.jpg
2237.251	0.778	0	generate	Run3	generate/STIM_022.jpg
2241.512	1.816	1	generate	Run3	generate/STIM_022.jpg
2246.363	1.303	1	generate	Run3	generate/STIM_022.jpg
2251.736	0.97	1	generate	Run3	generate/STIM_022.jpg
2256.744	1.607	1	generate	Run3	generate/STIM_023.jpg
2262.356	0.864	1	generate	Run3	generate/STIM_023.jpg
2265.938	1.544	1	generate	Run3	generate/STIM_023.jpg
2270.225	0.959	1	generate	Run3	generate/STIM_023.jpg
2275.005	1.854	1	generate	Run3	generate/STIM_023.jpg
2279.445	1.798	1	generate	Run3	generate/STIM_024.jpg
2283.882	1.641	1	generate	Run3	generate/STIM_024.jpg
2288.301	1.675	1	generate	Run3	generate/STIM_024.jpg
2293.577	0.899	1	generate	Run3	generate/STIM_024.jpg
2296.796	1.467	1	generate	Run3	generate/STIM_024.jpg
2301.707	0.534	1	repeat	Run3	repeat/STIM_000.jpg
2305.159	0.865	1	repeat	Run3	repeat/STIM_000.jpg
2308.281	0.485	1	repeat	Run3	repeat/STIM_000.jpg
2311.637	0.558	1	repeat	Run3	repeat/STIM_000.jpg
2314.575	0.68	1	repeat	Run3	repeat/STIM_000.jpg
2317.794	0.578	1	repeat	Run3	repeat/STIM_001.jpg
2321.51	0.55	1	repeat	Run3	repeat/STIM_001.jpg
2324.535	0.635	1	repeat	Run3	repeat/STIM_001.jpg
2328.437	0.779	1	repeat	Run3	repeat/STIM_001.jpg
2332.807	0.639	1	repeat	Run3	repeat/STIM_001.jpg
2336.341	0.653	1	repeat	Run3	repeat/STIM_002.jpg
2339.581	0.88	1	repeat	Run3	repeat/STIM_002.jpg
2344.474	0.815	1	repeat	Run3	repeat/STIM_002.jpg
2348.145	0.661	1	repeat	Run3	repeat/STIM_002.jpg
2351.609	0.692	1	repeat	Run3	repeat/STIM_002.jpg
2354.672	0.801	1	repeat	Run3	repeat/STIM_003.jpg
2357.773	0.821	1	repeat	Run3	repeat/STIM_003.jpg
2361.422	0.857	1	repeat	Run3	repeat/STIM_003.jpg
2366.285	0.512	1	repeat	Run3	repeat/STIM_003.jpg
2369.346	0.634	1	repeat	Run3	repeat/STIM_003.jpg
2373.408	0.695	1	repeat	Run3	repeat/STIM_004.jpg
2376.841	0.879	1	repeat	Run3	repeat/STIM_004.jpg
2381.208	0.521	1	repeat	Run3	repeat/STIM_004.jpg
2385.628	0.77	1	repeat	Run3	repeat/STIM_004.jpg
2388.528	0.726	1	repeat	Run3	repeat/STIM_004.jpg
2391.919	0.785	1	repeat	Run3	repeat/STIM_005.jpg
2395.853	0.822	1	repeat	Run3	repeat/STIM_005.jpg
2398.998	0.836	1	repeat	Run3	repeat/STIM_005.jpg
2403.81	0.504	1	repeat	Run3	repeat/STIM_005.jpg
2407.15	0.758	0	repeat	Run3	repeat/STIM_005.jpg
2410.472	0.841	1	repeat	Run3	repeat/STIM_006.jpg
2414.145	0.742	1	repeat	Run3	repeat/STIM_006.jpg
2417.218	0.451	1	repeat	Run3	repeat/STIM_006.jpg
2421.447	0.625	1	repeat	Run3	repeat/STIM_006.jpg
2424.962	0.852	1	repeat	Run3	repeat/STIM_006.jpg
2428.773	0.599	1	repeat	Run3	repeat/STIM_007.jpg
2431.983	0.451	1	repeat	Run3	repeat/STIM_007.jpg
2435.972	0.814	1	repeat	Run3	repeat/STIM_007.jpg
2439.04	0.556	1	repeat	Run3	repeat/STIM_007.jpg
2443.445	0.468	1	repeat	Run3	repeat/STIM_007.jpg
2447.64	0.502	1	repeat	Run3	repeat/STIM_008.jpg
2450.643	0.48	1	repeat	Run3	repeat/STIM_008.jpg
2454.93	0.664	1	repeat	Run3	repeat/STIM_008.jpg
2458.053	0.814	1	repeat	Run3	repeat/STIM_008.jpg
2461.351	0.839	1	repeat	Run3	repeat/STIM_008.jpg
2464.925	0.792	1	repeat	Run3	repeat/STIM_009.jpg
2469.393	0.714	1	repeat	Run3	repeat/STIM_009.jpg
2473.649	0.784	1	repeat	Run3	repeat/STIM_009.jpg
2478.462	0.479	1	repeat	Run3	repeat/STIM_009.jpg
2482.91	0.47	1	repeat	Run3	repeat/STIM_009.jpg
2486.861	0.66	1	repeat	Run3	repeat/STIM_010.jpg
2489.749	0.817	1	repeat	Run3	repeat/STIM_010.jpg
2494.12	0.458	1	repeat	Run3	repeat/STIM_010.jpg
2498.172	0.811	1	repeat	Run3	repeat/STIM_010.jpg
2501.314	0.465	1	repeat	Run3	repeat/STIM_010.jpg
2505.095	0.449	1	repeat	Run3	repeat/STIM_011.jpg
2508.025	0.627	1	repeat	Run3	repeat/STIM_011.jpg
2511.118	0.643	1	repeat	Run3	repeat/STIM_011.jpg
2513.86	0.809	1	repeat	Run3	repeat/STIM_011.jpg
2517.769	0.887	1	repeat	Run3	repeat/STIM_011.jpg
2521.149	0.772	1	repeat	Run3	repeat/STIM_012.jpg
2526.012	0.467	1	repeat	Run3	repeat/STIM_012.jpg
2528.718	0.622	1	repeat	Run3	repeat/STIM_012.jpg
2533.168	0.652	1	repeat	Run3	repeat/STIM_012.jpg
2536.967	0.764	1	repeat	Run3	repeat/STIM_012.jpg
2540.099	0.81	1	repeat	Run3	repeat/STIM_013.jpg
2544.225	0.505	1	repeat	Run3	repeat/STIM_013.jpg
2548.707	0.505	1	repeat	Run3	repeat/STIM_013.jpg
2552.447	0.837	1	repeat	Run3	repeat/STIM_013.jpg
2557.344	0.786	1	repeat	Run3	repeat/STIM_013.jpg
2561.891	0.709	1	repeat	Run3	repeat/STIM_014.jpg
2564.726	0.799	1	repeat	Run3	repeat/STIM_014.jpg
2567.827	0.865	1	repeat	Run3	repeat/STIM_014.jpg
2571.265	0.828	1	repeat	Run3	repeat/STIM_014.jpg
2574.341	0.507	1	repeat	Run3	repeat/STIM_014.jpg
2578.343	1.106	1	generate	Run4	generate/STIM_000.jpg
2583.34	1.664	1	generate	Run4	generate/STIM_000.jpg
2588.42	1.579	1	generate	Run4	generate/STIM_000.jpg
2593.077	1.74	1	generate	Run4	generate/STIM_000.jpg
2597.226	1.36	1	generate	Run4	generate/STIM_000.jpg
2601.264	0.815	1	generate	Run4	generate/STIM_001.jpg
2605.469	1.468	0	generate	Run4	generate/STIM_001.jpg
2610.279	1.181	1	generate	Run4	generate/STIM_001.jpg
2614.635	0.916	1	generate	Run4	generate/STIM_001.jpg
2618.577	0.81	1	generate	Run4	generate/STIM_001.jpg
2622.993	1.495	1	generate	Run4	generate/STIM_002.jpg
2626.825	1.663	0	generate	Run4	generate/STIM_002.jpg
2632.515	1.417	1	generate	Run4	generate/STIM_002.jpg
2637.99	1.73	1	generate	Run4	generate/STIM_002.jpg
2642.936	0.787	1	generate	Run4	generate/STIM_002.jpg
2646.07	1.404	1	generate	Run4	generate/STIM_003.jpg
2651.286	1.002	1	generate	Run4	generate/STIM_003.jpg
2654.764	0.92	1	generate	Run4	generate/STIM_003.jpg
2658.557	0.884	1	generate	Run4	generate/STIM_003.jpg
2662.88	1.711	1	generate	Run4	generate/STIM_003.jpg
2666.916	1.727	1	generate	Run4	generate/STIM_004.jpg
2672.155	1.53	1	generate	Run4	generate/STIM_004.jpg
2676.731	1.299	1	generate	Run4	generate/STIM_004.jpg
2681.572	1.195	1	generate	Run4	generate/STIM_004.jpg
2685.359	1.285	1	generate	Run4	generate/STIM_004.jpg
2689.842	0.839	1	generate	Run4	generate/STIM_005.jpg
2693.113	1.142	1	generate	Run4	generate/STIM_005.jpg
2698.193	1.476	1	generate	Run4	generate/STIM_005.jpg
2703.354	1.714	1	generate	Run4	generate/STIM_005.jpg
2708.572	1.229	1	generate	Run4	generate/STIM_005.jpg
2711.956	1.789	1	generate	Run4	generate/STIM_006.jpg
2716.688	1.677	0	generate	Run4	generate/STIM_006.jpg
2721.157	1.264	1	generate	Run4	generate/STIM_006.jpg
2724.831	0.933	1	generate	Run4	generate/STIM_006.jpg
2729.841	1.79	1	generate	Run4	generate/STIM_006.jpg
2734.909	1.35	1	generate	Run4	generate/STIM_007.jpg
2740.167	0.849	1	generate	Run4	generate/STIM_007.jpg
2744.077	1.688	1	generate	Run4	generate/STIM_007.jpg
2748.176	1.584	1	generate	Run4	generate/STIM_007.jpg
2753.874	1.682	1	generate	Run4	generate/STIM_007.jpg
2758.085	1.462	1	generate	Run4	generate/STIM_008.jpg
2763.421	1.444	1	generate	Run4	generate/STIM_008.jpg
2768.816	1.297	1	generate	Run4	generate/STIM_008.jpg
2774.174	1.346	0	generate	Run4	generate/STIM_008.jpg
2779.678	1.355	1	generate	Run4	generate/STIM_008.jpg
2784.316	1.344	1	generate	Run4	generate/STIM_009.jpg
2789.025	1.226	1	generate	Run4	generate/STIM_009.jpg
2793.918	1.34	1	generate	Run4	generate/STIM_009.jpg
2797.568	1.86	1	generate	Run4	generate/STIM_009.jpg
2802.994	1.487	1	generate	Run4	generate/STIM_009.jpg
2806.9	0.928	1	generate	Run4	generate/STIM_010.jpg
2811.249	1.412	1	generate	Run4	generate/STIM_010.jpg
2816.473	1.161	1	generate	Run4	generate/STIM_010.jpg
2820.052	0.942	1	generate	Run4	generate/STIM_010.jpg
2824.489	1.63	1	generate	Run4	generate/STIM_010.jpg
2830.12	0.945	1	generate	Run4	generate/STIM_011.jpg
2833.829	1.11	1	generate	Run4	generate/STIM_011.jpg
2837.458	1.204	1	generate	Run4	generate/STIM_011.jpg
2841.756	1.575	1	generate	Run4	generate/STIM_011.jpg
2847.082	1.268	1	generate	Run4	generate/STIM_011.jpg
2850.887	1.629	1	generate	Run4	generate/STIM_012.jpg
2855.336	1.784	1	generate	Run4	generate/STIM_012.jpg
2860.186	1.746	1	generate	Run4	generate/STIM_012.jpg
2865.257	1.455	1	generate	Run4	generate/STIM_012.jpg
2868.941	1.615	1	generate	Run4	generate/STIM_012.jpg
2873.344	1.332	1	generate	Run4	generate/STIM_013.jpg
2877.898	1.129	1	generate	Run4	generate/STIM_013.jpg
2883.003	1.596	1	generate	Run4	generate/STIM_013.jpg
2887.473	0.947	0	generate	Run4	generate/STIM_013.jpg
2891.073	1.011	1	generate	Run4	generate/STIM_013.jpg
2895.395	1.007	1	generate	Run4	generate/STIM_014.jpg
2900.252	0.927	1	generate	Run4	generate/STIM_014.jpg
2904.273	1.194	1	generate	Run4	generate/STIM_014.jpg
2909.377	1.076	1	generate	Run4	generate/STIM_014.jpg
2913.209	0.884	1	generate	Run4	generate/STIM_014.jpg
2916.611	1.587	1	generate	Run4	generate/STIM_015.jpg
2922.181	1.085	0	generate	Run4	generate/STIM_015.jpg
2926.815	1.326	1	generate	Run4	generate/STIM_015.jpg
2932.057	1.567	1	generate	Run4	generate/STIM_015.jpg
2936.075	0.935	1	generate	Run4	generate/STIM_015.jpg
2939.722	0.894	1	generate	Run4	generate/STIM_016.jpg
2944.327	1.219	1	generate	Run4	generate/STIM_016.jpg
2949.156	1.523	1	generate	Run4	generate/STIM_016.jpg
2953.406	0.895	1	generate	Run4	generate/STIM_016.jpg
2957.762	1.774	1	generate	Run4	generate/STIM_016.jpg
2962.421	1.513	1	generate	Run4	generate/STIM_017.jpg
2966.551	1.679	1	generate	Run4	generate/STIM_017.jpg
2971.989	1.374	1	generate	Run4	generate/STIM_017.jpg
2975.714	1.453	1	generate	Run4	generate/STIM_017.jpg
2979.438	1.541	1	generate	Run4	generate/STIM_017.jpg
2983.356	0.905	1	generate	Run4	generate/STIM_018.jpg
2988.139	1.097	1	generate	Run4	generate/STIM_018.jpg
2991.435	1.424	1	generate	Run4	generate/STIM_018.jpg
2996.369	1.392	1	generate	Run4	generate/STIM_018.jpg
3001.478	1.019	1	generate	Run4	generate/STIM_018.jpg
3005.737	1.241	1	generate	Run4	generate/STIM_019.jpg
3011.02	0.874	1	generate	Run4	generate/STIM_019.jpg
3015.232	1.023	1	generate	Run4	generate/STIM_019.jpg
3018.546	1.584	1	generate	Run4	generate/STIM_019.jpg
3023.784	1.504	1	generate	Run4	generate/STIM_019.jpg
3028.121	0.868	1	generate	Run4	generate/STIM_020.jpg
3031.543	1.368	1	generate	Run4	generate/STIM_020.jpg
3035.25	1.791	1	generate	Run4	generate/STIM_020.jpg
3040.376	1.652	1	generate	Run4	generate/STIM_020.jpg
3044.291	1.375	1	generate	Run4	generate/STIM_020.jpg
3048.797	1.779	1	generate	Run4	generate/STIM_021.jpg
3054.193	1.409	1	generate	Run4	generate/STIM_021.jpg
3058.074	1.537	1	generate	Run4	generate/STIM_021.jpg
3063.073	1.748	1	generate	Run4	generate/STIM_021.jpg
3067.508	1.356	1	generate	Run4	generate/STIM_021.jpg
3071.175	1.736	1	generate	Run4	generate/STIM_022.jpg
3075.959	1.674	1	generate	Run4	generate/STIM_022.jpg
3080.384	0.888	1	generate	Run4	generate/STIM_022.jpg
3085.012	1.289	1	generate	Run4	generate/STIM_022.jpg
3089.58	1.557	1	generate	Run4	generate/STIM_022.jpg
3094.076	1.572	1	generate	Run4	generate/STIM_023.jpg
3098.286	1.784	1	generate	Run4	generate/STIM_023.jpg
3102.393	0.997	1	generate	Run4	generate/STIM_023.jpg
3106.621	1.782	1	generate	Run4	generate/STIM_023.jpg
3110.625	1.531	1	generate	Run4	generate/STIM_023.jpg
3114.497	1.048	1	generate	Run4	generate/STIM_024.jpg
3118.572	1.089	1	generate	Run4	generate/STIM_024.jpg
3123.088	1.813	1	generate	Run4	generate/STIM_024.jpg
3127.864	1.047	1	generate	Run4	generate/STIM_024.jpg
3131.764	1.656	1	generate	Run4	generate/STIM_024.jpg
3136.763	0.887	1	repeat	Run4	repeat/STIM_000.jpg
3140.398	0.479	1	repeat	Run4	repeat/STIM_000.jpg
3143.915	0.591	1	repeat	Run4	repeat/STIM_000.jpg
3147.455	0.449	1	repeat	Run4	repeat/STIM_000.jpg
3150.136	0.886	1	repeat	Run4	repeat/STIM_000.jpg
3154.629	0.729	1	repeat	Run4	repeat/STIM_001.jpg
3157.896	0.634	1	repeat	Run4	repeat/STIM_001.jpg
3160.887	0.783	1	repeat	Run4	repeat/STIM_001.jpg
3164.748	0.857	1	repeat	Run4	repeat/STIM_001.jpg
3168.252	0.656	1	repeat	Run4	repeat/STIM_001.jpg
3171.172	0.512	1	repeat	Run4	repeat/STIM_002.jpg
3174.28	0.607	1	repeat	Run4	repeat/STIM_002.jpg
3177.345	0.492	1	repeat	Run4	repeat/STIM_002.jpg
3181.001	0.58	1	repeat	Run4	repeat/STIM_002.jpg
3183.722	0.698	1	repeat	Run4	repeat/STIM_002.jpg
3186.902	0.812	1	repeat	Run4	repeat/STIM_003.jpg
3191.214	0.557	1	repeat	Run4	repeat/STIM_003.jpg
3194.042	0.684	1	repeat	Run4	repeat/STIM_003.jpg
3197.73	0.544	1	repeat	Run4	repeat/STIM_003.jpg
3201.955	0.522	1	repeat	Run4	repeat/STIM_003.jpg
3204.605	0.525	1	repeat	Run4	repeat/STIM_004.jpg
3208.578	0.79	1	repeat	Run4	repeat/STIM_004.jpg
3211.542	0.839	1	repeat	Run4	repeat/STIM_004.jpg
3216.291	0.631	1	repeat	Run4	repeat/STIM_004.jpg
3220.005	0.713	1	repeat	Run4	repeat/STIM_004.jpg
3224.674	0.637	1	repeat	Run4	repeat/STIM_005.jpg
3229.381	0.456	1	repeat	Run4	repeat/STIM_005.jpg
3233.282	0.709	1	repeat	Run4	repeat/STIM_005.jpg
3236.796	0.738	1	repeat	Run4	repeat/STIM_005.jpg
3241.491	0.863	1	repeat	Run4	repeat/STIM_005.jpg
3245.63	0.892	1	repeat	Run4	repeat/STIM_006.jpg
3250.392	0.517	1	repeat	Run4	repeat/STIM_006.jpg
3254.153	0.859	1	repeat	Run4	repeat/STIM_006.jpg
3258.666	0.74	1	repeat	Run4	repeat/STIM_006.jpg
3262.988	0.698	1	repeat	Run4	repeat/STIM_006.jpg
3265.92	0.616	1	repeat	Run4	repeat/STIM_007.jpg
3270.053	0.872	1	repeat	Run4	repeat/STIM_007.jpg
3273.901	0.721	1	repeat	Run4	repeat/STIM_007.jpg
3277.607	0.636	0	repeat	Run4	repeat/STIM_007.jpg
3282.274	0.68	1	repeat	Run4	repeat/STIM_007.jpg
3285.603	0.606	1	repeat	Run4	repeat/STIM_008.jpg
3288.588	0.598	1	repeat	Run4	repeat/STIM_008.jpg
3292.439	0.865	1	repeat	Run4	repeat/STIM_008.jpg
3296.041	0.483	1	repeat	Run4	repeat/STIM_008.jpg
3299.656	0.672	1	repeat	Run4	repeat/STIM_008.jpg
3303.441	0.493	1	repeat	Run4	repeat/STIM_009.jpg
3307.745	0.88	1	repeat	Run4	repeat/STIM_009.jpg
3311.146	0.514	1	repeat	Run4	repeat/STIM_009.jpg
3315.339	0.63	1	repeat	Run4	repeat/STIM_009.jpg
3319.05	0.514	1	repeat	Run4	repeat/STIM_009.jpg
3321.796	0.468	1	repeat	Run4	repeat/STIM_010.jpg
3325.834	0.657	1	repeat	Run4	repeat/STIM_010.jpg
3328.712	0.763	1	repeat	Run4	repeat/STIM_010.jpg
3333.346	0.527	1	repeat	Run4	repeat/STIM_010.jpg
3337.523	0.469	1	repeat	Run4	repeat/STIM_010.jpg
3340.511	0.716	1	repeat	Run4	repeat/STIM_011.jpg
3344.824	0.866	1	repeat	Run4	repeat/STIM_011.jpg
3348.616	0.466	1	repeat	Run4	repeat/STIM_011.jpg
3352.024	0.613	1	repeat	Run4	repeat/STIM_011.jpg
3355.265	0.654	1	repeat	Run4	repeat/STIM_011.jpg
3358.024	0.643	1	repeat	Run4	repeat/STIM_012.jpg
3362.017	0.888	1	repeat	Run4	repeat/STIM_012.jpg
3365.548	0.856	1	repeat	Run4	repeat/STIM_012.jpg
3370.22	0.556	1	repeat	Run4	repeat/STIM_012.jpg
3374.523	0.836	1	repeat	Run4	repeat/STIM_012.jpg
3378.86	0.64	1	repeat	Run4	repeat/STIM_013.jpg
3381.787	0.848	1	repeat	Run4	repeat/STIM_013.jpg
3386.217	0.787	1	repeat	Run4	repeat/STIM_013.jpg
3390.398	0.5	1	repeat	Run4	repeat/STIM_013.jpg
3393.69	0.693	1	repeat	Run4	repeat/STIM_013.jpg
3396.719	0.669	1	repeat	Run4	repeat/STIM_014.jpg
3400.344	0.518	1	repeat	Run4	repeat/STIM_014.jpg
3402.927	0.892	1	repeat	Run4	repeat/STIM_014.jpg
3406.909	0.56	1	repeat	Run4	repeat/STIM_014.jpg
3410.728	0.802	1	repeat	Run4	repeat/STIM_014.jpg
