onset	duration	accuracy_binary	trial_type	learning_stage	stimulus
0.0	2.852	1	generate	Run1	generate/STIM_000.jpg
6.061	2.313	1	generate	Run1	generate/STIM_000.jpg
10.711	2.601	1	generate	Run1	generate/STIM_000.jpg
16.539	1.112	1	generate	Run1	generate/STIM_000.jpg
20.801	2.333	0	generate	Run1	generate/STIM_000.jpg
26.912	2.724	0	generate	Run1	generate/STIM_001.jpg
32.951	2.735	0	generate	Run1	generate/STIM_001.jpg
38.541	2.764	1	generate	Run1	generate/STIM_001.jpg
45.295	2.361	0	generate	Run1	generate/STIM_001.jpg
51.064	1.587	1	generate	Run1	generate/STIM_001.jpg
56.012	1.935	1	generate	Run1	generate/STIM_002.jpg
61.511	1.273	1	generate	Run1	generate/STIM_002.jpg
65.465	2.755	0	generate	Run1	generate/STIM_002.jpg
70.634	1.654	1	generate	Run1	generate/STIM_002.jpg
75.838	2.305	1	generate	Run1	generate/STIM_002.jpg
80.483	2.872	1	generate	Run1	generate/STIM_003.jpg
86.277	2.271	1	generate	Run1	generate/STIM_003.jpg
92.207	2.762	1	generate	Run1	generate/STIM_003.jpg
98.174	1.444	1	generate	Run1	generate/STIM_003.jpg
102.838	2.539	1	generate	Run1	generate/STIM_003.jpg
108.465	1.629	1	generate	Run1	generate/STIM_004.jpg
113.233	2.12	1	generate	Run1	generate/STIM_004.jpg
118.124	2.631	1	generate	Run1	generate/STIM_004.jpg
123.303	2.728	1	generate	Run1	generate/STIM_004.jpg
128.77	2.334	1	generate	Run1	generate/STIM_004.jpg
133.278	3.149	0	generate	Run1	generate/STIM_005.jpg
139.079	2.631	0	generate	Run1	generate/STIM_005.jpg
143.797	1.817	1	generate	Run1	generate/STIM_005.jpg
149.563	2.302	0	generate	Run1	generate/STIM_005.jpg
154.935	1.521	1	generate	Run1	generate/STIM_005.jpg
159.844	2.192	1	generate	Run1	generate/STIM_006.jpg
165.447	2.138	1	generate	Run1	generate/STIM_006.jpg
171.487	2.767	0	generate	Run1	generate/STIM_006.jpg
176.927	1.805	0	generate	Run1	generate/STIM_006.jpg
181.351	1.698	1	generate	Run1	generate/STIM_006.jpg
186.78	2.277	1	generate	Run1	generate/STIM_007.jpg
191.615	2.561	1	generate	Run1	generate/STIM_007.jpg
197.186	2.172	1	generate	Run1	generate/STIM_007.jpg
202.934	2.696	1	generate	Run1	generate/STIM_007.jpg
209.149	2.157	1	generate	Run1	generate/STIM_007.jpg
214.74	3.181	1	generate	Run1	generate/STIM_008.jpg
220.942	2.335	1	generate	Run1	generate/STIM_008.jpg
226.969	2.492	1	generate	Run1	generate/STIM_008.jpg
233.216	2.486	1	generate	Run1	generate/STIM_008.jpg
239.086	2.033	1	generate	Run1	generate/STIM_008.jpg
244.677	3.069	1	generate	Run1	generate/STIM_009.jpg
250.358	1.247	1	generate	Run1	generate/STIM_009.jpg
254.13	2.543	1	generate	Run1	generate/STIM_009.jpg
260.624	1.876	1	generate	Run1	generate/STIM_009.jpg
265.095	2.19	1	generate	Run1	generate/STIM_009.jpg
270.171	2.921	1	generate	Run1	generate/STIM_010.jpg
276.25	2.884	1	generate	Run1	generate/STIM_010.jpg
281.324	1.181	0	generate	Run1	generate/STIM_010.jpg
286.104	2.438	0	generate	Run1	generate/STIM_010.jpg
292.002	1.247	1	generate	Run1	generate/STIM_010.jpg
295.749	2.4	1	generate	Run1	generate/STIM_011.jpg
301.547	2.513	0	generate	Run1	generate/STIM_011.jpg
307.533	2.335	1	generate	Run1	generate/STIM_011.jpg
313.682	1.31	1	generate	Run1	generate/STIM_011.jpg
317.531	2.185	1	generate	Run1	generate/STIM_011.jpg
322.223	1.904	1	generate	Run1	generate/STIM_012.jpg
326.28	1.962	1	generate	Run1	generate/STIM_012.jpg
331.718	2.814	1	generate	Run1	generate/STIM_012.jpg
336.718	2.261	1	generate	Run1	generate/STIM_012.jpg
341.88	2.557	1	generate	Run1	generate/STIM_012.jpg
347.896	1.381	1	generate	Run1	generate/STIM_013.jpg
351.426	2.217	1	generate	Run1	generate/STIM_013.jpg
356.396	2.12	0	generate	Run1	generate/STIM_013.jpg
361.788	1.334	1	generate	Run1	generate/STIM_013.jpg
365.383	2.042	1	generate	Run1	generate/STIM_013.jpg
370.472	2.029	1	generate	Run1	generate/STIM_014.jpg
376.176	2.56	1	generate	Run1	generate/STIM_014.jpg
382.689	1.608	1	generate	Run1	generate/STIM_014.jpg
387.355	2.586	1	generate	Run1	generate/STIM_014.jpg
392.579	1.947	1	generate	Run1	generate/STIM_014.jpg
397.955	1.812	0	generate	Run1	generate/STIM_015.jpg
402.312	1.514	0	generate	Run1	generate/STIM_015.jpg
407.576	2.534	1	generate	Run1	generate/STIM_015.jpg
413.686	1.695	1	generate	Run1	generate/STIM_015.jpg
417.848	2.25	0	generate	Run1	generate/STIM_015.jpg
422.379	2.411	1	generate	Run1	generate/STIM_016.jpg
427.402	2.845	1	generate	Run1	generate/STIM_016.jpg
433.547	1.313	1	generate	Run1	generate/STIM_016.jpg
438.763	2.549	1	generate	Run1	generate/STIM_016.jpg
444.004	2.141	1	generate	Run1	generate/STIM_016.jpg
450.082	2.17	1	generate	Run1	generate/STIM_017.jpg
454.42	2.476	1	generate	Run1	generate/STIM_017.jpg
460.407	2.863	1	generate	Run1	generate/STIM_017.jpg
466.836	2.608	1	generate	Run1	generate/STIM_017.jpg
472.87	1.733	1	generate	Run1	generate/STIM_017.jpg
477.083	1.345	1	generate	Run1	generate/STIM_018.jpg
481.412	1.232	0	generate	Run1	generate/STIM_018.jpg
485.591	2.356	1	generate	Run1	generate/STIM_018.jpg
491.175	1.274	1	generate	Run1	generate/STIM_018.jpg
494.614	1.355	1	generate	Run1	generate/STIM_018.jpg
499.229	2.39	1	generate	Run1	generate/STIM_019.jpg
505.017	2.253	1	generate	Run1	generate/STIM_019.jpg
511.049	1.66	1	generate	Run1	generate/STIM_019.jpg
516.028	2.612	1	generate	Run1	generate/STIM_019.jpg
521.117	1.262	1	generate	Run1	generate/STIM_019.jpg
526.119	2.863	1	generate	Run1	generate/STIM_020.jpg
531.932	2.458	0	generate	Run1	generate/STIM_020.jpg
536.875	2.456	1	generate	Run1	generate/STIM_020.jpg
542.022	1.702	1	generate	Run1	generate/STIM_020.jpg
545.932	2.194	0	generate	Run1	generate/STIM_020.jpg
552.074	1.63	1	generate	Run1	generate/STIM_021.jpg
556.678	1.81	0	generate	Run1	generate/STIM_021.jpg
560.843	1.382	1	generate	Run1	generate/STIM_021.jpg
565.929	1.493	0	generate	Run1	generate/STIM_021.jpg
569.446	1.98	1	generate	Run1	generate/STIM_021.jpg
573.814	2.944	1	generate	Run1	generate/STIM_022.jpg
579.777	1.715	1	generate	Run1	generate/STIM_022.jpg
583.649	1.748	1	generate	Run1	generate/STIM_022.jpg
587.78	1.501	1	generate	Run1	generate/STIM_022.jpg
591.458	2.251	1	generate	Run1	generate/STIM_022.jpg
596.942	1.96	1	generate	Run1	generate/STIM_023.jpg
601.554	2.968	1	generate	Run1	generate/STIM_023.jpg
607.884	1.651	1	generate	Run1	generate/STIM_023.jpg
612.422	2.481	1	generate	Run1	generate/STIM_023.jpg
616.915	1.304	1	generate	Run1	generate/STIM_023.jpg
622.186	1.368	1	generate	Run1	generate/STIM_024.jpg
625.951	1.913	1	generate	Run1	generate/STIM_024.jpg
630.151	2.335	0	generate	Run1	generate/STIM_024.jpg
634.588	1.28	1	generate	Run1	generate/STIM_024.jpg
638.937	1.305	1	generate	Run1	generate/STIM_024.jpg
642.722	0.678	1	repeat	Run1	repeat/STIM_000.jpg
646.798	0.907	1	repeat	Run1	repeat/STIM_000.jpg
651.584	0.64	1	repeat	Run1	repeat/STIM_000.jpg
656.182	0.893	1	repeat	Run1	repeat/STIM_000.jpg
659.622	0.786	1	repeat	Run1	repeat/STIM_000.jpg
662.426	0.871	1	repeat	Run1	repeat/STIM_001.jpg
665.459	0.756	1	repeat	Run1	repeat/STIM_001.jpg
669.713	0.937	1	repeat	Run1	repeat/STIM_001.jpg
673.314	0.584	1	repeat	Run1	repeat/STIM_001.jpg
676.941	0.928	1	repeat	Run1	repeat/STIM_001.jpg
681.431	0.876	1	repeat	Run1	repeat/STIM_002.jpg
685.344	0.537	1	repeat	Run1	repeat/STIM_002.jpg
689.006	0.889	1	repeat	Run1	repeat/STIM_002.jpg
693.575	0.648	1	repeat	Run1	repeat/STIM_002.jpg
696.981	0.834	1	repeat	Run1	repeat/STIM_002.jpg
699.932	0.637	1	repeat	Run1	repeat/STIM_003.jpg
704.334	0.844	1	repeat	Run1	repeat/STIM_003.jpg
707.423	1.026	1	repeat	Run1	repeat/STIM_003.jpg
711.588	0.768	1	repeat	Run1	repeat/STIM_003.jpg
715.743	0.937	1	repeat	Run1	repeat/STIM_003.jpg
719.216	0.809	1	repeat	Run1	repeat/STIM_004.jpg
722.205	0.875	1	repeat	Run1	repeat/STIM_004.jpg
725.723	1.005	1	repeat	Run1	repeat/STIM_004.jpg
728.779	1.009	1	repeat	Run1	repeat/STIM_004.jpg
732.879	0.942	1	repeat	Run1	repeat/STIM_004.jpg
736.076	0.786	1	repeat	Run1	repeat/STIM_005.jpg
739.959	0.991	1	repeat	Run1	repeat/STIM_005.jpg
743.846	0.881	1	repeat	Run1	repeat/STIM_005.jpg
746.872	0.922	1	repeat	Run1	repeat/STIM_005.jpg
751.362	0.546	1	repeat	Run1	repeat/STIM_005.jpg
754.583	0.741	1	repeat	Run1	repeat/STIM_006.jpg
759.007	0.719	1	repeat	Run1	repeat/STIM_006.jpg
762.176	0.976	1	repeat	Run1	repeat/STIM_006.jpg
765.183	0.811	1	repeat	Run1	repeat/STIM_006.jpg
768.178	0.977	1	repeat	Run1	repeat/STIM_006.jpg
771.8	1.048	1	repeat	Run1	repeat/STIM_007.jpg
776.813	0.956	1	repeat	Run1	repeat/STIM_007.jpg
781.307	0.575	1	repeat	Run1	repeat/STIM_007.jpg
784.801	0.88	1	repeat	Run1	repeat/STIM_007.jpg
789.063	0.646	1	repeat	Run1	repeat/STIM_007.jpg
792.515	0.617	1	repeat	Run1	repeat/STIM_008.jpg
796.549	0.893	1	repeat	Run1	repeat/STIM_008.jpg
799.867	0.881	1	repeat	Run1	repeat/STIM_008.jpg
804.339	0.567	1	repeat	Run1	repeat/STIM_008.jpg
807.8	0.811	1	repeat	Run1	repeat/STIM_008.jpg
812.038	0.617	1	repeat	Run1	repeat/STIM_009.jpg
814.851	0.8	1	repeat	Run1	repeat/STIM_009.jpg
819.638	1.051	1	repeat	Run1	repeat/STIM_009.jpg
824.656	1.056	1	repeat	Run1	repeat/STIM_009.jpg
829.017	1.028	1	repeat	Run1	repeat/STIM_009.jpg
832.351	0.742	1	repeat	Run1	repeat/STIM_010.jpg
835.184	0.676	1	repeat	Run1	repeat/STIM_010.jpg
838.122	0.786	1	repeat	Run1	repeat/STIM_010.jpg
841.535	0.97	1	repeat	Run1	repeat/STIM_010.jpg
845.716	0.848	1	repeat	Run1	repeat/STIM_010.jpg
848.97	0.823	1	repeat	Run1	repeat/STIM_011.jpg
851.943	1.007	1	repeat	Run1	repeat/STIM_011.jpg
856.401	0.723	1	repeat	Run1	repeat/STIM_011.jpg
859.949	0.957	1	repeat	Run1	repeat/STIM_011.jpg
864.223	0.902	1	repeat	Run1	repeat/STIM_011.jpg
867.815	0.543	1	repeat	Run1	repeat/STIM_012.jpg
870.816	0.658	1	repeat	Run1	repeat/STIM_012.jpg
874.656	0.802	1	repeat	Run1	repeat/STIM_012.jpg
879.232	0.739	1	repeat	Run1	repeat/STIM_012.jpg
883.755	0.766	1	repeat	Run1	repeat/STIM_012.jpg
887.761	0.752	1	repeat	Run1	repeat/STIM_013.jpg
891.943	0.704	1	repeat	Run1	repeat/STIM_013.jpg
896.294	1.0	1	repeat	Run1	repeat/STIM_013.jpg
900.843	0.953	1	repeat	Run1	repeat/STIM_013.jpg
905.46	0.636	1	repeat	Run1	repeat/STIM_013.jpg
909.043	0.698	1	repeat	Run1	repeat/STIM_014.jpg
912.963	0.562	1	repeat	Run1	repeat/STIM_014.jpg
917.168	0.869	1	repeat	Run1	repeat/STIM_014.jpg
921.334	0.855	1	repeat	Run1	repeat/STIM_014.jpg
925.935	0.907	1	repeat	Run1	repeat/STIM_014.jpg
928.888	1.3	0	generate	Run2	generate/STIM_000.jpg
932.446	1.99	1	generate	Run2	generate/STIM_000.jpg
937.825	0.97	1	generate	Run2	generate/STIM_000.jpg
942.658	2.004	1	generate	Run2	generate/STIM_000.jpg
947.505	2.028	1	generate	Run2	generate/STIM_000.jpg
951.94	1.537	1	generate	Run2	generate/STIM_001.jpg
956.172	1.659	1	generate	Run2	generate/STIM_001.jpg
960.89	2.003	0	generate	Run2	generate/STIM_001.jpg
966.717	1.43	1	generate	Run2	generate/STIM_001.jpg
970.741	2.155	1	generate	Run2	generate/STIM_001.jpg
975.064	1.207	1	generate	Run2	generate/STIM_002.jpg
978.629	1.528	1	generate	Run2	generate/STIM_002.jpg
982.454	1.674	1	generate	Run2	generate/STIM_002.jpg
987.099	2.058	1	generate	Run2	generate/STIM_002.jpg
993.06	1.251	1	generate	Run2	generate/STIM_002.jpg
997.164	1.773	1	generate	Run2	generate/STIM_003.jpg
1001.301	2.515	1	generate	Run2	generate/STIM_003.jpg
1007.614	1.196	1	generate	Run2	generate/STIM_003.jpg
1012.525	1.394	1	generate	Run2	generate/STIM_003.jpg
1016.606	1.523	1	generate	Run2	generate/STIM_003.jpg
1021.402	1.966	1	generate	Run2	generate/STIM_004.jpg
1026.836	1.491	1	generate	Run2	generate/STIM_004.jpg
1031.405	1.799	1	generate	Run2	generate/STIM_004.jpg
1037.078	1.122	1	generate	Run2	generate/STIM_004.jpg
1040.972	1.289	1	generate	Run2	generate/STIM_004.jpg
1044.386	1.259	1	generate	Run2	generate/STIM_005.jpg
1047.712	1.583	1	generate	Run2	generate/STIM_005.jpg
1051.301	2.173	1	generate	Run2	generate/STIM_005.jpg
1057.312	1.608	1	generate	Run2	generate/STIM_005.jpg
1062.514	1.999	1	generate	Run2	generate/STIM_005.jpg
1067.857	2.273	1	generate	Run2	generate/STIM_006.jpg
1073.914	1.176	1	generate	Run2	generate/STIM_006.jpg
1078.201	1.941	1	generate	Run2	generate/STIM_006.jpg
1083.856	0.965	1	generate	Run2	generate/STIM_006.jpg
1087.615	1.382	1	generate	Run2	generate/STIM_006.jpg
1091.582	2.533	1	generate	Run2	generate/STIM_007.jpg
1096.487	1.405	1	generate	Run2	generate/STIM_007.jpg
1101.235	1.455	1	generate	Run2	generate/STIM_007.jpg
1104.697	1.461	1	generate	Run2	generate/STIM_007.jpg
1109.561	1.768	1	generate	Run2	generate/STIM_007.jpg
1113.931	1.539	1	generate	Run2	generate/STIM_008.jpg
1117.972	1.922	1	generate	Run2	generate/STIM_008.jpg
1122.659	2.121	1	generate	Run2	generate/STIM_008.jpg
1126.944	2.086	1	generate	Run2	generate/STIM_008.jpg
1131.123	1.36	1	generate	Run2	generate/STIM_008.jpg
1135.966	1.663	1	generate	Run2	generate/STIM_009.jpg
1140.011	2.086	1	generate	Run2	generate/STIM_009.jpg
1144.516	2.118	1	generate	Run2	generate/STIM_009.jpg
1148.769	1.086	1	generate	Run2	generate/STIM_009.jpg
1152.593	1.595	1	generate	Run2	generate/STIM_009.jpg
1156.811	1.563	1	generate	Run2	generate/STIM_010.jpg
1161.42	2.241	1	generate	Run2	generate/STIM_010.jpg
1166.502	1.55	1	generate	Run2	generate/STIM_010.jpg
1170.418	2.168	1	generate	Run2	generate/STIM_010.jpg
1175.976	1.338	1	generate	Run2	generate/STIM_010.jpg
1179.595	1.658	1	generate	Run2	generate/STIM_011.jpg
1184.699	1.122	0	generate	Run2	generate/STIM_011.jpg
1188.761	1.173	1	generate	Run2	generate/STIM_011.jpg
1193.728	1.535	1	generate	Run2	generate/STIM_011.jpg
1197.8	1.596	1	generate	Run2	generate/STIM_011.jpg
1202.683	2.348	1	generate	Run2	generate/STIM_012.jpg
1207.206	1.8	1	generate	Run2	generate/STIM_012.jpg
1211.174	1.723	1	generate	Run2	generate/STIM_012.jpg
1216.442	1.544	1	generate	Run2	generate/STIM_012.jpg
1220.489	1.544	1	generate	Run2	generate/STIM_012.jpg
1225.615	1.758	1	generate	Run2	generate/STIM_013.jpg
1229.847	1.519	1	generate	Run2	generate/STIM_013.jpg
1234.954	1.057	1	generate	Run2	generate/STIM_013.jpg
1239.562	2.226	1	generate	Run2	generate/STIM_013.jpg
1243.967	1.477	1	generate	Run2	generate/STIM_013.jpg
1248.558	2.042	1	generate	Run2	generate/STIM_014.jpg
1252.822	1.634	1	generate	Run2	generate/STIM_014.jpg
1258.259	2.038	1	generate	Run2	generate/STIM_014.jpg
1262.519	2.113	1	generate	Run2	generate/STIM_014.jpg
1267.66	2.144	0	generate	Run2	generate/STIM_014.jpg
1273.299	1.412	1	generate	Run2	generate/STIM_015.jpg
1277.289	1.335	1	generate	Run2	generate/STIM_015.jpg
1282.315	1.239	1	generate	Run2	generate/STIM_015.jpg
1287.035	1.296	1	generate	Run2	generate/STIM_015.jpg
1290.499	1.403	1	generate	Run2	generate/STIM_015.jpg
1295.213	1.858	1	generate	Run2	generate/STIM_016.jpg
1299.978	1.797	0	generate	Run2	generate/STIM_016.jpg
1304.493	1.467	1	generate	Run2	generate/STIM_016.jpg
1308.486	2.152	1	generate	Run2	generate/STIM_016.jpg
1314.372	1.091	1	generate	Run2	generate/STIM_016.jpg
1318.66	2.222	1	generate	Run2	generate/STIM_017.jpg
1324.839	2.345	1	generate	Run2	generate/STIM_017.jpg
1331.137	1.715	1	generate	Run2	generate/STIM_017.jpg
1335.115	1.695	1	generate	Run2	generate/STIM_017.jpg
1340.024	1.414	1	generate	Run2	generate/STIM_017.jpg
1345.331	2.209	1	generate	Run2	generate/STIM_018.jpg
1351.411	1.521	0	generate	Run2	generate/STIM_018.jpg
1356.502	2.31	1	generate	Run2	generate/STIM_018.jpg
1362.291	1.593	1	generate	Run2	generate/STIM_018.jpg
1366.895	1.113	1	generate	Run2	generate/STIM_018.jpg
1370.323	2.083	1	generate	Run2	generate/STIM_019.jpg
1376.392	1.457	1	generate	Run2	generate/STIM_019.jpg
1380.992	1.943	1	generate	Run2	generate/STIM_019.jpg
1385.035	1.958	1	generate	Run2	generate/STIM_019.jpg
1390.69	1.115	1	generate	Run2	generate/STIM_019.jpg
1395.342	1.519	1	generate	Run2	generate/STIM_020.jpg
1399.786	2.026	1	generate	Run2	generate/STIM_020.jpg
1405.384	2.309	1	generate	Run2	generate/STIM_020.jpg
1410.641	1.196	1	generate	Run2	generate/STIM_020.jpg
1415.779	1.058	1	generate	Run2	generate/STIM_020.jpg
1419.934	2.399	1	generate	Run2	generate/STIM_021.jpg
1425.178	2.475	1	generate	Run2	generate/STIM_021.jpg
1430.539	1.751	0	generate	Run2	generate/STIM_021.jpg
1435.401	1.34	1	generate	Run2	generate/STIM_021.jpg
1439.709	1.934	1	generate	Run2	generate/STIM_021.jpg
1443.96	1.828	0	generate	Run2	generate/STIM_022.jpg
1447.894	1.81	1	generate	Run2	generate/STIM_022.jpg
1452.87	1.422	1	generate	Run2	generate/STIM_022.jpg
1457.879	1.58	1	generate	Run2	generate/STIM_022.jpg
1462.72	1.034	1	generate	Run2	generate/STIM_022.jpg
1467.127	1.439	1	generate	Run2	generate/STIM_023.jpg
1471.742	1.117	1	generate	Run2	generate/STIM_023.jpg
1476.406	1.674	1	generate	Run2	generate/STIM_023.jpg
1481.855	1.839	1	generate	Run2	generate/STIM_023.jpg
1486.697	1.674	1	generate	Run2	generate/STIM_023.jpg
1491.81	2.313	1	generate	Run2	generate/STIM_024.jpg
1498.018	2.384	1	generate	Run2	generate/STIM_024.jpg
1502.625	2.016	1	generate	Run2	generate/STIM_024.jpg
1507.975	1.884	1	generate	Run2	generate/STIM_024.jpg
1513.6	1.953	1	generate	Run2	generate/STIM_024.jpg
1518.096	0.604	1	repeat	Run2	repeat/STIM_000.jpg
1522.038	0.746	1	repeat	Run2	repeat/STIM_000.jpg
1525.051	0.777	1	repeat	Run2	repeat/STIM_000.jpg
1528.997	0.877	0	repeat	Run2	repeat/STIM_000.jpg
1532.367	0.862	1	repeat	Run2	repeat/STIM_000.jpg
1536.695	0.934	1	repeat	Run2	repeat/STIM_001.jpg
1540.89	0.553	1	repeat	Run2	repeat/STIM_001.jpg
1543.987	0.988	1	repeat	Run2	repeat/STIM_001.jpg
1547.486	0.92	1	repeat	Run2	repeat/STIM_001.jpg
1552.255	1.049	1	repeat	Run2	repeat/STIM_001.jpg
1555.359	1.049	1	repeat	Run2	repeat/STIM_002.jpg
1559.375	0.923	1	repeat	Run2	repeat/STIM_002.jpg
1564.176	0.932	1	repeat	Run2	repeat/STIM_002.jpg
1568.587	0.807	1	repeat	Run2	repeat/STIM_002.jpg
1572.68	0.782	1	repeat	Run2	repeat/STIM_002.jpg
1575.672	0.562	1	repeat	Run2	repeat/STIM_003.jpg
1578.629	1.03	1	repeat	Run2	repeat/STIM_003.jpg
1581.905	0.763	1	repeat	Run2	repeat/STIM_003.jpg
1585.784	0.959	1	repeat	Run2	repeat/STIM_003.jpg
1589.284	0.62	1	repeat	Run2	repeat/STIM_003.jpg
1592.367	0.737	1	repeat	Run2	repeat/STIM_004.jpg
1595.252	0.896	1	repeat	Run2	repeat/STIM_004.jpg
1599.364	0.974	1	repeat	Run2	repeat/STIM_004.jpg
1604.297	0.744	1	repeat	Run2	repeat/STIM_004.jpg
1607.299	0.928	1	repeat	Run2	repeat/STIM_004.jpg
1611.709	0.837	1	repeat	Run2	repeat/STIM_005.jpg
1615.295	0.941	1	repeat	Run2	repeat/STIM_005.jpg
1618.527	0.999	1	repeat	Run2	repeat/STIM_005.jpg
1622.841	0.694	1	repeat	Run2	repeat/STIM_005.jpg
1627.054	0.877	1	repeat	Run2	repeat/STIM_005.jpg
1631.447	1.041	1	repeat	Run2	repeat/STIM_006.jpg
1636.28	0.796	1	repeat	Run2	repeat/STIM_006.jpg
1639.706	0.738	1	repeat	Run2	repeat/STIM_006.jpg
1643.999	1.018	1	repeat	Run2	repeat/STIM_006.jpg
1647.678	0.847	1	repeat	Run2	repeat/STIM_006.jpg
1651.726	0.574	1	repeat	Run2	repeat/STIM_007.jpg
1654.829	0.768	0	repeat	Run2	repeat/STIM_007.jpg
1658.569	0.998	1	repeat	Run2	repeat/STIM_007.jpg
1661.666	0.645	1	repeat	Run2	repeat/STIM_007.jpg
1664.984	0.827	1	repeat	Run2	repeat/STIM_007.jpg
1668.254	0.846	1	repeat	Run2	repeat/STIM_008.jpg
1671.837	0.746	1	repeat	Run2	repeat/STIM_008.jpg
1674.968	0.631	1	repeat	Run2	repeat/STIM_008.jpg
1679.369	0.961	1	repeat	Run2	repeat/STIM_008.jpg
1684.167	0.882	0	repeat	Run2	repeat/STIM_008.jpg
1688.988	0.988	1	repeat	Run2	repeat/STIM_009.jpg
1692.834	0.799	1	repeat	Run2	repeat/STIM_009.jpg
1696.837	0.832	1	repeat	Run2	repeat/STIM_009.jpg
1700.342	0.702	1	repeat	Run2	repeat/STIM_009.jpg
1704.438	0.848	1	repeat	Run2	repeat/STIM_009.jpg
1708.968	0.768	1	repeat	Run2	repeat/STIM_010.jpg
1713.505	0.677	1	repeat	Run2	repeat/STIM_010.jpg
1717.9	0.986	1	repeat	Run2	repeat/STIM_010.jpg
1721.95	0.768	1	repeat	Run2	repeat/STIM_010.jpg
1726.184	0.798	1	repeat	Run2	repeat/STIM_010.jpg
1730.211	0.546	1	repeat	Run2	repeat/STIM_011.jpg
1733.84	0.698	1	repeat	Run2	repeat/STIM_011.jpg
1737.85	0.882	1	repeat	Run2	repeat/STIM_011.jpg
1741.94	0.994	1	repeat	Run2	repeat/STIM_011.jpg
1745.872	1.059	1	repeat	Run2	repeat/STIM_011.jpg
1749.706	0.982	1	repeat	Run2	repeat/STIM_012.jpg
1752.914	0.714	1	repeat	Run2	repeat/STIM_012.jpg
1756.71	0.72	1	repeat	Run2	repeat/STIM_012.jpg
1759.625	0.858	1	repeat	Run2	repeat/STIM_012.jpg
1762.921	0.545	1	repeat	Run2	repeat/STIM_012.jpg
1766.411	1.043	1	repeat	Run2	repeat/STIM_013.jpg
1769.742	1.024	1	repeat	Run2	repeat/STIM_013.jpg
1774.472	0.638	1	repeat	Run2	repeat/STIM_013.jpg
1778.033	0.889	1	repeat	Run2	repeat/STIM_013.jpg
1781.686	0.541	1	repeat	Run2	repeat/STIM_013.jpg
1786.155	0.68	1	repeat	Run2	repeat/STIM_014.jpg
1789.131	0.566	1	repeat	Run2	repeat/STIM_014.jpg
1793.102	0.599	1	repeat	Run2	repeat/STIM_014.jpg
1796.772	1.049	1	repeat	Run2	repeat/STIM_014.jpg
1799.89	1.002	1	repeat	Run2	repeat/STIM_014.jpg
1804.633	1.428	1	generate	Run3	generate/STIM_000.jpg
1810.055	1.97	1	generate	Run3	generate/STIM_000.jpg
1814.971	1.737	1	generate	Run3	generate/STIM_000.jpg
1820.393	1.152	1	generate	Run3	generate/STIM_000.jpg
1824.203	2.226	1	generate	Run3	generate/STIM_000.jpg
1830.061	1.402	1	generate	Run3	generate/STIM_001.jpg
1835.11	1.769	1	generate	Run3	generate/STIM_001.jpg
1839.037	1.271	1	generate	Run3	generate/STIM_001.jpg
1842.607	1.228	1	generate	Run3	generate/STIM_001.jpg
1846.82	1.708	1	generate	Run3	generate/STIM_001.jpg
1850.62	1.532	1	generate	Run3	generate/STIM_002.jpg
1854.858	1.811	1	generate	Run3	generate/STIM_002.jpg
1859.886	1.997	1	generate	Run3	generate/STIM_002.jpg
1864.554	2.136	1	generate	Run3	generate/STIM_002.jpg
1869.166	2.208	1	generate	Run3	generate/STIM_002.jpg
1874.946	2.096	1	generate	Run3	generate/STIM_003.jpg
1880.44	1.92	1	generate	Run3	generate/STIM_003.jpg
1886.16	1.001	1	generate	Run3	generate/STIM_003.jpg
1890.466	1.963	1	generate	Run3	generate/STIM_003.jpg
1894.83	2.025	1	generate	Run3	generate/STIM_003.jpg
1899.903	1.635	1	generate	Run3	generate/STIM_004.jpg
1905.093	1.61	1	generate	Run3	generate/STIM_004.jpg
1909.231	1.308	1	generate	Run3	generate/STIM_004.jpg
1913.281	1.363	1	generate	Run3	generate/STIM_004.jpg
1918.093	1.066	1	generate	Run3	generate/STIM_004.jpg
1921.827	1.229	1	generate	Run3	generate/STIM_005.jpg
1926.787	1.304	1	generate	Run3	generate/STIM_005.jpg
1932.082	1.124	1	generate	Run3	generate/STIM_005.jpg
1935.807	1.669	1	generate	Run3	generate/STIM_005.jpg
1940.125	1.341	1	generate	Run3	generate/STIM_005.jpg
1944.708	2.09	1	generate	Run3	generate/STIM_006.jpg
1949.644	2.217	1	generate	Run3	generate/STIM_006.jpg
1954.522	1.428	1	generate	Run3	generate/STIM_006.jpg
1959.33	1.23	1	generate	Run3	generate/STIM_006.jpg
1963.231	2.109	1	generate	Run3	generate/STIM_006.jpg
1967.942	0.992	1	generate	Run3	generate/STIM_007.jpg
1972.737	1.697	1	generate	Run3	generate/STIM_007.jpg
1978.309	1.9	1	generate	Run3	generate/STIM_007.jpg
1982.79	2.054	1	generate	Run3	generate/STIM_007.jpg
1987.435	0.955	1	generate	Run3	generate/STIM_007.jpg
1991.602	2.096	1	generate	Run3	generate/STIM_008.jpg
1996.04	1.022	1	generate	Run3	generate/STIM_008.jpg
1999.11	2.061	1	generate	Run3	generate/STIM_008.jpg
2005.159	1.008	1	generate	Run3	generate/STIM_008.jpg
2010.058	1.865	1	generate	Run3	generate/STIM_008.jpg
2014.346	1.646	1	generate	Run3	generate/STIM_009.jpg
2019.029	2.037	1	generate	Run3	generate/STIM_009.jpg
2024.774	0.96	1	generate	Run3	generate/STIM_009.jpg
2028.622	2.152	1	generate	Run3	generate/STIM_009.jpg
2033.887	1.058	0	generate	Run3	generate/STIM_009.jpg
2037.566	1.546	1	generate	Run3	generate/STIM_010.jpg
2042.138	1.272	1	generate	Run3	generate/STIM_010.jpg
2045.732	1.992	1	generate	Run3	generate/STIM_010.jpg
2049.946	1.115	1	generate	Run3	generate/STIM_010.jpg
2053.315	1.121	1	generate	Run3	generate/STIM_010.jpg
2057.971	2.107	1	generate	Run3	generate/STIM_011.jpg
2063.226	1.609	1	generate	Run3	generate/STIM_011.jpg
2068.145	1.667	1	generate	Run3	generate/STIM_011.jpg
2072.105	1.651	1	generate	Run3	generate/STIM_011.jpg
2077.722	1.678	1	generate	Run3	generate/STIM_011.jpg
2082.528	1.747	1	generate	Run3	generate/STIM_012.jpg
2087.07	1.823	1	generate	Run3	generate/STIM_012.jpg
2092.535	1.237	1	generate	Run3	generate/STIM_012.jpg
2097.694	1.403	1	generate	Run3	generate/STIM_012.jpg
2101.458	1.902	1	generate	Run3	generate/STIM_012.jpg
2105.824	1.574	1	generate	Run3	generate/STIM_013.jpg
2109.468	1.658	1	generate	Run3	generate/STIM_013.jpg
2113.163	1.041	1	generate	Run3	generate/STIM_013.jpg
2118.048	1.04	1	generate	Run3	generate/STIM_013.jpg
2121.162	2.093	1	generate	Run3	generate/STIM_013.jpg
2127.123	1.991	1	generate	Run3	generate/STIM_014.jpg
2132.782	1.655	1	generate	Run3	generate/STIM_014.jpg
2137.208	1.537	1	generate	Run3	generate/STIM_014.jpg
2142.633	1.705	1	generate	Run3	generate/STIM_014.jpg
2147.862	0.91	1	generate	Run3	generate/STIM_014.jpg
2151.771	1.258	1	generate	Run3	generate/STIM_015.jpg
2155.33	0.903	1	generate	Run3	generate/STIM_015.jpg
2159.483	1.996	1	generate	Run3	generate/STIM_015.jpg
2165.362	2.032	1	generate	Run3	generate/STIM_015.jpg
2171.185	1.488	1	generate	Run3	generate/STIM_015.jpg
2176.118	2.057	1	generate	Run3	generate/STIM_016.jpg
2180.636	1.952	1	generate	Run3	generate/STIM_016.jpg
2184.962	1.586	1	generate	Run3	generate/STIM_016.jpg
2189.85	0.986	1	generate	Run3	generate/STIM_016.jpg
2193.906	1.347	1	generate	Run3	generate/STIM_016.jpg
2198.861	1.603	1	generate	Run3	generate/STIM_017.jpg
2202.914	1.017	1	generate	Run3	generate/STIM_017.jpg
2206.374	1.552	1	generate	Run3	generate/STIM_017.jpg
2210.085	1.158	1	generate	Run3	generate/STIM_017.jpg
2214.577	2.118	1	generate	Run3	generate/STIM_017.jpg
2219.578	1.462	1	generate	Run3	generate/STIM_018.jpg
2224.302	2.154	1	generate	Run3	generate/STIM_018.jpg
2229.294	2.183	1	generate	Run3	generate/STIM_018.jpg
2235.051	0.975	1	generate	Run3	generate/STIM_018.jpg
2238.414	1.209	1	generate	Run3	generate/STIM_018.jpg
2242.212	2.019	1	generate	Run3	generate/STIM_019.jpg
2246.909	1.108	1	generate	Run3	generate/STIM_019.jpg
2251.759	2.225	1	generate	Run3	generate/STIM_019.jpg
2256.496	2.152	1	generate	Run3	generate/STIM_019.jpg
2262.494	1.285	1	generate	Run3	generate/STIM_019.jpg
2267.538	2.106	1	generate	Run3	generate/STIM_020.jpg
2271.879	1.168	1	generate	Run3	generate/STIM_020.jpg
2276.794	2.235	1	generate	Run3	generate/STIM_020.jpg
2281.351	1.686	1	generate	Run3	generate/STIM_020.jpg
2285.806	1.194	1	generate	Run3	generate/STIM_020.jpg
2289.788	2.111	1	generate	Run3	generate/STIM_021.jpg
2295.764	1.708	1	generate	Run3	generate/STIM_021.jpg
2300.817	2.063	1	generate	Run3	generate/STIM_021.jpg
2306.511	0.98	1	generate	Run3	generate/STIM_021.jpg
2310.413	1.07	1	generate	Run3	generate/STIM_021.jpg
2314.476	2.061	1	generate	Run3	generate/STIM_022.jpg
2320.419	1.323	1	generate	Run3	generate/STIM_022.jpg
2324.047	1.439	1	generate	Run3	generate/STIM_022.jpg
2328.829	1.703	1	generate	Run3	generate/STIM_022.jpg
2332.811	1.338	1	generate	Run3	generate/STIM_022.jpg
2336.484	1.506	1	generate	Run3	generate/STIM_023.jpg
2341.008	1.088	1	generate	Run3	generate/STIM_023.jpg
2344.118	1.232	1	generate	Run3	generate/STIM_023.jpg
2348.824	1.514	1	generate	Run3	generate/STIM_023.jpg
2352.4	1.042	1	generate	Run3	generate/STIM_023.jpg
2356.598	1.28	1	generate	Run3	generate/STIM_024.jpg
2361.503	1.308	1	generate	Run3	generate/STIM_024.jpg
2365.391	2.113	1	generate	Run3	generate/STIM_024.jpg
2370.717	2.147	1	generate	Run3	generate/STIM_024.jpg
2375.765	0.902	1	generate	Run3	generate/STIM_024.jpg
2379.574	0.616	1	repeat	Run3	repeat/STIM_000.jpg
2383.175	0.711	1	repeat	Run3	repeat/STIM_000.jpg
2386.921	0.959	1	repeat	Run3	repeat/STIM_000.jpg
2390.425	0.782	1	repeat	Run3	repeat/STIM_000.jpg
2394.829	1.067	1	repeat	Run3	repeat/STIM_000.jpg
2398.589	0.669	1	repeat	Run3	repeat/STIM_001.jpg
2403.037	0.708	1	repeat	Run3	repeat/STIM_001.jpg
2405.747	0.664	1	repeat	Run3	repeat/STIM_001.jpg
2410.232	0.71	1	repeat	Run3	repeat/STIM_001.jpg
2414.55	0.593	1	repeat	Run3	repeat/STIM_001.jpg
2417.825	0.628	1	repeat	Run3	repeat/STIM_002.jpg
2421.919	0.689	0	repeat	Run3	repeat/STIM_002.jpg
2425.593	0.991	1	repeat	Run3	repeat/STIM_002.jpg
2429.833	0.801	1	repeat	Run3	repeat/STIM_002.jpg
2433.348	0.616	1	repeat	Run3	repeat/STIM_002.jpg
2436.346	0.758	1	repeat	Run3	repeat/STIM_003.jpg
2439.301	0.98	1	repeat	Run3	repeat/STIM_003.jpg
2443.346	0.715	1	repeat	Run3	repeat/STIM_003.jpg
2447.984	0.769	1	repeat	Run3	repeat/STIM_003.jpg
2450.77	0.779	1	repeat	Run3	repeat/STIM_003.jpg
2455.039	0.836	1	repeat	Run3	repeat/STIM_004.jpg
2459.016	0.763	1	repeat	Run3	repeat/STIM_004.jpg
2463.638	0.961	1	repeat	Run3	repeat/STIM_004.jpg
2466.861	0.64	1	repeat	Run3	repeat/STIM_004.jpg
2470.176	0.737	1	repeat	Run3	repeat/STIM_004.jpg
2473.645	0.886	1	repeat	Run3	repeat/STIM_005.jpg
2477.346	0.824	1	repeat	Run3	repeat/STIM_005.jpg
2481.063	0.71	1	repeat	Run3	repeat/STIM_005.jpg
2485.16	0.954	1	repeat	Run3	repeat/STIM_005.jpg
2489.854	0.896	1	repeat	Run3	repeat/STIM_005.jpg
2493.383	0.553	1	repeat	Run3	repeat/STIM_006.jpg
2497.747	0.546	1	repeat	Run3	repeat/STIM_006.jpg
2501.779	0.705	1	repeat	Run3	repeat/STIM_006.jpg
2506.204	0.637	1	repeat	Run3	repeat/STIM_006.jpg
2509.068	0.784	1	repeat	Run3	repeat/STIM_006.jpg
2513.809	0.555	1	repeat	Run3	repeat/STIM_007.jpg
2517.137	0.696	1	repeat	Run3	repeat/STIM_007.jpg
2521.782	0.672	1	repeat	Run3	repeat/STIM_007.jpg
2524.56	0.873	1	repeat	Run3	repeat/STIM_007.jpg
2528.244	0.917	1	repeat	Run3	repeat/STIM_007.jpg
2533.156	0.793	1	repeat	Run3	repeat/STIM_008.jpg
2537.778	0.623	1	repeat	Run3	repeat/STIM_008.jpg
2540.536	0.57	1	repeat	Run3	repeat/STIM_008.jpg
2543.572	0.625	1	repeat	Run3	repeat/STIM_008.jpg
2546.648	0.918	1	repeat	Run3	repeat/STIM_008.jpg
2551.037	0.879	1	repeat	Run3	repeat/STIM_009.jpg
2554.203	0.866	1	repeat	Run3	repeat/STIM_009.jpg
2557.568	0.854	1	repeat	Run3	repeat/STIM_009.jpg
2560.524	0.996	1	repeat	Run3	repeat/STIM_009.jpg
2564.552	0.954	1	repeat	Run3	repeat/STIM_009.jpg
2568.91	0.777	1	repeat	Run3	repeat/STIM_010.jpg
2571.793	0.847	1	repeat	Run3	repeat/STIM_010.jpg
2574.927	0.557	1	repeat	Run3	repeat/STIM_010.jpg
2579.47	0.877	1	repeat	Run3	repeat/STIM_010.jpg
2582.364	0.977	1	repeat	Run3	repeat/STIM_010.jpg
2585.387	1.052	1	repeat	Run3	repeat/STIM_011.jpg
2589.97	0.923	1	repeat	Run3	repeat/STIM_011.jpg
2593.908	0.713	1	repeat	Run3	repeat/STIM_011.jpg
2596.962	0.908	1	repeat	Run3	repeat/STIM_011.jpg
2601.738	0.79	1	repeat	Run3	repeat/STIM_011.jpg
2605.612	1.05	1	repeat	Run3	repeat/STIM_012.jpg
2609.396	0.894	1	repeat	Run3	repeat/STIM_012.jpg
2613.071	0.751	1	repeat	Run3	repeat/STIM_012.jpg
2617.11	1.003	1	repeat	Run3	repeat/STIM_012.jpg
2620.613	0.705	1	repeat	Run3	repeat/STIM_012.jpg
2623.719	0.724	1	repeat	Run3	repeat/STIM_013.jpg
2627.108	0.873	1	repeat	Run3	repeat/STIM_013.jpg
2630.337	0.598	1	repeat	Run3	repeat/STIM_013.jpg
2633.267	0.834	1	repeat	Run3	repeat/STIM_013.jpg
2637.115	0.972	1	repeat	Run3	repeat/STIM_013.jpg
2641.156	0.813	1	repeat	Run3	repeat/STIM_014.jpg
2645.748	0.956	1	repeat	Run3	repeat/STIM_014.jpg
2650.5	0.8	1	repeat	Run3	repeat/STIM_014.jpg
2654.954	0.626	1	repeat	Run3	repeat/STIM_014.jpg
2658.162	0.716	1	repeat	Run3	repeat/STIM_014.jpg
2662.839	1.253	1	generate	Run4	generate/STIM_000.jpg
2667.446	2.041	1	generate	Run4	generate/STIM_000.jpg
2672.407	1.706	1	generate	Run4	generate/STIM_000.jpg
2676.655	1.892	1	generate	Run4	generate/STIM_000.jpg
2682.077	2.059	1	generate	Run4	generate/STIM_000.jpg
2687.129	2.15	1	generate	Run4	generate/STIM_001.jpg
2693.26	1.557	0	generate	Run4	generate/STIM_001.jpg
2698.424	2.241	1	generate	Run4	generate/STIM_001.jpg
2703.287	2.071	1	generate	Run4	generate/STIM_001.jpg
2708.389	0.936	1	generate	Run4	generate/STIM_001.jpg
2713.027	1.315	1	generate	Run4	generate/STIM_002.jpg
2718.071	2.237	1	generate	Run4	generate/STIM_002.jpg
2722.364	1.694	1	generate	Run4	generate/STIM_002.jpg
2726.56	1.077	1	generate	Run4	generate/STIM_002.jpg
2730.109	1.186	1	generate	Run4	generate/STIM_002.jpg
2733.733	0.9	1	generate	Run4	generate/STIM_003.jpg
2736.828	1.711	1	generate	Run4	generate/STIM_003.jpg
2742.35	1.408	1	generate	Run4	generate/STIM_003.jpg
2747.054	1.266	1	generate	Run4	generate/STIM_003.jpg
2750.993	2.102	1	generate	Run4	generate/STIM_003.jpg
2755.296	1.238	1	generate	Run4	generate/STIM_004.jpg
2760.42	1.783	1	generate	Run4	generate/STIM_004.jpg
2765.264	1.196	1	generate	Run4	generate/STIM_004.jpg
2770.434	2.076	1	generate	Run4	generate/STIM_004.jpg
2775.933	1.572	1	generate	Run4	generate/STIM_004.jpg
2780.154	1.145	1	generate	Run4	generate/STIM_005.jpg
2785.091	0.934	1	generate	Run4	generate/STIM_005.jpg
2789.548	1.557	1	generate	Run4	generate/STIM_005.jpg
2794.209	1.367	1	generate	Run4	generate/STIM_005.jpg
2798.859	1.018	1	generate	Run4	generate/STIM_005.jpg
2803.19	2.243	1	generate	Run4	generate/STIM_006.jpg
2807.693	1.449	1	generate	Run4	generate/STIM_006.jpg
2812.145	2.073	1	generate	Run4	generate/STIM_006.jpg
2817.254	1.28	1	generate	Run4	generate/STIM_006.jpg
2822.503	0.947	1	generate	Run4	generate/STIM_006.jpg
2826.497	1.953	1	generate	Run4	generate/STIM_007.jpg
2831.991	1.894	1	generate	Run4	generate/STIM_007.jpg
2836.274	1.212	1	generate	Run4	generate/STIM_007.jpg
2839.787	1.93	1	generate	Run4	generate/STIM_007.jpg
2844.211	2.168	1	generate	Run4	generate/STIM_007.jpg
2850.372	1.151	1	generate	Run4	generate/STIM_008.jpg
2855.019	1.084	1	generate	Run4	generate/STIM_008.jpg
2858.75	2.035	1	generate	Run4	generate/STIM_008.jpg
2863.114	1.403	1	generate	Run4	generate/STIM_008.jpg
2866.859	1.349	1	generate	Run4	generate/STIM_008.jpg
2871.722	1.884	1	generate	Run4	generate/STIM_009.jpg
2875.628	2.153	1	generate	Run4	generate/STIM_009.jpg
2879.94	1.416	1	generate	Run4	generate/STIM_009.jpg
2883.778	1.786	1	generate	Run4	generate/STIM_009.jpg
2887.669	1.144	1	generate	Run4	generate/STIM_009.jpg
2892.358	2.024	1	generate	Run4	generate/STIM_010.jpg
2896.42	1.326	1	generate	Run4	generate/STIM_010.jpg
2899.936	1.615	1	generate	Run4	generate/STIM_010.jpg
2905.089	2.049	1	generate	Run4	generate/STIM_010.jpg
2910.039	1.284	1	generate	Run4	generate/STIM_010.jpg
2913.666	1.923	1	generate	Run4	generate/STIM_011.jpg
2918.899	1.496	1	generate	Run4	generate/STIM_011.jpg
2923.484	1.591	1	generate	Run4	generate/STIM_011.jpg
2927.951	1.867	1	generate	Run4	generate/STIM_011.jpg
2932.946	2.231	1	generate	Run4	generate/STIM_011.jpg
2938.597	1.204	1	generate	Run4	generate/STIM_012.jpg
2942.594	0.939	1	generate	Run4	generate/STIM_012.jpg
2946.198	2.2	1	generate	Run4	generate/STIM_012.jpg
2950.441	1.279	1	generate	Run4	generate/STIM_012.jpg
2954.3	1.274	1	generate	Run4	generate/STIM_012.jpg
2958.677	2.137	1	generate	Run4	generate/STIM_013.jpg
2962.999	1.015	1	generate	Run4	generate/STIM_013.jpg
2966.086	1.791	1	generate	Run4	generate/STIM_013.jpg
2971.041	1.314	1	generate	Run4	generate/STIM_013.jpg
2976.09	1.577	1	generate	Run4	generate/STIM_013.jpg
2980.065	1.688	1	generate	Run4	generate/STIM_014.jpg
2984.659	2.018	1	generate	Run4	generate/STIM_014.jpg
2988.847	1.286	1	generate	Run4	generate/STIM_014.jpg
2993.783	2.125	1	generate	Run4	generate/STIM_014.jpg
2999.452	1.53	1	generate	Run4	generate/STIM_014.jpg
3004.126	1.032	1	generate	Run4	generate/STIM_015.jpg
3008.92	1.503	1	generate	Run4	generate/STIM_015.jpg
3013.549	1.63	1	generate	Run4	generate/STIM_015.jpg
3018.318	1.522	1	generate	Run4	generate/STIM_015.jpg
3022.11	2.07	1	generate	Run4	generate/STIM_015.jpg
3027.442	1.834	1	generate	Run4	generate/STIM_016.jpg
3032.89	2.061	1	generate	Run4	generate/STIM_016.jpg
3037.114	1.33	1	generate	Run4	generate/STIM_016.jpg
3040.834	1.134	1	generate	Run4	generate/STIM_016.jpg
3045.337	1.383	1	generate	Run4	generate/STIM_016.jpg
3048.791	2.139	1	generate	Run4	generate/STIM_017.jpg
3054.4	1.271	1	generate	Run4	generate/STIM_017.jpg
3059.51	1.244	1	generate	Run4	generate/STIM_017.jpg
3063.114	0.956	1	generate	Run4	generate/STIM_017.jpg
3066.443	0.973	1	generate	Run4	generate/STIM_017.jpg
3070.33	1.134	1	generate	Run4	generate/STIM_018.jpg
3073.74	1.103	1	generate	Run4	generate/STIM_018.jpg
3076.988	1.054	1	generate	Run4	generate/STIM_018.jpg
3080.151	1.491	1	generate	Run4	generate/STIM_018.jpg
3085.427	1.441	1	generate	Run4	generate/STIM_018.jpg
3090.416	0.924	1	generate	Run4	generate/STIM_019.jpg
3093.562	0.99	1	generate	Run4	generate/STIM_019.jpg
3096.601	1.467	1	generate	Run4	generate/STIM_019.jpg
3101.848	1.976	1	generate	Run4	generate/STIM_019.jpg
3106.858	2.013	1	generate	Run4	generate/STIM_019.jpg
3112.042	1.204	1	generate	Run4	generate/STIM_020.jpg
3116.461	1.521	1	generate	Run4	generate/STIM_020.jpg
3121.186	1.703	1	generate	Run4	generate/STIM_020.jpg
3125.405	1.394	1	generate	Run4	generate/STIM_020.jpg
3129.591	0.9	1	generate	Run4	generate/STIM_020.jpg
3133.827	1.576	1	generate	Run4	generate/STIM_021.jpg
3137.518	1.02	1	generate	Run4	generate/STIM_021.jpg
3141.349	1.24	1	generate	Run4	generate/STIM_021.jpg
3145.537	1.394	1	generate	Run4	generate/STIM_021.jpg
3150.045	2.156	1	generate	Run4	generate/STIM_021.jpg
3155.372	2.24	1	generate	Run4	generate/STIM_022.jpg
3160.559	2.239	1	generate	Run4	generate/STIM_022.jpg
3165.665	1.045	1	generate	Run4	generate/STIM_022.jpg
3169.804	1.424	1	generate	Run4	generate/STIM_022.jpg
3174.088	1.857	1	generate	Run4	generate/STIM_022.jpg
3179.724	2.088	1	generate	Run4	generate/STIM_023.jpg
3184.25	2.068	1	generate	Run4	generate/STIM_023.jpg
3189.232	1.794	1	generate	Run4	generate/STIM_023.jpg
3194.566	1.624	1	generate	Run4	generate/STIM_023.jpg
3199.955	1.086	1	generate	Run4	generate/STIM_023.jpg
3204.589	1.904	1	generate	Run4	generate/STIM_024.jpg
3210.221	0.995	1	generate	Run4	generate/STIM_024.jpg
3214.48	1.262	1	generate	Run4	generate/STIM_024.jpg
3219.348	2.001	1	generate	Run4	generate/STIM_024.jpg
3225.297	2.216	1	generate	Run4	generate/STIM_024.jpg
3231.082	0.946	1	repeat	Run4	repeat/STIM_000.jpg
3235.774	0.902	1	repeat	Run4	repeat/STIM_000.jpg
3238.945	0.88	1	repeat	Run4	repeat/STIM_000.jpg
3242.175	0.581	1	repeat	Run4	repeat/STIM_000.jpg
3245.349	0.564	1	repeat	Run4	repeat/STIM_000.jpg
3248.556	0.622	1	repeat	Run4	repeat/STIM_001.jpg
3252.036	0.58	1	repeat	Run4	repeat/STIM_001.jpg
3254.987	0.565	1	repeat	Run4	repeat/STIM_001.jpg
3257.941	1.021	1	repeat	Run4	repeat/STIM_001.jpg
3262.54	0.909	1	repeat	Run4	repeat/STIM_001.jpg
3267.432	0.552	1	repeat	Run4	repeat/STIM_002.jpg
3271.883	0.786	1	repeat	Run4	repeat/STIM_002.jpg
3274.705	0.682	1	repeat	Run4	repeat/STIM_002.jpg
3278.972	0.914	1	repeat	Run4	repeat/STIM_002.jpg
3282.5	0.546	1	repeat	Run4	repeat/STIM_002.jpg
3285.375	0.852	1	repeat	Run4	repeat/STIM_003.jpg
3289.949	0.904	1	repeat	Run4	repeat/STIM_003.jpg
3293.847	0.594	1	repeat	Run4	repeat/STIM_003.jpg
3297.689	0.629	1	repeat	Run4	repeat/STIM_003.jpg
3300.647	0.76	1	repeat	Run4	repeat/STIM_003.jpg
3304.348	0.563	1	repeat	Run4	repeat/STIM_004.jpg
3307.999	0.923	1	repeat	Run4	repeat/STIM_004.jpg
3311.741	0.618	1	repeat	Run4	repeat/STIM_004.jpg
3315.818	0.586	1	repeat	Run4	repeat/STIM_004.jpg
3319.75	0.92	1	repeat	Run4	repeat/STIM_004.jpg
3323.606	1.015	1	repeat	Run4	repeat/STIM_005.jpg
3327.97	0.645	1	repeat	Run4	repeat/STIM_005.jpg
3330.696	1.009	1	repeat	Run4	repeat/STIM_005.jpg
3334.756	0.832	1	repeat	Run4	repeat/STIM_005.jpg
3338.321	0.748	1	repeat	Run4	repeat/STIM_005.jpg
3342.865	0.611	1	repeat	Run4	repeat/STIM_006.jpg
3346.695	0.558	1	repeat	Run4	repeat/STIM_006.jpg
3350.318	0.859	1	repeat	Run4	repeat/STIM_006.jpg
3353.839	0.643	1	repeat	Run4	repeat/STIM_006.jpg
3356.932	0.782	1	repeat	Run4	repeat/STIM_006.jpg
3361.176	0.884	1	repeat	Run4	repeat/STIM_007.jpg
3364.342	0.776	1	repeat	Run4	repeat/STIM_007.jpg
3368.41	0.578	1	repeat	Run4	repeat/STIM_007.jpg
3371.359	0.539	1	repeat	Run4	repeat/STIM_007.jpg
3375.036	0.841	1	repeat	Run4	repeat/STIM_007.jpg
3378.207	0.661	1	repeat	Run4	repeat/STIM_008.jpg
3381.447	0.802	1	repeat	Run4	repeat/STIM_008.jpg
3385.774	1.065	1	repeat	Run4	repeat/STIM_008.jpg
3390.309	0.769	1	repeat	Run4	repeat/STIM_008.jpg
3394.096	0.71	1	repeat	Run4	repeat/STIM_008.jpg
3397.12	0.559	1	repeat	Run4	repeat/STIM_009.jpg
3400.381	0.914	1	repeat	Run4	repeat/STIM_009.jpg
3403.951	0.953	1	repeat	Run4	repeat/STIM_009.jpg
3408.85	0.704	1	repeat	Run4	repeat/STIM_009.jpg
3413.409	0.735	1	repeat	Run4	repeat/STIM_009.jpg
3416.703	0.734	1	repeat	Run4	repeat/STIM_010.jpg
3420.16	0.654	1	repeat	Run4	repeat/STIM_010.jpg
3423.973	0.99	1	repeat	Run4	repeat/STIM_010.jpg
3428.155	0.86	1	repeat	Run4	repeat/STIM_010.jpg
3432.023	0.722	1	repeat	Run4	repeat/STIM_010.jpg
3435.039	0.992	1	repeat	Run4	repeat/STIM_011.jpg
3439.285	0.898	1	repeat	Run4	repeat/STIM_011.jpg
3443.061	0.749	1	repeat	Run4	repeat/STIM_011.jpg
3446.07	0.668	1	repeat	Run4	repeat/STIM_011.jpg
3450.517	0.784	1	repeat	Run4	repeat/STIM_011.jpg
3454.055	0.694	1	repeat	Run4	repeat/STIM_012.jpg
3457.791	0.754	1	repeat	Run4	repeat/STIM_012.jpg
3461.12	1.019	1	repeat	Run4	repeat/STIM_012.jpg
3464.835	0.947	1	repeat	Run4	repeat/STIM_012.jpg
3468.269	0.923	1	repeat	Run4	repeat/STIM_012.jpg
3472.538	0.862	1	repeat	Run4	repeat/STIM_013.jpg
3476.208	0.658	1	repeat	Run4	repeat/STIM_013.jpg
3480.431	0.827	1	repeat	Run4	repeat/STIM_013.jpg
3484.536	1.069	1	repeat	Run4	repeat/STIM_013.jpg
3488.135	0.916	1	repeat	Run4	repeat/STIM_013.jpg
3491.059	0.864	1	repeat	Run4	repeat/STIM_014.jpg
3495.048	1.038	1	repeat	Run4	repeat/STIM_014.jpg
3499.645	0.902	1	repeat	Run4	repeat/STIM_014.jpg
3502.671	0.601	1	repeat	Run4	repeat/STIM_014.jpg
3505.413	1.049	1	repeat	Run4	repeat/STIM_014.jpg
