onset	duration	accuracy	trial_type	learning_stage	stimulus
0.0	2.852	correct	generate	Run1	generate/STIM_000.jpg
6.061	2.313	correct	generate	Run1	generate/STIM_000.jpg
10.711	2.601	correct	generate	Run1	generate/STIM_000.jpg
16.539	1.112	correct	generate	Run1	generate/STIM_000.jpg
20.801	2.333	incorrect	generate	Run1	generate/STIM_000.jpg
26.912	2.724	incorrect	generate	Run1	generate/STIM_001.jpg
32.951	2.735	incorrect	generate	Run1	generate/STIM_001.jpg
38.541	2.764	correct	generate	Run1	generate/STIM_001.jpg
45.295	2.361	incorrect	generate	Run1	generate/STIM_001.jpg
51.064	1.587	correct	generate	Run1	generate/STIM_001.jpg
56.012	1.935	correct	generate	Run1	generate/STIM_002.jpg
61.511	1.273	correct	generate	Run1	generate/STIM_002.jpg
65.465	2.755	incorrect	generate	Run1	generate/STIM_002.jpg
70.634	1.654	correct	generate	Run1	generate/STIM_002.jpg
75.838	2.305	correct	generate	Run1	generate/STIM_002.jpg
80.483	2.872	correct	generate	Run1	generate/STIM_003.jpg
86.277	2.271	correct	generate	Run1	generate/STIM_003.jpg
92.207	2.762	correct	generate	Run1	generate/STIM_003.jpg
98.174	1.444	correct	generate	Run1	generate/STIM_003.jpg
102.838	2.539	correct	generate	Run1	generate/STIM_003.jpg
108.465	1.629	correct	generate	Run1	generate/STIM_004.jpg
113.233	2.12	correct	generate	Run1	generate/STIM_004.jpg
118.124	2.631	correct	generate	Run1	generate/STIM_004.jpg
123.303	2.728	correct	generate	Run1	generate/STIM_004.jpg
128.77	2.334	correct	generate	Run1	generate/STIM_004.jpg
133.278	3.149	incorrect	generate	Run1	generate/STIM_005.jpg
139.079	2.631	incorrect	generate	Run1	generate/STIM_005.jpg
143.797	1.817	correct	generate	Run1	generate/STIM_005.jpg
149.563	2.302	incorrect	generate	Run1	generate/STIM_005.jpg
154.935	1.521	correct	generate	Run1	generate/STIM_005.jpg
159.844	2.192	correct	generate	Run1	generate/STIM_006.jpg
165.447	2.138	correct	generate	Run1	generate/STIM_006.jpg
171.487	2.767	incorrect	generate	Run1	generate/STIM_006.jpg
176.927	1.805	incorrect	generate	Run1	generate/STIM_006.jpg
181.351	1.698	correct	generate	Run1	generate/STIM_006.jpg
186.78	2.277	correct	generate	Run1	generate/STIM_007.jpg
191.615	2.561	correct	generate	Run1	generate/STIM_007.jpg
197.186	2.172	correct	generate	Run1	generate/STIM_007.jpg
202.934	2.696	correct	generate	Run1	generate/STIM_007.jpg
209.149	2.157	correct	generate	Run1	generate/STIM_007.jpg
214.74	3.181	correct	generate	Run1	generate/STIM_008.jpg
220.942	2.335	correct	generate	Run1	generate/STIM_008.jpg
226.969	2.492	correct	generate	Run1	generate/STIM_008.jpg
233.216	2.486	correct	generate	Run1	generate/STIM_008.jpg
239.086	2.033	correct	generate	Run1	generate/STIM_008.jpg
244.677	3.069	correct	generate	Run1	generate/STIM_009.jpg
250.358	1.247	correct	generate	Run1	generate/STIM_009.jpg
254.13	2.543	correct	generate	Run1	generate/STIM_009.jpg
260.624	1.876	correct	generate	Run1	generate/STIM_009.jpg
265.095	2.19	correct	generate	Run1	generate/STIM_009.jpg
270.171	2.921	correct	generate	Run1	generate/STIM_010.jpg
276.25	2.884	correct	generate	Run1	generate/STIM_010.jpg
281.324	1.181	incorrect	generate	Run1	generate/STIM_010.jpg
286.104	2.438	incorrect	generate	Run1	generate/STIM_010.jpg
292.002	1.247	correct	generate	Run1	generate/STIM_010.jpg
295.749	2.4	correct	generate	Run1	generate/STIM_011.jpg
301.547	2.513	incorrect	generate	Run1	generate/STIM_011.jpg
307.533	2.335	correct	generate	Run1	generate/STIM_011.jpg
313.682	1.31	correct	generate	Run1	generate/STIM_011.jpg
317.531	2.185	correct	generate	Run1	generate/STIM_011.jpg
322.223	1.904	correct	generate	Run1	generate/STIM_012.jpg
326.28	1.962	correct	generate	Run1	generate/STIM_012.jpg
331.718	2.814	correct	generate	Run1	generate/STIM_012.jpg
336.718	2.261	correct	generate	Run1	generate/STIM_012.jpg
341.88	2.557	correct	generate	Run1	generate/STIM_012.jpg
347.896	1.381	correct	generate	Run1	generate/STIM_013.jpg
351.426	2.217	correct	generate	Run1	generate/STIM_013.jpg
356.396	2.12	incorrect	generate	Run1	generate/STIM_013.jpg
361.788	1.334	correct	generate	Run1	generate/STIM_013.jpg
365.383	2.042	correct	generate	Run1	generate/STIM_013.jpg
370.472	2.029	correct	generate	Run1	generate/STIM_014.jpg
376.176	2.56	correct	generate	Run1	generate/STIM_014.jpg
382.689	1.608	correct	generate	Run1	generate/STIM_014.jpg
387.355	2.586	correct	generate	Run1	generate/STIM_014.jpg
392.579	1.947	correct	generate	Run1	generate/STIM_014.jpg
397.955	1.812	incorrect	generate	Run1	generate/STIM_015.jpg
402.312	1.514	incorrect	generate	Run1	generate/STIM_015.jpg
407.576	2.534	correct	generate	Run1	generate/STIM_015.jpg
413.686	1.695	correct	generate	Run1	generate/STIM_015.jpg
417.848	2.25	incorrect	generate	Run1	generate/STIM_015.jpg
422.379	2.411	correct	generate	Run1	generate/STIM_016.jpg
427.402	2.845	correct	generate	Run1	generate/STIM_016.jpg
433.547	1.313	correct	generate	Run1	generate/STIM_016.jpg
438.763	2.549	correct	generate	Run1	generate/STIM_016.jpg
444.004	2.141	correct	generate	Run1	generate/STIM_016.jpg
450.082	2.17	correct	generate	Run1	generate/STIM_017.jpg
454.42	2.476	correct	generate	Run1	generate/STIM_017.jpg
460.407	2.863	correct	generate	Run1	generate/STIM_017.jpg
466.836	2.608	correct	generate	Run1	generate/STIM_017.jpg
472.87	1.733	correct	generate	Run1	generate/STIM_017.jpg
477.083	1.345	correct	generate	Run1	generate/STIM_018.jpg
481.412	1.232	incorrect	generate	Run1	generate/STIM_018.jpg
485.591	2.356	correct	generate	Run1	generate/STIM_018.jpg
491.175	1.274	correct	generate	Run1	generate/STIM_018.jpg
494.614	1.355	correct	generate	Run1	generate/STIM_018.jpg
499.229	2.39	correct	generate	Run1	generate/STIM_019.jpg
505.017	2.253	correct	generate	Run1	generate/STIM_019.jpg
511.049	1.66	correct	generate	Run1	generate/STIM_019.jpg
516.028	2.612	correct	generate	Run1	generate/STIM_019.jpg
521.117	1.262	correct	generate	Run1	generate/STIM_019.jpg
526.119	2.863	correct	generate	Run1	generate/STIM_020.jpg
531.932	2.458	incorrect	generate	Run1	generate/STIM_020.jpg
536.875	2.456	correct	generate	Run1	generate/STIM_020.jpg
542.022	1.702	correct	generate	Run1	generate/STIM_020.jpg
545.932	2.194	incorrect	generate	Run1	generate/STIM_020.jpg
552.074	1.63	correct	generate	Run1	generate/STIM_021.jpg
556.678	1.81	incorrect	generate	Run1	generate/STIM_021.jpg
560.843	1.382	correct	generate	Run1	generate/STIM_021.jpg
565.929	1.493	incorrect	generate	Run1	generate/STIM_021.jpg
569.446	1.98	correct	generate	Run1	generate/STIM_021.jpg
573.814	2.944	correct	generate	Run1	generate/STIM_022.jpg
579.777	1.715	correct	generate	Run1	generate/STIM_022.jpg
583.649	1.748	correct	generate	Run1	generate/STIM_022.jpg
587.78	1.501	correct	generate	Run1	generate/STIM_022.jpg
591.458	2.251	correct	generate	Run1	generate/STIM_022.jpg
596.942	1.96	correct	generate	Run1	generate/STIM_023.jpg
601.554	2.968	correct	generate	Run1	generate/STIM_023.jpg
607.884	1.651	correct	generate	Run1	generate/STIM_023.jpg
612.422	2.481	correct	generate	Run1	generate/STIM_023.jpg
616.915	1.304	correct	generate	Run1	generate/STIM_023.jpg
622.186	1.368	correct	generate	Run1	generate/STIM_024.jpg
625.951	1.913	correct	generate	Run1	generate/STIM_024.jpg
630.151	2.335	incorrect	generate	Run1	generate/STIM_024.jpg
634.588	1.28	correct	generate	Run1	generate/STIM_024.jpg
638.937	1.305	correct	generate	Run1	generate/STIM_024.jpg
642.722	0.678	correct	repeat	Run1	repeat/STIM_000.jpg
646.798	0.907	correct	repeat	Run1	repeat/STIM_000.jpg
651.584	0.64	correct	repeat	Run1	repeat/STIM_000.jpg
656.182	0.893	correct	repeat	Run1	repeat/STIM_000.jpg
659.622	0.786	correct	repeat	Run1	repeat/STIM_000.jpg
662.426	0.871	correct	repeat	Run1	repeat/STIM_001.jpg
665.459	0.756	correct	repeat	Run1	repeat/STIM_001.jpg
669.713	0.937	correct	repeat	Run1	repeat/STIM_001.jpg
673.314	0.584	correct	repeat	Run1	repeat/STIM_001.jpg
676.941	0.928	correct	repeat	Run1	repeat/STIM_001.jpg
681.431	0.876	correct	repeat	Run1	repeat/STIM_002.jpg
685.344	0.537	correct	repeat	Run1	repeat/STIM_002.jpg
689.006	0.889	correct	repeat	Run1	repeat/STIM_002.jpg
693.575	0.648	correct	repeat	Run1	repeat/STIM_002.jpg
696.981	0.834	correct	repeat	Run1	repeat/STIM_002.jpg
699.932	0.637	correct	repeat	Run1	repeat/STIM_003.jpg
704.334	0.844	correct	repeat	Run1	repeat/STIM_003.jpg
707.423	1.026	correct	repeat	Run1	repeat/STIM_003.jpg
711.588	0.768	correct	repeat	Run1	repeat/STIM_003.jpg
715.743	0.937	correct	repeat	Run1	repeat/STIM_003.jpg
719.216	0.809	correct	repeat	Run1	repeat/STIM_004.jpg
722.205	0.875	correct	repeat	Run1	repeat/STIM_004.jpg
725.723	1.005	correct	repeat	Run1	repeat/STIM_004.jpg
728.779	1.009	correct	repeat	Run1	repeat/STIM_004.jpg
732.879	0.942	correct	repeat	Run1	repeat/STIM_004.jpg
736.076	0.786	correct	repeat	Run1	repeat/STIM_005.jpg
739.959	0.991	correct	repeat	Run1	repeat/STIM_005.jpg
743.846	0.881	correct	repeat	Run1	repeat/STIM_005.jpg
746.872	0.922	correct	repeat	Run1	repeat/STIM_005.jpg
751.362	0.546	correct	repeat	Run1	repeat/STIM_005.jpg
754.583	0.741	correct	repeat	Run1	repeat/STIM_006.jpg
759.007	0.719	correct	repeat	Run1	repeat/STIM_006.jpg
762.176	0.976	correct	repeat	Run1	repeat/STIM_006.jpg
765.183	0.811	correct	repeat	Run1	repeat/STIM_006.jpg
768.178	0.977	correct	repeat	Run1	repeat/STIM_006.jpg
771.8	1.048	correct	repeat	Run1	repeat/STIM_007.jpg
776.813	0.956	correct	repeat	Run1	repeat/STIM_007.jpg
781.307	0.575	correct	repeat	Run1	repeat/STIM_007.jpg
784.801	0.88	correct	repeat	Run1	repeat/STIM_007.jpg
789.063	0.646	correct	repeat	Run1	repeat/STIM_007.jpg
792.515	0.617	correct	repeat	Run1	repeat/STIM_008.jpg
796.549	0.893	correct	repeat	Run1	repeat/STIM_008.jpg
799.867	0.881	correct	repeat	Run1	repeat/STIM_008.jpg
804.339	0.567	correct	repeat	Run1	repeat/STIM_008.jpg
807.8	0.811	correct	repeat	Run1	repeat/STIM_008.jpg
812.038	0.617	correct	repeat	Run1	repeat/STIM_009.jpg
814.851	0.8	correct	repeat	Run1	repeat/STIM_009.jpg
819.638	1.051	correct	repeat	Run1	repeat/STIM_009.jpg
824.656	1.056	correct	repeat	Run1	repeat/STIM_009.jpg
829.017	1.028	correct	repeat	Run1	repeat/STIM_009.jpg
832.351	0.742	correct	repeat	Run1	repeat/STIM_010.jpg
835.184	0.676	correct	repeat	Run1	repeat/STIM_010.jpg
838.122	0.786	correct	repeat	Run1	repeat/STIM_010.jpg
841.535	0.97	correct	repeat	Run1	repeat/STIM_010.jpg
845.716	0.848	correct	repeat	Run1	repeat/STIM_010.jpg
848.97	0.823	correct	repeat	Run1	repeat/STIM_011.jpg
851.943	1.007	correct	repeat	Run1	repeat/STIM_011.jpg
856.401	0.723	correct	repeat	Run1	repeat/STIM_011.jpg
859.949	0.957	correct	repeat	Run1	repeat/STIM_011.jpg
864.223	0.902	correct	repeat	Run1	repeat/STIM_011.jpg
867.815	0.543	correct	repeat	Run1	repeat/STIM_012.jpg
870.816	0.658	correct	repeat	Run1	repeat/STIM_012.jpg
874.656	0.802	correct	repeat	Run1	repeat/STIM_012.jpg
879.232	0.739	correct	repeat	Run1	repeat/STIM_012.jpg
883.755	0.766	correct	repeat	Run1	repeat/STIM_012.jpg
887.761	0.752	correct	repeat	Run1	repeat/STIM_013.jpg
891.943	0.704	correct	repeat	Run1	repeat/STIM_013.jpg
896.294	1.0	correct	repeat	Run1	repeat/STIM_013.jpg
900.843	0.953	correct	repeat	Run1	repeat/STIM_013.jpg
905.46	0.636	correct	repeat	Run1	repeat/STIM_013.jpg
909.043	0.698	correct	repeat	Run1	repeat/STIM_014.jpg
912.963	0.562	correct	repeat	Run1	repeat/STIM_014.jpg
917.168	0.869	correct	repeat	Run1	repeat/STIM_014.jpg
921.334	0.855	correct	repeat	Run1	repeat/STIM_014.jpg
925.935	0.907	correct	repeat	Run1	repeat/STIM_014.jpg
928.888	1.3	incorrect	generate	Run2	generate/STIM_000.jpg
932.446	1.99	correct	generate	Run2	generate/STIM_000.jpg
937.825	0.97	correct	generate	Run2	generate/STIM_000.jpg
942.658	2.004	correct	generate	Run2	generate/STIM_000.jpg
947.505	2.028	correct	generate	Run2	generate/STIM_000.jpg
951.94	1.537	correct	generate	Run2	generate/STIM_001.jpg
956.172	1.659	correct	generate	Run2	generate/STIM_001.jpg
960.89	2.003	incorrect	generate	Run2	generate/STIM_001.jpg
966.717	1.43	correct	generate	Run2	generate/STIM_001.jpg
970.741	2.155	correct	generate	Run2	generate/STIM_001.jpg
975.064	1.207	correct	generate	Run2	generate/STIM_002.jpg
978.629	1.528	correct	generate	Run2	generate/STIM_002.jpg
982.454	1.674	correct	generate	Run2	generate/STIM_002.jpg
987.099	2.058	correct	generate	Run2	generate/STIM_002.jpg
993.06	1.251	correct	generate	Run2	generate/STIM_002.jpg
997.164	1.773	correct	generate	Run2	generate/STIM_003.jpg
1001.301	2.515	correct	generate	Run2	generate/STIM_003.jpg
1007.614	1.196	correct	generate	Run2	generate/STIM_003.jpg
1012.525	1.394	correct	generate	Run2	generate/STIM_003.jpg
1016.606	1.523	correct	generate	Run2	generate/STIM_003.jpg
1021.402	1.966	correct	generate	Run2	generate/STIM_004.jpg
1026.836	1.491	correct	generate	Run2	generate/STIM_004.jpg
1031.405	1.799	correct	generate	Run2	generate/STIM_004.jpg
1037.078	1.122	correct	generate	Run2	generate/STIM_004.jpg
1040.972	1.289	correct	generate	Run2	generate/STIM_004.jpg
1044.386	1.259	correct	generate	Run2	generate/STIM_005.jpg
1047.712	1.583	correct	generate	Run2	generate/STIM_005.jpg
1051.301	2.173	correct	generate	Run2	generate/STIM_005.jpg
1057.312	1.608	correct	generate	Run2	generate/STIM_005.jpg
1062.514	1.999	correct	generate	Run2	generate/STIM_005.jpg
1067.857	2.273	correct	generate	Run2	generate/STIM_006.jpg
1073.914	1.176	correct	generate	Run2	generate/STIM_006.jpg
1078.201	1.941	correct	generate	Run2	generate/STIM_006.jpg
1083.856	0.965	correct	generate	Run2	generate/STIM_006.jpg
1087.615	1.382	correct	generate	Run2	generate/STIM_006.jpg
1091.582	2.533	correct	generate	Run2	generate/STIM_007.jpg
1096.487	1.405	correct	generate	Run2	generate/STIM_007.jpg
1101.235	1.455	correct	generate	Run2	generate/STIM_007.jpg
1104.697	1.461	correct	generate	Run2	generate/STIM_007.jpg
1109.561	1.768	correct	generate	Run2	generate/STIM_007.jpg
1113.931	1.539	correct	generate	Run2	generate/STIM_008.jpg
1117.972	1.922	correct	generate	Run2	generate/STIM_008.jpg
1122.659	2.121	correct	generate	Run2	generate/STIM_008.jpg
1126.944	2.086	correct	generate	Run2	generate/STIM_008.jpg
1131.123	1.36	correct	generate	Run2	generate/STIM_008.jpg
1135.966	1.663	correct	generate	Run2	generate/STIM_009.jpg
1140.011	2.086	correct	generate	Run2	generate/STIM_009.jpg
1144.516	2.118	correct	generate	Run2	generate/STIM_009.jpg
1148.769	1.086	correct	generate	Run2	generate/STIM_009.jpg
1152.593	1.595	correct	generate	Run2	generate/STIM_009.jpg
1156.811	1.563	correct	generate	Run2	generate/STIM_010.jpg
1161.42	2.241	correct	generate	Run2	generate/STIM_010.jpg
1166.502	1.55	correct	generate	Run2	generate/STIM_010.jpg
1170.418	2.168	correct	generate	Run2	generate/STIM_010.jpg
1175.976	1.338	correct	generate	Run2	generate/STIM_010.jpg
1179.595	1.658	correct	generate	Run2	generate/STIM_011.jpg
1184.699	1.122	incorrect	generate	Run2	generate/STIM_011.jpg
1188.761	1.173	correct	generate	Run2	generate/STIM_011.jpg
1193.728	1.535	correct	generate	Run2	generate/STIM_011.jpg
1197.8	1.596	correct	generate	Run2	generate/STIM_011.jpg
1202.683	2.348	correct	generate	Run2	generate/STIM_012.jpg
1207.206	1.8	correct	generate	Run2	generate/STIM_012.jpg
1211.174	1.723	correct	generate	Run2	generate/STIM_012.jpg
1216.442	1.544	correct	generate	Run2	generate/STIM_012.jpg
1220.489	1.544	correct	generate	Run2	generate/STIM_012.jpg
1225.615	1.758	correct	generate	Run2	generate/STIM_013.jpg
1229.847	1.519	correct	generate	Run2	generate/STIM_013.jpg
1234.954	1.057	correct	generate	Run2	generate/STIM_013.jpg
1239.562	2.226	correct	generate	Run2	generate/STIM_013.jpg
1243.967	1.477	correct	generate	Run2	generate/STIM_013.jpg
1248.558	2.042	correct	generate	Run2	generate/STIM_014.jpg
1252.822	1.634	correct	generate	Run2	generate/STIM_014.jpg
1258.259	2.038	correct	generate	Run2	generate/STIM_014.jpg
1262.519	2.113	correct	generate	Run2	generate/STIM_014.jpg
1267.66	2.144	incorrect	generate	Run2	generate/STIM_014.jpg
1273.299	1.412	correct	generate	Run2	generate/STIM_015.jpg
1277.289	1.335	correct	generate	Run2	generate/STIM_015.jpg
1282.315	1.239	correct	generate	Run2	generate/STIM_015.jpg
1287.035	1.296	correct	generate	Run2	generate/STIM_015.jpg
1290.499	1.403	correct	generate	Run2	generate/STIM_015.jpg
1295.213	1.858	correct	generate	Run2	generate/STIM_016.jpg
1299.978	1.797	incorrect	generate	Run2	generate/STIM_016.jpg
1304.493	1.467	correct	generate	Run2	generate/STIM_016.jpg
1308.486	2.152	correct	generate	Run2	generate/STIM_016.jpg
1314.372	1.091	correct	generate	Run2	generate/STIM_016.jpg
1318.66	2.222	correct	generate	Run2	generate/STIM_017.jpg
1324.839	2.345	correct	generate	Run2	generate/STIM_017.jpg
1331.137	1.715	correct	generate	Run2	generate/STIM_017.jpg
1335.115	1.695	correct	generate	Run2	generate/STIM_017.jpg
1340.024	1.414	correct	generate	Run2	generate/STIM_017.jpg
1345.331	2.209	correct	generate	Run2	generate/STIM_018.jpg
1351.411	1.521	incorrect	generate	Run2	generate/STIM_018.jpg
1356.502	2.31	correct	generate	Run2	generate/STIM_018.jpg
1362.291	1.593	correct	generate	Run2	generate/STIM_018.jpg
1366.895	1.113	correct	generate	Run2	generate/STIM_018.jpg
1370.323	2.083	correct	generate	Run2	generate/STIM_019.jpg
1376.392	1.457	correct	generate	Run2	generate/STIM_019.jpg
1380.992	1.943	correct	generate	Run2	generate/STIM_019.jpg
1385.035	1.958	correct	generate	Run2	generate/STIM_019.jpg
1390.69	1.115	correct	generate	Run2	generate/STIM_019.jpg
1395.342	1.519	correct	generate	Run2	generate/STIM_020.jpg
1399.786	2.026	correct	generate	Run2	generate/STIM_020.jpg
1405.384	2.309	correct	generate	Run2	generate/STIM_020.jpg
1410.641	1.196	correct	generate	Run2	generate/STIM_020.jpg
1415.779	1.058	correct	generate	Run2	generate/STIM_020.jpg
1419.934	2.399	correct	generate	Run2	generate/STIM_021.jpg
1425.178	2.475	correct	generate	Run2	generate/STIM_021.jpg
1430.539	1.751	incorrect	generate	Run2	generate/STIM_021.jpg
1435.401	1.34	correct	generate	Run2	generate/STIM_021.jpg
1439.709	1.934	correct	generate	Run2	generate/STIM_021.jpg
1443.96	1.828	incorrect	generate	Run2	generate/STIM_022.jpg
1447.894	1.81	correct	generate	Run2	generate/STIM_022.jpg
1452.87	1.422	correct	generate	Run2	generate/STIM_022.jpg
1457.879	1.58	correct	generate	Run2	generate/STIM_022.jpg
1462.72	1.034	correct	generate	Run2	generate/STIM_022.jpg
1467.127	1.439	correct	generate	Run2	generate/STIM_023.jpg
1471.742	1.117	correct	generate	Run2	generate/STIM_023.jpg
1476.406	1.674	correct	generate	Run2	generate/STIM_023.jpg
1481.855	1.839	correct	generate	Run2	generate/STIM_023.jpg
1486.697	1.674	correct	generate	Run2	generate/STIM_023.jpg
1491.81	2.313	correct	generate	Run2	generate/STIM_024.jpg
1498.018	2.384	correct	generate	Run2	generate/STIM_024.jpg
1502.625	2.016	correct	generate	Run2	generate/STIM_024.jpg
1507.975	1.884	correct	generate	Run2	generate/STIM_024.jpg
1513.6	1.953	correct	generate	Run2	generate/STIM_024.jpg
1518.096	0.604	correct	repeat	Run2	repeat/STIM_000.jpg
1522.038	0.746	correct	repeat	Run2	repeat/STIM_000.jpg
1525.051	0.777	correct	repeat	Run2	repeat/STIM_000.jpg
1528.997	0.877	incorrect	repeat	Run2	repeat/STIM_000.jpg
1532.367	0.862	correct	repeat	Run2	repeat/STIM_000.jpg
1536.695	0.934	correct	repeat	Run2	repeat/STIM_001.jpg
1540.89	0.553	correct	repeat	Run2	repeat/STIM_001.jpg
1543.987	0.988	correct	repeat	Run2	repeat/STIM_001.jpg
1547.486	0.92	correct	repeat	Run2	repeat/STIM_001.jpg
1552.255	1.049	correct	repeat	Run2	repeat/STIM_001.jpg
1555.359	1.049	correct	repeat	Run2	repeat/STIM_002.jpg
1559.375	0.923	correct	repeat	Run2	repeat/STIM_002.jpg
1564.176	0.932	correct	repeat	Run2	repeat/STIM_002.jpg
1568.587	0.807	correct	repeat	Run2	repeat/STIM_002.jpg
1572.68	0.782	correct	repeat	Run2	repeat/STIM_002.jpg
1575.672	0.562	correct	repeat	Run2	repeat/STIM_003.jpg
1578.629	1.03	correct	repeat	Run2	repeat/STIM_003.jpg
1581.905	0.763	correct	repeat	Run2	repeat/STIM_003.jpg
1585.784	0.959	correct	repeat	Run2	repeat/STIM_003.jpg
1589.284	0.62	correct	repeat	Run2	repeat/STIM_003.jpg
1592.367	0.737	correct	repeat	Run2	repeat/STIM_004.jpg
1595.252	0.896	correct	repeat	Run2	repeat/STIM_004.jpg
1599.364	0.974	correct	repeat	Run2	repeat/STIM_004.jpg
1604.297	0.744	correct	repeat	Run2	repeat/STIM_004.jpg
1607.299	0.928	correct	repeat	Run2	repeat/STIM_004.jpg
1611.709	0.837	correct	repeat	Run2	repeat/STIM_005.jpg
1615.295	0.941	correct	repeat	Run2	repeat/STIM_005.jpg
1618.527	0.999	correct	repeat	Run2	repeat/STIM_005.jpg
1622.841	0.694	correct	repeat	Run2	repeat/STIM_005.jpg
1627.054	0.877	correct	repeat	Run2	repeat/STIM_005.jpg
1631.447	1.041	correct	repeat	Run2	repeat/STIM_006.jpg
1636.28	0.796	correct	repeat	Run2	repeat/STIM_006.jpg
1639.706	0.738	correct	repeat	Run2	repeat/STIM_006.jpg
1643.999	1.018	correct	repeat	Run2	repeat/STIM_006.jpg
1647.678	0.847	correct	repeat	Run2	repeat/STIM_006.jpg
1651.726	0.574	correct	repeat	Run2	repeat/STIM_007.jpg
1654.829	0.768	incorrect	repeat	Run2	repeat/STIM_007.jpg
1658.569	0.998	correct	repeat	Run2	repeat/STIM_007.jpg
1661.666	0.645	correct	repeat	Run2	repeat/STIM_007.jpg
1664.984	0.827	correct	repeat	Run2	repeat/STIM_007.jpg
1668.254	0.846	correct	repeat	Run2	repeat/STIM_008.jpg
1671.837	0.746	correct	repeat	Run2	repeat/STIM_008.jpg
1674.968	0.631	correct	repeat	Run2	repeat/STIM_008.jpg
1679.369	0.961	correct	repeat	Run2	repeat/STIM_008.jpg
1684.167	0.882	incorrect	repeat	Run2	repeat/STIM_008.jpg
1688.988	0.988	correct	repeat	Run2	repeat/STIM_009.jpg
1692.834	0.799	correct	repeat	Run2	repeat/STIM_009.jpg
1696.837	0.832	correct	repeat	Run2	repeat/STIM_009.jpg
1700.342	0.702	correct	repeat	Run2	repeat/STIM_009.jpg
1704.438	0.848	correct	repeat	Run2	repeat/STIM_009.jpg
1708.968	0.768	correct	repeat	Run2	repeat/STIM_010.jpg
1713.505	0.677	correct	repeat	Run2	repeat/STIM_010.jpg
1717.9	0.986	correct	repeat	Run2	repeat/STIM_010.jpg
1721.95	0.768	correct	repeat	Run2	repeat/STIM_010.jpg
1726.184	0.798	correct	repeat	Run2	repeat/STIM_010.jpg
1730.211	0.546	correct	repeat	Run2	repeat/STIM_011.jpg
1733.84	0.698	correct	repeat	Run2	repeat/STIM_011.jpg
1737.85	0.882	correct	repeat	Run2	repeat/STIM_011.jpg
1741.94	0.994	correct	repeat	Run2	repeat/STIM_011.jpg
1745.872	1.059	correct	repeat	Run2	repeat/STIM_011.jpg
1749.706	0.982	correct	repeat	Run2	repeat/STIM_012.jpg
1752.914	0.714	correct	repeat	Run2	repeat/STIM_012.jpg
1756.71	0.72	correct	repeat	Run2	repeat/STIM_012.jpg
1759.625	0.858	correct	repeat	Run2	repeat/STIM_012.jpg
1762.921	0.545	correct	repeat	Run2	repeat/STIM_012.jpg
1766.411	1.043	correct	repeat	Run2	repeat/STIM_013.jpg
1769.742	1.024	correct	repeat	Run2	repeat/STIM_013.jpg
1774.472	0.638	correct	repeat	Run2	repeat/STIM_013.jpg
1778.033	0.889	correct	repeat	Run2	repeat/STIM_013.jpg
1781.686	0.541	correct	repeat	Run2	repeat/STIM_013.jpg
1786.155	0.68	correct	repeat	Run2	repeat/STIM_014.jpg
1789.131	0.566	correct	repeat	Run2	repeat/STIM_014.jpg
1793.102	0.599	correct	repeat	Run2	repeat/STIM_014.jpg
1796.772	1.049	correct	repeat	Run2	repeat/STIM_014.jpg
1799.89	1.002	correct	repeat	Run2	repeat/STIM_014.jpg
1804.633	1.428	correct	generate	Run3	generate/STIM_000.jpg
1810.055	1.97	correct	generate	Run3	generate/STIM_000.jpg
1814.971	1.737	correct	generate	Run3	generate/STIM_000.jpg
1820.393	1.152	correct	generate	Run3	generate/STIM_000.jpg
1824.203	2.226	correct	generate	Run3	generate/STIM_000.jpg
1830.061	1.402	correct	generate	Run3	generate/STIM_001.jpg
1835.11	1.769	correct	generate	Run3	generate/STIM_001.jpg
1839.037	1.271	correct	generate	Run3	generate/STIM_001.jpg
1842.607	1.228	correct	generate	Run3	generate/STIM_001.jpg
1846.82	1.708	correct	generate	Run3	generate/STIM_001.jpg
1850.62	1.532	correct	generate	Run3	generate/STIM_002.jpg
1854.858	1.811	correct	generate	Run3	generate/STIM_002.jpg
1859.886	1.997	correct	generate	Run3	generate/STIM_002.jpg
1864.554	2.136	correct	generate	Run3	generate/STIM_002.jpg
1869.166	2.208	correct	generate	Run3	generate/STIM_002.jpg
1874.946	2.096	correct	generate	Run3	generate/STIM_003.jpg
1880.44	1.92	correct	generate	Run3	generate/STIM_003.jpg
1886.16	1.001	correct	generate	Run3	generate/STIM_003.jpg
1890.466	1.963	correct	generate	Run3	generate/STIM_003.jpg
1894.83	2.025	correct	generate	Run3	generate/STIM_003.jpg
1899.903	1.635	correct	generate	Run3	generate/STIM_004.jpg
1905.093	1.61	correct	generate	Run3	generate/STIM_004.jpg
1909.231	1.308	correct	generate	Run3	generate/STIM_004.jpg
1913.281	1.363	correct	generate	Run3	generate/STIM_004.jpg
1918.093	1.066	correct	generate	Run3	generate/STIM_004.jpg
1921.827	1.229	correct	generate	Run3	generate/STIM_005.jpg
1926.787	1.304	correct	generate	Run3	generate/STIM_005.jpg
1932.082	1.124	correct	generate	Run3	generate/STIM_005.jpg
1935.807	1.669	correct	generate	Run3	generate/STIM_005.jpg
1940.125	1.341	correct	generate	Run3	generate/STIM_005.jpg
1944.708	2.09	correct	generate	Run3	generate/STIM_006.jpg
1949.644	2.217	correct	generate	Run3	generate/STIM_006.jpg
1954.522	1.428	correct	generate	Run3	generate/STIM_006.jpg
1959.33	1.23	correct	generate	Run3	generate/STIM_006.jpg
1963.231	2.109	correct	generate	Run3	generate/STIM_006.jpg
1967.942	0.992	correct	generate	Run3	generate/STIM_007.jpg
1972.737	1.697	correct	generate	Run3	generate/STIM_007.jpg
1978.309	1.9	correct	generate	Run3	generate/STIM_007.jpg
1982.79	2.054	correct	generate	Run3	generate/STIM_007.jpg
1987.435	0.955	correct	generate	Run3	generate/STIM_007.jpg
1991.602	2.096	correct	generate	Run3	generate/STIM_008.jpg
1996.04	1.022	correct	generate	Run3	generate/STIM_008.jpg
1999.11	2.061	correct	generate	Run3	generate/STIM_008.jpg
2005.159	1.008	correct	generate	Run3	generate/STIM_008.jpg
2010.058	1.865	correct	generate	Run3	generate/STIM_008.jpg
2014.346	1.646	correct	generate	Run3	generate/STIM_009.jpg
2019.029	2.037	correct	generate	Run3	generate/STIM_009.jpg
2024.774	0.96	correct	generate	Run3	generate/STIM_009.jpg
2028.622	2.152	correct	generate	Run3	generate/STIM_009.jpg
2033.887	1.058	incorrect	generate	Run3	generate/STIM_009.jpg
2037.566	1.546	correct	generate	Run3	generate/STIM_010.jpg
2042.138	1.272	correct	generate	Run3	generate/STIM_010.jpg
2045.732	1.992	correct	generate	Run3	generate/STIM_010.jpg
2049.946	1.115	correct	generate	Run3	generate/STIM_010.jpg
2053.315	1.121	correct	generate	Run3	generate/STIM_010.jpg
2057.971	2.107	correct	generate	Run3	generate/STIM_011.jpg
2063.226	1.609	correct	generate	Run3	generate/STIM_011.jpg
2068.145	1.667	correct	generate	Run3	generate/STIM_011.jpg
2072.105	1.651	correct	generate	Run3	generate/STIM_011.jpg
2077.722	1.678	correct	generate	Run3	generate/STIM_011.jpg
2082.528	1.747	correct	generate	Run3	generate/STIM_012.jpg
2087.07	1.823	correct	generate	Run3	generate/STIM_012.jpg
2092.535	1.237	correct	generate	Run3	generate/STIM_012.jpg
2097.694	1.403	correct	generate	Run3	generate/STIM_012.jpg
2101.458	1.902	correct	generate	Run3	generate/STIM_012.jpg
2105.824	1.574	correct	generate	Run3	generate/STIM_013.jpg
2109.468	1.658	correct	generate	Run3	generate/STIM_013.jpg
2113.163	1.041	correct	generate	Run3	generate/STIM_013.jpg
2118.048	1.04	correct	generate	Run3	generate/STIM_013.jpg
2121.162	2.093	correct	generate	Run3	generate/STIM_013.jpg
2127.123	1.991	correct	generate	Run3	generate/STIM_014.jpg
2132.782	1.655	correct	generate	Run3	generate/STIM_014.jpg
2137.208	1.537	correct	generate	Run3	generate/STIM_014.jpg
2142.633	1.705	correct	generate	Run3	generate/STIM_014.jpg
2147.862	0.91	correct	generate	Run3	generate/STIM_014.jpg
2151.771	1.258	correct	generate	Run3	generate/STIM_015.jpg
2155.33	0.903	correct	generate	Run3	generate/STIM_015.jpg
2159.483	1.996	correct	generate	Run3	generate/STIM_015.jpg
2165.362	2.032	correct	generate	Run3	generate/STIM_015.jpg
2171.185	1.488	correct	generate	Run3	generate/STIM_015.jpg
2176.118	2.057	correct	generate	Run3	generate/STIM_016.jpg
2180.636	1.952	correct	generate	Run3	generate/STIM_016.jpg
2184.962	1.586	correct	generate	Run3	generate/STIM_016.jpg
2189.85	0.986	correct	generate	Run3	generate/STIM_016.jpg
2193.906	1.347	correct	generate	Run3	generate/STIM_016.jpg
2198.861	1.603	correct	generate	Run3	generate/STIM_017.jpg
2202.914	1.017	correct	generate	Run3	generate/STIM_017.jpg
2206.374	1.552	correct	generate	Run3	generate/STIM_017.jpg
2210.085	1.158	correct	generate	Run3	generate/STIM_017.jpg
2214.577	2.118	correct	generate	Run3	generate/STIM_017.jpg
2219.578	1.462	correct	generate	Run3	generate/STIM_018.jpg
2224.302	2.154	correct	generate	Run3	generate/STIM_018.jpg
2229.294	2.183	correct	generate	Run3	generate/STIM_018.jpg
2235.051	0.975	correct	generate	Run3	generate/STIM_018.jpg
2238.414	1.209	correct	generate	Run3	generate/STIM_018.jpg
2242.212	2.019	correct	generate	Run3	generate/STIM_019.jpg
2246.909	1.108	correct	generate	Run3	generate/STIM_019.jpg
2251.759	2.225	correct	generate	Run3	generate/STIM_019.jpg
2256.496	2.152	correct	generate	Run3	generate/STIM_019.jpg
2262.494	1.285	correct	generate	Run3	generate/STIM_019.jpg
2267.538	2.106	correct	generate	Run3	generate/STIM_020.jpg
2271.879	1.168	correct	generate	Run3	generate/STIM_020.jpg
2276.794	2.235	correct	generate	Run3	generate/STIM_020.jpg
2281.351	1.686	correct	generate	Run3	generate/STIM_020.jpg
2285.806	1.194	correct	generate	Run3	generate/STIM_020.jpg
2289.788	2.111	correct	generate	Run3	generate/STIM_021.jpg
2295.764	1.708	correct	generate	Run3	generate/STIM_021.jpg
2300.817	2.063	correct	generate	Run3	generate/STIM_021.jpg
2306.511	0.98	correct	generate	Run3	generate/STIM_021.jpg
2310.413	1.07	correct	generate	Run3	generate/STIM_021.jpg
2314.476	2.061	correct	generate	Run3	generate/STIM_022.jpg
2320.419	1.323	correct	generate	Run3	generate/STIM_022.jpg
2324.047	1.439	correct	generate	Run3	generate/STIM_022.jpg
2328.829	1.703	correct	generate	Run3	generate/STIM_022.jpg
2332.811	1.338	correct	generate	Run3	generate/STIM_022.jpg
2336.484	1.506	correct	generate	Run3	generate/STIM_023.jpg
2341.008	1.088	correct	generate	Run3	generate/STIM_023.jpg
2344.118	1.232	correct	generate	Run3	generate/STIM_023.jpg
2348.824	1.514	correct	generate	Run3	generate/STIM_023.jpg
2352.4	1.042	correct	generate	Run3	generate/STIM_023.jpg
2356.598	1.28	correct	generate	Run3	generate/STIM_024.jpg
2361.503	1.308	correct	generate	Run3	generate/STIM_024.jpg
2365.391	2.113	correct	generate	Run3	generate/STIM_024.jpg
2370.717	2.147	correct	generate	Run3	generate/STIM_024.jpg
2375.765	0.902	correct	generate	Run3	generate/STIM_024.jpg
2379.574	0.616	correct	repeat	Run3	repeat/STIM_000.jpg
2383.175	0.711	correct	repeat	Run3	repeat/STIM_000.jpg
2386.921	0.959	correct	repeat	Run3	repeat/STIM_000.jpg
2390.425	0.782	correct	repeat	Run3	repeat/STIM_000.jpg
2394.829	1.067	correct	repeat	Run3	repeat/STIM_000.jpg
2398.589	0.669	correct	repeat	Run3	repeat/STIM_001.jpg
2403.037	0.708	correct	repeat	Run3	repeat/STIM_001.jpg
2405.747	0.664	correct	repeat	Run3	repeat/STIM_001.jpg
2410.232	0.71	correct	repeat	Run3	repeat/STIM_001.jpg
2414.55	0.593	correct	repeat	Run3	repeat/STIM_001.jpg
2417.825	0.628	correct	repeat	Run3	repeat/STIM_002.jpg
2421.919	0.689	incorrect	repeat	Run3	repeat/STIM_002.jpg
2425.593	0.991	correct	repeat	Run3	repeat/STIM_002.jpg
2429.833	0.801	correct	repeat	Run3	repeat/STIM_002.jpg
2433.348	0.616	correct	repeat	Run3	repeat/STIM_002.jpg
2436.346	0.758	correct	repeat	Run3	repeat/STIM_003.jpg
2439.301	0.98	correct	repeat	Run3	repeat/STIM_003.jpg
2443.346	0.715	correct	repeat	Run3	repeat/STIM_003.jpg
2447.984	0.769	correct	repeat	Run3	repeat/STIM_003.jpg
2450.77	0.779	correct	repeat	Run3	repeat/STIM_003.jpg
2455.039	0.836	correct	repeat	Run3	repeat/STIM_004.jpg
2459.016	0.763	correct	repeat	Run3	repeat/STIM_004.jpg
2463.638	0.961	correct	repeat	Run3	repeat/STIM_004.jpg
2466.861	0.64	correct	repeat	Run3	repeat/STIM_004.jpg
2470.176	0.737	correct	repeat	Run3	repeat/STIM_004.jpg
2473.645	0.886	correct	repeat	Run3	repeat/STIM_005.jpg
2477.346	0.824	correct	repeat	Run3	repeat/STIM_005.jpg
2481.063	0.71	correct	repeat	Run3	repeat/STIM_005.jpg
2485.16	0.954	correct	repeat	Run3	repeat/STIM_005.jpg
2489.854	0.896	correct	repeat	Run3	repeat/STIM_005.jpg
2493.383	0.553	correct	repeat	Run3	repeat/STIM_006.jpg
2497.747	0.546	correct	repeat	Run3	repeat/STIM_006.jpg
2501.779	0.705	correct	repeat	Run3	repeat/STIM_006.jpg
2506.204	0.637	correct	repeat	Run3	repeat/STIM_006.jpg
2509.068	0.784	correct	repeat	Run3	repeat/STIM_006.jpg
2513.809	0.555	correct	repeat	Run3	repeat/STIM_007.jpg
2517.137	0.696	correct	repeat	Run3	repeat/STIM_007.jpg
2521.782	0.672	correct	repeat	Run3	repeat/STIM_007.jpg
2524.56	0.873	correct	repeat	Run3	repeat/STIM_007.jpg
2528.244	0.917	correct	repeat	Run3	repeat/STIM_007.jpg
2533.156	0.793	correct	repeat	Run3	repeat/STIM_008.jpg
2537.778	0.623	correct	repeat	Run3	repeat/STIM_008.jpg
2540.536	0.57	correct	repeat	Run3	repeat/STIM_008.jpg
2543.572	0.625	correct	repeat	Run3	repeat/STIM_008.jpg
2546.648	0.918	correct	repeat	Run3	repeat/STIM_008.jpg
2551.037	0.879	correct	repeat	Run3	repeat/STIM_009.jpg
2554.203	0.866	correct	repeat	Run3	repeat/STIM_009.jpg
2557.568	0.854	correct	repeat	Run3	repeat/STIM_009.jpg
2560.524	0.996	correct	repeat	Run3	repeat/STIM_009.jpg
2564.552	0.954	correct	repeat	Run3	repeat/STIM_009.jpg
2568.91	0.777	correct	repeat	Run3	repeat/STIM_010.jpg
2571.793	0.847	correct	repeat	Run3	repeat/STIM_010.jpg
2574.927	0.557	correct	repeat	Run3	repeat/STIM_010.jpg
2579.47	0.877	correct	repeat	Run3	repeat/STIM_010.jpg
2582.364	0.977	correct	repeat	Run3	repeat/STIM_010.jpg
2585.387	1.052	correct	repeat	Run3	repeat/STIM_011.jpg
2589.97	0.923	correct	repeat	Run3	repeat/STIM_011.jpg
2593.908	0.713	correct	repeat	Run3	repeat/STIM_011.jpg
2596.962	0.908	correct	repeat	Run3	repeat/STIM_011.jpg
2601.738	0.79	correct	repeat	Run3	repeat/STIM_011.jpg
2605.612	1.05	correct	repeat	Run3	repeat/STIM_012.jpg
2609.396	0.894	correct	repeat	Run3	repeat/STIM_012.jpg
2613.071	0.751	correct	repeat	Run3	repeat/STIM_012.jpg
2617.11	1.003	correct	repeat	Run3	repeat/STIM_012.jpg
2620.613	0.705	correct	repeat	Run3	repeat/STIM_012.jpg
2623.719	0.724	correct	repeat	Run3	repeat/STIM_013.jpg
2627.108	0.873	correct	repeat	Run3	repeat/STIM_013.jpg
2630.337	0.598	correct	repeat	Run3	repeat/STIM_013.jpg
2633.267	0.834	correct	repeat	Run3	repeat/STIM_013.jpg
2637.115	0.972	correct	repeat	Run3	repeat/STIM_013.jpg
2641.156	0.813	correct	repeat	Run3	repeat/STIM_014.jpg
2645.748	0.956	correct	repeat	Run3	repeat/STIM_014.jpg
2650.5	0.8	correct	repeat	Run3	repeat/STIM_014.jpg
2654.954	0.626	correct	repeat	Run3	repeat/STIM_014.jpg
2658.162	0.716	correct	repeat	Run3	repeat/STIM_014.jpg
2662.839	1.253	correct	generate	Run4	generate/STIM_000.jpg
2667.446	2.041	correct	generate	Run4	generate/STIM_000.jpg
2672.407	1.706	correct	generate	Run4	generate/STIM_000.jpg
2676.655	1.892	correct	generate	Run4	generate/STIM_000.jpg
2682.077	2.059	correct	generate	Run4	generate/STIM_000.jpg
2687.129	2.15	correct	generate	Run4	generate/STIM_001.jpg
2693.26	1.557	incorrect	generate	Run4	generate/STIM_001.jpg
2698.424	2.241	correct	generate	Run4	generate/STIM_001.jpg
2703.287	2.071	correct	generate	Run4	generate/STIM_001.jpg
2708.389	0.936	correct	generate	Run4	generate/STIM_001.jpg
2713.027	1.315	correct	generate	Run4	generate/STIM_002.jpg
2718.071	2.237	correct	generate	Run4	generate/STIM_002.jpg
2722.364	1.694	correct	generate	Run4	generate/STIM_002.jpg
2726.56	1.077	correct	generate	Run4	generate/STIM_002.jpg
2730.109	1.186	correct	generate	Run4	generate/STIM_002.jpg
2733.733	0.9	correct	generate	Run4	generate/STIM_003.jpg
2736.828	1.711	correct	generate	Run4	generate/STIM_003.jpg
2742.35	1.408	correct	generate	Run4	generate/STIM_003.jpg
2747.054	1.266	correct	generate	Run4	generate/STIM_003.jpg
2750.993	2.102	correct	generate	Run4	generate/STIM_003.jpg
2755.296	1.238	correct	generate	Run4	generate/STIM_004.jpg
2760.42	1.783	correct	generate	Run4	generate/STIM_004.jpg
2765.264	1.196	correct	generate	Run4	generate/STIM_004.jpg
2770.434	2.076	correct	generate	Run4	generate/STIM_004.jpg
2775.933	1.572	correct	generate	Run4	generate/STIM_004.jpg
2780.154	1.145	correct	generate	Run4	generate/STIM_005.jpg
2785.091	0.934	correct	generate	Run4	generate/STIM_005.jpg
2789.548	1.557	correct	generate	Run4	generate/STIM_005.jpg
2794.209	1.367	correct	generate	Run4	generate/STIM_005.jpg
2798.859	1.018	correct	generate	Run4	generate/STIM_005.jpg
2803.19	2.243	correct	generate	Run4	generate/STIM_006.jpg
2807.693	1.449	correct	generate	Run4	generate/STIM_006.jpg
2812.145	2.073	correct	generate	Run4	generate/STIM_006.jpg
2817.254	1.28	correct	generate	Run4	generate/STIM_006.jpg
2822.503	0.947	correct	generate	Run4	generate/STIM_006.jpg
2826.497	1.953	correct	generate	Run4	generate/STIM_007.jpg
2831.991	1.894	correct	generate	Run4	generate/STIM_007.jpg
2836.274	1.212	correct	generate	Run4	generate/STIM_007.jpg
2839.787	1.93	correct	generate	Run4	generate/STIM_007.jpg
2844.211	2.168	correct	generate	Run4	generate/STIM_007.jpg
2850.372	1.151	correct	generate	Run4	generate/STIM_008.jpg
2855.019	1.084	correct	generate	Run4	generate/STIM_008.jpg
2858.75	2.035	correct	generate	Run4	generate/STIM_008.jpg
2863.114	1.403	correct	generate	Run4	generate/STIM_008.jpg
2866.859	1.349	correct	generate	Run4	generate/STIM_008.jpg
2871.722	1.884	correct	generate	Run4	generate/STIM_009.jpg
2875.628	2.153	correct	generate	Run4	generate/STIM_009.jpg
2879.94	1.416	correct	generate	Run4	generate/STIM_009.jpg
2883.778	1.786	correct	generate	Run4	generate/STIM_009.jpg
2887.669	1.144	correct	generate	Run4	generate/STIM_009.jpg
2892.358	2.024	correct	generate	Run4	generate/STIM_010.jpg
2896.42	1.326	correct	generate	Run4	generate/STIM_010.jpg
2899.936	1.615	correct	generate	Run4	generate/STIM_010.jpg
2905.089	2.049	correct	generate	Run4	generate/STIM_010.jpg
2910.039	1.284	correct	generate	Run4	generate/STIM_010.jpg
2913.666	1.923	correct	generate	Run4	generate/STIM_011.jpg
2918.899	1.496	correct	generate	Run4	generate/STIM_011.jpg
2923.484	1.591	correct	generate	Run4	generate/STIM_011.jpg
2927.951	1.867	correct	generate	Run4	generate/STIM_011.jpg
2932.946	2.231	correct	generate	Run4	generate/STIM_011.jpg
2938.597	1.204	correct	generate	Run4	generate/STIM_012.jpg
2942.594	0.939	correct	generate	Run4	generate/STIM_012.jpg
2946.198	2.2	correct	generate	Run4	generate/STIM_012.jpg
2950.441	1.279	correct	generate	Run4	generate/STIM_012.jpg
2954.3	1.274	correct	generate	Run4	generate/STIM_012.jpg
2958.677	2.137	correct	generate	Run4	generate/STIM_013.jpg
2962.999	1.015	correct	generate	Run4	generate/STIM_013.jpg
2966.086	1.791	correct	generate	Run4	generate/STIM_013.jpg
2971.041	1.314	correct	generate	Run4	generate/STIM_013.jpg
2976.09	1.577	correct	generate	Run4	generate/STIM_013.jpg
2980.065	1.688	correct	generate	Run4	generate/STIM_014.jpg
2984.659	2.018	correct	generate	Run4	generate/STIM_014.jpg
2988.847	1.286	correct	generate	Run4	generate/STIM_014.jpg
2993.783	2.125	correct	generate	Run4	generate/STIM_014.jpg
2999.452	1.53	correct	generate	Run4	generate/STIM_014.jpg
3004.126	1.032	correct	generate	Run4	generate/STIM_015.jpg
3008.92	1.503	correct	generate	Run4	generate/STIM_015.jpg
3013.549	1.63	correct	generate	Run4	generate/STIM_015.jpg
3018.318	1.522	correct	generate	Run4	generate/STIM_015.jpg
3022.11	2.07	correct	generate	Run4	generate/STIM_015.jpg
3027.442	1.834	correct	generate	Run4	generate/STIM_016.jpg
3032.89	2.061	correct	generate	Run4	generate/STIM_016.jpg
3037.114	1.33	correct	generate	Run4	generate/STIM_016.jpg
3040.834	1.134	correct	generate	Run4	generate/STIM_016.jpg
3045.337	1.383	correct	generate	Run4	generate/STIM_016.jpg
3048.791	2.139	correct	generate	Run4	generate/STIM_017.jpg
3054.4	1.271	correct	generate	Run4	generate/STIM_017.jpg
3059.51	1.244	correct	generate	Run4	generate/STIM_017.jpg
3063.114	0.956	correct	generate	Run4	generate/STIM_017.jpg
3066.443	0.973	correct	generate	Run4	generate/STIM_017.jpg
3070.33	1.134	correct	generate	Run4	generate/STIM_018.jpg
3073.74	1.103	correct	generate	Run4	generate/STIM_018.jpg
3076.988	1.054	correct	generate	Run4	generate/STIM_018.jpg
3080.151	1.491	correct	generate	Run4	generate/STIM_018.jpg
3085.427	1.441	correct	generate	Run4	generate/STIM_018.jpg
3090.416	0.924	correct	generate	Run4	generate/STIM_019.jpg
3093.562	0.99	correct	generate	Run4	generate/STIM_019.jpg
3096.601	1.467	correct	generate	Run4	generate/STIM_019.jpg
3101.848	1.976	correct	generate	Run4	generate/STIM_019.jpg
3106.858	2.013	correct	generate	Run4	generate/STIM_019.jpg
3112.042	1.204	correct	generate	Run4	generate/STIM_020.jpg
3116.461	1.521	correct	generate	Run4	generate/STIM_020.jpg
3121.186	1.703	correct	generate	Run4	generate/STIM_020.jpg
3125.405	1.394	correct	generate	Run4	generate/STIM_020.jpg
3129.591	0.9	correct	generate	Run4	generate/STIM_020.jpg
3133.827	1.576	correct	generate	Run4	generate/STIM_021.jpg
3137.518	1.02	correct	generate	Run4	generate/STIM_021.jpg
3141.349	1.24	correct	generate	Run4	generate/STIM_021.jpg
3145.537	1.394	correct	generate	Run4	generate/STIM_021.jpg
3150.045	2.156	correct	generate	Run4	generate/STIM_021.jpg
3155.372	2.24	correct	generate	Run4	generate/STIM_022.jpg
3160.559	2.239	correct	generate	Run4	generate/STIM_022.jpg
3165.665	1.045	correct	generate	Run4	generate/STIM_022.jpg
3169.804	1.424	correct	generate	Run4	generate/STIM_022.jpg
3174.088	1.857	correct	generate	Run4	generate/STIM_022.jpg
3179.724	2.088	correct	generate	Run4	generate/STIM_023.jpg
3184.25	2.068	correct	generate	Run4	generate/STIM_023.jpg
3189.232	1.794	correct	generate	Run4	generate/STIM_023.jpg
3194.566	1.624	correct	generate	Run4	generate/STIM_023.jpg
3199.955	1.086	correct	generate	Run4	generate/STIM_023.jpg
3204.589	1.904	correct	generate	Run4	generate/STIM_024.jpg
3210.221	0.995	correct	generate	Run4	generate/STIM_024.jpg
3214.48	1.262	correct	generate	Run4	generate/STIM_024.jpg
3219.348	2.001	correct	generate	Run4	generate/STIM_024.jpg
3225.297	2.216	correct	generate	Run4	generate/STIM_024.jpg
3231.082	0.946	correct	repeat	Run4	repeat/STIM_000.jpg
3235.774	0.902	correct	repeat	Run4	repeat/STIM_000.jpg
3238.945	0.88	correct	repeat	Run4	repeat/STIM_000.jpg
3242.175	0.581	correct	repeat	Run4	repeat/STIM_000.jpg
3245.349	0.564	correct	repeat	Run4	repeat/STIM_000.jpg
3248.556	0.622	correct	repeat	Run4	repeat/STIM_001.jpg
3252.036	0.58	correct	repeat	Run4	repeat/STIM_001.jpg
3254.987	0.565	correct	repeat	Run4	repeat/STIM_001.jpg
3257.941	1.021	correct	repeat	Run4	repeat/STIM_001.jpg
3262.54	0.909	correct	repeat	Run4	repeat/STIM_001.jpg
3267.432	0.552	correct	repeat	Run4	repeat/STIM_002.jpg
3271.883	0.786	correct	repeat	Run4	repeat/STIM_002.jpg
3274.705	0.682	correct	repeat	Run4	repeat/STIM_002.jpg
3278.972	0.914	correct	repeat	Run4	repeat/STIM_002.jpg
3282.5	0.546	correct	repeat	Run4	repeat/STIM_002.jpg
3285.375	0.852	correct	repeat	Run4	repeat/STIM_003.jpg
3289.949	0.904	correct	repeat	Run4	repeat/STIM_003.jpg
3293.847	0.594	correct	repeat	Run4	repeat/STIM_003.jpg
3297.689	0.629	correct	repeat	Run4	repeat/STIM_003.jpg
3300.647	0.76	correct	repeat	Run4	repeat/STIM_003.jpg
3304.348	0.563	correct	repeat	Run4	repeat/STIM_004.jpg
3307.999	0.923	correct	repeat	Run4	repeat/STIM_004.jpg
3311.741	0.618	correct	repeat	Run4	repeat/STIM_004.jpg
3315.818	0.586	correct	repeat	Run4	repeat/STIM_004.jpg
3319.75	0.92	correct	repeat	Run4	repeat/STIM_004.jpg
3323.606	1.015	correct	repeat	Run4	repeat/STIM_005.jpg
3327.97	0.645	correct	repeat	Run4	repeat/STIM_005.jpg
3330.696	1.009	correct	repeat	Run4	repeat/STIM_005.jpg
3334.756	0.832	correct	repeat	Run4	repeat/STIM_005.jpg
3338.321	0.748	correct	repeat	Run4	repeat/STIM_005.jpg
3342.865	0.611	correct	repeat	Run4	repeat/STIM_006.jpg
3346.695	0.558	correct	repeat	Run4	repeat/STIM_006.jpg
3350.318	0.859	correct	repeat	Run4	repeat/STIM_006.jpg
3353.839	0.643	correct	repeat	Run4	repeat/STIM_006.jpg
3356.932	0.782	correct	repeat	Run4	repeat/STIM_006.jpg
3361.176	0.884	correct	repeat	Run4	repeat/STIM_007.jpg
3364.342	0.776	correct	repeat	Run4	repeat/STIM_007.jpg
3368.41	0.578	correct	repeat	Run4	repeat/STIM_007.jpg
3371.359	0.539	correct	repeat	Run4	repeat/STIM_007.jpg
3375.036	0.841	correct	repeat	Run4	repeat/STIM_007.jpg
3378.207	0.661	correct	repeat	Run4	repeat/STIM_008.jpg
3381.447	0.802	correct	repeat	Run4	repeat/STIM_008.jpg
3385.774	1.065	correct	repeat	Run4	repeat/STIM_008.jpg
3390.309	0.769	correct	repeat	Run4	repeat/STIM_008.jpg
3394.096	0.71	correct	repeat	Run4	repeat/STIM_008.jpg
3397.12	0.559	correct	repeat	Run4	repeat/STIM_009.jpg
3400.381	0.914	correct	repeat	Run4	repeat/STIM_009.jpg
3403.951	0.953	correct	repeat	Run4	repeat/STIM_009.jpg
3408.85	0.704	correct	repeat	Run4	repeat/STIM_009.jpg
3413.409	0.735	correct	repeat	Run4	repeat/STIM_009.jpg
3416.703	0.734	correct	repeat	Run4	repeat/STIM_010.jpg
3420.16	0.654	correct	repeat	Run4	repeat/STIM_010.jpg
3423.973	0.99	correct	repeat	Run4	repeat/STIM_010.jpg
3428.155	0.86	correct	repeat	Run4	repeat/STIM_010.jpg
3432.023	0.722	correct	repeat	Run4	repeat/STIM_010.jpg
3435.039	0.992	correct	repeat	Run4	repeat/STIM_011.jpg
3439.285	0.898	correct	repeat	Run4	repeat/STIM_011.jpg
3443.061	0.749	correct	repeat	Run4	repeat/STIM_011.jpg
3446.07	0.668	correct	repeat	Run4	repeat/STIM_011.jpg
3450.517	0.784	correct	repeat	Run4	repeat/STIM_011.jpg
3454.055	0.694	correct	repeat	Run4	repeat/STIM_012.jpg
3457.791	0.754	correct	repeat	Run4	repeat/STIM_012.jpg
3461.12	1.019	correct	repeat	Run4	repeat/STIM_012.jpg
3464.835	0.947	correct	repeat	Run4	repeat/STIM_012.jpg
3468.269	0.923	correct	repeat	Run4	repeat/STIM_012.jpg
3472.538	0.862	correct	repeat	Run4	repeat/STIM_013.jpg
3476.208	0.658	correct	repeat	Run4	repeat/STIM_013.jpg
3480.431	0.827	correct	repeat	Run4	repeat/STIM_013.jpg
3484.536	1.069	correct	repeat	Run4	repeat/STIM_013.jpg
3488.135	0.916	correct	repeat	Run4	repeat/STIM_013.jpg
3491.059	0.864	correct	repeat	Run4	repeat/STIM_014.jpg
3495.048	1.038	correct	repeat	Run4	repeat/STIM_014.jpg
3499.645	0.902	correct	repeat	Run4	repeat/STIM_014.jpg
3502.671	0.601	correct	repeat	Run4	repeat/STIM_014.jpg
3505.413	1.049	correct	repeat	Run4	repeat/STIM_014.jpg
