onset	duration	response_time_ms	trial_type	learning_stage	stimulus	response_port
0.0	2.852	2852.0	generate	Run1	generate/STIM_000.jpg	100
6.061	2.313	2312.8	generate	Run1	generate/STIM_000.jpg	99
10.711	2.601	2601.4	generate	Run1	generate/STIM_000.jpg	100
16.539	1.112	1111.5	generate	Run1	generate/STIM_000.jpg	99
20.801	2.333	2332.9	generate	Run1	generate/STIM_000.jpg	99
26.912	2.724	2724.1	generate	Run1	generate/STIM_001.jpg	99
32.951	2.735	2735.0	generate	Run1	generate/STIM_001.jpg	99
38.541	2.764	2764.2	generate	Run1	generate/STIM_001.jpg	100
45.295	2.361	2360.7	generate	Run1	generate/STIM_001.jpg	99
51.064	1.587	1587.4	generate	Run1	generate/STIM_001.jpg	100
56.012	1.935	1934.8	generate	Run1	generate/STIM_002.jpg	100
61.511	1.273	1272.9	generate	Run1	generate/STIM_002.jpg	99
65.465	2.755	2754.6	generate	Run1	generate/STIM_002.jpg	99
70.634	1.654	1653.5	generate	Run1	generate/STIM_002.jpg	99
75.838	2.305	2305.0	generate	Run1	generate/STIM_002.jpg	100
80.483	2.872	2872.5	generate	Run1	generate/STIM_003.jpg	100
86.277	2.271	2270.6	generate	Run1	generate/STIM_003.jpg	100
92.207	2.762	2761.7	generate	Run1	generate/STIM_003.jpg	100
98.174	1.444	1443.9	generate	Run1	generate/STIM_003.jpg	99
102.838	2.539	2539.1	generate	Run1	generate/STIM_003.jpg	100
108.465	1.629	1628.9	generate	Run1	generate/STIM_004.jpg	99
113.233	2.12	2120.0	generate	Run1	generate/STIM_004.jpg	99
118.124	2.631	2630.9	generate	Run1	generate/STIM_004.jpg	99
123.303	2.728	2727.5	generate	Run1	generate/STIM_004.jpg	100
128.77	2.334	2334.2	generate	Run1	generate/STIM_004.jpg	100
133.278	3.149	3148.6	generate	Run1	generate/STIM_005.jpg	100
139.079	2.631	2631.2	generate	Run1	generate/STIM_005.jpg	99
143.797	1.817	1816.6	generate	Run1	generate/STIM_005.jpg	99
149.563	2.302	2301.5	generate	Run1	generate/STIM_005.jpg	99
154.935	1.521	1520.9	generate	Run1	generate/STIM_005.jpg	100
159.844	2.192	2192.1	generate	Run1	generate/STIM_006.jpg	100
165.447	2.138	2138.4	generate	Run1	generate/STIM_006.jpg	99
171.487	2.767	2766.6	generate	Run1	generate/STIM_006.jpg	100
176.927	1.805	1804.8	generate	Run1	generate/STIM_006.jpg	100
181.351	1.698	1698.3	generate	Run1	generate/STIM_006.jpg	99
186.78	2.277	2276.7	generate	Run1	generate/STIM_007.jpg	100
191.615	2.561	2561.1	generate	Run1	generate/STIM_007.jpg	99
197.186	2.172	2171.9	generate	Run1	generate/STIM_007.jpg	100
202.934	2.696	2696.4	generate	Run1	generate/STIM_007.jpg	99
209.149	2.157	2156.6	generate	Run1	generate/STIM_007.jpg	99
214.74	3.181	3180.7	generate	Run1	generate/STIM_008.jpg	99
220.942	2.335	2334.9	generate	Run1	generate/STIM_008.jpg	100
226.969	2.492	2492.2	generate	Run1	generate/STIM_008.jpg	99
233.216	2.486	2486.2	generate	Run1	generate/STIM_008.jpg	100
239.086	2.033	2033.1	generate	Run1	generate/STIM_008.jpg	99
244.677	3.069	3068.6	generate	Run1	generate/STIM_009.jpg	99
250.358	1.247	1247.0	generate	Run1	generate/STIM_009.jpg	99
254.13	2.543	2542.7	generate	Run1	generate/STIM_009.jpg	100
260.624	1.876	1876.3	generate	Run1	generate/STIM_009.jpg	99
265.095	2.19	2190.4	generate	Run1	generate/STIM_009.jpg	99
270.171	2.921	2920.6	generate	Run1	generate/STIM_010.jpg	99
276.25	2.884	2883.5	generate	Run1	generate/STIM_010.jpg	99
281.324	1.181	1180.6	generate	Run1	generate/STIM_010.jpg	100
286.104	2.438	2438.3	generate	Run1	generate/STIM_010.jpg	100
292.002	1.247	1247.1	generate	Run1	generate/STIM_010.jpg	100
295.749	2.4	2399.8	generate	Run1	generate/STIM_011.jpg	100
301.547	2.513	2512.6	generate	Run1	generate/STIM_011.jpg	100
307.533	2.335	2335.4	generate	Run1	generate/STIM_011.jpg	99
313.682	1.31	1309.6	generate	Run1	generate/STIM_011.jpg	100
317.531	2.185	2185.3	generate	Run1	generate/STIM_011.jpg	99
322.223	1.904	1904.2	generate	Run1	generate/STIM_012.jpg	99
326.28	1.962	1961.9	generate	Run1	generate/STIM_012.jpg	100
331.718	2.814	2813.7	generate	Run1	generate/STIM_012.jpg	99
336.718	2.261	2261.0	generate	Run1	generate/STIM_012.jpg	99
341.88	2.557	2556.8	generate	Run1	generate/STIM_012.jpg	100
347.896	1.381	1381.1	generate	Run1	generate/STIM_013.jpg	99
351.426	2.217	2217.1	generate	Run1	generate/STIM_013.jpg	99
356.396	2.12	2119.9	generate	Run1	generate/STIM_013.jpg	99
361.788	1.334	1334.2	generate	Run1	generate/STIM_013.jpg	100
365.383	2.042	2041.6	generate	Run1	generate/STIM_013.jpg	99
370.472	2.029	2028.6	generate	Run1	generate/STIM_014.jpg	99
376.176	2.56	2560.1	generate	Run1	generate/STIM_014.jpg	99
382.689	1.608	1608.2	generate	Run1	generate/STIM_014.jpg	100
387.355	2.586	2585.6	generate	Run1	generate/STIM_014.jpg	100
392.579	1.947	1946.6	generate	Run1	generate/STIM_014.jpg	100
397.955	1.812	1812.4	generate	Run1	generate/STIM_015.jpg	99
402.312	1.514	1514.3	generate	Run1	generate/STIM_015.jpg	100
407.576	2.534	2534.5	generate	Run1	generate/STIM_015.jpg	99
413.686	1.695	1694.6	generate	Run1	generate/STIM_015.jpg	99
417.848	2.25	2249.8	generate	Run1	generate/STIM_015.jpg	100
422.379	2.411	2411.2	generate	Run1	generate/STIM_016.jpg	99
427.402	2.845	2845.2	generate	Run1	generate/STIM_016.jpg	99
433.547	1.313	1312.7	generate	Run1	generate/STIM_016.jpg	100
438.763	2.549	2549.2	generate	Run1	generate/STIM_016.jpg	100
444.004	2.141	2141.1	generate	Run1	generate/STIM_016.jpg	100
450.082	2.17	2170.4	generate	Run1	generate/STIM_017.jpg	100
454.42	2.476	2476.1	generate	Run1	generate/STIM_017.jpg	100
460.407	2.863	2863.3	generate	Run1	generate/STIM_017.jpg	100
466.836	2.608	2608.1	generate	Run1	generate/STIM_017.jpg	99
472.87	1.733	1732.6	generate	Run1	generate/STIM_017.jpg	99
477.083	1.345	1345.1	generate	Run1	generate/STIM_018.jpg	99
481.412	1.232	1231.5	generate	Run1	generate/STIM_018.jpg	99
485.591	2.356	2355.7	generate	Run1	generate/STIM_018.jpg	100
491.175	1.274	1274.0	generate	Run1	generate/STIM_018.jpg	100
494.614	1.355	1354.9	generate	Run1	generate/STIM_018.jpg	99
499.229	2.39	2390.5	generate	Run1	generate/STIM_019.jpg	99
505.017	2.253	2252.7	generate	Run1	generate/STIM_019.jpg	99
511.049	1.66	1660.2	generate	Run1	generate/STIM_019.jpg	100
516.028	2.612	2612.5	generate	Run1	generate/STIM_019.jpg	99
521.117	1.262	1261.6	generate	Run1	generate/STIM_019.jpg	99
526.119	2.863	2863.3	generate	Run1	generate/STIM_020.jpg	100
531.932	2.458	2458.0	generate	Run1	generate/STIM_020.jpg	100
536.875	2.456	2456.2	generate	Run1	generate/STIM_020.jpg	99
542.022	1.702	1701.5	generate	Run1	generate/STIM_020.jpg	100
545.932	2.194	2193.8	generate	Run1	generate/STIM_020.jpg	100
552.074	1.63	1629.9	generate	Run1	generate/STIM_021.jpg	100
556.678	1.81	1810.5	generate	Run1	generate/STIM_021.jpg	99
560.843	1.382	1381.8	generate	Run1	generate/STIM_021.jpg	100
565.929	1.493	1492.6	generate	Run1	generate/STIM_021.jpg	99
569.446	1.98	1980.0	generate	Run1	generate/STIM_021.jpg	100
573.814	2.944	2944.5	generate	Run1	generate/STIM_022.jpg	100
579.777	1.715	1714.7	generate	Run1	generate/STIM_022.jpg	99
583.649	1.748	1748.0	generate	Run1	generate/STIM_022.jpg	99
587.78	1.501	1501.2	generate	Run1	generate/STIM_022.jpg	100
591.458	2.251	2251.2	generate	Run1	generate/STIM_022.jpg	100
596.942	1.96	1959.5	generate	Run1	generate/STIM_023.jpg	99
601.554	2.968	2967.9	generate	Run1	generate/STIM_023.jpg	100
607.884	1.651	1650.8	generate	Run1	generate/STIM_023.jpg	100
612.422	2.481	2480.7	generate	Run1	generate/STIM_023.jpg	99
616.915	1.304	1303.6	generate	Run1	generate/STIM_023.jpg	100
622.186	1.368	1367.9	generate	Run1	generate/STIM_024.jpg	100
625.951	1.913	1912.9	generate	Run1	generate/STIM_024.jpg	100
630.151	2.335	2335.3	generate	Run1	generate/STIM_024.jpg	99
634.588	1.28	1280.0	generate	Run1	generate/STIM_024.jpg	99
638.937	1.305	1304.8	generate	Run1	generate/STIM_024.jpg	100
642.722	0.678	678.0	repeat	Run1	repeat/STIM_000.jpg	99
646.798	0.907	907.3	repeat	Run1	repeat/STIM_000.jpg	99
651.584	0.64	640.2	repeat	Run1	repeat/STIM_000.jpg	100
656.182	0.893	893.0	repeat	Run1	repeat/STIM_000.jpg	100
659.622	0.786	786.1	repeat	Run1	repeat/STIM_000.jpg	99
662.426	0.871	871.0	repeat	Run1	repeat/STIM_001.jpg	100
665.459	0.756	755.5	repeat	Run1	repeat/STIM_001.jpg	100
669.713	0.937	936.9	repeat	Run1	repeat/STIM_001.jpg	99
673.314	0.584	584.4	repeat	Run1	repeat/STIM_001.jpg	100
676.941	0.928	928.0	repeat	Run1	repeat/STIM_001.jpg	100
681.431	0.876	875.6	repeat	Run1	repeat/STIM_002.jpg	99
685.344	0.537	537.0	repeat	Run1	repeat/STIM_002.jpg	99
689.006	0.889	888.7	repeat	Run1	repeat/STIM_002.jpg	100
693.575	0.648	648.0	repeat	Run1	repeat/STIM_002.jpg	99
696.981	0.834	833.8	repeat	Run1	repeat/STIM_002.jpg	99
699.932	0.637	636.8	repeat	Run1	repeat/STIM_003.jpg	100
704.334	0.844	843.9	repeat	Run1	repeat/STIM_003.jpg	100
707.423	1.026	1026.1	repeat	Run1	repeat/STIM_003.jpg	99
711.588	0.768	768.0	repeat	Run1	repeat/STIM_003.jpg	100
715.743	0.937	936.6	repeat	Run1	repeat/STIM_003.jpg	100
719.216	0.809	808.8	repeat	Run1	repeat/STIM_004.jpg	99
722.205	0.875	874.9	repeat	Run1	repeat/STIM_004.jpg	99
725.723	1.005	1004.6	repeat	Run1	repeat/STIM_004.jpg	99
728.779	1.009	1008.6	repeat	Run1	repeat/STIM_004.jpg	99
732.879	0.942	941.9	repeat	Run1	repeat/STIM_004.jpg	100
736.076	0.786	786.3	repeat	Run1	repeat/STIM_005.jpg	99
739.959	0.991	991.3	repeat	Run1	repeat/STIM_005.jpg	100
743.846	0.881	881.0	repeat	Run1	repeat/STIM_005.jpg	99
746.872	0.922	921.8	repeat	Run1	repeat/STIM_005.jpg	99
751.362	0.546	546.1	repeat	Run1	repeat/STIM_005.jpg	100
754.583	0.741	740.9	repeat	Run1	repeat/STIM_006.jpg	99
759.007	0.719	719.0	repeat	Run1	repeat/STIM_006.jpg	100
762.176	0.976	975.8	repeat	Run1	repeat/STIM_006.jpg	99
765.183	0.811	811.3	repeat	Run1	repeat/STIM_006.jpg	99
768.178	0.977	976.7	repeat	Run1	repeat/STIM_006.jpg	99
771.8	1.048	1048.5	repeat	Run1	repeat/STIM_007.jpg	99
776.813	0.956	956.1	repeat	Run1	repeat/STIM_007.jpg	100
781.307	0.575	575.3	repeat	Run1	repeat/STIM_007.jpg	99
784.801	0.88	880.4	repeat	Run1	repeat/STIM_007.jpg	100
789.063	0.646	646.1	repeat	Run1	repeat/STIM_007.jpg	100
792.515	0.617	617.2	repeat	Run1	repeat/STIM_008.jpg	100
796.549	0.893	892.6	repeat	Run1	repeat/STIM_008.jpg	99
799.867	0.881	881.3	repeat	Run1	repeat/STIM_008.jpg	99
804.339	0.567	567.2	repeat	Run1	repeat/STIM_008.jpg	99
807.8	0.811	810.7	repeat	Run1	repeat/STIM_008.jpg	99
812.038	0.617	616.6	repeat	Run1	repeat/STIM_009.jpg	100
814.851	0.8	800.3	repeat	Run1	repeat/STIM_009.jpg	100
819.638	1.051	1050.7	repeat	Run1	repeat/STIM_009.jpg	99
824.656	1.056	1055.8	repeat	Run1	repeat/STIM_009.jpg	99
829.017	1.028	1027.5	repeat	Run1	repeat/STIM_009.jpg	99
832.351	0.742	742.3	repeat	Run1	repeat/STIM_010.jpg	100
835.184	0.676	675.5	repeat	Run1	repeat/STIM_010.jpg	99
838.122	0.786	785.8	repeat	Run1	repeat/STIM_010.jpg	99
841.535	0.97	970.2	repeat	Run1	repeat/STIM_010.jpg	99
845.716	0.848	847.7	repeat	Run1	repeat/STIM_010.jpg	99
848.97	0.823	822.7	repeat	Run1	repeat/STIM_011.jpg	99
851.943	1.007	1006.7	repeat	Run1	repeat/STIM_011.jpg	100
856.401	0.723	723.2	repeat	Run1	repeat/STIM_011.jpg	99
859.949	0.957	956.9	repeat	Run1	repeat/STIM_011.jpg	100
864.223	0.902	902.5	repeat	Run1	repeat/STIM_011.jpg	100
867.815	0.543	542.8	repeat	Run1	repeat/STIM_012.jpg	100
870.816	0.658	657.6	repeat	Run1	repeat/STIM_012.jpg	100
874.656	0.802	802.0	repeat	Run1	repeat/STIM_012.jpg	99
879.232	0.739	739.3	repeat	Run1	repeat/STIM_012.jpg	100
883.755	0.766	766.5	repeat	Run1	repeat/STIM_012.jpg	100
887.761	0.752	752.1	repeat	Run1	repeat/STIM_013.jpg	99
891.943	0.704	703.9	repeat	Run1	repeat/STIM_013.jpg	99
896.294	1.0	999.6	repeat	Run1	repeat/STIM_013.jpg	99
900.843	0.953	953.0	repeat	Run1	repeat/STIM_013.jpg	100
905.46	0.636	635.8	repeat	Run1	repeat/STIM_013.jpg	100
909.043	0.698	697.6	repeat	Run1	repeat/STIM_014.jpg	100
912.963	0.562	561.6	repeat	Run1	repeat/STIM_014.jpg	99
917.168	0.869	869.1	repeat	Run1	repeat/STIM_014.jpg	99
921.334	0.855	855.0	repeat	Run1	repeat/STIM_014.jpg	100
925.935	0.907	907.3	repeat	Run1	repeat/STIM_014.jpg	100
928.888	1.3	1299.8	generate	Run2	generate/STIM_000.jpg	99
932.446	1.99	1990.0	generate	Run2	generate/STIM_000.jpg	99
937.825	0.97	969.9	generate	Run2	generate/STIM_000.jpg	100
942.658	2.004	2003.7	generate	Run2	generate/STIM_000.jpg	100
947.505	2.028	2027.6	generate	Run2	generate/STIM_000.jpg	99
951.94	1.537	1537.0	generate	Run2	generate/STIM_001.jpg	99
956.172	1.659	1658.8	generate	Run2	generate/STIM_001.jpg	99
960.89	2.003	2003.2	generate	Run2	generate/STIM_001.jpg	100
966.717	1.43	1429.9	generate	Run2	generate/STIM_001.jpg	99
970.741	2.155	2155.4	generate	Run2	generate/STIM_001.jpg	100
975.064	1.207	1207.2	generate	Run2	generate/STIM_002.jpg	99
978.629	1.528	1528.1	generate	Run2	generate/STIM_002.jpg	99
982.454	1.674	1674.1	generate	Run2	generate/STIM_002.jpg	100
987.099	2.058	2058.5	generate	Run2	generate/STIM_002.jpg	99
993.06	1.251	1251.4	generate	Run2	generate/STIM_002.jpg	100
997.164	1.773	1772.7	generate	Run2	generate/STIM_003.jpg	100
1001.301	2.515	2514.9	generate	Run2	generate/STIM_003.jpg	99
1007.614	1.196	1196.2	generate	Run2	generate/STIM_003.jpg	99
1012.525	1.394	1393.5	generate	Run2	generate/STIM_003.jpg	100
1016.606	1.523	1522.6	generate	Run2	generate/STIM_003.jpg	100
1021.402	1.966	1966.2	generate	Run2	generate/STIM_004.jpg	99
1026.836	1.491	1490.7	generate	Run2	generate/STIM_004.jpg	100
1031.405	1.799	1798.9	generate	Run2	generate/STIM_004.jpg	99
1037.078	1.122	1122.4	generate	Run2	generate/STIM_004.jpg	99
1040.972	1.289	1288.8	generate	Run2	generate/STIM_004.jpg	100
1044.386	1.259	1259.0	generate	Run2	generate/STIM_005.jpg	100
1047.712	1.583	1582.6	generate	Run2	generate/STIM_005.jpg	99
1051.301	2.173	2172.7	generate	Run2	generate/STIM_005.jpg	99
1057.312	1.608	1608.2	generate	Run2	generate/STIM_005.jpg	99
1062.514	1.999	1998.8	generate	Run2	generate/STIM_005.jpg	99
1067.857	2.273	2273.1	generate	Run2	generate/STIM_006.jpg	99
1073.914	1.176	1176.4	generate	Run2	generate/STIM_006.jpg	100
1078.201	1.941	1941.0	generate	Run2	generate/STIM_006.jpg	100
1083.856	0.965	964.6	generate	Run2	generate/STIM_006.jpg	99
1087.615	1.382	1382.0	generate	Run2	generate/STIM_006.jpg	100
1091.582	2.533	2533.1	generate	Run2	generate/STIM_007.jpg	100
1096.487	1.405	1404.9	generate	Run2	generate/STIM_007.jpg	99
1101.235	1.455	1455.3	generate	Run2	generate/STIM_007.jpg	99
1104.697	1.461	1461.0	generate	Run2	generate/STIM_007.jpg	99
1109.561	1.768	1768.5	generate	Run2	generate/STIM_007.jpg	100
1113.931	1.539	1538.8	generate	Run2	generate/STIM_008.jpg	100
1117.972	1.922	1922.5	generate	Run2	generate/STIM_008.jpg	99
1122.659	2.121	2121.2	generate	Run2	generate/STIM_008.jpg	100
1126.944	2.086	2086.3	generate	Run2	generate/STIM_008.jpg	99
1131.123	1.36	1360.4	generate	Run2	generate/STIM_008.jpg	100
1135.966	1.663	1663.3	generate	Run2	generate/STIM_009.jpg	100
1140.011	2.086	2085.7	generate	Run2	generate/STIM_009.jpg	100
1144.516	2.118	2118.5	generate	Run2	generate/STIM_009.jpg	100
1148.769	1.086	1086.4	generate	Run2	generate/STIM_009.jpg	99
1152.593	1.595	1594.8	generate	Run2	generate/STIM_009.jpg	99
1156.811	1.563	1562.7	generate	Run2	generate/STIM_010.jpg	100
1161.42	2.241	2241.0	generate	Run2	generate/STIM_010.jpg	99
1166.502	1.55	1549.7	generate	Run2	generate/STIM_010.jpg	100
1170.418	2.168	2167.5	generate	Run2	generate/STIM_010.jpg	99
1175.976	1.338	1338.3	generate	Run2	generate/STIM_010.jpg	100
1179.595	1.658	1657.7	generate	Run2	generate/STIM_011.jpg	99
1184.699	1.122	1121.9	generate	Run2	generate/STIM_011.jpg	100
1188.761	1.173	1173.0	generate	Run2	generate/STIM_011.jpg	99
1193.728	1.535	1534.8	generate	Run2	generate/STIM_011.jpg	99
1197.8	1.596	1595.7	generate	Run2	generate/STIM_011.jpg	99
1202.683	2.348	2348.3	generate	Run2	generate/STIM_012.jpg	100
1207.206	1.8	1799.6	generate	Run2	generate/STIM_012.jpg	99
1211.174	1.723	1723.0	generate	Run2	generate/STIM_012.jpg	99
1216.442	1.544	1544.5	generate	Run2	generate/STIM_012.jpg	99
1220.489	1.544	1543.9	generate	Run2	generate/STIM_012.jpg	99
1225.615	1.758	1758.1	generate	Run2	generate/STIM_013.jpg	99
1229.847	1.519	1519.1	generate	Run2	generate/STIM_013.jpg	99
1234.954	1.057	1056.8	generate	Run2	generate/STIM_013.jpg	100
1239.562	2.226	2225.6	generate	Run2	generate/STIM_013.jpg	100
1243.967	1.477	1476.8	generate	Run2	generate/STIM_013.jpg	99
1248.558	2.042	2041.6	generate	Run2	generate/STIM_014.jpg	99
1252.822	1.634	1634.0	generate	Run2	generate/STIM_014.jpg	100
1258.259	2.038	2038.4	generate	Run2	generate/STIM_014.jpg	99
1262.519	2.113	2113.1	generate	Run2	generate/STIM_014.jpg	100
1267.66	2.144	2143.9	generate	Run2	generate/STIM_014.jpg	100
1273.299	1.412	1412.0	generate	Run2	generate/STIM_015.jpg	99
1277.289	1.335	1334.9	generate	Run2	generate/STIM_015.jpg	100
1282.315	1.239	1238.9	generate	Run2	generate/STIM_015.jpg	100
1287.035	1.296	1296.5	generate	Run2	generate/STIM_015.jpg	99
1290.499	1.403	1403.2	generate	Run2	generate/STIM_015.jpg	99
1295.213	1.858	1858.3	generate	Run2	generate/STIM_016.jpg	99
1299.978	1.797	1796.6	generate	Run2	generate/STIM_016.jpg	100
1304.493	1.467	1467.3	generate	Run2	generate/STIM_016.jpg	100
1308.486	2.152	2152.2	generate	Run2	generate/STIM_016.jpg	100
1314.372	1.091	1091.2	generate	Run2	generate/STIM_016.jpg	99
1318.66	2.222	2222.2	generate	Run2	generate/STIM_017.jpg	100
1324.839	2.345	2345.2	generate	Run2	generate/STIM_017.jpg	100
1331.137	1.715	1715.1	generate	Run2	generate/STIM_017.jpg	99
1335.115	1.695	1695.0	generate	Run2	generate/STIM_017.jpg	100
1340.024	1.414	1414.2	generate	Run2	generate/STIM_017.jpg	99
1345.331	2.209	2209.0	generate	Run2	generate/STIM_018.jpg	99
1351.411	1.521	1521.2	generate	Run2	generate/STIM_018.jpg	99
1356.502	2.31	2309.7	generate	Run2	generate/STIM_018.jpg	100
1362.291	1.593	1592.8	generate	Run2	generate/STIM_018.jpg	99
1366.895	1.113	1113.4	generate	Run2	generate/STIM_018.jpg	99
1370.323	2.083	2082.8	generate	Run2	generate/STIM_019.jpg	99
1376.392	1.457	1456.8	generate	Run2	generate/STIM_019.jpg	99
1380.992	1.943	1943.1	generate	Run2	generate/STIM_019.jpg	99
1385.035	1.958	1958.3	generate	Run2	generate/STIM_019.jpg	99
1390.69	1.115	1115.4	generate	Run2	generate/STIM_019.jpg	99
1395.342	1.519	1518.8	generate	Run2	generate/STIM_020.jpg	99
1399.786	2.026	2025.6	generate	Run2	generate/STIM_020.jpg	100
1405.384	2.309	2308.9	generate	Run2	generate/STIM_020.jpg	99
1410.641	1.196	1195.8	generate	Run2	generate/STIM_020.jpg	100
1415.779	1.058	1058.0	generate	Run2	generate/STIM_020.jpg	99
1419.934	2.399	2399.4	generate	Run2	generate/STIM_021.jpg	100
1425.178	2.475	2475.3	generate	Run2	generate/STIM_021.jpg	99
1430.539	1.751	1751.0	generate	Run2	generate/STIM_021.jpg	99
1435.401	1.34	1339.8	generate	Run2	generate/STIM_021.jpg	100
1439.709	1.934	1934.0	generate	Run2	generate/STIM_021.jpg	100
1443.96	1.828	1828.3	generate	Run2	generate/STIM_022.jpg	99
1447.894	1.81	1809.5	generate	Run2	generate/STIM_022.jpg	99
1452.87	1.422	1422.1	generate	Run2	generate/STIM_022.jpg	99
1457.879	1.58	1579.8	generate	Run2	generate/STIM_022.jpg	100
1462.72	1.034	1034.4	generate	Run2	generate/STIM_022.jpg	99
1467.127	1.439	1438.8	generate	Run2	generate/STIM_023.jpg	99
1471.742	1.117	1116.6	generate	Run2	generate/STIM_023.jpg	99
1476.406	1.674	1674.4	generate	Run2	generate/STIM_023.jpg	100
1481.855	1.839	1838.8	generate	Run2	generate/STIM_023.jpg	99
1486.697	1.674	1674.2	generate	Run2	generate/STIM_023.jpg	99
1491.81	2.313	2313.0	generate	Run2	generate/STIM_024.jpg	99
1498.018	2.384	2384.5	generate	Run2	generate/STIM_024.jpg	99
1502.625	2.016	2015.6	generate	Run2	generate/STIM_024.jpg	100
1507.975	1.884	1884.1	generate	Run2	generate/STIM_024.jpg	99
1513.6	1.953	1952.6	generate	Run2	generate/STIM_024.jpg	99
1518.096	0.604	604.4	repeat	Run2	repeat/STIM_000.jpg	100
1522.038	0.746	745.8	repeat	Run2	repeat/STIM_000.jpg	99
1525.051	0.777	776.7	repeat	Run2	repeat/STIM_000.jpg	100
1528.997	0.877	877.2	repeat	Run2	repeat/STIM_000.jpg	99
1532.367	0.862	862.1	repeat	Run2	repeat/STIM_000.jpg	99
1536.695	0.934	934.3	repeat	Run2	repeat/STIM_001.jpg	100
1540.89	0.553	552.9	repeat	Run2	repeat/STIM_001.jpg	100
1543.987	0.988	987.9	repeat	Run2	repeat/STIM_001.jpg	99
1547.486	0.92	919.9	repeat	Run2	repeat/STIM_001.jpg	99
1552.255	1.049	1049.4	repeat	Run2	repeat/STIM_001.jpg	100
1555.359	1.049	1049.4	repeat	Run2	repeat/STIM_002.jpg	100
1559.375	0.923	923.0	repeat	Run2	repeat/STIM_002.jpg	100
1564.176	0.932	932.1	repeat	Run2	repeat/STIM_002.jpg	100
1568.587	0.807	806.7	repeat	Run2	repeat/STIM_002.jpg	100
1572.68	0.782	782.5	repeat	Run2	repeat/STIM_002.jpg	99
1575.672	0.562	562.0	repeat	Run2	repeat/STIM_003.jpg	99
1578.629	1.03	1030.2	repeat	Run2	repeat/STIM_003.jpg	100
1581.905	0.763	762.8	repeat	Run2	repeat/STIM_003.jpg	100
1585.784	0.959	959.2	repeat	Run2	repeat/STIM_003.jpg	100
1589.284	0.62	620.0	repeat	Run2	repeat/STIM_003.jpg	100
1592.367	0.737	737.4	repeat	Run2	repeat/STIM_004.jpg	99
1595.252	0.896	895.6	repeat	Run2	repeat/STIM_004.jpg	100
1599.364	0.974	974.0	repeat	Run2	repeat/STIM_004.jpg	99
1604.297	0.744	744.1	repeat	Run2	repeat/STIM_004.jpg	100
1607.299	0.928	928.1	repeat	Run2	repeat/STIM_004.jpg	99
1611.709	0.837	837.2	repeat	Run2	repeat/STIM_005.jpg	100
1615.295	0.941	940.6	repeat	Run2	repeat/STIM_005.jpg	99
1618.527	0.999	999.4	repeat	Run2	repeat/STIM_005.jpg	100
1622.841	0.694	693.5	repeat	Run2	repeat/STIM_005.jpg	99
1627.054	0.877	877.2	repeat	Run2	repeat/STIM_005.jpg	100
1631.447	1.041	1041.2	repeat	Run2	repeat/STIM_006.jpg	99
1636.28	0.796	796.4	repeat	Run2	repeat/STIM_006.jpg	100
1639.706	0.738	738.4	repeat	Run2	repeat/STIM_006.jpg	99
1643.999	1.018	1018.2	repeat	Run2	repeat/STIM_006.jpg	100
1647.678	0.847	847.4	repeat	Run2	repeat/STIM_006.jpg	100
1651.726	0.574	573.8	repeat	Run2	repeat/STIM_007.jpg	99
1654.829	0.768	767.5	repeat	Run2	repeat/STIM_007.jpg	100
1658.569	0.998	997.7	repeat	Run2	repeat/STIM_007.jpg	99
1661.666	0.645	645.4	repeat	Run2	repeat/STIM_007.jpg	99
1664.984	0.827	827.3	repeat	Run2	repeat/STIM_007.jpg	100
1668.254	0.846	846.2	repeat	Run2	repeat/STIM_008.jpg	100
1671.837	0.746	745.7	repeat	Run2	repeat/STIM_008.jpg	100
1674.968	0.631	630.8	repeat	Run2	repeat/STIM_008.jpg	100
1679.369	0.961	960.8	repeat	Run2	repeat/STIM_008.jpg	99
1684.167	0.882	882.5	repeat	Run2	repeat/STIM_008.jpg	100
1688.988	0.988	988.0	repeat	Run2	repeat/STIM_009.jpg	100
1692.834	0.799	798.7	repeat	Run2	repeat/STIM_009.jpg	99
1696.837	0.832	831.9	repeat	Run2	repeat/STIM_009.jpg	100
1700.342	0.702	701.9	repeat	Run2	repeat/STIM_009.jpg	100
1704.438	0.848	848.3	repeat	Run2	repeat/STIM_009.jpg	99
1708.968	0.768	767.6	repeat	Run2	repeat/STIM_010.jpg	100
1713.505	0.677	677.0	repeat	Run2	repeat/STIM_010.jpg	99
1717.9	0.986	985.5	repeat	Run2	repeat/STIM_010.jpg	99
1721.95	0.768	767.6	repeat	Run2	repeat/STIM_010.jpg	99
1726.184	0.798	797.6	repeat	Run2	repeat/STIM_010.jpg	100
1730.211	0.546	546.3	repeat	Run2	repeat/STIM_011.jpg	100
1733.84	0.698	698.0	repeat	Run2	repeat/STIM_011.jpg	100
1737.85	0.882	881.6	repeat	Run2	repeat/STIM_011.jpg	99
1741.94	0.994	993.8	repeat	Run2	repeat/STIM_011.jpg	100
1745.872	1.059	1058.8	repeat	Run2	repeat/STIM_011.jpg	100
1749.706	0.982	982.4	repeat	Run2	repeat/STIM_012.jpg	100
1752.914	0.714	714.5	repeat	Run2	repeat/STIM_012.jpg	99
1756.71	0.72	719.7	repeat	Run2	repeat/STIM_012.jpg	99
1759.625	0.858	857.5	repeat	Run2	repeat/STIM_012.jpg	99
1762.921	0.545	545.4	repeat	Run2	repeat/STIM_012.jpg	99
1766.411	1.043	1043.3	repeat	Run2	repeat/STIM_013.jpg	99
1769.742	1.024	1024.4	repeat	Run2	repeat/STIM_013.jpg	100
1774.472	0.638	637.6	repeat	Run2	repeat/STIM_013.jpg	100
1778.033	0.889	888.7	repeat	Run2	repeat/STIM_013.jpg	99
1781.686	0.541	540.8	repeat	Run2	repeat/STIM_013.jpg	100
1786.155	0.68	680.2	repeat	Run2	repeat/STIM_014.jpg	99
1789.131	0.566	566.5	repeat	Run2	repeat/STIM_014.jpg	100
1793.102	0.599	598.8	repeat	Run2	repeat/STIM_014.jpg	100
1796.772	1.049	1049.1	repeat	Run2	repeat/STIM_014.jpg	100
1799.89	1.002	1002.1	repeat	Run2	repeat/STIM_014.jpg	100
1804.633	1.428	1427.7	generate	Run3	generate/STIM_000.jpg	99
1810.055	1.97	1970.2	generate	Run3	generate/STIM_000.jpg	100
1814.971	1.737	1737.3	generate	Run3	generate/STIM_000.jpg	100
1820.393	1.152	1151.8	generate	Run3	generate/STIM_000.jpg	100
1824.203	2.226	2226.3	generate	Run3	generate/STIM_000.jpg	99
1830.061	1.402	1402.4	generate	Run3	generate/STIM_001.jpg	99
1835.11	1.769	1769.1	generate	Run3	generate/STIM_001.jpg	99
1839.037	1.271	1271.4	generate	Run3	generate/STIM_001.jpg	99
1842.607	1.228	1228.2	generate	Run3	generate/STIM_001.jpg	100
1846.82	1.708	1707.6	generate	Run3	generate/STIM_001.jpg	100
1850.62	1.532	1531.8	generate	Run3	generate/STIM_002.jpg	99
1854.858	1.811	1810.9	generate	Run3	generate/STIM_002.jpg	99
1859.886	1.997	1997.4	generate	Run3	generate/STIM_002.jpg	100
1864.554	2.136	2136.0	generate	Run3	generate/STIM_002.jpg	100
1869.166	2.208	2208.2	generate	Run3	generate/STIM_002.jpg	99
1874.946	2.096	2096.5	generate	Run3	generate/STIM_003.jpg	99
1880.44	1.92	1920.5	generate	Run3	generate/STIM_003.jpg	99
1886.16	1.001	1001.2	generate	Run3	generate/STIM_003.jpg	99
1890.466	1.963	1963.3	generate	Run3	generate/STIM_003.jpg	99
1894.83	2.025	2025.4	generate	Run3	generate/STIM_003.jpg	99
1899.903	1.635	1635.4	generate	Run3	generate/STIM_004.jpg	100
1905.093	1.61	1609.8	generate	Run3	generate/STIM_004.jpg	99
1909.231	1.308	1308.1	generate	Run3	generate/STIM_004.jpg	100
1913.281	1.363	1362.8	generate	Run3	generate/STIM_004.jpg	100
1918.093	1.066	1065.7	generate	Run3	generate/STIM_004.jpg	100
1921.827	1.229	1229.0	generate	Run3	generate/STIM_005.jpg	100
1926.787	1.304	1304.1	generate	Run3	generate/STIM_005.jpg	100
1932.082	1.124	1123.7	generate	Run3	generate/STIM_005.jpg	100
1935.807	1.669	1669.0	generate	Run3	generate/STIM_005.jpg	99
1940.125	1.341	1341.0	generate	Run3	generate/STIM_005.jpg	99
1944.708	2.09	2090.3	generate	Run3	generate/STIM_006.jpg	100
1949.644	2.217	2217.3	generate	Run3	generate/STIM_006.jpg	99
1954.522	1.428	1427.8	generate	Run3	generate/STIM_006.jpg	100
1959.33	1.23	1229.9	generate	Run3	generate/STIM_006.jpg	99
1963.231	2.109	2108.7	generate	Run3	generate/STIM_006.jpg	100
1967.942	0.992	992.1	generate	Run3	generate/STIM_007.jpg	99
1972.737	1.697	1697.0	generate	Run3	generate/STIM_007.jpg	100
1978.309	1.9	1899.5	generate	Run3	generate/STIM_007.jpg	100
1982.79	2.054	2054.2	generate	Run3	generate/STIM_007.jpg	99
1987.435	0.955	955.3	generate	Run3	generate/STIM_007.jpg	99
1991.602	2.096	2096.4	generate	Run3	generate/STIM_008.jpg	99
1996.04	1.022	1022.5	generate	Run3	generate/STIM_008.jpg	99
1999.11	2.061	2061.2	generate	Run3	generate/STIM_008.jpg	99
2005.159	1.008	1007.6	generate	Run3	generate/STIM_008.jpg	99
2010.058	1.865	1865.3	generate	Run3	generate/STIM_008.jpg	99
2014.346	1.646	1645.9	generate	Run3	generate/STIM_009.jpg	100
2019.029	2.037	2037.3	generate	Run3	generate/STIM_009.jpg	100
2024.774	0.96	960.2	generate	Run3	generate/STIM_009.jpg	100
2028.622	2.152	2152.5	generate	Run3	generate/STIM_009.jpg	100
2033.887	1.058	1058.4	generate	Run3	generate/STIM_009.jpg	99
2037.566	1.546	1545.9	generate	Run3	generate/STIM_010.jpg	99
2042.138	1.272	1271.5	generate	Run3	generate/STIM_010.jpg	99
2045.732	1.992	1992.1	generate	Run3	generate/STIM_010.jpg	100
2049.946	1.115	1114.8	generate	Run3	generate/STIM_010.jpg	99
2053.315	1.121	1120.7	generate	Run3	generate/STIM_010.jpg	100
2057.971	2.107	2106.7	generate	Run3	generate/STIM_011.jpg	99
2063.226	1.609	1608.9	generate	Run3	generate/STIM_011.jpg	100
2068.145	1.667	1666.9	generate	Run3	generate/STIM_011.jpg	100
2072.105	1.651	1651.4	generate	Run3	generate/STIM_011.jpg	99
2077.722	1.678	1678.1	generate	Run3	generate/STIM_011.jpg	100
2082.528	1.747	1747.3	generate	Run3	generate/STIM_012.jpg	99
2087.07	1.823	1823.3	generate	Run3	generate/STIM_012.jpg	100
2092.535	1.237	1237.2	generate	Run3	generate/STIM_012.jpg	99
2097.694	1.403	1403.4	generate	Run3	generate/STIM_012.jpg	99
2101.458	1.902	1902.1	generate	Run3	generate/STIM_012.jpg	100
2105.824	1.574	1574.2	generate	Run3	generate/STIM_013.jpg	100
2109.468	1.658	1657.5	generate	Run3	generate/STIM_013.jpg	99
2113.163	1.041	1040.9	generate	Run3	generate/STIM_013.jpg	99
2118.048	1.04	1039.6	generate	Run3	generate/STIM_013.jpg	100
2121.162	2.093	2093.3	generate	Run3	generate/STIM_013.jpg	99
2127.123	1.991	1990.7	generate	Run3	generate/STIM_014.jpg	99
2132.782	1.655	1654.9	generate	Run3	generate/STIM_014.jpg	99
2137.208	1.537	1537.3	generate	Run3	generate/STIM_014.jpg	100
2142.633	1.705	1705.4	generate	Run3	generate/STIM_014.jpg	100
2147.862	0.91	909.9	generate	Run3	generate/STIM_014.jpg	99
2151.771	1.258	1257.7	generate	Run3	generate/STIM_015.jpg	100
2155.33	0.903	903.0	generate	Run3	generate/STIM_015.jpg	100
2159.483	1.996	1996.2	generate	Run3	generate/STIM_015.jpg	99
2165.362	2.032	2031.6	generate	Run3	generate/STIM_015.jpg	100
2171.185	1.488	1487.6	generate	Run3	generate/STIM_015.jpg	100
2176.118	2.057	2056.6	generate	Run3	generate/STIM_016.jpg	99
2180.636	1.952	1952.2	generate	Run3	generate/STIM_016.jpg	99
2184.962	1.586	1585.9	generate	Run3	generate/STIM_016.jpg	100
2189.85	0.986	985.7	generate	Run3	generate/STIM_016.jpg	99
2193.906	1.347	1347.3	generate	Run3	generate/STIM_016.jpg	100
2198.861	1.603	1603.0	generate	Run3	generate/STIM_017.jpg	100
2202.914	1.017	1016.6	generate	Run3	generate/STIM_017.jpg	100
2206.374	1.552	1552.2	generate	Run3	generate/STIM_017.jpg	100
2210.085	1.158	1157.6	generate	Run3	generate/STIM_017.jpg	99
2214.577	2.118	2118.0	generate	Run3	generate/STIM_017.jpg	100
2219.578	1.462	1462.4	generate	Run3	generate/STIM_018.jpg	99
2224.302	2.154	2154.0	generate	Run3	generate/STIM_018.jpg	100
2229.294	2.183	2183.4	generate	Run3	generate/STIM_018.jpg	100
2235.051	0.975	975.1	generate	Run3	generate/STIM_018.jpg	100
2238.414	1.209	1208.8	generate	Run3	generate/STIM_018.jpg	99
2242.212	2.019	2018.8	generate	Run3	generate/STIM_019.jpg	100
2246.909	1.108	1108.2	generate	Run3	generate/STIM_019.jpg	99
2251.759	2.225	2225.1	generate	Run3	generate/STIM_019.jpg	99
2256.496	2.152	2152.1	generate	Run3	generate/STIM_019.jpg	99
2262.494	1.285	1285.2	generate	Run3	generate/STIM_019.jpg	100
2267.538	2.106	2106.0	generate	Run3	generate/STIM_020.jpg	100
2271.879	1.168	1168.0	generate	Run3	generate/STIM_020.jpg	99
2276.794	2.235	2235.2	generate	Run3	generate/STIM_020.jpg	99
2281.351	1.686	1686.5	generate	Run3	generate/STIM_020.jpg	100
2285.806	1.194	1193.5	generate	Run3	generate/STIM_020.jpg	99
2289.788	2.111	2110.7	generate	Run3	generate/STIM_021.jpg	99
2295.764	1.708	1707.8	generate	Run3	generate/STIM_021.jpg	99
2300.817	2.063	2063.3	generate	Run3	generate/STIM_021.jpg	100
2306.511	0.98	980.0	generate	Run3	generate/STIM_021.jpg	100
2310.413	1.07	1069.5	generate	Run3	generate/STIM_021.jpg	99
2314.476	2.061	2060.9	generate	Run3	generate/STIM_022.jpg	100
2320.419	1.323	1322.7	generate	Run3	generate/STIM_022.jpg	100
2324.047	1.439	1439.4	generate	Run3	generate/STIM_022.jpg	100
2328.829	1.703	1702.7	generate	Run3	generate/STIM_022.jpg	100
2332.811	1.338	1337.5	generate	Run3	generate/STIM_022.jpg	100
2336.484	1.506	1506.1	generate	Run3	generate/STIM_023.jpg	100
2341.008	1.088	1088.2	generate	Run3	generate/STIM_023.jpg	99
2344.118	1.232	1232.4	generate	Run3	generate/STIM_023.jpg	100
2348.824	1.514	1513.5	generate	Run3	generate/STIM_023.jpg	100
2352.4	1.042	1041.6	generate	Run3	generate/STIM_023.jpg	100
2356.598	1.28	1280.5	generate	Run3	generate/STIM_024.jpg	100
2361.503	1.308	1308.2	generate	Run3	generate/STIM_024.jpg	100
2365.391	2.113	2112.7	generate	Run3	generate/STIM_024.jpg	99
2370.717	2.147	2146.9	generate	Run3	generate/STIM_024.jpg	100
2375.765	0.902	902.2	generate	Run3	generate/STIM_024.jpg	99
2379.574	0.616	615.5	repeat	Run3	repeat/STIM_000.jpg	99
2383.175	0.711	711.1	repeat	Run3	repeat/STIM_000.jpg	100
2386.921	0.959	958.6	repeat	Run3	repeat/STIM_000.jpg	99
2390.425	0.782	782.3	repeat	Run3	repeat/STIM_000.jpg	99
2394.829	1.067	1067.1	repeat	Run3	repeat/STIM_000.jpg	99
2398.589	0.669	668.6	repeat	Run3	repeat/STIM_001.jpg	100
2403.037	0.708	707.8	repeat	Run3	repeat/STIM_001.jpg	100
2405.747	0.664	664.3	repeat	Run3	repeat/STIM_001.jpg	100
2410.232	0.71	709.6	repeat	Run3	repeat/STIM_001.jpg	100
2414.55	0.593	592.8	repeat	Run3	repeat/STIM_001.jpg	100
2417.825	0.628	627.8	repeat	Run3	repeat/STIM_002.jpg	99
2421.919	0.689	689.1	repeat	Run3	repeat/STIM_002.jpg	100
2425.593	0.991	990.8	repeat	Run3	repeat/STIM_002.jpg	100
2429.833	0.801	800.6	repeat	Run3	repeat/STIM_002.jpg	99
2433.348	0.616	616.3	repeat	Run3	repeat/STIM_002.jpg	99
2436.346	0.758	757.7	repeat	Run3	repeat/STIM_003.jpg	99
2439.301	0.98	980.5	repeat	Run3	repeat/STIM_003.jpg	99
2443.346	0.715	715.2	repeat	Run3	repeat/STIM_003.jpg	100
2447.984	0.769	769.0	repeat	Run3	repeat/STIM_003.jpg	99
2450.77	0.779	779.3	repeat	Run3	repeat/STIM_003.jpg	100
2455.039	0.836	835.8	repeat	Run3	repeat/STIM_004.jpg	99
2459.016	0.763	763.0	repeat	Run3	repeat/STIM_004.jpg	100
2463.638	0.961	961.0	repeat	Run3	repeat/STIM_004.jpg	99
2466.861	0.64	640.4	repeat	Run3	repeat/STIM_004.jpg	100
2470.176	0.737	736.6	repeat	Run3	repeat/STIM_004.jpg	99
2473.645	0.886	885.9	repeat	Run3	repeat/STIM_005.jpg	100
2477.346	0.824	824.1	repeat	Run3	repeat/STIM_005.jpg	100
2481.063	0.71	709.6	repeat	Run3	repeat/STIM_005.jpg	99
2485.16	0.954	954.2	repeat	Run3	repeat/STIM_005.jpg	100
2489.854	0.896	896.0	repeat	Run3	repeat/STIM_005.jpg	100
2493.383	0.553	553.1	repeat	Run3	repeat/STIM_006.jpg	100
2497.747	0.546	545.6	repeat	Run3	repeat/STIM_006.jpg	99
2501.779	0.705	705.3	repeat	Run3	repeat/STIM_006.jpg	99
2506.204	0.637	637.3	repeat	Run3	repeat/STIM_006.jpg	99
2509.068	0.784	783.5	repeat	Run3	repeat/STIM_006.jpg	99
2513.809	0.555	555.1	repeat	Run3	repeat/STIM_007.jpg	99
2517.137	0.696	695.5	repeat	Run3	repeat/STIM_007.jpg	99
2521.782	0.672	672.4	repeat	Run3	repeat/STIM_007.jpg	99
2524.56	0.873	873.1	repeat	Run3	repeat/STIM_007.jpg	99
2528.244	0.917	917.0	repeat	Run3	repeat/STIM_007.jpg	99
2533.156	0.793	793.3	repeat	Run3	repeat/STIM_008.jpg	100
2537.778	0.623	623.3	repeat	Run3	repeat/STIM_008.jpg	99
2540.536	0.57	569.6	repeat	Run3	repeat/STIM_008.jpg	99
2543.572	0.625	625.4	repeat	Run3	repeat/STIM_008.jpg	99
2546.648	0.918	918.1	repeat	Run3	repeat/STIM_008.jpg	100
2551.037	0.879	879.4	repeat	Run3	repeat/STIM_009.jpg	100
2554.203	0.866	866.2	repeat	Run3	repeat/STIM_009.jpg	100
2557.568	0.854	854.0	repeat	Run3	repeat/STIM_009.jpg	99
2560.524	0.996	995.8	repeat	Run3	repeat/STIM_009.jpg	100
2564.552	0.954	954.4	repeat	Run3	repeat/STIM_009.jpg	100
2568.91	0.777	776.9	repeat	Run3	repeat/STIM_010.jpg	99
2571.793	0.847	847.2	repeat	Run3	repeat/STIM_010.jpg	99
2574.927	0.557	556.7	repeat	Run3	repeat/STIM_010.jpg	99
2579.47	0.877	877.0	repeat	Run3	repeat/STIM_010.jpg	99
2582.364	0.977	977.2	repeat	Run3	repeat/STIM_010.jpg	99
2585.387	1.052	1051.7	repeat	Run3	repeat/STIM_011.jpg	99
2589.97	0.923	922.7	repeat	Run3	repeat/STIM_011.jpg	100
2593.908	0.713	713.1	repeat	Run3	repeat/STIM_011.jpg	100
2596.962	0.908	908.4	repeat	Run3	repeat/STIM_011.jpg	99
2601.738	0.79	790.2	repeat	Run3	repeat/STIM_011.jpg	100
2605.612	1.05	1049.6	repeat	Run3	repeat/STIM_012.jpg	99
2609.396	0.894	894.1	repeat	Run3	repeat/STIM_012.jpg	100
2613.071	0.751	751.2	repeat	Run3	repeat/STIM_012.jpg	100
2617.11	1.003	1003.3	repeat	Run3	repeat/STIM_012.jpg	100
2620.613	0.705	705.2	repeat	Run3	repeat/STIM_012.jpg	100
2623.719	0.724	724.1	repeat	Run3	repeat/STIM_013.jpg	100
2627.108	0.873	872.6	repeat	Run3	repeat/STIM_013.jpg	99
2630.337	0.598	597.9	repeat	Run3	repeat/STIM_013.jpg	99
2633.267	0.834	834.3	repeat	Run3	repeat/STIM_013.jpg	100
2637.115	0.972	971.7	repeat	Run3	repeat/STIM_013.jpg	100
2641.156	0.813	812.8	repeat	Run3	repeat/STIM_014.jpg	99
2645.748	0.956	955.8	repeat	Run3	repeat/STIM_014.jpg	99
2650.5	0.8	799.7	repeat	Run3	repeat/STIM_014.jpg	100
2654.954	0.626	626.2	repeat	Run3	repeat/STIM_014.jpg	99
2658.162	0.716	715.5	repeat	Run3	repeat/STIM_014.jpg	100
2662.839	1.253	1253.3	generate	Run4	generate/STIM_000.jpg	99
2667.446	2.041	2041.4	generate	Run4	generate/STIM_000.jpg	99
2672.407	1.706	1706.4	generate	Run4	generate/STIM_000.jpg	100
2676.655	1.892	1892.3	generate	Run4	generate/STIM_000.jpg	99
2682.077	2.059	2058.9	generate	Run4	generate/STIM_000.jpg	100
2687.129	2.15	2150.3	generate	Run4	generate/STIM_001.jpg	100
2693.26	1.557	1556.6	generate	Run4	generate/STIM_001.jpg	100
2698.424	2.241	2240.8	generate	Run4	generate/STIM_001.jpg	100
2703.287	2.071	2071.2	generate	Run4	generate/STIM_001.jpg	100
2708.389	0.936	935.9	generate	Run4	generate/STIM_001.jpg	99
2713.027	1.315	1314.6	generate	Run4	generate/STIM_002.jpg	100
2718.071	2.237	2237.0	generate	Run4	generate/STIM_002.jpg	99
2722.364	1.694	1694.1	generate	Run4	generate/STIM_002.jpg	99
2726.56	1.077	1076.7	generate	Run4	generate/STIM_002.jpg	100
2730.109	1.186	1186.5	generate	Run4	generate/STIM_002.jpg	99
2733.733	0.9	899.9	generate	Run4	generate/STIM_003.jpg	100
2736.828	1.711	1710.7	generate	Run4	generate/STIM_003.jpg	100
2742.35	1.408	1407.6	generate	Run4	generate/STIM_003.jpg	100
2747.054	1.266	1266.0	generate	Run4	generate/STIM_003.jpg	100
2750.993	2.102	2101.6	generate	Run4	generate/STIM_003.jpg	100
2755.296	1.238	1238.4	generate	Run4	generate/STIM_004.jpg	100
2760.42	1.783	1783.4	generate	Run4	generate/STIM_004.jpg	99
2765.264	1.196	1195.6	generate	Run4	generate/STIM_004.jpg	100
2770.434	2.076	2075.6	generate	Run4	generate/STIM_004.jpg	100
2775.933	1.572	1572.2	generate	Run4	generate/STIM_004.jpg	99
2780.154	1.145	1144.7	generate	Run4	generate/STIM_005.jpg	100
2785.091	0.934	933.9	generate	Run4	generate/STIM_005.jpg	99
2789.548	1.557	1556.9	generate	Run4	generate/STIM_005.jpg	100
2794.209	1.367	1367.2	generate	Run4	generate/STIM_005.jpg	100
2798.859	1.018	1018.4	generate	Run4	generate/STIM_005.jpg	99
2803.19	2.243	2242.6	generate	Run4	generate/STIM_006.jpg	100
2807.693	1.449	1448.9	generate	Run4	generate/STIM_006.jpg	99
2812.145	2.073	2073.4	generate	Run4	generate/STIM_006.jpg	100
2817.254	1.28	1280.3	generate	Run4	generate/STIM_006.jpg	100
2822.503	0.947	947.2	generate	Run4	generate/STIM_006.jpg	99
2826.497	1.953	1952.7	generate	Run4	generate/STIM_007.jpg	100
2831.991	1.894	1894.5	generate	Run4	generate/STIM_007.jpg	100
2836.274	1.212	1211.9	generate	Run4	generate/STIM_007.jpg	99
2839.787	1.93	1929.9	generate	Run4	generate/STIM_007.jpg	100
2844.211	2.168	2167.5	generate	Run4	generate/STIM_007.jpg	100
2850.372	1.151	1150.7	generate	Run4	generate/STIM_008.jpg	99
2855.019	1.084	1083.6	generate	Run4	generate/STIM_008.jpg	100
2858.75	2.035	2035.3	generate	Run4	generate/STIM_008.jpg	99
2863.114	1.403	1403.4	generate	Run4	generate/STIM_008.jpg	99
2866.859	1.349	1348.6	generate	Run4	generate/STIM_008.jpg	99
2871.722	1.884	1883.9	generate	Run4	generate/STIM_009.jpg	100
2875.628	2.153	2153.3	generate	Run4	generate/STIM_009.jpg	100
2879.94	1.416	1416.3	generate	Run4	generate/STIM_009.jpg	100
2883.778	1.786	1786.1	generate	Run4	generate/STIM_009.jpg	99
2887.669	1.144	1144.1	generate	Run4	generate/STIM_009.jpg	99
2892.358	2.024	2023.7	generate	Run4	generate/STIM_010.jpg	100
2896.42	1.326	1326.4	generate	Run4	generate/STIM_010.jpg	99
2899.936	1.615	1614.8	generate	Run4	generate/STIM_010.jpg	100
2905.089	2.049	2049.0	generate	Run4	generate/STIM_010.jpg	99
2910.039	1.284	1283.9	generate	Run4	generate/STIM_010.jpg	100
2913.666	1.923	1923.2	generate	Run4	generate/STIM_011.jpg	100
2918.899	1.496	1496.3	generate	Run4	generate/STIM_011.jpg	99
2923.484	1.591	1591.3	generate	Run4	generate/STIM_011.jpg	99
2927.951	1.867	1867.0	generate	Run4	generate/STIM_011.jpg	99
2932.946	2.231	2231.2	generate	Run4	generate/STIM_011.jpg	99
2938.597	1.204	1204.3	generate	Run4	generate/STIM_012.jpg	99
2942.594	0.939	938.7	generate	Run4	generate/STIM_012.jpg	99
2946.198	2.2	2200.0	generate	Run4	generate/STIM_012.jpg	99
2950.441	1.279	1279.1	generate	Run4	generate/STIM_012.jpg	99
2954.3	1.274	1274.2	generate	Run4	generate/STIM_012.jpg	100
2958.677	2.137	2136.7	generate	Run4	generate/STIM_013.jpg	100
2962.999	1.015	1014.6	generate	Run4	generate/STIM_013.jpg	99
2966.086	1.791	1790.7	generate	Run4	generate/STIM_013.jpg	99
2971.041	1.314	1313.6	generate	Run4	generate/STIM_013.jpg	100
2976.09	1.577	1577.0	generate	Run4	generate/STIM_013.jpg	99
2980.065	1.688	1687.8	generate	Run4	generate/STIM_014.jpg	100
2984.659	2.018	2017.9	generate	Run4	generate/STIM_014.jpg	100
2988.847	1.286	1285.6	generate	Run4	generate/STIM_014.jpg	100
2993.783	2.125	2124.8	generate	Run4	generate/STIM_014.jpg	99
2999.452	1.53	1530.4	generate	Run4	generate/STIM_014.jpg	100
3004.126	1.032	1032.4	generate	Run4	generate/STIM_015.jpg	99
3008.92	1.503	1503.1	generate	Run4	generate/STIM_015.jpg	99
3013.549	1.63	1629.7	generate	Run4	generate/STIM_015.jpg	99
3018.318	1.522	1521.9	generate	Run4	generate/STIM_015.jpg	100
3022.11	2.07	2069.7	generate	Run4	generate/STIM_015.jpg	100
3027.442	1.834	1834.5	generate	Run4	generate/STIM_016.jpg	99
3032.89	2.061	2061.3	generate	Run4	generate/STIM_016.jpg	99
3037.114	1.33	1329.5	generate	Run4	generate/STIM_016.jpg	99
3040.834	1.134	1134.1	generate	Run4	generate/STIM_016.jpg	100
3045.337	1.383	1383.1	generate	Run4	generate/STIM_016.jpg	100
3048.791	2.139	2138.8	generate	Run4	generate/STIM_017.jpg	99
3054.4	1.271	1270.6	generate	Run4	generate/STIM_017.jpg	99
3059.51	1.244	1244.3	generate	Run4	generate/STIM_017.jpg	99
3063.114	0.956	956.4	generate	Run4	generate/STIM_017.jpg	100
3066.443	0.973	973.1	generate	Run4	generate/STIM_017.jpg	100
3070.33	1.134	1133.8	generate	Run4	generate/STIM_018.jpg	99
3073.74	1.103	1103.1	generate	Run4	generate/STIM_018.jpg	99
3076.988	1.054	1053.5	generate	Run4	generate/STIM_018.jpg	99
3080.151	1.491	1491.3	generate	Run4	generate/STIM_018.jpg	99
3085.427	1.441	1441.4	generate	Run4	generate/STIM_018.jpg	100
3090.416	0.924	923.7	generate	Run4	generate/STIM_019.jpg	99
3093.562	0.99	989.9	generate	Run4	generate/STIM_019.jpg	100
3096.601	1.467	1467.3	generate	Run4	generate/STIM_019.jpg	100
3101.848	1.976	1976.2	generate	Run4	generate/STIM_019.jpg	100
3106.858	2.013	2013.1	generate	Run4	generate/STIM_019.jpg	100
3112.042	1.204	1203.5	generate	Run4	generate/STIM_020.jpg	100
3116.461	1.521	1520.9	generate	Run4	generate/STIM_020.jpg	100
3121.186	1.703	1702.6	generate	Run4	generate/STIM_020.jpg	99
3125.405	1.394	1393.9	generate	Run4	generate/STIM_020.jpg	99
3129.591	0.9	900.3	generate	Run4	generate/STIM_020.jpg	100
3133.827	1.576	1575.7	generate	Run4	generate/STIM_021.jpg	100
3137.518	1.02	1020.3	generate	Run4	generate/STIM_021.jpg	99
3141.349	1.24	1240.3	generate	Run4	generate/STIM_021.jpg	100
3145.537	1.394	1393.8	generate	Run4	generate/STIM_021.jpg	100
3150.045	2.156	2156.4	generate	Run4	generate/STIM_021.jpg	100
3155.372	2.24	2239.9	generate	Run4	generate/STIM_022.jpg	99
3160.559	2.239	2238.9	generate	Run4	generate/STIM_022.jpg	99
3165.665	1.045	1045.1	generate	Run4	generate/STIM_022.jpg	100
3169.804	1.424	1423.6	generate	Run4	generate/STIM_022.jpg	99
3174.088	1.857	1857.0	generate	Run4	generate/STIM_022.jpg	100
3179.724	2.088	2088.2	generate	Run4	generate/STIM_023.jpg	100
3184.25	2.068	2068.3	generate	Run4	generate/STIM_023.jpg	99
3189.232	1.794	1793.5	generate	Run4	generate/STIM_023.jpg	99
3194.566	1.624	1623.9	generate	Run4	generate/STIM_023.jpg	99
3199.955	1.086	1086.2	generate	Run4	generate/STIM_023.jpg	100
3204.589	1.904	1903.7	generate	Run4	generate/STIM_024.jpg	100
3210.221	0.995	994.9	generate	Run4	generate/STIM_024.jpg	99
3214.48	1.262	1262.4	generate	Run4	generate/STIM_024.jpg	99
3219.348	2.001	2001.3	generate	Run4	generate/STIM_024.jpg	99
3225.297	2.216	2216.4	generate	Run4	generate/STIM_024.jpg	99
3231.082	0.946	946.1	repeat	Run4	repeat/STIM_000.jpg	100
3235.774	0.902	901.9	repeat	Run4	repeat/STIM_000.jpg	100
3238.945	0.88	880.5	repeat	Run4	repeat/STIM_000.jpg	99
3242.175	0.581	581.4	repeat	Run4	repeat/STIM_000.jpg	100
3245.349	0.564	564.3	repeat	Run4	repeat/STIM_000.jpg	100
3248.556	0.622	622.3	repeat	Run4	repeat/STIM_001.jpg	99
3252.036	0.58	580.2	repeat	Run4	repeat/STIM_001.jpg	99
3254.987	0.565	564.8	repeat	Run4	repeat/STIM_001.jpg	99
3257.941	1.021	1020.6	repeat	Run4	repeat/STIM_001.jpg	100
3262.54	0.909	909.2	repeat	Run4	repeat/STIM_001.jpg	100
3267.432	0.552	551.6	repeat	Run4	repeat/STIM_002.jpg	99
3271.883	0.786	785.8	repeat	Run4	repeat/STIM_002.jpg	100
3274.705	0.682	681.5	repeat	Run4	repeat/STIM_002.jpg	100
3278.972	0.914	913.9	repeat	Run4	repeat/STIM_002.jpg	100
3282.5	0.546	545.5	repeat	Run4	repeat/STIM_002.jpg	100
3285.375	0.852	852.2	repeat	Run4	repeat/STIM_003.jpg	100
3289.949	0.904	904.5	repeat	Run4	repeat/STIM_003.jpg	99
3293.847	0.594	593.9	repeat	Run4	repeat/STIM_003.jpg	100
3297.689	0.629	629.3	repeat	Run4	repeat/STIM_003.jpg	99
3300.647	0.76	760.2	repeat	Run4	repeat/STIM_003.jpg	99
3304.348	0.563	563.1	repeat	Run4	repeat/STIM_004.jpg	99
3307.999	0.923	922.6	repeat	Run4	repeat/STIM_004.jpg	100
3311.741	0.618	617.9	repeat	Run4	repeat/STIM_004.jpg	100
3315.818	0.586	586.2	repeat	Run4	repeat/STIM_004.jpg	100
3319.75	0.92	919.6	repeat	Run4	repeat/STIM_004.jpg	100
3323.606	1.015	1014.6	repeat	Run4	repeat/STIM_005.jpg	99
3327.97	0.645	645.2	repeat	Run4	repeat/STIM_005.jpg	99
3330.696	1.009	1008.8	repeat	Run4	repeat/STIM_005.jpg	100
3334.756	0.832	832.5	repeat	Run4	repeat/STIM_005.jpg	100
3338.321	0.748	747.7	repeat	Run4	repeat/STIM_005.jpg	100
3342.865	0.611	610.7	repeat	Run4	repeat/STIM_006.jpg	99
3346.695	0.558	558.1	repeat	Run4	repeat/STIM_006.jpg	99
3350.318	0.859	858.7	repeat	Run4	repeat/STIM_006.jpg	100
3353.839	0.643	643.0	repeat	Run4	repeat/STIM_006.jpg	99
3356.932	0.782	782.3	repeat	Run4	repeat/STIM_006.jpg	99
3361.176	0.884	884.4	repeat	Run4	repeat/STIM_007.jpg	100
3364.342	0.776	776.2	repeat	Run4	repeat/STIM_007.jpg	100
3368.41	0.578	578.5	repeat	Run4	repeat/STIM_007.jpg	100
3371.359	0.539	539.0	repeat	Run4	repeat/STIM_007.jpg	100
3375.036	0.841	840.9	repeat	Run4	repeat/STIM_007.jpg	100
3378.207	0.661	661.3	repeat	Run4	repeat/STIM_008.jpg	100
3381.447	0.802	802.2	repeat	Run4	repeat/STIM_008.jpg	99
3385.774	1.065	1064.9	repeat	Run4	repeat/STIM_008.jpg	99
3390.309	0.769	768.6	repeat	Run4	repeat/STIM_008.jpg	99
3394.096	0.71	710.5	repeat	Run4	repeat/STIM_008.jpg	99
3397.12	0.559	558.6	repeat	Run4	repeat/STIM_009.jpg	99
3400.381	0.914	913.5	repeat	Run4	repeat/STIM_009.jpg	100
3403.951	0.953	953.2	repeat	Run4	repeat/STIM_009.jpg	100
3408.85	0.704	704.2	repeat	Run4	repeat/STIM_009.jpg	99
3413.409	0.735	734.7	repeat	Run4	repeat/STIM_009.jpg	100
3416.703	0.734	733.6	repeat	Run4	repeat/STIM_010.jpg	100
3420.16	0.654	653.9	repeat	Run4	repeat/STIM_010.jpg	99
3423.973	0.99	989.5	repeat	Run4	repeat/STIM_010.jpg	100
3428.155	0.86	859.9	repeat	Run4	repeat/STIM_010.jpg	100
3432.023	0.722	722.2	repeat	Run4	repeat/STIM_010.jpg	100
3435.039	0.992	992.3	repeat	Run4	repeat/STIM_011.jpg	99
3439.285	0.898	897.8	repeat	Run4	repeat/STIM_011.jpg	100
3443.061	0.749	749.2	repeat	Run4	repeat/STIM_011.jpg	99
3446.07	0.668	668.3	repeat	Run4	repeat/STIM_011.jpg	100
3450.517	0.784	784.0	repeat	Run4	repeat/STIM_011.jpg	99
3454.055	0.694	694.1	repeat	Run4	repeat/STIM_012.jpg	100
3457.791	0.754	753.9	repeat	Run4	repeat/STIM_012.jpg	100
3461.12	1.019	1019.0	repeat	Run4	repeat/STIM_012.jpg	99
3464.835	0.947	946.8	repeat	Run4	repeat/STIM_012.jpg	99
3468.269	0.923	922.6	repeat	Run4	repeat/STIM_012.jpg	100
3472.538	0.862	862.2	repeat	Run4	repeat/STIM_013.jpg	100
3476.208	0.658	658.4	repeat	Run4	repeat/STIM_013.jpg	99
3480.431	0.827	827.3	repeat	Run4	repeat/STIM_013.jpg	100
3484.536	1.069	1069.4	repeat	Run4	repeat/STIM_013.jpg	100
3488.135	0.916	915.9	repeat	Run4	repeat/STIM_013.jpg	100
3491.059	0.864	864.0	repeat	Run4	repeat/STIM_014.jpg	99
3495.048	1.038	1037.9	repeat	Run4	repeat/STIM_014.jpg	100
3499.645	0.902	902.4	repeat	Run4	repeat/STIM_014.jpg	100
3502.671	0.601	601.0	repeat	Run4	repeat/STIM_014.jpg	100
3505.413	1.049	1048.6	repeat	Run4	repeat/STIM_014.jpg	99
