onset	duration	accuracy_binary	trial_type	learning_stage	stimulus
0.0	0.562	0	2back	Block1	2back/STIM_000.jpg
3.686	0.691	0	2back	Block1	2back/STIM_000.jpg
6.816	1.096	1	2back	Block1	2back/STIM_000.jpg
11.71	1.206	0	2back	Block1	2back/STIM_001.jpg
15.938	0.783	0	2back	Block1	2back/STIM_001.jpg
19.612	1.062	0	2back	Block1	2back/STIM_001.jpg
23.105	0.57	1	2back	Block1	2back/STIM_002.jpg
26.775	0.862	1	2back	Block1	2back/STIM_002.jpg
30.355	1.065	0	2back	Block1	2back/STIM_002.jpg
35.405	0.834	0	2back	Block1	2back/STIM_003.jpg
38.423	0.83	1	2back	Block1	2back/STIM_003.jpg
41.744	0.978	0	2back	Block1	2back/STIM_003.jpg
45.646	0.762	0	2back	Block1	2back/STIM_004.jpg
49.361	0.625	1	2back	Block1	2back/STIM_004.jpg
52.95	0.686	0	2back	Block1	2back/STIM_004.jpg
56.852	0.667	1	2back	Block1	2back/STIM_005.jpg
60.837	1.028	1	2back	Block1	2back/STIM_005.jpg
65.141	0.934	0	2back	Block1	2back/STIM_005.jpg
69.735	0.716	1	2back	Block1	2back/STIM_006.jpg
72.536	1.078	1	2back	Block1	2back/STIM_006.jpg
77.271	0.499	0	2back	Block1	2back/STIM_006.jpg
81.262	0.783	0	2back	Block1	2back/STIM_007.jpg
85.771	0.879	0	2back	Block1	2back/STIM_007.jpg
89.862	0.715	0	2back	Block1	2back/STIM_007.jpg
92.757	0.661	1	2back	Block1	2back/STIM_008.jpg
95.76	1.165	1	2back	Block1	2back/STIM_008.jpg
99.049	0.71	0	2back	Block1	2back/STIM_008.jpg
102.81	0.95	1	2back	Block1	2back/STIM_009.jpg
107.436	0.955	1	2back	Block1	2back/STIM_009.jpg
110.535	0.955	0	2back	Block1	2back/STIM_009.jpg
113.532	1.132	1	2back	Block1	2back/STIM_010.jpg
118.423	0.967	1	2back	Block1	2back/STIM_010.jpg
121.723	0.878	0	2back	Block1	2back/STIM_010.jpg
126.143	0.852	1	2back	Block1	2back/STIM_011.jpg
130.67	0.594	1	2back	Block1	2back/STIM_011.jpg
133.821	1.108	1	2back	Block1	2back/STIM_011.jpg
137.397	1.036	0	2back	Block1	2back/STIM_012.jpg
141.116	0.997	1	2back	Block1	2back/STIM_012.jpg
144.633	0.667	0	2back	Block1	2back/STIM_012.jpg
148.262	0.755	0	2back	Block1	2back/STIM_013.jpg
151.622	0.622	0	2back	Block1	2back/STIM_013.jpg
155.083	0.507	1	2back	Block1	2back/STIM_013.jpg
157.929	0.752	1	2back	Block1	2back/STIM_014.jpg
162.26	1.161	1	2back	Block1	2back/STIM_014.jpg
167.051	0.816	0	2back	Block1	2back/STIM_014.jpg
171.754	1.216	1	2back	Block1	2back/STIM_015.jpg
175.471	0.636	0	2back	Block1	2back/STIM_015.jpg
179.951	1.071	1	2back	Block1	2back/STIM_015.jpg
184.804	1.083	1	2back	Block1	2back/STIM_016.jpg
188.465	0.682	1	2back	Block1	2back/STIM_016.jpg
192.096	0.962	0	2back	Block1	2back/STIM_016.jpg
196.139	1.134	1	2back	Block1	2back/STIM_017.jpg
199.443	0.531	1	2back	Block1	2back/STIM_017.jpg
202.488	0.727	0	2back	Block1	2back/STIM_017.jpg
205.562	0.844	1	2back	Block1	2back/STIM_018.jpg
209.746	0.543	1	2back	Block1	2back/STIM_018.jpg
212.365	0.547	0	2back	Block1	2back/STIM_018.jpg
215.931	1.114	0	2back	Block1	2back/STIM_019.jpg
219.99	0.827	1	2back	Block1	2back/STIM_019.jpg
223.938	0.694	1	2back	Block1	2back/STIM_019.jpg
228.393	1.188	1	2back	Block1	2back/STIM_020.jpg
232.249	0.946	1	2back	Block1	2back/STIM_020.jpg
235.476	0.667	0	2back	Block1	2back/STIM_020.jpg
240.139	0.879	1	2back	Block1	2back/STIM_021.jpg
243.742	0.983	1	2back	Block1	2back/STIM_021.jpg
247.206	0.719	0	2back	Block1	2back/STIM_021.jpg
250.984	0.929	1	2back	Block1	2back/STIM_022.jpg
254.298	0.734	0	2back	Block1	2back/STIM_022.jpg
257.581	0.8	0	2back	Block1	2back/STIM_022.jpg
261.374	1.165	1	2back	Block1	2back/STIM_023.jpg
265.226	1.042	1	2back	Block1	2back/STIM_023.jpg
269.766	0.7	0	2back	Block1	2back/STIM_023.jpg
272.524	0.82	1	2back	Block1	2back/STIM_024.jpg
277.067	1.061	0	2back	Block1	2back/STIM_024.jpg
280.151	0.921	1	2back	Block1	2back/STIM_024.jpg
284.848	0.998	1	2back	Block1	2back/STIM_025.jpg
289.186	1.017	0	2back	Block1	2back/STIM_025.jpg
292.4	0.77	1	2back	Block1	2back/STIM_025.jpg
296.977	1.006	1	2back	Block1	2back/STIM_026.jpg
300.268	0.735	0	2back	Block1	2back/STIM_026.jpg
304.063	0.583	1	2back	Block1	2back/STIM_026.jpg
307.513	0.972	0	2back	Block1	2back/STIM_027.jpg
310.905	1.112	1	2back	Block1	2back/STIM_027.jpg
315.25	0.618	1	2back	Block1	2back/STIM_027.jpg
319.01	1.06	1	2back	Block1	2back/STIM_028.jpg
324.061	0.857	0	2back	Block1	2back/STIM_028.jpg
326.994	0.665	1	2back	Block1	2back/STIM_028.jpg
330.876	1.018	1	2back	Block1	2back/STIM_029.jpg
334.148	1.109	0	2back	Block1	2back/STIM_029.jpg
338.724	0.708	0	2back	Block1	2back/STIM_029.jpg
342.634	0.632	0	2back	Block1	2back/STIM_030.jpg
346.119	1.119	1	2back	Block1	2back/STIM_030.jpg
350.128	0.754	1	2back	Block1	2back/STIM_030.jpg
353.359	0.924	0	2back	Block1	2back/STIM_031.jpg
358.097	0.565	1	2back	Block1	2back/STIM_031.jpg
362.078	0.972	1	2back	Block1	2back/STIM_031.jpg
366.725	0.932	0	2back	Block1	2back/STIM_032.jpg
370.132	0.932	1	2back	Block1	2back/STIM_032.jpg
373.793	0.492	1	2back	Block1	2back/STIM_032.jpg
377.252	0.733	1	2back	Block1	2back/STIM_033.jpg
381.618	0.829	1	2back	Block1	2back/STIM_033.jpg
384.985	1.101	1	2back	Block1	2back/STIM_033.jpg
389.907	0.715	0	2back	Block1	2back/STIM_034.jpg
394.344	0.584	1	2back	Block1	2back/STIM_034.jpg
397.005	0.821	0	2back	Block1	2back/STIM_034.jpg
400.754	1.0	1	2back	Block1	2back/STIM_035.jpg
404.038	1.151	0	2back	Block1	2back/STIM_035.jpg
407.543	0.694	1	2back	Block1	2back/STIM_035.jpg
411.662	1.115	0	2back	Block1	2back/STIM_036.jpg
415.246	0.529	0	2back	Block1	2back/STIM_036.jpg
418.136	0.766	1	2back	Block1	2back/STIM_036.jpg
421.251	1.116	1	2back	Block1	2back/STIM_037.jpg
426.202	0.924	0	2back	Block1	2back/STIM_037.jpg
429.691	1.109	1	2back	Block1	2back/STIM_037.jpg
433.767	0.766	0	2back	Block1	2back/STIM_038.jpg
437.186	0.973	1	2back	Block1	2back/STIM_038.jpg
440.389	0.499	1	2back	Block1	2back/STIM_038.jpg
443.893	1.069	0	2back	Block1	2back/STIM_039.jpg
448.379	0.743	1	2back	Block1	2back/STIM_039.jpg
451.306	0.834	1	2back	Block1	2back/STIM_039.jpg
454.883	0.454	1	0back	Block1	0back/STIM_000.jpg
458.137	0.625	0	0back	Block1	0back/STIM_000.jpg
462.159	0.587	1	0back	Block1	0back/STIM_000.jpg
465.187	0.495	1	0back	Block1	0back/STIM_001.jpg
469.138	0.698	0	0back	Block1	0back/STIM_001.jpg
472.278	0.495	0	0back	Block1	0back/STIM_001.jpg
474.938	0.575	0	0back	Block1	0back/STIM_002.jpg
479.394	0.542	1	0back	Block1	0back/STIM_002.jpg
482.712	0.539	0	0back	Block1	0back/STIM_002.jpg
486.892	0.523	1	0back	Block1	0back/STIM_003.jpg
490.456	0.508	0	0back	Block1	0back/STIM_003.jpg
494.047	0.362	0	0back	Block1	0back/STIM_003.jpg
496.463	0.572	1	0back	Block1	0back/STIM_004.jpg
499.858	0.499	0	0back	Block1	0back/STIM_004.jpg
503.384	0.471	1	0back	Block1	0back/STIM_004.jpg
505.946	0.391	0	0back	Block1	0back/STIM_005.jpg
509.11	0.672	0	0back	Block1	0back/STIM_005.jpg
513.266	0.362	0	0back	Block1	0back/STIM_005.jpg
517.087	0.635	1	0back	Block1	0back/STIM_006.jpg
521.263	0.533	0	0back	Block1	0back/STIM_006.jpg
523.919	0.419	1	0back	Block1	0back/STIM_006.jpg
527.453	0.673	1	0back	Block1	0back/STIM_007.jpg
531.908	0.43	0	0back	Block1	0back/STIM_007.jpg
536.237	0.674	1	0back	Block1	0back/STIM_007.jpg
540.614	0.466	1	0back	Block1	0back/STIM_008.jpg
543.496	0.649	1	0back	Block1	0back/STIM_008.jpg
547.546	0.439	1	0back	Block1	0back/STIM_008.jpg
551.66	0.587	1	0back	Block1	0back/STIM_009.jpg
554.865	0.416	0	0back	Block1	0back/STIM_009.jpg
557.566	0.536	1	0back	Block1	0back/STIM_009.jpg
561.948	0.412	1	0back	Block1	0back/STIM_010.jpg
564.429	0.353	0	0back	Block1	0back/STIM_010.jpg
567.248	0.534	1	0back	Block1	0back/STIM_010.jpg
571.759	0.628	1	0back	Block1	0back/STIM_011.jpg
574.953	0.639	1	0back	Block1	0back/STIM_011.jpg
578.223	0.564	0	0back	Block1	0back/STIM_011.jpg
581.215	0.426	1	0back	Block1	0back/STIM_012.jpg
584.824	0.674	0	0back	Block1	0back/STIM_012.jpg
587.987	0.649	1	0back	Block1	0back/STIM_012.jpg
590.983	0.4	1	0back	Block1	0back/STIM_013.jpg
594.286	0.703	1	0back	Block1	0back/STIM_013.jpg
597.494	0.642	1	0back	Block1	0back/STIM_013.jpg
602.046	0.469	0	0back	Block1	0back/STIM_014.jpg
604.846	0.442	1	0back	Block1	0back/STIM_014.jpg
607.366	0.645	1	0back	Block1	0back/STIM_014.jpg
611.956	0.646	1	0back	Block1	0back/STIM_015.jpg
615.088	0.678	1	0back	Block1	0back/STIM_015.jpg
619.413	0.644	1	0back	Block1	0back/STIM_015.jpg
623.489	0.573	1	0back	Block1	0back/STIM_016.jpg
627.783	0.551	0	0back	Block1	0back/STIM_016.jpg
631.927	0.415	1	0back	Block1	0back/STIM_016.jpg
635.82	0.553	0	0back	Block1	0back/STIM_017.jpg
639.39	0.691	1	0back	Block1	0back/STIM_017.jpg
643.18	0.525	1	0back	Block1	0back/STIM_017.jpg
646.622	0.687	1	0back	Block1	0back/STIM_018.jpg
649.34	0.474	1	0back	Block1	0back/STIM_018.jpg
652.117	0.494	1	0back	Block1	0back/STIM_018.jpg
655.039	0.584	1	0back	Block1	0back/STIM_019.jpg
657.977	0.571	1	0back	Block1	0back/STIM_019.jpg
662.348	0.514	0	0back	Block1	0back/STIM_019.jpg
665.923	0.896	1	2back	Block2	2back/STIM_000.jpg
668.822	0.519	0	2back	Block2	2back/STIM_000.jpg
672.383	0.615	1	2back	Block2	2back/STIM_000.jpg
676.956	0.961	1	2back	Block2	2back/STIM_001.jpg
680.782	0.912	0	2back	Block2	2back/STIM_001.jpg
685.387	0.858	1	2back	Block2	2back/STIM_001.jpg
689.787	0.84	1	2back	Block2	2back/STIM_002.jpg
693.992	0.426	0	2back	Block2	2back/STIM_002.jpg
696.836	0.54	1	2back	Block2	2back/STIM_002.jpg
701.18	0.5	1	2back	Block2	2back/STIM_003.jpg
704.763	0.558	0	2back	Block2	2back/STIM_003.jpg
709.087	0.478	1	2back	Block2	2back/STIM_003.jpg
712.551	0.664	0	2back	Block2	2back/STIM_004.jpg
715.508	0.618	1	2back	Block2	2back/STIM_004.jpg
719.993	0.602	0	2back	Block2	2back/STIM_004.jpg
723.906	0.675	1	2back	Block2	2back/STIM_005.jpg
726.68	0.968	1	2back	Block2	2back/STIM_005.jpg
730.149	0.77	0	2back	Block2	2back/STIM_005.jpg
734.809	0.777	1	2back	Block2	2back/STIM_006.jpg
739.302	0.807	1	2back	Block2	2back/STIM_006.jpg
743.651	0.775	1	2back	Block2	2back/STIM_006.jpg
748.284	0.533	1	2back	Block2	2back/STIM_007.jpg
751.08	0.913	1	2back	Block2	2back/STIM_007.jpg
754.749	0.642	1	2back	Block2	2back/STIM_007.jpg
759.024	0.608	1	2back	Block2	2back/STIM_008.jpg
762.74	0.597	1	2back	Block2	2back/STIM_008.jpg
765.417	0.7	1	2back	Block2	2back/STIM_008.jpg
768.994	1.021	1	2back	Block2	2back/STIM_009.jpg
773.548	0.88	0	2back	Block2	2back/STIM_009.jpg
778.373	0.493	1	2back	Block2	2back/STIM_009.jpg
780.962	0.598	1	2back	Block2	2back/STIM_010.jpg
785.294	0.425	1	2back	Block2	2back/STIM_010.jpg
788.31	0.781	0	2back	Block2	2back/STIM_010.jpg
791.095	0.516	1	2back	Block2	2back/STIM_011.jpg
794.869	0.877	0	2back	Block2	2back/STIM_011.jpg
798.827	0.924	1	2back	Block2	2back/STIM_011.jpg
802.087	0.529	1	2back	Block2	2back/STIM_012.jpg
805.84	0.825	1	2back	Block2	2back/STIM_012.jpg
809.058	0.817	0	2back	Block2	2back/STIM_012.jpg
813.566	0.552	1	2back	Block2	2back/STIM_013.jpg
817.95	0.684	0	2back	Block2	2back/STIM_013.jpg
822.151	0.699	1	2back	Block2	2back/STIM_013.jpg
824.87	0.602	1	2back	Block2	2back/STIM_014.jpg
828.834	0.655	0	2back	Block2	2back/STIM_014.jpg
831.993	0.774	1	2back	Block2	2back/STIM_014.jpg
836.384	0.69	1	2back	Block2	2back/STIM_015.jpg
839.439	0.749	0	2back	Block2	2back/STIM_015.jpg
842.745	0.49	0	2back	Block2	2back/STIM_015.jpg
845.308	0.609	0	2back	Block2	2back/STIM_016.jpg
848.519	0.489	0	2back	Block2	2back/STIM_016.jpg
852.861	0.769	1	2back	Block2	2back/STIM_016.jpg
857.541	0.7	1	2back	Block2	2back/STIM_017.jpg
861.837	0.806	1	2back	Block2	2back/STIM_017.jpg
866.002	0.406	1	2back	Block2	2back/STIM_017.jpg
870.182	0.834	0	2back	Block2	2back/STIM_018.jpg
873.19	0.672	0	2back	Block2	2back/STIM_018.jpg
876.395	0.811	1	2back	Block2	2back/STIM_018.jpg
879.599	0.95	1	2back	Block2	2back/STIM_019.jpg
884.107	0.915	1	2back	Block2	2back/STIM_019.jpg
887.683	0.708	1	2back	Block2	2back/STIM_019.jpg
892.293	0.873	0	2back	Block2	2back/STIM_020.jpg
895.923	0.426	1	2back	Block2	2back/STIM_020.jpg
900.342	0.845	1	2back	Block2	2back/STIM_020.jpg
903.433	0.508	0	2back	Block2	2back/STIM_021.jpg
906.776	0.858	1	2back	Block2	2back/STIM_021.jpg
910.407	0.418	1	2back	Block2	2back/STIM_021.jpg
914.427	0.656	0	2back	Block2	2back/STIM_022.jpg
918.393	0.619	1	2back	Block2	2back/STIM_022.jpg
921.54	0.614	1	2back	Block2	2back/STIM_022.jpg
925.426	0.918	0	2back	Block2	2back/STIM_023.jpg
930.225	0.864	0	2back	Block2	2back/STIM_023.jpg
934.632	0.872	0	2back	Block2	2back/STIM_023.jpg
939.028	0.576	0	2back	Block2	2back/STIM_024.jpg
941.852	0.742	1	2back	Block2	2back/STIM_024.jpg
944.681	0.416	0	2back	Block2	2back/STIM_024.jpg
947.133	1.044	1	2back	Block2	2back/STIM_025.jpg
951.767	0.926	1	2back	Block2	2back/STIM_025.jpg
955.135	0.847	0	2back	Block2	2back/STIM_025.jpg
958.379	0.805	0	2back	Block2	2back/STIM_026.jpg
961.635	0.919	0	2back	Block2	2back/STIM_026.jpg
966.379	0.622	1	2back	Block2	2back/STIM_026.jpg
970.328	0.96	1	2back	Block2	2back/STIM_027.jpg
973.881	0.986	0	2back	Block2	2back/STIM_027.jpg
977.241	0.49	1	2back	Block2	2back/STIM_027.jpg
979.982	1.012	1	2back	Block2	2back/STIM_028.jpg
983.218	0.466	0	2back	Block2	2back/STIM_028.jpg
987.672	0.828	0	2back	Block2	2back/STIM_028.jpg
992.382	0.47	0	2back	Block2	2back/STIM_029.jpg
994.892	0.515	1	2back	Block2	2back/STIM_029.jpg
999.331	0.549	1	2back	Block2	2back/STIM_029.jpg
1003.05	0.904	1	2back	Block2	2back/STIM_030.jpg
1006.964	0.937	1	2back	Block2	2back/STIM_030.jpg
1011.43	0.911	0	2back	Block2	2back/STIM_030.jpg
1014.836	0.63	1	2back	Block2	2back/STIM_031.jpg
1018.191	0.776	1	2back	Block2	2back/STIM_031.jpg
1021.163	0.622	1	2back	Block2	2back/STIM_031.jpg
1024.823	0.495	1	2back	Block2	2back/STIM_032.jpg
1028.147	0.912	1	2back	Block2	2back/STIM_032.jpg
1032.212	0.83	0	2back	Block2	2back/STIM_032.jpg
1035.243	0.97	1	2back	Block2	2back/STIM_033.jpg
1039.816	0.573	0	2back	Block2	2back/STIM_033.jpg
1043.795	0.87	0	2back	Block2	2back/STIM_033.jpg
1046.864	0.686	0	2back	Block2	2back/STIM_034.jpg
1050.366	0.594	1	2back	Block2	2back/STIM_034.jpg
1053.784	0.595	1	2back	Block2	2back/STIM_034.jpg
1058.143	0.796	1	2back	Block2	2back/STIM_035.jpg
1061.812	0.582	1	2back	Block2	2back/STIM_035.jpg
1066.016	0.907	0	2back	Block2	2back/STIM_035.jpg
1069.78	0.953	0	2back	Block2	2back/STIM_036.jpg
1074.64	0.817	0	2back	Block2	2back/STIM_036.jpg
1079.06	0.737	0	2back	Block2	2back/STIM_036.jpg
1083.652	0.703	0	2back	Block2	2back/STIM_037.jpg
1087.121	0.494	1	2back	Block2	2back/STIM_037.jpg
1090.861	0.537	1	2back	Block2	2back/STIM_037.jpg
1093.889	0.724	1	2back	Block2	2back/STIM_038.jpg
1097.41	0.653	1	2back	Block2	2back/STIM_038.jpg
1100.811	0.78	1	2back	Block2	2back/STIM_038.jpg
1105.17	0.846	1	2back	Block2	2back/STIM_039.jpg
1108.049	0.898	0	2back	Block2	2back/STIM_039.jpg
1112.3	0.572	0	2back	Block2	2back/STIM_039.jpg
1116.769	0.618	1	0back	Block2	0back/STIM_000.jpg
1121.042	0.366	1	0back	Block2	0back/STIM_000.jpg
1123.964	0.356	1	0back	Block2	0back/STIM_000.jpg
1127.4	0.389	1	0back	Block2	0back/STIM_001.jpg
1131.258	0.489	1	0back	Block2	0back/STIM_001.jpg
1133.771	0.438	1	0back	Block2	0back/STIM_001.jpg
1136.705	0.367	1	0back	Block2	0back/STIM_002.jpg
1139.434	0.468	1	0back	Block2	0back/STIM_002.jpg
1143.249	0.385	1	0back	Block2	0back/STIM_002.jpg
1146.961	0.4	1	0back	Block2	0back/STIM_003.jpg
1151.239	0.645	1	0back	Block2	0back/STIM_003.jpg
1155.534	0.647	1	0back	Block2	0back/STIM_003.jpg
1158.702	0.45	1	0back	Block2	0back/STIM_004.jpg
1162.237	0.618	1	0back	Block2	0back/STIM_004.jpg
1166.003	0.64	1	0back	Block2	0back/STIM_004.jpg
1170.461	0.48	1	0back	Block2	0back/STIM_005.jpg
1172.986	0.588	1	0back	Block2	0back/STIM_005.jpg
1176.042	0.442	1	0back	Block2	0back/STIM_005.jpg
1178.555	0.404	1	0back	Block2	0back/STIM_006.jpg
1181.663	0.52	0	0back	Block2	0back/STIM_006.jpg
1185.269	0.425	1	0back	Block2	0back/STIM_006.jpg
1188.145	0.383	1	0back	Block2	0back/STIM_007.jpg
1191.601	0.377	1	0back	Block2	0back/STIM_007.jpg
1194.468	0.48	1	0back	Block2	0back/STIM_007.jpg
1197.927	0.585	1	0back	Block2	0back/STIM_008.jpg
1200.972	0.562	1	0back	Block2	0back/STIM_008.jpg
1204.067	0.45	1	0back	Block2	0back/STIM_008.jpg
1208.211	0.607	0	0back	Block2	0back/STIM_009.jpg
1211.313	0.551	1	0back	Block2	0back/STIM_009.jpg
1215.111	0.374	0	0back	Block2	0back/STIM_009.jpg
1217.909	0.534	1	0back	Block2	0back/STIM_010.jpg
1221.355	0.665	1	0back	Block2	0back/STIM_010.jpg
1225.684	0.514	1	0back	Block2	0back/STIM_010.jpg
1229.727	0.636	1	0back	Block2	0back/STIM_011.jpg
1233.395	0.673	0	0back	Block2	0back/STIM_011.jpg
1236.138	0.614	1	0back	Block2	0back/STIM_011.jpg
1240.331	0.55	1	0back	Block2	0back/STIM_012.jpg
1243.94	0.509	0	0back	Block2	0back/STIM_012.jpg
1247.087	0.356	1	0back	Block2	0back/STIM_012.jpg
1250.68	0.545	0	0back	Block2	0back/STIM_013.jpg
1254.425	0.549	1	0back	Block2	0back/STIM_013.jpg
1257.61	0.48	1	0back	Block2	0back/STIM_013.jpg
1260.166	0.357	1	0back	Block2	0back/STIM_014.jpg
1262.568	0.469	1	0back	Block2	0back/STIM_014.jpg
1265.247	0.541	0	0back	Block2	0back/STIM_014.jpg
1268.895	0.516	0	0back	Block2	0back/STIM_015.jpg
1271.585	0.534	1	0back	Block2	0back/STIM_015.jpg
1274.649	0.487	1	0back	Block2	0back/STIM_015.jpg
1278.526	0.49	0	0back	Block2	0back/STIM_016.jpg
1282.344	0.529	1	0back	Block2	0back/STIM_016.jpg
1286.476	0.557	1	0back	Block2	0back/STIM_016.jpg
1290.327	0.564	1	0back	Block2	0back/STIM_017.jpg
1294.41	0.366	0	0back	Block2	0back/STIM_017.jpg
1298.349	0.545	1	0back	Block2	0back/STIM_017.jpg
1302.161	0.566	1	0back	Block2	0back/STIM_018.jpg
1306.141	0.396	0	0back	Block2	0back/STIM_018.jpg
1309.965	0.632	1	0back	Block2	0back/STIM_018.jpg
1314.454	0.4	0	0back	Block2	0back/STIM_019.jpg
1318.181	0.579	1	0back	Block2	0back/STIM_019.jpg
1322.717	0.613	1	0back	Block2	0back/STIM_019.jpg
1326.688	0.637	0	2back	Block3	2back/STIM_000.jpg
1330.894	0.689	1	2back	Block3	2back/STIM_000.jpg
1334.195	0.677	1	2back	Block3	2back/STIM_000.jpg
1337.881	0.587	1	2back	Block3	2back/STIM_001.jpg
1341.616	0.41	0	2back	Block3	2back/STIM_001.jpg
1345.158	0.724	1	2back	Block3	2back/STIM_001.jpg
1348.573	0.377	1	2back	Block3	2back/STIM_002.jpg
1351.962	0.613	1	2back	Block3	2back/STIM_002.jpg
1355.967	0.623	0	2back	Block3	2back/STIM_002.jpg
1359.501	0.499	1	2back	Block3	2back/STIM_003.jpg
1362.195	0.529	0	2back	Block3	2back/STIM_003.jpg
1366.35	0.533	1	2back	Block3	2back/STIM_003.jpg
1369.262	0.84	1	2back	Block3	2back/STIM_004.jpg
1372.192	0.683	1	2back	Block3	2back/STIM_004.jpg
1375.312	0.376	1	2back	Block3	2back/STIM_004.jpg
1378.287	0.851	1	2back	Block3	2back/STIM_005.jpg
1382.099	0.437	1	2back	Block3	2back/STIM_005.jpg
1385.68	0.61	1	2back	Block3	2back/STIM_005.jpg
1389.831	0.414	1	2back	Block3	2back/STIM_006.jpg
1393.623	0.849	1	2back	Block3	2back/STIM_006.jpg
1397.53	0.379	1	2back	Block3	2back/STIM_006.jpg
1401.788	0.82	1	2back	Block3	2back/STIM_007.jpg
1405.921	0.686	0	2back	Block3	2back/STIM_007.jpg
1409.348	0.494	0	2back	Block3	2back/STIM_007.jpg
1412.545	0.782	1	2back	Block3	2back/STIM_008.jpg
1416.369	0.862	1	2back	Block3	2back/STIM_008.jpg
1419.911	0.488	1	2back	Block3	2back/STIM_008.jpg
1423.253	0.653	0	2back	Block3	2back/STIM_009.jpg
1426.122	0.816	0	2back	Block3	2back/STIM_009.jpg
1430.407	0.498	1	2back	Block3	2back/STIM_009.jpg
1434.235	0.813	1	2back	Block3	2back/STIM_010.jpg
1438.145	0.749	1	2back	Block3	2back/STIM_010.jpg
1442.599	0.643	0	2back	Block3	2back/STIM_010.jpg
1445.27	0.649	1	2back	Block3	2back/STIM_011.jpg
1449.655	0.802	1	2back	Block3	2back/STIM_011.jpg
1453.512	0.436	1	2back	Block3	2back/STIM_011.jpg
1456.94	0.706	0	2back	Block3	2back/STIM_012.jpg
1461.108	0.824	1	2back	Block3	2back/STIM_012.jpg
1465.72	0.599	1	2back	Block3	2back/STIM_012.jpg
1468.789	0.767	0	2back	Block3	2back/STIM_013.jpg
1471.928	0.826	1	2back	Block3	2back/STIM_013.jpg
1476.231	0.601	1	2back	Block3	2back/STIM_013.jpg
1480.457	0.737	1	2back	Block3	2back/STIM_014.jpg
1484.131	0.686	1	2back	Block3	2back/STIM_014.jpg
1487.709	0.743	1	2back	Block3	2back/STIM_014.jpg
1491.015	0.786	1	2back	Block3	2back/STIM_015.jpg
1495.197	0.671	0	2back	Block3	2back/STIM_015.jpg
1498.929	0.769	1	2back	Block3	2back/STIM_015.jpg
1503.254	0.647	1	2back	Block3	2back/STIM_016.jpg
1506.488	0.557	1	2back	Block3	2back/STIM_016.jpg
1510.774	0.399	1	2back	Block3	2back/STIM_016.jpg
1513.524	0.395	1	2back	Block3	2back/STIM_017.jpg
1517.351	0.83	0	2back	Block3	2back/STIM_017.jpg
1521.947	0.433	0	2back	Block3	2back/STIM_017.jpg
1524.714	0.625	0	2back	Block3	2back/STIM_018.jpg
1528.051	0.727	1	2back	Block3	2back/STIM_018.jpg
1531.076	0.662	1	2back	Block3	2back/STIM_018.jpg
1533.936	0.863	1	2back	Block3	2back/STIM_019.jpg
1537.583	0.636	1	2back	Block3	2back/STIM_019.jpg
1541.227	0.584	1	2back	Block3	2back/STIM_019.jpg
1545.355	0.565	0	2back	Block3	2back/STIM_020.jpg
1549.04	0.803	0	2back	Block3	2back/STIM_020.jpg
1552.826	0.783	0	2back	Block3	2back/STIM_020.jpg
1557.228	0.564	1	2back	Block3	2back/STIM_021.jpg
1561.53	0.863	1	2back	Block3	2back/STIM_021.jpg
1565.26	0.382	0	2back	Block3	2back/STIM_021.jpg
1569.297	0.857	1	2back	Block3	2back/STIM_022.jpg
1572.566	0.451	1	2back	Block3	2back/STIM_022.jpg
1576.117	0.823	1	2back	Block3	2back/STIM_022.jpg
1580.892	0.855	1	2back	Block3	2back/STIM_023.jpg
1584.471	0.631	0	2back	Block3	2back/STIM_023.jpg
1588.42	0.84	1	2back	Block3	2back/STIM_023.jpg
1592.704	0.532	0	2back	Block3	2back/STIM_024.jpg
1597.072	0.467	1	2back	Block3	2back/STIM_024.jpg
1601.124	0.584	1	2back	Block3	2back/STIM_024.jpg
1604.196	0.657	1	2back	Block3	2back/STIM_025.jpg
1607.885	0.525	0	2back	Block3	2back/STIM_025.jpg
1610.544	0.597	1	2back	Block3	2back/STIM_025.jpg
1615.06	0.626	0	2back	Block3	2back/STIM_026.jpg
1618.865	0.829	1	2back	Block3	2back/STIM_026.jpg
1621.783	0.574	0	2back	Block3	2back/STIM_026.jpg
1625.55	0.391	1	2back	Block3	2back/STIM_027.jpg
1628.352	0.762	0	2back	Block3	2back/STIM_027.jpg
1631.125	0.526	1	2back	Block3	2back/STIM_027.jpg
1634.665	0.529	1	2back	Block3	2back/STIM_028.jpg
1639.03	0.68	1	2back	Block3	2back/STIM_028.jpg
1642.137	0.675	1	2back	Block3	2back/STIM_028.jpg
1644.858	0.792	1	2back	Block3	2back/STIM_029.jpg
1648.475	0.772	1	2back	Block3	2back/STIM_029.jpg
1653.048	0.606	1	2back	Block3	2back/STIM_029.jpg
1656.898	0.442	1	2back	Block3	2back/STIM_030.jpg
1659.572	0.452	1	2back	Block3	2back/STIM_030.jpg
1662.237	0.772	1	2back	Block3	2back/STIM_030.jpg
1666.63	0.493	1	2back	Block3	2back/STIM_031.jpg
1670.051	0.857	0	2back	Block3	2back/STIM_031.jpg
1672.911	0.84	0	2back	Block3	2back/STIM_031.jpg
1676.06	0.668	0	2back	Block3	2back/STIM_032.jpg
1680.711	0.719	1	2back	Block3	2back/STIM_032.jpg
1684.727	0.78	0	2back	Block3	2back/STIM_032.jpg
1689.334	0.797	1	2back	Block3	2back/STIM_033.jpg
1693.855	0.584	0	2back	Block3	2back/STIM_033.jpg
1697.532	0.816	1	2back	Block3	2back/STIM_033.jpg
1702.067	0.658	1	2back	Block3	2back/STIM_034.jpg
1705.947	0.471	1	2back	Block3	2back/STIM_034.jpg
1708.43	0.374	1	2back	Block3	2back/STIM_034.jpg
1710.892	0.384	1	2back	Block3	2back/STIM_035.jpg
1713.435	0.858	0	2back	Block3	2back/STIM_035.jpg
1717.693	0.631	1	2back	Block3	2back/STIM_035.jpg
1721.508	0.769	0	2back	Block3	2back/STIM_036.jpg
1725.809	0.677	0	2back	Block3	2back/STIM_036.jpg
1729.841	0.728	0	2back	Block3	2back/STIM_036.jpg
1734.485	0.626	1	2back	Block3	2back/STIM_037.jpg
1737.269	0.819	1	2back	Block3	2back/STIM_037.jpg
1741.6	0.404	1	2back	Block3	2back/STIM_037.jpg
1744.103	0.843	1	2back	Block3	2back/STIM_038.jpg
1748.271	0.534	0	2back	Block3	2back/STIM_038.jpg
1752.69	0.643	1	2back	Block3	2back/STIM_038.jpg
1756.395	0.582	1	2back	Block3	2back/STIM_039.jpg
1759.085	0.792	1	2back	Block3	2back/STIM_039.jpg
1762.441	0.585	1	2back	Block3	2back/STIM_039.jpg
1766.943	0.357	1	0back	Block3	0back/STIM_000.jpg
1769.838	0.459	1	0back	Block3	0back/STIM_000.jpg
1772.645	0.54	1	0back	Block3	0back/STIM_000.jpg
1776.891	0.424	1	0back	Block3	0back/STIM_001.jpg
1780.16	0.53	1	0back	Block3	0back/STIM_001.jpg
1782.828	0.514	0	0back	Block3	0back/STIM_001.jpg
1787.115	0.508	0	0back	Block3	0back/STIM_002.jpg
1791.165	0.388	1	0back	Block3	0back/STIM_002.jpg
1794.255	0.374	1	0back	Block3	0back/STIM_002.jpg
1797.016	0.527	0	0back	Block3	0back/STIM_003.jpg
1799.764	0.468	1	0back	Block3	0back/STIM_003.jpg
1803.88	0.398	1	0back	Block3	0back/STIM_003.jpg
1808.022	0.479	1	0back	Block3	0back/STIM_004.jpg
1810.686	0.397	0	0back	Block3	0back/STIM_004.jpg
1814.135	0.677	1	0back	Block3	0back/STIM_004.jpg
1817.196	0.482	1	0back	Block3	0back/STIM_005.jpg
1821.37	0.464	0	0back	Block3	0back/STIM_005.jpg
1825.43	0.471	1	0back	Block3	0back/STIM_005.jpg
1828.103	0.425	1	0back	Block3	0back/STIM_006.jpg
1832.313	0.414	0	0back	Block3	0back/STIM_006.jpg
1835.016	0.654	1	0back	Block3	0back/STIM_006.jpg
1838.605	0.667	1	0back	Block3	0back/STIM_007.jpg
1841.608	0.517	1	0back	Block3	0back/STIM_007.jpg
1844.404	0.644	1	0back	Block3	0back/STIM_007.jpg
1848.545	0.576	1	0back	Block3	0back/STIM_008.jpg
1851.176	0.501	0	0back	Block3	0back/STIM_008.jpg
1855.148	0.595	1	0back	Block3	0back/STIM_008.jpg
1858.359	0.489	1	0back	Block3	0back/STIM_009.jpg
1861.582	0.528	0	0back	Block3	0back/STIM_009.jpg
1865.72	0.551	1	0back	Block3	0back/STIM_009.jpg
1868.916	0.566	1	0back	Block3	0back/STIM_010.jpg
1872.257	0.469	0	0back	Block3	0back/STIM_010.jpg
1875.656	0.388	1	0back	Block3	0back/STIM_010.jpg
1880.019	0.42	1	0back	Block3	0back/STIM_011.jpg
1883.441	0.455	1	0back	Block3	0back/STIM_011.jpg
1886.963	0.623	1	0back	Block3	0back/STIM_011.jpg
1891.536	0.675	1	0back	Block3	0back/STIM_012.jpg
1894.305	0.402	1	0back	Block3	0back/STIM_012.jpg
1898.574	0.505	1	0back	Block3	0back/STIM_012.jpg
1902.548	0.564	1	0back	Block3	0back/STIM_013.jpg
1906.978	0.402	1	0back	Block3	0back/STIM_013.jpg
1910.282	0.537	1	0back	Block3	0back/STIM_013.jpg
1913.445	0.482	0	0back	Block3	0back/STIM_014.jpg
1916.732	0.56	1	0back	Block3	0back/STIM_014.jpg
1920.047	0.604	1	0back	Block3	0back/STIM_014.jpg
1924.009	0.437	0	0back	Block3	0back/STIM_015.jpg
1927.361	0.454	1	0back	Block3	0back/STIM_015.jpg
1929.924	0.421	1	0back	Block3	0back/STIM_015.jpg
1932.593	0.484	1	0back	Block3	0back/STIM_016.jpg
1935.841	0.364	1	0back	Block3	0back/STIM_016.jpg
1939.217	0.362	1	0back	Block3	0back/STIM_016.jpg
1942.267	0.387	1	0back	Block3	0back/STIM_017.jpg
1945.729	0.397	1	0back	Block3	0back/STIM_017.jpg
1949.725	0.359	0	0back	Block3	0back/STIM_017.jpg
1952.831	0.575	1	0back	Block3	0back/STIM_018.jpg
1957.379	0.359	1	0back	Block3	0back/STIM_018.jpg
1960.244	0.474	1	0back	Block3	0back/STIM_018.jpg
1963.406	0.491	1	0back	Block3	0back/STIM_019.jpg
1966.716	0.427	0	0back	Block3	0back/STIM_019.jpg
1969.926	0.688	1	0back	Block3	0back/STIM_019.jpg
1972.903	0.405	1	2back	Block4	2back/STIM_000.jpg
1975.575	0.784	1	2back	Block4	2back/STIM_000.jpg
1979.802	0.688	1	2back	Block4	2back/STIM_000.jpg
1982.959	0.655	1	2back	Block4	2back/STIM_001.jpg
1986.393	0.814	1	2back	Block4	2back/STIM_001.jpg
1990.998	0.461	1	2back	Block4	2back/STIM_001.jpg
1994.551	0.711	0	2back	Block4	2back/STIM_002.jpg
1997.871	0.497	1	2back	Block4	2back/STIM_002.jpg
2001.017	0.795	1	2back	Block4	2back/STIM_002.jpg
2005.5	0.82	1	2back	Block4	2back/STIM_003.jpg
2008.876	0.773	1	2back	Block4	2back/STIM_003.jpg
2013.236	0.681	1	2back	Block4	2back/STIM_003.jpg
2015.963	0.423	0	2back	Block4	2back/STIM_004.jpg
2019.402	0.44	1	2back	Block4	2back/STIM_004.jpg
2022.592	0.566	1	2back	Block4	2back/STIM_004.jpg
2025.87	0.656	0	2back	Block4	2back/STIM_005.jpg
2029.24	0.543	1	2back	Block4	2back/STIM_005.jpg
2031.988	0.824	1	2back	Block4	2back/STIM_005.jpg
2036.071	0.453	1	2back	Block4	2back/STIM_006.jpg
2039.226	0.409	1	2back	Block4	2back/STIM_006.jpg
2042.231	0.755	1	2back	Block4	2back/STIM_006.jpg
2046.62	0.83	1	2back	Block4	2back/STIM_007.jpg
2050.33	0.825	1	2back	Block4	2back/STIM_007.jpg
2054.05	0.524	1	2back	Block4	2back/STIM_007.jpg
2057.589	0.378	1	2back	Block4	2back/STIM_008.jpg
2060.195	0.519	1	2back	Block4	2back/STIM_008.jpg
2064.432	0.794	1	2back	Block4	2back/STIM_008.jpg
2067.626	0.619	1	2back	Block4	2back/STIM_009.jpg
2071.688	0.591	0	2back	Block4	2back/STIM_009.jpg
2075.454	0.851	1	2back	Block4	2back/STIM_009.jpg
2079.753	0.417	1	2back	Block4	2back/STIM_010.jpg
2082.173	0.832	0	2back	Block4	2back/STIM_010.jpg
2086.215	0.668	0	2back	Block4	2back/STIM_010.jpg
2089.04	0.523	1	2back	Block4	2back/STIM_011.jpg
2091.626	0.594	1	2back	Block4	2back/STIM_011.jpg
2096.216	0.746	1	2back	Block4	2back/STIM_011.jpg
2099.007	0.681	1	2back	Block4	2back/STIM_012.jpg
2102.197	0.742	0	2back	Block4	2back/STIM_012.jpg
2106.641	0.8	1	2back	Block4	2back/STIM_012.jpg
2111.403	0.621	1	2back	Block4	2back/STIM_013.jpg
2115.906	0.435	1	2back	Block4	2back/STIM_013.jpg
2118.94	0.37	1	2back	Block4	2back/STIM_013.jpg
2121.52	0.564	0	2back	Block4	2back/STIM_014.jpg
2125.907	0.75	1	2back	Block4	2back/STIM_014.jpg
2129.696	0.784	1	2back	Block4	2back/STIM_014.jpg
2132.545	0.56	1	2back	Block4	2back/STIM_015.jpg
2135.573	0.392	1	2back	Block4	2back/STIM_015.jpg
2139.009	0.549	1	2back	Block4	2back/STIM_015.jpg
2142.586	0.394	1	2back	Block4	2back/STIM_016.jpg
2145.01	0.842	1	2back	Block4	2back/STIM_016.jpg
2147.937	0.743	1	2back	Block4	2back/STIM_016.jpg
2150.905	0.455	1	2back	Block4	2back/STIM_017.jpg
2154.45	0.486	1	2back	Block4	2back/STIM_017.jpg
2158.151	0.534	1	2back	Block4	2back/STIM_017.jpg
2161.994	0.454	1	2back	Block4	2back/STIM_018.jpg
2166.106	0.581	0	2back	Block4	2back/STIM_018.jpg
2170.221	0.799	1	2back	Block4	2back/STIM_018.jpg
2173.312	0.667	1	2back	Block4	2back/STIM_019.jpg
2177.004	0.507	1	2back	Block4	2back/STIM_019.jpg
2181.011	0.734	1	2back	Block4	2back/STIM_019.jpg
2184.501	0.71	1	2back	Block4	2back/STIM_020.jpg
2188.383	0.414	1	2back	Block4	2back/STIM_020.jpg
2191.042	0.445	1	2back	Block4	2back/STIM_020.jpg
2194.15	0.515	0	2back	Block4	2back/STIM_021.jpg
2198.543	0.716	0	2back	Block4	2back/STIM_021.jpg
2201.269	0.836	1	2back	Block4	2back/STIM_021.jpg
2205.507	0.524	1	2back	Block4	2back/STIM_022.jpg
2208.322	0.703	1	2back	Block4	2back/STIM_022.jpg
2212.781	0.513	1	2back	Block4	2back/STIM_022.jpg
2216.45	0.55	1	2back	Block4	2back/STIM_023.jpg
2220.657	0.567	1	2back	Block4	2back/STIM_023.jpg
2223.453	0.694	1	2back	Block4	2back/STIM_023.jpg
2227.234	0.411	1	2back	Block4	2back/STIM_024.jpg
2229.841	0.521	0	2back	Block4	2back/STIM_024.jpg
2232.457	0.455	1	2back	Block4	2back/STIM_024.jpg
2235.817	0.617	1	2back	Block4	2back/STIM_025.jpg
2238.534	0.687	1	2back	Block4	2back/STIM_025.jpg
2241.602	0.534	1	2back	Block4	2back/STIM_025.jpg
2244.995	0.655	1	2back	Block4	2back/STIM_026.jpg
2248.87	0.474	1	2back	Block4	2back/STIM_026.jpg
2251.72	0.48	1	2back	Block4	2back/STIM_026.jpg
2254.996	0.861	1	2back	Block4	2back/STIM_027.jpg
2259.378	0.851	1	2back	Block4	2back/STIM_027.jpg
2263.631	0.726	1	2back	Block4	2back/STIM_027.jpg
2268.337	0.509	1	2back	Block4	2back/STIM_028.jpg
2270.907	0.537	1	2back	Block4	2back/STIM_028.jpg
2274.368	0.514	1	2back	Block4	2back/STIM_028.jpg
2277.132	0.67	1	2back	Block4	2back/STIM_029.jpg
2280.214	0.801	1	2back	Block4	2back/STIM_029.jpg
2283.655	0.371	1	2back	Block4	2back/STIM_029.jpg
2286.498	0.436	1	2back	Block4	2back/STIM_030.jpg
2289.133	0.435	0	2back	Block4	2back/STIM_030.jpg
2293.299	0.855	1	2back	Block4	2back/STIM_030.jpg
2297.421	0.578	0	2back	Block4	2back/STIM_031.jpg
2300.161	0.818	0	2back	Block4	2back/STIM_031.jpg
2304.717	0.802	1	2back	Block4	2back/STIM_031.jpg
2307.9	0.535	1	2back	Block4	2back/STIM_032.jpg
2310.828	0.687	1	2back	Block4	2back/STIM_032.jpg
2313.95	0.751	1	2back	Block4	2back/STIM_032.jpg
2317.153	0.673	1	2back	Block4	2back/STIM_033.jpg
2320.275	0.668	1	2back	Block4	2back/STIM_033.jpg
2323.431	0.473	1	2back	Block4	2back/STIM_033.jpg
2327.389	0.583	1	2back	Block4	2back/STIM_034.jpg
2330.016	0.406	0	2back	Block4	2back/STIM_034.jpg
2333.817	0.731	0	2back	Block4	2back/STIM_034.jpg
2337.296	0.744	1	2back	Block4	2back/STIM_035.jpg
2340.87	0.413	1	2back	Block4	2back/STIM_035.jpg
2344.591	0.615	1	2back	Block4	2back/STIM_035.jpg
2348.598	0.378	1	2back	Block4	2back/STIM_036.jpg
2351.974	0.837	0	2back	Block4	2back/STIM_036.jpg
2356.231	0.858	1	2back	Block4	2back/STIM_036.jpg
2360.171	0.445	1	2back	Block4	2back/STIM_037.jpg
2364.155	0.746	1	2back	Block4	2back/STIM_037.jpg
2368.209	0.813	1	2back	Block4	2back/STIM_037.jpg
2372.737	0.52	0	2back	Block4	2back/STIM_038.jpg
2375.311	0.805	1	2back	Block4	2back/STIM_038.jpg
2379.102	0.553	1	2back	Block4	2back/STIM_038.jpg
2382.871	0.73	0	2back	Block4	2back/STIM_039.jpg
2386.926	0.507	1	2back	Block4	2back/STIM_039.jpg
2390.514	0.404	1	2back	Block4	2back/STIM_039.jpg
2394.159	0.694	1	0back	Block4	0back/STIM_000.jpg
2398.768	0.493	1	0back	Block4	0back/STIM_000.jpg
2402.566	0.563	1	0back	Block4	0back/STIM_000.jpg
2405.317	0.498	1	0back	Block4	0back/STIM_001.jpg
2408.601	0.413	1	0back	Block4	0back/STIM_001.jpg
2412.167	0.611	1	0back	Block4	0back/STIM_001.jpg
2414.784	0.446	1	0back	Block4	0back/STIM_002.jpg
2417.81	0.704	1	0back	Block4	0back/STIM_002.jpg
2422.342	0.403	1	0back	Block4	0back/STIM_002.jpg
2425.16	0.517	1	0back	Block4	0back/STIM_003.jpg
2427.741	0.428	1	0back	Block4	0back/STIM_003.jpg
2431.517	0.62	0	0back	Block4	0back/STIM_003.jpg
2435.566	0.432	0	0back	Block4	0back/STIM_004.jpg
2439.379	0.59	1	0back	Block4	0back/STIM_004.jpg
2442.322	0.54	1	0back	Block4	0back/STIM_004.jpg
2446.854	0.655	1	0back	Block4	0back/STIM_005.jpg
2451.115	0.474	1	0back	Block4	0back/STIM_005.jpg
2454.74	0.469	1	0back	Block4	0back/STIM_005.jpg
2459.086	0.636	1	0back	Block4	0back/STIM_006.jpg
2463.385	0.456	1	0back	Block4	0back/STIM_006.jpg
2467.232	0.575	1	0back	Block4	0back/STIM_006.jpg
2470.545	0.518	0	0back	Block4	0back/STIM_007.jpg
2473.785	0.695	1	0back	Block4	0back/STIM_007.jpg
2477.654	0.669	1	0back	Block4	0back/STIM_007.jpg
2481.191	0.356	1	0back	Block4	0back/STIM_008.jpg
2485.524	0.523	1	0back	Block4	0back/STIM_008.jpg
2488.653	0.566	1	0back	Block4	0back/STIM_008.jpg
2492.67	0.378	0	0back	Block4	0back/STIM_009.jpg
2495.91	0.353	0	0back	Block4	0back/STIM_009.jpg
2498.898	0.537	0	0back	Block4	0back/STIM_009.jpg
2501.716	0.465	0	0back	Block4	0back/STIM_010.jpg
2505.896	0.49	1	0back	Block4	0back/STIM_010.jpg
2508.816	0.415	1	0back	Block4	0back/STIM_010.jpg
2512.402	0.363	1	0back	Block4	0back/STIM_011.jpg
2516.678	0.546	1	0back	Block4	0back/STIM_011.jpg
2520.952	0.618	1	0back	Block4	0back/STIM_011.jpg
2524.061	0.407	1	0back	Block4	0back/STIM_012.jpg
2526.566	0.634	1	0back	Block4	0back/STIM_012.jpg
2530.782	0.532	1	0back	Block4	0back/STIM_012.jpg
2533.846	0.482	0	0back	Block4	0back/STIM_013.jpg
2537.648	0.409	1	0back	Block4	0back/STIM_013.jpg
2540.727	0.614	0	0back	Block4	0back/STIM_013.jpg
2544.182	0.701	1	0back	Block4	0back/STIM_014.jpg
2547.135	0.393	1	0back	Block4	0back/STIM_014.jpg
2550.161	0.462	0	0back	Block4	0back/STIM_014.jpg
2553.71	0.579	0	0back	Block4	0back/STIM_015.jpg
2557.631	0.524	1	0back	Block4	0back/STIM_015.jpg
2561.666	0.475	1	0back	Block4	0back/STIM_015.jpg
2565.088	0.535	0	0back	Block4	0back/STIM_016.jpg
2568.955	0.572	1	0back	Block4	0back/STIM_016.jpg
2573.49	0.693	1	0back	Block4	0back/STIM_016.jpg
2577.88	0.672	0	0back	Block4	0back/STIM_017.jpg
2580.726	0.416	0	0back	Block4	0back/STIM_017.jpg
2584.011	0.702	1	0back	Block4	0back/STIM_017.jpg
2588.206	0.671	1	0back	Block4	0back/STIM_018.jpg
2591.922	0.445	0	0back	Block4	0back/STIM_018.jpg
2594.949	0.467	1	0back	Block4	0back/STIM_018.jpg
2599.021	0.451	0	0back	Block4	0back/STIM_019.jpg
2602.586	0.499	1	0back	Block4	0back/STIM_019.jpg
2606.339	0.671	1	0back	Block4	0back/STIM_019.jpg
