onset	duration	accuracy_binary	trial_type	learning_stage	stimulus
0.0	1.089	1	incongruent	Block1	incongruent/STIM_000.jpg
3.458	1.506	1	incongruent	Block1	incongruent/STIM_000.jpg
7.35	1.042	1	incongruent	Block1	incongruent/STIM_000.jpg
11.262	1.244	1	incongruent	Block1	incongruent/STIM_000.jpg
15.947	1.207	1	incongruent	Block1	incongruent/STIM_000.jpg
19.614	1.431	0	incongruent	Block1	incongruent/STIM_001.jpg
24.899	0.882	1	incongruent	Block1	incongruent/STIM_001.jpg
27.938	0.789	1	incongruent	Block1	incongruent/STIM_001.jpg
31.646	0.702	1	incongruent	Block1	incongruent/STIM_001.jpg
36.106	1.001	1	incongruent	Block1	incongruent/STIM_001.jpg
40.769	1.467	1	incongruent	Block1	incongruent/STIM_002.jpg
45.323	0.931	1	incongruent	Block1	incongruent/STIM_002.jpg
48.827	0.892	1	incongruent	Block1	incongruent/STIM_002.jpg
51.766	1.091	1	incongruent	Block1	incongruent/STIM_002.jpg
56.028	1.294	1	incongruent	Block1	incongruent/STIM_002.jpg
60.839	1.453	1	incongruent	Block1	incongruent/STIM_003.jpg
64.975	0.927	1	incongruent	Block1	incongruent/STIM_003.jpg
68.683	0.796	1	incongruent	Block1	incongruent/STIM_003.jpg
73.408	1.312	1	incongruent	Block1	incongruent/STIM_003.jpg
78.243	1.077	1	incongruent	Block1	incongruent/STIM_003.jpg
81.591	1.459	1	incongruent	Block1	incongruent/STIM_004.jpg
85.267	0.75	1	incongruent	Block1	incongruent/STIM_004.jpg
88.815	1.109	1	incongruent	Block1	incongruent/STIM_004.jpg
93.706	1.187	1	incongruent	Block1	incongruent/STIM_004.jpg
97.714	0.861	1	incongruent	Block1	incongruent/STIM_004.jpg
102.566	1.158	1	incongruent	Block1	incongruent/STIM_005.jpg
106.666	1.387	1	incongruent	Block1	incongruent/STIM_005.jpg
111.585	1.371	1	incongruent	Block1	incongruent/STIM_005.jpg
115.11	0.888	1	incongruent	Block1	incongruent/STIM_005.jpg
118.816	1.058	1	incongruent	Block1	incongruent/STIM_005.jpg
122.281	1.003	1	incongruent	Block1	incongruent/STIM_006.jpg
125.928	1.159	1	incongruent	Block1	incongruent/STIM_006.jpg
130.481	1.011	0	incongruent	Block1	incongruent/STIM_006.jpg
134.401	1.211	1	incongruent	Block1	incongruent/STIM_006.jpg
138.964	0.874	1	incongruent	Block1	incongruent/STIM_006.jpg
142.39	1.38	1	incongruent	Block1	incongruent/STIM_007.jpg
147.1	0.864	1	incongruent	Block1	incongruent/STIM_007.jpg
151.91	0.949	1	incongruent	Block1	incongruent/STIM_007.jpg
156.365	1.119	1	incongruent	Block1	incongruent/STIM_007.jpg
159.699	0.957	1	incongruent	Block1	incongruent/STIM_007.jpg
162.806	1.539	1	incongruent	Block1	incongruent/STIM_008.jpg
167.157	1.369	1	incongruent	Block1	incongruent/STIM_008.jpg
171.187	1.144	1	incongruent	Block1	incongruent/STIM_008.jpg
176.311	1.12	1	incongruent	Block1	incongruent/STIM_008.jpg
181.369	0.715	1	incongruent	Block1	incongruent/STIM_008.jpg
185.433	1.197	1	incongruent	Block1	incongruent/STIM_009.jpg
190.428	1.126	1	incongruent	Block1	incongruent/STIM_009.jpg
195.48	0.945	1	incongruent	Block1	incongruent/STIM_009.jpg
199.463	1.38	0	incongruent	Block1	incongruent/STIM_009.jpg
204.145	1.218	1	incongruent	Block1	incongruent/STIM_009.jpg
207.546	1.33	1	incongruent	Block1	incongruent/STIM_010.jpg
211.504	1.333	1	incongruent	Block1	incongruent/STIM_010.jpg
214.956	0.747	1	incongruent	Block1	incongruent/STIM_010.jpg
218.37	1.101	1	incongruent	Block1	incongruent/STIM_010.jpg
221.819	0.736	1	incongruent	Block1	incongruent/STIM_010.jpg
225.436	1.341	1	incongruent	Block1	incongruent/STIM_011.jpg
230.679	1.208	1	incongruent	Block1	incongruent/STIM_011.jpg
234.473	0.864	1	incongruent	Block1	incongruent/STIM_011.jpg
238.414	1.23	1	incongruent	Block1	incongruent/STIM_011.jpg
242.154	0.873	1	incongruent	Block1	incongruent/STIM_011.jpg
245.614	0.929	1	incongruent	Block1	incongruent/STIM_012.jpg
249.71	1.251	1	incongruent	Block1	incongruent/STIM_012.jpg
254.639	1.247	1	incongruent	Block1	incongruent/STIM_012.jpg
258.935	1.265	1	incongruent	Block1	incongruent/STIM_012.jpg
263.364	1.082	1	incongruent	Block1	incongruent/STIM_012.jpg
267.413	0.956	1	incongruent	Block1	incongruent/STIM_013.jpg
270.374	0.914	1	incongruent	Block1	incongruent/STIM_013.jpg
275.205	0.812	1	incongruent	Block1	incongruent/STIM_013.jpg
278.079	0.997	1	incongruent	Block1	incongruent/STIM_013.jpg
282.068	0.854	1	incongruent	Block1	incongruent/STIM_013.jpg
286.269	0.837	1	incongruent	Block1	incongruent/STIM_014.jpg
290.372	1.516	1	incongruent	Block1	incongruent/STIM_014.jpg
295.868	1.22	1	incongruent	Block1	incongruent/STIM_014.jpg
299.383	1.194	1	incongruent	Block1	incongruent/STIM_014.jpg
303.652	0.882	1	incongruent	Block1	incongruent/STIM_014.jpg
308.008	0.832	1	incongruent	Block1	incongruent/STIM_015.jpg
312.171	0.855	1	incongruent	Block1	incongruent/STIM_015.jpg
316.964	1.302	1	incongruent	Block1	incongruent/STIM_015.jpg
321.399	0.794	1	incongruent	Block1	incongruent/STIM_015.jpg
325.167	0.862	1	incongruent	Block1	incongruent/STIM_015.jpg
329.582	0.962	1	incongruent	Block1	incongruent/STIM_016.jpg
332.83	0.86	1	incongruent	Block1	incongruent/STIM_016.jpg
335.92	1.323	1	incongruent	Block1	incongruent/STIM_016.jpg
340.346	1.111	1	incongruent	Block1	incongruent/STIM_016.jpg
345.031	1.334	1	incongruent	Block1	incongruent/STIM_016.jpg
349.762	1.251	1	incongruent	Block1	incongruent/STIM_017.jpg
353.1	1.035	1	incongruent	Block1	incongruent/STIM_017.jpg
357.931	0.9	1	incongruent	Block1	incongruent/STIM_017.jpg
362.068	1.159	1	incongruent	Block1	incongruent/STIM_017.jpg
365.934	0.791	1	incongruent	Block1	incongruent/STIM_017.jpg
368.949	1.037	1	incongruent	Block1	incongruent/STIM_018.jpg
371.991	1.543	1	incongruent	Block1	incongruent/STIM_018.jpg
376.553	1.011	1	incongruent	Block1	incongruent/STIM_018.jpg
381.44	1.224	1	incongruent	Block1	incongruent/STIM_018.jpg
386.01	0.746	1	incongruent	Block1	incongruent/STIM_018.jpg
390.366	1.103	1	incongruent	Block1	incongruent/STIM_019.jpg
393.969	1.46	1	incongruent	Block1	incongruent/STIM_019.jpg
397.953	1.488	1	incongruent	Block1	incongruent/STIM_019.jpg
402.269	1.374	1	incongruent	Block1	incongruent/STIM_019.jpg
406.269	1.326	1	incongruent	Block1	incongruent/STIM_019.jpg
411.29	0.878	1	incongruent	Block1	incongruent/STIM_020.jpg
415.055	1.207	1	incongruent	Block1	incongruent/STIM_020.jpg
418.952	0.985	1	incongruent	Block1	incongruent/STIM_020.jpg
423.339	1.257	1	incongruent	Block1	incongruent/STIM_020.jpg
428.169	1.134	1	incongruent	Block1	incongruent/STIM_020.jpg
431.412	1.23	1	incongruent	Block1	incongruent/STIM_021.jpg
436.226	1.503	1	incongruent	Block1	incongruent/STIM_021.jpg
441.394	0.97	1	incongruent	Block1	incongruent/STIM_021.jpg
445.533	1.08	1	incongruent	Block1	incongruent/STIM_021.jpg
449.577	0.972	1	incongruent	Block1	incongruent/STIM_021.jpg
454.344	0.933	1	incongruent	Block1	incongruent/STIM_022.jpg
457.72	1.09	1	incongruent	Block1	incongruent/STIM_022.jpg
461.152	0.887	1	incongruent	Block1	incongruent/STIM_022.jpg
464.185	1.258	1	incongruent	Block1	incongruent/STIM_022.jpg
468.574	0.772	1	incongruent	Block1	incongruent/STIM_022.jpg
472.859	0.802	1	incongruent	Block1	incongruent/STIM_023.jpg
477.431	1.262	1	incongruent	Block1	incongruent/STIM_023.jpg
481.655	1.225	1	incongruent	Block1	incongruent/STIM_023.jpg
486.507	0.96	1	incongruent	Block1	incongruent/STIM_023.jpg
490.765	1.113	1	incongruent	Block1	incongruent/STIM_023.jpg
495.158	1.229	1	incongruent	Block1	incongruent/STIM_024.jpg
499.635	1.522	0	incongruent	Block1	incongruent/STIM_024.jpg
503.998	0.854	1	incongruent	Block1	incongruent/STIM_024.jpg
507.33	1.091	1	incongruent	Block1	incongruent/STIM_024.jpg
511.457	0.896	1	incongruent	Block1	incongruent/STIM_024.jpg
514.982	0.93	1	incongruent	Block1	incongruent/STIM_025.jpg
518.053	1.141	1	incongruent	Block1	incongruent/STIM_025.jpg
522.918	1.217	1	incongruent	Block1	incongruent/STIM_025.jpg
527.317	1.331	1	incongruent	Block1	incongruent/STIM_025.jpg
530.773	0.658	1	incongruent	Block1	incongruent/STIM_025.jpg
534.329	1.233	0	incongruent	Block1	incongruent/STIM_026.jpg
538.649	1.418	1	incongruent	Block1	incongruent/STIM_026.jpg
543.467	0.863	1	incongruent	Block1	incongruent/STIM_026.jpg
547.004	1.113	1	incongruent	Block1	incongruent/STIM_026.jpg
550.488	1.133	1	incongruent	Block1	incongruent/STIM_026.jpg
555.195	0.803	1	incongruent	Block1	incongruent/STIM_027.jpg
558.075	1.266	1	incongruent	Block1	incongruent/STIM_027.jpg
562.637	0.897	1	incongruent	Block1	incongruent/STIM_027.jpg
567.491	1.022	1	incongruent	Block1	incongruent/STIM_027.jpg
572.371	1.146	1	incongruent	Block1	incongruent/STIM_027.jpg
576.911	1.115	1	incongruent	Block1	incongruent/STIM_028.jpg
581.098	1.351	1	incongruent	Block1	incongruent/STIM_028.jpg
585.014	1.33	1	incongruent	Block1	incongruent/STIM_028.jpg
589.555	0.829	1	incongruent	Block1	incongruent/STIM_028.jpg
593.271	0.743	1	incongruent	Block1	incongruent/STIM_028.jpg
597.666	1.312	1	incongruent	Block1	incongruent/STIM_029.jpg
601.526	1.355	1	incongruent	Block1	incongruent/STIM_029.jpg
605.128	1.18	1	incongruent	Block1	incongruent/STIM_029.jpg
608.408	0.889	1	incongruent	Block1	incongruent/STIM_029.jpg
613.28	0.971	1	incongruent	Block1	incongruent/STIM_029.jpg
616.334	0.731	1	congruent	Block1	congruent/STIM_000.jpg
620.245	0.985	1	congruent	Block1	congruent/STIM_000.jpg
624.348	0.844	1	congruent	Block1	congruent/STIM_000.jpg
627.946	0.623	1	congruent	Block1	congruent/STIM_000.jpg
630.85	0.867	1	congruent	Block1	congruent/STIM_000.jpg
634.448	0.806	1	congruent	Block1	congruent/STIM_001.jpg
637.316	0.646	1	congruent	Block1	congruent/STIM_001.jpg
641.235	0.695	1	congruent	Block1	congruent/STIM_001.jpg
645.024	0.925	1	congruent	Block1	congruent/STIM_001.jpg
649.21	0.575	1	congruent	Block1	congruent/STIM_001.jpg
652.642	0.639	1	congruent	Block1	congruent/STIM_002.jpg
657.074	0.673	1	congruent	Block1	congruent/STIM_002.jpg
661.189	0.859	1	congruent	Block1	congruent/STIM_002.jpg
665.822	0.708	1	congruent	Block1	congruent/STIM_002.jpg
669.646	0.656	1	congruent	Block1	congruent/STIM_002.jpg
673.659	0.622	1	congruent	Block1	congruent/STIM_003.jpg
678.236	0.637	1	congruent	Block1	congruent/STIM_003.jpg
682.168	0.894	1	congruent	Block1	congruent/STIM_003.jpg
686.79	0.823	1	congruent	Block1	congruent/STIM_003.jpg
690.808	0.612	1	congruent	Block1	congruent/STIM_003.jpg
695.196	0.647	1	congruent	Block1	congruent/STIM_004.jpg
698.704	0.966	1	congruent	Block1	congruent/STIM_004.jpg
703.088	0.702	1	congruent	Block1	congruent/STIM_004.jpg
707.602	0.875	1	congruent	Block1	congruent/STIM_004.jpg
711.195	0.579	1	congruent	Block1	congruent/STIM_004.jpg
714.615	0.94	1	congruent	Block1	congruent/STIM_005.jpg
719.471	0.6	1	congruent	Block1	congruent/STIM_005.jpg
723.164	0.561	1	congruent	Block1	congruent/STIM_005.jpg
726.278	0.832	0	congruent	Block1	congruent/STIM_005.jpg
729.138	0.658	1	congruent	Block1	congruent/STIM_005.jpg
733.012	0.716	1	congruent	Block1	congruent/STIM_006.jpg
737.049	0.944	1	congruent	Block1	congruent/STIM_006.jpg
741.914	0.905	1	congruent	Block1	congruent/STIM_006.jpg
745.575	0.84	1	congruent	Block1	congruent/STIM_006.jpg
749.568	0.628	1	congruent	Block1	congruent/STIM_006.jpg
752.772	0.736	1	congruent	Block1	congruent/STIM_007.jpg
756.753	0.92	1	congruent	Block1	congruent/STIM_007.jpg
760.064	0.874	1	congruent	Block1	congruent/STIM_007.jpg
764.807	0.626	1	congruent	Block1	congruent/STIM_007.jpg
768.719	0.67	1	congruent	Block1	congruent/STIM_007.jpg
772.607	0.79	1	congruent	Block1	congruent/STIM_008.jpg
777.237	0.932	1	congruent	Block1	congruent/STIM_008.jpg
780.304	0.797	1	congruent	Block1	congruent/STIM_008.jpg
783.208	0.673	1	congruent	Block1	congruent/STIM_008.jpg
786.163	0.561	1	congruent	Block1	congruent/STIM_008.jpg
790.611	0.785	1	congruent	Block1	congruent/STIM_009.jpg
793.659	0.706	1	congruent	Block1	congruent/STIM_009.jpg
797.308	0.712	1	congruent	Block1	congruent/STIM_009.jpg
800.026	0.614	1	congruent	Block1	congruent/STIM_009.jpg
802.989	0.821	1	congruent	Block1	congruent/STIM_009.jpg
806.348	0.808	1	congruent	Block1	congruent/STIM_010.jpg
810.033	0.585	1	congruent	Block1	congruent/STIM_010.jpg
814.034	0.91	1	congruent	Block1	congruent/STIM_010.jpg
817.898	0.886	1	congruent	Block1	congruent/STIM_010.jpg
821.991	0.612	1	congruent	Block1	congruent/STIM_010.jpg
826.371	0.607	1	congruent	Block1	congruent/STIM_011.jpg
830.527	0.84	1	congruent	Block1	congruent/STIM_011.jpg
834.689	0.872	1	congruent	Block1	congruent/STIM_011.jpg
838.536	0.72	1	congruent	Block1	congruent/STIM_011.jpg
842.1	0.754	1	congruent	Block1	congruent/STIM_011.jpg
846.376	0.641	1	congruent	Block1	congruent/STIM_012.jpg
849.027	0.735	1	congruent	Block1	congruent/STIM_012.jpg
853.683	0.985	1	congruent	Block1	congruent/STIM_012.jpg
857.197	0.818	1	congruent	Block1	congruent/STIM_012.jpg
860.059	0.788	1	congruent	Block1	congruent/STIM_012.jpg
864.469	0.57	1	congruent	Block1	congruent/STIM_013.jpg
867.583	0.648	1	congruent	Block1	congruent/STIM_013.jpg
870.33	0.695	1	congruent	Block1	congruent/STIM_013.jpg
873.265	0.589	1	congruent	Block1	congruent/STIM_013.jpg
876.593	0.665	1	congruent	Block1	congruent/STIM_013.jpg
880.193	0.605	1	congruent	Block1	congruent/STIM_014.jpg
884.361	0.598	1	congruent	Block1	congruent/STIM_014.jpg
887.343	0.776	1	congruent	Block1	congruent/STIM_014.jpg
892.019	0.753	1	congruent	Block1	congruent/STIM_014.jpg
895.759	0.995	1	congruent	Block1	congruent/STIM_014.jpg
899.886	0.626	1	congruent	Block1	congruent/STIM_015.jpg
903.541	0.858	1	congruent	Block1	congruent/STIM_015.jpg
907.833	0.917	1	congruent	Block1	congruent/STIM_015.jpg
911.374	0.758	1	congruent	Block1	congruent/STIM_015.jpg
914.784	0.89	1	congruent	Block1	congruent/STIM_015.jpg
919.552	0.833	1	congruent	Block1	congruent/STIM_016.jpg
923.487	0.793	1	congruent	Block1	congruent/STIM_016.jpg
926.874	0.961	1	congruent	Block1	congruent/STIM_016.jpg
930.946	0.861	1	congruent	Block1	congruent/STIM_016.jpg
935.234	0.889	1	congruent	Block1	congruent/STIM_016.jpg
938.706	0.604	1	congruent	Block1	congruent/STIM_017.jpg
942.464	0.593	1	congruent	Block1	congruent/STIM_017.jpg
945.194	0.756	1	congruent	Block1	congruent/STIM_017.jpg
948.178	0.994	1	congruent	Block1	congruent/STIM_017.jpg
952.161	0.813	1	congruent	Block1	congruent/STIM_017.jpg
955.877	0.886	1	congruent	Block1	congruent/STIM_018.jpg
959.536	0.69	1	congruent	Block1	congruent/STIM_018.jpg
963.396	0.782	0	congruent	Block1	congruent/STIM_018.jpg
967.692	0.981	1	congruent	Block1	congruent/STIM_018.jpg
972.314	0.726	1	congruent	Block1	congruent/STIM_018.jpg
975.56	0.98	1	congruent	Block1	congruent/STIM_019.jpg
979.685	0.976	1	congruent	Block1	congruent/STIM_019.jpg
983.451	0.615	1	congruent	Block1	congruent/STIM_019.jpg
987.047	0.687	1	congruent	Block1	congruent/STIM_019.jpg
990.56	0.86	1	congruent	Block1	congruent/STIM_019.jpg
994.413	0.748	1	congruent	Block1	congruent/STIM_020.jpg
998.143	0.922	1	congruent	Block1	congruent/STIM_020.jpg
1001.712	0.934	1	congruent	Block1	congruent/STIM_020.jpg
1004.677	0.998	1	congruent	Block1	congruent/STIM_020.jpg
1008.15	0.713	1	congruent	Block1	congruent/STIM_020.jpg
1011.0	0.653	1	congruent	Block1	congruent/STIM_021.jpg
1015.291	0.659	1	congruent	Block1	congruent/STIM_021.jpg
1018.787	0.664	1	congruent	Block1	congruent/STIM_021.jpg
1023.043	0.769	1	congruent	Block1	congruent/STIM_021.jpg
1027.698	0.846	1	congruent	Block1	congruent/STIM_021.jpg
1032.233	0.954	1	congruent	Block1	congruent/STIM_022.jpg
1036.763	0.828	1	congruent	Block1	congruent/STIM_022.jpg
1039.731	0.597	1	congruent	Block1	congruent/STIM_022.jpg
1042.404	0.674	1	congruent	Block1	congruent/STIM_022.jpg
1046.718	0.841	1	congruent	Block1	congruent/STIM_022.jpg
1050.863	0.973	1	congruent	Block1	congruent/STIM_023.jpg
1054.561	0.882	1	congruent	Block1	congruent/STIM_023.jpg
1058.607	0.853	1	congruent	Block1	congruent/STIM_023.jpg
1062.74	0.973	1	congruent	Block1	congruent/STIM_023.jpg
1066.562	0.976	1	congruent	Block1	congruent/STIM_023.jpg
1069.632	0.761	1	congruent	Block1	congruent/STIM_024.jpg
1074.151	0.908	1	congruent	Block1	congruent/STIM_024.jpg
1077.194	0.657	1	congruent	Block1	congruent/STIM_024.jpg
1080.261	0.792	1	congruent	Block1	congruent/STIM_024.jpg
1083.463	0.827	1	congruent	Block1	congruent/STIM_024.jpg
1087.637	0.568	1	congruent	Block1	congruent/STIM_025.jpg
1090.972	0.985	1	congruent	Block1	congruent/STIM_025.jpg
1094.795	0.7	1	congruent	Block1	congruent/STIM_025.jpg
1097.805	0.888	1	congruent	Block1	congruent/STIM_025.jpg
1102.357	0.587	1	congruent	Block1	congruent/STIM_025.jpg
1105.492	0.732	1	congruent	Block1	congruent/STIM_026.jpg
1109.462	0.737	1	congruent	Block1	congruent/STIM_026.jpg
1114.093	0.807	1	congruent	Block1	congruent/STIM_026.jpg
1117.288	0.96	1	congruent	Block1	congruent/STIM_026.jpg
1121.213	0.94	1	congruent	Block1	congruent/STIM_026.jpg
1124.65	0.598	1	congruent	Block1	congruent/STIM_027.jpg
1128.034	1.003	1	congruent	Block1	congruent/STIM_027.jpg
1132.952	0.582	1	congruent	Block1	congruent/STIM_027.jpg
1136.357	0.665	1	congruent	Block1	congruent/STIM_027.jpg
1140.849	0.707	1	congruent	Block1	congruent/STIM_027.jpg
1145.468	0.78	1	congruent	Block1	congruent/STIM_028.jpg
1148.404	0.905	1	congruent	Block1	congruent/STIM_028.jpg
1152.036	0.958	1	congruent	Block1	congruent/STIM_028.jpg
1156.613	0.848	1	congruent	Block1	congruent/STIM_028.jpg
1161.414	0.704	1	congruent	Block1	congruent/STIM_028.jpg
1164.705	0.689	1	congruent	Block1	congruent/STIM_029.jpg
1167.524	0.822	1	congruent	Block1	congruent/STIM_029.jpg
1171.718	0.838	1	congruent	Block1	congruent/STIM_029.jpg
1174.863	0.992	1	congruent	Block1	congruent/STIM_029.jpg
1178.19	0.791	1	congruent	Block1	congruent/STIM_029.jpg
1181.091	1.172	0	incongruent	Block2	incongruent/STIM_000.jpg
1185.727	0.841	1	incongruent	Block2	incongruent/STIM_000.jpg
1190.26	0.816	1	incongruent	Block2	incongruent/STIM_000.jpg
1194.437	1.08	1	incongruent	Block2	incongruent/STIM_000.jpg
1199.405	0.857	1	incongruent	Block2	incongruent/STIM_000.jpg
1203.111	1.42	1	incongruent	Block2	incongruent/STIM_001.jpg
1207.995	0.933	1	incongruent	Block2	incongruent/STIM_001.jpg
1211.763	0.609	1	incongruent	Block2	incongruent/STIM_001.jpg
1214.858	0.569	1	incongruent	Block2	incongruent/STIM_001.jpg
1219.024	1.086	1	incongruent	Block2	incongruent/STIM_001.jpg
1222.393	0.785	1	incongruent	Block2	incongruent/STIM_002.jpg
1226.122	1.106	1	incongruent	Block2	incongruent/STIM_002.jpg
1229.322	0.818	1	incongruent	Block2	incongruent/STIM_002.jpg
1232.814	1.114	1	incongruent	Block2	incongruent/STIM_002.jpg
1236.65	0.88	1	incongruent	Block2	incongruent/STIM_002.jpg
1239.71	0.883	1	incongruent	Block2	incongruent/STIM_003.jpg
1242.897	0.922	1	incongruent	Block2	incongruent/STIM_003.jpg
1246.795	0.649	1	incongruent	Block2	incongruent/STIM_003.jpg
1250.273	0.921	1	incongruent	Block2	incongruent/STIM_003.jpg
1253.649	1.124	1	incongruent	Block2	incongruent/STIM_003.jpg
1257.277	0.967	1	incongruent	Block2	incongruent/STIM_004.jpg
1261.225	1.277	1	incongruent	Block2	incongruent/STIM_004.jpg
1265.075	0.807	1	incongruent	Block2	incongruent/STIM_004.jpg
1268.576	1.081	1	incongruent	Block2	incongruent/STIM_004.jpg
1272.415	0.785	1	incongruent	Block2	incongruent/STIM_004.jpg
1275.88	1.079	1	incongruent	Block2	incongruent/STIM_005.jpg
1280.466	0.72	1	incongruent	Block2	incongruent/STIM_005.jpg
1283.642	0.601	1	incongruent	Block2	incongruent/STIM_005.jpg
1286.611	0.744	1	incongruent	Block2	incongruent/STIM_005.jpg
1290.977	0.595	1	incongruent	Block2	incongruent/STIM_005.jpg
1293.715	1.067	1	incongruent	Block2	incongruent/STIM_006.jpg
1297.403	0.663	1	incongruent	Block2	incongruent/STIM_006.jpg
1301.606	0.911	1	incongruent	Block2	incongruent/STIM_006.jpg
1305.949	1.006	1	incongruent	Block2	incongruent/STIM_006.jpg
1309.207	0.816	1	incongruent	Block2	incongruent/STIM_006.jpg
1313.594	0.743	0	incongruent	Block2	incongruent/STIM_007.jpg
1316.821	0.787	1	incongruent	Block2	incongruent/STIM_007.jpg
1320.404	0.637	1	incongruent	Block2	incongruent/STIM_007.jpg
1324.455	0.941	1	incongruent	Block2	incongruent/STIM_007.jpg
1328.439	0.922	1	incongruent	Block2	incongruent/STIM_007.jpg
1331.956	0.977	1	incongruent	Block2	incongruent/STIM_008.jpg
1335.219	1.207	1	incongruent	Block2	incongruent/STIM_008.jpg
1340.0	0.787	1	incongruent	Block2	incongruent/STIM_008.jpg
1344.01	0.551	1	incongruent	Block2	incongruent/STIM_008.jpg
1348.159	0.748	1	incongruent	Block2	incongruent/STIM_008.jpg
1352.903	0.985	1	incongruent	Block2	incongruent/STIM_009.jpg
1355.92	0.896	1	incongruent	Block2	incongruent/STIM_009.jpg
1359.782	1.133	1	incongruent	Block2	incongruent/STIM_009.jpg
1363.513	1.073	1	incongruent	Block2	incongruent/STIM_009.jpg
1367.456	1.021	1	incongruent	Block2	incongruent/STIM_009.jpg
1372.449	1.222	1	incongruent	Block2	incongruent/STIM_010.jpg
1376.617	1.1	1	incongruent	Block2	incongruent/STIM_010.jpg
1380.245	0.802	1	incongruent	Block2	incongruent/STIM_010.jpg
1384.532	0.898	1	incongruent	Block2	incongruent/STIM_010.jpg
1388.845	1.158	1	incongruent	Block2	incongruent/STIM_010.jpg
1392.389	0.698	1	incongruent	Block2	incongruent/STIM_011.jpg
1396.15	0.794	1	incongruent	Block2	incongruent/STIM_011.jpg
1400.438	0.727	1	incongruent	Block2	incongruent/STIM_011.jpg
1403.613	0.777	1	incongruent	Block2	incongruent/STIM_011.jpg
1406.548	0.649	1	incongruent	Block2	incongruent/STIM_011.jpg
1409.914	0.76	1	incongruent	Block2	incongruent/STIM_012.jpg
1414.087	0.949	1	incongruent	Block2	incongruent/STIM_012.jpg
1418.292	1.226	1	incongruent	Block2	incongruent/STIM_012.jpg
1422.09	0.697	1	incongruent	Block2	incongruent/STIM_012.jpg
1426.554	0.791	1	incongruent	Block2	incongruent/STIM_012.jpg
1430.863	1.226	1	incongruent	Block2	incongruent/STIM_013.jpg
1434.52	1.334	1	incongruent	Block2	incongruent/STIM_013.jpg
1439.007	1.068	1	incongruent	Block2	incongruent/STIM_013.jpg
1442.446	0.966	1	incongruent	Block2	incongruent/STIM_013.jpg
1446.848	0.575	1	incongruent	Block2	incongruent/STIM_013.jpg
1449.908	0.883	1	incongruent	Block2	incongruent/STIM_014.jpg
1453.201	1.073	1	incongruent	Block2	incongruent/STIM_014.jpg
1457.748	0.604	1	incongruent	Block2	incongruent/STIM_014.jpg
1462.324	0.559	1	incongruent	Block2	incongruent/STIM_014.jpg
1466.393	0.857	1	incongruent	Block2	incongruent/STIM_014.jpg
1470.37	1.182	1	incongruent	Block2	incongruent/STIM_015.jpg
1475.309	1.285	1	incongruent	Block2	incongruent/STIM_015.jpg
1480.41	1.145	1	incongruent	Block2	incongruent/STIM_015.jpg
1483.809	0.822	1	incongruent	Block2	incongruent/STIM_015.jpg
1487.983	0.702	1	incongruent	Block2	incongruent/STIM_015.jpg
1491.886	0.712	1	incongruent	Block2	incongruent/STIM_016.jpg
1495.94	0.687	1	incongruent	Block2	incongruent/STIM_016.jpg
1499.115	1.107	1	incongruent	Block2	incongruent/STIM_016.jpg
1502.72	1.074	1	incongruent	Block2	incongruent/STIM_016.jpg
1506.748	1.054	1	incongruent	Block2	incongruent/STIM_016.jpg
1510.336	0.748	1	incongruent	Block2	incongruent/STIM_017.jpg
1514.607	1.208	1	incongruent	Block2	incongruent/STIM_017.jpg
1519.269	0.727	1	incongruent	Block2	incongruent/STIM_017.jpg
1522.089	0.757	1	incongruent	Block2	incongruent/STIM_017.jpg
1526.833	1.131	1	incongruent	Block2	incongruent/STIM_017.jpg
1531.617	1.345	1	incongruent	Block2	incongruent/STIM_018.jpg
1536.311	1.178	1	incongruent	Block2	incongruent/STIM_018.jpg
1540.486	0.734	1	incongruent	Block2	incongruent/STIM_018.jpg
1544.054	0.742	1	incongruent	Block2	incongruent/STIM_018.jpg
1547.823	0.834	1	incongruent	Block2	incongruent/STIM_018.jpg
1551.306	1.321	1	incongruent	Block2	incongruent/STIM_019.jpg
1555.284	0.999	1	incongruent	Block2	incongruent/STIM_019.jpg
1558.422	0.719	1	incongruent	Block2	incongruent/STIM_019.jpg
1561.831	0.665	1	incongruent	Block2	incongruent/STIM_019.jpg
1564.946	0.682	1	incongruent	Block2	incongruent/STIM_019.jpg
1567.966	1.24	1	incongruent	Block2	incongruent/STIM_020.jpg
1572.138	0.673	1	incongruent	Block2	incongruent/STIM_020.jpg
1576.047	0.875	1	incongruent	Block2	incongruent/STIM_020.jpg
1579.066	0.703	1	incongruent	Block2	incongruent/STIM_020.jpg
1583.414	0.932	1	incongruent	Block2	incongruent/STIM_020.jpg
1587.222	1.193	1	incongruent	Block2	incongruent/STIM_021.jpg
1590.923	1.14	1	incongruent	Block2	incongruent/STIM_021.jpg
1594.668	1.01	1	incongruent	Block2	incongruent/STIM_021.jpg
1598.744	0.582	1	incongruent	Block2	incongruent/STIM_021.jpg
1603.259	0.706	1	incongruent	Block2	incongruent/STIM_021.jpg
1607.518	1.054	1	incongruent	Block2	incongruent/STIM_022.jpg
1610.694	0.892	1	incongruent	Block2	incongruent/STIM_022.jpg
1615.33	0.79	1	incongruent	Block2	incongruent/STIM_022.jpg
1619.055	0.722	1	incongruent	Block2	incongruent/STIM_022.jpg
1623.071	0.674	1	incongruent	Block2	incongruent/STIM_022.jpg
1627.044	0.809	1	incongruent	Block2	incongruent/STIM_023.jpg
1630.473	0.817	1	incongruent	Block2	incongruent/STIM_023.jpg
1634.37	0.782	1	incongruent	Block2	incongruent/STIM_023.jpg
1638.016	1.114	1	incongruent	Block2	incongruent/STIM_023.jpg
1642.613	1.07	1	incongruent	Block2	incongruent/STIM_023.jpg
1646.447	0.873	1	incongruent	Block2	incongruent/STIM_024.jpg
1651.162	0.892	1	incongruent	Block2	incongruent/STIM_024.jpg
1654.405	1.202	1	incongruent	Block2	incongruent/STIM_024.jpg
1658.755	1.156	1	incongruent	Block2	incongruent/STIM_024.jpg
1662.598	0.995	1	incongruent	Block2	incongruent/STIM_024.jpg
1666.872	1.076	1	incongruent	Block2	incongruent/STIM_025.jpg
1670.358	0.762	1	incongruent	Block2	incongruent/STIM_025.jpg
1673.902	0.782	1	incongruent	Block2	incongruent/STIM_025.jpg
1677.732	1.129	1	incongruent	Block2	incongruent/STIM_025.jpg
1681.552	0.595	1	incongruent	Block2	incongruent/STIM_025.jpg
1684.314	1.092	1	incongruent	Block2	incongruent/STIM_026.jpg
1687.943	1.121	1	incongruent	Block2	incongruent/STIM_026.jpg
1691.504	0.84	1	incongruent	Block2	incongruent/STIM_026.jpg
1695.702	0.887	1	incongruent	Block2	incongruent/STIM_026.jpg
1698.776	0.647	1	incongruent	Block2	incongruent/STIM_026.jpg
1702.279	0.767	1	incongruent	Block2	incongruent/STIM_027.jpg
1706.07	1.051	1	incongruent	Block2	incongruent/STIM_027.jpg
1709.792	1.06	1	incongruent	Block2	incongruent/STIM_027.jpg
1713.106	0.851	1	incongruent	Block2	incongruent/STIM_027.jpg
1716.442	0.903	1	incongruent	Block2	incongruent/STIM_027.jpg
1719.613	1.303	1	incongruent	Block2	incongruent/STIM_028.jpg
1723.896	1.104	1	incongruent	Block2	incongruent/STIM_028.jpg
1727.848	0.972	1	incongruent	Block2	incongruent/STIM_028.jpg
1731.539	0.727	1	incongruent	Block2	incongruent/STIM_028.jpg
1734.304	1.136	1	incongruent	Block2	incongruent/STIM_028.jpg
1737.717	0.805	1	incongruent	Block2	incongruent/STIM_029.jpg
1740.805	0.816	1	incongruent	Block2	incongruent/STIM_029.jpg
1744.033	0.656	1	incongruent	Block2	incongruent/STIM_029.jpg
1748.076	1.133	1	incongruent	Block2	incongruent/STIM_029.jpg
1753.17	0.994	1	incongruent	Block2	incongruent/STIM_029.jpg
1757.91	0.842	1	congruent	Block2	congruent/STIM_000.jpg
1761.944	0.963	1	congruent	Block2	congruent/STIM_000.jpg
1766.572	0.798	1	congruent	Block2	congruent/STIM_000.jpg
1770.323	0.708	1	congruent	Block2	congruent/STIM_000.jpg
1774.423	0.723	1	congruent	Block2	congruent/STIM_000.jpg
1778.099	0.906	1	congruent	Block2	congruent/STIM_001.jpg
1782.779	0.783	1	congruent	Block2	congruent/STIM_001.jpg
1786.157	0.752	1	congruent	Block2	congruent/STIM_001.jpg
1790.653	0.622	1	congruent	Block2	congruent/STIM_001.jpg
1793.741	0.818	1	congruent	Block2	congruent/STIM_001.jpg
1797.836	0.634	1	congruent	Block2	congruent/STIM_002.jpg
1801.705	0.634	1	congruent	Block2	congruent/STIM_002.jpg
1804.665	0.589	1	congruent	Block2	congruent/STIM_002.jpg
1808.633	0.573	1	congruent	Block2	congruent/STIM_002.jpg
1813.193	0.701	1	congruent	Block2	congruent/STIM_002.jpg
1816.954	0.863	0	congruent	Block2	congruent/STIM_003.jpg
1820.84	0.672	1	congruent	Block2	congruent/STIM_003.jpg
1824.543	0.762	1	congruent	Block2	congruent/STIM_003.jpg
1828.57	0.992	1	congruent	Block2	congruent/STIM_003.jpg
1832.635	0.644	1	congruent	Block2	congruent/STIM_003.jpg
1835.832	0.934	1	congruent	Block2	congruent/STIM_004.jpg
1840.255	0.677	1	congruent	Block2	congruent/STIM_004.jpg
1844.091	0.635	1	congruent	Block2	congruent/STIM_004.jpg
1848.262	0.81	1	congruent	Block2	congruent/STIM_004.jpg
1852.806	0.632	1	congruent	Block2	congruent/STIM_004.jpg
1855.532	0.599	1	congruent	Block2	congruent/STIM_005.jpg
1859.522	0.785	1	congruent	Block2	congruent/STIM_005.jpg
1862.486	0.974	1	congruent	Block2	congruent/STIM_005.jpg
1867.213	0.819	1	congruent	Block2	congruent/STIM_005.jpg
1870.276	0.867	1	congruent	Block2	congruent/STIM_005.jpg
1874.979	0.716	1	congruent	Block2	congruent/STIM_006.jpg
1877.844	0.718	1	congruent	Block2	congruent/STIM_006.jpg
1881.204	0.843	1	congruent	Block2	congruent/STIM_006.jpg
1885.6	0.808	1	congruent	Block2	congruent/STIM_006.jpg
1890.382	0.805	1	congruent	Block2	congruent/STIM_006.jpg
1894.819	0.87	1	congruent	Block2	congruent/STIM_007.jpg
1899.407	0.605	1	congruent	Block2	congruent/STIM_007.jpg
1902.551	0.781	1	congruent	Block2	congruent/STIM_007.jpg
1907.169	0.91	1	congruent	Block2	congruent/STIM_007.jpg
1910.411	0.925	1	congruent	Block2	congruent/STIM_007.jpg
1914.038	0.948	1	congruent	Block2	congruent/STIM_008.jpg
1917.472	0.762	1	congruent	Block2	congruent/STIM_008.jpg
1921.406	0.584	1	congruent	Block2	congruent/STIM_008.jpg
1925.757	0.834	1	congruent	Block2	congruent/STIM_008.jpg
1928.927	0.794	1	congruent	Block2	congruent/STIM_008.jpg
1933.239	0.907	1	congruent	Block2	congruent/STIM_009.jpg
1937.526	0.902	1	congruent	Block2	congruent/STIM_009.jpg
1940.512	0.733	1	congruent	Block2	congruent/STIM_009.jpg
1944.717	0.573	1	congruent	Block2	congruent/STIM_009.jpg
1948.766	0.847	1	congruent	Block2	congruent/STIM_009.jpg
1953.04	0.657	0	congruent	Block2	congruent/STIM_010.jpg
1956.757	0.885	1	congruent	Block2	congruent/STIM_010.jpg
1960.766	0.826	1	congruent	Block2	congruent/STIM_010.jpg
1964.019	0.879	1	congruent	Block2	congruent/STIM_010.jpg
1967.986	0.745	1	congruent	Block2	congruent/STIM_010.jpg
1971.118	0.89	1	congruent	Block2	congruent/STIM_011.jpg
1974.387	0.777	1	congruent	Block2	congruent/STIM_011.jpg
1978.259	0.783	1	congruent	Block2	congruent/STIM_011.jpg
1981.982	0.712	1	congruent	Block2	congruent/STIM_011.jpg
1985.798	0.923	1	congruent	Block2	congruent/STIM_011.jpg
1989.159	0.811	1	congruent	Block2	congruent/STIM_012.jpg
1993.155	0.882	1	congruent	Block2	congruent/STIM_012.jpg
1996.494	0.871	1	congruent	Block2	congruent/STIM_012.jpg
2000.295	0.58	1	congruent	Block2	congruent/STIM_012.jpg
2004.544	0.781	1	congruent	Block2	congruent/STIM_012.jpg
2008.034	0.664	1	congruent	Block2	congruent/STIM_013.jpg
2010.781	0.784	1	congruent	Block2	congruent/STIM_013.jpg
2015.292	0.961	1	congruent	Block2	congruent/STIM_013.jpg
2018.824	0.874	1	congruent	Block2	congruent/STIM_013.jpg
2022.768	0.826	1	congruent	Block2	congruent/STIM_013.jpg
2026.13	0.902	1	congruent	Block2	congruent/STIM_014.jpg
2030.941	0.655	1	congruent	Block2	congruent/STIM_014.jpg
2035.068	0.892	1	congruent	Block2	congruent/STIM_014.jpg
2038.553	0.587	1	congruent	Block2	congruent/STIM_014.jpg
2041.937	0.664	1	congruent	Block2	congruent/STIM_014.jpg
2045.059	0.612	1	congruent	Block2	congruent/STIM_015.jpg
2048.89	0.928	1	congruent	Block2	congruent/STIM_015.jpg
2053.5	0.726	1	congruent	Block2	congruent/STIM_015.jpg
2056.437	0.745	1	congruent	Block2	congruent/STIM_015.jpg
2060.277	0.681	1	congruent	Block2	congruent/STIM_015.jpg
2064.92	0.92	1	congruent	Block2	congruent/STIM_016.jpg
2067.962	0.962	1	congruent	Block2	congruent/STIM_016.jpg
2071.313	0.911	1	congruent	Block2	congruent/STIM_016.jpg
2074.805	0.95	1	congruent	Block2	congruent/STIM_016.jpg
2079.007	0.837	1	congruent	Block2	congruent/STIM_016.jpg
2083.27	0.882	1	congruent	Block2	congruent/STIM_017.jpg
2087.917	1.003	1	congruent	Block2	congruent/STIM_017.jpg
2091.828	0.93	1	congruent	Block2	congruent/STIM_017.jpg
2095.104	0.625	1	congruent	Block2	congruent/STIM_017.jpg
2098.852	0.798	1	congruent	Block2	congruent/STIM_017.jpg
2103.114	0.562	1	congruent	Block2	congruent/STIM_018.jpg
2106.085	0.643	1	congruent	Block2	congruent/STIM_018.jpg
2109.873	0.698	1	congruent	Block2	congruent/STIM_018.jpg
2113.953	0.784	1	congruent	Block2	congruent/STIM_018.jpg
2118.057	0.991	1	congruent	Block2	congruent/STIM_018.jpg
2121.402	0.621	1	congruent	Block2	congruent/STIM_019.jpg
2125.796	0.951	1	congruent	Block2	congruent/STIM_019.jpg
2129.206	0.805	1	congruent	Block2	congruent/STIM_019.jpg
2132.759	0.702	1	congruent	Block2	congruent/STIM_019.jpg
2137.315	0.64	1	congruent	Block2	congruent/STIM_019.jpg
2141.917	0.741	1	congruent	Block2	congruent/STIM_020.jpg
2145.992	0.598	1	congruent	Block2	congruent/STIM_020.jpg
2150.502	0.565	1	congruent	Block2	congruent/STIM_020.jpg
2154.096	0.988	1	congruent	Block2	congruent/STIM_020.jpg
2157.9	0.974	1	congruent	Block2	congruent/STIM_020.jpg
2161.266	0.587	1	congruent	Block2	congruent/STIM_021.jpg
2164.443	0.839	1	congruent	Block2	congruent/STIM_021.jpg
2168.347	0.747	1	congruent	Block2	congruent/STIM_021.jpg
2172.611	0.581	1	congruent	Block2	congruent/STIM_021.jpg
2177.162	0.708	1	congruent	Block2	congruent/STIM_021.jpg
2181.064	0.656	1	congruent	Block2	congruent/STIM_022.jpg
2185.46	0.675	1	congruent	Block2	congruent/STIM_022.jpg
2190.044	0.978	1	congruent	Block2	congruent/STIM_022.jpg
2193.704	0.796	1	congruent	Block2	congruent/STIM_022.jpg
2197.584	0.846	1	congruent	Block2	congruent/STIM_022.jpg
2200.606	0.742	1	congruent	Block2	congruent/STIM_023.jpg
2205.068	0.85	1	congruent	Block2	congruent/STIM_023.jpg
2209.681	0.892	1	congruent	Block2	congruent/STIM_023.jpg
2212.862	0.876	1	congruent	Block2	congruent/STIM_023.jpg
2216.319	0.671	1	congruent	Block2	congruent/STIM_023.jpg
2220.247	0.927	1	congruent	Block2	congruent/STIM_024.jpg
2223.28	0.615	1	congruent	Block2	congruent/STIM_024.jpg
2226.376	0.564	1	congruent	Block2	congruent/STIM_024.jpg
2230.639	0.705	1	congruent	Block2	congruent/STIM_024.jpg
2235.164	0.998	1	congruent	Block2	congruent/STIM_024.jpg
2239.361	0.77	1	congruent	Block2	congruent/STIM_025.jpg
2243.606	0.851	1	congruent	Block2	congruent/STIM_025.jpg
2247.859	0.852	1	congruent	Block2	congruent/STIM_025.jpg
2251.529	0.752	1	congruent	Block2	congruent/STIM_025.jpg
2254.559	0.99	1	congruent	Block2	congruent/STIM_025.jpg
2257.699	0.79	1	congruent	Block2	congruent/STIM_026.jpg
2261.599	0.839	1	congruent	Block2	congruent/STIM_026.jpg
2265.513	0.921	1	congruent	Block2	congruent/STIM_026.jpg
2268.722	0.616	1	congruent	Block2	congruent/STIM_026.jpg
2272.597	0.857	1	congruent	Block2	congruent/STIM_026.jpg
2275.543	0.816	1	congruent	Block2	congruent/STIM_027.jpg
2278.577	0.724	1	congruent	Block2	congruent/STIM_027.jpg
2283.289	0.727	1	congruent	Block2	congruent/STIM_027.jpg
2286.31	0.793	1	congruent	Block2	congruent/STIM_027.jpg
2291.022	0.776	1	congruent	Block2	congruent/STIM_027.jpg
2293.856	0.9	1	congruent	Block2	congruent/STIM_028.jpg
2297.622	0.784	1	congruent	Block2	congruent/STIM_028.jpg
2301.899	0.877	1	congruent	Block2	congruent/STIM_028.jpg
2306.079	0.727	1	congruent	Block2	congruent/STIM_028.jpg
2310.412	0.941	1	congruent	Block2	congruent/STIM_028.jpg
2313.791	0.739	1	congruent	Block2	congruent/STIM_029.jpg
2318.063	0.796	1	congruent	Block2	congruent/STIM_029.jpg
2322.07	0.922	1	congruent	Block2	congruent/STIM_029.jpg
2325.58	0.979	1	congruent	Block2	congruent/STIM_029.jpg
2329.709	0.627	1	congruent	Block2	congruent/STIM_029.jpg
2334.183	0.916	1	incongruent	Block3	incongruent/STIM_000.jpg
2338.773	0.99	1	incongruent	Block3	incongruent/STIM_000.jpg
2343.358	0.954	1	incongruent	Block3	incongruent/STIM_000.jpg
2347.921	0.815	1	incongruent	Block3	incongruent/STIM_000.jpg
2352.122	0.883	1	incongruent	Block3	incongruent/STIM_000.jpg
2356.746	0.638	1	incongruent	Block3	incongruent/STIM_001.jpg
2359.7	0.979	1	incongruent	Block3	incongruent/STIM_001.jpg
2364.659	1.029	1	incongruent	Block3	incongruent/STIM_001.jpg
2368.791	0.72	1	incongruent	Block3	incongruent/STIM_001.jpg
2372.405	1.096	1	incongruent	Block3	incongruent/STIM_001.jpg
2377.216	0.982	1	incongruent	Block3	incongruent/STIM_002.jpg
2381.763	0.564	1	incongruent	Block3	incongruent/STIM_002.jpg
2384.955	0.81	1	incongruent	Block3	incongruent/STIM_002.jpg
2388.283	0.709	1	incongruent	Block3	incongruent/STIM_002.jpg
2392.102	0.594	1	incongruent	Block3	incongruent/STIM_002.jpg
2396.552	1.116	1	incongruent	Block3	incongruent/STIM_003.jpg
2399.856	1.12	1	incongruent	Block3	incongruent/STIM_003.jpg
2404.328	0.876	1	incongruent	Block3	incongruent/STIM_003.jpg
2407.824	1.033	1	incongruent	Block3	incongruent/STIM_003.jpg
2411.957	0.92	1	incongruent	Block3	incongruent/STIM_003.jpg
2415.085	0.979	1	incongruent	Block3	incongruent/STIM_004.jpg
2419.803	1.05	1	incongruent	Block3	incongruent/STIM_004.jpg
2423.506	0.943	1	incongruent	Block3	incongruent/STIM_004.jpg
2428.163	0.557	1	incongruent	Block3	incongruent/STIM_004.jpg
2432.444	0.915	1	incongruent	Block3	incongruent/STIM_004.jpg
2436.911	1.032	1	incongruent	Block3	incongruent/STIM_005.jpg
2441.498	1.136	1	incongruent	Block3	incongruent/STIM_005.jpg
2445.685	0.572	1	incongruent	Block3	incongruent/STIM_005.jpg
2448.488	0.641	1	incongruent	Block3	incongruent/STIM_005.jpg
2451.748	0.839	1	incongruent	Block3	incongruent/STIM_005.jpg
2455.234	0.726	1	incongruent	Block3	incongruent/STIM_006.jpg
2458.128	1.017	1	incongruent	Block3	incongruent/STIM_006.jpg
2461.58	0.996	1	incongruent	Block3	incongruent/STIM_006.jpg
2466.441	0.998	1	incongruent	Block3	incongruent/STIM_006.jpg
2469.815	0.581	1	incongruent	Block3	incongruent/STIM_006.jpg
2473.486	0.668	1	incongruent	Block3	incongruent/STIM_007.jpg
2476.304	0.98	1	incongruent	Block3	incongruent/STIM_007.jpg
2480.5	1.009	1	incongruent	Block3	incongruent/STIM_007.jpg
2483.666	1.163	1	incongruent	Block3	incongruent/STIM_007.jpg
2487.713	0.829	1	incongruent	Block3	incongruent/STIM_007.jpg
2491.589	0.888	1	incongruent	Block3	incongruent/STIM_008.jpg
2496.19	0.731	1	incongruent	Block3	incongruent/STIM_008.jpg
2500.76	1.0	1	incongruent	Block3	incongruent/STIM_008.jpg
2504.886	0.638	1	incongruent	Block3	incongruent/STIM_008.jpg
2508.816	0.655	1	incongruent	Block3	incongruent/STIM_008.jpg
2513.393	0.568	1	incongruent	Block3	incongruent/STIM_009.jpg
2517.039	0.845	1	incongruent	Block3	incongruent/STIM_009.jpg
2520.943	0.814	1	incongruent	Block3	incongruent/STIM_009.jpg
2524.905	1.049	1	incongruent	Block3	incongruent/STIM_009.jpg
2528.834	0.702	1	incongruent	Block3	incongruent/STIM_009.jpg
2532.169	0.663	1	incongruent	Block3	incongruent/STIM_010.jpg
2535.464	1.167	1	incongruent	Block3	incongruent/STIM_010.jpg
2540.471	1.029	1	incongruent	Block3	incongruent/STIM_010.jpg
2544.098	0.945	1	incongruent	Block3	incongruent/STIM_010.jpg
2547.771	0.828	1	incongruent	Block3	incongruent/STIM_010.jpg
2551.262	0.864	1	incongruent	Block3	incongruent/STIM_011.jpg
2554.342	0.952	1	incongruent	Block3	incongruent/STIM_011.jpg
2557.504	0.96	1	incongruent	Block3	incongruent/STIM_011.jpg
2562.135	1.053	1	incongruent	Block3	incongruent/STIM_011.jpg
2567.025	0.932	1	incongruent	Block3	incongruent/STIM_011.jpg
2570.068	0.88	1	incongruent	Block3	incongruent/STIM_012.jpg
2574.837	0.576	1	incongruent	Block3	incongruent/STIM_012.jpg
2578.562	1.147	1	incongruent	Block3	incongruent/STIM_012.jpg
2583.141	0.797	1	incongruent	Block3	incongruent/STIM_012.jpg
2587.587	0.923	1	incongruent	Block3	incongruent/STIM_012.jpg
2590.672	0.696	1	incongruent	Block3	incongruent/STIM_013.jpg
2594.416	0.66	1	incongruent	Block3	incongruent/STIM_013.jpg
2597.366	0.874	1	incongruent	Block3	incongruent/STIM_013.jpg
2601.57	1.059	1	incongruent	Block3	incongruent/STIM_013.jpg
2605.873	0.815	1	incongruent	Block3	incongruent/STIM_013.jpg
2609.585	0.64	1	incongruent	Block3	incongruent/STIM_014.jpg
2612.903	0.975	1	incongruent	Block3	incongruent/STIM_014.jpg
2616.078	0.882	1	incongruent	Block3	incongruent/STIM_014.jpg
2619.97	1.09	0	incongruent	Block3	incongruent/STIM_014.jpg
2623.971	0.835	1	incongruent	Block3	incongruent/STIM_014.jpg
2627.435	1.044	1	incongruent	Block3	incongruent/STIM_015.jpg
2631.739	0.844	1	incongruent	Block3	incongruent/STIM_015.jpg
2634.716	0.807	1	incongruent	Block3	incongruent/STIM_015.jpg
2637.851	0.983	1	incongruent	Block3	incongruent/STIM_015.jpg
2641.268	1.14	1	incongruent	Block3	incongruent/STIM_015.jpg
2644.785	0.592	1	incongruent	Block3	incongruent/STIM_016.jpg
2648.406	0.634	1	incongruent	Block3	incongruent/STIM_016.jpg
2652.056	0.592	1	incongruent	Block3	incongruent/STIM_016.jpg
2656.459	1.019	1	incongruent	Block3	incongruent/STIM_016.jpg
2660.876	0.55	1	incongruent	Block3	incongruent/STIM_016.jpg
2663.551	0.939	1	incongruent	Block3	incongruent/STIM_017.jpg
2667.3	0.68	1	incongruent	Block3	incongruent/STIM_017.jpg
2670.399	1.044	1	incongruent	Block3	incongruent/STIM_017.jpg
2674.147	1.086	1	incongruent	Block3	incongruent/STIM_017.jpg
2678.995	1.003	1	incongruent	Block3	incongruent/STIM_017.jpg
2683.018	0.926	1	incongruent	Block3	incongruent/STIM_018.jpg
2686.664	0.856	1	incongruent	Block3	incongruent/STIM_018.jpg
2691.106	1.136	1	incongruent	Block3	incongruent/STIM_018.jpg
2695.82	1.151	1	incongruent	Block3	incongruent/STIM_018.jpg
2700.674	1.022	1	incongruent	Block3	incongruent/STIM_018.jpg
2703.941	1.11	1	incongruent	Block3	incongruent/STIM_019.jpg
2707.581	1.048	1	incongruent	Block3	incongruent/STIM_019.jpg
2712.013	1.133	1	incongruent	Block3	incongruent/STIM_019.jpg
2715.345	0.688	1	incongruent	Block3	incongruent/STIM_019.jpg
2718.846	0.57	1	incongruent	Block3	incongruent/STIM_019.jpg
2722.46	0.999	1	incongruent	Block3	incongruent/STIM_020.jpg
2726.837	1.082	1	incongruent	Block3	incongruent/STIM_020.jpg
2731.918	0.834	0	incongruent	Block3	incongruent/STIM_020.jpg
2735.69	0.87	1	incongruent	Block3	incongruent/STIM_020.jpg
2739.887	1.059	1	incongruent	Block3	incongruent/STIM_020.jpg
2744.721	1.03	1	incongruent	Block3	incongruent/STIM_021.jpg
2748.924	1.167	1	incongruent	Block3	incongruent/STIM_021.jpg
2752.922	1.1	1	incongruent	Block3	incongruent/STIM_021.jpg
2757.967	0.651	1	incongruent	Block3	incongruent/STIM_021.jpg
2761.165	1.16	1	incongruent	Block3	incongruent/STIM_021.jpg
2765.452	1.131	1	incongruent	Block3	incongruent/STIM_022.jpg
2769.14	1.169	1	incongruent	Block3	incongruent/STIM_022.jpg
2774.027	0.552	1	incongruent	Block3	incongruent/STIM_022.jpg
2777.886	0.966	1	incongruent	Block3	incongruent/STIM_022.jpg
2782.022	0.769	1	incongruent	Block3	incongruent/STIM_022.jpg
2786.791	0.701	1	incongruent	Block3	incongruent/STIM_023.jpg
2789.744	0.994	1	incongruent	Block3	incongruent/STIM_023.jpg
2793.995	0.963	1	incongruent	Block3	incongruent/STIM_023.jpg
2797.813	0.93	1	incongruent	Block3	incongruent/STIM_023.jpg
2801.206	0.563	1	incongruent	Block3	incongruent/STIM_023.jpg
2803.926	0.748	1	incongruent	Block3	incongruent/STIM_024.jpg
2807.367	0.693	1	incongruent	Block3	incongruent/STIM_024.jpg
2811.467	1.02	1	incongruent	Block3	incongruent/STIM_024.jpg
2815.846	0.757	1	incongruent	Block3	incongruent/STIM_024.jpg
2819.892	1.09	1	incongruent	Block3	incongruent/STIM_024.jpg
2824.666	0.619	1	incongruent	Block3	incongruent/STIM_025.jpg
2828.677	1.073	1	incongruent	Block3	incongruent/STIM_025.jpg
2833.088	0.653	1	incongruent	Block3	incongruent/STIM_025.jpg
2836.515	0.904	1	incongruent	Block3	incongruent/STIM_025.jpg
2840.828	0.705	1	incongruent	Block3	incongruent/STIM_025.jpg
2845.045	0.889	1	incongruent	Block3	incongruent/STIM_026.jpg
2848.04	0.574	1	incongruent	Block3	incongruent/STIM_026.jpg
2851.802	0.595	1	incongruent	Block3	incongruent/STIM_026.jpg
2855.756	1.145	1	incongruent	Block3	incongruent/STIM_026.jpg
2860.223	1.131	1	incongruent	Block3	incongruent/STIM_026.jpg
2863.668	0.598	1	incongruent	Block3	incongruent/STIM_027.jpg
2867.728	1.144	1	incongruent	Block3	incongruent/STIM_027.jpg
2871.835	0.576	1	incongruent	Block3	incongruent/STIM_027.jpg
2875.125	0.755	1	incongruent	Block3	incongruent/STIM_027.jpg
2879.461	0.881	1	incongruent	Block3	incongruent/STIM_027.jpg
2882.876	0.847	1	incongruent	Block3	incongruent/STIM_028.jpg
2886.635	0.809	1	incongruent	Block3	incongruent/STIM_028.jpg
2890.997	0.988	1	incongruent	Block3	incongruent/STIM_028.jpg
2894.846	1.052	1	incongruent	Block3	incongruent/STIM_028.jpg
2898.288	0.972	1	incongruent	Block3	incongruent/STIM_028.jpg
2901.396	0.824	1	incongruent	Block3	incongruent/STIM_029.jpg
2905.954	1.052	1	incongruent	Block3	incongruent/STIM_029.jpg
2909.853	1.084	1	incongruent	Block3	incongruent/STIM_029.jpg
2913.289	0.644	1	incongruent	Block3	incongruent/STIM_029.jpg
2916.465	0.959	1	incongruent	Block3	incongruent/STIM_029.jpg
2920.08	0.59	1	congruent	Block3	congruent/STIM_000.jpg
2924.499	0.772	1	congruent	Block3	congruent/STIM_000.jpg
2928.103	0.894	1	congruent	Block3	congruent/STIM_000.jpg
2932.437	0.69	1	congruent	Block3	congruent/STIM_000.jpg
2937.08	0.76	1	congruent	Block3	congruent/STIM_000.jpg
2940.547	0.81	1	congruent	Block3	congruent/STIM_001.jpg
2944.099	0.762	0	congruent	Block3	congruent/STIM_001.jpg
2948.736	0.598	1	congruent	Block3	congruent/STIM_001.jpg
2951.965	0.604	1	congruent	Block3	congruent/STIM_001.jpg
2954.596	0.949	1	congruent	Block3	congruent/STIM_001.jpg
2959.171	0.754	1	congruent	Block3	congruent/STIM_002.jpg
2962.59	0.958	1	congruent	Block3	congruent/STIM_002.jpg
2967.385	0.76	1	congruent	Block3	congruent/STIM_002.jpg
2971.157	0.772	1	congruent	Block3	congruent/STIM_002.jpg
2974.772	0.874	1	congruent	Block3	congruent/STIM_002.jpg
2978.824	0.788	1	congruent	Block3	congruent/STIM_003.jpg
2982.359	0.637	1	congruent	Block3	congruent/STIM_003.jpg
2986.791	0.966	1	congruent	Block3	congruent/STIM_003.jpg
2991.033	0.819	1	congruent	Block3	congruent/STIM_003.jpg
2995.306	0.765	1	congruent	Block3	congruent/STIM_003.jpg
2999.924	0.868	1	congruent	Block3	congruent/STIM_004.jpg
3004.105	0.753	1	congruent	Block3	congruent/STIM_004.jpg
3007.104	0.73	1	congruent	Block3	congruent/STIM_004.jpg
3011.512	0.814	1	congruent	Block3	congruent/STIM_004.jpg
3014.361	0.996	1	congruent	Block3	congruent/STIM_004.jpg
3017.417	1.001	1	congruent	Block3	congruent/STIM_005.jpg
3022.339	0.741	1	congruent	Block3	congruent/STIM_005.jpg
3026.022	0.618	1	congruent	Block3	congruent/STIM_005.jpg
3030.078	0.916	1	congruent	Block3	congruent/STIM_005.jpg
3033.401	0.613	1	congruent	Block3	congruent/STIM_005.jpg
3037.997	0.726	1	congruent	Block3	congruent/STIM_006.jpg
3041.477	0.75	1	congruent	Block3	congruent/STIM_006.jpg
3045.574	0.806	1	congruent	Block3	congruent/STIM_006.jpg
3048.499	0.94	1	congruent	Block3	congruent/STIM_006.jpg
3052.351	0.803	1	congruent	Block3	congruent/STIM_006.jpg
3056.224	0.935	1	congruent	Block3	congruent/STIM_007.jpg
3059.271	0.628	1	congruent	Block3	congruent/STIM_007.jpg
3062.939	0.961	1	congruent	Block3	congruent/STIM_007.jpg
3066.108	0.896	1	congruent	Block3	congruent/STIM_007.jpg
3070.862	0.587	1	congruent	Block3	congruent/STIM_007.jpg
3074.313	0.669	1	congruent	Block3	congruent/STIM_008.jpg
3077.192	0.587	1	congruent	Block3	congruent/STIM_008.jpg
3080.924	0.664	1	congruent	Block3	congruent/STIM_008.jpg
3085.201	0.874	1	congruent	Block3	congruent/STIM_008.jpg
3089.403	0.658	1	congruent	Block3	congruent/STIM_008.jpg
3092.79	0.767	1	congruent	Block3	congruent/STIM_009.jpg
3096.111	0.972	1	congruent	Block3	congruent/STIM_009.jpg
3099.933	0.963	1	congruent	Block3	congruent/STIM_009.jpg
3103.526	0.688	1	congruent	Block3	congruent/STIM_009.jpg
3108.035	0.562	1	congruent	Block3	congruent/STIM_009.jpg
3110.927	0.871	1	congruent	Block3	congruent/STIM_010.jpg
3115.257	0.788	1	congruent	Block3	congruent/STIM_010.jpg
3119.671	0.851	1	congruent	Block3	congruent/STIM_010.jpg
3123.197	0.774	1	congruent	Block3	congruent/STIM_010.jpg
3127.393	0.774	1	congruent	Block3	congruent/STIM_010.jpg
3131.37	0.953	1	congruent	Block3	congruent/STIM_011.jpg
3135.562	0.824	1	congruent	Block3	congruent/STIM_011.jpg
3139.373	0.871	1	congruent	Block3	congruent/STIM_011.jpg
3143.345	0.562	1	congruent	Block3	congruent/STIM_011.jpg
3146.839	0.893	1	congruent	Block3	congruent/STIM_011.jpg
3150.48	0.7	1	congruent	Block3	congruent/STIM_012.jpg
3154.742	0.813	1	congruent	Block3	congruent/STIM_012.jpg
3158.355	0.771	1	congruent	Block3	congruent/STIM_012.jpg
3162.568	0.608	1	congruent	Block3	congruent/STIM_012.jpg
3166.317	1.0	1	congruent	Block3	congruent/STIM_012.jpg
3171.257	0.779	1	congruent	Block3	congruent/STIM_013.jpg
3175.647	0.867	1	congruent	Block3	congruent/STIM_013.jpg
3179.405	0.654	1	congruent	Block3	congruent/STIM_013.jpg
3182.33	0.72	1	congruent	Block3	congruent/STIM_013.jpg
3186.105	0.74	1	congruent	Block3	congruent/STIM_013.jpg
3190.448	0.776	1	congruent	Block3	congruent/STIM_014.jpg
3193.461	0.56	1	congruent	Block3	congruent/STIM_014.jpg
3197.56	0.914	1	congruent	Block3	congruent/STIM_014.jpg
3201.233	0.926	1	congruent	Block3	congruent/STIM_014.jpg
3204.548	0.836	1	congruent	Block3	congruent/STIM_014.jpg
3207.727	0.925	1	congruent	Block3	congruent/STIM_015.jpg
3212.096	0.668	1	congruent	Block3	congruent/STIM_015.jpg
3216.337	0.866	1	congruent	Block3	congruent/STIM_015.jpg
3219.348	0.851	1	congruent	Block3	congruent/STIM_015.jpg
3222.687	0.98	1	congruent	Block3	congruent/STIM_015.jpg
3226.224	0.621	1	congruent	Block3	congruent/STIM_016.jpg
3230.276	0.809	1	congruent	Block3	congruent/STIM_016.jpg
3233.643	0.69	1	congruent	Block3	congruent/STIM_016.jpg
3236.852	0.914	1	congruent	Block3	congruent/STIM_016.jpg
3241.298	0.839	1	congruent	Block3	congruent/STIM_016.jpg
3244.625	0.769	1	congruent	Block3	congruent/STIM_017.jpg
3249.045	0.868	1	congruent	Block3	congruent/STIM_017.jpg
3252.733	0.847	1	congruent	Block3	congruent/STIM_017.jpg
3256.315	0.764	1	congruent	Block3	congruent/STIM_017.jpg
3259.353	0.727	1	congruent	Block3	congruent/STIM_017.jpg
3262.649	0.999	1	congruent	Block3	congruent/STIM_018.jpg
3267.024	0.838	1	congruent	Block3	congruent/STIM_018.jpg
3270.922	0.594	1	congruent	Block3	congruent/STIM_018.jpg
3274.528	0.737	1	congruent	Block3	congruent/STIM_018.jpg
3278.965	0.777	1	congruent	Block3	congruent/STIM_018.jpg
3283.004	0.674	1	congruent	Block3	congruent/STIM_019.jpg
3286.06	0.704	1	congruent	Block3	congruent/STIM_019.jpg
3289.614	0.939	1	congruent	Block3	congruent/STIM_019.jpg
3293.478	0.727	1	congruent	Block3	congruent/STIM_019.jpg
3298.123	0.98	1	congruent	Block3	congruent/STIM_019.jpg
3302.661	0.75	1	congruent	Block3	congruent/STIM_020.jpg
3306.411	0.981	1	congruent	Block3	congruent/STIM_020.jpg
3310.814	0.996	1	congruent	Block3	congruent/STIM_020.jpg
3314.536	0.656	1	congruent	Block3	congruent/STIM_020.jpg
3318.61	0.868	1	congruent	Block3	congruent/STIM_020.jpg
3321.636	0.757	1	congruent	Block3	congruent/STIM_021.jpg
3325.212	0.904	1	congruent	Block3	congruent/STIM_021.jpg
3328.634	0.9	1	congruent	Block3	congruent/STIM_021.jpg
3332.045	0.925	1	congruent	Block3	congruent/STIM_021.jpg
3335.344	0.787	1	congruent	Block3	congruent/STIM_021.jpg
3338.311	0.87	1	congruent	Block3	congruent/STIM_022.jpg
3341.993	0.875	1	congruent	Block3	congruent/STIM_022.jpg
3345.595	0.892	1	congruent	Block3	congruent/STIM_022.jpg
3349.188	0.958	1	congruent	Block3	congruent/STIM_022.jpg
3352.2	0.964	1	congruent	Block3	congruent/STIM_022.jpg
3355.343	0.895	1	congruent	Block3	congruent/STIM_023.jpg
3358.7	0.802	1	congruent	Block3	congruent/STIM_023.jpg
3361.806	0.737	1	congruent	Block3	congruent/STIM_023.jpg
3365.364	0.848	1	congruent	Block3	congruent/STIM_023.jpg
3369.847	0.586	1	congruent	Block3	congruent/STIM_023.jpg
3373.432	0.975	1	congruent	Block3	congruent/STIM_024.jpg
3377.777	0.987	1	congruent	Block3	congruent/STIM_024.jpg
3382.337	0.593	1	congruent	Block3	congruent/STIM_024.jpg
3385.09	0.676	1	congruent	Block3	congruent/STIM_024.jpg
3388.841	0.673	1	congruent	Block3	congruent/STIM_024.jpg
3393.286	0.639	1	congruent	Block3	congruent/STIM_025.jpg
3396.057	0.92	1	congruent	Block3	congruent/STIM_025.jpg
3400.631	0.683	1	congruent	Block3	congruent/STIM_025.jpg
3404.2	0.69	1	congruent	Block3	congruent/STIM_025.jpg
3407.019	0.613	1	congruent	Block3	congruent/STIM_025.jpg
3409.662	0.869	1	congruent	Block3	congruent/STIM_026.jpg
3412.745	0.643	1	congruent	Block3	congruent/STIM_026.jpg
3416.53	0.963	1	congruent	Block3	congruent/STIM_026.jpg
3421.31	0.806	1	congruent	Block3	congruent/STIM_026.jpg
3425.038	0.95	1	congruent	Block3	congruent/STIM_026.jpg
3429.221	0.96	1	congruent	Block3	congruent/STIM_027.jpg
3432.435	0.688	1	congruent	Block3	congruent/STIM_027.jpg
3435.69	0.843	0	congruent	Block3	congruent/STIM_027.jpg
3439.298	0.63	1	congruent	Block3	congruent/STIM_027.jpg
3443.751	0.647	1	congruent	Block3	congruent/STIM_027.jpg
3446.983	0.854	1	congruent	Block3	congruent/STIM_028.jpg
3451.808	0.612	1	congruent	Block3	congruent/STIM_028.jpg
3455.562	0.74	1	congruent	Block3	congruent/STIM_028.jpg
3458.958	0.647	1	congruent	Block3	congruent/STIM_028.jpg
3462.618	0.711	1	congruent	Block3	congruent/STIM_028.jpg
3465.944	0.995	1	congruent	Block3	congruent/STIM_029.jpg
3470.06	0.687	1	congruent	Block3	congruent/STIM_029.jpg
3473.272	0.653	1	congruent	Block3	congruent/STIM_029.jpg
3477.573	0.679	1	congruent	Block3	congruent/STIM_029.jpg
3481.173	0.573	1	congruent	Block3	congruent/STIM_029.jpg
