onset	duration	response_time_ms	trial_type	learning_stage	stimulus	response_port
0.0	0.971	971.3	incongruent	Block1	incongruent/STIM_000.jpg	99
3.489	1.126	1125.8	incongruent	Block1	incongruent/STIM_000.jpg	100
7.693	1.053	1053.0	incongruent	Block1	incongruent/STIM_000.jpg	100
11.192	1.346	1345.5	incongruent	Block1	incongruent/STIM_000.jpg	99
14.638	1.244	1243.8	incongruent	Block1	incongruent/STIM_000.jpg	100
17.915	1.167	1167.4	incongruent	Block1	incongruent/STIM_001.jpg	100
22.968	1.414	1413.6	incongruent	Block1	incongruent/STIM_001.jpg	100
27.711	0.89	890.5	incongruent	Block1	incongruent/STIM_001.jpg	100
32.13	1.126	1126.3	incongruent	Block1	incongruent/STIM_001.jpg	100
37.148	1.074	1073.5	incongruent	Block1	incongruent/STIM_001.jpg	100
40.403	1.096	1095.8	incongruent	Block1	incongruent/STIM_002.jpg	99
43.664	1.31	1310.0	incongruent	Block1	incongruent/STIM_002.jpg	100
48.128	1.183	1182.9	incongruent	Block1	incongruent/STIM_002.jpg	99
51.248	1.274	1274.1	incongruent	Block1	incongruent/STIM_002.jpg	100
55.131	1.132	1132.0	incongruent	Block1	incongruent/STIM_002.jpg	100
59.14	1.156	1155.5	incongruent	Block1	incongruent/STIM_003.jpg	99
63.215	1.054	1054.3	incongruent	Block1	incongruent/STIM_003.jpg	100
67.38	0.695	694.9	incongruent	Block1	incongruent/STIM_003.jpg	99
71.057	1.061	1061.3	incongruent	Block1	incongruent/STIM_003.jpg	99
75.014	0.915	915.2	incongruent	Block1	incongruent/STIM_003.jpg	99
79.478	1.462	1461.5	incongruent	Block1	incongruent/STIM_004.jpg	100
83.912	1.289	1288.7	incongruent	Block1	incongruent/STIM_004.jpg	100
88.893	0.971	970.9	incongruent	Block1	incongruent/STIM_004.jpg	99
91.861	1.006	1006.4	incongruent	Block1	incongruent/STIM_004.jpg	99
95.376	0.964	963.7	incongruent	Block1	incongruent/STIM_004.jpg	99
100.125	1.082	1081.7	incongruent	Block1	incongruent/STIM_005.jpg	100
105.019	1.291	1291.4	incongruent	Block1	incongruent/STIM_005.jpg	100
108.299	1.139	1138.7	incongruent	Block1	incongruent/STIM_005.jpg	99
112.151	0.641	641.2	incongruent	Block1	incongruent/STIM_005.jpg	100
116.269	0.872	871.6	incongruent	Block1	incongruent/STIM_005.jpg	100
119.267	1.583	1583.4	incongruent	Block1	incongruent/STIM_006.jpg	100
124.578	1.232	1232.1	incongruent	Block1	incongruent/STIM_006.jpg	100
127.819	1.389	1388.9	incongruent	Block1	incongruent/STIM_006.jpg	99
132.149	0.893	892.9	incongruent	Block1	incongruent/STIM_006.jpg	100
135.634	1.085	1085.2	incongruent	Block1	incongruent/STIM_006.jpg	99
139.791	1.443	1442.7	incongruent	Block1	incongruent/STIM_007.jpg	99
143.453	1.122	1122.3	incongruent	Block1	incongruent/STIM_007.jpg	99
147.96	1.203	1202.9	incongruent	Block1	incongruent/STIM_007.jpg	99
152.811	1.3	1300.1	incongruent	Block1	incongruent/STIM_007.jpg	100
157.342	0.856	855.6	incongruent	Block1	incongruent/STIM_007.jpg	100
161.622	0.916	916.1	incongruent	Block1	incongruent/STIM_008.jpg	100
165.742	1.087	1087.1	incongruent	Block1	incongruent/STIM_008.jpg	99
170.103	1.106	1106.4	incongruent	Block1	incongruent/STIM_008.jpg	99
173.717	1.178	1177.9	incongruent	Block1	incongruent/STIM_008.jpg	100
177.328	1.153	1153.1	incongruent	Block1	incongruent/STIM_008.jpg	99
180.678	0.924	924.4	incongruent	Block1	incongruent/STIM_009.jpg	100
185.054	1.132	1132.1	incongruent	Block1	incongruent/STIM_009.jpg	99
189.981	1.052	1052.3	incongruent	Block1	incongruent/STIM_009.jpg	100
194.288	0.772	771.7	incongruent	Block1	incongruent/STIM_009.jpg	100
197.564	1.228	1228.2	incongruent	Block1	incongruent/STIM_009.jpg	100
201.085	0.767	766.8	incongruent	Block1	incongruent/STIM_010.jpg	99
204.811	0.872	871.9	incongruent	Block1	incongruent/STIM_010.jpg	99
207.89	1.121	1121.1	incongruent	Block1	incongruent/STIM_010.jpg	99
212.621	1.255	1254.9	incongruent	Block1	incongruent/STIM_010.jpg	99
215.839	1.166	1165.9	incongruent	Block1	incongruent/STIM_010.jpg	99
219.349	1.294	1294.2	incongruent	Block1	incongruent/STIM_011.jpg	99
223.326	1.024	1023.9	incongruent	Block1	incongruent/STIM_011.jpg	100
227.061	0.707	706.9	incongruent	Block1	incongruent/STIM_011.jpg	99
230.865	1.281	1281.1	incongruent	Block1	incongruent/STIM_011.jpg	99
235.146	0.826	825.6	incongruent	Block1	incongruent/STIM_011.jpg	100
239.476	0.841	840.8	incongruent	Block1	incongruent/STIM_012.jpg	99
242.282	0.754	753.9	incongruent	Block1	incongruent/STIM_012.jpg	100
245.232	0.753	752.9	incongruent	Block1	incongruent/STIM_012.jpg	99
249.109	0.818	817.6	incongruent	Block1	incongruent/STIM_012.jpg	99
253.85	0.853	853.4	incongruent	Block1	incongruent/STIM_012.jpg	99
257.077	1.536	1536.3	incongruent	Block1	incongruent/STIM_013.jpg	100
261.393	1.172	1172.4	incongruent	Block1	incongruent/STIM_013.jpg	99
264.78	0.928	927.6	incongruent	Block1	incongruent/STIM_013.jpg	99
267.885	0.638	637.9	incongruent	Block1	incongruent/STIM_013.jpg	100
272.444	1.116	1116.1	incongruent	Block1	incongruent/STIM_013.jpg	100
276.249	1.441	1441.2	incongruent	Block1	incongruent/STIM_014.jpg	100
280.666	0.806	805.8	incongruent	Block1	incongruent/STIM_014.jpg	100
284.105	0.813	812.7	incongruent	Block1	incongruent/STIM_014.jpg	99
286.91	1.172	1172.5	incongruent	Block1	incongruent/STIM_014.jpg	99
291.571	1.232	1232.5	incongruent	Block1	incongruent/STIM_014.jpg	100
294.773	0.998	998.2	incongruent	Block1	incongruent/STIM_015.jpg	100
297.783	1.023	1022.9	incongruent	Block1	incongruent/STIM_015.jpg	100
300.881	1.108	1108.1	incongruent	Block1	incongruent/STIM_015.jpg	100
305.178	0.981	980.9	incongruent	Block1	incongruent/STIM_015.jpg	99
309.735	0.883	883.1	incongruent	Block1	incongruent/STIM_015.jpg	99
313.442	0.947	947.4	incongruent	Block1	incongruent/STIM_016.jpg	99
316.571	0.713	712.7	incongruent	Block1	incongruent/STIM_016.jpg	99
319.914	1.123	1123.0	incongruent	Block1	incongruent/STIM_016.jpg	100
323.656	1.011	1011.0	incongruent	Block1	incongruent/STIM_016.jpg	100
328.242	0.61	609.5	incongruent	Block1	incongruent/STIM_016.jpg	99
331.338	1.192	1192.2	incongruent	Block1	incongruent/STIM_017.jpg	99
334.711	1.336	1336.3	incongruent	Block1	incongruent/STIM_017.jpg	100
338.37	1.316	1315.9	incongruent	Block1	incongruent/STIM_017.jpg	99
342.416	0.789	789.1	incongruent	Block1	incongruent/STIM_017.jpg	100
346.494	0.673	672.6	incongruent	Block1	incongruent/STIM_017.jpg	99
350.981	1.16	1159.8	incongruent	Block1	incongruent/STIM_018.jpg	99
355.38	1.377	1377.1	incongruent	Block1	incongruent/STIM_018.jpg	99
359.442	1.432	1432.0	incongruent	Block1	incongruent/STIM_018.jpg	99
363.252	0.843	843.2	incongruent	Block1	incongruent/STIM_018.jpg	100
366.112	1.104	1104.5	incongruent	Block1	incongruent/STIM_018.jpg	100
369.492	1.509	1509.4	incongruent	Block1	incongruent/STIM_019.jpg	99
373.329	1.022	1022.0	incongruent	Block1	incongruent/STIM_019.jpg	99
376.605	1.427	1426.7	incongruent	Block1	incongruent/STIM_019.jpg	100
380.57	1.087	1086.6	incongruent	Block1	incongruent/STIM_019.jpg	99
385.454	0.899	898.7	incongruent	Block1	incongruent/STIM_019.jpg	99
389.071	1.175	1174.9	incongruent	Block1	incongruent/STIM_020.jpg	99
392.279	1.49	1490.3	incongruent	Block1	incongruent/STIM_020.jpg	100
397.63	1.295	1295.2	incongruent	Block1	incongruent/STIM_020.jpg	99
401.216	0.944	943.6	incongruent	Block1	incongruent/STIM_020.jpg	100
404.399	1.04	1039.5	incongruent	Block1	incongruent/STIM_020.jpg	99
409.056	0.971	970.9	incongruent	Block1	incongruent/STIM_021.jpg	100
413.157	0.76	759.6	incongruent	Block1	incongruent/STIM_021.jpg	99
417.228	1.326	1326.3	incongruent	Block1	incongruent/STIM_021.jpg	99
422.009	1.154	1154.4	incongruent	Block1	incongruent/STIM_021.jpg	99
425.971	0.933	933.3	incongruent	Block1	incongruent/STIM_021.jpg	100
428.954	0.869	869.0	incongruent	Block1	incongruent/STIM_022.jpg	100
432.237	0.84	840.3	incongruent	Block1	incongruent/STIM_022.jpg	100
436.652	1.422	1422.4	incongruent	Block1	incongruent/STIM_022.jpg	99
441.195	1.073	1073.3	incongruent	Block1	incongruent/STIM_022.jpg	100
444.618	1.186	1185.9	incongruent	Block1	incongruent/STIM_022.jpg	99
449.079	1.57	1569.6	incongruent	Block1	incongruent/STIM_023.jpg	100
453.885	1.293	1293.2	incongruent	Block1	incongruent/STIM_023.jpg	100
458.31	1.141	1141.0	incongruent	Block1	incongruent/STIM_023.jpg	99
462.181	1.08	1080.1	incongruent	Block1	incongruent/STIM_023.jpg	100
466.255	1.134	1133.7	incongruent	Block1	incongruent/STIM_023.jpg	99
470.426	1.356	1355.9	incongruent	Block1	incongruent/STIM_024.jpg	99
475.65	1.265	1265.3	incongruent	Block1	incongruent/STIM_024.jpg	99
478.871	1.336	1336.0	incongruent	Block1	incongruent/STIM_024.jpg	100
483.514	1.168	1168.0	incongruent	Block1	incongruent/STIM_024.jpg	99
488.555	0.888	888.2	incongruent	Block1	incongruent/STIM_024.jpg	99
492.767	1.551	1550.8	incongruent	Block1	incongruent/STIM_025.jpg	100
497.69	0.823	823.0	incongruent	Block1	incongruent/STIM_025.jpg	100
501.597	0.814	814.5	incongruent	Block1	incongruent/STIM_025.jpg	100
504.456	1.053	1052.9	incongruent	Block1	incongruent/STIM_025.jpg	100
507.513	0.747	747.1	incongruent	Block1	incongruent/STIM_025.jpg	99
511.975	1.11	1109.9	incongruent	Block1	incongruent/STIM_026.jpg	100
516.854	1.107	1107.2	incongruent	Block1	incongruent/STIM_026.jpg	100
520.598	0.935	935.3	incongruent	Block1	incongruent/STIM_026.jpg	99
524.585	1.318	1317.6	incongruent	Block1	incongruent/STIM_026.jpg	100
527.913	0.732	732.4	incongruent	Block1	incongruent/STIM_026.jpg	99
531.066	0.851	851.0	incongruent	Block1	incongruent/STIM_027.jpg	100
535.331	1.108	1108.3	incongruent	Block1	incongruent/STIM_027.jpg	100
539.336	1.294	1294.3	incongruent	Block1	incongruent/STIM_027.jpg	100
542.865	1.122	1121.5	incongruent	Block1	incongruent/STIM_027.jpg	99
547.76	0.613	612.9	incongruent	Block1	incongruent/STIM_027.jpg	99
551.478	1.018	1017.8	incongruent	Block1	incongruent/STIM_028.jpg	100
555.414	1.042	1041.6	incongruent	Block1	incongruent/STIM_028.jpg	100
558.581	1.176	1175.6	incongruent	Block1	incongruent/STIM_028.jpg	100
562.448	1.257	1256.7	incongruent	Block1	incongruent/STIM_028.jpg	99
567.303	1.011	1011.1	incongruent	Block1	incongruent/STIM_028.jpg	100
571.826	0.891	890.6	incongruent	Block1	incongruent/STIM_029.jpg	99
574.845	0.89	889.5	incongruent	Block1	incongruent/STIM_029.jpg	100
578.49	1.336	1335.7	incongruent	Block1	incongruent/STIM_029.jpg	100
582.686	0.808	807.9	incongruent	Block1	incongruent/STIM_029.jpg	100
586.024	0.905	904.7	incongruent	Block1	incongruent/STIM_029.jpg	100
589.611	0.828	827.8	congruent	Block1	congruent/STIM_000.jpg	99
592.623	0.866	865.7	congruent	Block1	congruent/STIM_000.jpg	100
597.142	0.754	754.0	congruent	Block1	congruent/STIM_000.jpg	99
600.824	0.763	763.0	congruent	Block1	congruent/STIM_000.jpg	99
603.835	0.566	566.5	congruent	Block1	congruent/STIM_000.jpg	99
608.113	0.95	949.8	congruent	Block1	congruent/STIM_001.jpg	100
611.119	0.744	743.5	congruent	Block1	congruent/STIM_001.jpg	99
614.24	0.9	899.9	congruent	Block1	congruent/STIM_001.jpg	100
619.067	0.705	705.1	congruent	Block1	congruent/STIM_001.jpg	99
622.79	0.663	663.1	congruent	Block1	congruent/STIM_001.jpg	100
625.765	0.558	558.3	congruent	Block1	congruent/STIM_002.jpg	99
629.376	0.623	623.4	congruent	Block1	congruent/STIM_002.jpg	100
633.069	0.568	567.8	congruent	Block1	congruent/STIM_002.jpg	100
637.059	0.87	869.6	congruent	Block1	congruent/STIM_002.jpg	99
640.106	0.566	566.2	congruent	Block1	congruent/STIM_002.jpg	99
642.829	0.943	943.1	congruent	Block1	congruent/STIM_003.jpg	99
646.49	0.736	735.8	congruent	Block1	congruent/STIM_003.jpg	100
650.126	0.756	755.6	congruent	Block1	congruent/STIM_003.jpg	100
653.093	0.57	569.6	congruent	Block1	congruent/STIM_003.jpg	100
657.187	0.929	928.8	congruent	Block1	congruent/STIM_003.jpg	100
660.898	0.937	936.7	congruent	Block1	congruent/STIM_004.jpg	99
664.866	0.736	735.6	congruent	Block1	congruent/STIM_004.jpg	99
668.666	0.665	664.7	congruent	Block1	congruent/STIM_004.jpg	99
673.266	0.833	832.8	congruent	Block1	congruent/STIM_004.jpg	99
676.612	0.93	929.7	congruent	Block1	congruent/STIM_004.jpg	99
680.087	0.878	877.8	congruent	Block1	congruent/STIM_005.jpg	100
684.578	0.889	888.8	congruent	Block1	congruent/STIM_005.jpg	100
688.163	0.595	594.6	congruent	Block1	congruent/STIM_005.jpg	100
690.809	0.911	910.6	congruent	Block1	congruent/STIM_005.jpg	100
694.495	0.634	634.5	congruent	Block1	congruent/STIM_005.jpg	100
698.567	0.759	759.0	congruent	Block1	congruent/STIM_006.jpg	99
702.846	0.864	863.6	congruent	Block1	congruent/STIM_006.jpg	100
706.312	0.556	555.9	congruent	Block1	congruent/STIM_006.jpg	100
709.219	0.796	796.1	congruent	Block1	congruent/STIM_006.jpg	99
713.036	0.842	842.3	congruent	Block1	congruent/STIM_006.jpg	99
717.461	0.717	717.1	congruent	Block1	congruent/STIM_007.jpg	100
721.926	0.844	843.8	congruent	Block1	congruent/STIM_007.jpg	100
725.719	0.905	904.7	congruent	Block1	congruent/STIM_007.jpg	99
730.461	0.829	829.3	congruent	Block1	congruent/STIM_007.jpg	99
734.926	0.866	865.7	congruent	Block1	congruent/STIM_007.jpg	100
738.134	0.897	897.1	congruent	Block1	congruent/STIM_008.jpg	99
742.826	0.878	878.3	congruent	Block1	congruent/STIM_008.jpg	99
746.606	0.822	821.5	congruent	Block1	congruent/STIM_008.jpg	99
750.383	0.6	600.1	congruent	Block1	congruent/STIM_008.jpg	100
753.705	0.646	646.3	congruent	Block1	congruent/STIM_008.jpg	99
756.775	0.916	916.3	congruent	Block1	congruent/STIM_009.jpg	100
761.31	0.924	924.0	congruent	Block1	congruent/STIM_009.jpg	99
765.369	0.702	702.5	congruent	Block1	congruent/STIM_009.jpg	99
768.598	0.873	872.9	congruent	Block1	congruent/STIM_009.jpg	100
771.761	0.655	654.8	congruent	Block1	congruent/STIM_009.jpg	100
776.046	0.561	560.8	congruent	Block1	congruent/STIM_010.jpg	99
779.851	0.602	602.5	congruent	Block1	congruent/STIM_010.jpg	100
783.943	0.796	795.5	congruent	Block1	congruent/STIM_010.jpg	99
786.995	0.76	760.4	congruent	Block1	congruent/STIM_010.jpg	99
790.99	0.551	551.2	congruent	Block1	congruent/STIM_010.jpg	99
795.317	0.612	612.3	congruent	Block1	congruent/STIM_011.jpg	99
798.491	0.572	572.3	congruent	Block1	congruent/STIM_011.jpg	99
802.432	0.641	640.7	congruent	Block1	congruent/STIM_011.jpg	99
806.068	0.644	643.7	congruent	Block1	congruent/STIM_011.jpg	99
809.549	0.588	588.5	congruent	Block1	congruent/STIM_011.jpg	99
813.031	0.791	791.0	congruent	Block1	congruent/STIM_012.jpg	99
816.148	0.791	790.9	congruent	Block1	congruent/STIM_012.jpg	99
820.009	0.577	577.1	congruent	Block1	congruent/STIM_012.jpg	100
822.832	0.789	789.2	congruent	Block1	congruent/STIM_012.jpg	100
826.959	0.591	591.4	congruent	Block1	congruent/STIM_012.jpg	100
829.641	0.579	579.3	congruent	Block1	congruent/STIM_013.jpg	99
834.01	0.886	886.2	congruent	Block1	congruent/STIM_013.jpg	99
837.703	0.661	660.9	congruent	Block1	congruent/STIM_013.jpg	99
840.835	0.707	706.8	congruent	Block1	congruent/STIM_013.jpg	99
843.772	0.733	732.9	congruent	Block1	congruent/STIM_013.jpg	99
846.662	0.855	854.6	congruent	Block1	congruent/STIM_014.jpg	99
849.779	0.617	616.9	congruent	Block1	congruent/STIM_014.jpg	99
853.805	0.629	628.8	congruent	Block1	congruent/STIM_014.jpg	100
857.862	0.89	890.5	congruent	Block1	congruent/STIM_014.jpg	99
862.373	0.909	909.4	congruent	Block1	congruent/STIM_014.jpg	99
866.995	0.613	612.6	congruent	Block1	congruent/STIM_015.jpg	100
870.392	0.598	597.7	congruent	Block1	congruent/STIM_015.jpg	99
874.342	0.774	774.2	congruent	Block1	congruent/STIM_015.jpg	99
877.482	0.885	885.2	congruent	Block1	congruent/STIM_015.jpg	99
880.333	0.927	926.9	congruent	Block1	congruent/STIM_015.jpg	99
885.144	0.909	909.4	congruent	Block1	congruent/STIM_016.jpg	100
888.989	0.748	748.0	congruent	Block1	congruent/STIM_016.jpg	100
891.77	0.882	882.5	congruent	Block1	congruent/STIM_016.jpg	99
895.106	0.558	557.6	congruent	Block1	congruent/STIM_016.jpg	99
898.777	0.675	675.0	congruent	Block1	congruent/STIM_016.jpg	99
902.002	0.553	553.3	congruent	Block1	congruent/STIM_017.jpg	99
905.968	0.676	675.6	congruent	Block1	congruent/STIM_017.jpg	99
910.07	0.7	700.0	congruent	Block1	congruent/STIM_017.jpg	100
914.568	0.544	543.6	congruent	Block1	congruent/STIM_017.jpg	99
917.772	0.708	708.5	congruent	Block1	congruent/STIM_017.jpg	100
921.717	0.695	695.1	congruent	Block1	congruent/STIM_018.jpg	100
925.476	0.935	934.7	congruent	Block1	congruent/STIM_018.jpg	99
929.873	0.537	536.7	congruent	Block1	congruent/STIM_018.jpg	100
933.857	0.699	699.0	congruent	Block1	congruent/STIM_018.jpg	99
937.219	0.796	796.3	congruent	Block1	congruent/STIM_018.jpg	99
941.928	0.91	909.9	congruent	Block1	congruent/STIM_019.jpg	99
946.667	0.594	594.2	congruent	Block1	congruent/STIM_019.jpg	100
949.998	0.924	923.5	congruent	Block1	congruent/STIM_019.jpg	100
953.237	0.755	754.6	congruent	Block1	congruent/STIM_019.jpg	99
956.248	0.776	776.2	congruent	Block1	congruent/STIM_019.jpg	100
960.438	0.914	913.5	congruent	Block1	congruent/STIM_020.jpg	100
963.484	0.62	620.2	congruent	Block1	congruent/STIM_020.jpg	100
966.946	0.553	552.8	congruent	Block1	congruent/STIM_020.jpg	100
970.121	0.923	923.2	congruent	Block1	congruent/STIM_020.jpg	99
974.235	0.726	726.3	congruent	Block1	congruent/STIM_020.jpg	100
977.934	0.64	640.5	congruent	Block1	congruent/STIM_021.jpg	99
982.124	0.808	808.1	congruent	Block1	congruent/STIM_021.jpg	100
986.646	0.934	934.2	congruent	Block1	congruent/STIM_021.jpg	100
990.835	0.817	816.6	congruent	Block1	congruent/STIM_021.jpg	99
994.429	0.959	958.6	congruent	Block1	congruent/STIM_021.jpg	100
999.206	0.603	603.1	congruent	Block1	congruent/STIM_022.jpg	99
1001.959	0.599	598.6	congruent	Block1	congruent/STIM_022.jpg	100
1004.77	0.626	626.0	congruent	Block1	congruent/STIM_022.jpg	100
1008.529	0.664	664.2	congruent	Block1	congruent/STIM_022.jpg	99
1012.525	0.786	785.6	congruent	Block1	congruent/STIM_022.jpg	99
1016.426	0.663	662.8	congruent	Block1	congruent/STIM_023.jpg	100
1019.2	0.889	888.9	congruent	Block1	congruent/STIM_023.jpg	99
1023.887	0.938	938.0	congruent	Block1	congruent/STIM_023.jpg	100
1027.73	0.725	724.7	congruent	Block1	congruent/STIM_023.jpg	99
1032.02	0.816	816.0	congruent	Block1	congruent/STIM_023.jpg	99
1036.474	0.889	889.3	congruent	Block1	congruent/STIM_024.jpg	99
1040.233	0.745	745.1	congruent	Block1	congruent/STIM_024.jpg	99
1044.269	0.579	579.1	congruent	Block1	congruent/STIM_024.jpg	99
1048.79	0.806	805.5	congruent	Block1	congruent/STIM_024.jpg	99
1051.769	0.698	698.5	congruent	Block1	congruent/STIM_024.jpg	99
1055.377	0.683	682.9	congruent	Block1	congruent/STIM_025.jpg	99
1059.168	0.769	769.4	congruent	Block1	congruent/STIM_025.jpg	100
1063.467	0.777	776.8	congruent	Block1	congruent/STIM_025.jpg	100
1066.352	0.689	688.9	congruent	Block1	congruent/STIM_025.jpg	99
1069.547	0.76	759.7	congruent	Block1	congruent/STIM_025.jpg	99
1072.596	0.795	794.7	congruent	Block1	congruent/STIM_026.jpg	100
1077.158	0.951	951.4	congruent	Block1	congruent/STIM_026.jpg	100
1080.585	0.718	717.8	congruent	Block1	congruent/STIM_026.jpg	99
1084.638	0.63	630.5	congruent	Block1	congruent/STIM_026.jpg	100
1087.804	0.76	760.5	congruent	Block1	congruent/STIM_026.jpg	99
1091.057	0.73	730.2	congruent	Block1	congruent/STIM_027.jpg	100
1094.759	0.873	873.4	congruent	Block1	congruent/STIM_027.jpg	100
1098.476	0.62	619.8	congruent	Block1	congruent/STIM_027.jpg	100
1102.797	0.545	545.3	congruent	Block1	congruent/STIM_027.jpg	100
1106.827	0.926	926.5	congruent	Block1	congruent/STIM_027.jpg	100
1110.171	0.676	675.6	congruent	Block1	congruent/STIM_028.jpg	99
1113.364	0.756	756.3	congruent	Block1	congruent/STIM_028.jpg	99
1117.469	0.748	748.5	congruent	Block1	congruent/STIM_028.jpg	100
1120.712	0.758	758.4	congruent	Block1	congruent/STIM_028.jpg	99
1124.963	0.939	939.4	congruent	Block1	congruent/STIM_028.jpg	99
1128.655	0.94	940.2	congruent	Block1	congruent/STIM_029.jpg	99
1131.623	0.706	706.5	congruent	Block1	congruent/STIM_029.jpg	99
1135.375	0.536	535.9	congruent	Block1	congruent/STIM_029.jpg	99
1139.7	0.609	609.0	congruent	Block1	congruent/STIM_029.jpg	100
1143.404	0.68	680.0	congruent	Block1	congruent/STIM_029.jpg	99
1146.103	1.326	1325.5	incongruent	Block2	incongruent/STIM_000.jpg	99
1149.617	0.748	748.5	incongruent	Block2	incongruent/STIM_000.jpg	99
1153.239	0.789	789.2	incongruent	Block2	incongruent/STIM_000.jpg	99
1157.083	0.745	744.6	incongruent	Block2	incongruent/STIM_000.jpg	100
1160.919	0.729	729.4	incongruent	Block2	incongruent/STIM_000.jpg	100
1163.9	1.076	1075.7	incongruent	Block2	incongruent/STIM_001.jpg	99
1167.653	0.772	771.9	incongruent	Block2	incongruent/STIM_001.jpg	99
1172.313	0.797	797.3	incongruent	Block2	incongruent/STIM_001.jpg	100
1176.124	0.537	536.7	incongruent	Block2	incongruent/STIM_001.jpg	99
1180.526	0.581	580.6	incongruent	Block2	incongruent/STIM_001.jpg	100
1183.852	1.222	1222.0	incongruent	Block2	incongruent/STIM_002.jpg	99
1187.665	0.844	843.6	incongruent	Block2	incongruent/STIM_002.jpg	99
1190.599	1.02	1019.5	incongruent	Block2	incongruent/STIM_002.jpg	99
1193.581	1.076	1076.5	incongruent	Block2	incongruent/STIM_002.jpg	100
1196.807	0.694	693.8	incongruent	Block2	incongruent/STIM_002.jpg	100
1200.427	0.76	760.0	incongruent	Block2	incongruent/STIM_003.jpg	99
1204.54	1.16	1159.8	incongruent	Block2	incongruent/STIM_003.jpg	99
1209.551	0.571	570.9	incongruent	Block2	incongruent/STIM_003.jpg	99
1213.827	0.765	765.4	incongruent	Block2	incongruent/STIM_003.jpg	100
1217.861	0.733	733.1	incongruent	Block2	incongruent/STIM_003.jpg	100
1221.862	0.889	888.8	incongruent	Block2	incongruent/STIM_004.jpg	100
1226.58	1.01	1010.4	incongruent	Block2	incongruent/STIM_004.jpg	100
1230.736	1.064	1063.6	incongruent	Block2	incongruent/STIM_004.jpg	99
1235.622	1.005	1005.3	incongruent	Block2	incongruent/STIM_004.jpg	100
1240.183	0.726	726.3	incongruent	Block2	incongruent/STIM_004.jpg	99
1243.795	0.885	885.2	incongruent	Block2	incongruent/STIM_005.jpg	100
1248.158	1.218	1218.2	incongruent	Block2	incongruent/STIM_005.jpg	99
1252.578	0.642	641.9	incongruent	Block2	incongruent/STIM_005.jpg	100
1256.285	0.785	785.0	incongruent	Block2	incongruent/STIM_005.jpg	100
1259.795	1.07	1069.7	incongruent	Block2	incongruent/STIM_005.jpg	100
1263.424	0.794	793.9	incongruent	Block2	incongruent/STIM_006.jpg	100
1267.127	0.803	803.1	incongruent	Block2	incongruent/STIM_006.jpg	100
1270.083	0.739	739.4	incongruent	Block2	incongruent/STIM_006.jpg	100
1274.194	0.53	530.2	incongruent	Block2	incongruent/STIM_006.jpg	100
1277.862	1.017	1017.1	incongruent	Block2	incongruent/STIM_006.jpg	100
1281.725	0.669	668.6	incongruent	Block2	incongruent/STIM_007.jpg	99
1285.587	1.188	1187.9	incongruent	Block2	incongruent/STIM_007.jpg	100
1289.869	1.169	1169.0	incongruent	Block2	incongruent/STIM_007.jpg	100
1293.922	0.811	811.2	incongruent	Block2	incongruent/STIM_007.jpg	99
1298.361	0.721	721.2	incongruent	Block2	incongruent/STIM_007.jpg	100
1303.033	0.925	924.7	incongruent	Block2	incongruent/STIM_008.jpg	99
1306.448	1.205	1204.8	incongruent	Block2	incongruent/STIM_008.jpg	100
1309.745	0.835	834.9	incongruent	Block2	incongruent/STIM_008.jpg	100
1313.421	0.608	607.5	incongruent	Block2	incongruent/STIM_008.jpg	100
1316.398	0.919	918.8	incongruent	Block2	incongruent/STIM_008.jpg	100
1319.679	0.993	993.0	incongruent	Block2	incongruent/STIM_009.jpg	99
1323.087	1.171	1171.4	incongruent	Block2	incongruent/STIM_009.jpg	99
1326.353	0.711	710.7	incongruent	Block2	incongruent/STIM_009.jpg	100
1330.303	0.999	999.0	incongruent	Block2	incongruent/STIM_009.jpg	99
1334.84	0.611	611.2	incongruent	Block2	incongruent/STIM_009.jpg	100
1337.482	1.06	1060.4	incongruent	Block2	incongruent/STIM_010.jpg	100
1340.992	0.714	713.7	incongruent	Block2	incongruent/STIM_010.jpg	99
1343.752	0.612	611.7	incongruent	Block2	incongruent/STIM_010.jpg	100
1346.809	1.092	1092.0	incongruent	Block2	incongruent/STIM_010.jpg	100
1349.948	0.849	849.0	incongruent	Block2	incongruent/STIM_010.jpg	99
1353.721	1.312	1311.7	incongruent	Block2	incongruent/STIM_011.jpg	99
1358.513	1.242	1242.0	incongruent	Block2	incongruent/STIM_011.jpg	99
1363.456	0.835	835.2	incongruent	Block2	incongruent/STIM_011.jpg	100
1366.251	0.613	612.9	incongruent	Block2	incongruent/STIM_011.jpg	99
1369.007	0.771	770.8	incongruent	Block2	incongruent/STIM_011.jpg	100
1371.962	0.727	726.7	incongruent	Block2	incongruent/STIM_012.jpg	100
1376.363	1.052	1052.1	incongruent	Block2	incongruent/STIM_012.jpg	100
1380.276	1.086	1086.3	incongruent	Block2	incongruent/STIM_012.jpg	100
1384.413	0.893	892.7	incongruent	Block2	incongruent/STIM_012.jpg	100
1388.25	0.526	526.0	incongruent	Block2	incongruent/STIM_012.jpg	100
1391.228	1.188	1188.1	incongruent	Block2	incongruent/STIM_013.jpg	100
1395.114	0.875	874.9	incongruent	Block2	incongruent/STIM_013.jpg	100
1398.387	0.723	723.0	incongruent	Block2	incongruent/STIM_013.jpg	99
1401.619	0.989	988.7	incongruent	Block2	incongruent/STIM_013.jpg	99
1404.887	0.672	671.8	incongruent	Block2	incongruent/STIM_013.jpg	99
1407.544	0.751	751.3	incongruent	Block2	incongruent/STIM_014.jpg	100
1410.322	1.093	1093.0	incongruent	Block2	incongruent/STIM_014.jpg	99
1415.279	1.117	1117.1	incongruent	Block2	incongruent/STIM_014.jpg	99
1419.476	0.592	592.5	incongruent	Block2	incongruent/STIM_014.jpg	99
1423.883	0.558	558.2	incongruent	Block2	incongruent/STIM_014.jpg	99
1428.281	0.855	855.4	incongruent	Block2	incongruent/STIM_015.jpg	100
1431.184	0.852	852.3	incongruent	Block2	incongruent/STIM_015.jpg	99
1434.495	0.655	654.9	incongruent	Block2	incongruent/STIM_015.jpg	100
1437.989	0.986	985.9	incongruent	Block2	incongruent/STIM_015.jpg	100
1441.118	0.728	728.2	incongruent	Block2	incongruent/STIM_015.jpg	100
1444.888	1.073	1072.9	incongruent	Block2	incongruent/STIM_016.jpg	99
1448.857	0.856	855.7	incongruent	Block2	incongruent/STIM_016.jpg	99
1452.977	0.64	639.5	incongruent	Block2	incongruent/STIM_016.jpg	100
1457.289	1.084	1084.4	incongruent	Block2	incongruent/STIM_016.jpg	99
1461.443	0.597	597.4	incongruent	Block2	incongruent/STIM_016.jpg	100
1464.624	1.187	1187.0	incongruent	Block2	incongruent/STIM_017.jpg	99
1468.626	1.118	1117.6	incongruent	Block2	incongruent/STIM_017.jpg	99
1471.878	1.102	1101.7	incongruent	Block2	incongruent/STIM_017.jpg	99
1476.87	1.119	1119.2	incongruent	Block2	incongruent/STIM_017.jpg	99
1480.802	1.037	1037.0	incongruent	Block2	incongruent/STIM_017.jpg	99
1484.058	0.837	837.1	incongruent	Block2	incongruent/STIM_018.jpg	100
1487.194	0.747	746.9	incongruent	Block2	incongruent/STIM_018.jpg	100
1491.481	1.164	1164.0	incongruent	Block2	incongruent/STIM_018.jpg	99
1495.9	1.098	1097.5	incongruent	Block2	incongruent/STIM_018.jpg	100
1500.758	0.954	954.1	incongruent	Block2	incongruent/STIM_018.jpg	100
1504.171	0.791	790.8	incongruent	Block2	incongruent/STIM_019.jpg	99
1507.613	0.632	631.6	incongruent	Block2	incongruent/STIM_019.jpg	100
1511.261	1.188	1188.5	incongruent	Block2	incongruent/STIM_019.jpg	99
1514.438	0.54	539.7	incongruent	Block2	incongruent/STIM_019.jpg	100
1517.756	0.532	531.8	incongruent	Block2	incongruent/STIM_019.jpg	99
1522.007	1.163	1163.4	incongruent	Block2	incongruent/STIM_020.jpg	99
1526.603	1.195	1195.4	incongruent	Block2	incongruent/STIM_020.jpg	100
1531.0	1.137	1137.0	incongruent	Block2	incongruent/STIM_020.jpg	99
1535.82	0.608	608.4	incongruent	Block2	incongruent/STIM_020.jpg	99
1539.241	0.821	820.6	incongruent	Block2	incongruent/STIM_020.jpg	99
1542.829	1.051	1050.7	incongruent	Block2	incongruent/STIM_021.jpg	99
1546.297	1.111	1111.1	incongruent	Block2	incongruent/STIM_021.jpg	99
1551.062	1.1	1099.8	incongruent	Block2	incongruent/STIM_021.jpg	100
1555.135	1.064	1063.7	incongruent	Block2	incongruent/STIM_021.jpg	99
1559.095	1.022	1022.4	incongruent	Block2	incongruent/STIM_021.jpg	99
1562.778	0.774	774.3	incongruent	Block2	incongruent/STIM_022.jpg	99
1565.919	0.938	937.9	incongruent	Block2	incongruent/STIM_022.jpg	99
1569.915	1.118	1118.1	incongruent	Block2	incongruent/STIM_022.jpg	99
1574.321	0.672	671.9	incongruent	Block2	incongruent/STIM_022.jpg	99
1578.3	0.756	756.3	incongruent	Block2	incongruent/STIM_022.jpg	100
1582.026	1.089	1089.0	incongruent	Block2	incongruent/STIM_023.jpg	100
1586.616	0.838	837.5	incongruent	Block2	incongruent/STIM_023.jpg	100
1590.158	0.713	712.7	incongruent	Block2	incongruent/STIM_023.jpg	99
1594.243	0.788	788.4	incongruent	Block2	incongruent/STIM_023.jpg	100
1597.643	0.822	822.2	incongruent	Block2	incongruent/STIM_023.jpg	99
1600.447	0.999	999.4	incongruent	Block2	incongruent/STIM_024.jpg	99
1605.134	0.849	849.4	incongruent	Block2	incongruent/STIM_024.jpg	99
1607.992	0.818	818.1	incongruent	Block2	incongruent/STIM_024.jpg	99
1611.734	0.536	536.0	incongruent	Block2	incongruent/STIM_024.jpg	99
1616.055	1.093	1092.9	incongruent	Block2	incongruent/STIM_024.jpg	99
1620.843	1.02	1019.5	incongruent	Block2	incongruent/STIM_025.jpg	99
1625.678	0.901	901.2	incongruent	Block2	incongruent/STIM_025.jpg	100
1630.427	0.849	849.0	incongruent	Block2	incongruent/STIM_025.jpg	99
1634.032	0.955	954.8	incongruent	Block2	incongruent/STIM_025.jpg	100
1637.097	1.027	1027.2	incongruent	Block2	incongruent/STIM_025.jpg	99
1641.22	0.706	705.6	incongruent	Block2	incongruent/STIM_026.jpg	100
1644.94	0.906	906.3	incongruent	Block2	incongruent/STIM_026.jpg	100
1648.062	0.737	737.1	incongruent	Block2	incongruent/STIM_026.jpg	99
1651.918	0.836	836.2	incongruent	Block2	incongruent/STIM_026.jpg	100
1655.713	1.009	1009.0	incongruent	Block2	incongruent/STIM_026.jpg	100
1659.277	1.039	1038.7	incongruent	Block2	incongruent/STIM_027.jpg	99
1664.21	0.598	597.8	incongruent	Block2	incongruent/STIM_027.jpg	100
1667.19	1.007	1006.6	incongruent	Block2	incongruent/STIM_027.jpg	100
1671.971	0.807	807.4	incongruent	Block2	incongruent/STIM_027.jpg	100
1675.915	0.538	538.4	incongruent	Block2	incongruent/STIM_027.jpg	100
1678.735	1.024	1023.7	incongruent	Block2	incongruent/STIM_028.jpg	100
1681.774	0.995	994.9	incongruent	Block2	incongruent/STIM_028.jpg	100
1685.677	1.148	1148.3	incongruent	Block2	incongruent/STIM_028.jpg	99
1689.608	0.863	863.3	incongruent	Block2	incongruent/STIM_028.jpg	100
1693.717	0.951	950.9	incongruent	Block2	incongruent/STIM_028.jpg	99
1697.814	1.012	1012.4	incongruent	Block2	incongruent/STIM_029.jpg	100
1702.312	1.234	1233.8	incongruent	Block2	incongruent/STIM_029.jpg	100
1707.439	0.943	942.8	incongruent	Block2	incongruent/STIM_029.jpg	99
1711.566	0.926	926.5	incongruent	Block2	incongruent/STIM_029.jpg	99
1716.187	0.94	939.7	incongruent	Block2	incongruent/STIM_029.jpg	99
1719.182	0.812	811.9	congruent	Block2	congruent/STIM_000.jpg	100
1722.625	0.721	721.0	congruent	Block2	congruent/STIM_000.jpg	99
1725.735	0.779	778.7	congruent	Block2	congruent/STIM_000.jpg	99
1728.492	0.739	739.2	congruent	Block2	congruent/STIM_000.jpg	99
1732.122	0.615	615.1	congruent	Block2	congruent/STIM_000.jpg	100
1735.16	0.834	834.2	congruent	Block2	congruent/STIM_001.jpg	100
1739.095	0.721	720.8	congruent	Block2	congruent/STIM_001.jpg	99
1742.336	0.783	783.2	congruent	Block2	congruent/STIM_001.jpg	100
1746.362	0.888	888.5	congruent	Block2	congruent/STIM_001.jpg	100
1749.743	0.677	677.4	congruent	Block2	congruent/STIM_001.jpg	99
1753.205	0.582	581.8	congruent	Block2	congruent/STIM_002.jpg	100
1757.311	0.857	857.3	congruent	Block2	congruent/STIM_002.jpg	100
1760.812	0.765	765.4	congruent	Block2	congruent/STIM_002.jpg	99
1764.737	0.668	667.7	congruent	Block2	congruent/STIM_002.jpg	100
1768.93	0.551	551.3	congruent	Block2	congruent/STIM_002.jpg	99
1771.65	0.651	651.0	congruent	Block2	congruent/STIM_003.jpg	99
1776.162	0.931	931.2	congruent	Block2	congruent/STIM_003.jpg	100
1781.007	0.652	652.5	congruent	Block2	congruent/STIM_003.jpg	99
1784.791	0.814	813.5	congruent	Block2	congruent/STIM_003.jpg	99
1788.491	0.711	711.3	congruent	Block2	congruent/STIM_003.jpg	99
1793.044	0.958	958.0	congruent	Block2	congruent/STIM_004.jpg	99
1797.885	0.748	747.6	congruent	Block2	congruent/STIM_004.jpg	99
1802.106	0.764	763.5	congruent	Block2	congruent/STIM_004.jpg	99
1806.072	0.875	874.8	congruent	Block2	congruent/STIM_004.jpg	100
1808.976	0.635	634.7	congruent	Block2	congruent/STIM_004.jpg	100
1812.192	0.731	730.9	congruent	Block2	congruent/STIM_005.jpg	99
1815.32	0.856	855.7	congruent	Block2	congruent/STIM_005.jpg	99
1819.73	0.658	657.7	congruent	Block2	congruent/STIM_005.jpg	99
1822.995	0.602	602.0	congruent	Block2	congruent/STIM_005.jpg	99
1827.176	0.541	540.9	congruent	Block2	congruent/STIM_005.jpg	99
1830.517	0.835	835.3	congruent	Block2	congruent/STIM_006.jpg	100
1834.931	0.819	819.1	congruent	Block2	congruent/STIM_006.jpg	99
1838.928	0.746	746.4	congruent	Block2	congruent/STIM_006.jpg	99
1841.63	0.892	891.9	congruent	Block2	congruent/STIM_006.jpg	100
1845.213	0.735	734.6	congruent	Block2	congruent/STIM_006.jpg	100
1849.029	0.905	905.0	congruent	Block2	congruent/STIM_007.jpg	100
1852.595	0.687	687.1	congruent	Block2	congruent/STIM_007.jpg	99
1856.092	0.761	761.2	congruent	Block2	congruent/STIM_007.jpg	100
1858.999	0.953	952.6	congruent	Block2	congruent/STIM_007.jpg	99
1863.108	0.73	729.6	congruent	Block2	congruent/STIM_007.jpg	99
1866.842	0.8	800.5	congruent	Block2	congruent/STIM_008.jpg	100
1870.577	0.626	625.8	congruent	Block2	congruent/STIM_008.jpg	99
1874.33	0.913	913.3	congruent	Block2	congruent/STIM_008.jpg	99
1878.658	0.564	564.1	congruent	Block2	congruent/STIM_008.jpg	99
1881.899	0.574	574.4	congruent	Block2	congruent/STIM_008.jpg	99
1886.303	0.931	931.2	congruent	Block2	congruent/STIM_009.jpg	99
1889.945	0.85	850.2	congruent	Block2	congruent/STIM_009.jpg	99
1893.171	0.751	751.4	congruent	Block2	congruent/STIM_009.jpg	99
1896.533	0.893	893.4	congruent	Block2	congruent/STIM_009.jpg	100
1900.3	0.952	952.1	congruent	Block2	congruent/STIM_009.jpg	99
1905.1	0.801	801.0	congruent	Block2	congruent/STIM_010.jpg	99
1908.601	0.952	952.1	congruent	Block2	congruent/STIM_010.jpg	100
1911.852	0.828	827.5	congruent	Block2	congruent/STIM_010.jpg	99
1915.858	0.823	822.8	congruent	Block2	congruent/STIM_010.jpg	99
1919.113	0.945	945.2	congruent	Block2	congruent/STIM_010.jpg	99
1923.666	0.731	731.0	congruent	Block2	congruent/STIM_011.jpg	99
1927.842	0.95	949.9	congruent	Block2	congruent/STIM_011.jpg	99
1931.158	0.592	592.3	congruent	Block2	congruent/STIM_011.jpg	99
1933.893	0.954	953.9	congruent	Block2	congruent/STIM_011.jpg	100
1937.496	0.695	694.7	congruent	Block2	congruent/STIM_011.jpg	99
1942.111	0.598	598.2	congruent	Block2	congruent/STIM_012.jpg	99
1945.014	0.662	662.3	congruent	Block2	congruent/STIM_012.jpg	100
1948.834	0.86	859.6	congruent	Block2	congruent/STIM_012.jpg	99
1953.083	0.625	624.8	congruent	Block2	congruent/STIM_012.jpg	100
1956.351	0.934	934.4	congruent	Block2	congruent/STIM_012.jpg	99
1960.909	0.93	930.0	congruent	Block2	congruent/STIM_013.jpg	99
1964.843	0.676	675.7	congruent	Block2	congruent/STIM_013.jpg	100
1967.569	0.949	948.7	congruent	Block2	congruent/STIM_013.jpg	99
1970.572	0.873	872.6	congruent	Block2	congruent/STIM_013.jpg	100
1974.66	0.739	738.7	congruent	Block2	congruent/STIM_013.jpg	100
1977.838	0.637	637.2	congruent	Block2	congruent/STIM_014.jpg	99
1981.94	0.851	851.1	congruent	Block2	congruent/STIM_014.jpg	99
1986.085	0.769	769.3	congruent	Block2	congruent/STIM_014.jpg	100
1990.738	0.586	585.9	congruent	Block2	congruent/STIM_014.jpg	100
1993.986	0.685	685.0	congruent	Block2	congruent/STIM_014.jpg	100
1998.069	0.564	564.3	congruent	Block2	congruent/STIM_015.jpg	100
2001.924	0.887	887.4	congruent	Block2	congruent/STIM_015.jpg	100
2006.711	0.914	913.6	congruent	Block2	congruent/STIM_015.jpg	99
2010.316	0.691	691.1	congruent	Block2	congruent/STIM_015.jpg	99
2014.084	0.724	724.2	congruent	Block2	congruent/STIM_015.jpg	100
2017.74	0.567	566.9	congruent	Block2	congruent/STIM_016.jpg	99
2020.833	0.875	874.7	congruent	Block2	congruent/STIM_016.jpg	99
2024.677	0.729	728.6	congruent	Block2	congruent/STIM_016.jpg	99
2028.266	0.955	954.8	congruent	Block2	congruent/STIM_016.jpg	100
2032.51	0.725	724.7	congruent	Block2	congruent/STIM_016.jpg	99
2036.659	0.558	557.5	congruent	Block2	congruent/STIM_017.jpg	99
2040.61	0.886	886.0	congruent	Block2	congruent/STIM_017.jpg	99
2044.469	0.842	841.7	congruent	Block2	congruent/STIM_017.jpg	100
2047.381	0.584	583.7	congruent	Block2	congruent/STIM_017.jpg	100
2051.714	0.816	816.2	congruent	Block2	congruent/STIM_017.jpg	100
2056.32	0.693	692.9	congruent	Block2	congruent/STIM_018.jpg	100
2059.181	0.769	769.2	congruent	Block2	congruent/STIM_018.jpg	100
2063.397	0.856	855.6	congruent	Block2	congruent/STIM_018.jpg	99
2067.083	0.613	613.0	congruent	Block2	congruent/STIM_018.jpg	99
2071.482	0.91	909.6	congruent	Block2	congruent/STIM_018.jpg	99
2075.913	0.58	580.4	congruent	Block2	congruent/STIM_019.jpg	99
2080.037	0.622	621.5	congruent	Block2	congruent/STIM_019.jpg	99
2084.518	0.799	798.9	congruent	Block2	congruent/STIM_019.jpg	100
2089.117	0.744	744.5	congruent	Block2	congruent/STIM_019.jpg	99
2092.762	0.925	924.6	congruent	Block2	congruent/STIM_019.jpg	99
2096.853	0.806	806.3	congruent	Block2	congruent/STIM_020.jpg	100
2099.72	0.675	675.3	congruent	Block2	congruent/STIM_020.jpg	100
2102.508	0.785	784.9	congruent	Block2	congruent/STIM_020.jpg	99
2107.055	0.907	907.4	congruent	Block2	congruent/STIM_020.jpg	99
2110.025	0.581	580.7	congruent	Block2	congruent/STIM_020.jpg	99
2114.508	0.709	708.7	congruent	Block2	congruent/STIM_021.jpg	100
2117.806	0.749	748.9	congruent	Block2	congruent/STIM_021.jpg	100
2122.111	0.63	629.9	congruent	Block2	congruent/STIM_021.jpg	100
2125.883	0.732	732.2	congruent	Block2	congruent/STIM_021.jpg	99
2130.165	0.744	744.5	congruent	Block2	congruent/STIM_021.jpg	99
2133.852	0.885	884.8	congruent	Block2	congruent/STIM_022.jpg	100
2138.386	0.618	618.4	congruent	Block2	congruent/STIM_022.jpg	99
2142.333	0.543	543.2	congruent	Block2	congruent/STIM_022.jpg	100
2146.657	0.873	873.0	congruent	Block2	congruent/STIM_022.jpg	100
2151.431	0.602	602.3	congruent	Block2	congruent/STIM_022.jpg	99
2154.145	0.83	829.7	congruent	Block2	congruent/STIM_023.jpg	99
2157.182	0.747	747.1	congruent	Block2	congruent/STIM_023.jpg	100
2161.727	0.634	633.6	congruent	Block2	congruent/STIM_023.jpg	100
2165.428	0.868	868.5	congruent	Block2	congruent/STIM_023.jpg	100
2168.97	0.779	778.7	congruent	Block2	congruent/STIM_023.jpg	99
2171.718	0.738	738.1	congruent	Block2	congruent/STIM_024.jpg	99
2175.86	0.783	783.1	congruent	Block2	congruent/STIM_024.jpg	99
2178.935	0.734	733.7	congruent	Block2	congruent/STIM_024.jpg	100
2182.504	0.677	676.6	congruent	Block2	congruent/STIM_024.jpg	100
2185.21	0.765	765.3	congruent	Block2	congruent/STIM_024.jpg	100
2188.124	0.71	709.8	congruent	Block2	congruent/STIM_025.jpg	99
2191.774	0.661	660.8	congruent	Block2	congruent/STIM_025.jpg	99
2195.436	0.704	703.9	congruent	Block2	congruent/STIM_025.jpg	100
2198.625	0.555	555.1	congruent	Block2	congruent/STIM_025.jpg	100
2202.356	0.582	582.2	congruent	Block2	congruent/STIM_025.jpg	99
2205.487	0.704	704.1	congruent	Block2	congruent/STIM_026.jpg	100
2208.489	0.836	835.6	congruent	Block2	congruent/STIM_026.jpg	99
2211.536	0.634	633.8	congruent	Block2	congruent/STIM_026.jpg	100
2215.738	0.69	690.2	congruent	Block2	congruent/STIM_026.jpg	100
2219.804	0.873	873.4	congruent	Block2	congruent/STIM_026.jpg	99
2222.921	0.826	825.8	congruent	Block2	congruent/STIM_027.jpg	99
2227.542	0.768	767.5	congruent	Block2	congruent/STIM_027.jpg	100
2230.922	0.695	695.0	congruent	Block2	congruent/STIM_027.jpg	99
2233.797	0.702	701.7	congruent	Block2	congruent/STIM_027.jpg	99
2237.765	0.806	806.4	congruent	Block2	congruent/STIM_027.jpg	100
2241.899	0.755	754.6	congruent	Block2	congruent/STIM_028.jpg	99
2246.25	0.809	809.2	congruent	Block2	congruent/STIM_028.jpg	99
2250.297	0.864	863.8	congruent	Block2	congruent/STIM_028.jpg	100
2255.036	0.799	799.4	congruent	Block2	congruent/STIM_028.jpg	99
2258.361	0.825	825.1	congruent	Block2	congruent/STIM_028.jpg	99
2262.169	0.747	747.1	congruent	Block2	congruent/STIM_029.jpg	99
2264.874	0.674	674.1	congruent	Block2	congruent/STIM_029.jpg	100
2269.177	0.721	720.6	congruent	Block2	congruent/STIM_029.jpg	100
2271.948	0.665	665.1	congruent	Block2	congruent/STIM_029.jpg	99
2275.189	0.83	829.5	congruent	Block2	congruent/STIM_029.jpg	100
2278.793	0.799	799.2	incongruent	Block3	incongruent/STIM_000.jpg	99
2282.413	0.694	694.1	incongruent	Block3	incongruent/STIM_000.jpg	99
2285.945	0.917	917.0	incongruent	Block3	incongruent/STIM_000.jpg	99
2289.981	0.8	799.5	incongruent	Block3	incongruent/STIM_000.jpg	99
2294.285	1.115	1115.1	incongruent	Block3	incongruent/STIM_000.jpg	99
2297.558	0.656	656.5	incongruent	Block3	incongruent/STIM_001.jpg	99
2300.934	0.56	560.2	incongruent	Block3	incongruent/STIM_001.jpg	100
2305.211	0.787	787.3	incongruent	Block3	incongruent/STIM_001.jpg	99
2309.52	0.616	616.5	incongruent	Block3	incongruent/STIM_001.jpg	99
2312.168	1.012	1012.5	incongruent	Block3	incongruent/STIM_001.jpg	99
2316.276	0.844	844.1	incongruent	Block3	incongruent/STIM_002.jpg	100
2319.963	1.062	1062.1	incongruent	Block3	incongruent/STIM_002.jpg	100
2323.036	0.898	898.5	incongruent	Block3	incongruent/STIM_002.jpg	99
2326.703	0.629	628.9	incongruent	Block3	incongruent/STIM_002.jpg	100
2331.077	0.994	993.9	incongruent	Block3	incongruent/STIM_002.jpg	99
2335.274	1.111	1110.6	incongruent	Block3	incongruent/STIM_003.jpg	100
2340.074	0.827	827.3	incongruent	Block3	incongruent/STIM_003.jpg	100
2343.82	0.983	982.6	incongruent	Block3	incongruent/STIM_003.jpg	99
2348.717	0.98	979.8	incongruent	Block3	incongruent/STIM_003.jpg	100
2352.528	0.687	687.4	incongruent	Block3	incongruent/STIM_003.jpg	100
2355.266	0.925	925.2	incongruent	Block3	incongruent/STIM_004.jpg	100
2359.934	0.946	945.8	incongruent	Block3	incongruent/STIM_004.jpg	100
2364.195	1.036	1035.5	incongruent	Block3	incongruent/STIM_004.jpg	100
2368.112	0.966	966.4	incongruent	Block3	incongruent/STIM_004.jpg	100
2371.529	0.959	959.0	incongruent	Block3	incongruent/STIM_004.jpg	99
2375.407	1.023	1023.0	incongruent	Block3	incongruent/STIM_005.jpg	99
2378.687	1.11	1110.3	incongruent	Block3	incongruent/STIM_005.jpg	100
2383.302	1.071	1070.8	incongruent	Block3	incongruent/STIM_005.jpg	99
2387.284	1.073	1072.8	incongruent	Block3	incongruent/STIM_005.jpg	99
2391.235	0.914	914.5	incongruent	Block3	incongruent/STIM_005.jpg	99
2395.105	1.007	1006.8	incongruent	Block3	incongruent/STIM_006.jpg	100
2398.306	1.069	1068.7	incongruent	Block3	incongruent/STIM_006.jpg	99
2402.251	1.112	1112.2	incongruent	Block3	incongruent/STIM_006.jpg	100
2406.819	0.93	929.5	incongruent	Block3	incongruent/STIM_006.jpg	99
2410.884	0.704	703.7	incongruent	Block3	incongruent/STIM_006.jpg	99
2415.259	0.665	665.3	incongruent	Block3	incongruent/STIM_007.jpg	100
2419.452	0.936	935.8	incongruent	Block3	incongruent/STIM_007.jpg	99
2424.06	0.79	789.9	incongruent	Block3	incongruent/STIM_007.jpg	100
2428.557	0.885	885.1	incongruent	Block3	incongruent/STIM_007.jpg	100
2432.025	0.961	960.9	incongruent	Block3	incongruent/STIM_007.jpg	99
2436.736	1.01	1009.5	incongruent	Block3	incongruent/STIM_008.jpg	100
2440.873	0.724	723.5	incongruent	Block3	incongruent/STIM_008.jpg	100
2444.71	0.76	759.8	incongruent	Block3	incongruent/STIM_008.jpg	100
2448.071	0.844	844.1	incongruent	Block3	incongruent/STIM_008.jpg	99
2451.061	0.91	909.9	incongruent	Block3	incongruent/STIM_008.jpg	99
2454.904	0.586	586.3	incongruent	Block3	incongruent/STIM_009.jpg	99
2457.709	0.701	701.3	incongruent	Block3	incongruent/STIM_009.jpg	100
2460.646	0.994	994.5	incongruent	Block3	incongruent/STIM_009.jpg	99
2464.313	0.665	665.3	incongruent	Block3	incongruent/STIM_009.jpg	99
2467.634	1.006	1006.2	incongruent	Block3	incongruent/STIM_009.jpg	99
2472.498	0.916	916.1	incongruent	Block3	incongruent/STIM_010.jpg	99
2476.388	0.801	801.2	incongruent	Block3	incongruent/STIM_010.jpg	100
2479.825	1.041	1041.3	incongruent	Block3	incongruent/STIM_010.jpg	99
2484.442	0.948	947.7	incongruent	Block3	incongruent/STIM_010.jpg	100
2489.235	0.924	924.1	incongruent	Block3	incongruent/STIM_010.jpg	99
2492.666	0.793	792.7	incongruent	Block3	incongruent/STIM_011.jpg	99
2496.643	0.966	965.5	incongruent	Block3	incongruent/STIM_011.jpg	100
2499.747	1.087	1087.2	incongruent	Block3	incongruent/STIM_011.jpg	100
2503.757	0.645	645.0	incongruent	Block3	incongruent/STIM_011.jpg	99
2507.347	0.814	813.6	incongruent	Block3	incongruent/STIM_011.jpg	100
2510.718	0.945	944.6	incongruent	Block3	incongruent/STIM_012.jpg	99
2515.562	0.994	993.7	incongruent	Block3	incongruent/STIM_012.jpg	99
2518.593	0.82	819.5	incongruent	Block3	incongruent/STIM_012.jpg	100
2522.366	0.863	863.0	incongruent	Block3	incongruent/STIM_012.jpg	99
2525.787	1.018	1018.1	incongruent	Block3	incongruent/STIM_012.jpg	100
2529.891	0.623	623.3	incongruent	Block3	incongruent/STIM_013.jpg	99
2534.262	0.911	911.4	incongruent	Block3	incongruent/STIM_013.jpg	99
2537.984	0.55	549.6	incongruent	Block3	incongruent/STIM_013.jpg	100
2540.896	1.007	1007.2	incongruent	Block3	incongruent/STIM_013.jpg	100
2543.934	1.012	1011.7	incongruent	Block3	incongruent/STIM_013.jpg	100
2548.695	1.056	1056.1	incongruent	Block3	incongruent/STIM_014.jpg	99
2552.595	0.681	680.6	incongruent	Block3	incongruent/STIM_014.jpg	100
2556.352	0.815	815.0	incongruent	Block3	incongruent/STIM_014.jpg	99
2560.984	1.067	1066.9	incongruent	Block3	incongruent/STIM_014.jpg	100
2564.432	1.03	1030.1	incongruent	Block3	incongruent/STIM_014.jpg	99
2568.959	0.719	718.6	incongruent	Block3	incongruent/STIM_015.jpg	99
2572.958	0.894	894.5	incongruent	Block3	incongruent/STIM_015.jpg	100
2576.586	0.956	955.7	incongruent	Block3	incongruent/STIM_015.jpg	100
2580.746	0.682	681.6	incongruent	Block3	incongruent/STIM_015.jpg	100
2584.674	0.834	834.5	incongruent	Block3	incongruent/STIM_015.jpg	99
2588.954	0.876	876.0	incongruent	Block3	incongruent/STIM_016.jpg	100
2592.62	0.968	968.4	incongruent	Block3	incongruent/STIM_016.jpg	100
2596.354	0.995	995.1	incongruent	Block3	incongruent/STIM_016.jpg	99
2599.633	0.754	754.0	incongruent	Block3	incongruent/STIM_016.jpg	99
2602.682	0.797	796.9	incongruent	Block3	incongruent/STIM_016.jpg	100
2607.357	0.53	530.2	incongruent	Block3	incongruent/STIM_017.jpg	99
2611.218	0.879	878.8	incongruent	Block3	incongruent/STIM_017.jpg	99
2614.161	0.55	550.1	incongruent	Block3	incongruent/STIM_017.jpg	100
2617.436	0.753	752.9	incongruent	Block3	incongruent/STIM_017.jpg	99
2621.739	0.77	769.9	incongruent	Block3	incongruent/STIM_017.jpg	99
2625.088	1.114	1114.4	incongruent	Block3	incongruent/STIM_018.jpg	100
2628.138	0.656	656.1	incongruent	Block3	incongruent/STIM_018.jpg	99
2631.669	1.017	1017.1	incongruent	Block3	incongruent/STIM_018.jpg	99
2636.282	0.594	594.5	incongruent	Block3	incongruent/STIM_018.jpg	99
2640.723	0.91	910.0	incongruent	Block3	incongruent/STIM_018.jpg	99
2645.514	0.692	692.1	incongruent	Block3	incongruent/STIM_019.jpg	100
2649.035	1.018	1018.4	incongruent	Block3	incongruent/STIM_019.jpg	100
2652.938	0.915	914.7	incongruent	Block3	incongruent/STIM_019.jpg	99
2657.344	0.962	962.5	incongruent	Block3	incongruent/STIM_019.jpg	99
2660.388	0.909	908.7	incongruent	Block3	incongruent/STIM_019.jpg	100
2665.192	0.975	974.9	incongruent	Block3	incongruent/STIM_020.jpg	100
2670.026	1.105	1105.4	incongruent	Block3	incongruent/STIM_020.jpg	99
2673.346	0.867	867.1	incongruent	Block3	incongruent/STIM_020.jpg	99
2676.256	0.69	689.5	incongruent	Block3	incongruent/STIM_020.jpg	100
2680.5	0.571	571.4	incongruent	Block3	incongruent/STIM_020.jpg	100
2683.194	0.916	915.6	incongruent	Block3	incongruent/STIM_021.jpg	99
2686.307	0.739	739.1	incongruent	Block3	incongruent/STIM_021.jpg	99
2690.012	0.687	687.0	incongruent	Block3	incongruent/STIM_021.jpg	99
2694.526	0.881	881.0	incongruent	Block3	incongruent/STIM_021.jpg	99
2697.942	0.651	651.1	incongruent	Block3	incongruent/STIM_021.jpg	99
2701.545	0.577	576.8	incongruent	Block3	incongruent/STIM_022.jpg	99
2705.46	0.907	907.3	incongruent	Block3	incongruent/STIM_022.jpg	100
2710.258	0.934	933.7	incongruent	Block3	incongruent/STIM_022.jpg	99
2714.959	0.541	541.3	incongruent	Block3	incongruent/STIM_022.jpg	100
2717.892	0.797	796.7	incongruent	Block3	incongruent/STIM_022.jpg	100
2721.765	0.951	951.0	incongruent	Block3	incongruent/STIM_023.jpg	99
2725.979	0.846	846.2	incongruent	Block3	incongruent/STIM_023.jpg	99
2730.128	0.682	681.8	incongruent	Block3	incongruent/STIM_023.jpg	100
2734.358	0.767	767.3	incongruent	Block3	incongruent/STIM_023.jpg	100
2737.748	0.595	595.1	incongruent	Block3	incongruent/STIM_023.jpg	100
2741.41	0.673	673.3	incongruent	Block3	incongruent/STIM_024.jpg	99
2744.647	0.933	932.8	incongruent	Block3	incongruent/STIM_024.jpg	100
2749.501	0.678	678.5	incongruent	Block3	incongruent/STIM_024.jpg	100
2752.674	0.942	942.1	incongruent	Block3	incongruent/STIM_024.jpg	100
2755.644	0.67	669.7	incongruent	Block3	incongruent/STIM_024.jpg	99
2759.315	0.566	565.8	incongruent	Block3	incongruent/STIM_025.jpg	100
2763.748	0.773	772.6	incongruent	Block3	incongruent/STIM_025.jpg	99
2768.007	0.871	870.9	incongruent	Block3	incongruent/STIM_025.jpg	99
2771.587	0.978	978.5	incongruent	Block3	incongruent/STIM_025.jpg	99
2775.428	1.09	1090.0	incongruent	Block3	incongruent/STIM_025.jpg	100
2779.296	0.875	874.6	incongruent	Block3	incongruent/STIM_026.jpg	100
2783.286	0.93	930.2	incongruent	Block3	incongruent/STIM_026.jpg	99
2787.678	0.634	633.9	incongruent	Block3	incongruent/STIM_026.jpg	99
2792.223	0.989	989.4	incongruent	Block3	incongruent/STIM_026.jpg	99
2796.551	1.032	1032.4	incongruent	Block3	incongruent/STIM_026.jpg	99
2799.674	0.732	732.0	incongruent	Block3	incongruent/STIM_027.jpg	99
2802.789	0.946	945.8	incongruent	Block3	incongruent/STIM_027.jpg	100
2805.891	0.852	851.5	incongruent	Block3	incongruent/STIM_027.jpg	99
2809.335	0.811	811.0	incongruent	Block3	incongruent/STIM_027.jpg	99
2812.932	0.989	989.2	incongruent	Block3	incongruent/STIM_027.jpg	100
2816.014	0.783	783.1	incongruent	Block3	incongruent/STIM_028.jpg	99
2819.724	0.524	523.8	incongruent	Block3	incongruent/STIM_028.jpg	100
2823.529	0.814	813.8	incongruent	Block3	incongruent/STIM_028.jpg	100
2827.897	0.563	563.2	incongruent	Block3	incongruent/STIM_028.jpg	100
2831.991	0.588	588.2	incongruent	Block3	incongruent/STIM_028.jpg	99
2834.725	0.64	639.5	incongruent	Block3	incongruent/STIM_029.jpg	99
2838.861	0.915	915.3	incongruent	Block3	incongruent/STIM_029.jpg	99
2843.272	0.937	936.7	incongruent	Block3	incongruent/STIM_029.jpg	99
2846.925	1.044	1044.4	incongruent	Block3	incongruent/STIM_029.jpg	99
2851.178	0.539	539.2	incongruent	Block3	incongruent/STIM_029.jpg	99
2855.683	0.804	803.7	congruent	Block3	congruent/STIM_000.jpg	99
2858.925	0.702	702.4	congruent	Block3	congruent/STIM_000.jpg	100
2861.93	0.72	720.2	congruent	Block3	congruent/STIM_000.jpg	100
2865.513	0.618	618.2	congruent	Block3	congruent/STIM_000.jpg	100
2868.681	0.696	695.9	congruent	Block3	congruent/STIM_000.jpg	99
2871.867	0.835	834.8	congruent	Block3	congruent/STIM_001.jpg	99
2876.398	0.695	695.1	congruent	Block3	congruent/STIM_001.jpg	99
2879.966	0.825	825.3	congruent	Block3	congruent/STIM_001.jpg	100
2883.35	0.942	942.3	congruent	Block3	congruent/STIM_001.jpg	100
2887.26	0.593	593.3	congruent	Block3	congruent/STIM_001.jpg	99
2889.83	0.577	577.1	congruent	Block3	congruent/STIM_002.jpg	99
2892.758	0.633	632.7	congruent	Block3	congruent/STIM_002.jpg	100
2897.03	0.549	549.4	congruent	Block3	congruent/STIM_002.jpg	100
2899.739	0.662	662.5	congruent	Block3	congruent/STIM_002.jpg	99
2902.653	0.82	820.3	congruent	Block3	congruent/STIM_002.jpg	99
2907.083	0.749	749.2	congruent	Block3	congruent/STIM_003.jpg	100
2910.41	0.618	618.1	congruent	Block3	congruent/STIM_003.jpg	100
2914.123	0.672	672.4	congruent	Block3	congruent/STIM_003.jpg	100
2917.389	0.62	619.5	congruent	Block3	congruent/STIM_003.jpg	99
2921.568	0.876	875.6	congruent	Block3	congruent/STIM_003.jpg	99
2924.59	0.846	845.5	congruent	Block3	congruent/STIM_004.jpg	100
2927.82	0.937	937.3	congruent	Block3	congruent/STIM_004.jpg	99
2930.817	0.547	547.2	congruent	Block3	congruent/STIM_004.jpg	100
2934.488	0.559	559.4	congruent	Block3	congruent/STIM_004.jpg	100
2938.368	0.551	550.8	congruent	Block3	congruent/STIM_004.jpg	99
2940.923	0.786	786.1	congruent	Block3	congruent/STIM_005.jpg	99
2945.537	0.743	742.6	congruent	Block3	congruent/STIM_005.jpg	100
2950.142	0.628	627.7	congruent	Block3	congruent/STIM_005.jpg	100
2952.947	0.9	900.5	congruent	Block3	congruent/STIM_005.jpg	100
2956.109	0.856	856.5	congruent	Block3	congruent/STIM_005.jpg	100
2959.567	0.819	819.3	congruent	Block3	congruent/STIM_006.jpg	100
2963.25	0.789	789.2	congruent	Block3	congruent/STIM_006.jpg	100
2966.98	0.602	602.0	congruent	Block3	congruent/STIM_006.jpg	99
2970.023	0.633	633.4	congruent	Block3	congruent/STIM_006.jpg	99
2973.056	0.708	708.0	congruent	Block3	congruent/STIM_006.jpg	100
2975.905	0.536	536.1	congruent	Block3	congruent/STIM_007.jpg	100
2979.267	0.566	566.5	congruent	Block3	congruent/STIM_007.jpg	100
2983.469	0.835	835.1	congruent	Block3	congruent/STIM_007.jpg	100
2986.573	0.646	646.3	congruent	Block3	congruent/STIM_007.jpg	99
2990.454	0.636	636.1	congruent	Block3	congruent/STIM_007.jpg	100
2994.656	0.877	877.3	congruent	Block3	congruent/STIM_008.jpg	100
2999.344	0.879	878.9	congruent	Block3	congruent/STIM_008.jpg	100
3003.605	0.842	842.2	congruent	Block3	congruent/STIM_008.jpg	100
3007.72	0.776	775.8	congruent	Block3	congruent/STIM_008.jpg	99
3010.813	0.718	718.1	congruent	Block3	congruent/STIM_008.jpg	100
3014.999	0.56	559.6	congruent	Block3	congruent/STIM_009.jpg	100
3017.668	0.589	588.7	congruent	Block3	congruent/STIM_009.jpg	100
3020.591	0.954	954.5	congruent	Block3	congruent/STIM_009.jpg	99
3025.35	0.832	831.9	congruent	Block3	congruent/STIM_009.jpg	100
3029.711	0.943	942.9	congruent	Block3	congruent/STIM_009.jpg	99
3033.63	0.841	840.8	congruent	Block3	congruent/STIM_010.jpg	99
3037.699	0.7	699.5	congruent	Block3	congruent/STIM_010.jpg	100
3041.795	0.784	783.6	congruent	Block3	congruent/STIM_010.jpg	99
3046.0	0.957	957.1	congruent	Block3	congruent/STIM_010.jpg	99
3049.79	0.648	648.3	congruent	Block3	congruent/STIM_010.jpg	99
3053.434	0.626	626.3	congruent	Block3	congruent/STIM_011.jpg	99
3057.493	0.921	921.1	congruent	Block3	congruent/STIM_011.jpg	100
3062.188	0.655	655.3	congruent	Block3	congruent/STIM_011.jpg	99
3065.99	0.568	567.5	congruent	Block3	congruent/STIM_011.jpg	100
3068.758	0.825	825.3	congruent	Block3	congruent/STIM_011.jpg	100
3072.898	0.684	684.0	congruent	Block3	congruent/STIM_012.jpg	99
3076.659	0.665	664.8	congruent	Block3	congruent/STIM_012.jpg	99
3079.95	0.813	813.3	congruent	Block3	congruent/STIM_012.jpg	100
3084.157	0.851	851.3	congruent	Block3	congruent/STIM_012.jpg	100
3087.032	0.892	891.9	congruent	Block3	congruent/STIM_012.jpg	99
3090.944	0.928	927.7	congruent	Block3	congruent/STIM_013.jpg	100
3094.09	0.869	869.3	congruent	Block3	congruent/STIM_013.jpg	100
3098.772	0.716	716.0	congruent	Block3	congruent/STIM_013.jpg	100
3103.158	0.848	847.5	congruent	Block3	congruent/STIM_013.jpg	99
3106.077	0.953	952.6	congruent	Block3	congruent/STIM_013.jpg	100
3109.498	0.791	790.9	congruent	Block3	congruent/STIM_014.jpg	99
3113.062	0.732	731.8	congruent	Block3	congruent/STIM_014.jpg	100
3116.668	0.864	864.5	congruent	Block3	congruent/STIM_014.jpg	99
3121.153	0.844	843.9	congruent	Block3	congruent/STIM_014.jpg	100
3124.783	0.607	607.3	congruent	Block3	congruent/STIM_014.jpg	99
3128.586	0.87	870.5	congruent	Block3	congruent/STIM_015.jpg	99
3132.241	0.638	637.9	congruent	Block3	congruent/STIM_015.jpg	99
3136.26	0.948	948.2	congruent	Block3	congruent/STIM_015.jpg	99
3140.229	0.763	763.1	congruent	Block3	congruent/STIM_015.jpg	99
3144.717	0.867	867.1	congruent	Block3	congruent/STIM_015.jpg	99
3148.979	0.818	818.5	congruent	Block3	congruent/STIM_016.jpg	100
3152.555	0.682	682.1	congruent	Block3	congruent/STIM_016.jpg	99
3155.54	0.654	654.2	congruent	Block3	congruent/STIM_016.jpg	100
3159.597	0.8	800.1	congruent	Block3	congruent/STIM_016.jpg	100
3163.931	0.562	562.2	congruent	Block3	congruent/STIM_016.jpg	99
3166.502	0.856	856.0	congruent	Block3	congruent/STIM_017.jpg	99
3170.73	0.6	600.2	congruent	Block3	congruent/STIM_017.jpg	99
3174.578	0.928	927.5	congruent	Block3	congruent/STIM_017.jpg	100
3179.271	0.694	694.1	congruent	Block3	congruent/STIM_017.jpg	99
3183.501	0.699	698.9	congruent	Block3	congruent/STIM_017.jpg	99
3188.038	0.73	729.6	congruent	Block3	congruent/STIM_018.jpg	100
3192.092	0.944	943.6	congruent	Block3	congruent/STIM_018.jpg	100
3195.135	0.747	747.2	congruent	Block3	congruent/STIM_018.jpg	100
3198.873	0.64	639.8	congruent	Block3	congruent/STIM_018.jpg	99
3201.868	0.817	816.7	congruent	Block3	congruent/STIM_018.jpg	99
3205.18	0.797	796.8	congruent	Block3	congruent/STIM_019.jpg	99
3209.089	0.784	784.3	congruent	Block3	congruent/STIM_019.jpg	99
3213.256	0.571	570.9	congruent	Block3	congruent/STIM_019.jpg	100
3216.504	0.56	559.5	congruent	Block3	congruent/STIM_019.jpg	100
3219.848	0.547	547.2	congruent	Block3	congruent/STIM_019.jpg	100
3224.35	0.792	791.8	congruent	Block3	congruent/STIM_020.jpg	100
3229.045	0.857	857.4	congruent	Block3	congruent/STIM_020.jpg	100
3233.545	0.941	940.6	congruent	Block3	congruent/STIM_020.jpg	100
3236.977	0.821	821.2	congruent	Block3	congruent/STIM_020.jpg	100
3241.253	0.569	569.3	congruent	Block3	congruent/STIM_020.jpg	100
3245.61	0.569	568.7	congruent	Block3	congruent/STIM_021.jpg	99
3249.851	0.84	839.9	congruent	Block3	congruent/STIM_021.jpg	99
3253.99	0.552	551.6	congruent	Block3	congruent/STIM_021.jpg	99
3257.756	0.857	857.1	congruent	Block3	congruent/STIM_021.jpg	100
3260.621	0.868	868.2	congruent	Block3	congruent/STIM_021.jpg	99
3264.772	0.78	779.6	congruent	Block3	congruent/STIM_022.jpg	99
3267.872	0.678	678.3	congruent	Block3	congruent/STIM_022.jpg	100
3270.649	0.592	592.5	congruent	Block3	congruent/STIM_022.jpg	100
3274.36	0.737	736.9	congruent	Block3	congruent/STIM_022.jpg	99
3277.796	0.535	534.9	congruent	Block3	congruent/STIM_022.jpg	100
3280.999	0.729	728.6	congruent	Block3	congruent/STIM_023.jpg	100
3284.58	0.828	828.5	congruent	Block3	congruent/STIM_023.jpg	99
3287.924	0.573	573.4	congruent	Block3	congruent/STIM_023.jpg	99
3292.137	0.74	739.7	congruent	Block3	congruent/STIM_023.jpg	100
3296.015	0.793	793.0	congruent	Block3	congruent/STIM_023.jpg	100
3299.753	0.851	850.8	congruent	Block3	congruent/STIM_024.jpg	99
3303.495	0.626	625.7	congruent	Block3	congruent/STIM_024.jpg	99
3306.382	0.747	747.1	congruent	Block3	congruent/STIM_024.jpg	99
3309.938	0.844	844.4	congruent	Block3	congruent/STIM_024.jpg	100
3313.101	0.723	722.7	congruent	Block3	congruent/STIM_024.jpg	99
3317.035	0.66	659.6	congruent	Block3	congruent/STIM_025.jpg	99
3320.833	0.673	672.6	congruent	Block3	congruent/STIM_025.jpg	100
3324.833	0.69	689.7	congruent	Block3	congruent/STIM_025.jpg	99
3328.059	0.743	742.9	congruent	Block3	congruent/STIM_025.jpg	99
3331.986	0.722	722.4	congruent	Block3	congruent/STIM_025.jpg	100
3336.111	0.682	681.7	congruent	Block3	congruent/STIM_026.jpg	100
3340.243	0.751	751.3	congruent	Block3	congruent/STIM_026.jpg	100
3344.241	0.55	549.5	congruent	Block3	congruent/STIM_026.jpg	99
3347.481	0.863	863.1	congruent	Block3	congruent/STIM_026.jpg	100
3350.821	0.883	882.7	congruent	Block3	congruent/STIM_026.jpg	99
3355.13	0.542	541.9	congruent	Block3	congruent/STIM_027.jpg	99
3358.922	0.772	771.6	congruent	Block3	congruent/STIM_027.jpg	99
3362.708	0.92	919.6	congruent	Block3	congruent/STIM_027.jpg	100
3367.214	0.642	642.3	congruent	Block3	congruent/STIM_027.jpg	99
3371.261	0.678	678.1	congruent	Block3	congruent/STIM_027.jpg	100
3375.58	0.74	740.5	congruent	Block3	congruent/STIM_028.jpg	99
3378.539	0.599	599.1	congruent	Block3	congruent/STIM_028.jpg	99
3381.963	0.585	585.0	congruent	Block3	congruent/STIM_028.jpg	100
3386.366	0.717	717.3	congruent	Block3	congruent/STIM_028.jpg	99
3389.156	0.552	551.8	congruent	Block3	congruent/STIM_028.jpg	100
3393.465	0.684	684.2	congruent	Block3	congruent/STIM_029.jpg	100
3396.61	0.866	865.7	congruent	Block3	congruent/STIM_029.jpg	100
3400.468	0.535	535.2	congruent	Block3	congruent/STIM_029.jpg	100
3403.48	0.581	581.1	congruent	Block3	congruent/STIM_029.jpg	100
3407.608	0.824	823.5	congruent	Block3	congruent/STIM_029.jpg	99
