onset	duration	accuracy	trial_type	learning_stage	stimulus
0.0	0.971	correct	incongruent	Block1	incongruent/STIM_000.jpg
3.489	1.126	correct	incongruent	Block1	incongruent/STIM_000.jpg
7.693	1.053	correct	incongruent	Block1	incongruent/STIM_000.jpg
11.192	1.346	correct	incongruent	Block1	incongruent/STIM_000.jpg
14.638	1.244	correct	incongruent	Block1	incongruent/STIM_000.jpg
17.915	1.167	incorrect	incongruent	Block1	incongruent/STIM_001.jpg
22.968	1.414	correct	incongruent	Block1	incongruent/STIM_001.jpg
27.711	0.89	correct	incongruent	Block1	incongruent/STIM_001.jpg
32.13	1.126	correct	incongruent	Block1	incongruent/STIM_001.jpg
37.148	1.074	correct	incongruent	Block1	incongruent/STIM_001.jpg
40.403	1.096	correct	incongruent	Block1	incongruent/STIM_002.jpg
43.664	1.31	correct	incongruent	Block1	incongruent/STIM_002.jpg
48.128	1.183	incorrect	incongruent	Block1	incongruent/STIM_002.jpg
51.248	1.274	correct	incongruent	Block1	incongruent/STIM_002.jpg
55.131	1.132	correct	incongruent	Block1	incongruent/STIM_002.jpg
59.14	1.156	correct	incongruent	Block1	incongruent/STIM_003.jpg
63.215	1.054	correct	incongruent	Block1	incongruent/STIM_003.jpg
67.38	0.695	correct	incongruent	Block1	incongruent/STIM_003.jpg
71.057	1.061	correct	incongruent	Block1	incongruent/STIM_003.jpg
75.014	0.915	correct	incongruent	Block1	incongruent/STIM_003.jpg
79.478	1.462	correct	incongruent	Block1	incongruent/STIM_004.jpg
83.912	1.289	correct	incongruent	Block1	incongruent/STIM_004.jpg
88.893	0.971	correct	incongruent	Block1	incongruent/STIM_004.jpg
91.861	1.006	correct	incongruent	Block1	incongruent/STIM_004.jpg
95.376	0.964	correct	incongruent	Block1	incongruent/STIM_004.jpg
100.125	1.082	correct	incongruent	Block1	incongruent/STIM_005.jpg
105.019	1.291	correct	incongruent	Block1	incongruent/STIM_005.jpg
108.299	1.139	correct	incongruent	Block1	incongruent/STIM_005.jpg
112.151	0.641	correct	incongruent	Block1	incongruent/STIM_005.jpg
116.269	0.872	correct	incongruent	Block1	incongruent/STIM_005.jpg
119.267	1.583	correct	incongruent	Block1	incongruent/STIM_006.jpg
124.578	1.232	correct	incongruent	Block1	incongruent/STIM_006.jpg
127.819	1.389	incorrect	incongruent	Block1	incongruent/STIM_006.jpg
132.149	0.893	correct	incongruent	Block1	incongruent/STIM_006.jpg
135.634	1.085	incorrect	incongruent	Block1	incongruent/STIM_006.jpg
139.791	1.443	correct	incongruent	Block1	incongruent/STIM_007.jpg
143.453	1.122	correct	incongruent	Block1	incongruent/STIM_007.jpg
147.96	1.203	correct	incongruent	Block1	incongruent/STIM_007.jpg
152.811	1.3	correct	incongruent	Block1	incongruent/STIM_007.jpg
157.342	0.856	correct	incongruent	Block1	incongruent/STIM_007.jpg
161.622	0.916	correct	incongruent	Block1	incongruent/STIM_008.jpg
165.742	1.087	correct	incongruent	Block1	incongruent/STIM_008.jpg
170.103	1.106	correct	incongruent	Block1	incongruent/STIM_008.jpg
173.717	1.178	correct	incongruent	Block1	incongruent/STIM_008.jpg
177.328	1.153	correct	incongruent	Block1	incongruent/STIM_008.jpg
180.678	0.924	correct	incongruent	Block1	incongruent/STIM_009.jpg
185.054	1.132	correct	incongruent	Block1	incongruent/STIM_009.jpg
189.981	1.052	correct	incongruent	Block1	incongruent/STIM_009.jpg
194.288	0.772	incorrect	incongruent	Block1	incongruent/STIM_009.jpg
197.564	1.228	correct	incongruent	Block1	incongruent/STIM_009.jpg
201.085	0.767	correct	incongruent	Block1	incongruent/STIM_010.jpg
204.811	0.872	correct	incongruent	Block1	incongruent/STIM_010.jpg
207.89	1.121	correct	incongruent	Block1	incongruent/STIM_010.jpg
212.621	1.255	correct	incongruent	Block1	incongruent/STIM_010.jpg
215.839	1.166	correct	incongruent	Block1	incongruent/STIM_010.jpg
219.349	1.294	correct	incongruent	Block1	incongruent/STIM_011.jpg
223.326	1.024	correct	incongruent	Block1	incongruent/STIM_011.jpg
227.061	0.707	correct	incongruent	Block1	incongruent/STIM_011.jpg
230.865	1.281	correct	incongruent	Block1	incongruent/STIM_011.jpg
235.146	0.826	correct	incongruent	Block1	incongruent/STIM_011.jpg
239.476	0.841	correct	incongruent	Block1	incongruent/STIM_012.jpg
242.282	0.754	correct	incongruent	Block1	incongruent/STIM_012.jpg
245.232	0.753	correct	incongruent	Block1	incongruent/STIM_012.jpg
249.109	0.818	correct	incongruent	Block1	incongruent/STIM_012.jpg
253.85	0.853	correct	incongruent	Block1	incongruent/STIM_012.jpg
257.077	1.536	correct	incongruent	Block1	incongruent/STIM_013.jpg
261.393	1.172	correct	incongruent	Block1	incongruent/STIM_013.jpg
264.78	0.928	correct	incongruent	Block1	incongruent/STIM_013.jpg
267.885	0.638	correct	incongruent	Block1	incongruent/STIM_013.jpg
272.444	1.116	correct	incongruent	Block1	incongruent/STIM_013.jpg
276.249	1.441	correct	incongruent	Block1	incongruent/STIM_014.jpg
280.666	0.806	correct	incongruent	Block1	incongruent/STIM_014.jpg
284.105	0.813	correct	incongruent	Block1	incongruent/STIM_014.jpg
286.91	1.172	correct	incongruent	Block1	incongruent/STIM_014.jpg
291.571	1.232	correct	incongruent	Block1	incongruent/STIM_014.jpg
294.773	0.998	correct	incongruent	Block1	incongruent/STIM_015.jpg
297.783	1.023	correct	incongruent	Block1	incongruent/STIM_015.jpg
300.881	1.108	correct	incongruent	Block1	incongruent/STIM_015.jpg
305.178	0.981	correct	incongruent	Block1	incongruent/STIM_015.jpg
309.735	0.883	correct	incongruent	Block1	incongruent/STIM_015.jpg
313.442	0.947	incorrect	incongruent	Block1	incongruent/STIM_016.jpg
316.571	0.713	correct	incongruent	Block1	incongruent/STIM_016.jpg
319.914	1.123	incorrect	incongruent	Block1	incongruent/STIM_016.jpg
323.656	1.011	correct	incongruent	Block1	incongruent/STIM_016.jpg
328.242	0.61	correct	incongruent	Block1	incongruent/STIM_016.jpg
331.338	1.192	correct	incongruent	Block1	incongruent/STIM_017.jpg
334.711	1.336	correct	incongruent	Block1	incongruent/STIM_017.jpg
338.37	1.316	correct	incongruent	Block1	incongruent/STIM_017.jpg
342.416	0.789	correct	incongruent	Block1	incongruent/STIM_017.jpg
346.494	0.673	correct	incongruent	Block1	incongruent/STIM_017.jpg
350.981	1.16	correct	incongruent	Block1	incongruent/STIM_018.jpg
355.38	1.377	incorrect	incongruent	Block1	incongruent/STIM_018.jpg
359.442	1.432	correct	incongruent	Block1	incongruent/STIM_018.jpg
363.252	0.843	correct	incongruent	Block1	incongruent/STIM_018.jpg
366.112	1.104	correct	incongruent	Block1	incongruent/STIM_018.jpg
369.492	1.509	correct	incongruent	Block1	incongruent/STIM_019.jpg
373.329	1.022	incorrect	incongruent	Block1	incongruent/STIM_019.jpg
376.605	1.427	correct	incongruent	Block1	incongruent/STIM_019.jpg
380.57	1.087	correct	incongruent	Block1	incongruent/STIM_019.jpg
385.454	0.899	correct	incongruent	Block1	incongruent/STIM_019.jpg
389.071	1.175	correct	incongruent	Block1	incongruent/STIM_020.jpg
392.279	1.49	correct	incongruent	Block1	incongruent/STIM_020.jpg
397.63	1.295	correct	incongruent	Block1	incongruent/STIM_020.jpg
401.216	0.944	correct	incongruent	Block1	incongruent/STIM_020.jpg
404.399	1.04	correct	incongruent	Block1	incongruent/STIM_020.jpg
409.056	0.971	correct	incongruent	Block1	incongruent/STIM_021.jpg
413.157	0.76	correct	incongruent	Block1	incongruent/STIM_021.jpg
417.228	1.326	correct	incongruent	Block1	incongruent/STIM_021.jpg
422.009	1.154	correct	incongruent	Block1	incongruent/STIM_021.jpg
425.971	0.933	correct	incongruent	Block1	incongruent/STIM_021.jpg
428.954	0.869	correct	incongruent	Block1	incongruent/STIM_022.jpg
432.237	0.84	correct	incongruent	Block1	incongruent/STIM_022.jpg
436.652	1.422	correct	incongruent	Block1	incongruent/STIM_022.jpg
441.195	1.073	correct	incongruent	Block1	incongruent/STIM_022.jpg
444.618	1.186	correct	incongruent	Block1	incongruent/STIM_022.jpg
449.079	1.57	correct	incongruent	Block1	incongruent/STIM_023.jpg
453.885	1.293	correct	incongruent	Block1	incongruent/STIM_023.jpg
458.31	1.141	correct	incongruent	Block1	incongruent/STIM_023.jpg
462.181	1.08	correct	incongruent	Block1	incongruent/STIM_023.jpg
466.255	1.134	correct	incongruent	Block1	incongruent/STIM_023.jpg
470.426	1.356	correct	incongruent	Block1	incongruent/STIM_024.jpg
475.65	1.265	incorrect	incongruent	Block1	incongruent/STIM_024.jpg
478.871	1.336	correct	incongruent	Block1	incongruent/STIM_024.jpg
483.514	1.168	correct	incongruent	Block1	incongruent/STIM_024.jpg
488.555	0.888	correct	incongruent	Block1	incongruent/STIM_024.jpg
492.767	1.551	correct	incongruent	Block1	incongruent/STIM_025.jpg
497.69	0.823	correct	incongruent	Block1	incongruent/STIM_025.jpg
501.597	0.814	correct	incongruent	Block1	incongruent/STIM_025.jpg
504.456	1.053	correct	incongruent	Block1	incongruent/STIM_025.jpg
507.513	0.747	correct	incongruent	Block1	incongruent/STIM_025.jpg
511.975	1.11	incorrect	incongruent	Block1	incongruent/STIM_026.jpg
516.854	1.107	correct	incongruent	Block1	incongruent/STIM_026.jpg
520.598	0.935	correct	incongruent	Block1	incongruent/STIM_026.jpg
524.585	1.318	correct	incongruent	Block1	incongruent/STIM_026.jpg
527.913	0.732	correct	incongruent	Block1	incongruent/STIM_026.jpg
531.066	0.851	correct	incongruent	Block1	incongruent/STIM_027.jpg
535.331	1.108	correct	incongruent	Block1	incongruent/STIM_027.jpg
539.336	1.294	correct	incongruent	Block1	incongruent/STIM_027.jpg
542.865	1.122	correct	incongruent	Block1	incongruent/STIM_027.jpg
547.76	0.613	correct	incongruent	Block1	incongruent/STIM_027.jpg
551.478	1.018	correct	incongruent	Block1	incongruent/STIM_028.jpg
555.414	1.042	correct	incongruent	Block1	incongruent/STIM_028.jpg
558.581	1.176	correct	incongruent	Block1	incongruent/STIM_028.jpg
562.448	1.257	correct	incongruent	Block1	incongruent/STIM_028.jpg
567.303	1.011	correct	incongruent	Block1	incongruent/STIM_028.jpg
571.826	0.891	correct	incongruent	Block1	incongruent/STIM_029.jpg
574.845	0.89	correct	incongruent	Block1	incongruent/STIM_029.jpg
578.49	1.336	correct	incongruent	Block1	incongruent/STIM_029.jpg
582.686	0.808	correct	incongruent	Block1	incongruent/STIM_029.jpg
586.024	0.905	correct	incongruent	Block1	incongruent/STIM_029.jpg
589.611	0.828	correct	congruent	Block1	congruent/STIM_000.jpg
592.623	0.866	correct	congruent	Block1	congruent/STIM_000.jpg
597.142	0.754	correct	congruent	Block1	congruent/STIM_000.jpg
600.824	0.763	correct	congruent	Block1	congruent/STIM_000.jpg
603.835	0.566	correct	congruent	Block1	congruent/STIM_000.jpg
608.113	0.95	correct	congruent	Block1	congruent/STIM_001.jpg
611.119	0.744	correct	congruent	Block1	congruent/STIM_001.jpg
614.24	0.9	correct	congruent	Block1	congruent/STIM_001.jpg
619.067	0.705	correct	congruent	Block1	congruent/STIM_001.jpg
622.79	0.663	correct	congruent	Block1	congruent/STIM_001.jpg
625.765	0.558	correct	congruent	Block1	congruent/STIM_002.jpg
629.376	0.623	correct	congruent	Block1	congruent/STIM_002.jpg
633.069	0.568	correct	congruent	Block1	congruent/STIM_002.jpg
637.059	0.87	correct	congruent	Block1	congruent/STIM_002.jpg
640.106	0.566	correct	congruent	Block1	congruent/STIM_002.jpg
642.829	0.943	correct	congruent	Block1	congruent/STIM_003.jpg
646.49	0.736	correct	congruent	Block1	congruent/STIM_003.jpg
650.126	0.756	correct	congruent	Block1	congruent/STIM_003.jpg
653.093	0.57	correct	congruent	Block1	congruent/STIM_003.jpg
657.187	0.929	correct	congruent	Block1	congruent/STIM_003.jpg
660.898	0.937	correct	congruent	Block1	congruent/STIM_004.jpg
664.866	0.736	correct	congruent	Block1	congruent/STIM_004.jpg
668.666	0.665	correct	congruent	Block1	congruent/STIM_004.jpg
673.266	0.833	correct	congruent	Block1	congruent/STIM_004.jpg
676.612	0.93	correct	congruent	Block1	congruent/STIM_004.jpg
680.087	0.878	correct	congruent	Block1	congruent/STIM_005.jpg
684.578	0.889	correct	congruent	Block1	congruent/STIM_005.jpg
688.163	0.595	correct	congruent	Block1	congruent/STIM_005.jpg
690.809	0.911	incorrect	congruent	Block1	congruent/STIM_005.jpg
694.495	0.634	correct	congruent	Block1	congruent/STIM_005.jpg
698.567	0.759	correct	congruent	Block1	congruent/STIM_006.jpg
702.846	0.864	correct	congruent	Block1	congruent/STIM_006.jpg
706.312	0.556	correct	congruent	Block1	congruent/STIM_006.jpg
709.219	0.796	correct	congruent	Block1	congruent/STIM_006.jpg
713.036	0.842	correct	congruent	Block1	congruent/STIM_006.jpg
717.461	0.717	correct	congruent	Block1	congruent/STIM_007.jpg
721.926	0.844	correct	congruent	Block1	congruent/STIM_007.jpg
725.719	0.905	correct	congruent	Block1	congruent/STIM_007.jpg
730.461	0.829	correct	congruent	Block1	congruent/STIM_007.jpg
734.926	0.866	correct	congruent	Block1	congruent/STIM_007.jpg
738.134	0.897	correct	congruent	Block1	congruent/STIM_008.jpg
742.826	0.878	correct	congruent	Block1	congruent/STIM_008.jpg
746.606	0.822	correct	congruent	Block1	congruent/STIM_008.jpg
750.383	0.6	correct	congruent	Block1	congruent/STIM_008.jpg
753.705	0.646	correct	congruent	Block1	congruent/STIM_008.jpg
756.775	0.916	correct	congruent	Block1	congruent/STIM_009.jpg
761.31	0.924	correct	congruent	Block1	congruent/STIM_009.jpg
765.369	0.702	correct	congruent	Block1	congruent/STIM_009.jpg
768.598	0.873	correct	congruent	Block1	congruent/STIM_009.jpg
771.761	0.655	correct	congruent	Block1	congruent/STIM_009.jpg
776.046	0.561	correct	congruent	Block1	congruent/STIM_010.jpg
779.851	0.602	correct	congruent	Block1	congruent/STIM_010.jpg
783.943	0.796	correct	congruent	Block1	congruent/STIM_010.jpg
786.995	0.76	correct	congruent	Block1	congruent/STIM_010.jpg
790.99	0.551	correct	congruent	Block1	congruent/STIM_010.jpg
795.317	0.612	correct	congruent	Block1	congruent/STIM_011.jpg
798.491	0.572	correct	congruent	Block1	congruent/STIM_011.jpg
802.432	0.641	correct	congruent	Block1	congruent/STIM_011.jpg
806.068	0.644	correct	congruent	Block1	congruent/STIM_011.jpg
809.549	0.588	correct	congruent	Block1	congruent/STIM_011.jpg
813.031	0.791	correct	congruent	Block1	congruent/STIM_012.jpg
816.148	0.791	correct	congruent	Block1	congruent/STIM_012.jpg
820.009	0.577	correct	congruent	Block1	congruent/STIM_012.jpg
822.832	0.789	correct	congruent	Block1	congruent/STIM_012.jpg
826.959	0.591	correct	congruent	Block1	congruent/STIM_012.jpg
829.641	0.579	correct	congruent	Block1	congruent/STIM_013.jpg
834.01	0.886	correct	congruent	Block1	congruent/STIM_013.jpg
837.703	0.661	correct	congruent	Block1	congruent/STIM_013.jpg
840.835	0.707	correct	congruent	Block1	congruent/STIM_013.jpg
843.772	0.733	correct	congruent	Block1	congruent/STIM_013.jpg
846.662	0.855	correct	congruent	Block1	congruent/STIM_014.jpg
849.779	0.617	correct	congruent	Block1	congruent/STIM_014.jpg
853.805	0.629	correct	congruent	Block1	congruent/STIM_014.jpg
857.862	0.89	correct	congruent	Block1	congruent/STIM_014.jpg
862.373	0.909	correct	congruent	Block1	congruent/STIM_014.jpg
866.995	0.613	correct	congruent	Block1	congruent/STIM_015.jpg
870.392	0.598	correct	congruent	Block1	congruent/STIM_015.jpg
874.342	0.774	incorrect	congruent	Block1	congruent/STIM_015.jpg
877.482	0.885	correct	congruent	Block1	congruent/STIM_015.jpg
880.333	0.927	correct	congruent	Block1	congruent/STIM_015.jpg
885.144	0.909	correct	congruent	Block1	congruent/STIM_016.jpg
888.989	0.748	correct	congruent	Block1	congruent/STIM_016.jpg
891.77	0.882	correct	congruent	Block1	congruent/STIM_016.jpg
895.106	0.558	correct	congruent	Block1	congruent/STIM_016.jpg
898.777	0.675	correct	congruent	Block1	congruent/STIM_016.jpg
902.002	0.553	correct	congruent	Block1	congruent/STIM_017.jpg
905.968	0.676	correct	congruent	Block1	congruent/STIM_017.jpg
910.07	0.7	correct	congruent	Block1	congruent/STIM_017.jpg
914.568	0.544	correct	congruent	Block1	congruent/STIM_017.jpg
917.772	0.708	correct	congruent	Block1	congruent/STIM_017.jpg
921.717	0.695	correct	congruent	Block1	congruent/STIM_018.jpg
925.476	0.935	correct	congruent	Block1	congruent/STIM_018.jpg
929.873	0.537	incorrect	congruent	Block1	congruent/STIM_018.jpg
933.857	0.699	correct	congruent	Block1	congruent/STIM_018.jpg
937.219	0.796	correct	congruent	Block1	congruent/STIM_018.jpg
941.928	0.91	correct	congruent	Block1	congruent/STIM_019.jpg
946.667	0.594	correct	congruent	Block1	congruent/STIM_019.jpg
949.998	0.924	correct	congruent	Block1	congruent/STIM_019.jpg
953.237	0.755	correct	congruent	Block1	congruent/STIM_019.jpg
956.248	0.776	correct	congruent	Block1	congruent/STIM_019.jpg
960.438	0.914	correct	congruent	Block1	congruent/STIM_020.jpg
963.484	0.62	correct	congruent	Block1	congruent/STIM_020.jpg
966.946	0.553	correct	congruent	Block1	congruent/STIM_020.jpg
970.121	0.923	correct	congruent	Block1	congruent/STIM_020.jpg
974.235	0.726	correct	congruent	Block1	congruent/STIM_020.jpg
977.934	0.64	correct	congruent	Block1	congruent/STIM_021.jpg
982.124	0.808	correct	congruent	Block1	congruent/STIM_021.jpg
986.646	0.934	correct	congruent	Block1	congruent/STIM_021.jpg
990.835	0.817	correct	congruent	Block1	congruent/STIM_021.jpg
994.429	0.959	correct	congruent	Block1	congruent/STIM_021.jpg
999.206	0.603	correct	congruent	Block1	congruent/STIM_022.jpg
1001.959	0.599	correct	congruent	Block1	congruent/STIM_022.jpg
1004.77	0.626	correct	congruent	Block1	congruent/STIM_022.jpg
1008.529	0.664	correct	congruent	Block1	congruent/STIM_022.jpg
1012.525	0.786	correct	congruent	Block1	congruent/STIM_022.jpg
1016.426	0.663	correct	congruent	Block1	congruent/STIM_023.jpg
1019.2	0.889	correct	congruent	Block1	congruent/STIM_023.jpg
1023.887	0.938	correct	congruent	Block1	congruent/STIM_023.jpg
1027.73	0.725	correct	congruent	Block1	congruent/STIM_023.jpg
1032.02	0.816	correct	congruent	Block1	congruent/STIM_023.jpg
1036.474	0.889	correct	congruent	Block1	congruent/STIM_024.jpg
1040.233	0.745	correct	congruent	Block1	congruent/STIM_024.jpg
1044.269	0.579	correct	congruent	Block1	congruent/STIM_024.jpg
1048.79	0.806	correct	congruent	Block1	congruent/STIM_024.jpg
1051.769	0.698	correct	congruent	Block1	congruent/STIM_024.jpg
1055.377	0.683	correct	congruent	Block1	congruent/STIM_025.jpg
1059.168	0.769	correct	congruent	Block1	congruent/STIM_025.jpg
1063.467	0.777	correct	congruent	Block1	congruent/STIM_025.jpg
1066.352	0.689	correct	congruent	Block1	congruent/STIM_025.jpg
1069.547	0.76	correct	congruent	Block1	congruent/STIM_025.jpg
1072.596	0.795	correct	congruent	Block1	congruent/STIM_026.jpg
1077.158	0.951	correct	congruent	Block1	congruent/STIM_026.jpg
1080.585	0.718	correct	congruent	Block1	congruent/STIM_026.jpg
1084.638	0.63	correct	congruent	Block1	congruent/STIM_026.jpg
1087.804	0.76	correct	congruent	Block1	congruent/STIM_026.jpg
1091.057	0.73	correct	congruent	Block1	congruent/STIM_027.jpg
1094.759	0.873	correct	congruent	Block1	congruent/STIM_027.jpg
1098.476	0.62	correct	congruent	Block1	congruent/STIM_027.jpg
1102.797	0.545	correct	congruent	Block1	congruent/STIM_027.jpg
1106.827	0.926	correct	congruent	Block1	congruent/STIM_027.jpg
1110.171	0.676	correct	congruent	Block1	congruent/STIM_028.jpg
1113.364	0.756	correct	congruent	Block1	congruent/STIM_028.jpg
1117.469	0.748	correct	congruent	Block1	congruent/STIM_028.jpg
1120.712	0.758	correct	congruent	Block1	congruent/STIM_028.jpg
1124.963	0.939	correct	congruent	Block1	congruent/STIM_028.jpg
1128.655	0.94	correct	congruent	Block1	congruent/STIM_029.jpg
1131.623	0.706	correct	congruent	Block1	congruent/STIM_029.jpg
1135.375	0.536	correct	congruent	Block1	congruent/STIM_029.jpg
1139.7	0.609	correct	congruent	Block1	congruent/STIM_029.jpg
1143.404	0.68	correct	congruent	Block1	congruent/STIM_029.jpg
1146.103	1.326	incorrect	incongruent	Block2	incongruent/STIM_000.jpg
1149.617	0.748	correct	incongruent	Block2	incongruent/STIM_000.jpg
1153.239	0.789	correct	incongruent	Block2	incongruent/STIM_000.jpg
1157.083	0.745	correct	incongruent	Block2	incongruent/STIM_000.jpg
1160.919	0.729	correct	incongruent	Block2	incongruent/STIM_000.jpg
1163.9	1.076	correct	incongruent	Block2	incongruent/STIM_001.jpg
1167.653	0.772	correct	incongruent	Block2	incongruent/STIM_001.jpg
1172.313	0.797	correct	incongruent	Block2	incongruent/STIM_001.jpg
1176.124	0.537	correct	incongruent	Block2	incongruent/STIM_001.jpg
1180.526	0.581	correct	incongruent	Block2	incongruent/STIM_001.jpg
1183.852	1.222	correct	incongruent	Block2	incongruent/STIM_002.jpg
1187.665	0.844	correct	incongruent	Block2	incongruent/STIM_002.jpg
1190.599	1.02	correct	incongruent	Block2	incongruent/STIM_002.jpg
1193.581	1.076	correct	incongruent	Block2	incongruent/STIM_002.jpg
1196.807	0.694	correct	incongruent	Block2	incongruent/STIM_002.jpg
1200.427	0.76	correct	incongruent	Block2	incongruent/STIM_003.jpg
1204.54	1.16	correct	incongruent	Block2	incongruent/STIM_003.jpg
1209.551	0.571	incorrect	incongruent	Block2	incongruent/STIM_003.jpg
1213.827	0.765	correct	incongruent	Block2	incongruent/STIM_003.jpg
1217.861	0.733	correct	incongruent	Block2	incongruent/STIM_003.jpg
1221.862	0.889	correct	incongruent	Block2	incongruent/STIM_004.jpg
1226.58	1.01	correct	incongruent	Block2	incongruent/STIM_004.jpg
1230.736	1.064	incorrect	incongruent	Block2	incongruent/STIM_004.jpg
1235.622	1.005	correct	incongruent	Block2	incongruent/STIM_004.jpg
1240.183	0.726	correct	incongruent	Block2	incongruent/STIM_004.jpg
1243.795	0.885	correct	incongruent	Block2	incongruent/STIM_005.jpg
1248.158	1.218	correct	incongruent	Block2	incongruent/STIM_005.jpg
1252.578	0.642	correct	incongruent	Block2	incongruent/STIM_005.jpg
1256.285	0.785	correct	incongruent	Block2	incongruent/STIM_005.jpg
1259.795	1.07	correct	incongruent	Block2	incongruent/STIM_005.jpg
1263.424	0.794	correct	incongruent	Block2	incongruent/STIM_006.jpg
1267.127	0.803	correct	incongruent	Block2	incongruent/STIM_006.jpg
1270.083	0.739	correct	incongruent	Block2	incongruent/STIM_006.jpg
1274.194	0.53	correct	incongruent	Block2	incongruent/STIM_006.jpg
1277.862	1.017	correct	incongruent	Block2	incongruent/STIM_006.jpg
1281.725	0.669	incorrect	incongruent	Block2	incongruent/STIM_007.jpg
1285.587	1.188	correct	incongruent	Block2	incongruent/STIM_007.jpg
1289.869	1.169	correct	incongruent	Block2	incongruent/STIM_007.jpg
1293.922	0.811	correct	incongruent	Block2	incongruent/STIM_007.jpg
1298.361	0.721	correct	incongruent	Block2	incongruent/STIM_007.jpg
1303.033	0.925	correct	incongruent	Block2	incongruent/STIM_008.jpg
1306.448	1.205	correct	incongruent	Block2	incongruent/STIM_008.jpg
1309.745	0.835	correct	incongruent	Block2	incongruent/STIM_008.jpg
1313.421	0.608	correct	incongruent	Block2	incongruent/STIM_008.jpg
1316.398	0.919	correct	incongruent	Block2	incongruent/STIM_008.jpg
1319.679	0.993	correct	incongruent	Block2	incongruent/STIM_009.jpg
1323.087	1.171	correct	incongruent	Block2	incongruent/STIM_009.jpg
1326.353	0.711	correct	incongruent	Block2	incongruent/STIM_009.jpg
1330.303	0.999	correct	incongruent	Block2	incongruent/STIM_009.jpg
1334.84	0.611	correct	incongruent	Block2	incongruent/STIM_009.jpg
1337.482	1.06	correct	incongruent	Block2	incongruent/STIM_010.jpg
1340.992	0.714	correct	incongruent	Block2	incongruent/STIM_010.jpg
1343.752	0.612	correct	incongruent	Block2	incongruent/STIM_010.jpg
1346.809	1.092	correct	incongruent	Block2	incongruent/STIM_010.jpg
1349.948	0.849	correct	incongruent	Block2	incongruent/STIM_010.jpg
1353.721	1.312	correct	incongruent	Block2	incongruent/STIM_011.jpg
1358.513	1.242	correct	incongruent	Block2	incongruent/STIM_011.jpg
1363.456	0.835	correct	incongruent	Block2	incongruent/STIM_011.jpg
1366.251	0.613	incorrect	incongruent	Block2	incongruent/STIM_011.jpg
1369.007	0.771	correct	incongruent	Block2	incongruent/STIM_011.jpg
1371.962	0.727	correct	incongruent	Block2	incongruent/STIM_012.jpg
1376.363	1.052	correct	incongruent	Block2	incongruent/STIM_012.jpg
1380.276	1.086	correct	incongruent	Block2	incongruent/STIM_012.jpg
1384.413	0.893	correct	incongruent	Block2	incongruent/STIM_012.jpg
1388.25	0.526	correct	incongruent	Block2	incongruent/STIM_012.jpg
1391.228	1.188	correct	incongruent	Block2	incongruent/STIM_013.jpg
1395.114	0.875	correct	incongruent	Block2	incongruent/STIM_013.jpg
1398.387	0.723	correct	incongruent	Block2	incongruent/STIM_013.jpg
1401.619	0.989	correct	incongruent	Block2	incongruent/STIM_013.jpg
1404.887	0.672	correct	incongruent	Block2	incongruent/STIM_013.jpg
1407.544	0.751	correct	incongruent	Block2	incongruent/STIM_014.jpg
1410.322	1.093	correct	incongruent	Block2	incongruent/STIM_014.jpg
1415.279	1.117	correct	incongruent	Block2	incongruent/STIM_014.jpg
1419.476	0.592	correct	incongruent	Block2	incongruent/STIM_014.jpg
1423.883	0.558	correct	incongruent	Block2	incongruent/STIM_014.jpg
1428.281	0.855	correct	incongruent	Block2	incongruent/STIM_015.jpg
1431.184	0.852	correct	incongruent	Block2	incongruent/STIM_015.jpg
1434.495	0.655	correct	incongruent	Block2	incongruent/STIM_015.jpg
1437.989	0.986	correct	incongruent	Block2	incongruent/STIM_015.jpg
1441.118	0.728	correct	incongruent	Block2	incongruent/STIM_015.jpg
1444.888	1.073	correct	incongruent	Block2	incongruent/STIM_016.jpg
1448.857	0.856	correct	incongruent	Block2	incongruent/STIM_016.jpg
1452.977	0.64	correct	incongruent	Block2	incongruent/STIM_016.jpg
1457.289	1.084	correct	incongruent	Block2	incongruent/STIM_016.jpg
1461.443	0.597	correct	incongruent	Block2	incongruent/STIM_016.jpg
1464.624	1.187	correct	incongruent	Block2	incongruent/STIM_017.jpg
1468.626	1.118	correct	incongruent	Block2	incongruent/STIM_017.jpg
1471.878	1.102	correct	incongruent	Block2	incongruent/STIM_017.jpg
1476.87	1.119	correct	incongruent	Block2	incongruent/STIM_017.jpg
1480.802	1.037	correct	incongruent	Block2	incongruent/STIM_017.jpg
1484.058	0.837	correct	incongruent	Block2	incongruent/STIM_018.jpg
1487.194	0.747	correct	incongruent	Block2	incongruent/STIM_018.jpg
1491.481	1.164	correct	incongruent	Block2	incongruent/STIM_018.jpg
1495.9	1.098	correct	incongruent	Block2	incongruent/STIM_018.jpg
1500.758	0.954	correct	incongruent	Block2	incongruent/STIM_018.jpg
1504.171	0.791	correct	incongruent	Block2	incongruent/STIM_019.jpg
1507.613	0.632	correct	incongruent	Block2	incongruent/STIM_019.jpg
1511.261	1.188	correct	incongruent	Block2	incongruent/STIM_019.jpg
1514.438	0.54	correct	incongruent	Block2	incongruent/STIM_019.jpg
1517.756	0.532	correct	incongruent	Block2	incongruent/STIM_019.jpg
1522.007	1.163	correct	incongruent	Block2	incongruent/STIM_020.jpg
1526.603	1.195	correct	incongruent	Block2	incongruent/STIM_020.jpg
1531.0	1.137	correct	incongruent	Block2	incongruent/STIM_020.jpg
1535.82	0.608	correct	incongruent	Block2	incongruent/STIM_020.jpg
1539.241	0.821	correct	incongruent	Block2	incongruent/STIM_020.jpg
1542.829	1.051	correct	incongruent	Block2	incongruent/STIM_021.jpg
1546.297	1.111	correct	incongruent	Block2	incongruent/STIM_021.jpg
1551.062	1.1	correct	incongruent	Block2	incongruent/STIM_021.jpg
1555.135	1.064	correct	incongruent	Block2	incongruent/STIM_021.jpg
1559.095	1.022	correct	incongruent	Block2	incongruent/STIM_021.jpg
1562.778	0.774	correct	incongruent	Block2	incongruent/STIM_022.jpg
1565.919	0.938	correct	incongruent	Block2	incongruent/STIM_022.jpg
1569.915	1.118	correct	incongruent	Block2	incongruent/STIM_022.jpg
1574.321	0.672	correct	incongruent	Block2	incongruent/STIM_022.jpg
1578.3	0.756	correct	incongruent	Block2	incongruent/STIM_022.jpg
1582.026	1.089	correct	incongruent	Block2	incongruent/STIM_023.jpg
1586.616	0.838	correct	incongruent	Block2	incongruent/STIM_023.jpg
1590.158	0.713	correct	incongruent	Block2	incongruent/STIM_023.jpg
1594.243	0.788	correct	incongruent	Block2	incongruent/STIM_023.jpg
1597.643	0.822	correct	incongruent	Block2	incongruent/STIM_023.jpg
1600.447	0.999	correct	incongruent	Block2	incongruent/STIM_024.jpg
1605.134	0.849	correct	incongruent	Block2	incongruent/STIM_024.jpg
1607.992	0.818	correct	incongruent	Block2	incongruent/STIM_024.jpg
1611.734	0.536	correct	incongruent	Block2	incongruent/STIM_024.jpg
1616.055	1.093	correct	incongruent	Block2	incongruent/STIM_024.jpg
1620.843	1.02	correct	incongruent	Block2	incongruent/STIM_025.jpg
1625.678	0.901	correct	incongruent	Block2	incongruent/STIM_025.jpg
1630.427	0.849	correct	incongruent	Block2	incongruent/STIM_025.jpg
1634.032	0.955	correct	incongruent	Block2	incongruent/STIM_025.jpg
1637.097	1.027	correct	incongruent	Block2	incongruent/STIM_025.jpg
1641.22	0.706	correct	incongruent	Block2	incongruent/STIM_026.jpg
1644.94	0.906	correct	incongruent	Block2	incongruent/STIM_026.jpg
1648.062	0.737	correct	incongruent	Block2	incongruent/STIM_026.jpg
1651.918	0.836	correct	incongruent	Block2	incongruent/STIM_026.jpg
1655.713	1.009	correct	incongruent	Block2	incongruent/STIM_026.jpg
1659.277	1.039	correct	incongruent	Block2	incongruent/STIM_027.jpg
1664.21	0.598	correct	incongruent	Block2	incongruent/STIM_027.jpg
1667.19	1.007	correct	incongruent	Block2	incongruent/STIM_027.jpg
1671.971	0.807	correct	incongruent	Block2	incongruent/STIM_027.jpg
1675.915	0.538	correct	incongruent	Block2	incongruent/STIM_027.jpg
1678.735	1.024	correct	incongruent	Block2	incongruent/STIM_028.jpg
1681.774	0.995	correct	incongruent	Block2	incongruent/STIM_028.jpg
1685.677	1.148	correct	incongruent	Block2	incongruent/STIM_028.jpg
1689.608	0.863	correct	incongruent	Block2	incongruent/STIM_028.jpg
1693.717	0.951	correct	incongruent	Block2	incongruent/STIM_028.jpg
1697.814	1.012	correct	incongruent	Block2	incongruent/STIM_029.jpg
1702.312	1.234	correct	incongruent	Block2	incongruent/STIM_029.jpg
1707.439	0.943	correct	incongruent	Block2	incongruent/STIM_029.jpg
1711.566	0.926	correct	incongruent	Block2	incongruent/STIM_029.jpg
1716.187	0.94	correct	incongruent	Block2	incongruent/STIM_029.jpg
1719.182	0.812	correct	congruent	Block2	congruent/STIM_000.jpg
1722.625	0.721	correct	congruent	Block2	congruent/STIM_000.jpg
1725.735	0.779	correct	congruent	Block2	congruent/STIM_000.jpg
1728.492	0.739	correct	congruent	Block2	congruent/STIM_000.jpg
1732.122	0.615	correct	congruent	Block2	congruent/STIM_000.jpg
1735.16	0.834	correct	congruent	Block2	congruent/STIM_001.jpg
1739.095	0.721	correct	congruent	Block2	congruent/STIM_001.jpg
1742.336	0.783	correct	congruent	Block2	congruent/STIM_001.jpg
1746.362	0.888	correct	congruent	Block2	congruent/STIM_001.jpg
1749.743	0.677	correct	congruent	Block2	congruent/STIM_001.jpg
1753.205	0.582	correct	congruent	Block2	congruent/STIM_002.jpg
1757.311	0.857	correct	congruent	Block2	congruent/STIM_002.jpg
1760.812	0.765	correct	congruent	Block2	congruent/STIM_002.jpg
1764.737	0.668	correct	congruent	Block2	congruent/STIM_002.jpg
1768.93	0.551	correct	congruent	Block2	congruent/STIM_002.jpg
1771.65	0.651	incorrect	congruent	Block2	congruent/STIM_003.jpg
1776.162	0.931	correct	congruent	Block2	congruent/STIM_003.jpg
1781.007	0.652	correct	congruent	Block2	congruent/STIM_003.jpg
1784.791	0.814	correct	congruent	Block2	congruent/STIM_003.jpg
1788.491	0.711	correct	congruent	Block2	congruent/STIM_003.jpg
1793.044	0.958	correct	congruent	Block2	congruent/STIM_004.jpg
1797.885	0.748	correct	congruent	Block2	congruent/STIM_004.jpg
1802.106	0.764	correct	congruent	Block2	congruent/STIM_004.jpg
1806.072	0.875	correct	congruent	Block2	congruent/STIM_004.jpg
1808.976	0.635	correct	congruent	Block2	congruent/STIM_004.jpg
1812.192	0.731	correct	congruent	Block2	congruent/STIM_005.jpg
1815.32	0.856	correct	congruent	Block2	congruent/STIM_005.jpg
1819.73	0.658	correct	congruent	Block2	congruent/STIM_005.jpg
1822.995	0.602	correct	congruent	Block2	congruent/STIM_005.jpg
1827.176	0.541	correct	congruent	Block2	congruent/STIM_005.jpg
1830.517	0.835	correct	congruent	Block2	congruent/STIM_006.jpg
1834.931	0.819	correct	congruent	Block2	congruent/STIM_006.jpg
1838.928	0.746	incorrect	congruent	Block2	congruent/STIM_006.jpg
1841.63	0.892	correct	congruent	Block2	congruent/STIM_006.jpg
1845.213	0.735	correct	congruent	Block2	congruent/STIM_006.jpg
1849.029	0.905	correct	congruent	Block2	congruent/STIM_007.jpg
1852.595	0.687	correct	congruent	Block2	congruent/STIM_007.jpg
1856.092	0.761	correct	congruent	Block2	congruent/STIM_007.jpg
1858.999	0.953	correct	congruent	Block2	congruent/STIM_007.jpg
1863.108	0.73	correct	congruent	Block2	congruent/STIM_007.jpg
1866.842	0.8	correct	congruent	Block2	congruent/STIM_008.jpg
1870.577	0.626	correct	congruent	Block2	congruent/STIM_008.jpg
1874.33	0.913	correct	congruent	Block2	congruent/STIM_008.jpg
1878.658	0.564	incorrect	congruent	Block2	congruent/STIM_008.jpg
1881.899	0.574	correct	congruent	Block2	congruent/STIM_008.jpg
1886.303	0.931	correct	congruent	Block2	congruent/STIM_009.jpg
1889.945	0.85	correct	congruent	Block2	congruent/STIM_009.jpg
1893.171	0.751	correct	congruent	Block2	congruent/STIM_009.jpg
1896.533	0.893	correct	congruent	Block2	congruent/STIM_009.jpg
1900.3	0.952	correct	congruent	Block2	congruent/STIM_009.jpg
1905.1	0.801	incorrect	congruent	Block2	congruent/STIM_010.jpg
1908.601	0.952	correct	congruent	Block2	congruent/STIM_010.jpg
1911.852	0.828	correct	congruent	Block2	congruent/STIM_010.jpg
1915.858	0.823	correct	congruent	Block2	congruent/STIM_010.jpg
1919.113	0.945	correct	congruent	Block2	congruent/STIM_010.jpg
1923.666	0.731	correct	congruent	Block2	congruent/STIM_011.jpg
1927.842	0.95	correct	congruent	Block2	congruent/STIM_011.jpg
1931.158	0.592	correct	congruent	Block2	congruent/STIM_011.jpg
1933.893	0.954	correct	congruent	Block2	congruent/STIM_011.jpg
1937.496	0.695	correct	congruent	Block2	congruent/STIM_011.jpg
1942.111	0.598	correct	congruent	Block2	congruent/STIM_012.jpg
1945.014	0.662	correct	congruent	Block2	congruent/STIM_012.jpg
1948.834	0.86	correct	congruent	Block2	congruent/STIM_012.jpg
1953.083	0.625	correct	congruent	Block2	congruent/STIM_012.jpg
1956.351	0.934	correct	congruent	Block2	congruent/STIM_012.jpg
1960.909	0.93	correct	congruent	Block2	congruent/STIM_013.jpg
1964.843	0.676	correct	congruent	Block2	congruent/STIM_013.jpg
1967.569	0.949	correct	congruent	Block2	congruent/STIM_013.jpg
1970.572	0.873	correct	congruent	Block2	congruent/STIM_013.jpg
1974.66	0.739	correct	congruent	Block2	congruent/STIM_013.jpg
1977.838	0.637	correct	congruent	Block2	congruent/STIM_014.jpg
1981.94	0.851	correct	congruent	Block2	congruent/STIM_014.jpg
1986.085	0.769	correct	congruent	Block2	congruent/STIM_014.jpg
1990.738	0.586	correct	congruent	Block2	congruent/STIM_014.jpg
1993.986	0.685	correct	congruent	Block2	congruent/STIM_014.jpg
1998.069	0.564	correct	congruent	Block2	congruent/STIM_015.jpg
2001.924	0.887	correct	congruent	Block2	congruent/STIM_015.jpg
2006.711	0.914	correct	congruent	Block2	congruent/STIM_015.jpg
2010.316	0.691	correct	congruent	Block2	congruent/STIM_015.jpg
2014.084	0.724	correct	congruent	Block2	congruent/STIM_015.jpg
2017.74	0.567	correct	congruent	Block2	congruent/STIM_016.jpg
2020.833	0.875	correct	congruent	Block2	congruent/STIM_016.jpg
2024.677	0.729	incorrect	congruent	Block2	congruent/STIM_016.jpg
2028.266	0.955	correct	congruent	Block2	congruent/STIM_016.jpg
2032.51	0.725	incorrect	congruent	Block2	congruent/STIM_016.jpg
2036.659	0.558	correct	congruent	Block2	congruent/STIM_017.jpg
2040.61	0.886	correct	congruent	Block2	congruent/STIM_017.jpg
2044.469	0.842	correct	congruent	Block2	congruent/STIM_017.jpg
2047.381	0.584	correct	congruent	Block2	congruent/STIM_017.jpg
2051.714	0.816	correct	congruent	Block2	congruent/STIM_017.jpg
2056.32	0.693	correct	congruent	Block2	congruent/STIM_018.jpg
2059.181	0.769	correct	congruent	Block2	congruent/STIM_018.jpg
2063.397	0.856	correct	congruent	Block2	congruent/STIM_018.jpg
2067.083	0.613	correct	congruent	Block2	congruent/STIM_018.jpg
2071.482	0.91	correct	congruent	Block2	congruent/STIM_018.jpg
2075.913	0.58	correct	congruent	Block2	congruent/STIM_019.jpg
2080.037	0.622	correct	congruent	Block2	congruent/STIM_019.jpg
2084.518	0.799	correct	congruent	Block2	congruent/STIM_019.jpg
2089.117	0.744	correct	congruent	Block2	congruent/STIM_019.jpg
2092.762	0.925	correct	congruent	Block2	congruent/STIM_019.jpg
2096.853	0.806	correct	congruent	Block2	congruent/STIM_020.jpg
2099.72	0.675	correct	congruent	Block2	congruent/STIM_020.jpg
2102.508	0.785	correct	congruent	Block2	congruent/STIM_020.jpg
2107.055	0.907	correct	congruent	Block2	congruent/STIM_020.jpg
2110.025	0.581	correct	congruent	Block2	congruent/STIM_020.jpg
2114.508	0.709	correct	congruent	Block2	congruent/STIM_021.jpg
2117.806	0.749	correct	congruent	Block2	congruent/STIM_021.jpg
2122.111	0.63	correct	congruent	Block2	congruent/STIM_021.jpg
2125.883	0.732	correct	congruent	Block2	congruent/STIM_021.jpg
2130.165	0.744	correct	congruent	Block2	congruent/STIM_021.jpg
2133.852	0.885	correct	congruent	Block2	congruent/STIM_022.jpg
2138.386	0.618	correct	congruent	Block2	congruent/STIM_022.jpg
2142.333	0.543	correct	congruent	Block2	congruent/STIM_022.jpg
2146.657	0.873	correct	congruent	Block2	congruent/STIM_022.jpg
2151.431	0.602	correct	congruent	Block2	congruent/STIM_022.jpg
2154.145	0.83	correct	congruent	Block2	congruent/STIM_023.jpg
2157.182	0.747	correct	congruent	Block2	congruent/STIM_023.jpg
2161.727	0.634	correct	congruent	Block2	congruent/STIM_023.jpg
2165.428	0.868	correct	congruent	Block2	congruent/STIM_023.jpg
2168.97	0.779	correct	congruent	Block2	congruent/STIM_023.jpg
2171.718	0.738	correct	congruent	Block2	congruent/STIM_024.jpg
2175.86	0.783	correct	congruent	Block2	congruent/STIM_024.jpg
2178.935	0.734	correct	congruent	Block2	congruent/STIM_024.jpg
2182.504	0.677	correct	congruent	Block2	congruent/STIM_024.jpg
2185.21	0.765	correct	congruent	Block2	congruent/STIM_024.jpg
2188.124	0.71	correct	congruent	Block2	congruent/STIM_025.jpg
2191.774	0.661	correct	congruent	Block2	congruent/STIM_025.jpg
2195.436	0.704	correct	congruent	Block2	congruent/STIM_025.jpg
2198.625	0.555	correct	congruent	Block2	congruent/STIM_025.jpg
2202.356	0.582	correct	congruent	Block2	congruent/STIM_025.jpg
2205.487	0.704	correct	congruent	Block2	congruent/STIM_026.jpg
2208.489	0.836	correct	congruent	Block2	congruent/STIM_026.jpg
2211.536	0.634	correct	congruent	Block2	congruent/STIM_026.jpg
2215.738	0.69	correct	congruent	Block2	congruent/STIM_026.jpg
2219.804	0.873	correct	congruent	Block2	congruent/STIM_026.jpg
2222.921	0.826	correct	congruent	Block2	congruent/STIM_027.jpg
2227.542	0.768	correct	congruent	Block2	congruent/STIM_027.jpg
2230.922	0.695	correct	congruent	Block2	congruent/STIM_027.jpg
2233.797	0.702	correct	congruent	Block2	congruent/STIM_027.jpg
2237.765	0.806	correct	congruent	Block2	congruent/STIM_027.jpg
2241.899	0.755	correct	congruent	Block2	congruent/STIM_028.jpg
2246.25	0.809	correct	congruent	Block2	congruent/STIM_028.jpg
2250.297	0.864	correct	congruent	Block2	congruent/STIM_028.jpg
2255.036	0.799	correct	congruent	Block2	congruent/STIM_028.jpg
2258.361	0.825	correct	congruent	Block2	congruent/STIM_028.jpg
2262.169	0.747	correct	congruent	Block2	congruent/STIM_029.jpg
2264.874	0.674	correct	congruent	Block2	congruent/STIM_029.jpg
2269.177	0.721	correct	congruent	Block2	congruent/STIM_029.jpg
2271.948	0.665	correct	congruent	Block2	congruent/STIM_029.jpg
2275.189	0.83	correct	congruent	Block2	congruent/STIM_029.jpg
2278.793	0.799	correct	incongruent	Block3	incongruent/STIM_000.jpg
2282.413	0.694	correct	incongruent	Block3	incongruent/STIM_000.jpg
2285.945	0.917	correct	incongruent	Block3	incongruent/STIM_000.jpg
2289.981	0.8	correct	incongruent	Block3	incongruent/STIM_000.jpg
2294.285	1.115	correct	incongruent	Block3	incongruent/STIM_000.jpg
2297.558	0.656	correct	incongruent	Block3	incongruent/STIM_001.jpg
2300.934	0.56	correct	incongruent	Block3	incongruent/STIM_001.jpg
2305.211	0.787	correct	incongruent	Block3	incongruent/STIM_001.jpg
2309.52	0.616	correct	incongruent	Block3	incongruent/STIM_001.jpg
2312.168	1.012	correct	incongruent	Block3	incongruent/STIM_001.jpg
2316.276	0.844	correct	incongruent	Block3	incongruent/STIM_002.jpg
2319.963	1.062	correct	incongruent	Block3	incongruent/STIM_002.jpg
2323.036	0.898	correct	incongruent	Block3	incongruent/STIM_002.jpg
2326.703	0.629	correct	incongruent	Block3	incongruent/STIM_002.jpg
2331.077	0.994	correct	incongruent	Block3	incongruent/STIM_002.jpg
2335.274	1.111	correct	incongruent	Block3	incongruent/STIM_003.jpg
2340.074	0.827	correct	incongruent	Block3	incongruent/STIM_003.jpg
2343.82	0.983	correct	incongruent	Block3	incongruent/STIM_003.jpg
2348.717	0.98	correct	incongruent	Block3	incongruent/STIM_003.jpg
2352.528	0.687	correct	incongruent	Block3	incongruent/STIM_003.jpg
2355.266	0.925	correct	incongruent	Block3	incongruent/STIM_004.jpg
2359.934	0.946	correct	incongruent	Block3	incongruent/STIM_004.jpg
2364.195	1.036	correct	incongruent	Block3	incongruent/STIM_004.jpg
2368.112	0.966	correct	incongruent	Block3	incongruent/STIM_004.jpg
2371.529	0.959	correct	incongruent	Block3	incongruent/STIM_004.jpg
2375.407	1.023	correct	incongruent	Block3	incongruent/STIM_005.jpg
2378.687	1.11	correct	incongruent	Block3	incongruent/STIM_005.jpg
2383.302	1.071	correct	incongruent	Block3	incongruent/STIM_005.jpg
2387.284	1.073	correct	incongruent	Block3	incongruent/STIM_005.jpg
2391.235	0.914	correct	incongruent	Block3	incongruent/STIM_005.jpg
2395.105	1.007	correct	incongruent	Block3	incongruent/STIM_006.jpg
2398.306	1.069	correct	incongruent	Block3	incongruent/STIM_006.jpg
2402.251	1.112	correct	incongruent	Block3	incongruent/STIM_006.jpg
2406.819	0.93	correct	incongruent	Block3	incongruent/STIM_006.jpg
2410.884	0.704	correct	incongruent	Block3	incongruent/STIM_006.jpg
2415.259	0.665	correct	incongruent	Block3	incongruent/STIM_007.jpg
2419.452	0.936	correct	incongruent	Block3	incongruent/STIM_007.jpg
2424.06	0.79	correct	incongruent	Block3	incongruent/STIM_007.jpg
2428.557	0.885	correct	incongruent	Block3	incongruent/STIM_007.jpg
2432.025	0.961	correct	incongruent	Block3	incongruent/STIM_007.jpg
2436.736	1.01	correct	incongruent	Block3	incongruent/STIM_008.jpg
2440.873	0.724	correct	incongruent	Block3	incongruent/STIM_008.jpg
2444.71	0.76	correct	incongruent	Block3	incongruent/STIM_008.jpg
2448.071	0.844	correct	incongruent	Block3	incongruent/STIM_008.jpg
2451.061	0.91	correct	incongruent	Block3	incongruent/STIM_008.jpg
2454.904	0.586	correct	incongruent	Block3	incongruent/STIM_009.jpg
2457.709	0.701	correct	incongruent	Block3	incongruent/STIM_009.jpg
2460.646	0.994	correct	incongruent	Block3	incongruent/STIM_009.jpg
2464.313	0.665	correct	incongruent	Block3	incongruent/STIM_009.jpg
2467.634	1.006	correct	incongruent	Block3	incongruent/STIM_009.jpg
2472.498	0.916	correct	incongruent	Block3	incongruent/STIM_010.jpg
2476.388	0.801	correct	incongruent	Block3	incongruent/STIM_010.jpg
2479.825	1.041	correct	incongruent	Block3	incongruent/STIM_010.jpg
2484.442	0.948	correct	incongruent	Block3	incongruent/STIM_010.jpg
2489.235	0.924	correct	incongruent	Block3	incongruent/STIM_010.jpg
2492.666	0.793	correct	incongruent	Block3	incongruent/STIM_011.jpg
2496.643	0.966	correct	incongruent	Block3	incongruent/STIM_011.jpg
2499.747	1.087	correct	incongruent	Block3	incongruent/STIM_011.jpg
2503.757	0.645	correct	incongruent	Block3	incongruent/STIM_011.jpg
2507.347	0.814	correct	incongruent	Block3	incongruent/STIM_011.jpg
2510.718	0.945	correct	incongruent	Block3	incongruent/STIM_012.jpg
2515.562	0.994	correct	incongruent	Block3	incongruent/STIM_012.jpg
2518.593	0.82	correct	incongruent	Block3	incongruent/STIM_012.jpg
2522.366	0.863	correct	incongruent	Block3	incongruent/STIM_012.jpg
2525.787	1.018	correct	incongruent	Block3	incongruent/STIM_012.jpg
2529.891	0.623	correct	incongruent	Block3	incongruent/STIM_013.jpg
2534.262	0.911	correct	incongruent	Block3	incongruent/STIM_013.jpg
2537.984	0.55	correct	incongruent	Block3	incongruent/STIM_013.jpg
2540.896	1.007	correct	incongruent	Block3	incongruent/STIM_013.jpg
2543.934	1.012	correct	incongruent	Block3	incongruent/STIM_013.jpg
2548.695	1.056	correct	incongruent	Block3	incongruent/STIM_014.jpg
2552.595	0.681	correct	incongruent	Block3	incongruent/STIM_014.jpg
2556.352	0.815	correct	incongruent	Block3	incongruent/STIM_014.jpg
2560.984	1.067	incorrect	incongruent	Block3	incongruent/STIM_014.jpg
2564.432	1.03	correct	incongruent	Block3	incongruent/STIM_014.jpg
2568.959	0.719	correct	incongruent	Block3	incongruent/STIM_015.jpg
2572.958	0.894	correct	incongruent	Block3	incongruent/STIM_015.jpg
2576.586	0.956	correct	incongruent	Block3	incongruent/STIM_015.jpg
2580.746	0.682	correct	incongruent	Block3	incongruent/STIM_015.jpg
2584.674	0.834	correct	incongruent	Block3	incongruent/STIM_015.jpg
2588.954	0.876	correct	incongruent	Block3	incongruent/STIM_016.jpg
2592.62	0.968	correct	incongruent	Block3	incongruent/STIM_016.jpg
2596.354	0.995	correct	incongruent	Block3	incongruent/STIM_016.jpg
2599.633	0.754	correct	incongruent	Block3	incongruent/STIM_016.jpg
2602.682	0.797	correct	incongruent	Block3	incongruent/STIM_016.jpg
2607.357	0.53	correct	incongruent	Block3	incongruent/STIM_017.jpg
2611.218	0.879	correct	incongruent	Block3	incongruent/STIM_017.jpg
2614.161	0.55	correct	incongruent	Block3	incongruent/STIM_017.jpg
2617.436	0.753	correct	incongruent	Block3	incongruent/STIM_017.jpg
2621.739	0.77	correct	incongruent	Block3	incongruent/STIM_017.jpg
2625.088	1.114	correct	incongruent	Block3	incongruent/STIM_018.jpg
2628.138	0.656	correct	incongruent	Block3	incongruent/STIM_018.jpg
2631.669	1.017	correct	incongruent	Block3	incongruent/STIM_018.jpg
2636.282	0.594	correct	incongruent	Block3	incongruent/STIM_018.jpg
2640.723	0.91	correct	incongruent	Block3	incongruent/STIM_018.jpg
2645.514	0.692	correct	incongruent	Block3	incongruent/STIM_019.jpg
2649.035	1.018	correct	incongruent	Block3	incongruent/STIM_019.jpg
2652.938	0.915	correct	incongruent	Block3	incongruent/STIM_019.jpg
2657.344	0.962	correct	incongruent	Block3	incongruent/STIM_019.jpg
2660.388	0.909	correct	incongruent	Block3	incongruent/STIM_019.jpg
2665.192	0.975	correct	incongruent	Block3	incongruent/STIM_020.jpg
2670.026	1.105	correct	incongruent	Block3	incongruent/STIM_020.jpg
2673.346	0.867	incorrect	incongruent	Block3	incongruent/STIM_020.jpg
2676.256	0.69	correct	incongruent	Block3	incongruent/STIM_020.jpg
2680.5	0.571	correct	incongruent	Block3	incongruent/STIM_020.jpg
2683.194	0.916	correct	incongruent	Block3	incongruent/STIM_021.jpg
2686.307	0.739	correct	incongruent	Block3	incongruent/STIM_021.jpg
2690.012	0.687	correct	incongruent	Block3	incongruent/STIM_021.jpg
2694.526	0.881	correct	incongruent	Block3	incongruent/STIM_021.jpg
2697.942	0.651	correct	incongruent	Block3	incongruent/STIM_021.jpg
2701.545	0.577	correct	incongruent	Block3	incongruent/STIM_022.jpg
2705.46	0.907	correct	incongruent	Block3	incongruent/STIM_022.jpg
2710.258	0.934	correct	incongruent	Block3	incongruent/STIM_022.jpg
2714.959	0.541	correct	incongruent	Block3	incongruent/STIM_022.jpg
2717.892	0.797	correct	incongruent	Block3	incongruent/STIM_022.jpg
2721.765	0.951	correct	incongruent	Block3	incongruent/STIM_023.jpg
2725.979	0.846	correct	incongruent	Block3	incongruent/STIM_023.jpg
2730.128	0.682	correct	incongruent	Block3	incongruent/STIM_023.jpg
2734.358	0.767	correct	incongruent	Block3	incongruent/STIM_023.jpg
2737.748	0.595	correct	incongruent	Block3	incongruent/STIM_023.jpg
2741.41	0.673	correct	incongruent	Block3	incongruent/STIM_024.jpg
2744.647	0.933	correct	incongruent	Block3	incongruent/STIM_024.jpg
2749.501	0.678	correct	incongruent	Block3	incongruent/STIM_024.jpg
2752.674	0.942	correct	incongruent	Block3	incongruent/STIM_024.jpg
2755.644	0.67	correct	incongruent	Block3	incongruent/STIM_024.jpg
2759.315	0.566	correct	incongruent	Block3	incongruent/STIM_025.jpg
2763.748	0.773	correct	incongruent	Block3	incongruent/STIM_025.jpg
2768.007	0.871	correct	incongruent	Block3	incongruent/STIM_025.jpg
2771.587	0.978	correct	incongruent	Block3	incongruent/STIM_025.jpg
2775.428	1.09	correct	incongruent	Block3	incongruent/STIM_025.jpg
2779.296	0.875	correct	incongruent	Block3	incongruent/STIM_026.jpg
2783.286	0.93	correct	incongruent	Block3	incongruent/STIM_026.jpg
2787.678	0.634	correct	incongruent	Block3	incongruent/STIM_026.jpg
2792.223	0.989	correct	incongruent	Block3	incongruent/STIM_026.jpg
2796.551	1.032	correct	incongruent	Block3	incongruent/STIM_026.jpg
2799.674	0.732	correct	incongruent	Block3	incongruent/STIM_027.jpg
2802.789	0.946	correct	incongruent	Block3	incongruent/STIM_027.jpg
2805.891	0.852	correct	incongruent	Block3	incongruent/STIM_027.jpg
2809.335	0.811	correct	incongruent	Block3	incongruent/STIM_027.jpg
2812.932	0.989	correct	incongruent	Block3	incongruent/STIM_027.jpg
2816.014	0.783	correct	incongruent	Block3	incongruent/STIM_028.jpg
2819.724	0.524	correct	incongruent	Block3	incongruent/STIM_028.jpg
2823.529	0.814	incorrect	incongruent	Block3	incongruent/STIM_028.jpg
2827.897	0.563	correct	incongruent	Block3	incongruent/STIM_028.jpg
2831.991	0.588	correct	incongruent	Block3	incongruent/STIM_028.jpg
2834.725	0.64	correct	incongruent	Block3	incongruent/STIM_029.jpg
2838.861	0.915	correct	incongruent	Block3	incongruent/STIM_029.jpg
2843.272	0.937	correct	incongruent	Block3	incongruent/STIM_029.jpg
2846.925	1.044	correct	incongruent	Block3	incongruent/STIM_029.jpg
2851.178	0.539	correct	incongruent	Block3	incongruent/STIM_029.jpg
2855.683	0.804	correct	congruent	Block3	congruent/STIM_000.jpg
2858.925	0.702	correct	congruent	Block3	congruent/STIM_000.jpg
2861.93	0.72	correct	congruent	Block3	congruent/STIM_000.jpg
2865.513	0.618	correct	congruent	Block3	congruent/STIM_000.jpg
2868.681	0.696	correct	congruent	Block3	congruent/STIM_000.jpg
2871.867	0.835	correct	congruent	Block3	congruent/STIM_001.jpg
2876.398	0.695	incorrect	congruent	Block3	congruent/STIM_001.jpg
2879.966	0.825	correct	congruent	Block3	congruent/STIM_001.jpg
2883.35	0.942	correct	congruent	Block3	congruent/STIM_001.jpg
2887.26	0.593	correct	congruent	Block3	congruent/STIM_001.jpg
2889.83	0.577	correct	congruent	Block3	congruent/STIM_002.jpg
2892.758	0.633	correct	congruent	Block3	congruent/STIM_002.jpg
2897.03	0.549	correct	congruent	Block3	congruent/STIM_002.jpg
2899.739	0.662	correct	congruent	Block3	congruent/STIM_002.jpg
2902.653	0.82	correct	congruent	Block3	congruent/STIM_002.jpg
2907.083	0.749	correct	congruent	Block3	congruent/STIM_003.jpg
2910.41	0.618	correct	congruent	Block3	congruent/STIM_003.jpg
2914.123	0.672	correct	congruent	Block3	congruent/STIM_003.jpg
2917.389	0.62	correct	congruent	Block3	congruent/STIM_003.jpg
2921.568	0.876	incorrect	congruent	Block3	congruent/STIM_003.jpg
2924.59	0.846	correct	congruent	Block3	congruent/STIM_004.jpg
2927.82	0.937	correct	congruent	Block3	congruent/STIM_004.jpg
2930.817	0.547	correct	congruent	Block3	congruent/STIM_004.jpg
2934.488	0.559	correct	congruent	Block3	congruent/STIM_004.jpg
2938.368	0.551	correct	congruent	Block3	congruent/STIM_004.jpg
2940.923	0.786	correct	congruent	Block3	congruent/STIM_005.jpg
2945.537	0.743	correct	congruent	Block3	congruent/STIM_005.jpg
2950.142	0.628	correct	congruent	Block3	congruent/STIM_005.jpg
2952.947	0.9	correct	congruent	Block3	congruent/STIM_005.jpg
2956.109	0.856	incorrect	congruent	Block3	congruent/STIM_005.jpg
2959.567	0.819	correct	congruent	Block3	congruent/STIM_006.jpg
2963.25	0.789	correct	congruent	Block3	congruent/STIM_006.jpg
2966.98	0.602	correct	congruent	Block3	congruent/STIM_006.jpg
2970.023	0.633	correct	congruent	Block3	congruent/STIM_006.jpg
2973.056	0.708	correct	congruent	Block3	congruent/STIM_006.jpg
2975.905	0.536	correct	congruent	Block3	congruent/STIM_007.jpg
2979.267	0.566	correct	congruent	Block3	congruent/STIM_007.jpg
2983.469	0.835	correct	congruent	Block3	congruent/STIM_007.jpg
2986.573	0.646	correct	congruent	Block3	congruent/STIM_007.jpg
2990.454	0.636	correct	congruent	Block3	congruent/STIM_007.jpg
2994.656	0.877	correct	congruent	Block3	congruent/STIM_008.jpg
2999.344	0.879	correct	congruent	Block3	congruent/STIM_008.jpg
3003.605	0.842	correct	congruent	Block3	congruent/STIM_008.jpg
3007.72	0.776	correct	congruent	Block3	congruent/STIM_008.jpg
3010.813	0.718	correct	congruent	Block3	congruent/STIM_008.jpg
3014.999	0.56	correct	congruent	Block3	congruent/STIM_009.jpg
3017.668	0.589	correct	congruent	Block3	congruent/STIM_009.jpg
3020.591	0.954	correct	congruent	Block3	congruent/STIM_009.jpg
3025.35	0.832	correct	congruent	Block3	congruent/STIM_009.jpg
3029.711	0.943	correct	congruent	Block3	congruent/STIM_009.jpg
3033.63	0.841	correct	congruent	Block3	congruent/STIM_010.jpg
3037.699	0.7	correct	congruent	Block3	congruent/STIM_010.jpg
3041.795	0.784	correct	congruent	Block3	congruent/STIM_010.jpg
3046.0	0.957	correct	congruent	Block3	congruent/STIM_010.jpg
3049.79	0.648	correct	congruent	Block3	congruent/STIM_010.jpg
3053.434	0.626	correct	congruent	Block3	congruent/STIM_011.jpg
3057.493	0.921	correct	congruent	Block3	congruent/STIM_011.jpg
3062.188	0.655	correct	congruent	Block3	congruent/STIM_011.jpg
3065.99	0.568	incorrect	congruent	Block3	congruent/STIM_011.jpg
3068.758	0.825	correct	congruent	Block3	congruent/STIM_011.jpg
3072.898	0.684	correct	congruent	Block3	congruent/STIM_012.jpg
3076.659	0.665	correct	congruent	Block3	congruent/STIM_012.jpg
3079.95	0.813	correct	congruent	Block3	congruent/STIM_012.jpg
3084.157	0.851	correct	congruent	Block3	congruent/STIM_012.jpg
3087.032	0.892	correct	congruent	Block3	congruent/STIM_012.jpg
3090.944	0.928	correct	congruent	Block3	congruent/STIM_013.jpg
3094.09	0.869	correct	congruent	Block3	congruent/STIM_013.jpg
3098.772	0.716	correct	congruent	Block3	congruent/STIM_013.jpg
3103.158	0.848	correct	congruent	Block3	congruent/STIM_013.jpg
3106.077	0.953	correct	congruent	Block3	congruent/STIM_013.jpg
3109.498	0.791	correct	congruent	Block3	congruent/STIM_014.jpg
3113.062	0.732	correct	congruent	Block3	congruent/STIM_014.jpg
3116.668	0.864	correct	congruent	Block3	congruent/STIM_014.jpg
3121.153	0.844	correct	congruent	Block3	congruent/STIM_014.jpg
3124.783	0.607	correct	congruent	Block3	congruent/STIM_014.jpg
3128.586	0.87	correct	congruent	Block3	congruent/STIM_015.jpg
3132.241	0.638	correct	congruent	Block3	congruent/STIM_015.jpg
3136.26	0.948	correct	congruent	Block3	congruent/STIM_015.jpg
3140.229	0.763	incorrect	congruent	Block3	congruent/STIM_015.jpg
3144.717	0.867	correct	congruent	Block3	congruent/STIM_015.jpg
3148.979	0.818	correct	congruent	Block3	congruent/STIM_016.jpg
3152.555	0.682	correct	congruent	Block3	congruent/STIM_016.jpg
3155.54	0.654	correct	congruent	Block3	congruent/STIM_016.jpg
3159.597	0.8	correct	congruent	Block3	congruent/STIM_016.jpg
3163.931	0.562	correct	congruent	Block3	congruent/STIM_016.jpg
3166.502	0.856	correct	congruent	Block3	congruent/STIM_017.jpg
3170.73	0.6	correct	congruent	Block3	congruent/STIM_017.jpg
3174.578	0.928	correct	congruent	Block3	congruent/STIM_017.jpg
3179.271	0.694	correct	congruent	Block3	congruent/STIM_017.jpg
3183.501	0.699	correct	congruent	Block3	congruent/STIM_017.jpg
3188.038	0.73	correct	congruent	Block3	congruent/STIM_018.jpg
3192.092	0.944	correct	congruent	Block3	congruent/STIM_018.jpg
3195.135	0.747	correct	congruent	Block3	congruent/STIM_018.jpg
3198.873	0.64	correct	congruent	Block3	congruent/STIM_018.jpg
3201.868	0.817	correct	congruent	Block3	congruent/STIM_018.jpg
3205.18	0.797	incorrect	congruent	Block3	congruent/STIM_019.jpg
3209.089	0.784	correct	congruent	Block3	congruent/STIM_019.jpg
3213.256	0.571	correct	congruent	Block3	congruent/STIM_019.jpg
3216.504	0.56	correct	congruent	Block3	congruent/STIM_019.jpg
3219.848	0.547	correct	congruent	Block3	congruent/STIM_019.jpg
3224.35	0.792	incorrect	congruent	Block3	congruent/STIM_020.jpg
3229.045	0.857	correct	congruent	Block3	congruent/STIM_020.jpg
3233.545	0.941	correct	congruent	Block3	congruent/STIM_020.jpg
3236.977	0.821	correct	congruent	Block3	congruent/STIM_020.jpg
3241.253	0.569	correct	congruent	Block3	congruent/STIM_020.jpg
3245.61	0.569	correct	congruent	Block3	congruent/STIM_021.jpg
3249.851	0.84	correct	congruent	Block3	congruent/STIM_021.jpg
3253.99	0.552	correct	congruent	Block3	congruent/STIM_021.jpg
3257.756	0.857	correct	congruent	Block3	congruent/STIM_021.jpg
3260.621	0.868	correct	congruent	Block3	congruent/STIM_021.jpg
3264.772	0.78	correct	congruent	Block3	congruent/STIM_022.jpg
3267.872	0.678	correct	congruent	Block3	congruent/STIM_022.jpg
3270.649	0.592	correct	congruent	Block3	congruent/STIM_022.jpg
3274.36	0.737	correct	congruent	Block3	congruent/STIM_022.jpg
3277.796	0.535	correct	congruent	Block3	congruent/STIM_022.jpg
3280.999	0.729	correct	congruent	Block3	congruent/STIM_023.jpg
3284.58	0.828	correct	congruent	Block3	congruent/STIM_023.jpg
3287.924	0.573	correct	congruent	Block3	congruent/STIM_023.jpg
3292.137	0.74	correct	congruent	Block3	congruent/STIM_023.jpg
3296.015	0.793	correct	congruent	Block3	congruent/STIM_023.jpg
3299.753	0.851	correct	congruent	Block3	congruent/STIM_024.jpg
3303.495	0.626	correct	congruent	Block3	congruent/STIM_024.jpg
3306.382	0.747	correct	congruent	Block3	congruent/STIM_024.jpg
3309.938	0.844	correct	congruent	Block3	congruent/STIM_024.jpg
3313.101	0.723	correct	congruent	Block3	congruent/STIM_024.jpg
3317.035	0.66	correct	congruent	Block3	congruent/STIM_025.jpg
3320.833	0.673	correct	congruent	Block3	congruent/STIM_025.jpg
3324.833	0.69	correct	congruent	Block3	congruent/STIM_025.jpg
3328.059	0.743	correct	congruent	Block3	congruent/STIM_025.jpg
3331.986	0.722	incorrect	congruent	Block3	congruent/STIM_025.jpg
3336.111	0.682	correct	congruent	Block3	congruent/STIM_026.jpg
3340.243	0.751	correct	congruent	Block3	congruent/STIM_026.jpg
3344.241	0.55	correct	congruent	Block3	congruent/STIM_026.jpg
3347.481	0.863	correct	congruent	Block3	congruent/STIM_026.jpg
3350.821	0.883	correct	congruent	Block3	congruent/STIM_026.jpg
3355.13	0.542	correct	congruent	Block3	congruent/STIM_027.jpg
3358.922	0.772	correct	congruent	Block3	congruent/STIM_027.jpg
3362.708	0.92	incorrect	congruent	Block3	congruent/STIM_027.jpg
3367.214	0.642	correct	congruent	Block3	congruent/STIM_027.jpg
3371.261	0.678	correct	congruent	Block3	congruent/STIM_027.jpg
3375.58	0.74	correct	congruent	Block3	congruent/STIM_028.jpg
3378.539	0.599	correct	congruent	Block3	congruent/STIM_028.jpg
3381.963	0.585	correct	congruent	Block3	congruent/STIM_028.jpg
3386.366	0.717	correct	congruent	Block3	congruent/STIM_028.jpg
3389.156	0.552	correct	congruent	Block3	congruent/STIM_028.jpg
3393.465	0.684	correct	congruent	Block3	congruent/STIM_029.jpg
3396.61	0.866	correct	congruent	Block3	congruent/STIM_029.jpg
3400.468	0.535	correct	congruent	Block3	congruent/STIM_029.jpg
3403.48	0.581	correct	congruent	Block3	congruent/STIM_029.jpg
3407.608	0.824	correct	congruent	Block3	congruent/STIM_029.jpg
