onset	duration	accuracy_binary	trial_type	learning_stage	stimulus
0.0	2.374	1	regulate	Run1	regulate/STIM_000.jpg
5.914	2.78	1	regulate	Run1	regulate/STIM_000.jpg
12.455	3.162	0	regulate	Run1	regulate/STIM_000.jpg
19.476	3.24	1	regulate	Run1	regulate/STIM_000.jpg
25.248	3.561	0	regulate	Run1	regulate/STIM_001.jpg
32.363	3.038	1	regulate	Run1	regulate/STIM_001.jpg
37.887	2.382	0	regulate	Run1	regulate/STIM_001.jpg
43.669	3.35	1	regulate	Run1	regulate/STIM_001.jpg
50.684	3.11	1	regulate	Run1	regulate/STIM_002.jpg
56.796	1.609	0	regulate	Run1	regulate/STIM_002.jpg
60.583	2.636	1	regulate	Run1	regulate/STIM_002.jpg
65.318	2.049	1	regulate	Run1	regulate/STIM_002.jpg
69.835	1.693	0	regulate	Run1	regulate/STIM_003.jpg
75.502	3.094	1	regulate	Run1	regulate/STIM_003.jpg
81.291	3.358	1	regulate	Run1	regulate/STIM_003.jpg
86.649	2.898	0	regulate	Run1	regulate/STIM_003.jpg
91.88	2.674	1	regulate	Run1	regulate/STIM_004.jpg
97.785	1.713	0	regulate	Run1	regulate/STIM_004.jpg
103.469	3.007	1	regulate	Run1	regulate/STIM_004.jpg
108.649	2.025	0	regulate	Run1	regulate/STIM_004.jpg
113.434	2.241	0	regulate	Run1	regulate/STIM_005.jpg
117.848	2.542	1	regulate	Run1	regulate/STIM_005.jpg
122.797	1.823	1	regulate	Run1	regulate/STIM_005.jpg
127.268	2.355	1	regulate	Run1	regulate/STIM_005.jpg
132.396	3.727	1	regulate	Run1	regulate/STIM_006.jpg
138.128	2.039	1	regulate	Run1	regulate/STIM_006.jpg
143.652	3.097	1	regulate	Run1	regulate/STIM_006.jpg
149.041	1.719	1	regulate	Run1	regulate/STIM_006.jpg
153.364	1.841	1	regulate	Run1	regulate/STIM_007.jpg
157.815	3.021	0	regulate	Run1	regulate/STIM_007.jpg
163.643	1.61	1	regulate	Run1	regulate/STIM_007.jpg
168.688	3.215	1	regulate	Run1	regulate/STIM_007.jpg
175.754	3.532	0	regulate	Run1	regulate/STIM_008.jpg
182.524	2.067	1	regulate	Run1	regulate/STIM_008.jpg
187.969	2.274	1	regulate	Run1	regulate/STIM_008.jpg
193.414	2.941	0	regulate	Run1	regulate/STIM_008.jpg
198.602	2.979	1	regulate	Run1	regulate/STIM_009.jpg
203.761	1.608	1	regulate	Run1	regulate/STIM_009.jpg
209.324	2.87	1	regulate	Run1	regulate/STIM_009.jpg
214.355	3.001	1	regulate	Run1	regulate/STIM_009.jpg
220.45	3.651	1	regulate	Run1	regulate/STIM_010.jpg
226.569	2.566	0	regulate	Run1	regulate/STIM_010.jpg
231.788	2.982	1	regulate	Run1	regulate/STIM_010.jpg
237.909	1.531	0	regulate	Run1	regulate/STIM_010.jpg
242.346	2.05	1	regulate	Run1	regulate/STIM_011.jpg
247.386	2.034	0	regulate	Run1	regulate/STIM_011.jpg
252.82	2.161	1	regulate	Run1	regulate/STIM_011.jpg
258.625	2.177	1	regulate	Run1	regulate/STIM_011.jpg
263.338	3.334	1	regulate	Run1	regulate/STIM_012.jpg
270.084	2.345	1	regulate	Run1	regulate/STIM_012.jpg
275.038	2.675	0	regulate	Run1	regulate/STIM_012.jpg
279.833	1.781	1	regulate	Run1	regulate/STIM_012.jpg
284.457	3.189	1	regulate	Run1	regulate/STIM_013.jpg
291.575	2.293	0	regulate	Run1	regulate/STIM_013.jpg
296.447	1.584	0	regulate	Run1	regulate/STIM_013.jpg
300.253	2.564	1	regulate	Run1	regulate/STIM_013.jpg
305.823	1.714	0	regulate	Run1	regulate/STIM_014.jpg
310.207	1.615	1	regulate	Run1	regulate/STIM_014.jpg
314.822	3.351	0	regulate	Run1	regulate/STIM_014.jpg
321.702	3.171	1	regulate	Run1	regulate/STIM_014.jpg
328.691	2.634	0	regulate	Run1	regulate/STIM_015.jpg
335.188	2.298	1	regulate	Run1	regulate/STIM_015.jpg
340.761	3.405	1	regulate	Run1	regulate/STIM_015.jpg
347.021	2.145	1	regulate	Run1	regulate/STIM_015.jpg
352.139	3.226	0	regulate	Run1	regulate/STIM_016.jpg
357.8	3.192	1	regulate	Run1	regulate/STIM_016.jpg
364.822	2.494	1	regulate	Run1	regulate/STIM_016.jpg
370.963	2.899	1	regulate	Run1	regulate/STIM_016.jpg
376.149	1.957	1	regulate	Run1	regulate/STIM_017.jpg
380.94	2.76	1	regulate	Run1	regulate/STIM_017.jpg
386.519	1.945	1	regulate	Run1	regulate/STIM_017.jpg
392.054	2.502	1	regulate	Run1	regulate/STIM_017.jpg
398.512	3.022	0	regulate	Run1	regulate/STIM_018.jpg
405.522	2.916	1	regulate	Run1	regulate/STIM_018.jpg
412.418	2.1	1	regulate	Run1	regulate/STIM_018.jpg
417.993	2.867	1	regulate	Run1	regulate/STIM_018.jpg
424.695	3.661	1	regulate	Run1	regulate/STIM_019.jpg
430.902	2.064	1	regulate	Run1	regulate/STIM_019.jpg
436.871	1.547	1	regulate	Run1	regulate/STIM_019.jpg
441.412	2.229	1	regulate	Run1	regulate/STIM_019.jpg
445.846	2.278	1	regulate	Run1	regulate/STIM_020.jpg
450.558	3.504	1	regulate	Run1	regulate/STIM_020.jpg
456.652	2.066	1	regulate	Run1	regulate/STIM_020.jpg
460.958	2.901	1	regulate	Run1	regulate/STIM_020.jpg
467.251	1.693	1	regulate	Run1	regulate/STIM_021.jpg
472.146	1.95	0	regulate	Run1	regulate/STIM_021.jpg
476.421	3.366	0	regulate	Run1	regulate/STIM_021.jpg
483.428	2.91	1	regulate	Run1	regulate/STIM_021.jpg
488.377	3.794	1	regulate	Run1	regulate/STIM_022.jpg
494.821	1.764	1	regulate	Run1	regulate/STIM_022.jpg
498.734	2.618	1	regulate	Run1	regulate/STIM_022.jpg
503.438	1.505	1	regulate	Run1	regulate/STIM_022.jpg
508.349	2.651	1	regulate	Run1	regulate/STIM_023.jpg
513.388	2.907	1	regulate	Run1	regulate/STIM_023.jpg
519.966	2.72	1	regulate	Run1	regulate/STIM_023.jpg
524.729	2.12	0	regulate	Run1	regulate/STIM_023.jpg
529.348	3.867	1	regulate	Run1	regulate/STIM_024.jpg
537.215	2.435	1	regulate	Run1	regulate/STIM_024.jpg
542.725	3.53	1	regulate	Run1	regulate/STIM_024.jpg
549.643	2.502	0	regulate	Run1	regulate/STIM_024.jpg
554.487	3.714	1	regulate	Run1	regulate/STIM_025.jpg
562.107	1.774	1	regulate	Run1	regulate/STIM_025.jpg
567.359	2.442	0	regulate	Run1	regulate/STIM_025.jpg
572.18	2.569	1	regulate	Run1	regulate/STIM_025.jpg
577.901	3.019	1	regulate	Run1	regulate/STIM_026.jpg
584.91	3.011	0	regulate	Run1	regulate/STIM_026.jpg
591.555	2.703	1	regulate	Run1	regulate/STIM_026.jpg
596.416	1.517	1	regulate	Run1	regulate/STIM_026.jpg
601.082	2.009	1	regulate	Run1	regulate/STIM_027.jpg
606.194	2.818	0	regulate	Run1	regulate/STIM_027.jpg
612.504	2.377	1	regulate	Run1	regulate/STIM_027.jpg
618.681	2.045	1	regulate	Run1	regulate/STIM_027.jpg
623.872	2.874	0	regulate	Run1	regulate/STIM_028.jpg
628.76	1.772	0	regulate	Run1	regulate/STIM_028.jpg
633.759	2.229	1	regulate	Run1	regulate/STIM_028.jpg
639.194	2.98	1	regulate	Run1	regulate/STIM_028.jpg
645.896	3.696	1	regulate	Run1	regulate/STIM_029.jpg
651.736	1.746	1	regulate	Run1	regulate/STIM_029.jpg
657.1	2.49	0	regulate	Run1	regulate/STIM_029.jpg
663.127	2.712	1	regulate	Run1	regulate/STIM_029.jpg
669.594	1.574	0	observe	Run1	observe/STIM_000.jpg
673.635	1.245	1	observe	Run1	observe/STIM_000.jpg
678.021	1.639	0	observe	Run1	observe/STIM_000.jpg
683.161	1.663	0	observe	Run1	observe/STIM_000.jpg
686.932	1.797	1	observe	Run1	observe/STIM_001.jpg
691.42	1.051	1	observe	Run1	observe/STIM_001.jpg
696.095	1.639	1	observe	Run1	observe/STIM_001.jpg
701.6	1.358	1	observe	Run1	observe/STIM_001.jpg
706.373	1.064	1	observe	Run1	observe/STIM_002.jpg
710.629	1.699	1	observe	Run1	observe/STIM_002.jpg
715.839	1.227	1	observe	Run1	observe/STIM_002.jpg
719.838	1.74	1	observe	Run1	observe/STIM_002.jpg
723.893	1.103	1	observe	Run1	observe/STIM_003.jpg
727.795	1.178	1	observe	Run1	observe/STIM_003.jpg
730.997	0.984	1	observe	Run1	observe/STIM_003.jpg
734.371	1.092	0	observe	Run1	observe/STIM_003.jpg
738.42	1.626	1	observe	Run1	observe/STIM_004.jpg
743.852	1.137	1	observe	Run1	observe/STIM_004.jpg
748.14	1.157	1	observe	Run1	observe/STIM_004.jpg
751.364	1.66	1	observe	Run1	observe/STIM_004.jpg
756.565	0.926	0	observe	Run1	observe/STIM_005.jpg
760.292	1.02	1	observe	Run1	observe/STIM_005.jpg
764.026	1.275	0	observe	Run1	observe/STIM_005.jpg
767.688	1.749	1	observe	Run1	observe/STIM_005.jpg
771.623	1.69	1	observe	Run1	observe/STIM_006.jpg
775.733	1.717	1	observe	Run1	observe/STIM_006.jpg
780.648	1.6	1	observe	Run1	observe/STIM_006.jpg
785.789	1.332	1	observe	Run1	observe/STIM_006.jpg
790.88	1.716	0	observe	Run1	observe/STIM_007.jpg
794.71	0.996	1	observe	Run1	observe/STIM_007.jpg
799.366	1.35	1	observe	Run1	observe/STIM_007.jpg
803.898	1.38	1	observe	Run1	observe/STIM_007.jpg
808.498	1.034	1	observe	Run1	observe/STIM_008.jpg
812.996	1.005	0	observe	Run1	observe/STIM_008.jpg
816.388	1.474	1	observe	Run1	observe/STIM_008.jpg
820.04	1.265	1	observe	Run1	observe/STIM_008.jpg
824.117	1.154	0	observe	Run1	observe/STIM_009.jpg
828.04	1.344	1	observe	Run1	observe/STIM_009.jpg
832.065	1.729	1	observe	Run1	observe/STIM_009.jpg
837.14	1.595	1	observe	Run1	observe/STIM_009.jpg
842.374	1.247	0	observe	Run1	observe/STIM_010.jpg
846.429	1.529	1	observe	Run1	observe/STIM_010.jpg
850.604	1.482	1	observe	Run1	observe/STIM_010.jpg
855.448	1.642	1	observe	Run1	observe/STIM_010.jpg
860.942	1.451	1	observe	Run1	observe/STIM_011.jpg
865.199	1.212	1	observe	Run1	observe/STIM_011.jpg
870.386	1.788	1	observe	Run1	observe/STIM_011.jpg
875.969	1.1	1	observe	Run1	observe/STIM_011.jpg
880.07	1.628	1	observe	Run1	observe/STIM_012.jpg
884.474	1.094	1	observe	Run1	observe/STIM_012.jpg
888.881	0.992	1	observe	Run1	observe/STIM_012.jpg
892.52	1.513	1	observe	Run1	observe/STIM_012.jpg
897.84	1.053	1	observe	Run1	observe/STIM_013.jpg
902.794	1.074	0	observe	Run1	observe/STIM_013.jpg
907.3	1.703	1	observe	Run1	observe/STIM_013.jpg
911.612	1.574	1	observe	Run1	observe/STIM_013.jpg
915.673	1.661	1	observe	Run1	observe/STIM_014.jpg
919.416	1.674	1	observe	Run1	observe/STIM_014.jpg
924.624	1.019	1	observe	Run1	observe/STIM_014.jpg
929.454	0.931	0	observe	Run1	observe/STIM_014.jpg
933.142	1.086	1	observe	Run1	observe/STIM_015.jpg
938.191	1.357	1	observe	Run1	observe/STIM_015.jpg
942.813	0.972	1	observe	Run1	observe/STIM_015.jpg
945.815	1.047	0	observe	Run1	observe/STIM_015.jpg
949.755	1.538	1	observe	Run1	observe/STIM_016.jpg
954.282	1.719	1	observe	Run1	observe/STIM_016.jpg
958.811	1.248	1	observe	Run1	observe/STIM_016.jpg
963.207	1.083	1	observe	Run1	observe/STIM_016.jpg
966.396	1.795	1	observe	Run1	observe/STIM_017.jpg
970.892	1.699	1	observe	Run1	observe/STIM_017.jpg
976.39	1.584	1	observe	Run1	observe/STIM_017.jpg
981.213	1.51	1	observe	Run1	observe/STIM_017.jpg
985.389	1.415	1	observe	Run1	observe/STIM_018.jpg
990.677	1.287	1	observe	Run1	observe/STIM_018.jpg
994.794	1.311	0	observe	Run1	observe/STIM_018.jpg
1000.023	1.105	1	observe	Run1	observe/STIM_018.jpg
1003.806	1.16	1	observe	Run1	observe/STIM_019.jpg
1007.422	1.448	1	observe	Run1	observe/STIM_019.jpg
1011.614	0.973	1	observe	Run1	observe/STIM_019.jpg
1015.506	1.256	1	observe	Run1	observe/STIM_019.jpg
1019.72	2.687	1	regulate	Run2	regulate/STIM_000.jpg
1024.747	2.043	0	regulate	Run2	regulate/STIM_000.jpg
1028.991	1.952	0	regulate	Run2	regulate/STIM_000.jpg
1033.905	1.436	1	regulate	Run2	regulate/STIM_000.jpg
1037.926	3.248	1	regulate	Run2	regulate/STIM_001.jpg
1045.041	2.854	0	regulate	Run2	regulate/STIM_001.jpg
1050.48	2.015	1	regulate	Run2	regulate/STIM_001.jpg
1055.614	1.813	1	regulate	Run2	regulate/STIM_001.jpg
1061.158	1.56	1	regulate	Run2	regulate/STIM_002.jpg
1064.76	2.288	1	regulate	Run2	regulate/STIM_002.jpg
1070.535	2.195	0	regulate	Run2	regulate/STIM_002.jpg
1076.511	1.651	1	regulate	Run2	regulate/STIM_002.jpg
1080.644	3.074	0	regulate	Run2	regulate/STIM_003.jpg
1085.797	2.743	0	regulate	Run2	regulate/STIM_003.jpg
1090.615	1.651	1	regulate	Run2	regulate/STIM_003.jpg
1094.533	1.21	1	regulate	Run2	regulate/STIM_003.jpg
1097.877	3.152	0	regulate	Run2	regulate/STIM_004.jpg
1103.551	2.221	0	regulate	Run2	regulate/STIM_004.jpg
1109.019	2.767	0	regulate	Run2	regulate/STIM_004.jpg
1114.15	1.684	1	regulate	Run2	regulate/STIM_004.jpg
1119.412	3.29	1	regulate	Run2	regulate/STIM_005.jpg
1125.241	3.038	1	regulate	Run2	regulate/STIM_005.jpg
1130.635	2.771	1	regulate	Run2	regulate/STIM_005.jpg
1137.035	1.359	1	regulate	Run2	regulate/STIM_005.jpg
1142.105	2.086	1	regulate	Run2	regulate/STIM_006.jpg
1146.944	1.988	1	regulate	Run2	regulate/STIM_006.jpg
1152.715	1.269	1	regulate	Run2	regulate/STIM_006.jpg
1156.448	1.448	1	regulate	Run2	regulate/STIM_006.jpg
1160.898	2.016	1	regulate	Run2	regulate/STIM_007.jpg
1165.178	2.317	1	regulate	Run2	regulate/STIM_007.jpg
1171.491	2.953	0	regulate	Run2	regulate/STIM_007.jpg
1177.673	1.245	0	regulate	Run2	regulate/STIM_007.jpg
1181.239	2.197	0	regulate	Run2	regulate/STIM_008.jpg
1186.397	2.756	0	regulate	Run2	regulate/STIM_008.jpg
1192.653	2.951	0	regulate	Run2	regulate/STIM_008.jpg
1199.019	1.977	1	regulate	Run2	regulate/STIM_008.jpg
1204.446	1.892	0	regulate	Run2	regulate/STIM_009.jpg
1210.176	1.916	1	regulate	Run2	regulate/STIM_009.jpg
1215.759	1.449	1	regulate	Run2	regulate/STIM_009.jpg
1219.247	1.666	1	regulate	Run2	regulate/STIM_009.jpg
1224.485	2.485	1	regulate	Run2	regulate/STIM_010.jpg
1230.331	2.531	1	regulate	Run2	regulate/STIM_010.jpg
1234.925	2.284	1	regulate	Run2	regulate/STIM_010.jpg
1241.124	2.337	1	regulate	Run2	regulate/STIM_010.jpg
1245.844	2.152	1	regulate	Run2	regulate/STIM_011.jpg
1251.546	1.896	0	regulate	Run2	regulate/STIM_011.jpg
1256.266	2.953	1	regulate	Run2	regulate/STIM_011.jpg
1262.043	1.662	1	regulate	Run2	regulate/STIM_011.jpg
1266.084	1.859	1	regulate	Run2	regulate/STIM_012.jpg
1271.043	1.772	1	regulate	Run2	regulate/STIM_012.jpg
1275.665	2.101	0	regulate	Run2	regulate/STIM_012.jpg
1281.561	1.775	1	regulate	Run2	regulate/STIM_012.jpg
1285.398	2.382	1	regulate	Run2	regulate/STIM_013.jpg
1290.247	1.409	1	regulate	Run2	regulate/STIM_013.jpg
1294.068	1.956	1	regulate	Run2	regulate/STIM_013.jpg
1299.38	1.664	1	regulate	Run2	regulate/STIM_013.jpg
1304.606	2.576	0	regulate	Run2	regulate/STIM_014.jpg
1311.032	1.437	0	regulate	Run2	regulate/STIM_014.jpg
1315.51	1.653	1	regulate	Run2	regulate/STIM_014.jpg
1320.627	1.858	0	regulate	Run2	regulate/STIM_014.jpg
1325.762	1.487	1	regulate	Run2	regulate/STIM_015.jpg
1330.345	1.49	1	regulate	Run2	regulate/STIM_015.jpg
1334.394	1.896	1	regulate	Run2	regulate/STIM_015.jpg
1339.38	2.147	1	regulate	Run2	regulate/STIM_015.jpg
1344.747	3.273	1	regulate	Run2	regulate/STIM_016.jpg
1350.924	2.814	0	regulate	Run2	regulate/STIM_016.jpg
1356.746	2.467	1	regulate	Run2	regulate/STIM_016.jpg
1362.17	2.748	1	regulate	Run2	regulate/STIM_016.jpg
1368.027	3.156	1	regulate	Run2	regulate/STIM_017.jpg
1373.919	2.399	1	regulate	Run2	regulate/STIM_017.jpg
1378.47	1.874	1	regulate	Run2	regulate/STIM_017.jpg
1382.64	1.814	1	regulate	Run2	regulate/STIM_017.jpg
1387.683	2.332	1	regulate	Run2	regulate/STIM_018.jpg
1393.753	1.9	1	regulate	Run2	regulate/STIM_018.jpg
1398.389	2.618	1	regulate	Run2	regulate/STIM_018.jpg
1403.481	2.344	1	regulate	Run2	regulate/STIM_018.jpg
1409.048	1.807	1	regulate	Run2	regulate/STIM_019.jpg
1413.557	2.371	1	regulate	Run2	regulate/STIM_019.jpg
1419.426	2.726	1	regulate	Run2	regulate/STIM_019.jpg
1425.277	1.876	0	regulate	Run2	regulate/STIM_019.jpg
1430.088	2.813	1	regulate	Run2	regulate/STIM_020.jpg
1436.561	2.443	1	regulate	Run2	regulate/STIM_020.jpg
1441.073	1.502	0	regulate	Run2	regulate/STIM_020.jpg
1445.659	1.682	0	regulate	Run2	regulate/STIM_020.jpg
1450.27	2.226	1	regulate	Run2	regulate/STIM_021.jpg
1456.32	1.711	1	regulate	Run2	regulate/STIM_021.jpg
1461.534	1.477	1	regulate	Run2	regulate/STIM_021.jpg
1465.396	2.512	1	regulate	Run2	regulate/STIM_021.jpg
1471.252	1.46	1	regulate	Run2	regulate/STIM_022.jpg
1475.409	2.519	1	regulate	Run2	regulate/STIM_022.jpg
1480.543	1.43	0	regulate	Run2	regulate/STIM_022.jpg
1485.423	1.417	1	regulate	Run2	regulate/STIM_022.jpg
1488.955	1.538	0	regulate	Run2	regulate/STIM_023.jpg
1493.722	2.101	1	regulate	Run2	regulate/STIM_023.jpg
1498.542	2.387	1	regulate	Run2	regulate/STIM_023.jpg
1502.971	2.45	1	regulate	Run2	regulate/STIM_023.jpg
1509.086	3.271	1	regulate	Run2	regulate/STIM_024.jpg
1514.731	2.3	1	regulate	Run2	regulate/STIM_024.jpg
1519.574	1.292	1	regulate	Run2	regulate/STIM_024.jpg
1524.067	2.605	1	regulate	Run2	regulate/STIM_024.jpg
1530.161	1.612	1	regulate	Run2	regulate/STIM_025.jpg
1534.473	1.974	1	regulate	Run2	regulate/STIM_025.jpg
1539.277	1.93	1	regulate	Run2	regulate/STIM_025.jpg
1543.281	2.046	0	regulate	Run2	regulate/STIM_025.jpg
1549.031	2.188	1	regulate	Run2	regulate/STIM_026.jpg
1553.751	1.558	1	regulate	Run2	regulate/STIM_026.jpg
1558.404	2.323	0	regulate	Run2	regulate/STIM_026.jpg
1564.1	2.127	1	regulate	Run2	regulate/STIM_026.jpg
1568.984	2.339	1	regulate	Run2	regulate/STIM_027.jpg
1573.948	2.715	1	regulate	Run2	regulate/STIM_027.jpg
1580.367	2.333	1	regulate	Run2	regulate/STIM_027.jpg
1584.704	1.407	1	regulate	Run2	regulate/STIM_027.jpg
1589.528	2.06	1	regulate	Run2	regulate/STIM_028.jpg
1595.06	2.144	1	regulate	Run2	regulate/STIM_028.jpg
1599.802	2.617	1	regulate	Run2	regulate/STIM_028.jpg
1606.134	1.187	1	regulate	Run2	regulate/STIM_028.jpg
1610.999	2.121	0	regulate	Run2	regulate/STIM_029.jpg
1615.346	1.684	1	regulate	Run2	regulate/STIM_029.jpg
1619.289	1.864	1	regulate	Run2	regulate/STIM_029.jpg
1624.195	1.916	1	regulate	Run2	regulate/STIM_029.jpg
1630.021	1.437	0	observe	Run2	observe/STIM_000.jpg
1634.316	1.707	1	observe	Run2	observe/STIM_000.jpg
1639.438	0.981	1	observe	Run2	observe/STIM_000.jpg
1642.966	1.197	0	observe	Run2	observe/STIM_000.jpg
1647.12	1.378	1	observe	Run2	observe/STIM_001.jpg
1650.948	1.515	1	observe	Run2	observe/STIM_001.jpg
1655.282	0.974	1	observe	Run2	observe/STIM_001.jpg
1658.707	1.429	1	observe	Run2	observe/STIM_001.jpg
1663.671	1.802	1	observe	Run2	observe/STIM_002.jpg
1669.438	1.084	0	observe	Run2	observe/STIM_002.jpg
1674.133	1.526	1	observe	Run2	observe/STIM_002.jpg
1678.013	1.254	1	observe	Run2	observe/STIM_002.jpg
1682.169	1.083	1	observe	Run2	observe/STIM_003.jpg
1686.855	0.956	1	observe	Run2	observe/STIM_003.jpg
1690.959	1.315	1	observe	Run2	observe/STIM_003.jpg
1694.713	1.614	1	observe	Run2	observe/STIM_003.jpg
1700.053	1.063	1	observe	Run2	observe/STIM_004.jpg
1703.897	1.272	1	observe	Run2	observe/STIM_004.jpg
1708.1	1.392	1	observe	Run2	observe/STIM_004.jpg
1713.052	1.445	1	observe	Run2	observe/STIM_004.jpg
1717.166	1.504	0	observe	Run2	observe/STIM_005.jpg
1722.371	1.432	1	observe	Run2	observe/STIM_005.jpg
1727.298	0.991	1	observe	Run2	observe/STIM_005.jpg
1731.321	1.213	1	observe	Run2	observe/STIM_005.jpg
1735.542	1.132	0	observe	Run2	observe/STIM_006.jpg
1740.51	0.925	1	observe	Run2	observe/STIM_006.jpg
1744.647	1.692	0	observe	Run2	observe/STIM_006.jpg
1749.727	1.469	0	observe	Run2	observe/STIM_006.jpg
1754.732	1.7	1	observe	Run2	observe/STIM_007.jpg
1758.447	1.571	1	observe	Run2	observe/STIM_007.jpg
1763.731	0.995	1	observe	Run2	observe/STIM_007.jpg
1767.253	0.918	1	observe	Run2	observe/STIM_007.jpg
1771.764	1.258	1	observe	Run2	observe/STIM_008.jpg
1775.77	1.163	1	observe	Run2	observe/STIM_008.jpg
1780.062	1.699	1	observe	Run2	observe/STIM_008.jpg
1784.762	1.22	1	observe	Run2	observe/STIM_008.jpg
1788.067	0.974	1	observe	Run2	observe/STIM_009.jpg
1792.936	1.559	1	observe	Run2	observe/STIM_009.jpg
1797.803	0.915	1	observe	Run2	observe/STIM_009.jpg
1801.713	1.416	1	observe	Run2	observe/STIM_009.jpg
1805.83	1.447	1	observe	Run2	observe/STIM_010.jpg
1810.504	1.766	1	observe	Run2	observe/STIM_010.jpg
1815.588	1.117	1	observe	Run2	observe/STIM_010.jpg
1819.579	1.738	1	observe	Run2	observe/STIM_010.jpg
1823.359	1.463	1	observe	Run2	observe/STIM_011.jpg
1828.17	1.716	1	observe	Run2	observe/STIM_011.jpg
1831.94	1.716	1	observe	Run2	observe/STIM_011.jpg
1836.113	1.054	1	observe	Run2	observe/STIM_011.jpg
1840.392	1.561	1	observe	Run2	observe/STIM_012.jpg
1844.279	1.166	1	observe	Run2	observe/STIM_012.jpg
1849.347	1.303	1	observe	Run2	observe/STIM_012.jpg
1854.151	1.599	1	observe	Run2	observe/STIM_012.jpg
1857.807	1.752	1	observe	Run2	observe/STIM_013.jpg
1861.702	1.174	1	observe	Run2	observe/STIM_013.jpg
1866.36	1.437	1	observe	Run2	observe/STIM_013.jpg
1870.02	1.137	1	observe	Run2	observe/STIM_013.jpg
1874.134	1.182	1	observe	Run2	observe/STIM_014.jpg
1878.055	1.426	0	observe	Run2	observe/STIM_014.jpg
1882.842	1.354	1	observe	Run2	observe/STIM_014.jpg
1888.105	1.401	1	observe	Run2	observe/STIM_014.jpg
1891.545	1.067	1	observe	Run2	observe/STIM_015.jpg
1895.057	1.044	1	observe	Run2	observe/STIM_015.jpg
1898.306	0.915	1	observe	Run2	observe/STIM_015.jpg
1902.771	1.331	1	observe	Run2	observe/STIM_015.jpg
1907.189	0.906	1	observe	Run2	observe/STIM_016.jpg
1911.942	1.445	1	observe	Run2	observe/STIM_016.jpg
1916.008	1.499	1	observe	Run2	observe/STIM_016.jpg
1921.181	0.999	0	observe	Run2	observe/STIM_016.jpg
1925.617	1.298	1	observe	Run2	observe/STIM_017.jpg
1930.863	1.507	1	observe	Run2	observe/STIM_017.jpg
1934.662	1.689	1	observe	Run2	observe/STIM_017.jpg
1938.855	1.6	1	observe	Run2	observe/STIM_017.jpg
1943.19	1.51	0	observe	Run2	observe/STIM_018.jpg
1946.935	1.165	1	observe	Run2	observe/STIM_018.jpg
1951.704	1.518	1	observe	Run2	observe/STIM_018.jpg
1957.053	1.76	1	observe	Run2	observe/STIM_018.jpg
1962.252	1.354	0	observe	Run2	observe/STIM_019.jpg
1966.29	1.758	0	observe	Run2	observe/STIM_019.jpg
1971.002	1.324	1	observe	Run2	observe/STIM_019.jpg
1974.415	1.295	1	observe	Run2	observe/STIM_019.jpg
1978.949	2.158	1	regulate	Run3	regulate/STIM_000.jpg
1983.172	2.622	1	regulate	Run3	regulate/STIM_000.jpg
1989.432	2.387	1	regulate	Run3	regulate/STIM_000.jpg
1995.583	2.489	1	regulate	Run3	regulate/STIM_000.jpg
2000.939	2.114	1	regulate	Run3	regulate/STIM_001.jpg
2005.936	2.482	1	regulate	Run3	regulate/STIM_001.jpg
2010.861	2.221	1	regulate	Run3	regulate/STIM_001.jpg
2015.393	2.659	1	regulate	Run3	regulate/STIM_001.jpg
2020.228	2.057	1	regulate	Run3	regulate/STIM_002.jpg
2025.926	1.707	1	regulate	Run3	regulate/STIM_002.jpg
2030.874	2.598	1	regulate	Run3	regulate/STIM_002.jpg
2035.739	1.644	1	regulate	Run3	regulate/STIM_002.jpg
2039.553	2.68	0	regulate	Run3	regulate/STIM_003.jpg
2045.114	2.273	1	regulate	Run3	regulate/STIM_003.jpg
2051.161	2.574	1	regulate	Run3	regulate/STIM_003.jpg
2056.194	2.537	1	regulate	Run3	regulate/STIM_003.jpg
2062.653	1.887	1	regulate	Run3	regulate/STIM_004.jpg
2067.742	1.815	1	regulate	Run3	regulate/STIM_004.jpg
2072.33	1.901	1	regulate	Run3	regulate/STIM_004.jpg
2077.796	2.72	1	regulate	Run3	regulate/STIM_004.jpg
2084.379	1.459	0	regulate	Run3	regulate/STIM_005.jpg
2089.68	1.545	1	regulate	Run3	regulate/STIM_005.jpg
2094.788	2.723	1	regulate	Run3	regulate/STIM_005.jpg
2099.779	1.464	1	regulate	Run3	regulate/STIM_005.jpg
2103.408	2.068	1	regulate	Run3	regulate/STIM_006.jpg
2109.296	1.184	1	regulate	Run3	regulate/STIM_006.jpg
2113.735	2.76	1	regulate	Run3	regulate/STIM_006.jpg
2119.728	1.678	1	regulate	Run3	regulate/STIM_006.jpg
2124.926	2.323	1	regulate	Run3	regulate/STIM_007.jpg
2130.308	2.747	1	regulate	Run3	regulate/STIM_007.jpg
2135.983	1.84	1	regulate	Run3	regulate/STIM_007.jpg
2140.658	2.403	1	regulate	Run3	regulate/STIM_007.jpg
2146.903	2.205	1	regulate	Run3	regulate/STIM_008.jpg
2151.429	1.294	1	regulate	Run3	regulate/STIM_008.jpg
2155.437	2.304	1	regulate	Run3	regulate/STIM_008.jpg
2160.78	1.727	1	regulate	Run3	regulate/STIM_008.jpg
2165.769	1.71	1	regulate	Run3	regulate/STIM_009.jpg
2170.299	1.376	1	regulate	Run3	regulate/STIM_009.jpg
2174.807	2.628	1	regulate	Run3	regulate/STIM_009.jpg
2181.129	2.554	1	regulate	Run3	regulate/STIM_009.jpg
2186.54	2.713	1	regulate	Run3	regulate/STIM_010.jpg
2192.657	1.905	0	regulate	Run3	regulate/STIM_010.jpg
2198.099	2.597	0	regulate	Run3	regulate/STIM_010.jpg
2204.313	2.609	0	regulate	Run3	regulate/STIM_010.jpg
2210.391	1.481	1	regulate	Run3	regulate/STIM_011.jpg
2215.004	2.582	1	regulate	Run3	regulate/STIM_011.jpg
2219.698	1.913	1	regulate	Run3	regulate/STIM_011.jpg
2224.387	1.367	0	regulate	Run3	regulate/STIM_011.jpg
2229.261	2.581	1	regulate	Run3	regulate/STIM_012.jpg
2234.68	1.636	1	regulate	Run3	regulate/STIM_012.jpg
2239.325	2.572	1	regulate	Run3	regulate/STIM_012.jpg
2244.877	1.641	1	regulate	Run3	regulate/STIM_012.jpg
2248.891	1.364	1	regulate	Run3	regulate/STIM_013.jpg
2253.502	2.62	1	regulate	Run3	regulate/STIM_013.jpg
2259.101	1.746	0	regulate	Run3	regulate/STIM_013.jpg
2263.484	1.95	1	regulate	Run3	regulate/STIM_013.jpg
2267.809	1.997	1	regulate	Run3	regulate/STIM_014.jpg
2273.013	2.562	0	regulate	Run3	regulate/STIM_014.jpg
2278.165	1.805	1	regulate	Run3	regulate/STIM_014.jpg
2282.979	2.086	1	regulate	Run3	regulate/STIM_014.jpg
2288.366	1.716	0	regulate	Run3	regulate/STIM_015.jpg
2292.628	1.478	1	regulate	Run3	regulate/STIM_015.jpg
2296.695	1.785	1	regulate	Run3	regulate/STIM_015.jpg
2300.526	1.699	1	regulate	Run3	regulate/STIM_015.jpg
2305.394	1.863	1	regulate	Run3	regulate/STIM_016.jpg
2310.726	2.617	1	regulate	Run3	regulate/STIM_016.jpg
2315.46	2.121	1	regulate	Run3	regulate/STIM_016.jpg
2320.229	1.416	1	regulate	Run3	regulate/STIM_016.jpg
2324.074	2.511	0	regulate	Run3	regulate/STIM_017.jpg
2329.374	1.769	1	regulate	Run3	regulate/STIM_017.jpg
2333.406	1.952	1	regulate	Run3	regulate/STIM_017.jpg
2337.664	1.963	1	regulate	Run3	regulate/STIM_017.jpg
2342.371	1.986	1	regulate	Run3	regulate/STIM_018.jpg
2347.11	1.73	1	regulate	Run3	regulate/STIM_018.jpg
2350.84	1.829	1	regulate	Run3	regulate/STIM_018.jpg
2354.881	1.238	1	regulate	Run3	regulate/STIM_018.jpg
2359.845	1.67	1	regulate	Run3	regulate/STIM_019.jpg
2363.644	2.426	1	regulate	Run3	regulate/STIM_019.jpg
2369.192	2.429	1	regulate	Run3	regulate/STIM_019.jpg
2374.302	2.737	1	regulate	Run3	regulate/STIM_019.jpg
2379.419	1.579	1	regulate	Run3	regulate/STIM_020.jpg
2383.955	2.35	1	regulate	Run3	regulate/STIM_020.jpg
2389.457	2.169	1	regulate	Run3	regulate/STIM_020.jpg
2394.155	2.016	1	regulate	Run3	regulate/STIM_020.jpg
2398.488	2.658	1	regulate	Run3	regulate/STIM_021.jpg
2403.405	2.474	1	regulate	Run3	regulate/STIM_021.jpg
2409.113	2.455	1	regulate	Run3	regulate/STIM_021.jpg
2414.75	1.408	1	regulate	Run3	regulate/STIM_021.jpg
2418.326	2.368	1	regulate	Run3	regulate/STIM_022.jpg
2423.558	2.522	1	regulate	Run3	regulate/STIM_022.jpg
2428.247	2.656	1	regulate	Run3	regulate/STIM_022.jpg
2433.409	1.846	1	regulate	Run3	regulate/STIM_022.jpg
2438.138	1.379	1	regulate	Run3	regulate/STIM_023.jpg
2443.247	1.609	1	regulate	Run3	regulate/STIM_023.jpg
2448.112	1.876	1	regulate	Run3	regulate/STIM_023.jpg
2452.132	2.08	1	regulate	Run3	regulate/STIM_023.jpg
2456.415	2.05	1	regulate	Run3	regulate/STIM_024.jpg
2461.897	1.336	1	regulate	Run3	regulate/STIM_024.jpg
2465.413	1.822	1	regulate	Run3	regulate/STIM_024.jpg
2471.136	1.549	1	regulate	Run3	regulate/STIM_024.jpg
2476.457	2.645	1	regulate	Run3	regulate/STIM_025.jpg
2481.114	2.349	1	regulate	Run3	regulate/STIM_025.jpg
2486.923	1.717	1	regulate	Run3	regulate/STIM_025.jpg
2490.676	2.505	1	regulate	Run3	regulate/STIM_025.jpg
2496.116	1.728	0	regulate	Run3	regulate/STIM_026.jpg
2500.548	1.505	1	regulate	Run3	regulate/STIM_026.jpg
2505.069	2.245	1	regulate	Run3	regulate/STIM_026.jpg
2509.554	2.533	1	regulate	Run3	regulate/STIM_026.jpg
2515.279	2.189	1	regulate	Run3	regulate/STIM_027.jpg
2519.529	1.97	1	regulate	Run3	regulate/STIM_027.jpg
2524.706	1.896	1	regulate	Run3	regulate/STIM_027.jpg
2529.659	2.059	1	regulate	Run3	regulate/STIM_027.jpg
2533.961	2.228	1	regulate	Run3	regulate/STIM_028.jpg
2539.46	2.016	1	regulate	Run3	regulate/STIM_028.jpg
2545.242	1.702	1	regulate	Run3	regulate/STIM_028.jpg
2550.562	1.54	1	regulate	Run3	regulate/STIM_028.jpg
2555.475	1.733	1	regulate	Run3	regulate/STIM_029.jpg
2560.602	2.576	1	regulate	Run3	regulate/STIM_029.jpg
2566.905	2.036	1	regulate	Run3	regulate/STIM_029.jpg
2572.53	2.225	0	regulate	Run3	regulate/STIM_029.jpg
2578.279	1.077	1	observe	Run3	observe/STIM_000.jpg
2581.545	1.794	1	observe	Run3	observe/STIM_000.jpg
2586.079	1.025	1	observe	Run3	observe/STIM_000.jpg
2589.165	1.481	1	observe	Run3	observe/STIM_000.jpg
2594.145	1.352	1	observe	Run3	observe/STIM_001.jpg
2599.096	1.212	1	observe	Run3	observe/STIM_001.jpg
2603.927	1.467	0	observe	Run3	observe/STIM_001.jpg
2608.196	1.47	1	observe	Run3	observe/STIM_001.jpg
2612.564	1.65	1	observe	Run3	observe/STIM_002.jpg
2617.069	1.159	1	observe	Run3	observe/STIM_002.jpg
2621.361	1.039	1	observe	Run3	observe/STIM_002.jpg
2626.237	0.926	1	observe	Run3	observe/STIM_002.jpg
2631.099	1.68	1	observe	Run3	observe/STIM_003.jpg
2635.683	1.331	1	observe	Run3	observe/STIM_003.jpg
2639.638	1.712	0	observe	Run3	observe/STIM_003.jpg
2644.996	1.498	1	observe	Run3	observe/STIM_003.jpg
2649.572	1.226	1	observe	Run3	observe/STIM_004.jpg
2653.997	1.426	1	observe	Run3	observe/STIM_004.jpg
2658.363	0.979	1	observe	Run3	observe/STIM_004.jpg
2662.83	1.249	0	observe	Run3	observe/STIM_004.jpg
2667.28	1.656	0	observe	Run3	observe/STIM_005.jpg
2671.255	1.803	1	observe	Run3	observe/STIM_005.jpg
2676.582	1.355	1	observe	Run3	observe/STIM_005.jpg
2680.643	1.404	1	observe	Run3	observe/STIM_005.jpg
2685.794	1.06	1	observe	Run3	observe/STIM_006.jpg
2690.498	1.531	1	observe	Run3	observe/STIM_006.jpg
2694.424	1.692	0	observe	Run3	observe/STIM_006.jpg
2698.918	1.186	0	observe	Run3	observe/STIM_006.jpg
2702.233	0.97	1	observe	Run3	observe/STIM_007.jpg
2706.035	1.568	1	observe	Run3	observe/STIM_007.jpg
2709.874	0.961	0	observe	Run3	observe/STIM_007.jpg
2713.138	0.935	1	observe	Run3	observe/STIM_007.jpg
2717.747	1.266	1	observe	Run3	observe/STIM_008.jpg
2722.46	1.8	1	observe	Run3	observe/STIM_008.jpg
2727.691	1.764	1	observe	Run3	observe/STIM_008.jpg
2732.266	1.793	1	observe	Run3	observe/STIM_008.jpg
2737.556	1.385	0	observe	Run3	observe/STIM_009.jpg
2741.751	1.234	1	observe	Run3	observe/STIM_009.jpg
2745.418	1.286	1	observe	Run3	observe/STIM_009.jpg
2750.432	1.772	1	observe	Run3	observe/STIM_009.jpg
2755.212	1.784	1	observe	Run3	observe/STIM_010.jpg
2760.063	1.025	1	observe	Run3	observe/STIM_010.jpg
2763.108	1.177	1	observe	Run3	observe/STIM_010.jpg
2766.878	1.664	0	observe	Run3	observe/STIM_010.jpg
2770.858	1.272	1	observe	Run3	observe/STIM_011.jpg
2775.217	1.188	1	observe	Run3	observe/STIM_011.jpg
2779.574	1.583	1	observe	Run3	observe/STIM_011.jpg
2784.471	1.492	1	observe	Run3	observe/STIM_011.jpg
2788.323	1.222	1	observe	Run3	observe/STIM_012.jpg
2792.362	1.298	0	observe	Run3	observe/STIM_012.jpg
2796.726	1.43	1	observe	Run3	observe/STIM_012.jpg
2800.472	1.242	1	observe	Run3	observe/STIM_012.jpg
2805.607	1.469	1	observe	Run3	observe/STIM_013.jpg
2810.552	1.432	1	observe	Run3	observe/STIM_013.jpg
2815.182	1.178	1	observe	Run3	observe/STIM_013.jpg
2819.981	1.386	1	observe	Run3	observe/STIM_013.jpg
2824.441	1.409	1	observe	Run3	observe/STIM_014.jpg
2827.933	1.493	1	observe	Run3	observe/STIM_014.jpg
2831.854	1.791	0	observe	Run3	observe/STIM_014.jpg
2837.279	1.751	1	observe	Run3	observe/STIM_014.jpg
2841.769	1.583	1	observe	Run3	observe/STIM_015.jpg
2845.416	1.45	1	observe	Run3	observe/STIM_015.jpg
2850.328	1.742	1	observe	Run3	observe/STIM_015.jpg
2855.507	1.15	1	observe	Run3	observe/STIM_015.jpg
2859.656	1.675	1	observe	Run3	observe/STIM_016.jpg
2865.046	1.404	1	observe	Run3	observe/STIM_016.jpg
2869.193	1.276	0	observe	Run3	observe/STIM_016.jpg
2873.817	1.16	1	observe	Run3	observe/STIM_016.jpg
2877.826	1.559	1	observe	Run3	observe/STIM_017.jpg
2881.758	1.381	0	observe	Run3	observe/STIM_017.jpg
2886.217	1.435	1	observe	Run3	observe/STIM_017.jpg
2889.873	1.054	1	observe	Run3	observe/STIM_017.jpg
2893.141	1.259	0	observe	Run3	observe/STIM_018.jpg
2896.619	1.315	1	observe	Run3	observe/STIM_018.jpg
2900.614	1.401	0	observe	Run3	observe/STIM_018.jpg
2904.262	1.496	0	observe	Run3	observe/STIM_018.jpg
2909.371	1.779	1	observe	Run3	observe/STIM_019.jpg
2913.814	1.137	1	observe	Run3	observe/STIM_019.jpg
2918.251	1.238	1	observe	Run3	observe/STIM_019.jpg
2923.433	1.642	1	observe	Run3	observe/STIM_019.jpg
