onset	duration	response_time_ms	trial_type	learning_stage	stimulus	response_port
0.0	2.374	2374.5	regulate	Run1	regulate/STIM_000.jpg	99
5.914	2.78	2779.5	regulate	Run1	regulate/STIM_000.jpg	100
12.455	3.162	3161.8	regulate	Run1	regulate/STIM_000.jpg	100
19.476	3.24	3240.3	regulate	Run1	regulate/STIM_000.jpg	100
25.248	3.561	3561.2	regulate	Run1	regulate/STIM_001.jpg	100
32.363	3.038	3038.2	regulate	Run1	regulate/STIM_001.jpg	99
37.887	2.382	2381.6	regulate	Run1	regulate/STIM_001.jpg	99
43.669	3.35	3350.0	regulate	Run1	regulate/STIM_001.jpg	99
50.684	3.11	3109.7	regulate	Run1	regulate/STIM_002.jpg	100
56.796	1.609	1608.7	regulate	Run1	regulate/STIM_002.jpg	99
60.583	2.636	2636.3	regulate	Run1	regulate/STIM_002.jpg	100
65.318	2.049	2048.9	regulate	Run1	regulate/STIM_002.jpg	99
69.835	1.693	1693.1	regulate	Run1	regulate/STIM_003.jpg	99
75.502	3.094	3094.2	regulate	Run1	regulate/STIM_003.jpg	100
81.291	3.358	3357.9	regulate	Run1	regulate/STIM_003.jpg	100
86.649	2.898	2897.6	regulate	Run1	regulate/STIM_003.jpg	100
91.88	2.674	2673.7	regulate	Run1	regulate/STIM_004.jpg	99
97.785	1.713	1713.2	regulate	Run1	regulate/STIM_004.jpg	100
103.469	3.007	3006.6	regulate	Run1	regulate/STIM_004.jpg	99
108.649	2.025	2025.3	regulate	Run1	regulate/STIM_004.jpg	99
113.434	2.241	2241.3	regulate	Run1	regulate/STIM_005.jpg	99
117.848	2.542	2541.6	regulate	Run1	regulate/STIM_005.jpg	100
122.797	1.823	1822.9	regulate	Run1	regulate/STIM_005.jpg	99
127.268	2.355	2354.9	regulate	Run1	regulate/STIM_005.jpg	100
132.396	3.727	3726.8	regulate	Run1	regulate/STIM_006.jpg	100
138.128	2.039	2039.1	regulate	Run1	regulate/STIM_006.jpg	100
143.652	3.097	3097.4	regulate	Run1	regulate/STIM_006.jpg	100
149.041	1.719	1718.6	regulate	Run1	regulate/STIM_006.jpg	100
153.364	1.841	1841.2	regulate	Run1	regulate/STIM_007.jpg	100
157.815	3.021	3021.2	regulate	Run1	regulate/STIM_007.jpg	99
163.643	1.61	1610.0	regulate	Run1	regulate/STIM_007.jpg	99
168.688	3.215	3214.9	regulate	Run1	regulate/STIM_007.jpg	99
175.754	3.532	3531.5	regulate	Run1	regulate/STIM_008.jpg	100
182.524	2.067	2066.7	regulate	Run1	regulate/STIM_008.jpg	100
187.969	2.274	2273.8	regulate	Run1	regulate/STIM_008.jpg	100
193.414	2.941	2940.6	regulate	Run1	regulate/STIM_008.jpg	100
198.602	2.979	2978.8	regulate	Run1	regulate/STIM_009.jpg	99
203.761	1.608	1608.1	regulate	Run1	regulate/STIM_009.jpg	99
209.324	2.87	2869.6	regulate	Run1	regulate/STIM_009.jpg	99
214.355	3.001	3000.8	regulate	Run1	regulate/STIM_009.jpg	99
220.45	3.651	3650.8	regulate	Run1	regulate/STIM_010.jpg	99
226.569	2.566	2565.7	regulate	Run1	regulate/STIM_010.jpg	100
231.788	2.982	2981.5	regulate	Run1	regulate/STIM_010.jpg	100
237.909	1.531	1530.6	regulate	Run1	regulate/STIM_010.jpg	100
242.346	2.05	2050.3	regulate	Run1	regulate/STIM_011.jpg	99
247.386	2.034	2033.8	regulate	Run1	regulate/STIM_011.jpg	99
252.82	2.161	2160.7	regulate	Run1	regulate/STIM_011.jpg	99
258.625	2.177	2176.9	regulate	Run1	regulate/STIM_011.jpg	99
263.338	3.334	3333.9	regulate	Run1	regulate/STIM_012.jpg	100
270.084	2.345	2345.4	regulate	Run1	regulate/STIM_012.jpg	100
275.038	2.675	2675.4	regulate	Run1	regulate/STIM_012.jpg	99
279.833	1.781	1781.1	regulate	Run1	regulate/STIM_012.jpg	100
284.457	3.189	3188.8	regulate	Run1	regulate/STIM_013.jpg	100
291.575	2.293	2292.9	regulate	Run1	regulate/STIM_013.jpg	99
296.447	1.584	1583.6	regulate	Run1	regulate/STIM_013.jpg	99
300.253	2.564	2564.5	regulate	Run1	regulate/STIM_013.jpg	100
305.823	1.714	1713.9	regulate	Run1	regulate/STIM_014.jpg	99
310.207	1.615	1614.8	regulate	Run1	regulate/STIM_014.jpg	100
314.822	3.351	3351.0	regulate	Run1	regulate/STIM_014.jpg	100
321.702	3.171	3170.6	regulate	Run1	regulate/STIM_014.jpg	99
328.691	2.634	2634.2	regulate	Run1	regulate/STIM_015.jpg	100
335.188	2.298	2297.9	regulate	Run1	regulate/STIM_015.jpg	100
340.761	3.405	3405.3	regulate	Run1	regulate/STIM_015.jpg	100
347.021	2.145	2144.8	regulate	Run1	regulate/STIM_015.jpg	99
352.139	3.226	3226.1	regulate	Run1	regulate/STIM_016.jpg	99
357.8	3.192	3191.8	regulate	Run1	regulate/STIM_016.jpg	99
364.822	2.494	2493.6	regulate	Run1	regulate/STIM_016.jpg	99
370.963	2.899	2899.2	regulate	Run1	regulate/STIM_016.jpg	100
376.149	1.957	1957.0	regulate	Run1	regulate/STIM_017.jpg	99
380.94	2.76	2760.2	regulate	Run1	regulate/STIM_017.jpg	100
386.519	1.945	1945.4	regulate	Run1	regulate/STIM_017.jpg	100
392.054	2.502	2501.6	regulate	Run1	regulate/STIM_017.jpg	100
398.512	3.022	3022.2	regulate	Run1	regulate/STIM_018.jpg	100
405.522	2.916	2915.6	regulate	Run1	regulate/STIM_018.jpg	100
412.418	2.1	2100.3	regulate	Run1	regulate/STIM_018.jpg	100
417.993	2.867	2867.0	regulate	Run1	regulate/STIM_018.jpg	100
424.695	3.661	3660.9	regulate	Run1	regulate/STIM_019.jpg	100
430.902	2.064	2063.7	regulate	Run1	regulate/STIM_019.jpg	99
436.871	1.547	1547.1	regulate	Run1	regulate/STIM_019.jpg	100
441.412	2.229	2228.8	regulate	Run1	regulate/STIM_019.jpg	99
445.846	2.278	2278.3	regulate	Run1	regulate/STIM_020.jpg	100
450.558	3.504	3504.0	regulate	Run1	regulate/STIM_020.jpg	100
456.652	2.066	2066.0	regulate	Run1	regulate/STIM_020.jpg	99
460.958	2.901	2901.0	regulate	Run1	regulate/STIM_020.jpg	100
467.251	1.693	1693.0	regulate	Run1	regulate/STIM_021.jpg	99
472.146	1.95	1949.9	regulate	Run1	regulate/STIM_021.jpg	99
476.421	3.366	3366.4	regulate	Run1	regulate/STIM_021.jpg	100
483.428	2.91	2909.9	regulate	Run1	regulate/STIM_021.jpg	100
488.377	3.794	3794.2	regulate	Run1	regulate/STIM_022.jpg	99
494.821	1.764	1763.8	regulate	Run1	regulate/STIM_022.jpg	99
498.734	2.618	2617.7	regulate	Run1	regulate/STIM_022.jpg	99
503.438	1.505	1505.4	regulate	Run1	regulate/STIM_022.jpg	99
508.349	2.651	2650.9	regulate	Run1	regulate/STIM_023.jpg	100
513.388	2.907	2906.8	regulate	Run1	regulate/STIM_023.jpg	100
519.966	2.72	2719.9	regulate	Run1	regulate/STIM_023.jpg	99
524.729	2.12	2119.7	regulate	Run1	regulate/STIM_023.jpg	99
529.348	3.867	3867.0	regulate	Run1	regulate/STIM_024.jpg	99
537.215	2.435	2435.3	regulate	Run1	regulate/STIM_024.jpg	100
542.725	3.53	3529.7	regulate	Run1	regulate/STIM_024.jpg	99
549.643	2.502	2501.5	regulate	Run1	regulate/STIM_024.jpg	100
554.487	3.714	3713.8	regulate	Run1	regulate/STIM_025.jpg	100
562.107	1.774	1773.9	regulate	Run1	regulate/STIM_025.jpg	99
567.359	2.442	2442.2	regulate	Run1	regulate/STIM_025.jpg	100
572.18	2.569	2569.3	regulate	Run1	regulate/STIM_025.jpg	99
577.901	3.019	3018.8	regulate	Run1	regulate/STIM_026.jpg	100
584.91	3.011	3011.2	regulate	Run1	regulate/STIM_026.jpg	99
591.555	2.703	2703.1	regulate	Run1	regulate/STIM_026.jpg	100
596.416	1.517	1517.1	regulate	Run1	regulate/STIM_026.jpg	99
601.082	2.009	2009.2	regulate	Run1	regulate/STIM_027.jpg	99
606.194	2.818	2817.6	regulate	Run1	regulate/STIM_027.jpg	99
612.504	2.377	2377.0	regulate	Run1	regulate/STIM_027.jpg	100
618.681	2.045	2045.1	regulate	Run1	regulate/STIM_027.jpg	100
623.872	2.874	2873.9	regulate	Run1	regulate/STIM_028.jpg	100
628.76	1.772	1772.3	regulate	Run1	regulate/STIM_028.jpg	99
633.759	2.229	2229.3	regulate	Run1	regulate/STIM_028.jpg	100
639.194	2.98	2980.3	regulate	Run1	regulate/STIM_028.jpg	99
645.896	3.696	3695.6	regulate	Run1	regulate/STIM_029.jpg	99
651.736	1.746	1746.2	regulate	Run1	regulate/STIM_029.jpg	99
657.1	2.49	2490.4	regulate	Run1	regulate/STIM_029.jpg	99
663.127	2.712	2712.5	regulate	Run1	regulate/STIM_029.jpg	99
669.594	1.574	1574.1	observe	Run1	observe/STIM_000.jpg	99
673.635	1.245	1244.7	observe	Run1	observe/STIM_000.jpg	99
678.021	1.639	1639.4	observe	Run1	observe/STIM_000.jpg	100
683.161	1.663	1663.4	observe	Run1	observe/STIM_000.jpg	100
686.932	1.797	1797.0	observe	Run1	observe/STIM_001.jpg	99
691.42	1.051	1051.3	observe	Run1	observe/STIM_001.jpg	100
696.095	1.639	1638.8	observe	Run1	observe/STIM_001.jpg	100
701.6	1.358	1358.1	observe	Run1	observe/STIM_001.jpg	99
706.373	1.064	1063.8	observe	Run1	observe/STIM_002.jpg	100
710.629	1.699	1699.3	observe	Run1	observe/STIM_002.jpg	99
715.839	1.227	1227.4	observe	Run1	observe/STIM_002.jpg	99
719.838	1.74	1740.4	observe	Run1	observe/STIM_002.jpg	99
723.893	1.103	1103.0	observe	Run1	observe/STIM_003.jpg	99
727.795	1.178	1178.2	observe	Run1	observe/STIM_003.jpg	99
730.997	0.984	983.9	observe	Run1	observe/STIM_003.jpg	99
734.371	1.092	1092.1	observe	Run1	observe/STIM_003.jpg	100
738.42	1.626	1626.0	observe	Run1	observe/STIM_004.jpg	100
743.852	1.137	1137.4	observe	Run1	observe/STIM_004.jpg	99
748.14	1.157	1157.3	observe	Run1	observe/STIM_004.jpg	100
751.364	1.66	1659.6	observe	Run1	observe/STIM_004.jpg	99
756.565	0.926	926.4	observe	Run1	observe/STIM_005.jpg	100
760.292	1.02	1020.3	observe	Run1	observe/STIM_005.jpg	100
764.026	1.275	1274.8	observe	Run1	observe/STIM_005.jpg	100
767.688	1.749	1748.8	observe	Run1	observe/STIM_005.jpg	99
771.623	1.69	1689.8	observe	Run1	observe/STIM_006.jpg	99
775.733	1.717	1717.4	observe	Run1	observe/STIM_006.jpg	100
780.648	1.6	1600.5	observe	Run1	observe/STIM_006.jpg	99
785.789	1.332	1332.3	observe	Run1	observe/STIM_006.jpg	100
790.88	1.716	1716.5	observe	Run1	observe/STIM_007.jpg	100
794.71	0.996	996.4	observe	Run1	observe/STIM_007.jpg	100
799.366	1.35	1349.9	observe	Run1	observe/STIM_007.jpg	100
803.898	1.38	1380.4	observe	Run1	observe/STIM_007.jpg	99
808.498	1.034	1033.5	observe	Run1	observe/STIM_008.jpg	99
812.996	1.005	1005.3	observe	Run1	observe/STIM_008.jpg	99
816.388	1.474	1473.6	observe	Run1	observe/STIM_008.jpg	99
820.04	1.265	1264.9	observe	Run1	observe/STIM_008.jpg	100
824.117	1.154	1153.7	observe	Run1	observe/STIM_009.jpg	100
828.04	1.344	1344.3	observe	Run1	observe/STIM_009.jpg	100
832.065	1.729	1728.6	observe	Run1	observe/STIM_009.jpg	100
837.14	1.595	1595.0	observe	Run1	observe/STIM_009.jpg	99
842.374	1.247	1247.3	observe	Run1	observe/STIM_010.jpg	100
846.429	1.529	1528.9	observe	Run1	observe/STIM_010.jpg	99
850.604	1.482	1481.5	observe	Run1	observe/STIM_010.jpg	99
855.448	1.642	1642.0	observe	Run1	observe/STIM_010.jpg	99
860.942	1.451	1451.1	observe	Run1	observe/STIM_011.jpg	99
865.199	1.212	1212.3	observe	Run1	observe/STIM_011.jpg	99
870.386	1.788	1788.1	observe	Run1	observe/STIM_011.jpg	100
875.969	1.1	1100.4	observe	Run1	observe/STIM_011.jpg	99
880.07	1.628	1627.8	observe	Run1	observe/STIM_012.jpg	100
884.474	1.094	1093.9	observe	Run1	observe/STIM_012.jpg	100
888.881	0.992	992.5	observe	Run1	observe/STIM_012.jpg	100
892.52	1.513	1512.7	observe	Run1	observe/STIM_012.jpg	100
897.84	1.053	1052.7	observe	Run1	observe/STIM_013.jpg	99
902.794	1.074	1074.0	observe	Run1	observe/STIM_013.jpg	99
907.3	1.703	1703.3	observe	Run1	observe/STIM_013.jpg	100
911.612	1.574	1574.5	observe	Run1	observe/STIM_013.jpg	99
915.673	1.661	1660.6	observe	Run1	observe/STIM_014.jpg	100
919.416	1.674	1674.5	observe	Run1	observe/STIM_014.jpg	100
924.624	1.019	1019.3	observe	Run1	observe/STIM_014.jpg	99
929.454	0.931	931.3	observe	Run1	observe/STIM_014.jpg	100
933.142	1.086	1085.6	observe	Run1	observe/STIM_015.jpg	99
938.191	1.357	1356.7	observe	Run1	observe/STIM_015.jpg	100
942.813	0.972	971.7	observe	Run1	observe/STIM_015.jpg	100
945.815	1.047	1046.7	observe	Run1	observe/STIM_015.jpg	100
949.755	1.538	1538.4	observe	Run1	observe/STIM_016.jpg	100
954.282	1.719	1719.2	observe	Run1	observe/STIM_016.jpg	100
958.811	1.248	1247.9	observe	Run1	observe/STIM_016.jpg	99
963.207	1.083	1082.6	observe	Run1	observe/STIM_016.jpg	100
966.396	1.795	1795.0	observe	Run1	observe/STIM_017.jpg	100
970.892	1.699	1699.3	observe	Run1	observe/STIM_017.jpg	100
976.39	1.584	1584.1	observe	Run1	observe/STIM_017.jpg	99
981.213	1.51	1510.0	observe	Run1	observe/STIM_017.jpg	99
985.389	1.415	1415.1	observe	Run1	observe/STIM_018.jpg	100
990.677	1.287	1286.6	observe	Run1	observe/STIM_018.jpg	99
994.794	1.311	1311.0	observe	Run1	observe/STIM_018.jpg	100
1000.023	1.105	1104.8	observe	Run1	observe/STIM_018.jpg	100
1003.806	1.16	1160.5	observe	Run1	observe/STIM_019.jpg	100
1007.422	1.448	1447.9	observe	Run1	observe/STIM_019.jpg	100
1011.614	0.973	972.8	observe	Run1	observe/STIM_019.jpg	99
1015.506	1.256	1256.5	observe	Run1	observe/STIM_019.jpg	100
1019.72	2.687	2687.2	regulate	Run2	regulate/STIM_000.jpg	100
1024.747	2.043	2042.8	regulate	Run2	regulate/STIM_000.jpg	100
1028.991	1.952	1952.4	regulate	Run2	regulate/STIM_000.jpg	100
1033.905	1.436	1436.5	regulate	Run2	regulate/STIM_000.jpg	99
1037.926	3.248	3248.4	regulate	Run2	regulate/STIM_001.jpg	99
1045.041	2.854	2853.5	regulate	Run2	regulate/STIM_001.jpg	99
1050.48	2.015	2015.4	regulate	Run2	regulate/STIM_001.jpg	99
1055.614	1.813	1813.4	regulate	Run2	regulate/STIM_001.jpg	100
1061.158	1.56	1560.1	regulate	Run2	regulate/STIM_002.jpg	99
1064.76	2.288	2287.6	regulate	Run2	regulate/STIM_002.jpg	99
1070.535	2.195	2195.0	regulate	Run2	regulate/STIM_002.jpg	99
1076.511	1.651	1651.2	regulate	Run2	regulate/STIM_002.jpg	99
1080.644	3.074	3074.0	regulate	Run2	regulate/STIM_003.jpg	100
1085.797	2.743	2743.4	regulate	Run2	regulate/STIM_003.jpg	99
1090.615	1.651	1651.0	regulate	Run2	regulate/STIM_003.jpg	100
1094.533	1.21	1209.7	regulate	Run2	regulate/STIM_003.jpg	99
1097.877	3.152	3152.2	regulate	Run2	regulate/STIM_004.jpg	99
1103.551	2.221	2220.6	regulate	Run2	regulate/STIM_004.jpg	100
1109.019	2.767	2766.7	regulate	Run2	regulate/STIM_004.jpg	99
1114.15	1.684	1683.9	regulate	Run2	regulate/STIM_004.jpg	100
1119.412	3.29	3289.5	regulate	Run2	regulate/STIM_005.jpg	99
1125.241	3.038	3037.6	regulate	Run2	regulate/STIM_005.jpg	99
1130.635	2.771	2770.9	regulate	Run2	regulate/STIM_005.jpg	99
1137.035	1.359	1358.7	regulate	Run2	regulate/STIM_005.jpg	100
1142.105	2.086	2085.7	regulate	Run2	regulate/STIM_006.jpg	99
1146.944	1.988	1988.1	regulate	Run2	regulate/STIM_006.jpg	99
1152.715	1.269	1268.7	regulate	Run2	regulate/STIM_006.jpg	100
1156.448	1.448	1448.2	regulate	Run2	regulate/STIM_006.jpg	100
1160.898	2.016	2016.0	regulate	Run2	regulate/STIM_007.jpg	100
1165.178	2.317	2316.6	regulate	Run2	regulate/STIM_007.jpg	100
1171.491	2.953	2952.9	regulate	Run2	regulate/STIM_007.jpg	100
1177.673	1.245	1245.2	regulate	Run2	regulate/STIM_007.jpg	99
1181.239	2.197	2197.4	regulate	Run2	regulate/STIM_008.jpg	99
1186.397	2.756	2755.7	regulate	Run2	regulate/STIM_008.jpg	100
1192.653	2.951	2950.8	regulate	Run2	regulate/STIM_008.jpg	100
1199.019	1.977	1977.1	regulate	Run2	regulate/STIM_008.jpg	100
1204.446	1.892	1892.3	regulate	Run2	regulate/STIM_009.jpg	99
1210.176	1.916	1915.5	regulate	Run2	regulate/STIM_009.jpg	100
1215.759	1.449	1448.7	regulate	Run2	regulate/STIM_009.jpg	99
1219.247	1.666	1666.5	regulate	Run2	regulate/STIM_009.jpg	100
1224.485	2.485	2484.8	regulate	Run2	regulate/STIM_010.jpg	100
1230.331	2.531	2530.6	regulate	Run2	regulate/STIM_010.jpg	99
1234.925	2.284	2284.0	regulate	Run2	regulate/STIM_010.jpg	100
1241.124	2.337	2336.6	regulate	Run2	regulate/STIM_010.jpg	99
1245.844	2.152	2151.9	regulate	Run2	regulate/STIM_011.jpg	100
1251.546	1.896	1896.5	regulate	Run2	regulate/STIM_011.jpg	100
1256.266	2.953	2952.8	regulate	Run2	regulate/STIM_011.jpg	100
1262.043	1.662	1662.1	regulate	Run2	regulate/STIM_011.jpg	99
1266.084	1.859	1859.3	regulate	Run2	regulate/STIM_012.jpg	100
1271.043	1.772	1771.6	regulate	Run2	regulate/STIM_012.jpg	99
1275.665	2.101	2101.4	regulate	Run2	regulate/STIM_012.jpg	99
1281.561	1.775	1775.4	regulate	Run2	regulate/STIM_012.jpg	100
1285.398	2.382	2381.6	regulate	Run2	regulate/STIM_013.jpg	100
1290.247	1.409	1408.6	regulate	Run2	regulate/STIM_013.jpg	99
1294.068	1.956	1955.9	regulate	Run2	regulate/STIM_013.jpg	100
1299.38	1.664	1663.8	regulate	Run2	regulate/STIM_013.jpg	99
1304.606	2.576	2576.1	regulate	Run2	regulate/STIM_014.jpg	99
1311.032	1.437	1437.1	regulate	Run2	regulate/STIM_014.jpg	100
1315.51	1.653	1653.1	regulate	Run2	regulate/STIM_014.jpg	99
1320.627	1.858	1857.8	regulate	Run2	regulate/STIM_014.jpg	99
1325.762	1.487	1487.4	regulate	Run2	regulate/STIM_015.jpg	99
1330.345	1.49	1489.5	regulate	Run2	regulate/STIM_015.jpg	100
1334.394	1.896	1895.8	regulate	Run2	regulate/STIM_015.jpg	100
1339.38	2.147	2147.2	regulate	Run2	regulate/STIM_015.jpg	100
1344.747	3.273	3273.1	regulate	Run2	regulate/STIM_016.jpg	99
1350.924	2.814	2814.5	regulate	Run2	regulate/STIM_016.jpg	99
1356.746	2.467	2467.3	regulate	Run2	regulate/STIM_016.jpg	100
1362.17	2.748	2747.8	regulate	Run2	regulate/STIM_016.jpg	99
1368.027	3.156	3156.3	regulate	Run2	regulate/STIM_017.jpg	99
1373.919	2.399	2399.2	regulate	Run2	regulate/STIM_017.jpg	99
1378.47	1.874	1873.6	regulate	Run2	regulate/STIM_017.jpg	99
1382.64	1.814	1814.5	regulate	Run2	regulate/STIM_017.jpg	99
1387.683	2.332	2331.7	regulate	Run2	regulate/STIM_018.jpg	99
1393.753	1.9	1899.5	regulate	Run2	regulate/STIM_018.jpg	99
1398.389	2.618	2618.4	regulate	Run2	regulate/STIM_018.jpg	99
1403.481	2.344	2344.0	regulate	Run2	regulate/STIM_018.jpg	99
1409.048	1.807	1807.0	regulate	Run2	regulate/STIM_019.jpg	99
1413.557	2.371	2370.7	regulate	Run2	regulate/STIM_019.jpg	100
1419.426	2.726	2726.0	regulate	Run2	regulate/STIM_019.jpg	99
1425.277	1.876	1876.2	regulate	Run2	regulate/STIM_019.jpg	100
1430.088	2.813	2813.4	regulate	Run2	regulate/STIM_020.jpg	100
1436.561	2.443	2443.3	regulate	Run2	regulate/STIM_020.jpg	100
1441.073	1.502	1501.5	regulate	Run2	regulate/STIM_020.jpg	100
1445.659	1.682	1682.5	regulate	Run2	regulate/STIM_020.jpg	100
1450.27	2.226	2225.5	regulate	Run2	regulate/STIM_021.jpg	99
1456.32	1.711	1711.3	regulate	Run2	regulate/STIM_021.jpg	99
1461.534	1.477	1476.6	regulate	Run2	regulate/STIM_021.jpg	100
1465.396	2.512	2511.6	regulate	Run2	regulate/STIM_021.jpg	100
1471.252	1.46	1459.8	regulate	Run2	regulate/STIM_022.jpg	100
1475.409	2.519	2519.2	regulate	Run2	regulate/STIM_022.jpg	100
1480.543	1.43	1429.6	regulate	Run2	regulate/STIM_022.jpg	99
1485.423	1.417	1416.9	regulate	Run2	regulate/STIM_022.jpg	99
1488.955	1.538	1537.6	regulate	Run2	regulate/STIM_023.jpg	100
1493.722	2.101	2101.1	regulate	Run2	regulate/STIM_023.jpg	99
1498.542	2.387	2387.0	regulate	Run2	regulate/STIM_023.jpg	100
1502.971	2.45	2450.0	regulate	Run2	regulate/STIM_023.jpg	99
1509.086	3.271	3270.6	regulate	Run2	regulate/STIM_024.jpg	100
1514.731	2.3	2300.3	regulate	Run2	regulate/STIM_024.jpg	100
1519.574	1.292	1291.8	regulate	Run2	regulate/STIM_024.jpg	99
1524.067	2.605	2605.4	regulate	Run2	regulate/STIM_024.jpg	99
1530.161	1.612	1611.7	regulate	Run2	regulate/STIM_025.jpg	100
1534.473	1.974	1973.8	regulate	Run2	regulate/STIM_025.jpg	100
1539.277	1.93	1930.2	regulate	Run2	regulate/STIM_025.jpg	100
1543.281	2.046	2046.2	regulate	Run2	regulate/STIM_025.jpg	100
1549.031	2.188	2188.2	regulate	Run2	regulate/STIM_026.jpg	100
1553.751	1.558	1558.3	regulate	Run2	regulate/STIM_026.jpg	100
1558.404	2.323	2322.9	regulate	Run2	regulate/STIM_026.jpg	99
1564.1	2.127	2126.8	regulate	Run2	regulate/STIM_026.jpg	100
1568.984	2.339	2339.2	regulate	Run2	regulate/STIM_027.jpg	99
1573.948	2.715	2714.7	regulate	Run2	regulate/STIM_027.jpg	100
1580.367	2.333	2333.1	regulate	Run2	regulate/STIM_027.jpg	100
1584.704	1.407	1407.3	regulate	Run2	regulate/STIM_027.jpg	99
1589.528	2.06	2060.0	regulate	Run2	regulate/STIM_028.jpg	99
1595.06	2.144	2144.2	regulate	Run2	regulate/STIM_028.jpg	99
1599.802	2.617	2617.4	regulate	Run2	regulate/STIM_028.jpg	99
1606.134	1.187	1186.7	regulate	Run2	regulate/STIM_028.jpg	99
1610.999	2.121	2121.0	regulate	Run2	regulate/STIM_029.jpg	100
1615.346	1.684	1683.9	regulate	Run2	regulate/STIM_029.jpg	100
1619.289	1.864	1864.2	regulate	Run2	regulate/STIM_029.jpg	99
1624.195	1.916	1916.5	regulate	Run2	regulate/STIM_029.jpg	99
1630.021	1.437	1437.3	observe	Run2	observe/STIM_000.jpg	100
1634.316	1.707	1707.1	observe	Run2	observe/STIM_000.jpg	99
1639.438	0.981	981.1	observe	Run2	observe/STIM_000.jpg	99
1642.966	1.197	1197.3	observe	Run2	observe/STIM_000.jpg	100
1647.12	1.378	1377.8	observe	Run2	observe/STIM_001.jpg	100
1650.948	1.515	1515.1	observe	Run2	observe/STIM_001.jpg	99
1655.282	0.974	974.4	observe	Run2	observe/STIM_001.jpg	100
1658.707	1.429	1429.0	observe	Run2	observe/STIM_001.jpg	100
1663.671	1.802	1802.5	observe	Run2	observe/STIM_002.jpg	100
1669.438	1.084	1084.0	observe	Run2	observe/STIM_002.jpg	99
1674.133	1.526	1525.5	observe	Run2	observe/STIM_002.jpg	100
1678.013	1.254	1253.7	observe	Run2	observe/STIM_002.jpg	100
1682.169	1.083	1082.8	observe	Run2	observe/STIM_003.jpg	99
1686.855	0.956	956.4	observe	Run2	observe/STIM_003.jpg	99
1690.959	1.315	1315.1	observe	Run2	observe/STIM_003.jpg	100
1694.713	1.614	1613.5	observe	Run2	observe/STIM_003.jpg	100
1700.053	1.063	1062.8	observe	Run2	observe/STIM_004.jpg	99
1703.897	1.272	1272.1	observe	Run2	observe/STIM_004.jpg	99
1708.1	1.392	1392.5	observe	Run2	observe/STIM_004.jpg	100
1713.052	1.445	1445.2	observe	Run2	observe/STIM_004.jpg	100
1717.166	1.504	1504.4	observe	Run2	observe/STIM_005.jpg	99
1722.371	1.432	1432.2	observe	Run2	observe/STIM_005.jpg	99
1727.298	0.991	991.2	observe	Run2	observe/STIM_005.jpg	100
1731.321	1.213	1213.0	observe	Run2	observe/STIM_005.jpg	99
1735.542	1.132	1131.8	observe	Run2	observe/STIM_006.jpg	100
1740.51	0.925	925.2	observe	Run2	observe/STIM_006.jpg	100
1744.647	1.692	1692.3	observe	Run2	observe/STIM_006.jpg	99
1749.727	1.469	1468.7	observe	Run2	observe/STIM_006.jpg	100
1754.732	1.7	1700.3	observe	Run2	observe/STIM_007.jpg	99
1758.447	1.571	1571.2	observe	Run2	observe/STIM_007.jpg	99
1763.731	0.995	995.3	observe	Run2	observe/STIM_007.jpg	99
1767.253	0.918	918.3	observe	Run2	observe/STIM_007.jpg	99
1771.764	1.258	1257.7	observe	Run2	observe/STIM_008.jpg	100
1775.77	1.163	1163.0	observe	Run2	observe/STIM_008.jpg	99
1780.062	1.699	1698.7	observe	Run2	observe/STIM_008.jpg	99
1784.762	1.22	1219.7	observe	Run2	observe/STIM_008.jpg	100
1788.067	0.974	974.5	observe	Run2	observe/STIM_009.jpg	100
1792.936	1.559	1559.1	observe	Run2	observe/STIM_009.jpg	99
1797.803	0.915	915.2	observe	Run2	observe/STIM_009.jpg	100
1801.713	1.416	1416.0	observe	Run2	observe/STIM_009.jpg	99
1805.83	1.447	1447.3	observe	Run2	observe/STIM_010.jpg	99
1810.504	1.766	1765.6	observe	Run2	observe/STIM_010.jpg	99
1815.588	1.117	1117.0	observe	Run2	observe/STIM_010.jpg	100
1819.579	1.738	1737.6	observe	Run2	observe/STIM_010.jpg	100
1823.359	1.463	1463.1	observe	Run2	observe/STIM_011.jpg	99
1828.17	1.716	1716.1	observe	Run2	observe/STIM_011.jpg	100
1831.94	1.716	1715.7	observe	Run2	observe/STIM_011.jpg	99
1836.113	1.054	1054.3	observe	Run2	observe/STIM_011.jpg	99
1840.392	1.561	1560.7	observe	Run2	observe/STIM_012.jpg	99
1844.279	1.166	1165.9	observe	Run2	observe/STIM_012.jpg	99
1849.347	1.303	1303.3	observe	Run2	observe/STIM_012.jpg	100
1854.151	1.599	1599.0	observe	Run2	observe/STIM_012.jpg	100
1857.807	1.752	1752.4	observe	Run2	observe/STIM_013.jpg	99
1861.702	1.174	1174.4	observe	Run2	observe/STIM_013.jpg	100
1866.36	1.437	1436.7	observe	Run2	observe/STIM_013.jpg	99
1870.02	1.137	1137.0	observe	Run2	observe/STIM_013.jpg	99
1874.134	1.182	1182.3	observe	Run2	observe/STIM_014.jpg	99
1878.055	1.426	1425.5	observe	Run2	observe/STIM_014.jpg	100
1882.842	1.354	1353.7	observe	Run2	observe/STIM_014.jpg	99
1888.105	1.401	1401.1	observe	Run2	observe/STIM_014.jpg	100
1891.545	1.067	1067.3	observe	Run2	observe/STIM_015.jpg	100
1895.057	1.044	1043.6	observe	Run2	observe/STIM_015.jpg	99
1898.306	0.915	914.6	observe	Run2	observe/STIM_015.jpg	100
1902.771	1.331	1330.8	observe	Run2	observe/STIM_015.jpg	99
1907.189	0.906	905.8	observe	Run2	observe/STIM_016.jpg	99
1911.942	1.445	1445.3	observe	Run2	observe/STIM_016.jpg	99
1916.008	1.499	1499.0	observe	Run2	observe/STIM_016.jpg	99
1921.181	0.999	999.0	observe	Run2	observe/STIM_016.jpg	100
1925.617	1.298	1298.0	observe	Run2	observe/STIM_017.jpg	100
1930.863	1.507	1506.9	observe	Run2	observe/STIM_017.jpg	100
1934.662	1.689	1689.3	observe	Run2	observe/STIM_017.jpg	100
1938.855	1.6	1600.2	observe	Run2	observe/STIM_017.jpg	99
1943.19	1.51	1509.7	observe	Run2	observe/STIM_018.jpg	100
1946.935	1.165	1164.7	observe	Run2	observe/STIM_018.jpg	100
1951.704	1.518	1518.3	observe	Run2	observe/STIM_018.jpg	100
1957.053	1.76	1760.1	observe	Run2	observe/STIM_018.jpg	100
1962.252	1.354	1353.8	observe	Run2	observe/STIM_019.jpg	100
1966.29	1.758	1758.5	observe	Run2	observe/STIM_019.jpg	100
1971.002	1.324	1324.3	observe	Run2	observe/STIM_019.jpg	100
1974.415	1.295	1295.3	observe	Run2	observe/STIM_019.jpg	100
1978.949	2.158	2158.1	regulate	Run3	regulate/STIM_000.jpg	99
1983.172	2.622	2621.7	regulate	Run3	regulate/STIM_000.jpg	100
1989.432	2.387	2387.0	regulate	Run3	regulate/STIM_000.jpg	99
1995.583	2.489	2489.3	regulate	Run3	regulate/STIM_000.jpg	99
2000.939	2.114	2114.3	regulate	Run3	regulate/STIM_001.jpg	100
2005.936	2.482	2481.9	regulate	Run3	regulate/STIM_001.jpg	99
2010.861	2.221	2221.4	regulate	Run3	regulate/STIM_001.jpg	100
2015.393	2.659	2659.4	regulate	Run3	regulate/STIM_001.jpg	100
2020.228	2.057	2057.0	regulate	Run3	regulate/STIM_002.jpg	99
2025.926	1.707	1706.7	regulate	Run3	regulate/STIM_002.jpg	99
2030.874	2.598	2598.3	regulate	Run3	regulate/STIM_002.jpg	100
2035.739	1.644	1644.3	regulate	Run3	regulate/STIM_002.jpg	100
2039.553	2.68	2680.2	regulate	Run3	regulate/STIM_003.jpg	99
2045.114	2.273	2272.6	regulate	Run3	regulate/STIM_003.jpg	99
2051.161	2.574	2573.8	regulate	Run3	regulate/STIM_003.jpg	100
2056.194	2.537	2536.9	regulate	Run3	regulate/STIM_003.jpg	100
2062.653	1.887	1886.9	regulate	Run3	regulate/STIM_004.jpg	100
2067.742	1.815	1815.3	regulate	Run3	regulate/STIM_004.jpg	100
2072.33	1.901	1900.6	regulate	Run3	regulate/STIM_004.jpg	99
2077.796	2.72	2719.6	regulate	Run3	regulate/STIM_004.jpg	99
2084.379	1.459	1458.6	regulate	Run3	regulate/STIM_005.jpg	100
2089.68	1.545	1544.7	regulate	Run3	regulate/STIM_005.jpg	99
2094.788	2.723	2722.6	regulate	Run3	regulate/STIM_005.jpg	100
2099.779	1.464	1464.1	regulate	Run3	regulate/STIM_005.jpg	100
2103.408	2.068	2068.3	regulate	Run3	regulate/STIM_006.jpg	100
2109.296	1.184	1184.3	regulate	Run3	regulate/STIM_006.jpg	99
2113.735	2.76	2759.8	regulate	Run3	regulate/STIM_006.jpg	100
2119.728	1.678	1678.0	regulate	Run3	regulate/STIM_006.jpg	99
2124.926	2.323	2322.6	regulate	Run3	regulate/STIM_007.jpg	100
2130.308	2.747	2746.9	regulate	Run3	regulate/STIM_007.jpg	100
2135.983	1.84	1839.8	regulate	Run3	regulate/STIM_007.jpg	100
2140.658	2.403	2402.8	regulate	Run3	regulate/STIM_007.jpg	99
2146.903	2.205	2204.6	regulate	Run3	regulate/STIM_008.jpg	99
2151.429	1.294	1294.1	regulate	Run3	regulate/STIM_008.jpg	100
2155.437	2.304	2304.1	regulate	Run3	regulate/STIM_008.jpg	100
2160.78	1.727	1727.2	regulate	Run3	regulate/STIM_008.jpg	100
2165.769	1.71	1709.6	regulate	Run3	regulate/STIM_009.jpg	100
2170.299	1.376	1375.5	regulate	Run3	regulate/STIM_009.jpg	99
2174.807	2.628	2628.4	regulate	Run3	regulate/STIM_009.jpg	100
2181.129	2.554	2553.5	regulate	Run3	regulate/STIM_009.jpg	99
2186.54	2.713	2712.9	regulate	Run3	regulate/STIM_010.jpg	100
2192.657	1.905	1905.3	regulate	Run3	regulate/STIM_010.jpg	100
2198.099	2.597	2596.9	regulate	Run3	regulate/STIM_010.jpg	100
2204.313	2.609	2608.7	regulate	Run3	regulate/STIM_010.jpg	99
2210.391	1.481	1481.1	regulate	Run3	regulate/STIM_011.jpg	99
2215.004	2.582	2581.8	regulate	Run3	regulate/STIM_011.jpg	100
2219.698	1.913	1912.7	regulate	Run3	regulate/STIM_011.jpg	100
2224.387	1.367	1367.4	regulate	Run3	regulate/STIM_011.jpg	99
2229.261	2.581	2580.9	regulate	Run3	regulate/STIM_012.jpg	100
2234.68	1.636	1636.3	regulate	Run3	regulate/STIM_012.jpg	100
2239.325	2.572	2572.3	regulate	Run3	regulate/STIM_012.jpg	99
2244.877	1.641	1641.3	regulate	Run3	regulate/STIM_012.jpg	99
2248.891	1.364	1364.1	regulate	Run3	regulate/STIM_013.jpg	99
2253.502	2.62	2620.5	regulate	Run3	regulate/STIM_013.jpg	99
2259.101	1.746	1746.1	regulate	Run3	regulate/STIM_013.jpg	100
2263.484	1.95	1949.8	regulate	Run3	regulate/STIM_013.jpg	100
2267.809	1.997	1996.6	regulate	Run3	regulate/STIM_014.jpg	99
2273.013	2.562	2562.1	regulate	Run3	regulate/STIM_014.jpg	100
2278.165	1.805	1804.9	regulate	Run3	regulate/STIM_014.jpg	100
2282.979	2.086	2086.1	regulate	Run3	regulate/STIM_014.jpg	99
2288.366	1.716	1716.0	regulate	Run3	regulate/STIM_015.jpg	99
2292.628	1.478	1477.6	regulate	Run3	regulate/STIM_015.jpg	99
2296.695	1.785	1785.0	regulate	Run3	regulate/STIM_015.jpg	100
2300.526	1.699	1698.8	regulate	Run3	regulate/STIM_015.jpg	99
2305.394	1.863	1863.1	regulate	Run3	regulate/STIM_016.jpg	100
2310.726	2.617	2617.0	regulate	Run3	regulate/STIM_016.jpg	99
2315.46	2.121	2120.7	regulate	Run3	regulate/STIM_016.jpg	99
2320.229	1.416	1416.3	regulate	Run3	regulate/STIM_016.jpg	99
2324.074	2.511	2511.1	regulate	Run3	regulate/STIM_017.jpg	100
2329.374	1.769	1769.0	regulate	Run3	regulate/STIM_017.jpg	99
2333.406	1.952	1952.5	regulate	Run3	regulate/STIM_017.jpg	100
2337.664	1.963	1962.6	regulate	Run3	regulate/STIM_017.jpg	99
2342.371	1.986	1985.7	regulate	Run3	regulate/STIM_018.jpg	100
2347.11	1.73	1730.0	regulate	Run3	regulate/STIM_018.jpg	100
2350.84	1.829	1828.6	regulate	Run3	regulate/STIM_018.jpg	99
2354.881	1.238	1238.3	regulate	Run3	regulate/STIM_018.jpg	99
2359.845	1.67	1669.8	regulate	Run3	regulate/STIM_019.jpg	99
2363.644	2.426	2425.7	regulate	Run3	regulate/STIM_019.jpg	99
2369.192	2.429	2428.7	regulate	Run3	regulate/STIM_019.jpg	99
2374.302	2.737	2736.9	regulate	Run3	regulate/STIM_019.jpg	100
2379.419	1.579	1579.1	regulate	Run3	regulate/STIM_020.jpg	99
2383.955	2.35	2349.7	regulate	Run3	regulate/STIM_020.jpg	99
2389.457	2.169	2169.0	regulate	Run3	regulate/STIM_020.jpg	99
2394.155	2.016	2015.7	regulate	Run3	regulate/STIM_020.jpg	100
2398.488	2.658	2658.3	regulate	Run3	regulate/STIM_021.jpg	100
2403.405	2.474	2473.9	regulate	Run3	regulate/STIM_021.jpg	100
2409.113	2.455	2454.9	regulate	Run3	regulate/STIM_021.jpg	99
2414.75	1.408	1407.8	regulate	Run3	regulate/STIM_021.jpg	99
2418.326	2.368	2368.5	regulate	Run3	regulate/STIM_022.jpg	100
2423.558	2.522	2522.2	regulate	Run3	regulate/STIM_022.jpg	100
2428.247	2.656	2656.0	regulate	Run3	regulate/STIM_022.jpg	100
2433.409	1.846	1846.4	regulate	Run3	regulate/STIM_022.jpg	100
2438.138	1.379	1379.2	regulate	Run3	regulate/STIM_023.jpg	99
2443.247	1.609	1609.4	regulate	Run3	regulate/STIM_023.jpg	99
2448.112	1.876	1875.8	regulate	Run3	regulate/STIM_023.jpg	99
2452.132	2.08	2080.4	regulate	Run3	regulate/STIM_023.jpg	100
2456.415	2.05	2050.3	regulate	Run3	regulate/STIM_024.jpg	99
2461.897	1.336	1335.6	regulate	Run3	regulate/STIM_024.jpg	99
2465.413	1.822	1822.5	regulate	Run3	regulate/STIM_024.jpg	100
2471.136	1.549	1549.1	regulate	Run3	regulate/STIM_024.jpg	100
2476.457	2.645	2645.3	regulate	Run3	regulate/STIM_025.jpg	100
2481.114	2.349	2348.8	regulate	Run3	regulate/STIM_025.jpg	100
2486.923	1.717	1717.1	regulate	Run3	regulate/STIM_025.jpg	100
2490.676	2.505	2504.8	regulate	Run3	regulate/STIM_025.jpg	100
2496.116	1.728	1728.4	regulate	Run3	regulate/STIM_026.jpg	100
2500.548	1.505	1505.1	regulate	Run3	regulate/STIM_026.jpg	99
2505.069	2.245	2244.7	regulate	Run3	regulate/STIM_026.jpg	99
2509.554	2.533	2533.0	regulate	Run3	regulate/STIM_026.jpg	99
2515.279	2.189	2189.3	regulate	Run3	regulate/STIM_027.jpg	100
2519.529	1.97	1969.8	regulate	Run3	regulate/STIM_027.jpg	100
2524.706	1.896	1895.6	regulate	Run3	regulate/STIM_027.jpg	99
2529.659	2.059	2058.9	regulate	Run3	regulate/STIM_027.jpg	100
2533.961	2.228	2227.5	regulate	Run3	regulate/STIM_028.jpg	100
2539.46	2.016	2015.6	regulate	Run3	regulate/STIM_028.jpg	100
2545.242	1.702	1701.5	regulate	Run3	regulate/STIM_028.jpg	99
2550.562	1.54	1540.4	regulate	Run3	regulate/STIM_028.jpg	99
2555.475	1.733	1732.8	regulate	Run3	regulate/STIM_029.jpg	100
2560.602	2.576	2575.9	regulate	Run3	regulate/STIM_029.jpg	100
2566.905	2.036	2036.1	regulate	Run3	regulate/STIM_029.jpg	100
2572.53	2.225	2224.9	regulate	Run3	regulate/STIM_029.jpg	100
2578.279	1.077	1076.8	observe	Run3	observe/STIM_000.jpg	100
2581.545	1.794	1794.1	observe	Run3	observe/STIM_000.jpg	99
2586.079	1.025	1025.4	observe	Run3	observe/STIM_000.jpg	100
2589.165	1.481	1481.2	observe	Run3	observe/STIM_000.jpg	100
2594.145	1.352	1351.8	observe	Run3	observe/STIM_001.jpg	100
2599.096	1.212	1212.2	observe	Run3	observe/STIM_001.jpg	100
2603.927	1.467	1467.4	observe	Run3	observe/STIM_001.jpg	100
2608.196	1.47	1470.5	observe	Run3	observe/STIM_001.jpg	99
2612.564	1.65	1650.3	observe	Run3	observe/STIM_002.jpg	99
2617.069	1.159	1159.1	observe	Run3	observe/STIM_002.jpg	100
2621.361	1.039	1039.2	observe	Run3	observe/STIM_002.jpg	99
2626.237	0.926	925.7	observe	Run3	observe/STIM_002.jpg	100
2631.099	1.68	1679.7	observe	Run3	observe/STIM_003.jpg	100
2635.683	1.331	1330.8	observe	Run3	observe/STIM_003.jpg	99
2639.638	1.712	1711.5	observe	Run3	observe/STIM_003.jpg	99
2644.996	1.498	1498.2	observe	Run3	observe/STIM_003.jpg	100
2649.572	1.226	1226.0	observe	Run3	observe/STIM_004.jpg	100
2653.997	1.426	1426.2	observe	Run3	observe/STIM_004.jpg	99
2658.363	0.979	978.9	observe	Run3	observe/STIM_004.jpg	99
2662.83	1.249	1249.3	observe	Run3	observe/STIM_004.jpg	100
2667.28	1.656	1655.5	observe	Run3	observe/STIM_005.jpg	100
2671.255	1.803	1803.1	observe	Run3	observe/STIM_005.jpg	100
2676.582	1.355	1354.6	observe	Run3	observe/STIM_005.jpg	100
2680.643	1.404	1403.8	observe	Run3	observe/STIM_005.jpg	100
2685.794	1.06	1059.8	observe	Run3	observe/STIM_006.jpg	100
2690.498	1.531	1531.1	observe	Run3	observe/STIM_006.jpg	100
2694.424	1.692	1692.0	observe	Run3	observe/STIM_006.jpg	100
2698.918	1.186	1186.4	observe	Run3	observe/STIM_006.jpg	100
2702.233	0.97	970.1	observe	Run3	observe/STIM_007.jpg	100
2706.035	1.568	1567.6	observe	Run3	observe/STIM_007.jpg	100
2709.874	0.961	960.6	observe	Run3	observe/STIM_007.jpg	100
2713.138	0.935	934.6	observe	Run3	observe/STIM_007.jpg	100
2717.747	1.266	1266.0	observe	Run3	observe/STIM_008.jpg	100
2722.46	1.8	1800.4	observe	Run3	observe/STIM_008.jpg	99
2727.691	1.764	1764.4	observe	Run3	observe/STIM_008.jpg	100
2732.266	1.793	1793.0	observe	Run3	observe/STIM_008.jpg	100
2737.556	1.385	1384.8	observe	Run3	observe/STIM_009.jpg	100
2741.751	1.234	1233.6	observe	Run3	observe/STIM_009.jpg	99
2745.418	1.286	1286.5	observe	Run3	observe/STIM_009.jpg	99
2750.432	1.772	1771.8	observe	Run3	observe/STIM_009.jpg	100
2755.212	1.784	1784.2	observe	Run3	observe/STIM_010.jpg	100
2760.063	1.025	1025.0	observe	Run3	observe/STIM_010.jpg	100
2763.108	1.177	1177.3	observe	Run3	observe/STIM_010.jpg	100
2766.878	1.664	1664.5	observe	Run3	observe/STIM_010.jpg	100
2770.858	1.272	1272.3	observe	Run3	observe/STIM_011.jpg	99
2775.217	1.188	1188.3	observe	Run3	observe/STIM_011.jpg	100
2779.574	1.583	1583.3	observe	Run3	observe/STIM_011.jpg	100
2784.471	1.492	1492.3	observe	Run3	observe/STIM_011.jpg	100
2788.323	1.222	1221.8	observe	Run3	observe/STIM_012.jpg	100
2792.362	1.298	1298.2	observe	Run3	observe/STIM_012.jpg	99
2796.726	1.43	1429.5	observe	Run3	observe/STIM_012.jpg	100
2800.472	1.242	1241.7	observe	Run3	observe/STIM_012.jpg	100
2805.607	1.469	1469.4	observe	Run3	observe/STIM_013.jpg	100
2810.552	1.432	1431.5	observe	Run3	observe/STIM_013.jpg	99
2815.182	1.178	1178.0	observe	Run3	observe/STIM_013.jpg	99
2819.981	1.386	1386.1	observe	Run3	observe/STIM_013.jpg	100
2824.441	1.409	1408.6	observe	Run3	observe/STIM_014.jpg	99
2827.933	1.493	1493.2	observe	Run3	observe/STIM_014.jpg	100
2831.854	1.791	1791.2	observe	Run3	observe/STIM_014.jpg	99
2837.279	1.751	1750.8	observe	Run3	observe/STIM_014.jpg	99
2841.769	1.583	1582.9	observe	Run3	observe/STIM_015.jpg	99
2845.416	1.45	1450.3	observe	Run3	observe/STIM_015.jpg	100
2850.328	1.742	1742.5	observe	Run3	observe/STIM_015.jpg	100
2855.507	1.15	1149.6	observe	Run3	observe/STIM_015.jpg	99
2859.656	1.675	1674.9	observe	Run3	observe/STIM_016.jpg	99
2865.046	1.404	1403.9	observe	Run3	observe/STIM_016.jpg	100
2869.193	1.276	1275.5	observe	Run3	observe/STIM_016.jpg	100
2873.817	1.16	1160.1	observe	Run3	observe/STIM_016.jpg	99
2877.826	1.559	1559.0	observe	Run3	observe/STIM_017.jpg	99
2881.758	1.381	1380.9	observe	Run3	observe/STIM_017.jpg	100
2886.217	1.435	1435.1	observe	Run3	observe/STIM_017.jpg	99
2889.873	1.054	1053.9	observe	Run3	observe/STIM_017.jpg	99
2893.141	1.259	1259.4	observe	Run3	observe/STIM_018.jpg	99
2896.619	1.315	1314.7	observe	Run3	observe/STIM_018.jpg	100
2900.614	1.401	1401.2	observe	Run3	observe/STIM_018.jpg	100
2904.262	1.496	1495.9	observe	Run3	observe/STIM_018.jpg	100
2909.371	1.779	1779.2	observe	Run3	observe/STIM_019.jpg	99
2913.814	1.137	1137.2	observe	Run3	observe/STIM_019.jpg	99
2918.251	1.238	1238.4	observe	Run3	observe/STIM_019.jpg	99
2923.433	1.642	1642.4	observe	Run3	observe/STIM_019.jpg	100
