onset	duration	accuracy	trial_type	learning_stage	stimulus
0.0	2.374	correct	regulate	Run1	regulate/STIM_000.jpg
5.914	2.78	correct	regulate	Run1	regulate/STIM_000.jpg
12.455	3.162	incorrect	regulate	Run1	regulate/STIM_000.jpg
19.476	3.24	correct	regulate	Run1	regulate/STIM_000.jpg
25.248	3.561	incorrect	regulate	Run1	regulate/STIM_001.jpg
32.363	3.038	correct	regulate	Run1	regulate/STIM_001.jpg
37.887	2.382	incorrect	regulate	Run1	regulate/STIM_001.jpg
43.669	3.35	correct	regulate	Run1	regulate/STIM_001.jpg
50.684	3.11	correct	regulate	Run1	regulate/STIM_002.jpg
56.796	1.609	incorrect	regulate	Run1	regulate/STIM_002.jpg
60.583	2.636	correct	regulate	Run1	regulate/STIM_002.jpg
65.318	2.049	correct	regulate	Run1	regulate/STIM_002.jpg
69.835	1.693	incorrect	regulate	Run1	regulate/STIM_003.jpg
75.502	3.094	correct	regulate	Run1	regulate/STIM_003.jpg
81.291	3.358	correct	regulate	Run1	regulate/STIM_003.jpg
86.649	2.898	incorrect	regulate	Run1	regulate/STIM_003.jpg
91.88	2.674	correct	regulate	Run1	regulate/STIM_004.jpg
97.785	1.713	incorrect	regulate	Run1	regulate/STIM_004.jpg
103.469	3.007	correct	regulate	Run1	regulate/STIM_004.jpg
108.649	2.025	incorrect	regulate	Run1	regulate/STIM_004.jpg
113.434	2.241	incorrect	regulate	Run1	regulate/STIM_005.jpg
117.848	2.542	correct	regulate	Run1	regulate/STIM_005.jpg
122.797	1.823	correct	regulate	Run1	regulate/STIM_005.jpg
127.268	2.355	correct	regulate	Run1	regulate/STIM_005.jpg
132.396	3.727	correct	regulate	Run1	regulate/STIM_006.jpg
138.128	2.039	correct	regulate	Run1	regulate/STIM_006.jpg
143.652	3.097	correct	regulate	Run1	regulate/STIM_006.jpg
149.041	1.719	correct	regulate	Run1	regulate/STIM_006.jpg
153.364	1.841	correct	regulate	Run1	regulate/STIM_007.jpg
157.815	3.021	incorrect	regulate	Run1	regulate/STIM_007.jpg
163.643	1.61	correct	regulate	Run1	regulate/STIM_007.jpg
168.688	3.215	correct	regulate	Run1	regulate/STIM_007.jpg
175.754	3.532	incorrect	regulate	Run1	regulate/STIM_008.jpg
182.524	2.067	correct	regulate	Run1	regulate/STIM_008.jpg
187.969	2.274	correct	regulate	Run1	regulate/STIM_008.jpg
193.414	2.941	incorrect	regulate	Run1	regulate/STIM_008.jpg
198.602	2.979	correct	regulate	Run1	regulate/STIM_009.jpg
203.761	1.608	correct	regulate	Run1	regulate/STIM_009.jpg
209.324	2.87	correct	regulate	Run1	regulate/STIM_009.jpg
214.355	3.001	correct	regulate	Run1	regulate/STIM_009.jpg
220.45	3.651	correct	regulate	Run1	regulate/STIM_010.jpg
226.569	2.566	incorrect	regulate	Run1	regulate/STIM_010.jpg
231.788	2.982	correct	regulate	Run1	regulate/STIM_010.jpg
237.909	1.531	incorrect	regulate	Run1	regulate/STIM_010.jpg
242.346	2.05	correct	regulate	Run1	regulate/STIM_011.jpg
247.386	2.034	incorrect	regulate	Run1	regulate/STIM_011.jpg
252.82	2.161	correct	regulate	Run1	regulate/STIM_011.jpg
258.625	2.177	correct	regulate	Run1	regulate/STIM_011.jpg
263.338	3.334	correct	regulate	Run1	regulate/STIM_012.jpg
270.084	2.345	correct	regulate	Run1	regulate/STIM_012.jpg
275.038	2.675	incorrect	regulate	Run1	regulate/STIM_012.jpg
279.833	1.781	correct	regulate	Run1	regulate/STIM_012.jpg
284.457	3.189	correct	regulate	Run1	regulate/STIM_013.jpg
291.575	2.293	incorrect	regulate	Run1	regulate/STIM_013.jpg
296.447	1.584	incorrect	regulate	Run1	regulate/STIM_013.jpg
300.253	2.564	correct	regulate	Run1	regulate/STIM_013.jpg
305.823	1.714	incorrect	regulate	Run1	regulate/STIM_014.jpg
310.207	1.615	correct	regulate	Run1	regulate/STIM_014.jpg
314.822	3.351	incorrect	regulate	Run1	regulate/STIM_014.jpg
321.702	3.171	correct	regulate	Run1	regulate/STIM_014.jpg
328.691	2.634	incorrect	regulate	Run1	regulate/STIM_015.jpg
335.188	2.298	correct	regulate	Run1	regulate/STIM_015.jpg
340.761	3.405	correct	regulate	Run1	regulate/STIM_015.jpg
347.021	2.145	correct	regulate	Run1	regulate/STIM_015.jpg
352.139	3.226	incorrect	regulate	Run1	regulate/STIM_016.jpg
357.8	3.192	correct	regulate	Run1	regulate/STIM_016.jpg
364.822	2.494	correct	regulate	Run1	regulate/STIM_016.jpg
370.963	2.899	correct	regulate	Run1	regulate/STIM_016.jpg
376.149	1.957	correct	regulate	Run1	regulate/STIM_017.jpg
380.94	2.76	correct	regulate	Run1	regulate/STIM_017.jpg
386.519	1.945	correct	regulate	Run1	regulate/STIM_017.jpg
392.054	2.502	correct	regulate	Run1	regulate/STIM_017.jpg
398.512	3.022	incorrect	regulate	Run1	regulate/STIM_018.jpg
405.522	2.916	correct	regulate	Run1	regulate/STIM_018.jpg
412.418	2.1	correct	regulate	Run1	regulate/STIM_018.jpg
417.993	2.867	correct	regulate	Run1	regulate/STIM_018.jpg
424.695	3.661	correct	regulate	Run1	regulate/STIM_019.jpg
430.902	2.064	correct	regulate	Run1	regulate/STIM_019.jpg
436.871	1.547	correct	regulate	Run1	regulate/STIM_019.jpg
441.412	2.229	correct	regulate	Run1	regulate/STIM_019.jpg
445.846	2.278	correct	regulate	Run1	regulate/STIM_020.jpg
450.558	3.504	correct	regulate	Run1	regulate/STIM_020.jpg
456.652	2.066	correct	regulate	Run1	regulate/STIM_020.jpg
460.958	2.901	correct	regulate	Run1	regulate/STIM_020.jpg
467.251	1.693	correct	regulate	Run1	regulate/STIM_021.jpg
472.146	1.95	incorrect	regulate	Run1	regulate/STIM_021.jpg
476.421	3.366	incorrect	regulate	Run1	regulate/STIM_021.jpg
483.428	2.91	correct	regulate	Run1	regulate/STIM_021.jpg
488.377	3.794	correct	regulate	Run1	regulate/STIM_022.jpg
494.821	1.764	correct	regulate	Run1	regulate/STIM_022.jpg
498.734	2.618	correct	regulate	Run1	regulate/STIM_022.jpg
503.438	1.505	correct	regulate	Run1	regulate/STIM_022.jpg
508.349	2.651	correct	regulate	Run1	regulate/STIM_023.jpg
513.388	2.907	correct	regulate	Run1	regulate/STIM_023.jpg
519.966	2.72	correct	regulate	Run1	regulate/STIM_023.jpg
524.729	2.12	incorrect	regulate	Run1	regulate/STIM_023.jpg
529.348	3.867	correct	regulate	Run1	regulate/STIM_024.jpg
537.215	2.435	correct	regulate	Run1	regulate/STIM_024.jpg
542.725	3.53	correct	regulate	Run1	regulate/STIM_024.jpg
549.643	2.502	incorrect	regulate	Run1	regulate/STIM_024.jpg
554.487	3.714	correct	regulate	Run1	regulate/STIM_025.jpg
562.107	1.774	correct	regulate	Run1	regulate/STIM_025.jpg
567.359	2.442	incorrect	regulate	Run1	regulate/STIM_025.jpg
572.18	2.569	correct	regulate	Run1	regulate/STIM_025.jpg
577.901	3.019	correct	regulate	Run1	regulate/STIM_026.jpg
584.91	3.011	incorrect	regulate	Run1	regulate/STIM_026.jpg
591.555	2.703	correct	regulate	Run1	regulate/STIM_026.jpg
596.416	1.517	correct	regulate	Run1	regulate/STIM_026.jpg
601.082	2.009	correct	regulate	Run1	regulate/STIM_027.jpg
606.194	2.818	incorrect	regulate	Run1	regulate/STIM_027.jpg
612.504	2.377	correct	regulate	Run1	regulate/STIM_027.jpg
618.681	2.045	correct	regulate	Run1	regulate/STIM_027.jpg
623.872	2.874	incorrect	regulate	Run1	regulate/STIM_028.jpg
628.76	1.772	incorrect	regulate	Run1	regulate/STIM_028.jpg
633.759	2.229	correct	regulate	Run1	regulate/STIM_028.jpg
639.194	2.98	correct	regulate	Run1	regulate/STIM_028.jpg
645.896	3.696	correct	regulate	Run1	regulate/STIM_029.jpg
651.736	1.746	correct	regulate	Run1	regulate/STIM_029.jpg
657.1	2.49	incorrect	regulate	Run1	regulate/STIM_029.jpg
663.127	2.712	correct	regulate	Run1	regulate/STIM_029.jpg
669.594	1.574	incorrect	observe	Run1	observe/STIM_000.jpg
673.635	1.245	correct	observe	Run1	observe/STIM_000.jpg
678.021	1.639	incorrect	observe	Run1	observe/STIM_000.jpg
683.161	1.663	incorrect	observe	Run1	observe/STIM_000.jpg
686.932	1.797	correct	observe	Run1	observe/STIM_001.jpg
691.42	1.051	correct	observe	Run1	observe/STIM_001.jpg
696.095	1.639	correct	observe	Run1	observe/STIM_001.jpg
701.6	1.358	correct	observe	Run1	observe/STIM_001.jpg
706.373	1.064	correct	observe	Run1	observe/STIM_002.jpg
710.629	1.699	correct	observe	Run1	observe/STIM_002.jpg
715.839	1.227	correct	observe	Run1	observe/STIM_002.jpg
719.838	1.74	correct	observe	Run1	observe/STIM_002.jpg
723.893	1.103	correct	observe	Run1	observe/STIM_003.jpg
727.795	1.178	correct	observe	Run1	observe/STIM_003.jpg
730.997	0.984	correct	observe	Run1	observe/STIM_003.jpg
734.371	1.092	incorrect	observe	Run1	observe/STIM_003.jpg
738.42	1.626	correct	observe	Run1	observe/STIM_004.jpg
743.852	1.137	correct	observe	Run1	observe/STIM_004.jpg
748.14	1.157	correct	observe	Run1	observe/STIM_004.jpg
751.364	1.66	correct	observe	Run1	observe/STIM_004.jpg
756.565	0.926	incorrect	observe	Run1	observe/STIM_005.jpg
760.292	1.02	correct	observe	Run1	observe/STIM_005.jpg
764.026	1.275	incorrect	observe	Run1	observe/STIM_005.jpg
767.688	1.749	correct	observe	Run1	observe/STIM_005.jpg
771.623	1.69	correct	observe	Run1	observe/STIM_006.jpg
775.733	1.717	correct	observe	Run1	observe/STIM_006.jpg
780.648	1.6	correct	observe	Run1	observe/STIM_006.jpg
785.789	1.332	correct	observe	Run1	observe/STIM_006.jpg
790.88	1.716	incorrect	observe	Run1	observe/STIM_007.jpg
794.71	0.996	correct	observe	Run1	observe/STIM_007.jpg
799.366	1.35	correct	observe	Run1	observe/STIM_007.jpg
803.898	1.38	correct	observe	Run1	observe/STIM_007.jpg
808.498	1.034	correct	observe	Run1	observe/STIM_008.jpg
812.996	1.005	incorrect	observe	Run1	observe/STIM_008.jpg
816.388	1.474	correct	observe	Run1	observe/STIM_008.jpg
820.04	1.265	correct	observe	Run1	observe/STIM_008.jpg
824.117	1.154	incorrect	observe	Run1	observe/STIM_009.jpg
828.04	1.344	correct	observe	Run1	observe/STIM_009.jpg
832.065	1.729	correct	observe	Run1	observe/STIM_009.jpg
837.14	1.595	correct	observe	Run1	observe/STIM_009.jpg
842.374	1.247	incorrect	observe	Run1	observe/STIM_010.jpg
846.429	1.529	correct	observe	Run1	observe/STIM_010.jpg
850.604	1.482	correct	observe	Run1	observe/STIM_010.jpg
855.448	1.642	correct	observe	Run1	observe/STIM_010.jpg
860.942	1.451	correct	observe	Run1	observe/STIM_011.jpg
865.199	1.212	correct	observe	Run1	observe/STIM_011.jpg
870.386	1.788	correct	observe	Run1	observe/STIM_011.jpg
875.969	1.1	correct	observe	Run1	observe/STIM_011.jpg
880.07	1.628	correct	observe	Run1	observe/STIM_012.jpg
884.474	1.094	correct	observe	Run1	observe/STIM_012.jpg
888.881	0.992	correct	observe	Run1	observe/STIM_012.jpg
892.52	1.513	correct	observe	Run1	observe/STIM_012.jpg
897.84	1.053	correct	observe	Run1	observe/STIM_013.jpg
902.794	1.074	incorrect	observe	Run1	observe/STIM_013.jpg
907.3	1.703	correct	observe	Run1	observe/STIM_013.jpg
911.612	1.574	correct	observe	Run1	observe/STIM_013.jpg
915.673	1.661	correct	observe	Run1	observe/STIM_014.jpg
919.416	1.674	correct	observe	Run1	observe/STIM_014.jpg
924.624	1.019	correct	observe	Run1	observe/STIM_014.jpg
929.454	0.931	incorrect	observe	Run1	observe/STIM_014.jpg
933.142	1.086	correct	observe	Run1	observe/STIM_015.jpg
938.191	1.357	correct	observe	Run1	observe/STIM_015.jpg
942.813	0.972	correct	observe	Run1	observe/STIM_015.jpg
945.815	1.047	incorrect	observe	Run1	observe/STIM_015.jpg
949.755	1.538	correct	observe	Run1	observe/STIM_016.jpg
954.282	1.719	correct	observe	Run1	observe/STIM_016.jpg
958.811	1.248	correct	observe	Run1	observe/STIM_016.jpg
963.207	1.083	correct	observe	Run1	observe/STIM_016.jpg
966.396	1.795	correct	observe	Run1	observe/STIM_017.jpg
970.892	1.699	correct	observe	Run1	observe/STIM_017.jpg
976.39	1.584	correct	observe	Run1	observe/STIM_017.jpg
981.213	1.51	correct	observe	Run1	observe/STIM_017.jpg
985.389	1.415	correct	observe	Run1	observe/STIM_018.jpg
990.677	1.287	correct	observe	Run1	observe/STIM_018.jpg
994.794	1.311	incorrect	observe	Run1	observe/STIM_018.jpg
1000.023	1.105	correct	observe	Run1	observe/STIM_018.jpg
1003.806	1.16	correct	observe	Run1	observe/STIM_019.jpg
1007.422	1.448	correct	observe	Run1	observe/STIM_019.jpg
1011.614	0.973	correct	observe	Run1	observe/STIM_019.jpg
1015.506	1.256	correct	observe	Run1	observe/STIM_019.jpg
1019.72	2.687	correct	regulate	Run2	regulate/STIM_000.jpg
1024.747	2.043	incorrect	regulate	Run2	regulate/STIM_000.jpg
1028.991	1.952	incorrect	regulate	Run2	regulate/STIM_000.jpg
1033.905	1.436	correct	regulate	Run2	regulate/STIM_000.jpg
1037.926	3.248	correct	regulate	Run2	regulate/STIM_001.jpg
1045.041	2.854	incorrect	regulate	Run2	regulate/STIM_001.jpg
1050.48	2.015	correct	regulate	Run2	regulate/STIM_001.jpg
1055.614	1.813	correct	regulate	Run2	regulate/STIM_001.jpg
1061.158	1.56	correct	regulate	Run2	regulate/STIM_002.jpg
1064.76	2.288	correct	regulate	Run2	regulate/STIM_002.jpg
1070.535	2.195	incorrect	regulate	Run2	regulate/STIM_002.jpg
1076.511	1.651	correct	regulate	Run2	regulate/STIM_002.jpg
1080.644	3.074	incorrect	regulate	Run2	regulate/STIM_003.jpg
1085.797	2.743	incorrect	regulate	Run2	regulate/STIM_003.jpg
1090.615	1.651	correct	regulate	Run2	regulate/STIM_003.jpg
1094.533	1.21	correct	regulate	Run2	regulate/STIM_003.jpg
1097.877	3.152	incorrect	regulate	Run2	regulate/STIM_004.jpg
1103.551	2.221	incorrect	regulate	Run2	regulate/STIM_004.jpg
1109.019	2.767	incorrect	regulate	Run2	regulate/STIM_004.jpg
1114.15	1.684	correct	regulate	Run2	regulate/STIM_004.jpg
1119.412	3.29	correct	regulate	Run2	regulate/STIM_005.jpg
1125.241	3.038	correct	regulate	Run2	regulate/STIM_005.jpg
1130.635	2.771	correct	regulate	Run2	regulate/STIM_005.jpg
1137.035	1.359	correct	regulate	Run2	regulate/STIM_005.jpg
1142.105	2.086	correct	regulate	Run2	regulate/STIM_006.jpg
1146.944	1.988	correct	regulate	Run2	regulate/STIM_006.jpg
1152.715	1.269	correct	regulate	Run2	regulate/STIM_006.jpg
1156.448	1.448	correct	regulate	Run2	regulate/STIM_006.jpg
1160.898	2.016	correct	regulate	Run2	regulate/STIM_007.jpg
1165.178	2.317	correct	regulate	Run2	regulate/STIM_007.jpg
1171.491	2.953	incorrect	regulate	Run2	regulate/STIM_007.jpg
1177.673	1.245	incorrect	regulate	Run2	regulate/STIM_007.jpg
1181.239	2.197	incorrect	regulate	Run2	regulate/STIM_008.jpg
1186.397	2.756	incorrect	regulate	Run2	regulate/STIM_008.jpg
1192.653	2.951	incorrect	regulate	Run2	regulate/STIM_008.jpg
1199.019	1.977	correct	regulate	Run2	regulate/STIM_008.jpg
1204.446	1.892	incorrect	regulate	Run2	regulate/STIM_009.jpg
1210.176	1.916	correct	regulate	Run2	regulate/STIM_009.jpg
1215.759	1.449	correct	regulate	Run2	regulate/STIM_009.jpg
1219.247	1.666	correct	regulate	Run2	regulate/STIM_009.jpg
1224.485	2.485	correct	regulate	Run2	regulate/STIM_010.jpg
1230.331	2.531	correct	regulate	Run2	regulate/STIM_010.jpg
1234.925	2.284	correct	regulate	Run2	regulate/STIM_010.jpg
1241.124	2.337	correct	regulate	Run2	regulate/STIM_010.jpg
1245.844	2.152	correct	regulate	Run2	regulate/STIM_011.jpg
1251.546	1.896	incorrect	regulate	Run2	regulate/STIM_011.jpg
1256.266	2.953	correct	regulate	Run2	regulate/STIM_011.jpg
1262.043	1.662	correct	regulate	Run2	regulate/STIM_011.jpg
1266.084	1.859	correct	regulate	Run2	regulate/STIM_012.jpg
1271.043	1.772	correct	regulate	Run2	regulate/STIM_012.jpg
1275.665	2.101	incorrect	regulate	Run2	regulate/STIM_012.jpg
1281.561	1.775	correct	regulate	Run2	regulate/STIM_012.jpg
1285.398	2.382	correct	regulate	Run2	regulate/STIM_013.jpg
1290.247	1.409	correct	regulate	Run2	regulate/STIM_013.jpg
1294.068	1.956	correct	regulate	Run2	regulate/STIM_013.jpg
1299.38	1.664	correct	regulate	Run2	regulate/STIM_013.jpg
1304.606	2.576	incorrect	regulate	Run2	regulate/STIM_014.jpg
1311.032	1.437	incorrect	regulate	Run2	regulate/STIM_014.jpg
1315.51	1.653	correct	regulate	Run2	regulate/STIM_014.jpg
1320.627	1.858	incorrect	regulate	Run2	regulate/STIM_014.jpg
1325.762	1.487	correct	regulate	Run2	regulate/STIM_015.jpg
1330.345	1.49	correct	regulate	Run2	regulate/STIM_015.jpg
1334.394	1.896	correct	regulate	Run2	regulate/STIM_015.jpg
1339.38	2.147	correct	regulate	Run2	regulate/STIM_015.jpg
1344.747	3.273	correct	regulate	Run2	regulate/STIM_016.jpg
1350.924	2.814	incorrect	regulate	Run2	regulate/STIM_016.jpg
1356.746	2.467	correct	regulate	Run2	regulate/STIM_016.jpg
1362.17	2.748	correct	regulate	Run2	regulate/STIM_016.jpg
1368.027	3.156	correct	regulate	Run2	regulate/STIM_017.jpg
1373.919	2.399	correct	regulate	Run2	regulate/STIM_017.jpg
1378.47	1.874	correct	regulate	Run2	regulate/STIM_017.jpg
1382.64	1.814	correct	regulate	Run2	regulate/STIM_017.jpg
1387.683	2.332	correct	regulate	Run2	regulate/STIM_018.jpg
1393.753	1.9	correct	regulate	Run2	regulate/STIM_018.jpg
1398.389	2.618	correct	regulate	Run2	regulate/STIM_018.jpg
1403.481	2.344	correct	regulate	Run2	regulate/STIM_018.jpg
1409.048	1.807	correct	regulate	Run2	regulate/STIM_019.jpg
1413.557	2.371	correct	regulate	Run2	regulate/STIM_019.jpg
1419.426	2.726	correct	regulate	Run2	regulate/STIM_019.jpg
1425.277	1.876	incorrect	regulate	Run2	regulate/STIM_019.jpg
1430.088	2.813	correct	regulate	Run2	regulate/STIM_020.jpg
1436.561	2.443	correct	regulate	Run2	regulate/STIM_020.jpg
1441.073	1.502	incorrect	regulate	Run2	regulate/STIM_020.jpg
1445.659	1.682	incorrect	regulate	Run2	regulate/STIM_020.jpg
1450.27	2.226	correct	regulate	Run2	regulate/STIM_021.jpg
1456.32	1.711	correct	regulate	Run2	regulate/STIM_021.jpg
1461.534	1.477	correct	regulate	Run2	regulate/STIM_021.jpg
1465.396	2.512	correct	regulate	Run2	regulate/STIM_021.jpg
1471.252	1.46	correct	regulate	Run2	regulate/STIM_022.jpg
1475.409	2.519	correct	regulate	Run2	regulate/STIM_022.jpg
1480.543	1.43	incorrect	regulate	Run2	regulate/STIM_022.jpg
1485.423	1.417	correct	regulate	Run2	regulate/STIM_022.jpg
1488.955	1.538	incorrect	regulate	Run2	regulate/STIM_023.jpg
1493.722	2.101	correct	regulate	Run2	regulate/STIM_023.jpg
1498.542	2.387	correct	regulate	Run2	regulate/STIM_023.jpg
1502.971	2.45	correct	regulate	Run2	regulate/STIM_023.jpg
1509.086	3.271	correct	regulate	Run2	regulate/STIM_024.jpg
1514.731	2.3	correct	regulate	Run2	regulate/STIM_024.jpg
1519.574	1.292	correct	regulate	Run2	regulate/STIM_024.jpg
1524.067	2.605	correct	regulate	Run2	regulate/STIM_024.jpg
1530.161	1.612	correct	regulate	Run2	regulate/STIM_025.jpg
1534.473	1.974	correct	regulate	Run2	regulate/STIM_025.jpg
1539.277	1.93	correct	regulate	Run2	regulate/STIM_025.jpg
1543.281	2.046	incorrect	regulate	Run2	regulate/STIM_025.jpg
1549.031	2.188	correct	regulate	Run2	regulate/STIM_026.jpg
1553.751	1.558	correct	regulate	Run2	regulate/STIM_026.jpg
1558.404	2.323	incorrect	regulate	Run2	regulate/STIM_026.jpg
1564.1	2.127	correct	regulate	Run2	regulate/STIM_026.jpg
1568.984	2.339	correct	regulate	Run2	regulate/STIM_027.jpg
1573.948	2.715	correct	regulate	Run2	regulate/STIM_027.jpg
1580.367	2.333	correct	regulate	Run2	regulate/STIM_027.jpg
1584.704	1.407	correct	regulate	Run2	regulate/STIM_027.jpg
1589.528	2.06	correct	regulate	Run2	regulate/STIM_028.jpg
1595.06	2.144	correct	regulate	Run2	regulate/STIM_028.jpg
1599.802	2.617	correct	regulate	Run2	regulate/STIM_028.jpg
1606.134	1.187	correct	regulate	Run2	regulate/STIM_028.jpg
1610.999	2.121	incorrect	regulate	Run2	regulate/STIM_029.jpg
1615.346	1.684	correct	regulate	Run2	regulate/STIM_029.jpg
1619.289	1.864	correct	regulate	Run2	regulate/STIM_029.jpg
1624.195	1.916	correct	regulate	Run2	regulate/STIM_029.jpg
1630.021	1.437	incorrect	observe	Run2	observe/STIM_000.jpg
1634.316	1.707	correct	observe	Run2	observe/STIM_000.jpg
1639.438	0.981	correct	observe	Run2	observe/STIM_000.jpg
1642.966	1.197	incorrect	observe	Run2	observe/STIM_000.jpg
1647.12	1.378	correct	observe	Run2	observe/STIM_001.jpg
1650.948	1.515	correct	observe	Run2	observe/STIM_001.jpg
1655.282	0.974	correct	observe	Run2	observe/STIM_001.jpg
1658.707	1.429	correct	observe	Run2	observe/STIM_001.jpg
1663.671	1.802	correct	observe	Run2	observe/STIM_002.jpg
1669.438	1.084	incorrect	observe	Run2	observe/STIM_002.jpg
1674.133	1.526	correct	observe	Run2	observe/STIM_002.jpg
1678.013	1.254	correct	observe	Run2	observe/STIM_002.jpg
1682.169	1.083	correct	observe	Run2	observe/STIM_003.jpg
1686.855	0.956	correct	observe	Run2	observe/STIM_003.jpg
1690.959	1.315	correct	observe	Run2	observe/STIM_003.jpg
1694.713	1.614	correct	observe	Run2	observe/STIM_003.jpg
1700.053	1.063	correct	observe	Run2	observe/STIM_004.jpg
1703.897	1.272	correct	observe	Run2	observe/STIM_004.jpg
1708.1	1.392	correct	observe	Run2	observe/STIM_004.jpg
1713.052	1.445	correct	observe	Run2	observe/STIM_004.jpg
1717.166	1.504	incorrect	observe	Run2	observe/STIM_005.jpg
1722.371	1.432	correct	observe	Run2	observe/STIM_005.jpg
1727.298	0.991	correct	observe	Run2	observe/STIM_005.jpg
1731.321	1.213	correct	observe	Run2	observe/STIM_005.jpg
1735.542	1.132	incorrect	observe	Run2	observe/STIM_006.jpg
1740.51	0.925	correct	observe	Run2	observe/STIM_006.jpg
1744.647	1.692	incorrect	observe	Run2	observe/STIM_006.jpg
1749.727	1.469	incorrect	observe	Run2	observe/STIM_006.jpg
1754.732	1.7	correct	observe	Run2	observe/STIM_007.jpg
1758.447	1.571	correct	observe	Run2	observe/STIM_007.jpg
1763.731	0.995	correct	observe	Run2	observe/STIM_007.jpg
1767.253	0.918	correct	observe	Run2	observe/STIM_007.jpg
1771.764	1.258	correct	observe	Run2	observe/STIM_008.jpg
1775.77	1.163	correct	observe	Run2	observe/STIM_008.jpg
1780.062	1.699	correct	observe	Run2	observe/STIM_008.jpg
1784.762	1.22	correct	observe	Run2	observe/STIM_008.jpg
1788.067	0.974	correct	observe	Run2	observe/STIM_009.jpg
1792.936	1.559	correct	observe	Run2	observe/STIM_009.jpg
1797.803	0.915	correct	observe	Run2	observe/STIM_009.jpg
1801.713	1.416	correct	observe	Run2	observe/STIM_009.jpg
1805.83	1.447	correct	observe	Run2	observe/STIM_010.jpg
1810.504	1.766	correct	observe	Run2	observe/STIM_010.jpg
1815.588	1.117	correct	observe	Run2	observe/STIM_010.jpg
1819.579	1.738	correct	observe	Run2	observe/STIM_010.jpg
1823.359	1.463	correct	observe	Run2	observe/STIM_011.jpg
1828.17	1.716	correct	observe	Run2	observe/STIM_011.jpg
1831.94	1.716	correct	observe	Run2	observe/STIM_011.jpg
1836.113	1.054	correct	observe	Run2	observe/STIM_011.jpg
1840.392	1.561	correct	observe	Run2	observe/STIM_012.jpg
1844.279	1.166	correct	observe	Run2	observe/STIM_012.jpg
1849.347	1.303	correct	observe	Run2	observe/STIM_012.jpg
1854.151	1.599	correct	observe	Run2	observe/STIM_012.jpg
1857.807	1.752	correct	observe	Run2	observe/STIM_013.jpg
1861.702	1.174	correct	observe	Run2	observe/STIM_013.jpg
1866.36	1.437	correct	observe	Run2	observe/STIM_013.jpg
1870.02	1.137	correct	observe	Run2	observe/STIM_013.jpg
1874.134	1.182	correct	observe	Run2	observe/STIM_014.jpg
1878.055	1.426	incorrect	observe	Run2	observe/STIM_014.jpg
1882.842	1.354	correct	observe	Run2	observe/STIM_014.jpg
1888.105	1.401	correct	observe	Run2	observe/STIM_014.jpg
1891.545	1.067	correct	observe	Run2	observe/STIM_015.jpg
1895.057	1.044	correct	observe	Run2	observe/STIM_015.jpg
1898.306	0.915	correct	observe	Run2	observe/STIM_015.jpg
1902.771	1.331	correct	observe	Run2	observe/STIM_015.jpg
1907.189	0.906	correct	observe	Run2	observe/STIM_016.jpg
1911.942	1.445	correct	observe	Run2	observe/STIM_016.jpg
1916.008	1.499	correct	observe	Run2	observe/STIM_016.jpg
1921.181	0.999	incorrect	observe	Run2	observe/STIM_016.jpg
1925.617	1.298	correct	observe	Run2	observe/STIM_017.jpg
1930.863	1.507	correct	observe	Run2	observe/STIM_017.jpg
1934.662	1.689	correct	observe	Run2	observe/STIM_017.jpg
1938.855	1.6	correct	observe	Run2	observe/STIM_017.jpg
1943.19	1.51	incorrect	observe	Run2	observe/STIM_018.jpg
1946.935	1.165	correct	observe	Run2	observe/STIM_018.jpg
1951.704	1.518	correct	observe	Run2	observe/STIM_018.jpg
1957.053	1.76	correct	observe	Run2	observe/STIM_018.jpg
1962.252	1.354	incorrect	observe	Run2	observe/STIM_019.jpg
1966.29	1.758	incorrect	observe	Run2	observe/STIM_019.jpg
1971.002	1.324	correct	observe	Run2	observe/STIM_019.jpg
1974.415	1.295	correct	observe	Run2	observe/STIM_019.jpg
1978.949	2.158	correct	regulate	Run3	regulate/STIM_000.jpg
1983.172	2.622	correct	regulate	Run3	regulate/STIM_000.jpg
1989.432	2.387	correct	regulate	Run3	regulate/STIM_000.jpg
1995.583	2.489	correct	regulate	Run3	regulate/STIM_000.jpg
2000.939	2.114	correct	regulate	Run3	regulate/STIM_001.jpg
2005.936	2.482	correct	regulate	Run3	regulate/STIM_001.jpg
2010.861	2.221	correct	regulate	Run3	regulate/STIM_001.jpg
2015.393	2.659	correct	regulate	Run3	regulate/STIM_001.jpg
2020.228	2.057	correct	regulate	Run3	regulate/STIM_002.jpg
2025.926	1.707	correct	regulate	Run3	regulate/STIM_002.jpg
2030.874	2.598	correct	regulate	Run3	regulate/STIM_002.jpg
2035.739	1.644	correct	regulate	Run3	regulate/STIM_002.jpg
2039.553	2.68	incorrect	regulate	Run3	regulate/STIM_003.jpg
2045.114	2.273	correct	regulate	Run3	regulate/STIM_003.jpg
2051.161	2.574	correct	regulate	Run3	regulate/STIM_003.jpg
2056.194	2.537	correct	regulate	Run3	regulate/STIM_003.jpg
2062.653	1.887	correct	regulate	Run3	regulate/STIM_004.jpg
2067.742	1.815	correct	regulate	Run3	regulate/STIM_004.jpg
2072.33	1.901	correct	regulate	Run3	regulate/STIM_004.jpg
2077.796	2.72	correct	regulate	Run3	regulate/STIM_004.jpg
2084.379	1.459	incorrect	regulate	Run3	regulate/STIM_005.jpg
2089.68	1.545	correct	regulate	Run3	regulate/STIM_005.jpg
2094.788	2.723	correct	regulate	Run3	regulate/STIM_005.jpg
2099.779	1.464	correct	regulate	Run3	regulate/STIM_005.jpg
2103.408	2.068	correct	regulate	Run3	regulate/STIM_006.jpg
2109.296	1.184	correct	regulate	Run3	regulate/STIM_006.jpg
2113.735	2.76	correct	regulate	Run3	regulate/STIM_006.jpg
2119.728	1.678	correct	regulate	Run3	regulate/STIM_006.jpg
2124.926	2.323	correct	regulate	Run3	regulate/STIM_007.jpg
2130.308	2.747	correct	regulate	Run3	regulate/STIM_007.jpg
2135.983	1.84	correct	regulate	Run3	regulate/STIM_007.jpg
2140.658	2.403	correct	regulate	Run3	regulate/STIM_007.jpg
2146.903	2.205	correct	regulate	Run3	regulate/STIM_008.jpg
2151.429	1.294	correct	regulate	Run3	regulate/STIM_008.jpg
2155.437	2.304	correct	regulate	Run3	regulate/STIM_008.jpg
2160.78	1.727	correct	regulate	Run3	regulate/STIM_008.jpg
2165.769	1.71	correct	regulate	Run3	regulate/STIM_009.jpg
2170.299	1.376	correct	regulate	Run3	regulate/STIM_009.jpg
2174.807	2.628	correct	regulate	Run3	regulate/STIM_009.jpg
2181.129	2.554	correct	regulate	Run3	regulate/STIM_009.jpg
2186.54	2.713	correct	regulate	Run3	regulate/STIM_010.jpg
2192.657	1.905	incorrect	regulate	Run3	regulate/STIM_010.jpg
2198.099	2.597	incorrect	regulate	Run3	regulate/STIM_010.jpg
2204.313	2.609	incorrect	regulate	Run3	regulate/STIM_010.jpg
2210.391	1.481	correct	regulate	Run3	regulate/STIM_011.jpg
2215.004	2.582	correct	regulate	Run3	regulate/STIM_011.jpg
2219.698	1.913	correct	regulate	Run3	regulate/STIM_011.jpg
2224.387	1.367	incorrect	regulate	Run3	regulate/STIM_011.jpg
2229.261	2.581	correct	regulate	Run3	regulate/STIM_012.jpg
2234.68	1.636	correct	regulate	Run3	regulate/STIM_012.jpg
2239.325	2.572	correct	regulate	Run3	regulate/STIM_012.jpg
2244.877	1.641	correct	regulate	Run3	regulate/STIM_012.jpg
2248.891	1.364	correct	regulate	Run3	regulate/STIM_013.jpg
2253.502	2.62	correct	regulate	Run3	regulate/STIM_013.jpg
2259.101	1.746	incorrect	regulate	Run3	regulate/STIM_013.jpg
2263.484	1.95	correct	regulate	Run3	regulate/STIM_013.jpg
2267.809	1.997	correct	regulate	Run3	regulate/STIM_014.jpg
2273.013	2.562	incorrect	regulate	Run3	regulate/STIM_014.jpg
2278.165	1.805	correct	regulate	Run3	regulate/STIM_014.jpg
2282.979	2.086	correct	regulate	Run3	regulate/STIM_014.jpg
2288.366	1.716	incorrect	regulate	Run3	regulate/STIM_015.jpg
2292.628	1.478	correct	regulate	Run3	regulate/STIM_015.jpg
2296.695	1.785	correct	regulate	Run3	regulate/STIM_015.jpg
2300.526	1.699	correct	regulate	Run3	regulate/STIM_015.jpg
2305.394	1.863	correct	regulate	Run3	regulate/STIM_016.jpg
2310.726	2.617	correct	regulate	Run3	regulate/STIM_016.jpg
2315.46	2.121	correct	regulate	Run3	regulate/STIM_016.jpg
2320.229	1.416	correct	regulate	Run3	regulate/STIM_016.jpg
2324.074	2.511	incorrect	regulate	Run3	regulate/STIM_017.jpg
2329.374	1.769	correct	regulate	Run3	regulate/STIM_017.jpg
2333.406	1.952	correct	regulate	Run3	regulate/STIM_017.jpg
2337.664	1.963	correct	regulate	Run3	regulate/STIM_017.jpg
2342.371	1.986	correct	regulate	Run3	regulate/STIM_018.jpg
2347.11	1.73	correct	regulate	Run3	regulate/STIM_018.jpg
2350.84	1.829	correct	regulate	Run3	regulate/STIM_018.jpg
2354.881	1.238	correct	regulate	Run3	regulate/STIM_018.jpg
2359.845	1.67	correct	regulate	Run3	regulate/STIM_019.jpg
2363.644	2.426	correct	regulate	Run3	regulate/STIM_019.jpg
2369.192	2.429	correct	regulate	Run3	regulate/STIM_019.jpg
2374.302	2.737	correct	regulate	Run3	regulate/STIM_019.jpg
2379.419	1.579	correct	regulate	Run3	regulate/STIM_020.jpg
2383.955	2.35	correct	regulate	Run3	regulate/STIM_020.jpg
2389.457	2.169	correct	regulate	Run3	regulate/STIM_020.jpg
2394.155	2.016	correct	regulate	Run3	regulate/STIM_020.jpg
2398.488	2.658	correct	regulate	Run3	regulate/STIM_021.jpg
2403.405	2.474	correct	regulate	Run3	regulate/STIM_021.jpg
2409.113	2.455	correct	regulate	Run3	regulate/STIM_021.jpg
2414.75	1.408	correct	regulate	Run3	regulate/STIM_021.jpg
2418.326	2.368	correct	regulate	Run3	regulate/STIM_022.jpg
2423.558	2.522	correct	regulate	Run3	regulate/STIM_022.jpg
2428.247	2.656	correct	regulate	Run3	regulate/STIM_022.jpg
2433.409	1.846	correct	regulate	Run3	regulate/STIM_022.jpg
2438.138	1.379	correct	regulate	Run3	regulate/STIM_023.jpg
2443.247	1.609	correct	regulate	Run3	regulate/STIM_023.jpg
2448.112	1.876	correct	regulate	Run3	regulate/STIM_023.jpg
2452.132	2.08	correct	regulate	Run3	regulate/STIM_023.jpg
2456.415	2.05	correct	regulate	Run3	regulate/STIM_024.jpg
2461.897	1.336	correct	regulate	Run3	regulate/STIM_024.jpg
2465.413	1.822	correct	regulate	Run3	regulate/STIM_024.jpg
2471.136	1.549	correct	regulate	Run3	regulate/STIM_024.jpg
2476.457	2.645	correct	regulate	Run3	regulate/STIM_025.jpg
2481.114	2.349	correct	regulate	Run3	regulate/STIM_025.jpg
2486.923	1.717	correct	regulate	Run3	regulate/STIM_025.jpg
2490.676	2.505	correct	regulate	Run3	regulate/STIM_025.jpg
2496.116	1.728	incorrect	regulate	Run3	regulate/STIM_026.jpg
2500.548	1.505	correct	regulate	Run3	regulate/STIM_026.jpg
2505.069	2.245	correct	regulate	Run3	regulate/STIM_026.jpg
2509.554	2.533	correct	regulate	Run3	regulate/STIM_026.jpg
2515.279	2.189	correct	regulate	Run3	regulate/STIM_027.jpg
2519.529	1.97	correct	regulate	Run3	regulate/STIM_027.jpg
2524.706	1.896	correct	regulate	Run3	regulate/STIM_027.jpg
2529.659	2.059	correct	regulate	Run3	regulate/STIM_027.jpg
2533.961	2.228	correct	regulate	Run3	regulate/STIM_028.jpg
2539.46	2.016	correct	regulate	Run3	regulate/STIM_028.jpg
2545.242	1.702	correct	regulate	Run3	regulate/STIM_028.jpg
2550.562	1.54	correct	regulate	Run3	regulate/STIM_028.jpg
2555.475	1.733	correct	regulate	Run3	regulate/STIM_029.jpg
2560.602	2.576	correct	regulate	Run3	regulate/STIM_029.jpg
2566.905	2.036	correct	regulate	Run3	regulate/STIM_029.jpg
2572.53	2.225	incorrect	regulate	Run3	regulate/STIM_029.jpg
2578.279	1.077	correct	observe	Run3	observe/STIM_000.jpg
2581.545	1.794	correct	observe	Run3	observe/STIM_000.jpg
2586.079	1.025	correct	observe	Run3	observe/STIM_000.jpg
2589.165	1.481	correct	observe	Run3	observe/STIM_000.jpg
2594.145	1.352	correct	observe	Run3	observe/STIM_001.jpg
2599.096	1.212	correct	observe	Run3	observe/STIM_001.jpg
2603.927	1.467	incorrect	observe	Run3	observe/STIM_001.jpg
2608.196	1.47	correct	observe	Run3	observe/STIM_001.jpg
2612.564	1.65	correct	observe	Run3	observe/STIM_002.jpg
2617.069	1.159	correct	observe	Run3	observe/STIM_002.jpg
2621.361	1.039	correct	observe	Run3	observe/STIM_002.jpg
2626.237	0.926	correct	observe	Run3	observe/STIM_002.jpg
2631.099	1.68	correct	observe	Run3	observe/STIM_003.jpg
2635.683	1.331	correct	observe	Run3	observe/STIM_003.jpg
2639.638	1.712	incorrect	observe	Run3	observe/STIM_003.jpg
2644.996	1.498	correct	observe	Run3	observe/STIM_003.jpg
2649.572	1.226	correct	observe	Run3	observe/STIM_004.jpg
2653.997	1.426	correct	observe	Run3	observe/STIM_004.jpg
2658.363	0.979	correct	observe	Run3	observe/STIM_004.jpg
2662.83	1.249	incorrect	observe	Run3	observe/STIM_004.jpg
2667.28	1.656	incorrect	observe	Run3	observe/STIM_005.jpg
2671.255	1.803	correct	observe	Run3	observe/STIM_005.jpg
2676.582	1.355	correct	observe	Run3	observe/STIM_005.jpg
2680.643	1.404	correct	observe	Run3	observe/STIM_005.jpg
2685.794	1.06	correct	observe	Run3	observe/STIM_006.jpg
2690.498	1.531	correct	observe	Run3	observe/STIM_006.jpg
2694.424	1.692	incorrect	observe	Run3	observe/STIM_006.jpg
2698.918	1.186	incorrect	observe	Run3	observe/STIM_006.jpg
2702.233	0.97	correct	observe	Run3	observe/STIM_007.jpg
2706.035	1.568	correct	observe	Run3	observe/STIM_007.jpg
2709.874	0.961	incorrect	observe	Run3	observe/STIM_007.jpg
2713.138	0.935	correct	observe	Run3	observe/STIM_007.jpg
2717.747	1.266	correct	observe	Run3	observe/STIM_008.jpg
2722.46	1.8	correct	observe	Run3	observe/STIM_008.jpg
2727.691	1.764	correct	observe	Run3	observe/STIM_008.jpg
2732.266	1.793	correct	observe	Run3	observe/STIM_008.jpg
2737.556	1.385	incorrect	observe	Run3	observe/STIM_009.jpg
2741.751	1.234	correct	observe	Run3	observe/STIM_009.jpg
2745.418	1.286	correct	observe	Run3	observe/STIM_009.jpg
2750.432	1.772	correct	observe	Run3	observe/STIM_009.jpg
2755.212	1.784	correct	observe	Run3	observe/STIM_010.jpg
2760.063	1.025	correct	observe	Run3	observe/STIM_010.jpg
2763.108	1.177	correct	observe	Run3	observe/STIM_010.jpg
2766.878	1.664	incorrect	observe	Run3	observe/STIM_010.jpg
2770.858	1.272	correct	observe	Run3	observe/STIM_011.jpg
2775.217	1.188	correct	observe	Run3	observe/STIM_011.jpg
2779.574	1.583	correct	observe	Run3	observe/STIM_011.jpg
2784.471	1.492	correct	observe	Run3	observe/STIM_011.jpg
2788.323	1.222	correct	observe	Run3	observe/STIM_012.jpg
2792.362	1.298	incorrect	observe	Run3	observe/STIM_012.jpg
2796.726	1.43	correct	observe	Run3	observe/STIM_012.jpg
2800.472	1.242	correct	observe	Run3	observe/STIM_012.jpg
2805.607	1.469	correct	observe	Run3	observe/STIM_013.jpg
2810.552	1.432	correct	observe	Run3	observe/STIM_013.jpg
2815.182	1.178	correct	observe	Run3	observe/STIM_013.jpg
2819.981	1.386	correct	observe	Run3	observe/STIM_013.jpg
2824.441	1.409	correct	observe	Run3	observe/STIM_014.jpg
2827.933	1.493	correct	observe	Run3	observe/STIM_014.jpg
2831.854	1.791	incorrect	observe	Run3	observe/STIM_014.jpg
2837.279	1.751	correct	observe	Run3	observe/STIM_014.jpg
2841.769	1.583	correct	observe	Run3	observe/STIM_015.jpg
2845.416	1.45	correct	observe	Run3	observe/STIM_015.jpg
2850.328	1.742	correct	observe	Run3	observe/STIM_015.jpg
2855.507	1.15	correct	observe	Run3	observe/STIM_015.jpg
2859.656	1.675	correct	observe	Run3	observe/STIM_016.jpg
2865.046	1.404	correct	observe	Run3	observe/STIM_016.jpg
2869.193	1.276	incorrect	observe	Run3	observe/STIM_016.jpg
2873.817	1.16	correct	observe	Run3	observe/STIM_016.jpg
2877.826	1.559	correct	observe	Run3	observe/STIM_017.jpg
2881.758	1.381	incorrect	observe	Run3	observe/STIM_017.jpg
2886.217	1.435	correct	observe	Run3	observe/STIM_017.jpg
2889.873	1.054	correct	observe	Run3	observe/STIM_017.jpg
2893.141	1.259	incorrect	observe	Run3	observe/STIM_018.jpg
2896.619	1.315	correct	observe	Run3	observe/STIM_018.jpg
2900.614	1.401	incorrect	observe	Run3	observe/STIM_018.jpg
2904.262	1.496	incorrect	observe	Run3	observe/STIM_018.jpg
2909.371	1.779	correct	observe	Run3	observe/STIM_019.jpg
2913.814	1.137	correct	observe	Run3	observe/STIM_019.jpg
2918.251	1.238	correct	observe	Run3	observe/STIM_019.jpg
2923.433	1.642	correct	observe	Run3	observe/STIM_019.jpg
