onset	duration	accuracy_binary	trial_type	learning_stage	stimulus
0.0	2.405	0	generate	Run1	generate/STIM_000.jpg
4.412	2.473	0	generate	Run1	generate/STIM_000.jpg
9.327	2.254	1	generate	Run1	generate/STIM_000.jpg
14.321	1.075	1	generate	Run1	generate/STIM_000.jpg
18.017	1.177	1	generate	Run1	generate/STIM_000.jpg
21.808	2.564	1	generate	Run1	generate/STIM_001.jpg
28.246	1.825	0	generate	Run1	generate/STIM_001.jpg
32.375	1.983	1	generate	Run1	generate/STIM_001.jpg
38.074	1.525	1	generate	Run1	generate/STIM_001.jpg
43.48	2.376	0	generate	Run1	generate/STIM_001.jpg
49.698	2.328	1	generate	Run1	generate/STIM_002.jpg
55.726	1.963	0	generate	Run1	generate/STIM_002.jpg
60.124	1.908	1	generate	Run1	generate/STIM_002.jpg
65.79	1.236	1	generate	Run1	generate/STIM_002.jpg
70.652	1.297	1	generate	Run1	generate/STIM_002.jpg
74.658	2.114	1	generate	Run1	generate/STIM_003.jpg
80.25	1.981	0	generate	Run1	generate/STIM_003.jpg
85.733	2.478	0	generate	Run1	generate/STIM_003.jpg
91.535	1.125	1	generate	Run1	generate/STIM_003.jpg
94.945	2.071	1	generate	Run1	generate/STIM_003.jpg
100.925	2.67	0	generate	Run1	generate/STIM_004.jpg
107.289	2.339	1	generate	Run1	generate/STIM_004.jpg
113.207	1.27	1	generate	Run1	generate/STIM_004.jpg
116.924	1.227	1	generate	Run1	generate/STIM_004.jpg
121.988	1.752	1	generate	Run1	generate/STIM_004.jpg
127.722	1.328	0	generate	Run1	generate/STIM_005.jpg
132.509	2.828	1	generate	Run1	generate/STIM_005.jpg
138.475	2.407	0	generate	Run1	generate/STIM_005.jpg
143.606	2.472	1	generate	Run1	generate/STIM_005.jpg
148.483	1.339	1	generate	Run1	generate/STIM_005.jpg
153.222	2.406	0	generate	Run1	generate/STIM_006.jpg
158.928	2.048	0	generate	Run1	generate/STIM_006.jpg
164.837	1.93	1	generate	Run1	generate/STIM_006.jpg
170.275	1.727	1	generate	Run1	generate/STIM_006.jpg
174.583	1.876	1	generate	Run1	generate/STIM_006.jpg
178.694	2.645	0	generate	Run1	generate/STIM_007.jpg
184.696	1.31	0	generate	Run1	generate/STIM_007.jpg
188.693	1.666	0	generate	Run1	generate/STIM_007.jpg
193.83	2.458	1	generate	Run1	generate/STIM_007.jpg
199.238	1.327	1	generate	Run1	generate/STIM_007.jpg
204.031	2.039	1	generate	Run1	generate/STIM_008.jpg
209.067	1.472	0	generate	Run1	generate/STIM_008.jpg
212.904	2.717	1	generate	Run1	generate/STIM_008.jpg
219.491	1.131	0	generate	Run1	generate/STIM_008.jpg
224.409	2.106	1	generate	Run1	generate/STIM_008.jpg
230.123	2.28	0	generate	Run1	generate/STIM_009.jpg
234.657	2.369	0	generate	Run1	generate/STIM_009.jpg
240.975	1.24	1	generate	Run1	generate/STIM_009.jpg
245.231	2.409	0	generate	Run1	generate/STIM_009.jpg
249.961	1.826	0	generate	Run1	generate/STIM_009.jpg
253.857	2.487	0	generate	Run1	generate/STIM_010.jpg
259.341	1.447	0	generate	Run1	generate/STIM_010.jpg
263.767	2.131	1	generate	Run1	generate/STIM_010.jpg
269.3	2.006	0	generate	Run1	generate/STIM_010.jpg
274.871	2.33	0	generate	Run1	generate/STIM_010.jpg
279.543	2.171	1	generate	Run1	generate/STIM_011.jpg
284.417	1.961	0	generate	Run1	generate/STIM_011.jpg
288.897	2.636	0	generate	Run1	generate/STIM_011.jpg
293.911	1.504	0	generate	Run1	generate/STIM_011.jpg
298.584	1.217	0	generate	Run1	generate/STIM_011.jpg
303.639	2.672	0	generate	Run1	generate/STIM_012.jpg
310.028	2.187	1	generate	Run1	generate/STIM_012.jpg
314.979	1.767	1	generate	Run1	generate/STIM_012.jpg
319.345	1.555	1	generate	Run1	generate/STIM_012.jpg
323.475	1.66	0	generate	Run1	generate/STIM_012.jpg
327.323	1.572	1	generate	Run1	generate/STIM_013.jpg
332.394	2.688	1	generate	Run1	generate/STIM_013.jpg
338.096	1.261	1	generate	Run1	generate/STIM_013.jpg
343.352	2.13	0	generate	Run1	generate/STIM_013.jpg
348.327	1.321	1	generate	Run1	generate/STIM_013.jpg
352.93	2.919	1	generate	Run1	generate/STIM_014.jpg
359.327	1.773	0	generate	Run1	generate/STIM_014.jpg
364.673	2.522	0	generate	Run1	generate/STIM_014.jpg
369.816	1.334	1	generate	Run1	generate/STIM_014.jpg
373.168	1.539	0	generate	Run1	generate/STIM_014.jpg
378.004	1.239	1	generate	Run1	generate/STIM_015.jpg
382.965	1.298	1	generate	Run1	generate/STIM_015.jpg
388.218	1.09	1	generate	Run1	generate/STIM_015.jpg
391.674	2.459	0	generate	Run1	generate/STIM_015.jpg
396.24	2.397	0	generate	Run1	generate/STIM_015.jpg
401.722	2.111	0	generate	Run1	generate/STIM_016.jpg
407.419	1.853	1	generate	Run1	generate/STIM_016.jpg
411.582	2.531	0	generate	Run1	generate/STIM_016.jpg
417.378	1.358	1	generate	Run1	generate/STIM_016.jpg
421.965	1.588	1	generate	Run1	generate/STIM_016.jpg
426.744	1.347	1	generate	Run1	generate/STIM_017.jpg
430.967	1.837	0	generate	Run1	generate/STIM_017.jpg
436.303	1.535	0	generate	Run1	generate/STIM_017.jpg
441.726	1.249	0	generate	Run1	generate/STIM_017.jpg
446.521	1.338	0	generate	Run1	generate/STIM_017.jpg
451.794	1.913	1	generate	Run1	generate/STIM_018.jpg
456.194	1.764	1	generate	Run1	generate/STIM_018.jpg
460.538	2.632	0	generate	Run1	generate/STIM_018.jpg
465.559	1.277	1	generate	Run1	generate/STIM_018.jpg
470.654	1.669	0	generate	Run1	generate/STIM_018.jpg
475.574	1.309	1	generate	Run1	generate/STIM_019.jpg
480.437	1.549	1	generate	Run1	generate/STIM_019.jpg
485.791	1.831	1	generate	Run1	generate/STIM_019.jpg
489.707	2.258	0	generate	Run1	generate/STIM_019.jpg
494.872	1.372	0	generate	Run1	generate/STIM_019.jpg
499.299	2.568	1	generate	Run1	generate/STIM_020.jpg
504.961	1.858	0	generate	Run1	generate/STIM_020.jpg
510.418	2.467	1	generate	Run1	generate/STIM_020.jpg
516.537	2.305	1	generate	Run1	generate/STIM_020.jpg
521.644	1.942	0	generate	Run1	generate/STIM_020.jpg
525.648	2.208	0	generate	Run1	generate/STIM_021.jpg
531.005	2.647	0	generate	Run1	generate/STIM_021.jpg
537.13	1.358	0	generate	Run1	generate/STIM_021.jpg
541.247	1.424	1	generate	Run1	generate/STIM_021.jpg
545.546	1.161	1	generate	Run1	generate/STIM_021.jpg
549.024	2.169	1	generate	Run1	generate/STIM_022.jpg
554.927	2.046	0	generate	Run1	generate/STIM_022.jpg
560.305	1.622	1	generate	Run1	generate/STIM_022.jpg
564.237	1.654	0	generate	Run1	generate/STIM_022.jpg
567.9	1.786	1	generate	Run1	generate/STIM_022.jpg
573.208	1.867	1	generate	Run1	generate/STIM_023.jpg
578.446	1.487	1	generate	Run1	generate/STIM_023.jpg
583.372	1.876	1	generate	Run1	generate/STIM_023.jpg
587.503	1.956	0	generate	Run1	generate/STIM_023.jpg
592.652	1.106	1	generate	Run1	generate/STIM_023.jpg
597.658	2.013	1	generate	Run1	generate/STIM_024.jpg
602.441	2.049	0	generate	Run1	generate/STIM_024.jpg
607.558	1.724	1	generate	Run1	generate/STIM_024.jpg
613.209	1.27	0	generate	Run1	generate/STIM_024.jpg
618.373	0.983	0	generate	Run1	generate/STIM_024.jpg
622.015	0.885	1	repeat	Run1	repeat/STIM_000.jpg
626.518	0.678	1	repeat	Run1	repeat/STIM_000.jpg
631.069	0.68	1	repeat	Run1	repeat/STIM_000.jpg
634.401	0.714	1	repeat	Run1	repeat/STIM_000.jpg
637.762	0.744	1	repeat	Run1	repeat/STIM_000.jpg
641.054	0.848	1	repeat	Run1	repeat/STIM_001.jpg
644.363	0.651	0	repeat	Run1	repeat/STIM_001.jpg
648.055	0.882	1	repeat	Run1	repeat/STIM_001.jpg
651.508	0.892	0	repeat	Run1	repeat/STIM_001.jpg
655.856	0.724	1	repeat	Run1	repeat/STIM_001.jpg
660.027	0.812	1	repeat	Run1	repeat/STIM_002.jpg
663.749	0.594	1	repeat	Run1	repeat/STIM_002.jpg
667.617	0.625	1	repeat	Run1	repeat/STIM_002.jpg
672.12	0.716	1	repeat	Run1	repeat/STIM_002.jpg
676.514	0.851	0	repeat	Run1	repeat/STIM_002.jpg
679.478	0.697	1	repeat	Run1	repeat/STIM_003.jpg
682.687	0.794	1	repeat	Run1	repeat/STIM_003.jpg
686.489	0.852	1	repeat	Run1	repeat/STIM_003.jpg
690.612	0.534	0	repeat	Run1	repeat/STIM_003.jpg
694.011	0.623	0	repeat	Run1	repeat/STIM_003.jpg
697.733	0.865	1	repeat	Run1	repeat/STIM_004.jpg
700.895	0.908	1	repeat	Run1	repeat/STIM_004.jpg
704.581	0.933	1	repeat	Run1	repeat/STIM_004.jpg
708.702	0.901	1	repeat	Run1	repeat/STIM_004.jpg
712.879	0.935	1	repeat	Run1	repeat/STIM_004.jpg
715.974	0.935	1	repeat	Run1	repeat/STIM_005.jpg
719.804	0.522	0	repeat	Run1	repeat/STIM_005.jpg
722.67	0.914	1	repeat	Run1	repeat/STIM_005.jpg
727.185	0.64	1	repeat	Run1	repeat/STIM_005.jpg
730.798	0.737	1	repeat	Run1	repeat/STIM_005.jpg
734.238	0.638	1	repeat	Run1	repeat/STIM_006.jpg
738.207	0.527	0	repeat	Run1	repeat/STIM_006.jpg
741.826	0.783	1	repeat	Run1	repeat/STIM_006.jpg
746.076	0.83	0	repeat	Run1	repeat/STIM_006.jpg
749.655	0.865	1	repeat	Run1	repeat/STIM_006.jpg
753.589	0.712	1	repeat	Run1	repeat/STIM_007.jpg
758.165	0.986	1	repeat	Run1	repeat/STIM_007.jpg
762.439	0.689	1	repeat	Run1	repeat/STIM_007.jpg
766.12	0.749	0	repeat	Run1	repeat/STIM_007.jpg
769.02	0.907	0	repeat	Run1	repeat/STIM_007.jpg
773.229	0.898	0	repeat	Run1	repeat/STIM_008.jpg
777.509	0.941	1	repeat	Run1	repeat/STIM_008.jpg
781.783	0.866	1	repeat	Run1	repeat/STIM_008.jpg
784.891	0.706	1	repeat	Run1	repeat/STIM_008.jpg
788.033	0.95	1	repeat	Run1	repeat/STIM_008.jpg
791.234	0.546	1	repeat	Run1	repeat/STIM_009.jpg
793.922	0.83	0	repeat	Run1	repeat/STIM_009.jpg
798.017	0.527	1	repeat	Run1	repeat/STIM_009.jpg
800.788	0.956	1	repeat	Run1	repeat/STIM_009.jpg
804.806	0.614	1	repeat	Run1	repeat/STIM_009.jpg
808.36	0.962	1	repeat	Run1	repeat/STIM_010.jpg
812.637	0.908	0	repeat	Run1	repeat/STIM_010.jpg
816.781	0.861	1	repeat	Run1	repeat/STIM_010.jpg
820.055	0.595	1	repeat	Run1	repeat/STIM_010.jpg
823.713	0.97	1	repeat	Run1	repeat/STIM_010.jpg
827.037	0.588	1	repeat	Run1	repeat/STIM_011.jpg
831.624	0.589	1	repeat	Run1	repeat/STIM_011.jpg
834.84	0.505	1	repeat	Run1	repeat/STIM_011.jpg
837.765	0.996	1	repeat	Run1	repeat/STIM_011.jpg
842.374	0.929	1	repeat	Run1	repeat/STIM_011.jpg
847.109	0.778	1	repeat	Run1	repeat/STIM_012.jpg
851.098	0.557	1	repeat	Run1	repeat/STIM_012.jpg
854.724	0.828	1	repeat	Run1	repeat/STIM_012.jpg
859.308	0.878	1	repeat	Run1	repeat/STIM_012.jpg
862.203	0.797	0	repeat	Run1	repeat/STIM_012.jpg
865.801	0.633	1	repeat	Run1	repeat/STIM_013.jpg
870.385	0.942	1	repeat	Run1	repeat/STIM_013.jpg
873.59	0.993	0	repeat	Run1	repeat/STIM_013.jpg
877.548	0.826	1	repeat	Run1	repeat/STIM_013.jpg
881.303	0.778	1	repeat	Run1	repeat/STIM_013.jpg
884.633	0.552	1	repeat	Run1	repeat/STIM_014.jpg
888.133	0.793	1	repeat	Run1	repeat/STIM_014.jpg
891.253	0.545	1	repeat	Run1	repeat/STIM_014.jpg
894.118	0.532	1	repeat	Run1	repeat/STIM_014.jpg
898.44	0.931	0	repeat	Run1	repeat/STIM_014.jpg
901.935	1.135	1	generate	Run2	generate/STIM_000.jpg
906.738	1.114	1	generate	Run2	generate/STIM_000.jpg
910.55	1.041	1	generate	Run2	generate/STIM_000.jpg
915.143	1.61	0	generate	Run2	generate/STIM_000.jpg
920.696	1.295	0	generate	Run2	generate/STIM_000.jpg
925.26	1.206	0	generate	Run2	generate/STIM_001.jpg
928.835	2.186	1	generate	Run2	generate/STIM_001.jpg
934.38	1.061	1	generate	Run2	generate/STIM_001.jpg
937.757	1.399	0	generate	Run2	generate/STIM_001.jpg
941.399	1.37	1	generate	Run2	generate/STIM_001.jpg
946.13	1.384	1	generate	Run2	generate/STIM_002.jpg
949.913	2.358	1	generate	Run2	generate/STIM_002.jpg
954.673	1.641	1	generate	Run2	generate/STIM_002.jpg
958.504	0.934	1	generate	Run2	generate/STIM_002.jpg
963.237	0.907	1	generate	Run2	generate/STIM_002.jpg
966.294	1.278	1	generate	Run2	generate/STIM_003.jpg
970.12	2.37	0	generate	Run2	generate/STIM_003.jpg
976.443	2.038	0	generate	Run2	generate/STIM_003.jpg
981.884	1.279	0	generate	Run2	generate/STIM_003.jpg
986.521	1.066	0	generate	Run2	generate/STIM_003.jpg
990.148	1.725	1	generate	Run2	generate/STIM_004.jpg
995.325	1.757	0	generate	Run2	generate/STIM_004.jpg
1000.467	2.235	1	generate	Run2	generate/STIM_004.jpg
1005.135	0.925	1	generate	Run2	generate/STIM_004.jpg
1008.174	1.544	1	generate	Run2	generate/STIM_004.jpg
1013.534	1.853	1	generate	Run2	generate/STIM_005.jpg
1018.328	2.008	0	generate	Run2	generate/STIM_005.jpg
1023.518	1.471	0	generate	Run2	generate/STIM_005.jpg
1028.56	1.027	0	generate	Run2	generate/STIM_005.jpg
1031.818	1.369	1	generate	Run2	generate/STIM_005.jpg
1035.596	1.283	0	generate	Run2	generate/STIM_006.jpg
1039.447	1.09	0	generate	Run2	generate/STIM_006.jpg
1042.802	2.259	1	generate	Run2	generate/STIM_006.jpg
1048.483	1.753	1	generate	Run2	generate/STIM_006.jpg
1053.919	1.127	1	generate	Run2	generate/STIM_006.jpg
1058.805	1.147	1	generate	Run2	generate/STIM_007.jpg
1063.861	1.616	1	generate	Run2	generate/STIM_007.jpg
1069.243	1.969	0	generate	Run2	generate/STIM_007.jpg
1074.63	1.693	1	generate	Run2	generate/STIM_007.jpg
1079.389	1.716	1	generate	Run2	generate/STIM_007.jpg
1084.609	1.789	1	generate	Run2	generate/STIM_008.jpg
1089.364	2.41	1	generate	Run2	generate/STIM_008.jpg
1093.819	1.419	1	generate	Run2	generate/STIM_008.jpg
1098.31	1.322	1	generate	Run2	generate/STIM_008.jpg
1103.503	0.849	1	generate	Run2	generate/STIM_008.jpg
1107.343	2.447	0	generate	Run2	generate/STIM_009.jpg
1113.034	2.391	1	generate	Run2	generate/STIM_009.jpg
1118.019	1.202	1	generate	Run2	generate/STIM_009.jpg
1122.287	1.236	1	generate	Run2	generate/STIM_009.jpg
1126.571	1.596	0	generate	Run2	generate/STIM_009.jpg
1131.248	1.631	0	generate	Run2	generate/STIM_010.jpg
1135.874	1.02	1	generate	Run2	generate/STIM_010.jpg
1139.916	2.019	1	generate	Run2	generate/STIM_010.jpg
1145.731	1.163	0	generate	Run2	generate/STIM_010.jpg
1149.076	1.09	0	generate	Run2	generate/STIM_010.jpg
1153.067	1.03	0	generate	Run2	generate/STIM_011.jpg
1157.82	1.429	0	generate	Run2	generate/STIM_011.jpg
1162.911	1.131	0	generate	Run2	generate/STIM_011.jpg
1166.221	1.794	1	generate	Run2	generate/STIM_011.jpg
1170.514	1.578	1	generate	Run2	generate/STIM_011.jpg
1174.736	2.111	1	generate	Run2	generate/STIM_012.jpg
1179.162	2.094	1	generate	Run2	generate/STIM_012.jpg
1183.837	2.072	1	generate	Run2	generate/STIM_012.jpg
1189.601	0.869	0	generate	Run2	generate/STIM_012.jpg
1194.054	1.159	1	generate	Run2	generate/STIM_012.jpg
1198.202	1.268	1	generate	Run2	generate/STIM_013.jpg
1203.07	1.545	1	generate	Run2	generate/STIM_013.jpg
1208.583	1.612	0	generate	Run2	generate/STIM_013.jpg
1213.041	2.033	1	generate	Run2	generate/STIM_013.jpg
1219.006	1.143	0	generate	Run2	generate/STIM_013.jpg
1223.478	2.249	0	generate	Run2	generate/STIM_014.jpg
1228.493	1.31	1	generate	Run2	generate/STIM_014.jpg
1233.803	1.139	0	generate	Run2	generate/STIM_014.jpg
1238.844	1.111	1	generate	Run2	generate/STIM_014.jpg
1243.074	1.939	1	generate	Run2	generate/STIM_014.jpg
1247.995	2.118	1	generate	Run2	generate/STIM_015.jpg
1253.408	2.258	0	generate	Run2	generate/STIM_015.jpg
1258.287	1.32	1	generate	Run2	generate/STIM_015.jpg
1262.22	1.065	0	generate	Run2	generate/STIM_015.jpg
1266.245	1.976	1	generate	Run2	generate/STIM_015.jpg
1271.315	1.807	1	generate	Run2	generate/STIM_016.jpg
1275.376	1.074	1	generate	Run2	generate/STIM_016.jpg
1280.241	1.6	1	generate	Run2	generate/STIM_016.jpg
1285.835	1.166	1	generate	Run2	generate/STIM_016.jpg
1289.317	1.921	1	generate	Run2	generate/STIM_016.jpg
1294.99	1.834	1	generate	Run2	generate/STIM_017.jpg
1299.161	1.116	0	generate	Run2	generate/STIM_017.jpg
1303.75	1.017	1	generate	Run2	generate/STIM_017.jpg
1307.074	1.229	1	generate	Run2	generate/STIM_017.jpg
1310.531	1.338	1	generate	Run2	generate/STIM_017.jpg
1313.942	1.557	1	generate	Run2	generate/STIM_018.jpg
1318.931	2.377	0	generate	Run2	generate/STIM_018.jpg
1324.417	1.127	1	generate	Run2	generate/STIM_018.jpg
1327.556	1.325	1	generate	Run2	generate/STIM_018.jpg
1332.208	1.399	0	generate	Run2	generate/STIM_018.jpg
1335.902	1.273	0	generate	Run2	generate/STIM_019.jpg
1340.071	1.553	0	generate	Run2	generate/STIM_019.jpg
1345.127	1.624	1	generate	Run2	generate/STIM_019.jpg
1349.358	1.079	1	generate	Run2	generate/STIM_019.jpg
1353.52	0.902	1	generate	Run2	generate/STIM_019.jpg
1358.364	1.525	1	generate	Run2	generate/STIM_020.jpg
1363.031	1.236	1	generate	Run2	generate/STIM_020.jpg
1367.761	2.198	1	generate	Run2	generate/STIM_020.jpg
1372.498	1.101	1	generate	Run2	generate/STIM_020.jpg
1375.767	1.718	1	generate	Run2	generate/STIM_020.jpg
1380.093	1.354	0	generate	Run2	generate/STIM_021.jpg
1384.253	1.889	1	generate	Run2	generate/STIM_021.jpg
1389.975	1.878	1	generate	Run2	generate/STIM_021.jpg
1394.482	0.935	1	generate	Run2	generate/STIM_021.jpg
1399.052	1.545	1	generate	Run2	generate/STIM_021.jpg
1403.644	1.071	1	generate	Run2	generate/STIM_022.jpg
1407.991	1.462	1	generate	Run2	generate/STIM_022.jpg
1411.717	1.902	1	generate	Run2	generate/STIM_022.jpg
1416.923	1.205	1	generate	Run2	generate/STIM_022.jpg
1421.698	1.045	1	generate	Run2	generate/STIM_022.jpg
1425.728	2.369	1	generate	Run2	generate/STIM_023.jpg
1430.833	1.593	1	generate	Run2	generate/STIM_023.jpg
1436.422	1.792	0	generate	Run2	generate/STIM_023.jpg
1440.886	1.278	1	generate	Run2	generate/STIM_023.jpg
1445.277	1.354	1	generate	Run2	generate/STIM_023.jpg
1449.193	2.273	1	generate	Run2	generate/STIM_024.jpg
1455.244	1.538	0	generate	Run2	generate/STIM_024.jpg
1460.506	1.43	0	generate	Run2	generate/STIM_024.jpg
1464.133	1.894	1	generate	Run2	generate/STIM_024.jpg
1468.076	1.781	0	generate	Run2	generate/STIM_024.jpg
1473.519	0.517	1	repeat	Run2	repeat/STIM_000.jpg
1476.249	0.846	1	repeat	Run2	repeat/STIM_000.jpg
1480.6	0.776	1	repeat	Run2	repeat/STIM_000.jpg
1485.321	0.779	0	repeat	Run2	repeat/STIM_000.jpg
1488.776	0.781	1	repeat	Run2	repeat/STIM_000.jpg
1492.583	0.993	1	repeat	Run2	repeat/STIM_001.jpg
1495.584	0.943	1	repeat	Run2	repeat/STIM_001.jpg
1498.661	0.833	1	repeat	Run2	repeat/STIM_001.jpg
1502.53	0.568	0	repeat	Run2	repeat/STIM_001.jpg
1505.641	0.853	1	repeat	Run2	repeat/STIM_001.jpg
1509.419	0.927	1	repeat	Run2	repeat/STIM_002.jpg
1512.79	0.858	0	repeat	Run2	repeat/STIM_002.jpg
1517.118	0.753	0	repeat	Run2	repeat/STIM_002.jpg
1521.861	0.831	1	repeat	Run2	repeat/STIM_002.jpg
1524.789	0.585	1	repeat	Run2	repeat/STIM_002.jpg
1528.537	0.632	1	repeat	Run2	repeat/STIM_003.jpg
1532.07	0.763	1	repeat	Run2	repeat/STIM_003.jpg
1535.518	0.613	1	repeat	Run2	repeat/STIM_003.jpg
1538.646	0.836	1	repeat	Run2	repeat/STIM_003.jpg
1541.841	0.982	0	repeat	Run2	repeat/STIM_003.jpg
1545.56	0.734	1	repeat	Run2	repeat/STIM_004.jpg
1550.102	0.657	1	repeat	Run2	repeat/STIM_004.jpg
1553.089	0.953	1	repeat	Run2	repeat/STIM_004.jpg
1556.331	0.783	1	repeat	Run2	repeat/STIM_004.jpg
1560.938	0.749	1	repeat	Run2	repeat/STIM_004.jpg
1564.548	0.664	1	repeat	Run2	repeat/STIM_005.jpg
1568.03	0.802	1	repeat	Run2	repeat/STIM_005.jpg
1571.189	0.648	1	repeat	Run2	repeat/STIM_005.jpg
1575.799	0.936	1	repeat	Run2	repeat/STIM_005.jpg
1579.162	0.744	1	repeat	Run2	repeat/STIM_005.jpg
1582.816	0.999	1	repeat	Run2	repeat/STIM_006.jpg
1586.553	0.545	1	repeat	Run2	repeat/STIM_006.jpg
1589.279	0.897	1	repeat	Run2	repeat/STIM_006.jpg
1592.466	0.666	1	repeat	Run2	repeat/STIM_006.jpg
1595.443	0.71	1	repeat	Run2	repeat/STIM_006.jpg
1599.664	0.68	1	repeat	Run2	repeat/STIM_007.jpg
1603.804	0.725	0	repeat	Run2	repeat/STIM_007.jpg
1606.753	0.666	1	repeat	Run2	repeat/STIM_007.jpg
1610.587	0.64	1	repeat	Run2	repeat/STIM_007.jpg
1614.979	0.736	1	repeat	Run2	repeat/STIM_007.jpg
1618.197	0.883	1	repeat	Run2	repeat/STIM_008.jpg
1622.549	0.547	1	repeat	Run2	repeat/STIM_008.jpg
1625.505	0.97	1	repeat	Run2	repeat/STIM_008.jpg
1629.707	0.912	0	repeat	Run2	repeat/STIM_008.jpg
1634.144	0.637	1	repeat	Run2	repeat/STIM_008.jpg
1638.329	0.744	0	repeat	Run2	repeat/STIM_009.jpg
1641.456	0.827	1	repeat	Run2	repeat/STIM_009.jpg
1645.938	0.846	1	repeat	Run2	repeat/STIM_009.jpg
1649.979	0.942	1	repeat	Run2	repeat/STIM_009.jpg
1654.656	0.773	1	repeat	Run2	repeat/STIM_009.jpg
1657.888	0.979	1	repeat	Run2	repeat/STIM_010.jpg
1662.171	0.8	0	repeat	Run2	repeat/STIM_010.jpg
1666.658	0.678	1	repeat	Run2	repeat/STIM_010.jpg
1669.449	0.568	1	repeat	Run2	repeat/STIM_010.jpg
1672.858	0.73	1	repeat	Run2	repeat/STIM_010.jpg
1675.826	0.619	0	repeat	Run2	repeat/STIM_011.jpg
1678.708	0.877	1	repeat	Run2	repeat/STIM_011.jpg
1682.622	0.752	1	repeat	Run2	repeat/STIM_011.jpg
1686.421	0.522	1	repeat	Run2	repeat/STIM_011.jpg
1689.263	0.936	0	repeat	Run2	repeat/STIM_011.jpg
1692.351	0.855	1	repeat	Run2	repeat/STIM_012.jpg
1697.024	0.802	1	repeat	Run2	repeat/STIM_012.jpg
1700.69	0.777	0	repeat	Run2	repeat/STIM_012.jpg
1704.517	0.886	1	repeat	Run2	repeat/STIM_012.jpg
1708.297	0.656	1	repeat	Run2	repeat/STIM_012.jpg
1712.704	0.64	1	repeat	Run2	repeat/STIM_013.jpg
1715.35	0.643	0	repeat	Run2	repeat/STIM_013.jpg
1719.58	0.903	1	repeat	Run2	repeat/STIM_013.jpg
1724.307	0.65	1	repeat	Run2	repeat/STIM_013.jpg
1727.539	0.785	1	repeat	Run2	repeat/STIM_013.jpg
1732.254	0.931	1	repeat	Run2	repeat/STIM_014.jpg
1735.238	0.973	1	repeat	Run2	repeat/STIM_014.jpg
1739.941	0.913	1	repeat	Run2	repeat/STIM_014.jpg
1743.927	0.859	1	repeat	Run2	repeat/STIM_014.jpg
1746.995	0.535	0	repeat	Run2	repeat/STIM_014.jpg
1749.769	2.039	1	generate	Run3	generate/STIM_000.jpg
1754.95	0.894	1	generate	Run3	generate/STIM_000.jpg
1757.982	1.111	1	generate	Run3	generate/STIM_000.jpg
1762.703	1.517	1	generate	Run3	generate/STIM_000.jpg
1767.506	1.987	1	generate	Run3	generate/STIM_000.jpg
1771.557	1.202	1	generate	Run3	generate/STIM_001.jpg
1775.395	2.006	0	generate	Run3	generate/STIM_001.jpg
1780.968	1.451	0	generate	Run3	generate/STIM_001.jpg
1785.881	0.861	1	generate	Run3	generate/STIM_001.jpg
1790.49	0.862	1	generate	Run3	generate/STIM_001.jpg
1793.414	1.924	1	generate	Run3	generate/STIM_002.jpg
1798.861	1.222	1	generate	Run3	generate/STIM_002.jpg
1802.618	1.933	1	generate	Run3	generate/STIM_002.jpg
1807.818	1.636	1	generate	Run3	generate/STIM_002.jpg
1813.117	1.594	1	generate	Run3	generate/STIM_002.jpg
1817.455	1.848	1	generate	Run3	generate/STIM_003.jpg
1822.848	1.456	1	generate	Run3	generate/STIM_003.jpg
1826.844	1.316	1	generate	Run3	generate/STIM_003.jpg
1832.088	1.578	0	generate	Run3	generate/STIM_003.jpg
1837.097	1.312	0	generate	Run3	generate/STIM_003.jpg
1841.801	1.288	1	generate	Run3	generate/STIM_004.jpg
1847.029	0.926	1	generate	Run3	generate/STIM_004.jpg
1851.239	1.422	1	generate	Run3	generate/STIM_004.jpg
1854.882	1.864	1	generate	Run3	generate/STIM_004.jpg
1860.457	1.939	1	generate	Run3	generate/STIM_004.jpg
1866.371	1.768	0	generate	Run3	generate/STIM_005.jpg
1871.428	2.112	0	generate	Run3	generate/STIM_005.jpg
1876.082	1.55	1	generate	Run3	generate/STIM_005.jpg
1880.655	1.057	0	generate	Run3	generate/STIM_005.jpg
1884.056	1.125	1	generate	Run3	generate/STIM_005.jpg
1887.244	1.906	1	generate	Run3	generate/STIM_006.jpg
1891.816	1.647	0	generate	Run3	generate/STIM_006.jpg
1897.091	2.067	1	generate	Run3	generate/STIM_006.jpg
1902.714	0.957	1	generate	Run3	generate/STIM_006.jpg
1907.58	1.744	0	generate	Run3	generate/STIM_006.jpg
1912.697	1.443	0	generate	Run3	generate/STIM_007.jpg
1916.748	1.187	1	generate	Run3	generate/STIM_007.jpg
1921.471	2.112	1	generate	Run3	generate/STIM_007.jpg
1926.435	1.932	1	generate	Run3	generate/STIM_007.jpg
1931.187	1.738	1	generate	Run3	generate/STIM_007.jpg
1936.661	1.15	1	generate	Run3	generate/STIM_008.jpg
1940.252	1.63	0	generate	Run3	generate/STIM_008.jpg
1945.531	1.95	1	generate	Run3	generate/STIM_008.jpg
1951.015	1.026	1	generate	Run3	generate/STIM_008.jpg
1955.084	2.073	1	generate	Run3	generate/STIM_008.jpg
1960.227	0.913	1	generate	Run3	generate/STIM_009.jpg
1965.013	1.608	0	generate	Run3	generate/STIM_009.jpg
1969.378	1.653	1	generate	Run3	generate/STIM_009.jpg
1974.376	0.968	1	generate	Run3	generate/STIM_009.jpg
1978.579	1.193	1	generate	Run3	generate/STIM_009.jpg
1982.127	1.069	0	generate	Run3	generate/STIM_010.jpg
1986.057	1.67	0	generate	Run3	generate/STIM_010.jpg
1990.948	1.501	1	generate	Run3	generate/STIM_010.jpg
1995.249	1.478	1	generate	Run3	generate/STIM_010.jpg
1999.488	1.69	1	generate	Run3	generate/STIM_010.jpg
2005.043	1.553	0	generate	Run3	generate/STIM_011.jpg
2009.822	1.272	0	generate	Run3	generate/STIM_011.jpg
2014.98	1.086	1	generate	Run3	generate/STIM_011.jpg
2019.329	2.002	1	generate	Run3	generate/STIM_011.jpg
2025.257	1.086	1	generate	Run3	generate/STIM_011.jpg
2029.074	1.79	0	generate	Run3	generate/STIM_012.jpg
2033.07	1.183	0	generate	Run3	generate/STIM_012.jpg
2038.207	1.071	1	generate	Run3	generate/STIM_012.jpg
2041.288	1.502	0	generate	Run3	generate/STIM_012.jpg
2046.748	1.566	1	generate	Run3	generate/STIM_012.jpg
2052.189	1.544	1	generate	Run3	generate/STIM_013.jpg
2056.932	2.101	1	generate	Run3	generate/STIM_013.jpg
2062.625	1.485	1	generate	Run3	generate/STIM_013.jpg
2066.171	0.989	1	generate	Run3	generate/STIM_013.jpg
2070.051	1.789	1	generate	Run3	generate/STIM_013.jpg
2075.768	0.986	1	generate	Run3	generate/STIM_014.jpg
2079.499	1.125	1	generate	Run3	generate/STIM_014.jpg
2083.272	1.141	1	generate	Run3	generate/STIM_014.jpg
2087.799	0.863	1	generate	Run3	generate/STIM_014.jpg
2091.065	1.255	0	generate	Run3	generate/STIM_014.jpg
2095.62	1.544	1	generate	Run3	generate/STIM_015.jpg
2100.347	1.198	1	generate	Run3	generate/STIM_015.jpg
2104.056	1.988	0	generate	Run3	generate/STIM_015.jpg
2109.777	1.5	1	generate	Run3	generate/STIM_015.jpg
2113.336	1.917	0	generate	Run3	generate/STIM_015.jpg
2117.863	1.73	0	generate	Run3	generate/STIM_016.jpg
2123.209	1.963	0	generate	Run3	generate/STIM_016.jpg
2127.243	1.202	0	generate	Run3	generate/STIM_016.jpg
2131.087	1.858	0	generate	Run3	generate/STIM_016.jpg
2136.61	2.095	0	generate	Run3	generate/STIM_016.jpg
2141.264	0.923	0	generate	Run3	generate/STIM_017.jpg
2146.027	1.678	1	generate	Run3	generate/STIM_017.jpg
2150.377	1.641	1	generate	Run3	generate/STIM_017.jpg
2155.787	0.908	1	generate	Run3	generate/STIM_017.jpg
2158.871	1.8	1	generate	Run3	generate/STIM_017.jpg
2163.672	1.388	0	generate	Run3	generate/STIM_018.jpg
2169.055	1.813	1	generate	Run3	generate/STIM_018.jpg
2173.874	1.2	1	generate	Run3	generate/STIM_018.jpg
2177.323	1.794	1	generate	Run3	generate/STIM_018.jpg
2181.419	2.025	1	generate	Run3	generate/STIM_018.jpg
2187.073	1.77	0	generate	Run3	generate/STIM_019.jpg
2191.328	1.907	1	generate	Run3	generate/STIM_019.jpg
2195.894	1.04	1	generate	Run3	generate/STIM_019.jpg
2199.293	2.044	0	generate	Run3	generate/STIM_019.jpg
2204.857	1.802	0	generate	Run3	generate/STIM_019.jpg
2210.642	1.261	1	generate	Run3	generate/STIM_020.jpg
2215.227	1.182	1	generate	Run3	generate/STIM_020.jpg
2219.256	1.695	1	generate	Run3	generate/STIM_020.jpg
2223.49	1.054	1	generate	Run3	generate/STIM_020.jpg
2227.723	1.076	1	generate	Run3	generate/STIM_020.jpg
2230.976	1.982	1	generate	Run3	generate/STIM_021.jpg
2235.299	1.799	1	generate	Run3	generate/STIM_021.jpg
2240.379	1.045	0	generate	Run3	generate/STIM_021.jpg
2245.014	0.895	1	generate	Run3	generate/STIM_021.jpg
2248.109	1.453	0	generate	Run3	generate/STIM_021.jpg
2251.776	1.571	1	generate	Run3	generate/STIM_022.jpg
2256.975	1.631	1	generate	Run3	generate/STIM_022.jpg
2262.444	1.374	1	generate	Run3	generate/STIM_022.jpg
2266.723	1.161	0	generate	Run3	generate/STIM_022.jpg
2270.935	2.073	0	generate	Run3	generate/STIM_022.jpg
2275.951	1.989	0	generate	Run3	generate/STIM_023.jpg
2280.674	1.592	1	generate	Run3	generate/STIM_023.jpg
2285.762	1.137	0	generate	Run3	generate/STIM_023.jpg
2290.691	1.836	1	generate	Run3	generate/STIM_023.jpg
2296.426	2.007	1	generate	Run3	generate/STIM_023.jpg
2301.592	1.741	1	generate	Run3	generate/STIM_024.jpg
2305.832	1.746	1	generate	Run3	generate/STIM_024.jpg
2310.965	1.334	1	generate	Run3	generate/STIM_024.jpg
2315.211	1.026	1	generate	Run3	generate/STIM_024.jpg
2319.905	1.871	0	generate	Run3	generate/STIM_024.jpg
2324.167	0.83	1	repeat	Run3	repeat/STIM_000.jpg
2328.081	0.604	0	repeat	Run3	repeat/STIM_000.jpg
2331.565	0.857	1	repeat	Run3	repeat/STIM_000.jpg
2335.176	0.867	1	repeat	Run3	repeat/STIM_000.jpg
2338.271	0.958	1	repeat	Run3	repeat/STIM_000.jpg
2342.526	0.564	0	repeat	Run3	repeat/STIM_001.jpg
2345.428	0.663	1	repeat	Run3	repeat/STIM_001.jpg
2348.201	0.545	1	repeat	Run3	repeat/STIM_001.jpg
2352.706	0.962	1	repeat	Run3	repeat/STIM_001.jpg
2355.928	0.907	1	repeat	Run3	repeat/STIM_001.jpg
2359.943	0.636	1	repeat	Run3	repeat/STIM_002.jpg
2363.152	0.721	0	repeat	Run3	repeat/STIM_002.jpg
2367.21	0.973	1	repeat	Run3	repeat/STIM_002.jpg
2370.832	0.961	1	repeat	Run3	repeat/STIM_002.jpg
2375.107	0.801	0	repeat	Run3	repeat/STIM_002.jpg
2378.897	0.845	1	repeat	Run3	repeat/STIM_003.jpg
2383.078	0.939	0	repeat	Run3	repeat/STIM_003.jpg
2387.69	0.966	0	repeat	Run3	repeat/STIM_003.jpg
2392.496	0.957	1	repeat	Run3	repeat/STIM_003.jpg
2396.731	0.74	1	repeat	Run3	repeat/STIM_003.jpg
2400.379	0.964	0	repeat	Run3	repeat/STIM_004.jpg
2405.058	0.719	1	repeat	Run3	repeat/STIM_004.jpg
2408.526	0.553	1	repeat	Run3	repeat/STIM_004.jpg
2412.864	0.737	1	repeat	Run3	repeat/STIM_004.jpg
2417.595	0.771	0	repeat	Run3	repeat/STIM_004.jpg
2420.599	0.66	1	repeat	Run3	repeat/STIM_005.jpg
2424.208	0.528	1	repeat	Run3	repeat/STIM_005.jpg
2427.001	0.896	1	repeat	Run3	repeat/STIM_005.jpg
2430.743	0.788	1	repeat	Run3	repeat/STIM_005.jpg
2434.298	0.534	1	repeat	Run3	repeat/STIM_005.jpg
2437.11	0.921	0	repeat	Run3	repeat/STIM_006.jpg
2441.431	0.884	1	repeat	Run3	repeat/STIM_006.jpg
2445.175	0.588	1	repeat	Run3	repeat/STIM_006.jpg
2448.813	0.738	1	repeat	Run3	repeat/STIM_006.jpg
2453.2	0.874	1	repeat	Run3	repeat/STIM_006.jpg
2457.507	0.53	1	repeat	Run3	repeat/STIM_007.jpg
2461.887	0.77	1	repeat	Run3	repeat/STIM_007.jpg
2465.333	0.951	1	repeat	Run3	repeat/STIM_007.jpg
2468.399	0.511	1	repeat	Run3	repeat/STIM_007.jpg
2471.312	0.905	1	repeat	Run3	repeat/STIM_007.jpg
2474.392	0.524	1	repeat	Run3	repeat/STIM_008.jpg
2477.566	0.698	0	repeat	Run3	repeat/STIM_008.jpg
2480.497	0.952	1	repeat	Run3	repeat/STIM_008.jpg
2483.713	0.62	1	repeat	Run3	repeat/STIM_008.jpg
2486.659	0.697	1	repeat	Run3	repeat/STIM_008.jpg
2490.312	0.825	1	repeat	Run3	repeat/STIM_009.jpg
2494.517	0.621	1	repeat	Run3	repeat/STIM_009.jpg
2497.635	0.779	1	repeat	Run3	repeat/STIM_009.jpg
2501.287	0.576	1	repeat	Run3	repeat/STIM_009.jpg
2504.461	0.632	1	repeat	Run3	repeat/STIM_009.jpg
2507.212	0.563	1	repeat	Run3	repeat/STIM_010.jpg
2511.387	0.911	1	repeat	Run3	repeat/STIM_010.jpg
2514.665	0.536	0	repeat	Run3	repeat/STIM_010.jpg
2518.465	0.846	0	repeat	Run3	repeat/STIM_010.jpg
2522.975	0.577	1	repeat	Run3	repeat/STIM_010.jpg
2526.851	0.525	1	repeat	Run3	repeat/STIM_011.jpg
2530.232	0.642	1	repeat	Run3	repeat/STIM_011.jpg
2534.62	0.584	0	repeat	Run3	repeat/STIM_011.jpg
2538.19	0.992	1	repeat	Run3	repeat/STIM_011.jpg
2541.404	0.624	0	repeat	Run3	repeat/STIM_011.jpg
2545.454	0.847	1	repeat	Run3	repeat/STIM_012.jpg
2549.526	0.624	0	repeat	Run3	repeat/STIM_012.jpg
2553.149	0.651	1	repeat	Run3	repeat/STIM_012.jpg
2556.127	1.001	1	repeat	Run3	repeat/STIM_012.jpg
2560.392	0.7	1	repeat	Run3	repeat/STIM_012.jpg
2563.299	0.61	1	repeat	Run3	repeat/STIM_013.jpg
2566.121	1.002	0	repeat	Run3	repeat/STIM_013.jpg
2569.58	0.762	1	repeat	Run3	repeat/STIM_013.jpg
2572.388	0.791	1	repeat	Run3	repeat/STIM_013.jpg
2575.203	0.586	0	repeat	Run3	repeat/STIM_013.jpg
2579.254	0.73	1	repeat	Run3	repeat/STIM_014.jpg
2582.648	0.63	1	repeat	Run3	repeat/STIM_014.jpg
2585.81	0.523	0	repeat	Run3	repeat/STIM_014.jpg
2589.445	0.681	1	repeat	Run3	repeat/STIM_014.jpg
2592.839	0.881	1	repeat	Run3	repeat/STIM_014.jpg
2597.693	1.567	0	generate	Run4	generate/STIM_000.jpg
2602.592	0.944	1	generate	Run4	generate/STIM_000.jpg
2605.955	1.227	1	generate	Run4	generate/STIM_000.jpg
2610.623	1.451	1	generate	Run4	generate/STIM_000.jpg
2615.456	1.129	1	generate	Run4	generate/STIM_000.jpg
2619.795	1.664	0	generate	Run4	generate/STIM_001.jpg
2625.104	1.614	1	generate	Run4	generate/STIM_001.jpg
2629.083	1.867	1	generate	Run4	generate/STIM_001.jpg
2634.081	2.017	1	generate	Run4	generate/STIM_001.jpg
2638.899	1.709	1	generate	Run4	generate/STIM_001.jpg
2642.981	1.501	0	generate	Run4	generate/STIM_002.jpg
2646.808	1.011	1	generate	Run4	generate/STIM_002.jpg
2651.326	0.978	1	generate	Run4	generate/STIM_002.jpg
2655.176	1.83	1	generate	Run4	generate/STIM_002.jpg
2660.03	1.44	1	generate	Run4	generate/STIM_002.jpg
2665.268	1.39	1	generate	Run4	generate/STIM_003.jpg
2669.53	1.409	1	generate	Run4	generate/STIM_003.jpg
2673.899	1.833	1	generate	Run4	generate/STIM_003.jpg
2679.014	1.618	1	generate	Run4	generate/STIM_003.jpg
2683.919	1.664	1	generate	Run4	generate/STIM_003.jpg
2689.433	1.494	1	generate	Run4	generate/STIM_004.jpg
2693.619	1.24	1	generate	Run4	generate/STIM_004.jpg
2697.713	1.884	1	generate	Run4	generate/STIM_004.jpg
2703.517	1.715	0	generate	Run4	generate/STIM_004.jpg
2708.528	1.273	1	generate	Run4	generate/STIM_004.jpg
2711.929	1.185	1	generate	Run4	generate/STIM_005.jpg
2716.408	2.105	1	generate	Run4	generate/STIM_005.jpg
2721.828	1.464	1	generate	Run4	generate/STIM_005.jpg
2725.406	1.558	0	generate	Run4	generate/STIM_005.jpg
2730.705	2.035	1	generate	Run4	generate/STIM_005.jpg
2736.082	1.699	1	generate	Run4	generate/STIM_006.jpg
2740.425	1.731	0	generate	Run4	generate/STIM_006.jpg
2746.089	1.9	1	generate	Run4	generate/STIM_006.jpg
2751.301	0.857	1	generate	Run4	generate/STIM_006.jpg
2754.817	1.738	1	generate	Run4	generate/STIM_006.jpg
2758.868	0.894	0	generate	Run4	generate/STIM_007.jpg
2762.757	1.52	0	generate	Run4	generate/STIM_007.jpg
2766.369	2.015	1	generate	Run4	generate/STIM_007.jpg
2771.592	0.936	1	generate	Run4	generate/STIM_007.jpg
2775.824	1.798	1	generate	Run4	generate/STIM_007.jpg
2779.953	1.174	0	generate	Run4	generate/STIM_008.jpg
2784.661	1.57	1	generate	Run4	generate/STIM_008.jpg
2789.684	1.394	1	generate	Run4	generate/STIM_008.jpg
2794.552	1.802	1	generate	Run4	generate/STIM_008.jpg
2800.309	1.473	0	generate	Run4	generate/STIM_008.jpg
2804.992	1.148	1	generate	Run4	generate/STIM_009.jpg
2809.206	1.764	0	generate	Run4	generate/STIM_009.jpg
2814.53	1.616	1	generate	Run4	generate/STIM_009.jpg
2818.973	1.357	1	generate	Run4	generate/STIM_009.jpg
2823.137	1.689	1	generate	Run4	generate/STIM_009.jpg
2826.941	1.795	1	generate	Run4	generate/STIM_010.jpg
2832.565	1.79	1	generate	Run4	generate/STIM_010.jpg
2838.283	1.683	0	generate	Run4	generate/STIM_010.jpg
2843.527	1.069	1	generate	Run4	generate/STIM_010.jpg
2847.738	0.932	0	generate	Run4	generate/STIM_010.jpg
2852.365	1.513	0	generate	Run4	generate/STIM_011.jpg
2857.748	1.096	1	generate	Run4	generate/STIM_011.jpg
2861.741	2.021	1	generate	Run4	generate/STIM_011.jpg
2866.64	1.025	1	generate	Run4	generate/STIM_011.jpg
2871.014	2.106	1	generate	Run4	generate/STIM_011.jpg
2875.745	0.928	1	generate	Run4	generate/STIM_012.jpg
2879.722	1.673	0	generate	Run4	generate/STIM_012.jpg
2883.889	1.867	1	generate	Run4	generate/STIM_012.jpg
2889.632	1.248	0	generate	Run4	generate/STIM_012.jpg
2894.535	2.086	1	generate	Run4	generate/STIM_012.jpg
2899.047	1.135	1	generate	Run4	generate/STIM_013.jpg
2903.535	0.965	1	generate	Run4	generate/STIM_013.jpg
2908.176	0.904	0	generate	Run4	generate/STIM_013.jpg
2911.578	1.296	1	generate	Run4	generate/STIM_013.jpg
2916.057	1.273	1	generate	Run4	generate/STIM_013.jpg
2920.694	1.731	1	generate	Run4	generate/STIM_014.jpg
2926.377	1.029	1	generate	Run4	generate/STIM_014.jpg
2931.242	1.075	1	generate	Run4	generate/STIM_014.jpg
2935.768	1.587	1	generate	Run4	generate/STIM_014.jpg
2940.846	1.988	1	generate	Run4	generate/STIM_014.jpg
2945.456	1.928	0	generate	Run4	generate/STIM_015.jpg
2950.957	1.045	1	generate	Run4	generate/STIM_015.jpg
2955.027	1.496	1	generate	Run4	generate/STIM_015.jpg
2960.176	0.938	1	generate	Run4	generate/STIM_015.jpg
2963.326	1.486	1	generate	Run4	generate/STIM_015.jpg
2968.773	1.804	1	generate	Run4	generate/STIM_016.jpg
2973.261	1.913	0	generate	Run4	generate/STIM_016.jpg
2978.698	1.996	0	generate	Run4	generate/STIM_016.jpg
2983.798	1.649	1	generate	Run4	generate/STIM_016.jpg
2987.557	1.733	1	generate	Run4	generate/STIM_016.jpg
2991.345	1.378	0	generate	Run4	generate/STIM_017.jpg
2995.297	1.756	1	generate	Run4	generate/STIM_017.jpg
2999.449	0.865	1	generate	Run4	generate/STIM_017.jpg
3003.308	1.845	1	generate	Run4	generate/STIM_017.jpg
3008.96	2.109	1	generate	Run4	generate/STIM_017.jpg
3013.767	1.467	1	generate	Run4	generate/STIM_018.jpg
3018.463	1.181	1	generate	Run4	generate/STIM_018.jpg
3022.8	1.591	0	generate	Run4	generate/STIM_018.jpg
3027.448	2.11	1	generate	Run4	generate/STIM_018.jpg
3033.304	1.575	1	generate	Run4	generate/STIM_018.jpg
3038.594	1.438	1	generate	Run4	generate/STIM_019.jpg
3042.452	1.414	1	generate	Run4	generate/STIM_019.jpg
3046.648	2.09	1	generate	Run4	generate/STIM_019.jpg
3052.525	2.051	1	generate	Run4	generate/STIM_019.jpg
3057.45	2.053	1	generate	Run4	generate/STIM_019.jpg
3062.22	1.534	0	generate	Run4	generate/STIM_020.jpg
3066.59	0.971	1	generate	Run4	generate/STIM_020.jpg
3070.425	1.599	0	generate	Run4	generate/STIM_020.jpg
3075.76	1.176	1	generate	Run4	generate/STIM_020.jpg
3080.703	1.867	1	generate	Run4	generate/STIM_020.jpg
3086.084	1.038	0	generate	Run4	generate/STIM_021.jpg
3090.455	1.56	0	generate	Run4	generate/STIM_021.jpg
3094.118	1.968	1	generate	Run4	generate/STIM_021.jpg
3098.196	0.999	0	generate	Run4	generate/STIM_021.jpg
3102.295	1.76	1	generate	Run4	generate/STIM_021.jpg
3106.255	1.122	0	generate	Run4	generate/STIM_022.jpg
3110.944	1.469	0	generate	Run4	generate/STIM_022.jpg
3115.562	1.927	1	generate	Run4	generate/STIM_022.jpg
3120.751	1.708	1	generate	Run4	generate/STIM_022.jpg
3125.093	0.943	1	generate	Run4	generate/STIM_022.jpg
3128.499	0.983	1	generate	Run4	generate/STIM_023.jpg
3132.893	1.307	1	generate	Run4	generate/STIM_023.jpg
3136.661	1.698	0	generate	Run4	generate/STIM_023.jpg
3141.005	1.801	1	generate	Run4	generate/STIM_023.jpg
3146.136	1.995	1	generate	Run4	generate/STIM_023.jpg
3151.8	1.075	1	generate	Run4	generate/STIM_024.jpg
3155.379	1.339	1	generate	Run4	generate/STIM_024.jpg
3159.057	1.804	1	generate	Run4	generate/STIM_024.jpg
3163.763	1.59	1	generate	Run4	generate/STIM_024.jpg
3168.912	1.07	1	generate	Run4	generate/STIM_024.jpg
3172.939	0.657	1	repeat	Run4	repeat/STIM_000.jpg
3177.287	0.998	1	repeat	Run4	repeat/STIM_000.jpg
3181.262	0.573	0	repeat	Run4	repeat/STIM_000.jpg
3185.529	0.982	1	repeat	Run4	repeat/STIM_000.jpg
3190.318	0.52	0	repeat	Run4	repeat/STIM_000.jpg
3193.808	0.997	1	repeat	Run4	repeat/STIM_001.jpg
3196.965	0.815	1	repeat	Run4	repeat/STIM_001.jpg
3200.847	0.569	1	repeat	Run4	repeat/STIM_001.jpg
3203.902	0.621	0	repeat	Run4	repeat/STIM_001.jpg
3206.869	0.697	1	repeat	Run4	repeat/STIM_001.jpg
3209.849	0.76	0	repeat	Run4	repeat/STIM_002.jpg
3212.882	0.615	0	repeat	Run4	repeat/STIM_002.jpg
3216.673	0.582	0	repeat	Run4	repeat/STIM_002.jpg
3219.994	0.63	1	repeat	Run4	repeat/STIM_002.jpg
3224.031	0.659	1	repeat	Run4	repeat/STIM_002.jpg
3227.063	0.862	1	repeat	Run4	repeat/STIM_003.jpg
3230.44	0.883	0	repeat	Run4	repeat/STIM_003.jpg
3233.404	0.738	1	repeat	Run4	repeat/STIM_003.jpg
3237.09	0.923	1	repeat	Run4	repeat/STIM_003.jpg
3241.259	0.511	0	repeat	Run4	repeat/STIM_003.jpg
3244.054	0.898	1	repeat	Run4	repeat/STIM_004.jpg
3247.248	0.539	1	repeat	Run4	repeat/STIM_004.jpg
3250.68	0.936	1	repeat	Run4	repeat/STIM_004.jpg
3254.057	0.506	1	repeat	Run4	repeat/STIM_004.jpg
3258.397	0.66	0	repeat	Run4	repeat/STIM_004.jpg
3261.996	0.752	1	repeat	Run4	repeat/STIM_005.jpg
3266.615	0.672	1	repeat	Run4	repeat/STIM_005.jpg
3269.566	0.965	1	repeat	Run4	repeat/STIM_005.jpg
3274.488	0.838	0	repeat	Run4	repeat/STIM_005.jpg
3278.312	0.657	1	repeat	Run4	repeat/STIM_005.jpg
3281.634	0.862	1	repeat	Run4	repeat/STIM_006.jpg
3285.076	0.532	1	repeat	Run4	repeat/STIM_006.jpg
3289.125	0.672	1	repeat	Run4	repeat/STIM_006.jpg
3293.544	0.557	0	repeat	Run4	repeat/STIM_006.jpg
3297.434	0.529	1	repeat	Run4	repeat/STIM_006.jpg
3300.787	0.724	1	repeat	Run4	repeat/STIM_007.jpg
3304.728	0.708	1	repeat	Run4	repeat/STIM_007.jpg
3309.258	0.675	1	repeat	Run4	repeat/STIM_007.jpg
3312.592	0.948	1	repeat	Run4	repeat/STIM_007.jpg
3317.227	0.76	1	repeat	Run4	repeat/STIM_007.jpg
3320.82	0.977	1	repeat	Run4	repeat/STIM_008.jpg
3324.038	0.845	1	repeat	Run4	repeat/STIM_008.jpg
3327.567	0.525	1	repeat	Run4	repeat/STIM_008.jpg
3331.704	0.657	1	repeat	Run4	repeat/STIM_008.jpg
3334.716	0.647	1	repeat	Run4	repeat/STIM_008.jpg
3338.981	0.531	1	repeat	Run4	repeat/STIM_009.jpg
3342.339	0.574	1	repeat	Run4	repeat/STIM_009.jpg
3345.922	0.551	0	repeat	Run4	repeat/STIM_009.jpg
3350.278	0.866	0	repeat	Run4	repeat/STIM_009.jpg
3353.642	0.769	1	repeat	Run4	repeat/STIM_009.jpg
3357.761	0.618	1	repeat	Run4	repeat/STIM_010.jpg
3360.781	0.836	1	repeat	Run4	repeat/STIM_010.jpg
3364.426	0.579	1	repeat	Run4	repeat/STIM_010.jpg
3367.81	0.702	0	repeat	Run4	repeat/STIM_010.jpg
3372.16	0.859	0	repeat	Run4	repeat/STIM_010.jpg
3376.099	0.849	1	repeat	Run4	repeat/STIM_011.jpg
3379.21	0.728	1	repeat	Run4	repeat/STIM_011.jpg
3382.281	0.624	1	repeat	Run4	repeat/STIM_011.jpg
3385.696	0.912	1	repeat	Run4	repeat/STIM_011.jpg
3389.758	0.802	0	repeat	Run4	repeat/STIM_011.jpg
3393.553	0.822	1	repeat	Run4	repeat/STIM_012.jpg
3396.502	0.792	1	repeat	Run4	repeat/STIM_012.jpg
3400.825	0.692	0	repeat	Run4	repeat/STIM_012.jpg
3404.427	0.52	1	repeat	Run4	repeat/STIM_012.jpg
3407.192	0.829	0	repeat	Run4	repeat/STIM_012.jpg
3411.585	0.657	1	repeat	Run4	repeat/STIM_013.jpg
3415.499	0.721	1	repeat	Run4	repeat/STIM_013.jpg
3419.221	0.689	1	repeat	Run4	repeat/STIM_013.jpg
3423.43	0.565	1	repeat	Run4	repeat/STIM_013.jpg
3427.642	0.787	1	repeat	Run4	repeat/STIM_013.jpg
3432.293	0.524	1	repeat	Run4	repeat/STIM_014.jpg
3434.854	0.773	1	repeat	Run4	repeat/STIM_014.jpg
3438.179	0.568	1	repeat	Run4	repeat/STIM_014.jpg
3441.149	0.965	1	repeat	Run4	repeat/STIM_014.jpg
3445.838	0.909	1	repeat	Run4	repeat/STIM_014.jpg
