onset	duration	response_time_ms	trial_type	learning_stage	stimulus	response_port
0.0	2.405	2405.4	generate	Run1	generate/STIM_000.jpg	100
4.412	2.473	2473.3	generate	Run1	generate/STIM_000.jpg	99
9.327	2.254	2254.3	generate	Run1	generate/STIM_000.jpg	99
14.321	1.075	1075.3	generate	Run1	generate/STIM_000.jpg	100
18.017	1.177	1176.8	generate	Run1	generate/STIM_000.jpg	99
21.808	2.564	2563.7	generate	Run1	generate/STIM_001.jpg	99
28.246	1.825	1825.1	generate	Run1	generate/STIM_001.jpg	99
32.375	1.983	1982.6	generate	Run1	generate/STIM_001.jpg	99
38.074	1.525	1524.7	generate	Run1	generate/STIM_001.jpg	100
43.48	2.376	2376.1	generate	Run1	generate/STIM_001.jpg	100
49.698	2.328	2327.5	generate	Run1	generate/STIM_002.jpg	99
55.726	1.963	1963.2	generate	Run1	generate/STIM_002.jpg	100
60.124	1.908	1907.6	generate	Run1	generate/STIM_002.jpg	100
65.79	1.236	1235.6	generate	Run1	generate/STIM_002.jpg	100
70.652	1.297	1296.6	generate	Run1	generate/STIM_002.jpg	100
74.658	2.114	2114.5	generate	Run1	generate/STIM_003.jpg	99
80.25	1.981	1980.7	generate	Run1	generate/STIM_003.jpg	99
85.733	2.478	2477.6	generate	Run1	generate/STIM_003.jpg	100
91.535	1.125	1125.2	generate	Run1	generate/STIM_003.jpg	100
94.945	2.071	2071.1	generate	Run1	generate/STIM_003.jpg	100
100.925	2.67	2669.7	generate	Run1	generate/STIM_004.jpg	99
107.289	2.339	2339.0	generate	Run1	generate/STIM_004.jpg	100
113.207	1.27	1269.8	generate	Run1	generate/STIM_004.jpg	100
116.924	1.227	1227.0	generate	Run1	generate/STIM_004.jpg	99
121.988	1.752	1752.0	generate	Run1	generate/STIM_004.jpg	99
127.722	1.328	1328.0	generate	Run1	generate/STIM_005.jpg	99
132.509	2.828	2828.1	generate	Run1	generate/STIM_005.jpg	100
138.475	2.407	2407.4	generate	Run1	generate/STIM_005.jpg	99
143.606	2.472	2471.6	generate	Run1	generate/STIM_005.jpg	100
148.483	1.339	1338.6	generate	Run1	generate/STIM_005.jpg	99
153.222	2.406	2405.9	generate	Run1	generate/STIM_006.jpg	99
158.928	2.048	2048.0	generate	Run1	generate/STIM_006.jpg	100
164.837	1.93	1929.5	generate	Run1	generate/STIM_006.jpg	99
170.275	1.727	1726.6	generate	Run1	generate/STIM_006.jpg	99
174.583	1.876	1876.0	generate	Run1	generate/STIM_006.jpg	100
178.694	2.645	2645.0	generate	Run1	generate/STIM_007.jpg	99
184.696	1.31	1310.2	generate	Run1	generate/STIM_007.jpg	99
188.693	1.666	1665.8	generate	Run1	generate/STIM_007.jpg	100
193.83	2.458	2457.9	generate	Run1	generate/STIM_007.jpg	99
199.238	1.327	1326.7	generate	Run1	generate/STIM_007.jpg	100
204.031	2.039	2039.4	generate	Run1	generate/STIM_008.jpg	100
209.067	1.472	1471.7	generate	Run1	generate/STIM_008.jpg	99
212.904	2.717	2717.2	generate	Run1	generate/STIM_008.jpg	99
219.491	1.131	1130.7	generate	Run1	generate/STIM_008.jpg	99
224.409	2.106	2105.5	generate	Run1	generate/STIM_008.jpg	100
230.123	2.28	2280.2	generate	Run1	generate/STIM_009.jpg	99
234.657	2.369	2369.0	generate	Run1	generate/STIM_009.jpg	100
240.975	1.24	1239.6	generate	Run1	generate/STIM_009.jpg	99
245.231	2.409	2408.7	generate	Run1	generate/STIM_009.jpg	100
249.961	1.826	1826.2	generate	Run1	generate/STIM_009.jpg	99
253.857	2.487	2486.6	generate	Run1	generate/STIM_010.jpg	99
259.341	1.447	1447.2	generate	Run1	generate/STIM_010.jpg	99
263.767	2.131	2131.4	generate	Run1	generate/STIM_010.jpg	99
269.3	2.006	2006.2	generate	Run1	generate/STIM_010.jpg	99
274.871	2.33	2330.4	generate	Run1	generate/STIM_010.jpg	99
279.543	2.171	2170.8	generate	Run1	generate/STIM_011.jpg	99
284.417	1.961	1961.2	generate	Run1	generate/STIM_011.jpg	100
288.897	2.636	2636.4	generate	Run1	generate/STIM_011.jpg	100
293.911	1.504	1503.7	generate	Run1	generate/STIM_011.jpg	100
298.584	1.217	1216.7	generate	Run1	generate/STIM_011.jpg	100
303.639	2.672	2672.0	generate	Run1	generate/STIM_012.jpg	100
310.028	2.187	2187.0	generate	Run1	generate/STIM_012.jpg	99
314.979	1.767	1767.0	generate	Run1	generate/STIM_012.jpg	100
319.345	1.555	1555.4	generate	Run1	generate/STIM_012.jpg	100
323.475	1.66	1660.5	generate	Run1	generate/STIM_012.jpg	100
327.323	1.572	1571.8	generate	Run1	generate/STIM_013.jpg	99
332.394	2.688	2688.3	generate	Run1	generate/STIM_013.jpg	100
338.096	1.261	1260.8	generate	Run1	generate/STIM_013.jpg	99
343.352	2.13	2130.3	generate	Run1	generate/STIM_013.jpg	99
348.327	1.321	1321.1	generate	Run1	generate/STIM_013.jpg	99
352.93	2.919	2919.2	generate	Run1	generate/STIM_014.jpg	99
359.327	1.773	1772.7	generate	Run1	generate/STIM_014.jpg	100
364.673	2.522	2522.0	generate	Run1	generate/STIM_014.jpg	100
369.816	1.334	1334.0	generate	Run1	generate/STIM_014.jpg	100
373.168	1.539	1539.2	generate	Run1	generate/STIM_014.jpg	99
378.004	1.239	1238.6	generate	Run1	generate/STIM_015.jpg	99
382.965	1.298	1298.0	generate	Run1	generate/STIM_015.jpg	99
388.218	1.09	1090.3	generate	Run1	generate/STIM_015.jpg	100
391.674	2.459	2458.8	generate	Run1	generate/STIM_015.jpg	99
396.24	2.397	2397.0	generate	Run1	generate/STIM_015.jpg	99
401.722	2.111	2110.6	generate	Run1	generate/STIM_016.jpg	100
407.419	1.853	1852.7	generate	Run1	generate/STIM_016.jpg	99
411.582	2.531	2531.1	generate	Run1	generate/STIM_016.jpg	100
417.378	1.358	1357.5	generate	Run1	generate/STIM_016.jpg	100
421.965	1.588	1588.0	generate	Run1	generate/STIM_016.jpg	100
426.744	1.347	1346.9	generate	Run1	generate/STIM_017.jpg	99
430.967	1.837	1836.8	generate	Run1	generate/STIM_017.jpg	99
436.303	1.535	1534.9	generate	Run1	generate/STIM_017.jpg	100
441.726	1.249	1249.1	generate	Run1	generate/STIM_017.jpg	99
446.521	1.338	1338.1	generate	Run1	generate/STIM_017.jpg	100
451.794	1.913	1913.4	generate	Run1	generate/STIM_018.jpg	100
456.194	1.764	1764.4	generate	Run1	generate/STIM_018.jpg	100
460.538	2.632	2631.6	generate	Run1	generate/STIM_018.jpg	99
465.559	1.277	1276.8	generate	Run1	generate/STIM_018.jpg	100
470.654	1.669	1669.2	generate	Run1	generate/STIM_018.jpg	99
475.574	1.309	1309.0	generate	Run1	generate/STIM_019.jpg	100
480.437	1.549	1549.2	generate	Run1	generate/STIM_019.jpg	100
485.791	1.831	1830.7	generate	Run1	generate/STIM_019.jpg	99
489.707	2.258	2257.7	generate	Run1	generate/STIM_019.jpg	99
494.872	1.372	1372.1	generate	Run1	generate/STIM_019.jpg	99
499.299	2.568	2568.4	generate	Run1	generate/STIM_020.jpg	99
504.961	1.858	1857.6	generate	Run1	generate/STIM_020.jpg	100
510.418	2.467	2466.6	generate	Run1	generate/STIM_020.jpg	100
516.537	2.305	2304.7	generate	Run1	generate/STIM_020.jpg	100
521.644	1.942	1941.8	generate	Run1	generate/STIM_020.jpg	99
525.648	2.208	2208.5	generate	Run1	generate/STIM_021.jpg	100
531.005	2.647	2646.6	generate	Run1	generate/STIM_021.jpg	100
537.13	1.358	1358.4	generate	Run1	generate/STIM_021.jpg	100
541.247	1.424	1423.5	generate	Run1	generate/STIM_021.jpg	100
545.546	1.161	1160.8	generate	Run1	generate/STIM_021.jpg	100
549.024	2.169	2169.4	generate	Run1	generate/STIM_022.jpg	100
554.927	2.046	2046.5	generate	Run1	generate/STIM_022.jpg	99
560.305	1.622	1621.9	generate	Run1	generate/STIM_022.jpg	99
564.237	1.654	1654.0	generate	Run1	generate/STIM_022.jpg	100
567.9	1.786	1785.5	generate	Run1	generate/STIM_022.jpg	99
573.208	1.867	1867.2	generate	Run1	generate/STIM_023.jpg	99
578.446	1.487	1487.3	generate	Run1	generate/STIM_023.jpg	99
583.372	1.876	1875.6	generate	Run1	generate/STIM_023.jpg	100
587.503	1.956	1956.4	generate	Run1	generate/STIM_023.jpg	99
592.652	1.106	1106.1	generate	Run1	generate/STIM_023.jpg	99
597.658	2.013	2013.2	generate	Run1	generate/STIM_024.jpg	99
602.441	2.049	2049.2	generate	Run1	generate/STIM_024.jpg	100
607.558	1.724	1724.4	generate	Run1	generate/STIM_024.jpg	100
613.209	1.27	1270.1	generate	Run1	generate/STIM_024.jpg	100
618.373	0.983	982.6	generate	Run1	generate/STIM_024.jpg	100
622.015	0.885	885.0	repeat	Run1	repeat/STIM_000.jpg	99
626.518	0.678	678.2	repeat	Run1	repeat/STIM_000.jpg	99
631.069	0.68	680.2	repeat	Run1	repeat/STIM_000.jpg	100
634.401	0.714	713.6	repeat	Run1	repeat/STIM_000.jpg	99
637.762	0.744	744.5	repeat	Run1	repeat/STIM_000.jpg	100
641.054	0.848	847.9	repeat	Run1	repeat/STIM_001.jpg	99
644.363	0.651	650.6	repeat	Run1	repeat/STIM_001.jpg	100
648.055	0.882	882.5	repeat	Run1	repeat/STIM_001.jpg	99
651.508	0.892	892.2	repeat	Run1	repeat/STIM_001.jpg	100
655.856	0.724	724.4	repeat	Run1	repeat/STIM_001.jpg	100
660.027	0.812	811.8	repeat	Run1	repeat/STIM_002.jpg	99
663.749	0.594	593.8	repeat	Run1	repeat/STIM_002.jpg	99
667.617	0.625	625.3	repeat	Run1	repeat/STIM_002.jpg	99
672.12	0.716	716.3	repeat	Run1	repeat/STIM_002.jpg	100
676.514	0.851	851.0	repeat	Run1	repeat/STIM_002.jpg	99
679.478	0.697	697.1	repeat	Run1	repeat/STIM_003.jpg	99
682.687	0.794	793.5	repeat	Run1	repeat/STIM_003.jpg	100
686.489	0.852	851.5	repeat	Run1	repeat/STIM_003.jpg	100
690.612	0.534	534.0	repeat	Run1	repeat/STIM_003.jpg	99
694.011	0.623	622.7	repeat	Run1	repeat/STIM_003.jpg	100
697.733	0.865	864.7	repeat	Run1	repeat/STIM_004.jpg	100
700.895	0.908	908.5	repeat	Run1	repeat/STIM_004.jpg	99
704.581	0.933	933.4	repeat	Run1	repeat/STIM_004.jpg	100
708.702	0.901	901.3	repeat	Run1	repeat/STIM_004.jpg	99
712.879	0.935	934.8	repeat	Run1	repeat/STIM_004.jpg	99
715.974	0.935	934.7	repeat	Run1	repeat/STIM_005.jpg	100
719.804	0.522	522.4	repeat	Run1	repeat/STIM_005.jpg	100
722.67	0.914	914.5	repeat	Run1	repeat/STIM_005.jpg	99
727.185	0.64	639.6	repeat	Run1	repeat/STIM_005.jpg	99
730.798	0.737	737.4	repeat	Run1	repeat/STIM_005.jpg	99
734.238	0.638	638.0	repeat	Run1	repeat/STIM_006.jpg	100
738.207	0.527	527.0	repeat	Run1	repeat/STIM_006.jpg	100
741.826	0.783	783.0	repeat	Run1	repeat/STIM_006.jpg	100
746.076	0.83	830.2	repeat	Run1	repeat/STIM_006.jpg	99
749.655	0.865	865.3	repeat	Run1	repeat/STIM_006.jpg	99
753.589	0.712	712.5	repeat	Run1	repeat/STIM_007.jpg	99
758.165	0.986	986.3	repeat	Run1	repeat/STIM_007.jpg	100
762.439	0.689	688.7	repeat	Run1	repeat/STIM_007.jpg	100
766.12	0.749	749.0	repeat	Run1	repeat/STIM_007.jpg	99
769.02	0.907	907.1	repeat	Run1	repeat/STIM_007.jpg	99
773.229	0.898	897.8	repeat	Run1	repeat/STIM_008.jpg	99
777.509	0.941	941.0	repeat	Run1	repeat/STIM_008.jpg	100
781.783	0.866	866.1	repeat	Run1	repeat/STIM_008.jpg	100
784.891	0.706	705.6	repeat	Run1	repeat/STIM_008.jpg	100
788.033	0.95	949.7	repeat	Run1	repeat/STIM_008.jpg	99
791.234	0.546	546.4	repeat	Run1	repeat/STIM_009.jpg	100
793.922	0.83	829.6	repeat	Run1	repeat/STIM_009.jpg	100
798.017	0.527	527.4	repeat	Run1	repeat/STIM_009.jpg	99
800.788	0.956	955.5	repeat	Run1	repeat/STIM_009.jpg	100
804.806	0.614	614.1	repeat	Run1	repeat/STIM_009.jpg	99
808.36	0.962	961.5	repeat	Run1	repeat/STIM_010.jpg	99
812.637	0.908	908.1	repeat	Run1	repeat/STIM_010.jpg	99
816.781	0.861	861.0	repeat	Run1	repeat/STIM_010.jpg	99
820.055	0.595	594.7	repeat	Run1	repeat/STIM_010.jpg	100
823.713	0.97	970.1	repeat	Run1	repeat/STIM_010.jpg	100
827.037	0.588	588.3	repeat	Run1	repeat/STIM_011.jpg	100
831.624	0.589	589.4	repeat	Run1	repeat/STIM_011.jpg	99
834.84	0.505	505.2	repeat	Run1	repeat/STIM_011.jpg	99
837.765	0.996	995.9	repeat	Run1	repeat/STIM_011.jpg	99
842.374	0.929	929.2	repeat	Run1	repeat/STIM_011.jpg	99
847.109	0.778	777.5	repeat	Run1	repeat/STIM_012.jpg	99
851.098	0.557	556.7	repeat	Run1	repeat/STIM_012.jpg	99
854.724	0.828	827.9	repeat	Run1	repeat/STIM_012.jpg	100
859.308	0.878	877.6	repeat	Run1	repeat/STIM_012.jpg	99
862.203	0.797	797.3	repeat	Run1	repeat/STIM_012.jpg	99
865.801	0.633	632.9	repeat	Run1	repeat/STIM_013.jpg	99
870.385	0.942	942.2	repeat	Run1	repeat/STIM_013.jpg	100
873.59	0.993	992.7	repeat	Run1	repeat/STIM_013.jpg	100
877.548	0.826	825.6	repeat	Run1	repeat/STIM_013.jpg	100
881.303	0.778	777.7	repeat	Run1	repeat/STIM_013.jpg	100
884.633	0.552	551.5	repeat	Run1	repeat/STIM_014.jpg	99
888.133	0.793	792.9	repeat	Run1	repeat/STIM_014.jpg	100
891.253	0.545	545.0	repeat	Run1	repeat/STIM_014.jpg	100
894.118	0.532	532.4	repeat	Run1	repeat/STIM_014.jpg	100
898.44	0.931	930.7	repeat	Run1	repeat/STIM_014.jpg	99
901.935	1.135	1134.8	generate	Run2	generate/STIM_000.jpg	99
906.738	1.114	1114.1	generate	Run2	generate/STIM_000.jpg	100
910.55	1.041	1041.3	generate	Run2	generate/STIM_000.jpg	99
915.143	1.61	1610.2	generate	Run2	generate/STIM_000.jpg	99
920.696	1.295	1294.7	generate	Run2	generate/STIM_000.jpg	100
925.26	1.206	1206.1	generate	Run2	generate/STIM_001.jpg	99
928.835	2.186	2186.1	generate	Run2	generate/STIM_001.jpg	99
934.38	1.061	1061.0	generate	Run2	generate/STIM_001.jpg	100
937.757	1.399	1399.4	generate	Run2	generate/STIM_001.jpg	100
941.399	1.37	1369.9	generate	Run2	generate/STIM_001.jpg	99
946.13	1.384	1383.9	generate	Run2	generate/STIM_002.jpg	99
949.913	2.358	2357.7	generate	Run2	generate/STIM_002.jpg	100
954.673	1.641	1640.9	generate	Run2	generate/STIM_002.jpg	99
958.504	0.934	933.6	generate	Run2	generate/STIM_002.jpg	100
963.237	0.907	907.3	generate	Run2	generate/STIM_002.jpg	99
966.294	1.278	1277.5	generate	Run2	generate/STIM_003.jpg	100
970.12	2.37	2370.0	generate	Run2	generate/STIM_003.jpg	99
976.443	2.038	2038.1	generate	Run2	generate/STIM_003.jpg	99
981.884	1.279	1279.3	generate	Run2	generate/STIM_003.jpg	100
986.521	1.066	1066.0	generate	Run2	generate/STIM_003.jpg	100
990.148	1.725	1724.7	generate	Run2	generate/STIM_004.jpg	99
995.325	1.757	1757.1	generate	Run2	generate/STIM_004.jpg	100
1000.467	2.235	2234.8	generate	Run2	generate/STIM_004.jpg	99
1005.135	0.925	925.2	generate	Run2	generate/STIM_004.jpg	99
1008.174	1.544	1544.2	generate	Run2	generate/STIM_004.jpg	100
1013.534	1.853	1852.6	generate	Run2	generate/STIM_005.jpg	99
1018.328	2.008	2007.9	generate	Run2	generate/STIM_005.jpg	100
1023.518	1.471	1471.4	generate	Run2	generate/STIM_005.jpg	99
1028.56	1.027	1027.0	generate	Run2	generate/STIM_005.jpg	99
1031.818	1.369	1369.1	generate	Run2	generate/STIM_005.jpg	100
1035.596	1.283	1282.9	generate	Run2	generate/STIM_006.jpg	99
1039.447	1.09	1089.5	generate	Run2	generate/STIM_006.jpg	100
1042.802	2.259	2259.2	generate	Run2	generate/STIM_006.jpg	100
1048.483	1.753	1753.3	generate	Run2	generate/STIM_006.jpg	99
1053.919	1.127	1127.1	generate	Run2	generate/STIM_006.jpg	99
1058.805	1.147	1147.0	generate	Run2	generate/STIM_007.jpg	100
1063.861	1.616	1615.5	generate	Run2	generate/STIM_007.jpg	99
1069.243	1.969	1969.0	generate	Run2	generate/STIM_007.jpg	99
1074.63	1.693	1692.7	generate	Run2	generate/STIM_007.jpg	99
1079.389	1.716	1716.1	generate	Run2	generate/STIM_007.jpg	99
1084.609	1.789	1788.9	generate	Run2	generate/STIM_008.jpg	99
1089.364	2.41	2410.2	generate	Run2	generate/STIM_008.jpg	99
1093.819	1.419	1418.6	generate	Run2	generate/STIM_008.jpg	100
1098.31	1.322	1322.0	generate	Run2	generate/STIM_008.jpg	100
1103.503	0.849	849.2	generate	Run2	generate/STIM_008.jpg	100
1107.343	2.447	2446.7	generate	Run2	generate/STIM_009.jpg	100
1113.034	2.391	2390.8	generate	Run2	generate/STIM_009.jpg	100
1118.019	1.202	1201.5	generate	Run2	generate/STIM_009.jpg	100
1122.287	1.236	1235.6	generate	Run2	generate/STIM_009.jpg	100
1126.571	1.596	1596.3	generate	Run2	generate/STIM_009.jpg	99
1131.248	1.631	1630.9	generate	Run2	generate/STIM_010.jpg	100
1135.874	1.02	1019.8	generate	Run2	generate/STIM_010.jpg	100
1139.916	2.019	2018.7	generate	Run2	generate/STIM_010.jpg	100
1145.731	1.163	1163.2	generate	Run2	generate/STIM_010.jpg	99
1149.076	1.09	1090.4	generate	Run2	generate/STIM_010.jpg	99
1153.067	1.03	1030.0	generate	Run2	generate/STIM_011.jpg	99
1157.82	1.429	1429.3	generate	Run2	generate/STIM_011.jpg	100
1162.911	1.131	1130.6	generate	Run2	generate/STIM_011.jpg	100
1166.221	1.794	1793.8	generate	Run2	generate/STIM_011.jpg	99
1170.514	1.578	1578.3	generate	Run2	generate/STIM_011.jpg	99
1174.736	2.111	2111.2	generate	Run2	generate/STIM_012.jpg	100
1179.162	2.094	2094.4	generate	Run2	generate/STIM_012.jpg	99
1183.837	2.072	2071.8	generate	Run2	generate/STIM_012.jpg	99
1189.601	0.869	868.8	generate	Run2	generate/STIM_012.jpg	100
1194.054	1.159	1159.2	generate	Run2	generate/STIM_012.jpg	100
1198.202	1.268	1268.1	generate	Run2	generate/STIM_013.jpg	99
1203.07	1.545	1544.7	generate	Run2	generate/STIM_013.jpg	99
1208.583	1.612	1611.5	generate	Run2	generate/STIM_013.jpg	100
1213.041	2.033	2033.4	generate	Run2	generate/STIM_013.jpg	100
1219.006	1.143	1142.9	generate	Run2	generate/STIM_013.jpg	99
1223.478	2.249	2248.7	generate	Run2	generate/STIM_014.jpg	99
1228.493	1.31	1310.3	generate	Run2	generate/STIM_014.jpg	100
1233.803	1.139	1139.4	generate	Run2	generate/STIM_014.jpg	100
1238.844	1.111	1111.3	generate	Run2	generate/STIM_014.jpg	99
1243.074	1.939	1939.4	generate	Run2	generate/STIM_014.jpg	100
1247.995	2.118	2118.1	generate	Run2	generate/STIM_015.jpg	99
1253.408	2.258	2257.9	generate	Run2	generate/STIM_015.jpg	100
1258.287	1.32	1319.7	generate	Run2	generate/STIM_015.jpg	100
1262.22	1.065	1065.4	generate	Run2	generate/STIM_015.jpg	99
1266.245	1.976	1976.3	generate	Run2	generate/STIM_015.jpg	100
1271.315	1.807	1807.1	generate	Run2	generate/STIM_016.jpg	100
1275.376	1.074	1074.4	generate	Run2	generate/STIM_016.jpg	100
1280.241	1.6	1600.3	generate	Run2	generate/STIM_016.jpg	99
1285.835	1.166	1166.0	generate	Run2	generate/STIM_016.jpg	100
1289.317	1.921	1920.9	generate	Run2	generate/STIM_016.jpg	99
1294.99	1.834	1833.7	generate	Run2	generate/STIM_017.jpg	99
1299.161	1.116	1115.8	generate	Run2	generate/STIM_017.jpg	100
1303.75	1.017	1017.4	generate	Run2	generate/STIM_017.jpg	100
1307.074	1.229	1229.3	generate	Run2	generate/STIM_017.jpg	99
1310.531	1.338	1337.5	generate	Run2	generate/STIM_017.jpg	99
1313.942	1.557	1556.9	generate	Run2	generate/STIM_018.jpg	100
1318.931	2.377	2376.8	generate	Run2	generate/STIM_018.jpg	99
1324.417	1.127	1126.8	generate	Run2	generate/STIM_018.jpg	100
1327.556	1.325	1325.3	generate	Run2	generate/STIM_018.jpg	100
1332.208	1.399	1398.8	generate	Run2	generate/STIM_018.jpg	99
1335.902	1.273	1273.3	generate	Run2	generate/STIM_019.jpg	99
1340.071	1.553	1553.0	generate	Run2	generate/STIM_019.jpg	100
1345.127	1.624	1624.2	generate	Run2	generate/STIM_019.jpg	100
1349.358	1.079	1079.0	generate	Run2	generate/STIM_019.jpg	99
1353.52	0.902	901.6	generate	Run2	generate/STIM_019.jpg	100
1358.364	1.525	1524.6	generate	Run2	generate/STIM_020.jpg	99
1363.031	1.236	1235.6	generate	Run2	generate/STIM_020.jpg	100
1367.761	2.198	2197.8	generate	Run2	generate/STIM_020.jpg	99
1372.498	1.101	1100.8	generate	Run2	generate/STIM_020.jpg	100
1375.767	1.718	1717.7	generate	Run2	generate/STIM_020.jpg	100
1380.093	1.354	1354.2	generate	Run2	generate/STIM_021.jpg	100
1384.253	1.889	1889.4	generate	Run2	generate/STIM_021.jpg	100
1389.975	1.878	1877.6	generate	Run2	generate/STIM_021.jpg	99
1394.482	0.935	935.0	generate	Run2	generate/STIM_021.jpg	100
1399.052	1.545	1544.7	generate	Run2	generate/STIM_021.jpg	99
1403.644	1.071	1070.7	generate	Run2	generate/STIM_022.jpg	99
1407.991	1.462	1462.2	generate	Run2	generate/STIM_022.jpg	100
1411.717	1.902	1902.2	generate	Run2	generate/STIM_022.jpg	100
1416.923	1.205	1205.1	generate	Run2	generate/STIM_022.jpg	99
1421.698	1.045	1044.6	generate	Run2	generate/STIM_022.jpg	100
1425.728	2.369	2368.7	generate	Run2	generate/STIM_023.jpg	100
1430.833	1.593	1592.6	generate	Run2	generate/STIM_023.jpg	100
1436.422	1.792	1792.3	generate	Run2	generate/STIM_023.jpg	99
1440.886	1.278	1277.8	generate	Run2	generate/STIM_023.jpg	100
1445.277	1.354	1353.5	generate	Run2	generate/STIM_023.jpg	100
1449.193	2.273	2273.4	generate	Run2	generate/STIM_024.jpg	99
1455.244	1.538	1538.5	generate	Run2	generate/STIM_024.jpg	99
1460.506	1.43	1430.2	generate	Run2	generate/STIM_024.jpg	100
1464.133	1.894	1894.5	generate	Run2	generate/STIM_024.jpg	100
1468.076	1.781	1781.3	generate	Run2	generate/STIM_024.jpg	100
1473.519	0.517	516.9	repeat	Run2	repeat/STIM_000.jpg	100
1476.249	0.846	846.4	repeat	Run2	repeat/STIM_000.jpg	100
1480.6	0.776	775.6	repeat	Run2	repeat/STIM_000.jpg	100
1485.321	0.779	778.8	repeat	Run2	repeat/STIM_000.jpg	99
1488.776	0.781	781.2	repeat	Run2	repeat/STIM_000.jpg	99
1492.583	0.993	993.0	repeat	Run2	repeat/STIM_001.jpg	100
1495.584	0.943	943.3	repeat	Run2	repeat/STIM_001.jpg	100
1498.661	0.833	833.2	repeat	Run2	repeat/STIM_001.jpg	99
1502.53	0.568	567.6	repeat	Run2	repeat/STIM_001.jpg	100
1505.641	0.853	852.6	repeat	Run2	repeat/STIM_001.jpg	99
1509.419	0.927	926.6	repeat	Run2	repeat/STIM_002.jpg	100
1512.79	0.858	858.1	repeat	Run2	repeat/STIM_002.jpg	100
1517.118	0.753	752.6	repeat	Run2	repeat/STIM_002.jpg	100
1521.861	0.831	830.7	repeat	Run2	repeat/STIM_002.jpg	100
1524.789	0.585	584.9	repeat	Run2	repeat/STIM_002.jpg	99
1528.537	0.632	632.3	repeat	Run2	repeat/STIM_003.jpg	99
1532.07	0.763	763.0	repeat	Run2	repeat/STIM_003.jpg	100
1535.518	0.613	613.2	repeat	Run2	repeat/STIM_003.jpg	99
1538.646	0.836	836.2	repeat	Run2	repeat/STIM_003.jpg	99
1541.841	0.982	982.4	repeat	Run2	repeat/STIM_003.jpg	99
1545.56	0.734	734.0	repeat	Run2	repeat/STIM_004.jpg	100
1550.102	0.657	656.9	repeat	Run2	repeat/STIM_004.jpg	100
1553.089	0.953	953.1	repeat	Run2	repeat/STIM_004.jpg	99
1556.331	0.783	783.3	repeat	Run2	repeat/STIM_004.jpg	99
1560.938	0.749	749.3	repeat	Run2	repeat/STIM_004.jpg	99
1564.548	0.664	663.9	repeat	Run2	repeat/STIM_005.jpg	99
1568.03	0.802	802.1	repeat	Run2	repeat/STIM_005.jpg	99
1571.189	0.648	647.6	repeat	Run2	repeat/STIM_005.jpg	100
1575.799	0.936	936.4	repeat	Run2	repeat/STIM_005.jpg	100
1579.162	0.744	744.5	repeat	Run2	repeat/STIM_005.jpg	99
1582.816	0.999	999.1	repeat	Run2	repeat/STIM_006.jpg	99
1586.553	0.545	544.6	repeat	Run2	repeat/STIM_006.jpg	99
1589.279	0.897	897.2	repeat	Run2	repeat/STIM_006.jpg	100
1592.466	0.666	666.3	repeat	Run2	repeat/STIM_006.jpg	100
1595.443	0.71	709.7	repeat	Run2	repeat/STIM_006.jpg	99
1599.664	0.68	680.3	repeat	Run2	repeat/STIM_007.jpg	100
1603.804	0.725	725.0	repeat	Run2	repeat/STIM_007.jpg	99
1606.753	0.666	666.2	repeat	Run2	repeat/STIM_007.jpg	100
1610.587	0.64	639.8	repeat	Run2	repeat/STIM_007.jpg	99
1614.979	0.736	735.6	repeat	Run2	repeat/STIM_007.jpg	100
1618.197	0.883	883.1	repeat	Run2	repeat/STIM_008.jpg	100
1622.549	0.547	547.3	repeat	Run2	repeat/STIM_008.jpg	99
1625.505	0.97	970.4	repeat	Run2	repeat/STIM_008.jpg	99
1629.707	0.912	911.6	repeat	Run2	repeat/STIM_008.jpg	100
1634.144	0.637	637.0	repeat	Run2	repeat/STIM_008.jpg	100
1638.329	0.744	743.9	repeat	Run2	repeat/STIM_009.jpg	99
1641.456	0.827	827.2	repeat	Run2	repeat/STIM_009.jpg	100
1645.938	0.846	846.3	repeat	Run2	repeat/STIM_009.jpg	100
1649.979	0.942	942.1	repeat	Run2	repeat/STIM_009.jpg	99
1654.656	0.773	773.1	repeat	Run2	repeat/STIM_009.jpg	99
1657.888	0.979	978.9	repeat	Run2	repeat/STIM_010.jpg	100
1662.171	0.8	800.3	repeat	Run2	repeat/STIM_010.jpg	99
1666.658	0.678	678.0	repeat	Run2	repeat/STIM_010.jpg	99
1669.449	0.568	568.5	repeat	Run2	repeat/STIM_010.jpg	100
1672.858	0.73	730.2	repeat	Run2	repeat/STIM_010.jpg	100
1675.826	0.619	619.0	repeat	Run2	repeat/STIM_011.jpg	100
1678.708	0.877	876.9	repeat	Run2	repeat/STIM_011.jpg	100
1682.622	0.752	751.9	repeat	Run2	repeat/STIM_011.jpg	99
1686.421	0.522	521.8	repeat	Run2	repeat/STIM_011.jpg	100
1689.263	0.936	936.5	repeat	Run2	repeat/STIM_011.jpg	100
1692.351	0.855	855.4	repeat	Run2	repeat/STIM_012.jpg	100
1697.024	0.802	802.3	repeat	Run2	repeat/STIM_012.jpg	99
1700.69	0.777	776.9	repeat	Run2	repeat/STIM_012.jpg	99
1704.517	0.886	886.5	repeat	Run2	repeat/STIM_012.jpg	99
1708.297	0.656	656.3	repeat	Run2	repeat/STIM_012.jpg	99
1712.704	0.64	640.1	repeat	Run2	repeat/STIM_013.jpg	100
1715.35	0.643	642.7	repeat	Run2	repeat/STIM_013.jpg	99
1719.58	0.903	903.3	repeat	Run2	repeat/STIM_013.jpg	100
1724.307	0.65	649.9	repeat	Run2	repeat/STIM_013.jpg	100
1727.539	0.785	785.2	repeat	Run2	repeat/STIM_013.jpg	100
1732.254	0.931	931.4	repeat	Run2	repeat/STIM_014.jpg	100
1735.238	0.973	973.1	repeat	Run2	repeat/STIM_014.jpg	99
1739.941	0.913	913.2	repeat	Run2	repeat/STIM_014.jpg	100
1743.927	0.859	858.9	repeat	Run2	repeat/STIM_014.jpg	99
1746.995	0.535	535.0	repeat	Run2	repeat/STIM_014.jpg	99
1749.769	2.039	2039.3	generate	Run3	generate/STIM_000.jpg	100
1754.95	0.894	893.8	generate	Run3	generate/STIM_000.jpg	99
1757.982	1.111	1111.4	generate	Run3	generate/STIM_000.jpg	99
1762.703	1.517	1517.1	generate	Run3	generate/STIM_000.jpg	100
1767.506	1.987	1986.7	generate	Run3	generate/STIM_000.jpg	100
1771.557	1.202	1201.8	generate	Run3	generate/STIM_001.jpg	100
1775.395	2.006	2006.5	generate	Run3	generate/STIM_001.jpg	99
1780.968	1.451	1451.3	generate	Run3	generate/STIM_001.jpg	99
1785.881	0.861	860.9	generate	Run3	generate/STIM_001.jpg	100
1790.49	0.862	861.6	generate	Run3	generate/STIM_001.jpg	100
1793.414	1.924	1923.7	generate	Run3	generate/STIM_002.jpg	99
1798.861	1.222	1222.1	generate	Run3	generate/STIM_002.jpg	100
1802.618	1.933	1932.6	generate	Run3	generate/STIM_002.jpg	99
1807.818	1.636	1636.2	generate	Run3	generate/STIM_002.jpg	100
1813.117	1.594	1594.0	generate	Run3	generate/STIM_002.jpg	100
1817.455	1.848	1848.3	generate	Run3	generate/STIM_003.jpg	99
1822.848	1.456	1455.5	generate	Run3	generate/STIM_003.jpg	99
1826.844	1.316	1316.5	generate	Run3	generate/STIM_003.jpg	100
1832.088	1.578	1578.3	generate	Run3	generate/STIM_003.jpg	99
1837.097	1.312	1311.7	generate	Run3	generate/STIM_003.jpg	100
1841.801	1.288	1287.8	generate	Run3	generate/STIM_004.jpg	100
1847.029	0.926	926.2	generate	Run3	generate/STIM_004.jpg	99
1851.239	1.422	1421.7	generate	Run3	generate/STIM_004.jpg	99
1854.882	1.864	1863.8	generate	Run3	generate/STIM_004.jpg	100
1860.457	1.939	1938.7	generate	Run3	generate/STIM_004.jpg	99
1866.371	1.768	1767.9	generate	Run3	generate/STIM_005.jpg	99
1871.428	2.112	2112.3	generate	Run3	generate/STIM_005.jpg	99
1876.082	1.55	1550.0	generate	Run3	generate/STIM_005.jpg	100
1880.655	1.057	1056.7	generate	Run3	generate/STIM_005.jpg	100
1884.056	1.125	1124.6	generate	Run3	generate/STIM_005.jpg	100
1887.244	1.906	1905.8	generate	Run3	generate/STIM_006.jpg	100
1891.816	1.647	1646.7	generate	Run3	generate/STIM_006.jpg	99
1897.091	2.067	2066.7	generate	Run3	generate/STIM_006.jpg	100
1902.714	0.957	956.7	generate	Run3	generate/STIM_006.jpg	99
1907.58	1.744	1744.1	generate	Run3	generate/STIM_006.jpg	99
1912.697	1.443	1442.8	generate	Run3	generate/STIM_007.jpg	100
1916.748	1.187	1186.9	generate	Run3	generate/STIM_007.jpg	100
1921.471	2.112	2111.7	generate	Run3	generate/STIM_007.jpg	100
1926.435	1.932	1932.5	generate	Run3	generate/STIM_007.jpg	99
1931.187	1.738	1738.2	generate	Run3	generate/STIM_007.jpg	100
1936.661	1.15	1149.5	generate	Run3	generate/STIM_008.jpg	100
1940.252	1.63	1629.7	generate	Run3	generate/STIM_008.jpg	99
1945.531	1.95	1949.7	generate	Run3	generate/STIM_008.jpg	99
1951.015	1.026	1025.6	generate	Run3	generate/STIM_008.jpg	100
1955.084	2.073	2073.0	generate	Run3	generate/STIM_008.jpg	100
1960.227	0.913	912.7	generate	Run3	generate/STIM_009.jpg	100
1965.013	1.608	1608.3	generate	Run3	generate/STIM_009.jpg	99
1969.378	1.653	1652.9	generate	Run3	generate/STIM_009.jpg	100
1974.376	0.968	967.5	generate	Run3	generate/STIM_009.jpg	99
1978.579	1.193	1192.7	generate	Run3	generate/STIM_009.jpg	99
1982.127	1.069	1068.6	generate	Run3	generate/STIM_010.jpg	100
1986.057	1.67	1670.1	generate	Run3	generate/STIM_010.jpg	99
1990.948	1.501	1501.0	generate	Run3	generate/STIM_010.jpg	100
1995.249	1.478	1477.8	generate	Run3	generate/STIM_010.jpg	100
1999.488	1.69	1690.5	generate	Run3	generate/STIM_010.jpg	99
2005.043	1.553	1553.2	generate	Run3	generate/STIM_011.jpg	100
2009.822	1.272	1272.1	generate	Run3	generate/STIM_011.jpg	99
2014.98	1.086	1086.2	generate	Run3	generate/STIM_011.jpg	99
2019.329	2.002	2001.9	generate	Run3	generate/STIM_011.jpg	100
2025.257	1.086	1085.6	generate	Run3	generate/STIM_011.jpg	100
2029.074	1.79	1790.5	generate	Run3	generate/STIM_012.jpg	100
2033.07	1.183	1183.0	generate	Run3	generate/STIM_012.jpg	100
2038.207	1.071	1070.9	generate	Run3	generate/STIM_012.jpg	99
2041.288	1.502	1502.3	generate	Run3	generate/STIM_012.jpg	100
2046.748	1.566	1565.6	generate	Run3	generate/STIM_012.jpg	99
2052.189	1.544	1543.8	generate	Run3	generate/STIM_013.jpg	100
2056.932	2.101	2101.4	generate	Run3	generate/STIM_013.jpg	100
2062.625	1.485	1484.7	generate	Run3	generate/STIM_013.jpg	100
2066.171	0.989	988.7	generate	Run3	generate/STIM_013.jpg	99
2070.051	1.789	1789.4	generate	Run3	generate/STIM_013.jpg	100
2075.768	0.986	986.4	generate	Run3	generate/STIM_014.jpg	100
2079.499	1.125	1125.1	generate	Run3	generate/STIM_014.jpg	99
2083.272	1.141	1141.4	generate	Run3	generate/STIM_014.jpg	100
2087.799	0.863	862.6	generate	Run3	generate/STIM_014.jpg	99
2091.065	1.255	1255.2	generate	Run3	generate/STIM_014.jpg	100
2095.62	1.544	1543.5	generate	Run3	generate/STIM_015.jpg	99
2100.347	1.198	1198.2	generate	Run3	generate/STIM_015.jpg	100
2104.056	1.988	1988.4	generate	Run3	generate/STIM_015.jpg	100
2109.777	1.5	1499.6	generate	Run3	generate/STIM_015.jpg	100
2113.336	1.917	1917.1	generate	Run3	generate/STIM_015.jpg	100
2117.863	1.73	1729.6	generate	Run3	generate/STIM_016.jpg	99
2123.209	1.963	1962.8	generate	Run3	generate/STIM_016.jpg	100
2127.243	1.202	1201.8	generate	Run3	generate/STIM_016.jpg	100
2131.087	1.858	1858.2	generate	Run3	generate/STIM_016.jpg	99
2136.61	2.095	2094.6	generate	Run3	generate/STIM_016.jpg	99
2141.264	0.923	923.0	generate	Run3	generate/STIM_017.jpg	99
2146.027	1.678	1678.5	generate	Run3	generate/STIM_017.jpg	99
2150.377	1.641	1641.2	generate	Run3	generate/STIM_017.jpg	100
2155.787	0.908	907.5	generate	Run3	generate/STIM_017.jpg	99
2158.871	1.8	1799.6	generate	Run3	generate/STIM_017.jpg	100
2163.672	1.388	1388.4	generate	Run3	generate/STIM_018.jpg	99
2169.055	1.813	1813.0	generate	Run3	generate/STIM_018.jpg	99
2173.874	1.2	1200.3	generate	Run3	generate/STIM_018.jpg	100
2177.323	1.794	1793.5	generate	Run3	generate/STIM_018.jpg	99
2181.419	2.025	2024.6	generate	Run3	generate/STIM_018.jpg	100
2187.073	1.77	1769.7	generate	Run3	generate/STIM_019.jpg	100
2191.328	1.907	1906.6	generate	Run3	generate/STIM_019.jpg	100
2195.894	1.04	1039.9	generate	Run3	generate/STIM_019.jpg	100
2199.293	2.044	2044.3	generate	Run3	generate/STIM_019.jpg	99
2204.857	1.802	1801.9	generate	Run3	generate/STIM_019.jpg	100
2210.642	1.261	1260.9	generate	Run3	generate/STIM_020.jpg	99
2215.227	1.182	1181.8	generate	Run3	generate/STIM_020.jpg	100
2219.256	1.695	1694.7	generate	Run3	generate/STIM_020.jpg	100
2223.49	1.054	1054.4	generate	Run3	generate/STIM_020.jpg	100
2227.723	1.076	1075.5	generate	Run3	generate/STIM_020.jpg	99
2230.976	1.982	1982.5	generate	Run3	generate/STIM_021.jpg	99
2235.299	1.799	1799.2	generate	Run3	generate/STIM_021.jpg	99
2240.379	1.045	1045.4	generate	Run3	generate/STIM_021.jpg	100
2245.014	0.895	895.2	generate	Run3	generate/STIM_021.jpg	99
2248.109	1.453	1452.9	generate	Run3	generate/STIM_021.jpg	100
2251.776	1.571	1571.0	generate	Run3	generate/STIM_022.jpg	100
2256.975	1.631	1630.7	generate	Run3	generate/STIM_022.jpg	100
2262.444	1.374	1374.4	generate	Run3	generate/STIM_022.jpg	100
2266.723	1.161	1160.8	generate	Run3	generate/STIM_022.jpg	100
2270.935	2.073	2073.2	generate	Run3	generate/STIM_022.jpg	99
2275.951	1.989	1989.3	generate	Run3	generate/STIM_023.jpg	99
2280.674	1.592	1591.8	generate	Run3	generate/STIM_023.jpg	99
2285.762	1.137	1136.9	generate	Run3	generate/STIM_023.jpg	100
2290.691	1.836	1836.4	generate	Run3	generate/STIM_023.jpg	99
2296.426	2.007	2006.9	generate	Run3	generate/STIM_023.jpg	100
2301.592	1.741	1740.8	generate	Run3	generate/STIM_024.jpg	100
2305.832	1.746	1746.4	generate	Run3	generate/STIM_024.jpg	100
2310.965	1.334	1333.5	generate	Run3	generate/STIM_024.jpg	100
2315.211	1.026	1025.7	generate	Run3	generate/STIM_024.jpg	99
2319.905	1.871	1870.8	generate	Run3	generate/STIM_024.jpg	100
2324.167	0.83	829.7	repeat	Run3	repeat/STIM_000.jpg	99
2328.081	0.604	603.9	repeat	Run3	repeat/STIM_000.jpg	100
2331.565	0.857	856.7	repeat	Run3	repeat/STIM_000.jpg	99
2335.176	0.867	867.2	repeat	Run3	repeat/STIM_000.jpg	100
2338.271	0.958	958.4	repeat	Run3	repeat/STIM_000.jpg	99
2342.526	0.564	563.9	repeat	Run3	repeat/STIM_001.jpg	100
2345.428	0.663	663.4	repeat	Run3	repeat/STIM_001.jpg	99
2348.201	0.545	545.4	repeat	Run3	repeat/STIM_001.jpg	99
2352.706	0.962	962.0	repeat	Run3	repeat/STIM_001.jpg	100
2355.928	0.907	907.4	repeat	Run3	repeat/STIM_001.jpg	100
2359.943	0.636	636.0	repeat	Run3	repeat/STIM_002.jpg	100
2363.152	0.721	720.9	repeat	Run3	repeat/STIM_002.jpg	99
2367.21	0.973	972.9	repeat	Run3	repeat/STIM_002.jpg	99
2370.832	0.961	961.1	repeat	Run3	repeat/STIM_002.jpg	100
2375.107	0.801	801.4	repeat	Run3	repeat/STIM_002.jpg	99
2378.897	0.845	844.6	repeat	Run3	repeat/STIM_003.jpg	99
2383.078	0.939	939.2	repeat	Run3	repeat/STIM_003.jpg	100
2387.69	0.966	965.9	repeat	Run3	repeat/STIM_003.jpg	100
2392.496	0.957	957.0	repeat	Run3	repeat/STIM_003.jpg	99
2396.731	0.74	740.4	repeat	Run3	repeat/STIM_003.jpg	100
2400.379	0.964	963.9	repeat	Run3	repeat/STIM_004.jpg	99
2405.058	0.719	718.8	repeat	Run3	repeat/STIM_004.jpg	99
2408.526	0.553	552.6	repeat	Run3	repeat/STIM_004.jpg	99
2412.864	0.737	737.4	repeat	Run3	repeat/STIM_004.jpg	99
2417.595	0.771	770.9	repeat	Run3	repeat/STIM_004.jpg	99
2420.599	0.66	660.0	repeat	Run3	repeat/STIM_005.jpg	100
2424.208	0.528	528.2	repeat	Run3	repeat/STIM_005.jpg	100
2427.001	0.896	896.3	repeat	Run3	repeat/STIM_005.jpg	100
2430.743	0.788	787.8	repeat	Run3	repeat/STIM_005.jpg	99
2434.298	0.534	533.5	repeat	Run3	repeat/STIM_005.jpg	99
2437.11	0.921	921.0	repeat	Run3	repeat/STIM_006.jpg	99
2441.431	0.884	883.6	repeat	Run3	repeat/STIM_006.jpg	99
2445.175	0.588	587.5	repeat	Run3	repeat/STIM_006.jpg	99
2448.813	0.738	738.4	repeat	Run3	repeat/STIM_006.jpg	100
2453.2	0.874	873.5	repeat	Run3	repeat/STIM_006.jpg	99
2457.507	0.53	530.4	repeat	Run3	repeat/STIM_007.jpg	99
2461.887	0.77	770.3	repeat	Run3	repeat/STIM_007.jpg	100
2465.333	0.951	950.9	repeat	Run3	repeat/STIM_007.jpg	99
2468.399	0.511	510.7	repeat	Run3	repeat/STIM_007.jpg	100
2471.312	0.905	904.6	repeat	Run3	repeat/STIM_007.jpg	100
2474.392	0.524	524.5	repeat	Run3	repeat/STIM_008.jpg	100
2477.566	0.698	698.2	repeat	Run3	repeat/STIM_008.jpg	100
2480.497	0.952	952.0	repeat	Run3	repeat/STIM_008.jpg	99
2483.713	0.62	620.5	repeat	Run3	repeat/STIM_008.jpg	100
2486.659	0.697	696.9	repeat	Run3	repeat/STIM_008.jpg	100
2490.312	0.825	825.1	repeat	Run3	repeat/STIM_009.jpg	100
2494.517	0.621	620.9	repeat	Run3	repeat/STIM_009.jpg	99
2497.635	0.779	778.6	repeat	Run3	repeat/STIM_009.jpg	100
2501.287	0.576	576.0	repeat	Run3	repeat/STIM_009.jpg	100
2504.461	0.632	632.1	repeat	Run3	repeat/STIM_009.jpg	100
2507.212	0.563	562.7	repeat	Run3	repeat/STIM_010.jpg	100
2511.387	0.911	911.4	repeat	Run3	repeat/STIM_010.jpg	99
2514.665	0.536	536.3	repeat	Run3	repeat/STIM_010.jpg	100
2518.465	0.846	845.6	repeat	Run3	repeat/STIM_010.jpg	99
2522.975	0.577	577.2	repeat	Run3	repeat/STIM_010.jpg	100
2526.851	0.525	525.3	repeat	Run3	repeat/STIM_011.jpg	99
2530.232	0.642	641.7	repeat	Run3	repeat/STIM_011.jpg	99
2534.62	0.584	584.1	repeat	Run3	repeat/STIM_011.jpg	100
2538.19	0.992	991.5	repeat	Run3	repeat/STIM_011.jpg	100
2541.404	0.624	624.3	repeat	Run3	repeat/STIM_011.jpg	100
2545.454	0.847	847.0	repeat	Run3	repeat/STIM_012.jpg	100
2549.526	0.624	624.2	repeat	Run3	repeat/STIM_012.jpg	100
2553.149	0.651	651.4	repeat	Run3	repeat/STIM_012.jpg	99
2556.127	1.001	1000.6	repeat	Run3	repeat/STIM_012.jpg	100
2560.392	0.7	700.4	repeat	Run3	repeat/STIM_012.jpg	99
2563.299	0.61	610.3	repeat	Run3	repeat/STIM_013.jpg	100
2566.121	1.002	1001.6	repeat	Run3	repeat/STIM_013.jpg	100
2569.58	0.762	761.5	repeat	Run3	repeat/STIM_013.jpg	100
2572.388	0.791	791.4	repeat	Run3	repeat/STIM_013.jpg	100
2575.203	0.586	585.5	repeat	Run3	repeat/STIM_013.jpg	99
2579.254	0.73	730.3	repeat	Run3	repeat/STIM_014.jpg	99
2582.648	0.63	629.8	repeat	Run3	repeat/STIM_014.jpg	100
2585.81	0.523	523.0	repeat	Run3	repeat/STIM_014.jpg	100
2589.445	0.681	681.4	repeat	Run3	repeat/STIM_014.jpg	100
2592.839	0.881	880.8	repeat	Run3	repeat/STIM_014.jpg	99
2597.693	1.567	1566.6	generate	Run4	generate/STIM_000.jpg	99
2602.592	0.944	944.5	generate	Run4	generate/STIM_000.jpg	99
2605.955	1.227	1226.9	generate	Run4	generate/STIM_000.jpg	99
2610.623	1.451	1451.1	generate	Run4	generate/STIM_000.jpg	99
2615.456	1.129	1128.7	generate	Run4	generate/STIM_000.jpg	100
2619.795	1.664	1664.5	generate	Run4	generate/STIM_001.jpg	99
2625.104	1.614	1614.1	generate	Run4	generate/STIM_001.jpg	99
2629.083	1.867	1867.0	generate	Run4	generate/STIM_001.jpg	100
2634.081	2.017	2017.4	generate	Run4	generate/STIM_001.jpg	99
2638.899	1.709	1708.7	generate	Run4	generate/STIM_001.jpg	100
2642.981	1.501	1501.1	generate	Run4	generate/STIM_002.jpg	100
2646.808	1.011	1010.8	generate	Run4	generate/STIM_002.jpg	99
2651.326	0.978	978.2	generate	Run4	generate/STIM_002.jpg	100
2655.176	1.83	1829.8	generate	Run4	generate/STIM_002.jpg	99
2660.03	1.44	1440.0	generate	Run4	generate/STIM_002.jpg	99
2665.268	1.39	1389.5	generate	Run4	generate/STIM_003.jpg	100
2669.53	1.409	1408.8	generate	Run4	generate/STIM_003.jpg	99
2673.899	1.833	1832.8	generate	Run4	generate/STIM_003.jpg	100
2679.014	1.618	1618.4	generate	Run4	generate/STIM_003.jpg	99
2683.919	1.664	1664.4	generate	Run4	generate/STIM_003.jpg	99
2689.433	1.494	1494.2	generate	Run4	generate/STIM_004.jpg	100
2693.619	1.24	1240.4	generate	Run4	generate/STIM_004.jpg	100
2697.713	1.884	1884.1	generate	Run4	generate/STIM_004.jpg	100
2703.517	1.715	1714.6	generate	Run4	generate/STIM_004.jpg	100
2708.528	1.273	1273.2	generate	Run4	generate/STIM_004.jpg	100
2711.929	1.185	1185.2	generate	Run4	generate/STIM_005.jpg	99
2716.408	2.105	2104.6	generate	Run4	generate/STIM_005.jpg	99
2721.828	1.464	1464.3	generate	Run4	generate/STIM_005.jpg	99
2725.406	1.558	1557.9	generate	Run4	generate/STIM_005.jpg	100
2730.705	2.035	2035.3	generate	Run4	generate/STIM_005.jpg	99
2736.082	1.699	1698.8	generate	Run4	generate/STIM_006.jpg	100
2740.425	1.731	1731.1	generate	Run4	generate/STIM_006.jpg	99
2746.089	1.9	1900.4	generate	Run4	generate/STIM_006.jpg	100
2751.301	0.857	857.1	generate	Run4	generate/STIM_006.jpg	99
2754.817	1.738	1738.0	generate	Run4	generate/STIM_006.jpg	99
2758.868	0.894	893.9	generate	Run4	generate/STIM_007.jpg	100
2762.757	1.52	1519.7	generate	Run4	generate/STIM_007.jpg	100
2766.369	2.015	2014.6	generate	Run4	generate/STIM_007.jpg	100
2771.592	0.936	936.2	generate	Run4	generate/STIM_007.jpg	99
2775.824	1.798	1798.3	generate	Run4	generate/STIM_007.jpg	100
2779.953	1.174	1174.3	generate	Run4	generate/STIM_008.jpg	99
2784.661	1.57	1570.0	generate	Run4	generate/STIM_008.jpg	100
2789.684	1.394	1394.2	generate	Run4	generate/STIM_008.jpg	100
2794.552	1.802	1802.3	generate	Run4	generate/STIM_008.jpg	100
2800.309	1.473	1472.7	generate	Run4	generate/STIM_008.jpg	99
2804.992	1.148	1147.8	generate	Run4	generate/STIM_009.jpg	99
2809.206	1.764	1763.8	generate	Run4	generate/STIM_009.jpg	100
2814.53	1.616	1616.5	generate	Run4	generate/STIM_009.jpg	99
2818.973	1.357	1357.4	generate	Run4	generate/STIM_009.jpg	99
2823.137	1.689	1688.9	generate	Run4	generate/STIM_009.jpg	99
2826.941	1.795	1795.2	generate	Run4	generate/STIM_010.jpg	99
2832.565	1.79	1789.9	generate	Run4	generate/STIM_010.jpg	100
2838.283	1.683	1683.3	generate	Run4	generate/STIM_010.jpg	99
2843.527	1.069	1068.6	generate	Run4	generate/STIM_010.jpg	99
2847.738	0.932	931.5	generate	Run4	generate/STIM_010.jpg	100
2852.365	1.513	1513.4	generate	Run4	generate/STIM_011.jpg	99
2857.748	1.096	1096.3	generate	Run4	generate/STIM_011.jpg	99
2861.741	2.021	2020.9	generate	Run4	generate/STIM_011.jpg	100
2866.64	1.025	1025.3	generate	Run4	generate/STIM_011.jpg	100
2871.014	2.106	2105.9	generate	Run4	generate/STIM_011.jpg	100
2875.745	0.928	927.5	generate	Run4	generate/STIM_012.jpg	99
2879.722	1.673	1673.3	generate	Run4	generate/STIM_012.jpg	99
2883.889	1.867	1867.2	generate	Run4	generate/STIM_012.jpg	100
2889.632	1.248	1247.5	generate	Run4	generate/STIM_012.jpg	100
2894.535	2.086	2085.7	generate	Run4	generate/STIM_012.jpg	99
2899.047	1.135	1134.9	generate	Run4	generate/STIM_013.jpg	100
2903.535	0.965	965.1	generate	Run4	generate/STIM_013.jpg	100
2908.176	0.904	903.8	generate	Run4	generate/STIM_013.jpg	100
2911.578	1.296	1295.5	generate	Run4	generate/STIM_013.jpg	100
2916.057	1.273	1273.3	generate	Run4	generate/STIM_013.jpg	99
2920.694	1.731	1730.9	generate	Run4	generate/STIM_014.jpg	100
2926.377	1.029	1028.6	generate	Run4	generate/STIM_014.jpg	100
2931.242	1.075	1074.7	generate	Run4	generate/STIM_014.jpg	100
2935.768	1.587	1587.3	generate	Run4	generate/STIM_014.jpg	99
2940.846	1.988	1988.0	generate	Run4	generate/STIM_014.jpg	100
2945.456	1.928	1927.8	generate	Run4	generate/STIM_015.jpg	99
2950.957	1.045	1045.0	generate	Run4	generate/STIM_015.jpg	99
2955.027	1.496	1495.9	generate	Run4	generate/STIM_015.jpg	99
2960.176	0.938	938.2	generate	Run4	generate/STIM_015.jpg	100
2963.326	1.486	1486.3	generate	Run4	generate/STIM_015.jpg	100
2968.773	1.804	1804.4	generate	Run4	generate/STIM_016.jpg	100
2973.261	1.913	1913.0	generate	Run4	generate/STIM_016.jpg	99
2978.698	1.996	1996.5	generate	Run4	generate/STIM_016.jpg	99
2983.798	1.649	1649.2	generate	Run4	generate/STIM_016.jpg	99
2987.557	1.733	1733.1	generate	Run4	generate/STIM_016.jpg	100
2991.345	1.378	1378.1	generate	Run4	generate/STIM_017.jpg	99
2995.297	1.756	1756.1	generate	Run4	generate/STIM_017.jpg	99
2999.449	0.865	864.8	generate	Run4	generate/STIM_017.jpg	100
3003.308	1.845	1845.4	generate	Run4	generate/STIM_017.jpg	100
3008.96	2.109	2108.9	generate	Run4	generate/STIM_017.jpg	100
3013.767	1.467	1466.8	generate	Run4	generate/STIM_018.jpg	99
3018.463	1.181	1181.3	generate	Run4	generate/STIM_018.jpg	99
3022.8	1.591	1590.8	generate	Run4	generate/STIM_018.jpg	99
3027.448	2.11	2109.8	generate	Run4	generate/STIM_018.jpg	100
3033.304	1.575	1574.6	generate	Run4	generate/STIM_018.jpg	99
3038.594	1.438	1437.6	generate	Run4	generate/STIM_019.jpg	100
3042.452	1.414	1414.0	generate	Run4	generate/STIM_019.jpg	99
3046.648	2.09	2089.8	generate	Run4	generate/STIM_019.jpg	99
3052.525	2.051	2051.4	generate	Run4	generate/STIM_019.jpg	99
3057.45	2.053	2053.3	generate	Run4	generate/STIM_019.jpg	99
3062.22	1.534	1533.8	generate	Run4	generate/STIM_020.jpg	100
3066.59	0.971	970.9	generate	Run4	generate/STIM_020.jpg	99
3070.425	1.599	1598.6	generate	Run4	generate/STIM_020.jpg	99
3075.76	1.176	1175.6	generate	Run4	generate/STIM_020.jpg	100
3080.703	1.867	1866.8	generate	Run4	generate/STIM_020.jpg	100
3086.084	1.038	1037.7	generate	Run4	generate/STIM_021.jpg	100
3090.455	1.56	1560.4	generate	Run4	generate/STIM_021.jpg	100
3094.118	1.968	1967.5	generate	Run4	generate/STIM_021.jpg	99
3098.196	0.999	998.9	generate	Run4	generate/STIM_021.jpg	100
3102.295	1.76	1759.7	generate	Run4	generate/STIM_021.jpg	99
3106.255	1.122	1121.8	generate	Run4	generate/STIM_022.jpg	100
3110.944	1.469	1468.7	generate	Run4	generate/STIM_022.jpg	100
3115.562	1.927	1927.2	generate	Run4	generate/STIM_022.jpg	100
3120.751	1.708	1707.8	generate	Run4	generate/STIM_022.jpg	100
3125.093	0.943	942.9	generate	Run4	generate/STIM_022.jpg	99
3128.499	0.983	983.1	generate	Run4	generate/STIM_023.jpg	99
3132.893	1.307	1307.0	generate	Run4	generate/STIM_023.jpg	100
3136.661	1.698	1697.7	generate	Run4	generate/STIM_023.jpg	99
3141.005	1.801	1800.9	generate	Run4	generate/STIM_023.jpg	99
3146.136	1.995	1995.4	generate	Run4	generate/STIM_023.jpg	99
3151.8	1.075	1075.0	generate	Run4	generate/STIM_024.jpg	99
3155.379	1.339	1339.1	generate	Run4	generate/STIM_024.jpg	99
3159.057	1.804	1804.4	generate	Run4	generate/STIM_024.jpg	99
3163.763	1.59	1590.0	generate	Run4	generate/STIM_024.jpg	99
3168.912	1.07	1070.1	generate	Run4	generate/STIM_024.jpg	99
3172.939	0.657	656.6	repeat	Run4	repeat/STIM_000.jpg	99
3177.287	0.998	997.9	repeat	Run4	repeat/STIM_000.jpg	100
3181.262	0.573	572.7	repeat	Run4	repeat/STIM_000.jpg	99
3185.529	0.982	982.4	repeat	Run4	repeat/STIM_000.jpg	99
3190.318	0.52	519.8	repeat	Run4	repeat/STIM_000.jpg	99
3193.808	0.997	997.2	repeat	Run4	repeat/STIM_001.jpg	100
3196.965	0.815	815.4	repeat	Run4	repeat/STIM_001.jpg	99
3200.847	0.569	569.4	repeat	Run4	repeat/STIM_001.jpg	100
3203.902	0.621	620.8	repeat	Run4	repeat/STIM_001.jpg	99
3206.869	0.697	696.6	repeat	Run4	repeat/STIM_001.jpg	99
3209.849	0.76	759.9	repeat	Run4	repeat/STIM_002.jpg	99
3212.882	0.615	614.7	repeat	Run4	repeat/STIM_002.jpg	99
3216.673	0.582	581.7	repeat	Run4	repeat/STIM_002.jpg	100
3219.994	0.63	629.7	repeat	Run4	repeat/STIM_002.jpg	99
3224.031	0.659	658.8	repeat	Run4	repeat/STIM_002.jpg	99
3227.063	0.862	861.7	repeat	Run4	repeat/STIM_003.jpg	99
3230.44	0.883	882.9	repeat	Run4	repeat/STIM_003.jpg	100
3233.404	0.738	738.2	repeat	Run4	repeat/STIM_003.jpg	100
3237.09	0.923	923.1	repeat	Run4	repeat/STIM_003.jpg	100
3241.259	0.511	510.8	repeat	Run4	repeat/STIM_003.jpg	100
3244.054	0.898	897.8	repeat	Run4	repeat/STIM_004.jpg	100
3247.248	0.539	538.6	repeat	Run4	repeat/STIM_004.jpg	99
3250.68	0.936	936.3	repeat	Run4	repeat/STIM_004.jpg	99
3254.057	0.506	505.8	repeat	Run4	repeat/STIM_004.jpg	99
3258.397	0.66	659.8	repeat	Run4	repeat/STIM_004.jpg	99
3261.996	0.752	752.5	repeat	Run4	repeat/STIM_005.jpg	100
3266.615	0.672	672.3	repeat	Run4	repeat/STIM_005.jpg	100
3269.566	0.965	965.2	repeat	Run4	repeat/STIM_005.jpg	99
3274.488	0.838	837.6	repeat	Run4	repeat/STIM_005.jpg	100
3278.312	0.657	656.8	repeat	Run4	repeat/STIM_005.jpg	100
3281.634	0.862	862.5	repeat	Run4	repeat/STIM_006.jpg	100
3285.076	0.532	532.2	repeat	Run4	repeat/STIM_006.jpg	99
3289.125	0.672	671.5	repeat	Run4	repeat/STIM_006.jpg	99
3293.544	0.557	557.2	repeat	Run4	repeat/STIM_006.jpg	100
3297.434	0.529	529.2	repeat	Run4	repeat/STIM_006.jpg	100
3300.787	0.724	723.8	repeat	Run4	repeat/STIM_007.jpg	99
3304.728	0.708	707.8	repeat	Run4	repeat/STIM_007.jpg	99
3309.258	0.675	675.3	repeat	Run4	repeat/STIM_007.jpg	99
3312.592	0.948	947.9	repeat	Run4	repeat/STIM_007.jpg	100
3317.227	0.76	760.5	repeat	Run4	repeat/STIM_007.jpg	100
3320.82	0.977	977.4	repeat	Run4	repeat/STIM_008.jpg	99
3324.038	0.845	845.1	repeat	Run4	repeat/STIM_008.jpg	100
3327.567	0.525	525.2	repeat	Run4	repeat/STIM_008.jpg	99
3331.704	0.657	656.7	repeat	Run4	repeat/STIM_008.jpg	99
3334.716	0.647	647.3	repeat	Run4	repeat/STIM_008.jpg	99
3338.981	0.531	530.8	repeat	Run4	repeat/STIM_009.jpg	99
3342.339	0.574	574.1	repeat	Run4	repeat/STIM_009.jpg	100
3345.922	0.551	551.0	repeat	Run4	repeat/STIM_009.jpg	100
3350.278	0.866	866.0	repeat	Run4	repeat/STIM_009.jpg	99
3353.642	0.769	768.7	repeat	Run4	repeat/STIM_009.jpg	100
3357.761	0.618	617.6	repeat	Run4	repeat/STIM_010.jpg	100
3360.781	0.836	836.3	repeat	Run4	repeat/STIM_010.jpg	100
3364.426	0.579	578.8	repeat	Run4	repeat/STIM_010.jpg	99
3367.81	0.702	702.3	repeat	Run4	repeat/STIM_010.jpg	100
3372.16	0.859	858.9	repeat	Run4	repeat/STIM_010.jpg	99
3376.099	0.849	849.4	repeat	Run4	repeat/STIM_011.jpg	100
3379.21	0.728	727.5	repeat	Run4	repeat/STIM_011.jpg	100
3382.281	0.624	624.5	repeat	Run4	repeat/STIM_011.jpg	99
3385.696	0.912	912.4	repeat	Run4	repeat/STIM_011.jpg	99
3389.758	0.802	802.4	repeat	Run4	repeat/STIM_011.jpg	99
3393.553	0.822	822.2	repeat	Run4	repeat/STIM_012.jpg	99
3396.502	0.792	791.6	repeat	Run4	repeat/STIM_012.jpg	100
3400.825	0.692	692.0	repeat	Run4	repeat/STIM_012.jpg	100
3404.427	0.52	520.0	repeat	Run4	repeat/STIM_012.jpg	100
3407.192	0.829	828.6	repeat	Run4	repeat/STIM_012.jpg	99
3411.585	0.657	656.9	repeat	Run4	repeat/STIM_013.jpg	99
3415.499	0.721	720.9	repeat	Run4	repeat/STIM_013.jpg	99
3419.221	0.689	689.1	repeat	Run4	repeat/STIM_013.jpg	100
3423.43	0.565	565.0	repeat	Run4	repeat/STIM_013.jpg	99
3427.642	0.787	786.6	repeat	Run4	repeat/STIM_013.jpg	100
3432.293	0.524	524.5	repeat	Run4	repeat/STIM_014.jpg	100
3434.854	0.773	773.3	repeat	Run4	repeat/STIM_014.jpg	100
3438.179	0.568	568.2	repeat	Run4	repeat/STIM_014.jpg	99
3441.149	0.965	965.2	repeat	Run4	repeat/STIM_014.jpg	100
3445.838	0.909	909.0	repeat	Run4	repeat/STIM_014.jpg	100
