onset	duration	accuracy_binary	trial_type	learning_stage	stimulus
0.0	1.452	0	generate	Run1	generate/STIM_000.jpg
5.083	1.466	0	generate	Run1	generate/STIM_000.jpg
9.929	1.917	1	generate	Run1	generate/STIM_000.jpg
14.793	1.231	1	generate	Run1	generate/STIM_000.jpg
18.224	2.046	1	generate	Run1	generate/STIM_000.jpg
24.255	2.651	1	generate	Run1	generate/STIM_001.jpg
30.548	1.43	1	generate	Run1	generate/STIM_001.jpg
34.558	1.436	1	generate	Run1	generate/STIM_001.jpg
38.802	1.339	1	generate	Run1	generate/STIM_001.jpg
43.965	2.121	1	generate	Run1	generate/STIM_001.jpg
49.32	1.907	1	generate	Run1	generate/STIM_002.jpg
54.085	1.538	0	generate	Run1	generate/STIM_002.jpg
59.125	1.766	1	generate	Run1	generate/STIM_002.jpg
64.301	1.902	1	generate	Run1	generate/STIM_002.jpg
69.654	1.725	1	generate	Run1	generate/STIM_002.jpg
74.338	1.422	1	generate	Run1	generate/STIM_003.jpg
79.334	1.345	0	generate	Run1	generate/STIM_003.jpg
82.744	2.056	0	generate	Run1	generate/STIM_003.jpg
87.416	1.05	1	generate	Run1	generate/STIM_003.jpg
91.118	1.059	1	generate	Run1	generate/STIM_003.jpg
95.479	2.769	1	generate	Run1	generate/STIM_004.jpg
101.733	2.529	1	generate	Run1	generate/STIM_004.jpg
107.687	1.364	1	generate	Run1	generate/STIM_004.jpg
112.364	2.305	1	generate	Run1	generate/STIM_004.jpg
116.988	2.02	1	generate	Run1	generate/STIM_004.jpg
122.98	1.456	1	generate	Run1	generate/STIM_005.jpg
127.537	2.136	1	generate	Run1	generate/STIM_005.jpg
133.717	2.184	0	generate	Run1	generate/STIM_005.jpg
140.097	1.574	1	generate	Run1	generate/STIM_005.jpg
145.396	2.158	1	generate	Run1	generate/STIM_005.jpg
150.663	1.725	0	generate	Run1	generate/STIM_006.jpg
155.99	2.064	0	generate	Run1	generate/STIM_006.jpg
161.111	1.119	1	generate	Run1	generate/STIM_006.jpg
166.05	1.956	1	generate	Run1	generate/STIM_006.jpg
171.239	1.971	1	generate	Run1	generate/STIM_006.jpg
176.538	1.591	0	generate	Run1	generate/STIM_007.jpg
181.812	1.9	0	generate	Run1	generate/STIM_007.jpg
187.141	2.382	0	generate	Run1	generate/STIM_007.jpg
191.954	0.899	1	generate	Run1	generate/STIM_007.jpg
195.115	2.222	1	generate	Run1	generate/STIM_007.jpg
199.935	2.18	1	generate	Run1	generate/STIM_008.jpg
205.583	1.808	0	generate	Run1	generate/STIM_008.jpg
210.476	2.358	1	generate	Run1	generate/STIM_008.jpg
216.82	2.114	1	generate	Run1	generate/STIM_008.jpg
223.008	1.596	1	generate	Run1	generate/STIM_008.jpg
228.032	2.546	0	generate	Run1	generate/STIM_009.jpg
234.149	1.29	0	generate	Run1	generate/STIM_009.jpg
237.664	2.353	1	generate	Run1	generate/STIM_009.jpg
242.747	1.626	0	generate	Run1	generate/STIM_009.jpg
246.744	1.704	1	generate	Run1	generate/STIM_009.jpg
251.389	2.328	0	generate	Run1	generate/STIM_010.jpg
256.536	2.574	0	generate	Run1	generate/STIM_010.jpg
262.059	1.198	1	generate	Run1	generate/STIM_010.jpg
266.777	1.76	1	generate	Run1	generate/STIM_010.jpg
271.182	2.045	0	generate	Run1	generate/STIM_010.jpg
275.953	2.057	1	generate	Run1	generate/STIM_011.jpg
282.01	2.199	0	generate	Run1	generate/STIM_011.jpg
286.866	1.113	0	generate	Run1	generate/STIM_011.jpg
291.157	1.292	1	generate	Run1	generate/STIM_011.jpg
295.852	1.554	1	generate	Run1	generate/STIM_011.jpg
300.519	2.558	0	generate	Run1	generate/STIM_012.jpg
306.103	2.166	1	generate	Run1	generate/STIM_012.jpg
310.37	2.574	1	generate	Run1	generate/STIM_012.jpg
316.667	1.798	1	generate	Run1	generate/STIM_012.jpg
322.287	2.185	0	generate	Run1	generate/STIM_012.jpg
327.727	2.145	1	generate	Run1	generate/STIM_013.jpg
332.05	1.096	1	generate	Run1	generate/STIM_013.jpg
336.61	1.614	1	generate	Run1	generate/STIM_013.jpg
342.263	2.345	0	generate	Run1	generate/STIM_013.jpg
346.857	1.168	1	generate	Run1	generate/STIM_013.jpg
351.029	1.637	1	generate	Run1	generate/STIM_014.jpg
356.74	2.594	0	generate	Run1	generate/STIM_014.jpg
363.189	2.022	0	generate	Run1	generate/STIM_014.jpg
369.155	1.022	1	generate	Run1	generate/STIM_014.jpg
372.798	1.987	1	generate	Run1	generate/STIM_014.jpg
377.501	2.6	1	generate	Run1	generate/STIM_015.jpg
383.759	1.316	1	generate	Run1	generate/STIM_015.jpg
388.536	2.298	1	generate	Run1	generate/STIM_015.jpg
394.406	1.624	0	generate	Run1	generate/STIM_015.jpg
399.21	1.472	1	generate	Run1	generate/STIM_015.jpg
404.145	2.562	0	generate	Run1	generate/STIM_016.jpg
410.788	2.102	1	generate	Run1	generate/STIM_016.jpg
415.214	1.508	0	generate	Run1	generate/STIM_016.jpg
419.414	2.2	1	generate	Run1	generate/STIM_016.jpg
424.056	1.459	1	generate	Run1	generate/STIM_016.jpg
429.636	2.151	1	generate	Run1	generate/STIM_017.jpg
435.354	2.098	0	generate	Run1	generate/STIM_017.jpg
439.735	2.456	0	generate	Run1	generate/STIM_017.jpg
446.146	1.982	1	generate	Run1	generate/STIM_017.jpg
450.505	1.796	1	generate	Run1	generate/STIM_017.jpg
455.251	1.609	1	generate	Run1	generate/STIM_018.jpg
460.452	1.786	1	generate	Run1	generate/STIM_018.jpg
465.534	1.621	0	generate	Run1	generate/STIM_018.jpg
469.531	1.181	1	generate	Run1	generate/STIM_018.jpg
474.508	1.479	0	generate	Run1	generate/STIM_018.jpg
479.646	2.743	1	generate	Run1	generate/STIM_019.jpg
485.115	2.316	1	generate	Run1	generate/STIM_019.jpg
491.266	2.381	1	generate	Run1	generate/STIM_019.jpg
496.722	1.83	1	generate	Run1	generate/STIM_019.jpg
502.488	1.145	0	generate	Run1	generate/STIM_019.jpg
506.032	1.907	1	generate	Run1	generate/STIM_020.jpg
510.103	1.607	0	generate	Run1	generate/STIM_020.jpg
514.665	2.169	1	generate	Run1	generate/STIM_020.jpg
519.006	1.092	1	generate	Run1	generate/STIM_020.jpg
523.774	2.108	0	generate	Run1	generate/STIM_020.jpg
529.05	1.452	1	generate	Run1	generate/STIM_021.jpg
534.368	1.829	0	generate	Run1	generate/STIM_021.jpg
540.126	1.298	0	generate	Run1	generate/STIM_021.jpg
544.191	1.487	1	generate	Run1	generate/STIM_021.jpg
549.379	2.111	1	generate	Run1	generate/STIM_021.jpg
554.106	2.302	1	generate	Run1	generate/STIM_022.jpg
560.59	1.864	0	generate	Run1	generate/STIM_022.jpg
566.355	1.107	1	generate	Run1	generate/STIM_022.jpg
570.832	1.294	1	generate	Run1	generate/STIM_022.jpg
575.101	0.921	1	generate	Run1	generate/STIM_022.jpg
579.617	1.284	1	generate	Run1	generate/STIM_023.jpg
583.642	1.54	1	generate	Run1	generate/STIM_023.jpg
589.022	2.022	1	generate	Run1	generate/STIM_023.jpg
594.398	1.096	0	generate	Run1	generate/STIM_023.jpg
598.424	1.633	1	generate	Run1	generate/STIM_023.jpg
602.812	2.153	1	generate	Run1	generate/STIM_024.jpg
609.197	1.621	1	generate	Run1	generate/STIM_024.jpg
614.611	1.979	1	generate	Run1	generate/STIM_024.jpg
619.0	1.008	1	generate	Run1	generate/STIM_024.jpg
622.198	2.158	0	generate	Run1	generate/STIM_024.jpg
626.62	0.576	1	repeat	Run1	repeat/STIM_000.jpg
629.678	0.656	1	repeat	Run1	repeat/STIM_000.jpg
633.536	0.851	1	repeat	Run1	repeat/STIM_000.jpg
637.846	0.552	1	repeat	Run1	repeat/STIM_000.jpg
640.515	0.631	1	repeat	Run1	repeat/STIM_000.jpg
644.449	0.578	1	repeat	Run1	repeat/STIM_001.jpg
647.783	0.658	1	repeat	Run1	repeat/STIM_001.jpg
651.086	0.47	1	repeat	Run1	repeat/STIM_001.jpg
654.948	0.683	0	repeat	Run1	repeat/STIM_001.jpg
658.438	0.737	1	repeat	Run1	repeat/STIM_001.jpg
662.389	0.788	1	repeat	Run1	repeat/STIM_002.jpg
666.941	0.727	1	repeat	Run1	repeat/STIM_002.jpg
669.813	0.6	1	repeat	Run1	repeat/STIM_002.jpg
672.654	0.751	1	repeat	Run1	repeat/STIM_002.jpg
676.881	0.689	1	repeat	Run1	repeat/STIM_002.jpg
680.994	0.632	1	repeat	Run1	repeat/STIM_003.jpg
685.271	0.627	1	repeat	Run1	repeat/STIM_003.jpg
689.644	0.527	1	repeat	Run1	repeat/STIM_003.jpg
693.892	0.713	1	repeat	Run1	repeat/STIM_003.jpg
697.599	0.798	1	repeat	Run1	repeat/STIM_003.jpg
701.001	0.718	1	repeat	Run1	repeat/STIM_004.jpg
704.684	1.0	1	repeat	Run1	repeat/STIM_004.jpg
709.338	0.934	1	repeat	Run1	repeat/STIM_004.jpg
712.631	0.661	1	repeat	Run1	repeat/STIM_004.jpg
717.184	0.68	1	repeat	Run1	repeat/STIM_004.jpg
719.776	0.554	1	repeat	Run1	repeat/STIM_005.jpg
724.238	0.934	1	repeat	Run1	repeat/STIM_005.jpg
727.326	0.865	1	repeat	Run1	repeat/STIM_005.jpg
731.625	0.619	1	repeat	Run1	repeat/STIM_005.jpg
735.887	0.549	1	repeat	Run1	repeat/STIM_005.jpg
740.262	0.848	1	repeat	Run1	repeat/STIM_006.jpg
744.689	0.664	1	repeat	Run1	repeat/STIM_006.jpg
748.288	0.494	1	repeat	Run1	repeat/STIM_006.jpg
752.605	0.795	1	repeat	Run1	repeat/STIM_006.jpg
756.222	0.59	1	repeat	Run1	repeat/STIM_006.jpg
759.261	0.59	1	repeat	Run1	repeat/STIM_007.jpg
762.482	0.623	1	repeat	Run1	repeat/STIM_007.jpg
766.751	0.595	1	repeat	Run1	repeat/STIM_007.jpg
770.166	0.67	1	repeat	Run1	repeat/STIM_007.jpg
774.775	0.668	1	repeat	Run1	repeat/STIM_007.jpg
778.125	0.765	0	repeat	Run1	repeat/STIM_008.jpg
782.561	0.956	1	repeat	Run1	repeat/STIM_008.jpg
785.948	0.856	1	repeat	Run1	repeat/STIM_008.jpg
790.55	0.462	1	repeat	Run1	repeat/STIM_008.jpg
793.693	0.815	1	repeat	Run1	repeat/STIM_008.jpg
798.018	0.878	1	repeat	Run1	repeat/STIM_009.jpg
801.21	0.727	1	repeat	Run1	repeat/STIM_009.jpg
805.009	0.845	1	repeat	Run1	repeat/STIM_009.jpg
808.803	0.483	1	repeat	Run1	repeat/STIM_009.jpg
812.743	0.673	1	repeat	Run1	repeat/STIM_009.jpg
816.108	0.527	1	repeat	Run1	repeat/STIM_010.jpg
820.015	0.878	0	repeat	Run1	repeat/STIM_010.jpg
823.471	0.992	1	repeat	Run1	repeat/STIM_010.jpg
828.114	0.753	1	repeat	Run1	repeat/STIM_010.jpg
832.624	0.37	1	repeat	Run1	repeat/STIM_010.jpg
836.044	0.853	1	repeat	Run1	repeat/STIM_011.jpg
839.088	0.828	1	repeat	Run1	repeat/STIM_011.jpg
842.926	0.807	1	repeat	Run1	repeat/STIM_011.jpg
845.892	0.756	1	repeat	Run1	repeat/STIM_011.jpg
848.921	0.769	1	repeat	Run1	repeat/STIM_011.jpg
853.08	0.918	1	repeat	Run1	repeat/STIM_012.jpg
857.936	0.984	1	repeat	Run1	repeat/STIM_012.jpg
861.286	0.605	1	repeat	Run1	repeat/STIM_012.jpg
865.277	0.786	1	repeat	Run1	repeat/STIM_012.jpg
869.98	0.453	1	repeat	Run1	repeat/STIM_012.jpg
873.91	1.003	1	repeat	Run1	repeat/STIM_013.jpg
877.529	0.849	1	repeat	Run1	repeat/STIM_013.jpg
882.274	0.847	0	repeat	Run1	repeat/STIM_013.jpg
886.69	0.691	1	repeat	Run1	repeat/STIM_013.jpg
889.453	0.843	1	repeat	Run1	repeat/STIM_013.jpg
893.466	0.535	1	repeat	Run1	repeat/STIM_014.jpg
896.572	0.814	1	repeat	Run1	repeat/STIM_014.jpg
899.78	0.852	1	repeat	Run1	repeat/STIM_014.jpg
903.932	0.608	1	repeat	Run1	repeat/STIM_014.jpg
907.483	0.92	1	repeat	Run1	repeat/STIM_014.jpg
910.946	2.057	1	generate	Run2	generate/STIM_000.jpg
916.71	2.224	1	generate	Run2	generate/STIM_000.jpg
921.068	2.022	1	generate	Run2	generate/STIM_000.jpg
926.91	0.873	1	generate	Run2	generate/STIM_000.jpg
931.824	1.346	1	generate	Run2	generate/STIM_000.jpg
935.568	2.274	0	generate	Run2	generate/STIM_001.jpg
941.986	1.648	1	generate	Run2	generate/STIM_001.jpg
946.762	1.732	1	generate	Run2	generate/STIM_001.jpg
952.392	1.218	1	generate	Run2	generate/STIM_001.jpg
956.434	0.896	1	generate	Run2	generate/STIM_001.jpg
960.653	2.251	1	generate	Run2	generate/STIM_002.jpg
966.466	1.402	1	generate	Run2	generate/STIM_002.jpg
970.755	1.306	1	generate	Run2	generate/STIM_002.jpg
975.282	1.409	1	generate	Run2	generate/STIM_002.jpg
979.537	1.359	1	generate	Run2	generate/STIM_002.jpg
983.858	2.27	1	generate	Run2	generate/STIM_003.jpg
990.051	1.638	1	generate	Run2	generate/STIM_003.jpg
994.835	1.438	0	generate	Run2	generate/STIM_003.jpg
999.647	0.881	0	generate	Run2	generate/STIM_003.jpg
1003.411	1.124	1	generate	Run2	generate/STIM_003.jpg
1007.977	0.999	1	generate	Run2	generate/STIM_004.jpg
1011.441	1.513	0	generate	Run2	generate/STIM_004.jpg
1016.116	0.889	1	generate	Run2	generate/STIM_004.jpg
1019.23	1.183	1	generate	Run2	generate/STIM_004.jpg
1023.766	1.24	1	generate	Run2	generate/STIM_004.jpg
1028.862	1.886	1	generate	Run2	generate/STIM_005.jpg
1033.088	1.356	1	generate	Run2	generate/STIM_005.jpg
1037.793	2.018	0	generate	Run2	generate/STIM_005.jpg
1042.173	1.502	1	generate	Run2	generate/STIM_005.jpg
1046.369	0.793	1	generate	Run2	generate/STIM_005.jpg
1050.359	1.923	0	generate	Run2	generate/STIM_006.jpg
1054.786	0.956	0	generate	Run2	generate/STIM_006.jpg
1058.902	1.566	1	generate	Run2	generate/STIM_006.jpg
1062.886	1.717	1	generate	Run2	generate/STIM_006.jpg
1068.215	0.818	1	generate	Run2	generate/STIM_006.jpg
1071.356	2.321	1	generate	Run2	generate/STIM_007.jpg
1076.595	1.666	1	generate	Run2	generate/STIM_007.jpg
1081.743	1.688	0	generate	Run2	generate/STIM_007.jpg
1086.693	1.67	1	generate	Run2	generate/STIM_007.jpg
1091.046	1.492	1	generate	Run2	generate/STIM_007.jpg
1096.505	1.29	1	generate	Run2	generate/STIM_008.jpg
1100.116	1.87	1	generate	Run2	generate/STIM_008.jpg
1104.38	1.19	1	generate	Run2	generate/STIM_008.jpg
1109.229	1.802	1	generate	Run2	generate/STIM_008.jpg
1114.472	1.584	1	generate	Run2	generate/STIM_008.jpg
1119.269	1.907	1	generate	Run2	generate/STIM_009.jpg
1125.123	1.24	1	generate	Run2	generate/STIM_009.jpg
1128.529	2.131	1	generate	Run2	generate/STIM_009.jpg
1134.284	1.208	1	generate	Run2	generate/STIM_009.jpg
1138.386	1.97	0	generate	Run2	generate/STIM_009.jpg
1142.69	1.41	1	generate	Run2	generate/STIM_010.jpg
1147.747	1.475	1	generate	Run2	generate/STIM_010.jpg
1152.098	1.458	1	generate	Run2	generate/STIM_010.jpg
1156.772	1.313	0	generate	Run2	generate/STIM_010.jpg
1161.59	1.179	1	generate	Run2	generate/STIM_010.jpg
1165.129	0.98	1	generate	Run2	generate/STIM_011.jpg
1168.822	1.117	1	generate	Run2	generate/STIM_011.jpg
1172.552	0.831	1	generate	Run2	generate/STIM_011.jpg
1175.819	1.584	1	generate	Run2	generate/STIM_011.jpg
1181.451	1.757	1	generate	Run2	generate/STIM_011.jpg
1185.702	2.351	1	generate	Run2	generate/STIM_012.jpg
1191.516	1.086	1	generate	Run2	generate/STIM_012.jpg
1195.178	1.18	1	generate	Run2	generate/STIM_012.jpg
1199.598	0.72	1	generate	Run2	generate/STIM_012.jpg
1203.175	1.91	1	generate	Run2	generate/STIM_012.jpg
1208.975	1.406	1	generate	Run2	generate/STIM_013.jpg
1213.117	1.01	1	generate	Run2	generate/STIM_013.jpg
1217.891	1.644	0	generate	Run2	generate/STIM_013.jpg
1222.795	1.06	1	generate	Run2	generate/STIM_013.jpg
1227.89	0.932	1	generate	Run2	generate/STIM_013.jpg
1232.735	1.252	0	generate	Run2	generate/STIM_014.jpg
1236.632	2.035	1	generate	Run2	generate/STIM_014.jpg
1242.461	1.953	1	generate	Run2	generate/STIM_014.jpg
1247.48	1.035	1	generate	Run2	generate/STIM_014.jpg
1252.274	1.954	1	generate	Run2	generate/STIM_014.jpg
1256.368	0.978	1	generate	Run2	generate/STIM_015.jpg
1260.944	2.199	1	generate	Run2	generate/STIM_015.jpg
1265.752	1.946	1	generate	Run2	generate/STIM_015.jpg
1270.846	0.983	0	generate	Run2	generate/STIM_015.jpg
1274.301	1.274	1	generate	Run2	generate/STIM_015.jpg
1278.351	2.016	1	generate	Run2	generate/STIM_016.jpg
1283.067	1.91	1	generate	Run2	generate/STIM_016.jpg
1288.157	1.157	1	generate	Run2	generate/STIM_016.jpg
1291.952	1.269	1	generate	Run2	generate/STIM_016.jpg
1296.464	1.91	1	generate	Run2	generate/STIM_016.jpg
1301.4	1.747	1	generate	Run2	generate/STIM_017.jpg
1306.268	1.421	1	generate	Run2	generate/STIM_017.jpg
1310.063	1.246	1	generate	Run2	generate/STIM_017.jpg
1314.507	1.408	1	generate	Run2	generate/STIM_017.jpg
1318.469	1.15	1	generate	Run2	generate/STIM_017.jpg
1322.202	1.275	1	generate	Run2	generate/STIM_018.jpg
1326.721	0.962	1	generate	Run2	generate/STIM_018.jpg
1331.356	1.892	1	generate	Run2	generate/STIM_018.jpg
1336.915	1.726	1	generate	Run2	generate/STIM_018.jpg
1341.674	0.913	0	generate	Run2	generate/STIM_018.jpg
1346.508	2.05	1	generate	Run2	generate/STIM_019.jpg
1352.017	1.629	0	generate	Run2	generate/STIM_019.jpg
1357.328	1.097	1	generate	Run2	generate/STIM_019.jpg
1362.306	1.018	1	generate	Run2	generate/STIM_019.jpg
1365.92	1.46	1	generate	Run2	generate/STIM_019.jpg
1369.901	1.734	1	generate	Run2	generate/STIM_020.jpg
1373.846	1.934	1	generate	Run2	generate/STIM_020.jpg
1379.494	2.049	1	generate	Run2	generate/STIM_020.jpg
1384.623	0.95	1	generate	Run2	generate/STIM_020.jpg
1389.021	1.617	1	generate	Run2	generate/STIM_020.jpg
1393.441	1.632	0	generate	Run2	generate/STIM_021.jpg
1398.671	2.206	1	generate	Run2	generate/STIM_021.jpg
1404.899	2.064	1	generate	Run2	generate/STIM_021.jpg
1409.942	1.85	1	generate	Run2	generate/STIM_021.jpg
1415.405	1.167	1	generate	Run2	generate/STIM_021.jpg
1419.128	1.752	1	generate	Run2	generate/STIM_022.jpg
1423.854	2.187	1	generate	Run2	generate/STIM_022.jpg
1429.652	1.615	1	generate	Run2	generate/STIM_022.jpg
1434.189	0.832	1	generate	Run2	generate/STIM_022.jpg
1437.329	1.434	1	generate	Run2	generate/STIM_022.jpg
1441.666	2.299	1	generate	Run2	generate/STIM_023.jpg
1446.189	1.868	1	generate	Run2	generate/STIM_023.jpg
1450.273	1.357	1	generate	Run2	generate/STIM_023.jpg
1454.669	1.547	1	generate	Run2	generate/STIM_023.jpg
1458.628	1.661	1	generate	Run2	generate/STIM_023.jpg
1462.475	1.162	1	generate	Run2	generate/STIM_024.jpg
1467.72	2.042	0	generate	Run2	generate/STIM_024.jpg
1472.793	1.605	0	generate	Run2	generate/STIM_024.jpg
1477.389	1.829	1	generate	Run2	generate/STIM_024.jpg
1482.154	1.518	0	generate	Run2	generate/STIM_024.jpg
1487.525	0.533	1	repeat	Run2	repeat/STIM_000.jpg
1490.804	0.919	1	repeat	Run2	repeat/STIM_000.jpg
1493.861	0.5	1	repeat	Run2	repeat/STIM_000.jpg
1497.945	0.518	1	repeat	Run2	repeat/STIM_000.jpg
1500.692	0.501	1	repeat	Run2	repeat/STIM_000.jpg
1504.175	0.7	1	repeat	Run2	repeat/STIM_001.jpg
1507.486	0.76	1	repeat	Run2	repeat/STIM_001.jpg
1512.016	0.638	1	repeat	Run2	repeat/STIM_001.jpg
1516.64	0.846	1	repeat	Run2	repeat/STIM_001.jpg
1519.93	0.527	1	repeat	Run2	repeat/STIM_001.jpg
1522.598	0.95	1	repeat	Run2	repeat/STIM_002.jpg
1526.127	0.804	1	repeat	Run2	repeat/STIM_002.jpg
1529.485	0.485	1	repeat	Run2	repeat/STIM_002.jpg
1532.648	0.717	1	repeat	Run2	repeat/STIM_002.jpg
1536.679	0.679	1	repeat	Run2	repeat/STIM_002.jpg
1539.516	0.654	1	repeat	Run2	repeat/STIM_003.jpg
1542.454	0.788	1	repeat	Run2	repeat/STIM_003.jpg
1546.407	0.534	1	repeat	Run2	repeat/STIM_003.jpg
1549.798	0.793	1	repeat	Run2	repeat/STIM_003.jpg
1554.647	0.717	1	repeat	Run2	repeat/STIM_003.jpg
1557.94	0.71	1	repeat	Run2	repeat/STIM_004.jpg
1560.916	0.748	1	repeat	Run2	repeat/STIM_004.jpg
1563.713	0.753	1	repeat	Run2	repeat/STIM_004.jpg
1568.135	0.87	1	repeat	Run2	repeat/STIM_004.jpg
1571.304	0.667	1	repeat	Run2	repeat/STIM_004.jpg
1575.536	0.739	1	repeat	Run2	repeat/STIM_005.jpg
1579.789	0.522	1	repeat	Run2	repeat/STIM_005.jpg
1582.662	0.837	1	repeat	Run2	repeat/STIM_005.jpg
1585.62	0.847	1	repeat	Run2	repeat/STIM_005.jpg
1589.05	0.643	1	repeat	Run2	repeat/STIM_005.jpg
1592.724	0.5	1	repeat	Run2	repeat/STIM_006.jpg
1595.609	0.452	1	repeat	Run2	repeat/STIM_006.jpg
1598.854	0.539	1	repeat	Run2	repeat/STIM_006.jpg
1602.21	0.467	1	repeat	Run2	repeat/STIM_006.jpg
1605.86	0.461	1	repeat	Run2	repeat/STIM_006.jpg
1610.068	0.605	1	repeat	Run2	repeat/STIM_007.jpg
1612.92	0.731	0	repeat	Run2	repeat/STIM_007.jpg
1615.778	0.474	1	repeat	Run2	repeat/STIM_007.jpg
1618.551	0.576	1	repeat	Run2	repeat/STIM_007.jpg
1621.263	0.547	1	repeat	Run2	repeat/STIM_007.jpg
1624.826	0.812	1	repeat	Run2	repeat/STIM_008.jpg
1627.707	0.516	1	repeat	Run2	repeat/STIM_008.jpg
1630.452	0.493	1	repeat	Run2	repeat/STIM_008.jpg
1634.344	0.66	0	repeat	Run2	repeat/STIM_008.jpg
1638.748	0.87	1	repeat	Run2	repeat/STIM_008.jpg
1643.273	0.779	1	repeat	Run2	repeat/STIM_009.jpg
1646.162	0.626	1	repeat	Run2	repeat/STIM_009.jpg
1650.524	0.494	1	repeat	Run2	repeat/STIM_009.jpg
1653.774	0.724	1	repeat	Run2	repeat/STIM_009.jpg
1658.199	0.619	1	repeat	Run2	repeat/STIM_009.jpg
1661.187	0.534	1	repeat	Run2	repeat/STIM_010.jpg
1665.214	0.842	1	repeat	Run2	repeat/STIM_010.jpg
1669.252	0.489	1	repeat	Run2	repeat/STIM_010.jpg
1673.441	0.66	1	repeat	Run2	repeat/STIM_010.jpg
1677.462	0.795	1	repeat	Run2	repeat/STIM_010.jpg
1681.218	0.536	1	repeat	Run2	repeat/STIM_011.jpg
1685.715	0.738	1	repeat	Run2	repeat/STIM_011.jpg
1690.206	0.799	1	repeat	Run2	repeat/STIM_011.jpg
1694.056	0.592	1	repeat	Run2	repeat/STIM_011.jpg
1697.713	0.843	1	repeat	Run2	repeat/STIM_011.jpg
1701.242	0.562	1	repeat	Run2	repeat/STIM_012.jpg
1705.292	0.862	1	repeat	Run2	repeat/STIM_012.jpg
1710.002	0.742	1	repeat	Run2	repeat/STIM_012.jpg
1713.425	0.81	1	repeat	Run2	repeat/STIM_012.jpg
1717.724	0.555	1	repeat	Run2	repeat/STIM_012.jpg
1721.221	0.534	1	repeat	Run2	repeat/STIM_013.jpg
1725.113	0.545	1	repeat	Run2	repeat/STIM_013.jpg
1728.469	0.616	1	repeat	Run2	repeat/STIM_013.jpg
1733.044	0.557	1	repeat	Run2	repeat/STIM_013.jpg
1737.388	0.883	1	repeat	Run2	repeat/STIM_013.jpg
1740.362	0.455	1	repeat	Run2	repeat/STIM_014.jpg
1744.869	0.594	1	repeat	Run2	repeat/STIM_014.jpg
1749.025	0.83	1	repeat	Run2	repeat/STIM_014.jpg
1752.106	0.592	1	repeat	Run2	repeat/STIM_014.jpg
1756.572	0.79	1	repeat	Run2	repeat/STIM_014.jpg
1759.932	1.437	1	generate	Run3	generate/STIM_000.jpg
1763.45	0.918	1	generate	Run3	generate/STIM_000.jpg
1766.981	1.002	1	generate	Run3	generate/STIM_000.jpg
1771.431	0.731	1	generate	Run3	generate/STIM_000.jpg
1776.119	0.943	1	generate	Run3	generate/STIM_000.jpg
1780.912	1.857	1	generate	Run3	generate/STIM_001.jpg
1785.56	1.655	0	generate	Run3	generate/STIM_001.jpg
1790.823	1.438	1	generate	Run3	generate/STIM_001.jpg
1794.456	0.907	1	generate	Run3	generate/STIM_001.jpg
1797.503	1.009	1	generate	Run3	generate/STIM_001.jpg
1801.656	1.621	1	generate	Run3	generate/STIM_002.jpg
1807.133	0.87	1	generate	Run3	generate/STIM_002.jpg
1811.729	1.86	1	generate	Run3	generate/STIM_002.jpg
1816.786	1.259	1	generate	Run3	generate/STIM_002.jpg
1821.741	1.793	1	generate	Run3	generate/STIM_002.jpg
1825.641	1.785	1	generate	Run3	generate/STIM_003.jpg
1830.524	1.664	1	generate	Run3	generate/STIM_003.jpg
1835.444	1.115	1	generate	Run3	generate/STIM_003.jpg
1839.353	0.992	1	generate	Run3	generate/STIM_003.jpg
1843.558	1.181	1	generate	Run3	generate/STIM_003.jpg
1848.246	1.333	1	generate	Run3	generate/STIM_004.jpg
1852.038	1.532	1	generate	Run3	generate/STIM_004.jpg
1857.026	1.322	1	generate	Run3	generate/STIM_004.jpg
1861.61	1.305	1	generate	Run3	generate/STIM_004.jpg
1864.988	1.213	1	generate	Run3	generate/STIM_004.jpg
1869.094	1.695	1	generate	Run3	generate/STIM_005.jpg
1873.196	1.396	1	generate	Run3	generate/STIM_005.jpg
1878.519	0.86	1	generate	Run3	generate/STIM_005.jpg
1882.555	1.283	1	generate	Run3	generate/STIM_005.jpg
1887.329	1.353	1	generate	Run3	generate/STIM_005.jpg
1891.844	1.252	1	generate	Run3	generate/STIM_006.jpg
1896.799	0.97	0	generate	Run3	generate/STIM_006.jpg
1900.129	1.586	1	generate	Run3	generate/STIM_006.jpg
1904.803	1.065	1	generate	Run3	generate/STIM_006.jpg
1908.934	1.794	0	generate	Run3	generate/STIM_006.jpg
1912.941	1.843	1	generate	Run3	generate/STIM_007.jpg
1918.386	1.96	1	generate	Run3	generate/STIM_007.jpg
1923.971	1.877	1	generate	Run3	generate/STIM_007.jpg
1929.92	1.296	1	generate	Run3	generate/STIM_007.jpg
1933.928	0.973	1	generate	Run3	generate/STIM_007.jpg
1937.108	1.384	1	generate	Run3	generate/STIM_008.jpg
1941.177	1.151	1	generate	Run3	generate/STIM_008.jpg
1945.946	1.043	1	generate	Run3	generate/STIM_008.jpg
1949.368	0.745	1	generate	Run3	generate/STIM_008.jpg
1953.499	0.899	1	generate	Run3	generate/STIM_008.jpg
1956.917	1.291	1	generate	Run3	generate/STIM_009.jpg
1961.593	1.576	1	generate	Run3	generate/STIM_009.jpg
1965.729	1.054	1	generate	Run3	generate/STIM_009.jpg
1970.479	1.464	1	generate	Run3	generate/STIM_009.jpg
1974.53	1.861	1	generate	Run3	generate/STIM_009.jpg
1979.654	1.285	1	generate	Run3	generate/STIM_010.jpg
1984.114	1.014	0	generate	Run3	generate/STIM_010.jpg
1988.327	1.249	1	generate	Run3	generate/STIM_010.jpg
1993.064	1.805	1	generate	Run3	generate/STIM_010.jpg
1998.092	0.986	1	generate	Run3	generate/STIM_010.jpg
2003.016	1.239	1	generate	Run3	generate/STIM_011.jpg
2007.811	1.331	0	generate	Run3	generate/STIM_011.jpg
2013.105	1.627	1	generate	Run3	generate/STIM_011.jpg
2017.89	1.002	1	generate	Run3	generate/STIM_011.jpg
2021.301	1.743	1	generate	Run3	generate/STIM_011.jpg
2026.881	0.955	1	generate	Run3	generate/STIM_012.jpg
2031.861	1.885	0	generate	Run3	generate/STIM_012.jpg
2036.633	1.803	1	generate	Run3	generate/STIM_012.jpg
2040.803	0.91	1	generate	Run3	generate/STIM_012.jpg
2045.126	1.476	1	generate	Run3	generate/STIM_012.jpg
2050.646	0.739	1	generate	Run3	generate/STIM_013.jpg
2054.696	1.309	1	generate	Run3	generate/STIM_013.jpg
2059.655	1.288	1	generate	Run3	generate/STIM_013.jpg
2063.205	1.698	1	generate	Run3	generate/STIM_013.jpg
2068.752	0.995	1	generate	Run3	generate/STIM_013.jpg
2073.714	0.989	1	generate	Run3	generate/STIM_014.jpg
2078.367	1.639	1	generate	Run3	generate/STIM_014.jpg
2082.7	1.147	1	generate	Run3	generate/STIM_014.jpg
2086.322	1.021	1	generate	Run3	generate/STIM_014.jpg
2089.889	1.695	1	generate	Run3	generate/STIM_014.jpg
2095.007	0.922	1	generate	Run3	generate/STIM_015.jpg
2098.892	0.994	1	generate	Run3	generate/STIM_015.jpg
2102.081	1.905	1	generate	Run3	generate/STIM_015.jpg
2106.93	1.229	1	generate	Run3	generate/STIM_015.jpg
2111.368	1.894	0	generate	Run3	generate/STIM_015.jpg
2117.126	1.189	1	generate	Run3	generate/STIM_016.jpg
2121.474	0.909	1	generate	Run3	generate/STIM_016.jpg
2126.448	1.545	1	generate	Run3	generate/STIM_016.jpg
2130.345	1.38	1	generate	Run3	generate/STIM_016.jpg
2134.168	0.883	0	generate	Run3	generate/STIM_016.jpg
2137.261	1.416	1	generate	Run3	generate/STIM_017.jpg
2141.26	1.165	1	generate	Run3	generate/STIM_017.jpg
2146.472	1.732	1	generate	Run3	generate/STIM_017.jpg
2150.736	1.646	1	generate	Run3	generate/STIM_017.jpg
2154.762	0.751	1	generate	Run3	generate/STIM_017.jpg
2158.802	1.584	1	generate	Run3	generate/STIM_018.jpg
2163.744	1.42	1	generate	Run3	generate/STIM_018.jpg
2169.164	1.107	1	generate	Run3	generate/STIM_018.jpg
2173.492	1.567	1	generate	Run3	generate/STIM_018.jpg
2178.114	1.469	1	generate	Run3	generate/STIM_018.jpg
2181.948	0.787	0	generate	Run3	generate/STIM_019.jpg
2185.437	0.908	1	generate	Run3	generate/STIM_019.jpg
2189.54	1.335	1	generate	Run3	generate/STIM_019.jpg
2193.703	1.66	1	generate	Run3	generate/STIM_019.jpg
2198.927	1.008	0	generate	Run3	generate/STIM_019.jpg
2203.472	1.623	1	generate	Run3	generate/STIM_020.jpg
2207.675	1.33	1	generate	Run3	generate/STIM_020.jpg
2211.65	1.124	1	generate	Run3	generate/STIM_020.jpg
2215.492	1.726	1	generate	Run3	generate/STIM_020.jpg
2220.666	1.781	1	generate	Run3	generate/STIM_020.jpg
2225.182	1.514	1	generate	Run3	generate/STIM_021.jpg
2229.616	1.34	1	generate	Run3	generate/STIM_021.jpg
2234.118	1.217	1	generate	Run3	generate/STIM_021.jpg
2238.736	1.838	1	generate	Run3	generate/STIM_021.jpg
2242.801	1.06	0	generate	Run3	generate/STIM_021.jpg
2247.179	1.34	1	generate	Run3	generate/STIM_022.jpg
2251.133	0.933	1	generate	Run3	generate/STIM_022.jpg
2255.946	0.96	1	generate	Run3	generate/STIM_022.jpg
2259.602	1.492	0	generate	Run3	generate/STIM_022.jpg
2264.263	1.194	1	generate	Run3	generate/STIM_022.jpg
2268.211	1.007	1	generate	Run3	generate/STIM_023.jpg
2272.747	1.284	1	generate	Run3	generate/STIM_023.jpg
2277.562	1.749	1	generate	Run3	generate/STIM_023.jpg
2282.715	1.703	1	generate	Run3	generate/STIM_023.jpg
2286.972	1.779	1	generate	Run3	generate/STIM_023.jpg
2292.119	1.799	1	generate	Run3	generate/STIM_024.jpg
2296.068	1.242	1	generate	Run3	generate/STIM_024.jpg
2300.434	1.591	1	generate	Run3	generate/STIM_024.jpg
2304.253	1.416	1	generate	Run3	generate/STIM_024.jpg
2309.703	1.304	1	generate	Run3	generate/STIM_024.jpg
2313.767	0.771	1	repeat	Run3	repeat/STIM_000.jpg
2317.809	0.627	1	repeat	Run3	repeat/STIM_000.jpg
2322.447	0.776	1	repeat	Run3	repeat/STIM_000.jpg
2325.719	0.495	1	repeat	Run3	repeat/STIM_000.jpg
2329.651	0.879	1	repeat	Run3	repeat/STIM_000.jpg
2333.162	0.785	1	repeat	Run3	repeat/STIM_001.jpg
2336.806	0.661	1	repeat	Run3	repeat/STIM_001.jpg
2340.917	0.562	1	repeat	Run3	repeat/STIM_001.jpg
2345.461	0.75	1	repeat	Run3	repeat/STIM_001.jpg
2348.42	0.907	1	repeat	Run3	repeat/STIM_001.jpg
2352.049	0.509	1	repeat	Run3	repeat/STIM_002.jpg
2355.707	0.733	1	repeat	Run3	repeat/STIM_002.jpg
2360.462	0.879	1	repeat	Run3	repeat/STIM_002.jpg
2365.024	0.691	1	repeat	Run3	repeat/STIM_002.jpg
2368.48	0.775	1	repeat	Run3	repeat/STIM_002.jpg
2371.459	0.442	1	repeat	Run3	repeat/STIM_003.jpg
2375.846	0.513	0	repeat	Run3	repeat/STIM_003.jpg
2379.495	0.832	1	repeat	Run3	repeat/STIM_003.jpg
2383.558	0.505	1	repeat	Run3	repeat/STIM_003.jpg
2387.608	0.816	1	repeat	Run3	repeat/STIM_003.jpg
2390.913	0.879	1	repeat	Run3	repeat/STIM_004.jpg
2395.041	0.745	1	repeat	Run3	repeat/STIM_004.jpg
2398.326	0.735	1	repeat	Run3	repeat/STIM_004.jpg
2401.157	0.597	1	repeat	Run3	repeat/STIM_004.jpg
2405.463	0.688	1	repeat	Run3	repeat/STIM_004.jpg
2409.717	0.799	1	repeat	Run3	repeat/STIM_005.jpg
2413.583	0.598	1	repeat	Run3	repeat/STIM_005.jpg
2416.365	0.521	1	repeat	Run3	repeat/STIM_005.jpg
2420.344	0.616	1	repeat	Run3	repeat/STIM_005.jpg
2424.308	0.627	1	repeat	Run3	repeat/STIM_005.jpg
2427.102	0.741	1	repeat	Run3	repeat/STIM_006.jpg
2430.572	0.552	1	repeat	Run3	repeat/STIM_006.jpg
2434.595	0.681	1	repeat	Run3	repeat/STIM_006.jpg
2438.177	0.775	1	repeat	Run3	repeat/STIM_006.jpg
2441.965	0.457	1	repeat	Run3	repeat/STIM_006.jpg
2445.968	0.94	1	repeat	Run3	repeat/STIM_007.jpg
2450.669	0.535	1	repeat	Run3	repeat/STIM_007.jpg
2454.69	0.894	1	repeat	Run3	repeat/STIM_007.jpg
2458.663	0.673	1	repeat	Run3	repeat/STIM_007.jpg
2461.804	0.534	1	repeat	Run3	repeat/STIM_007.jpg
2465.619	0.838	1	repeat	Run3	repeat/STIM_008.jpg
2469.701	0.486	1	repeat	Run3	repeat/STIM_008.jpg
2473.927	0.705	1	repeat	Run3	repeat/STIM_008.jpg
2477.526	0.812	1	repeat	Run3	repeat/STIM_008.jpg
2481.585	0.885	1	repeat	Run3	repeat/STIM_008.jpg
2485.424	0.529	1	repeat	Run3	repeat/STIM_009.jpg
2489.772	0.76	1	repeat	Run3	repeat/STIM_009.jpg
2494.19	0.814	1	repeat	Run3	repeat/STIM_009.jpg
2497.898	0.704	1	repeat	Run3	repeat/STIM_009.jpg
2501.934	0.568	1	repeat	Run3	repeat/STIM_009.jpg
2506.086	0.44	1	repeat	Run3	repeat/STIM_010.jpg
2508.921	0.487	1	repeat	Run3	repeat/STIM_010.jpg
2511.569	0.462	1	repeat	Run3	repeat/STIM_010.jpg
2515.481	0.704	0	repeat	Run3	repeat/STIM_010.jpg
2519.501	0.618	1	repeat	Run3	repeat/STIM_010.jpg
2523.957	0.701	1	repeat	Run3	repeat/STIM_011.jpg
2527.155	0.541	1	repeat	Run3	repeat/STIM_011.jpg
2530.058	0.58	0	repeat	Run3	repeat/STIM_011.jpg
2534.242	0.641	1	repeat	Run3	repeat/STIM_011.jpg
2537.807	0.592	1	repeat	Run3	repeat/STIM_011.jpg
2541.373	0.633	1	repeat	Run3	repeat/STIM_012.jpg
2545.775	0.75	1	repeat	Run3	repeat/STIM_012.jpg
2549.171	0.653	1	repeat	Run3	repeat/STIM_012.jpg
2552.58	0.742	1	repeat	Run3	repeat/STIM_012.jpg
2557.199	0.496	1	repeat	Run3	repeat/STIM_012.jpg
2561.351	0.748	1	repeat	Run3	repeat/STIM_013.jpg
2565.716	0.812	1	repeat	Run3	repeat/STIM_013.jpg
2570.517	0.695	1	repeat	Run3	repeat/STIM_013.jpg
2573.701	0.681	1	repeat	Run3	repeat/STIM_013.jpg
2578.26	0.615	0	repeat	Run3	repeat/STIM_013.jpg
2581.677	0.752	1	repeat	Run3	repeat/STIM_014.jpg
2586.174	0.545	1	repeat	Run3	repeat/STIM_014.jpg
2590.193	0.756	1	repeat	Run3	repeat/STIM_014.jpg
2593.698	0.922	1	repeat	Run3	repeat/STIM_014.jpg
2598.194	0.825	1	repeat	Run3	repeat/STIM_014.jpg
2601.083	0.826	1	generate	Run4	generate/STIM_000.jpg
2605.47	1.732	1	generate	Run4	generate/STIM_000.jpg
2610.921	1.204	1	generate	Run4	generate/STIM_000.jpg
2615.248	0.916	1	generate	Run4	generate/STIM_000.jpg
2618.614	1.787	1	generate	Run4	generate/STIM_000.jpg
2623.879	1.05	0	generate	Run4	generate/STIM_001.jpg
2627.054	1.159	1	generate	Run4	generate/STIM_001.jpg
2631.422	0.959	1	generate	Run4	generate/STIM_001.jpg
2635.614	1.607	1	generate	Run4	generate/STIM_001.jpg
2640.606	1.435	1	generate	Run4	generate/STIM_001.jpg
2645.288	1.718	1	generate	Run4	generate/STIM_002.jpg
2649.952	1.51	1	generate	Run4	generate/STIM_002.jpg
2653.519	1.33	1	generate	Run4	generate/STIM_002.jpg
2657.299	0.986	1	generate	Run4	generate/STIM_002.jpg
2660.412	0.924	1	generate	Run4	generate/STIM_002.jpg
2664.044	1.859	1	generate	Run4	generate/STIM_003.jpg
2668.713	1.594	1	generate	Run4	generate/STIM_003.jpg
2674.192	1.477	1	generate	Run4	generate/STIM_003.jpg
2678.197	0.945	1	generate	Run4	generate/STIM_003.jpg
2681.462	1.354	1	generate	Run4	generate/STIM_003.jpg
2686.109	1.647	1	generate	Run4	generate/STIM_004.jpg
2689.904	1.518	1	generate	Run4	generate/STIM_004.jpg
2693.806	1.052	1	generate	Run4	generate/STIM_004.jpg
2697.909	1.509	0	generate	Run4	generate/STIM_004.jpg
2702.964	1.028	1	generate	Run4	generate/STIM_004.jpg
2706.706	0.93	1	generate	Run4	generate/STIM_005.jpg
2710.118	1.816	1	generate	Run4	generate/STIM_005.jpg
2715.853	1.656	1	generate	Run4	generate/STIM_005.jpg
2721.066	1.508	1	generate	Run4	generate/STIM_005.jpg
2725.91	1.841	1	generate	Run4	generate/STIM_005.jpg
2730.378	1.841	1	generate	Run4	generate/STIM_006.jpg
2735.156	1.821	1	generate	Run4	generate/STIM_006.jpg
2740.644	1.317	1	generate	Run4	generate/STIM_006.jpg
2745.564	1.01	1	generate	Run4	generate/STIM_006.jpg
2749.854	1.092	1	generate	Run4	generate/STIM_006.jpg
2753.484	1.776	1	generate	Run4	generate/STIM_007.jpg
2758.4	2.028	1	generate	Run4	generate/STIM_007.jpg
2763.863	1.141	1	generate	Run4	generate/STIM_007.jpg
2767.18	1.043	1	generate	Run4	generate/STIM_007.jpg
2771.221	1.329	1	generate	Run4	generate/STIM_007.jpg
2775.529	1.451	1	generate	Run4	generate/STIM_008.jpg
2781.112	1.957	1	generate	Run4	generate/STIM_008.jpg
2786.372	0.973	1	generate	Run4	generate/STIM_008.jpg
2791.392	1.182	1	generate	Run4	generate/STIM_008.jpg
2796.39	1.385	0	generate	Run4	generate/STIM_008.jpg
2800.675	1.31	1	generate	Run4	generate/STIM_009.jpg
2804.128	1.309	1	generate	Run4	generate/STIM_009.jpg
2808.294	1.54	1	generate	Run4	generate/STIM_009.jpg
2812.312	0.976	1	generate	Run4	generate/STIM_009.jpg
2816.981	1.084	1	generate	Run4	generate/STIM_009.jpg
2820.852	0.906	1	generate	Run4	generate/STIM_010.jpg
2825.083	0.863	1	generate	Run4	generate/STIM_010.jpg
2828.221	0.938	1	generate	Run4	generate/STIM_010.jpg
2831.233	1.825	1	generate	Run4	generate/STIM_010.jpg
2836.461	1.486	1	generate	Run4	generate/STIM_010.jpg
2841.069	1.237	1	generate	Run4	generate/STIM_011.jpg
2844.622	0.868	1	generate	Run4	generate/STIM_011.jpg
2848.932	1.883	1	generate	Run4	generate/STIM_011.jpg
2852.988	1.743	1	generate	Run4	generate/STIM_011.jpg
2857.03	0.764	1	generate	Run4	generate/STIM_011.jpg
2861.712	1.093	1	generate	Run4	generate/STIM_012.jpg
2866.229	1.076	1	generate	Run4	generate/STIM_012.jpg
2870.492	1.133	1	generate	Run4	generate/STIM_012.jpg
2873.736	0.784	1	generate	Run4	generate/STIM_012.jpg
2876.808	0.962	1	generate	Run4	generate/STIM_012.jpg
2880.855	1.352	1	generate	Run4	generate/STIM_013.jpg
2884.831	1.953	1	generate	Run4	generate/STIM_013.jpg
2890.362	1.701	1	generate	Run4	generate/STIM_013.jpg
2895.254	1.248	1	generate	Run4	generate/STIM_013.jpg
2900.002	1.681	1	generate	Run4	generate/STIM_013.jpg
2905.756	1.237	1	generate	Run4	generate/STIM_014.jpg
2910.353	1.429	1	generate	Run4	generate/STIM_014.jpg
2915.661	1.29	1	generate	Run4	generate/STIM_014.jpg
2920.505	1.247	1	generate	Run4	generate/STIM_014.jpg
2924.449	0.896	1	generate	Run4	generate/STIM_014.jpg
2928.211	0.904	1	generate	Run4	generate/STIM_015.jpg
2932.781	0.823	1	generate	Run4	generate/STIM_015.jpg
2937.374	1.78	1	generate	Run4	generate/STIM_015.jpg
2942.585	1.353	1	generate	Run4	generate/STIM_015.jpg
2946.493	1.259	1	generate	Run4	generate/STIM_015.jpg
2950.467	1.439	1	generate	Run4	generate/STIM_016.jpg
2955.715	1.527	0	generate	Run4	generate/STIM_016.jpg
2960.298	1.869	1	generate	Run4	generate/STIM_016.jpg
2965.31	1.168	1	generate	Run4	generate/STIM_016.jpg
2969.892	1.743	1	generate	Run4	generate/STIM_016.jpg
2975.175	1.946	1	generate	Run4	generate/STIM_017.jpg
2979.493	1.02	1	generate	Run4	generate/STIM_017.jpg
2983.278	1.549	1	generate	Run4	generate/STIM_017.jpg
2988.801	1.822	1	generate	Run4	generate/STIM_017.jpg
2993.854	0.962	1	generate	Run4	generate/STIM_017.jpg
2996.884	1.821	1	generate	Run4	generate/STIM_018.jpg
3002.482	1.789	1	generate	Run4	generate/STIM_018.jpg
3008.081	1.32	0	generate	Run4	generate/STIM_018.jpg
3011.687	1.95	1	generate	Run4	generate/STIM_018.jpg
3016.101	1.029	1	generate	Run4	generate/STIM_018.jpg
3019.654	1.312	1	generate	Run4	generate/STIM_019.jpg
3023.258	1.378	1	generate	Run4	generate/STIM_019.jpg
3027.073	0.936	1	generate	Run4	generate/STIM_019.jpg
3031.122	1.718	1	generate	Run4	generate/STIM_019.jpg
3036.659	0.829	1	generate	Run4	generate/STIM_019.jpg
3039.927	1.043	1	generate	Run4	generate/STIM_020.jpg
3043.855	1.714	1	generate	Run4	generate/STIM_020.jpg
3049.084	0.882	1	generate	Run4	generate/STIM_020.jpg
3053.459	1.686	1	generate	Run4	generate/STIM_020.jpg
3057.351	1.145	1	generate	Run4	generate/STIM_020.jpg
3061.014	1.266	1	generate	Run4	generate/STIM_021.jpg
3065.318	0.903	0	generate	Run4	generate/STIM_021.jpg
3069.916	1.232	1	generate	Run4	generate/STIM_021.jpg
3074.89	1.326	1	generate	Run4	generate/STIM_021.jpg
3078.959	1.669	1	generate	Run4	generate/STIM_021.jpg
3083.805	0.94	1	generate	Run4	generate/STIM_022.jpg
3087.069	1.454	1	generate	Run4	generate/STIM_022.jpg
3090.758	1.196	1	generate	Run4	generate/STIM_022.jpg
3095.063	0.736	1	generate	Run4	generate/STIM_022.jpg
3098.408	1.61	1	generate	Run4	generate/STIM_022.jpg
3103.78	1.862	1	generate	Run4	generate/STIM_023.jpg
3109.682	1.853	1	generate	Run4	generate/STIM_023.jpg
3114.982	1.9	1	generate	Run4	generate/STIM_023.jpg
3120.312	0.977	1	generate	Run4	generate/STIM_023.jpg
3123.375	1.357	1	generate	Run4	generate/STIM_023.jpg
3128.033	0.791	1	generate	Run4	generate/STIM_024.jpg
3131.201	1.087	1	generate	Run4	generate/STIM_024.jpg
3134.502	1.353	1	generate	Run4	generate/STIM_024.jpg
3139.268	1.441	1	generate	Run4	generate/STIM_024.jpg
3143.772	1.386	1	generate	Run4	generate/STIM_024.jpg
3148.926	0.568	1	repeat	Run4	repeat/STIM_000.jpg
3151.691	0.799	1	repeat	Run4	repeat/STIM_000.jpg
3154.908	0.846	1	repeat	Run4	repeat/STIM_000.jpg
3158.01	0.676	1	repeat	Run4	repeat/STIM_000.jpg
3162.647	0.524	1	repeat	Run4	repeat/STIM_000.jpg
3166.714	0.598	1	repeat	Run4	repeat/STIM_001.jpg
3170.665	0.582	1	repeat	Run4	repeat/STIM_001.jpg
3174.786	0.774	1	repeat	Run4	repeat/STIM_001.jpg
3178.741	0.467	0	repeat	Run4	repeat/STIM_001.jpg
3182.305	0.568	1	repeat	Run4	repeat/STIM_001.jpg
3186.197	0.702	1	repeat	Run4	repeat/STIM_002.jpg
3190.068	0.556	1	repeat	Run4	repeat/STIM_002.jpg
3192.829	0.668	1	repeat	Run4	repeat/STIM_002.jpg
3196.552	0.525	1	repeat	Run4	repeat/STIM_002.jpg
3200.154	0.445	1	repeat	Run4	repeat/STIM_002.jpg
3203.015	0.477	1	repeat	Run4	repeat/STIM_003.jpg
3206.992	0.609	1	repeat	Run4	repeat/STIM_003.jpg
3209.688	0.716	1	repeat	Run4	repeat/STIM_003.jpg
3213.337	0.541	1	repeat	Run4	repeat/STIM_003.jpg
3216.483	0.843	1	repeat	Run4	repeat/STIM_003.jpg
3220.491	0.665	1	repeat	Run4	repeat/STIM_004.jpg
3223.46	0.724	1	repeat	Run4	repeat/STIM_004.jpg
3227.829	0.831	1	repeat	Run4	repeat/STIM_004.jpg
3232.395	0.741	1	repeat	Run4	repeat/STIM_004.jpg
3236.429	0.755	1	repeat	Run4	repeat/STIM_004.jpg
3240.102	0.724	1	repeat	Run4	repeat/STIM_005.jpg
3244.343	0.584	1	repeat	Run4	repeat/STIM_005.jpg
3248.233	0.616	1	repeat	Run4	repeat/STIM_005.jpg
3251.717	0.656	1	repeat	Run4	repeat/STIM_005.jpg
3255.613	0.844	1	repeat	Run4	repeat/STIM_005.jpg
3259.547	0.631	1	repeat	Run4	repeat/STIM_006.jpg
3263.32	0.498	1	repeat	Run4	repeat/STIM_006.jpg
3266.657	0.628	1	repeat	Run4	repeat/STIM_006.jpg
3269.77	0.912	1	repeat	Run4	repeat/STIM_006.jpg
3273.822	0.52	1	repeat	Run4	repeat/STIM_006.jpg
3277.949	1.018	1	repeat	Run4	repeat/STIM_007.jpg
3282.568	0.462	1	repeat	Run4	repeat/STIM_007.jpg
3286.813	0.564	1	repeat	Run4	repeat/STIM_007.jpg
3289.37	0.862	1	repeat	Run4	repeat/STIM_007.jpg
3293.258	0.647	1	repeat	Run4	repeat/STIM_007.jpg
3297.604	0.705	1	repeat	Run4	repeat/STIM_008.jpg
3301.973	0.871	1	repeat	Run4	repeat/STIM_008.jpg
3305.107	0.468	1	repeat	Run4	repeat/STIM_008.jpg
3307.861	0.525	1	repeat	Run4	repeat/STIM_008.jpg
3311.791	0.558	1	repeat	Run4	repeat/STIM_008.jpg
3314.873	0.811	1	repeat	Run4	repeat/STIM_009.jpg
3319.698	0.472	1	repeat	Run4	repeat/STIM_009.jpg
3322.345	0.902	1	repeat	Run4	repeat/STIM_009.jpg
3326.446	0.782	1	repeat	Run4	repeat/STIM_009.jpg
3330.491	0.68	1	repeat	Run4	repeat/STIM_009.jpg
3335.103	0.789	1	repeat	Run4	repeat/STIM_010.jpg
3338.46	0.71	1	repeat	Run4	repeat/STIM_010.jpg
3342.581	0.638	1	repeat	Run4	repeat/STIM_010.jpg
3346.13	0.735	1	repeat	Run4	repeat/STIM_010.jpg
3349.898	0.481	1	repeat	Run4	repeat/STIM_010.jpg
3353.318	0.624	1	repeat	Run4	repeat/STIM_011.jpg
3357.293	0.833	1	repeat	Run4	repeat/STIM_011.jpg
3361.373	0.8	1	repeat	Run4	repeat/STIM_011.jpg
3364.558	0.692	1	repeat	Run4	repeat/STIM_011.jpg
3367.982	0.646	1	repeat	Run4	repeat/STIM_011.jpg
3372.377	0.672	1	repeat	Run4	repeat/STIM_012.jpg
3376.624	0.921	1	repeat	Run4	repeat/STIM_012.jpg
3379.999	0.763	1	repeat	Run4	repeat/STIM_012.jpg
3383.043	0.495	1	repeat	Run4	repeat/STIM_012.jpg
3387.604	0.59	1	repeat	Run4	repeat/STIM_012.jpg
3390.796	0.85	1	repeat	Run4	repeat/STIM_013.jpg
3394.688	0.777	1	repeat	Run4	repeat/STIM_013.jpg
3398.302	0.938	1	repeat	Run4	repeat/STIM_013.jpg
3402.841	0.997	1	repeat	Run4	repeat/STIM_013.jpg
3407.55	0.462	1	repeat	Run4	repeat/STIM_013.jpg
3411.115	0.569	1	repeat	Run4	repeat/STIM_014.jpg
3414.476	0.514	1	repeat	Run4	repeat/STIM_014.jpg
3417.358	0.687	1	repeat	Run4	repeat/STIM_014.jpg
3420.736	0.846	1	repeat	Run4	repeat/STIM_014.jpg
3424.177	0.896	1	repeat	Run4	repeat/STIM_014.jpg
