onset	duration	response_time_ms	trial_type	learning_stage	stimulus	response_port
0.0	1.528	1527.6	study	Phase1	study/STIM_000.jpg	100
4.804	1.09	1090.3	study	Phase1	study/STIM_000.jpg	99
9.244	0.793	792.9	study	Phase1	study/STIM_000.jpg	99
13.722	0.948	948.1	study	Phase1	study/STIM_001.jpg	100
18.343	1.324	1323.9	study	Phase1	study/STIM_001.jpg	99
22.645	1.481	1481.1	study	Phase1	study/STIM_001.jpg	100
26.809	1.291	1290.8	study	Phase1	study/STIM_002.jpg	100
31.676	0.9	899.9	study	Phase1	study/STIM_002.jpg	99
34.876	1.183	1182.6	study	Phase1	study/STIM_002.jpg	100
38.94	0.785	785.0	study	Phase1	study/STIM_003.jpg	99
42.821	1.167	1167.4	study	Phase1	study/STIM_003.jpg	100
47.851	1.012	1012.5	study	Phase1	study/STIM_003.jpg	100
52.788	1.671	1671.4	study	Phase1	study/STIM_004.jpg	99
56.496	1.339	1338.9	study	Phase1	study/STIM_004.jpg	99
60.689	1.509	1508.7	study	Phase1	study/STIM_004.jpg	100
65.608	1.06	1059.8	study	Phase1	study/STIM_005.jpg	99
69.149	1.121	1120.6	study	Phase1	study/STIM_005.jpg	100
73.299	1.012	1012.4	study	Phase1	study/STIM_005.jpg	99
76.819	1.707	1707.3	study	Phase1	study/STIM_006.jpg	99
81.179	1.197	1196.9	study	Phase1	study/STIM_006.jpg	100
84.987	0.718	718.3	study	Phase1	study/STIM_006.jpg	99
87.86	1.555	1555.0	study	Phase1	study/STIM_007.jpg	99
93.237	1.205	1205.2	study	Phase1	study/STIM_007.jpg	99
97.478	1.505	1504.8	study	Phase1	study/STIM_007.jpg	99
101.899	1.467	1466.6	study	Phase1	study/STIM_008.jpg	100
105.833	0.775	775.4	study	Phase1	study/STIM_008.jpg	99
110.238	1.018	1018.0	study	Phase1	study/STIM_008.jpg	100
114.307	1.63	1629.8	study	Phase1	study/STIM_009.jpg	99
118.373	0.945	945.2	study	Phase1	study/STIM_009.jpg	100
121.486	1.181	1181.1	study	Phase1	study/STIM_009.jpg	100
126.274	1.317	1317.0	study	Phase1	study/STIM_010.jpg	100
130.746	1.486	1485.7	study	Phase1	study/STIM_010.jpg	99
134.617	1.468	1467.7	study	Phase1	study/STIM_010.jpg	99
139.193	0.991	990.9	study	Phase1	study/STIM_011.jpg	99
143.096	1.503	1503.0	study	Phase1	study/STIM_011.jpg	99
147.071	1.155	1154.9	study	Phase1	study/STIM_011.jpg	100
151.272	1.211	1211.3	study	Phase1	study/STIM_012.jpg	100
155.64	1.621	1620.6	study	Phase1	study/STIM_012.jpg	100
160.682	1.003	1003.0	study	Phase1	study/STIM_012.jpg	99
164.793	1.324	1324.3	study	Phase1	study/STIM_013.jpg	99
168.591	1.283	1282.6	study	Phase1	study/STIM_013.jpg	99
173.725	0.725	725.4	study	Phase1	study/STIM_013.jpg	99
176.977	1.601	1600.9	study	Phase1	study/STIM_014.jpg	99
181.138	1.372	1371.6	study	Phase1	study/STIM_014.jpg	99
185.315	0.733	733.0	study	Phase1	study/STIM_014.jpg	100
189.454	1.323	1322.6	study	Phase1	study/STIM_015.jpg	99
194.417	1.054	1054.4	study	Phase1	study/STIM_015.jpg	99
199.156	0.833	832.8	study	Phase1	study/STIM_015.jpg	99
202.142	1.187	1187.4	study	Phase1	study/STIM_016.jpg	100
205.566	0.849	849.0	study	Phase1	study/STIM_016.jpg	99
209.998	0.935	934.7	study	Phase1	study/STIM_016.jpg	100
213.377	0.838	837.7	study	Phase1	study/STIM_017.jpg	99
217.804	0.755	755.4	study	Phase1	study/STIM_017.jpg	99
220.963	1.543	1542.6	study	Phase1	study/STIM_017.jpg	99
224.996	1.069	1068.6	study	Phase1	study/STIM_018.jpg	100
228.505	0.972	971.8	study	Phase1	study/STIM_018.jpg	99
232.787	0.89	890.3	study	Phase1	study/STIM_018.jpg	99
237.212	1.261	1260.8	study	Phase1	study/STIM_019.jpg	99
241.27	1.1	1100.4	study	Phase1	study/STIM_019.jpg	99
246.097	0.736	736.0	study	Phase1	study/STIM_019.jpg	100
250.379	0.892	891.9	study	Phase1	study/STIM_020.jpg	100
255.164	1.079	1078.8	study	Phase1	study/STIM_020.jpg	99
258.572	1.303	1302.8	study	Phase1	study/STIM_020.jpg	100
263.345	1.068	1067.8	study	Phase1	study/STIM_021.jpg	100
266.566	1.376	1376.3	study	Phase1	study/STIM_021.jpg	100
269.977	1.232	1231.7	study	Phase1	study/STIM_021.jpg	99
273.288	1.289	1288.6	study	Phase1	study/STIM_022.jpg	100
277.653	1.41	1409.6	study	Phase1	study/STIM_022.jpg	100
281.746	1.076	1076.2	study	Phase1	study/STIM_022.jpg	99
286.265	1.587	1587.3	study	Phase1	study/STIM_023.jpg	99
290.738	1.264	1263.7	study	Phase1	study/STIM_023.jpg	99
295.473	1.286	1286.3	study	Phase1	study/STIM_023.jpg	100
299.894	1.515	1515.2	study	Phase1	study/STIM_024.jpg	100
305.08	1.294	1294.5	study	Phase1	study/STIM_024.jpg	100
308.664	1.412	1411.7	study	Phase1	study/STIM_024.jpg	99
312.705	1.216	1216.0	study	Phase1	study/STIM_025.jpg	99
316.596	1.203	1202.9	study	Phase1	study/STIM_025.jpg	99
319.955	0.932	932.5	study	Phase1	study/STIM_025.jpg	100
324.342	1.485	1485.2	study	Phase1	study/STIM_026.jpg	100
328.989	1.142	1142.3	study	Phase1	study/STIM_026.jpg	99
333.474	1.385	1385.4	study	Phase1	study/STIM_026.jpg	100
337.883	0.96	960.2	study	Phase1	study/STIM_027.jpg	99
341.37	1.505	1504.6	study	Phase1	study/STIM_027.jpg	99
345.346	0.759	759.3	study	Phase1	study/STIM_027.jpg	99
349.347	0.87	869.7	study	Phase1	study/STIM_028.jpg	100
353.256	0.871	871.3	study	Phase1	study/STIM_028.jpg	99
357.808	0.955	954.8	study	Phase1	study/STIM_028.jpg	99
361.061	1.446	1446.0	study	Phase1	study/STIM_029.jpg	99
366.18	1.27	1270.0	study	Phase1	study/STIM_029.jpg	99
370.561	1.073	1072.9	study	Phase1	study/STIM_029.jpg	100
374.981	1.141	1141.4	test	Phase1	test/STIM_000.jpg	100
378.671	0.696	696.1	test	Phase1	test/STIM_000.jpg	100
381.375	1.062	1062.3	test	Phase1	test/STIM_000.jpg	99
384.811	1.168	1168.4	test	Phase1	test/STIM_001.jpg	100
389.214	1.077	1076.6	test	Phase1	test/STIM_001.jpg	100
393.076	0.752	751.6	test	Phase1	test/STIM_001.jpg	99
397.624	1.2	1199.5	test	Phase1	test/STIM_002.jpg	100
402.353	1.201	1200.6	test	Phase1	test/STIM_002.jpg	100
406.086	1.165	1165.1	test	Phase1	test/STIM_002.jpg	99
410.29	0.671	671.2	test	Phase1	test/STIM_003.jpg	100
413.597	0.731	730.8	test	Phase1	test/STIM_003.jpg	100
416.38	0.723	722.9	test	Phase1	test/STIM_003.jpg	99
420.881	0.883	883.3	test	Phase1	test/STIM_004.jpg	99
424.744	1.017	1017.3	test	Phase1	test/STIM_004.jpg	100
429.374	1.119	1119.3	test	Phase1	test/STIM_004.jpg	100
434.311	1.188	1188.3	test	Phase1	test/STIM_005.jpg	100
439.086	1.207	1206.9	test	Phase1	test/STIM_005.jpg	99
444.201	0.677	677.0	test	Phase1	test/STIM_005.jpg	100
447.333	0.968	967.8	test	Phase1	test/STIM_006.jpg	100
452.173	0.773	773.3	test	Phase1	test/STIM_006.jpg	99
455.235	0.96	959.8	test	Phase1	test/STIM_006.jpg	99
459.084	0.635	634.6	test	Phase1	test/STIM_007.jpg	99
462.425	1.023	1022.6	test	Phase1	test/STIM_007.jpg	99
466.72	0.747	747.0	test	Phase1	test/STIM_007.jpg	100
469.608	0.976	976.4	test	Phase1	test/STIM_008.jpg	99
473.381	1.187	1186.7	test	Phase1	test/STIM_008.jpg	100
477.869	0.88	880.2	test	Phase1	test/STIM_008.jpg	100
482.235	0.668	667.9	test	Phase1	test/STIM_009.jpg	99
486.177	0.704	704.3	test	Phase1	test/STIM_009.jpg	99
489.368	1.155	1155.3	test	Phase1	test/STIM_009.jpg	99
492.958	1.231	1231.4	test	Phase1	test/STIM_010.jpg	100
497.269	0.62	620.1	test	Phase1	test/STIM_010.jpg	99
500.136	0.696	696.0	test	Phase1	test/STIM_010.jpg	100
503.104	1.203	1202.7	test	Phase1	test/STIM_011.jpg	99
508.026	0.915	914.9	test	Phase1	test/STIM_011.jpg	100
511.995	1.176	1176.3	test	Phase1	test/STIM_011.jpg	99
515.883	1.046	1045.6	test	Phase1	test/STIM_012.jpg	100
519.927	0.742	742.2	test	Phase1	test/STIM_012.jpg	100
523.597	1.212	1212.3	test	Phase1	test/STIM_012.jpg	100
527.574	0.914	913.8	test	Phase1	test/STIM_013.jpg	99
530.653	1.118	1118.5	test	Phase1	test/STIM_013.jpg	99
534.329	0.736	735.7	test	Phase1	test/STIM_013.jpg	99
537.525	0.899	899.3	test	Phase1	test/STIM_014.jpg	99
541.057	1.074	1073.7	test	Phase1	test/STIM_014.jpg	100
545.777	0.902	901.6	test	Phase1	test/STIM_014.jpg	99
549.467	0.834	834.0	test	Phase1	test/STIM_015.jpg	100
553.225	1.156	1155.7	test	Phase1	test/STIM_015.jpg	100
556.726	1.22	1220.3	test	Phase1	test/STIM_015.jpg	99
560.391	1.23	1229.7	test	Phase1	test/STIM_016.jpg	99
563.968	1.15	1150.5	test	Phase1	test/STIM_016.jpg	100
567.512	1.052	1052.5	test	Phase1	test/STIM_016.jpg	100
570.734	0.884	884.2	test	Phase1	test/STIM_017.jpg	100
574.94	0.743	743.2	test	Phase1	test/STIM_017.jpg	100
579.167	1.045	1045.0	test	Phase1	test/STIM_017.jpg	99
582.326	1.135	1134.6	test	Phase1	test/STIM_018.jpg	99
587.22	0.633	633.1	test	Phase1	test/STIM_018.jpg	100
590.172	1.049	1048.9	test	Phase1	test/STIM_018.jpg	99
593.747	1.076	1076.2	test	Phase1	test/STIM_019.jpg	100
598.644	0.64	640.3	test	Phase1	test/STIM_019.jpg	99
603.228	0.623	622.7	test	Phase1	test/STIM_019.jpg	99
607.758	0.718	718.5	test	Phase1	test/STIM_020.jpg	100
611.075	1.237	1236.9	test	Phase1	test/STIM_020.jpg	99
615.425	0.984	983.6	test	Phase1	test/STIM_020.jpg	99
618.857	0.911	911.4	test	Phase1	test/STIM_021.jpg	100
622.585	0.816	815.5	test	Phase1	test/STIM_021.jpg	99
626.703	1.107	1107.2	test	Phase1	test/STIM_021.jpg	99
629.812	1.239	1238.7	test	Phase1	test/STIM_022.jpg	99
633.966	0.851	850.8	test	Phase1	test/STIM_022.jpg	99
637.355	1.008	1007.8	test	Phase1	test/STIM_022.jpg	99
640.496	1.127	1127.4	test	Phase1	test/STIM_023.jpg	100
645.341	0.686	686.5	test	Phase1	test/STIM_023.jpg	100
649.045	1.018	1018.5	test	Phase1	test/STIM_023.jpg	99
653.469	1.168	1167.8	test	Phase1	test/STIM_024.jpg	100
658.113	0.622	622.0	test	Phase1	test/STIM_024.jpg	100
662.321	0.718	717.5	test	Phase1	test/STIM_024.jpg	99
665.195	0.751	751.3	test	Phase1	test/STIM_025.jpg	99
668.724	0.74	740.0	test	Phase1	test/STIM_025.jpg	99
672.509	0.673	672.7	test	Phase1	test/STIM_025.jpg	99
677.064	1.048	1047.9	test	Phase1	test/STIM_026.jpg	99
681.023	0.601	600.7	test	Phase1	test/STIM_026.jpg	99
683.813	1.232	1232.1	test	Phase1	test/STIM_026.jpg	100
688.363	1.166	1166.2	test	Phase1	test/STIM_027.jpg	99
692.389	0.714	714.2	test	Phase1	test/STIM_027.jpg	99
695.782	1.016	1016.5	test	Phase1	test/STIM_027.jpg	100
700.277	1.064	1063.6	test	Phase1	test/STIM_028.jpg	99
703.544	0.643	642.9	test	Phase1	test/STIM_028.jpg	100
706.306	0.809	809.3	test	Phase1	test/STIM_028.jpg	100
710.181	0.66	659.5	test	Phase1	test/STIM_029.jpg	99
713.049	0.842	842.5	test	Phase1	test/STIM_029.jpg	100
717.311	1.015	1015.0	test	Phase1	test/STIM_029.jpg	100
722.223	0.666	666.2	study	Phase2	study/STIM_000.jpg	100
725.045	0.866	865.8	study	Phase2	study/STIM_000.jpg	100
728.443	0.726	726.1	study	Phase2	study/STIM_000.jpg	100
731.205	1.474	1474.1	study	Phase2	study/STIM_001.jpg	99
734.947	0.774	774.1	study	Phase2	study/STIM_001.jpg	99
738.339	0.596	595.7	study	Phase2	study/STIM_001.jpg	99
742.281	0.84	839.8	study	Phase2	study/STIM_002.jpg	100
745.674	1.037	1036.6	study	Phase2	study/STIM_002.jpg	100
750.092	0.841	841.1	study	Phase2	study/STIM_002.jpg	99
753.002	0.807	807.1	study	Phase2	study/STIM_003.jpg	99
756.394	1.189	1189.2	study	Phase2	study/STIM_003.jpg	100
760.131	1.214	1214.4	study	Phase2	study/STIM_003.jpg	100
763.751	1.096	1096.2	study	Phase2	study/STIM_004.jpg	100
767.412	1.29	1289.8	study	Phase2	study/STIM_004.jpg	100
771.539	1.03	1029.8	study	Phase2	study/STIM_004.jpg	100
775.977	0.942	941.6	study	Phase2	study/STIM_005.jpg	100
780.755	0.669	669.3	study	Phase2	study/STIM_005.jpg	100
785.129	1.029	1028.7	study	Phase2	study/STIM_005.jpg	99
789.69	0.753	753.4	study	Phase2	study/STIM_006.jpg	99
793.409	0.854	853.9	study	Phase2	study/STIM_006.jpg	100
796.611	0.981	981.3	study	Phase2	study/STIM_006.jpg	99
800.073	1.22	1220.2	study	Phase2	study/STIM_007.jpg	100
804.994	0.691	691.3	study	Phase2	study/STIM_007.jpg	100
808.561	0.816	815.6	study	Phase2	study/STIM_007.jpg	100
811.776	1.017	1016.8	study	Phase2	study/STIM_008.jpg	99
815.388	0.696	695.6	study	Phase2	study/STIM_008.jpg	100
819.872	1.048	1048.1	study	Phase2	study/STIM_008.jpg	99
824.176	1.467	1466.8	study	Phase2	study/STIM_009.jpg	99
827.974	1.264	1264.5	study	Phase2	study/STIM_009.jpg	99
833.073	0.622	621.7	study	Phase2	study/STIM_009.jpg	100
836.787	1.112	1112.5	study	Phase2	study/STIM_010.jpg	100
841.471	0.957	957.4	study	Phase2	study/STIM_010.jpg	100
846.349	0.926	926.3	study	Phase2	study/STIM_010.jpg	100
849.553	1.28	1280.3	study	Phase2	study/STIM_011.jpg	100
853.856	0.734	733.5	study	Phase2	study/STIM_011.jpg	99
857.942	1.214	1214.5	study	Phase2	study/STIM_011.jpg	100
862.078	1.097	1097.3	study	Phase2	study/STIM_012.jpg	99
865.279	1.275	1274.6	study	Phase2	study/STIM_012.jpg	100
870.06	1.153	1152.8	study	Phase2	study/STIM_012.jpg	99
873.43	0.798	798.0	study	Phase2	study/STIM_013.jpg	100
877.023	0.638	638.2	study	Phase2	study/STIM_013.jpg	100
880.122	0.59	589.9	study	Phase2	study/STIM_013.jpg	99
883.138	0.972	971.8	study	Phase2	study/STIM_014.jpg	100
887.352	1.131	1131.2	study	Phase2	study/STIM_014.jpg	99
890.71	0.66	660.3	study	Phase2	study/STIM_014.jpg	99
893.689	1.275	1275.2	study	Phase2	study/STIM_015.jpg	99
897.914	0.928	927.5	study	Phase2	study/STIM_015.jpg	99
902.184	1.214	1213.8	study	Phase2	study/STIM_015.jpg	100
906.113	0.689	688.6	study	Phase2	study/STIM_016.jpg	100
909.322	1.265	1265.2	study	Phase2	study/STIM_016.jpg	100
914.251	0.646	645.8	study	Phase2	study/STIM_016.jpg	99
917.505	1.284	1283.8	study	Phase2	study/STIM_017.jpg	99
921.086	1.015	1015.3	study	Phase2	study/STIM_017.jpg	99
924.308	0.821	820.6	study	Phase2	study/STIM_017.jpg	99
927.851	1.293	1293.3	study	Phase2	study/STIM_018.jpg	99
932.396	1.315	1315.1	study	Phase2	study/STIM_018.jpg	99
935.81	1.05	1049.9	study	Phase2	study/STIM_018.jpg	100
939.813	1.021	1020.9	study	Phase2	study/STIM_019.jpg	100
943.666	0.63	629.6	study	Phase2	study/STIM_019.jpg	99
946.803	1.033	1033.1	study	Phase2	study/STIM_019.jpg	99
950.862	0.87	869.9	study	Phase2	study/STIM_020.jpg	99
954.224	1.361	1360.6	study	Phase2	study/STIM_020.jpg	99
959.125	1.133	1132.9	study	Phase2	study/STIM_020.jpg	99
963.322	0.711	710.8	study	Phase2	study/STIM_021.jpg	100
966.748	0.908	907.8	study	Phase2	study/STIM_021.jpg	99
971.508	0.934	933.8	study	Phase2	study/STIM_021.jpg	100
974.552	0.954	954.5	study	Phase2	study/STIM_022.jpg	99
977.582	1.133	1132.6	study	Phase2	study/STIM_022.jpg	99
981.408	1.306	1306.4	study	Phase2	study/STIM_022.jpg	99
985.237	0.927	926.9	study	Phase2	study/STIM_023.jpg	100
988.736	1.194	1193.7	study	Phase2	study/STIM_023.jpg	100
992.874	1.289	1289.1	study	Phase2	study/STIM_023.jpg	99
997.881	1.27	1269.5	study	Phase2	study/STIM_024.jpg	100
1001.52	1.078	1077.8	study	Phase2	study/STIM_024.jpg	99
1005.559	0.834	834.1	study	Phase2	study/STIM_024.jpg	99
1009.587	1.197	1197.2	study	Phase2	study/STIM_025.jpg	100
1013.217	1.046	1046.0	study	Phase2	study/STIM_025.jpg	99
1017.453	0.601	601.0	study	Phase2	study/STIM_025.jpg	99
1021.722	1.4	1399.5	study	Phase2	study/STIM_026.jpg	100
1026.914	0.829	828.6	study	Phase2	study/STIM_026.jpg	100
1030.968	1.286	1285.5	study	Phase2	study/STIM_026.jpg	99
1034.5	1.261	1261.1	study	Phase2	study/STIM_027.jpg	100
1038.053	0.706	705.5	study	Phase2	study/STIM_027.jpg	100
1042.199	1.024	1024.4	study	Phase2	study/STIM_027.jpg	100
1046.842	1.141	1141.1	study	Phase2	study/STIM_028.jpg	100
1051.654	1.008	1008.0	study	Phase2	study/STIM_028.jpg	99
1055.863	1.106	1105.5	study	Phase2	study/STIM_028.jpg	100
1060.949	1.292	1292.3	study	Phase2	study/STIM_029.jpg	99
1065.306	1.095	1095.0	study	Phase2	study/STIM_029.jpg	99
1069.13	0.652	652.4	study	Phase2	study/STIM_029.jpg	99
1072.448	1.047	1047.3	test	Phase2	test/STIM_000.jpg	99
1077.47	1.101	1101.0	test	Phase2	test/STIM_000.jpg	100
1081.216	0.797	797.0	test	Phase2	test/STIM_000.jpg	99
1085.562	0.63	630.0	test	Phase2	test/STIM_001.jpg	100
1089.475	0.598	597.5	test	Phase2	test/STIM_001.jpg	99
1093.955	0.619	619.2	test	Phase2	test/STIM_001.jpg	100
1096.781	0.84	839.6	test	Phase2	test/STIM_002.jpg	99
1101.532	1.135	1134.8	test	Phase2	test/STIM_002.jpg	100
1105.952	1.043	1043.1	test	Phase2	test/STIM_002.jpg	99
1109.703	1.029	1029.4	test	Phase2	test/STIM_003.jpg	99
1113.712	1.16	1159.6	test	Phase2	test/STIM_003.jpg	100
1118.602	1.098	1097.8	test	Phase2	test/STIM_003.jpg	99
1122.454	1.036	1035.8	test	Phase2	test/STIM_004.jpg	99
1127.478	1.005	1004.7	test	Phase2	test/STIM_004.jpg	100
1132.409	0.783	783.3	test	Phase2	test/STIM_004.jpg	99
1136.176	1.069	1069.4	test	Phase2	test/STIM_005.jpg	99
1140.365	0.724	724.5	test	Phase2	test/STIM_005.jpg	100
1143.413	0.894	894.4	test	Phase2	test/STIM_005.jpg	99
1146.832	1.007	1006.8	test	Phase2	test/STIM_006.jpg	100
1150.882	1.056	1056.3	test	Phase2	test/STIM_006.jpg	99
1155.658	0.832	831.8	test	Phase2	test/STIM_006.jpg	100
1159.382	1.237	1237.0	test	Phase2	test/STIM_007.jpg	100
1163.873	1.154	1154.0	test	Phase2	test/STIM_007.jpg	99
1167.697	0.664	663.7	test	Phase2	test/STIM_007.jpg	99
1171.933	0.802	801.5	test	Phase2	test/STIM_008.jpg	99
1174.934	0.882	881.5	test	Phase2	test/STIM_008.jpg	99
1178.366	1.224	1223.8	test	Phase2	test/STIM_008.jpg	99
1183.123	0.924	924.4	test	Phase2	test/STIM_009.jpg	99
1187.619	0.769	769.3	test	Phase2	test/STIM_009.jpg	100
1192.155	0.744	743.6	test	Phase2	test/STIM_009.jpg	99
1196.737	1.239	1238.7	test	Phase2	test/STIM_010.jpg	99
1201.876	0.681	681.3	test	Phase2	test/STIM_010.jpg	100
1205.36	1.107	1106.8	test	Phase2	test/STIM_010.jpg	100
1208.912	0.913	913.2	test	Phase2	test/STIM_011.jpg	99
1212.531	1.008	1007.6	test	Phase2	test/STIM_011.jpg	99
1216.54	0.894	893.7	test	Phase2	test/STIM_011.jpg	100
1220.171	0.956	956.3	test	Phase2	test/STIM_012.jpg	99
1223.762	1.014	1013.6	test	Phase2	test/STIM_012.jpg	100
1227.362	0.669	669.0	test	Phase2	test/STIM_012.jpg	99
1231.245	0.968	968.0	test	Phase2	test/STIM_013.jpg	99
1235.033	1.172	1171.6	test	Phase2	test/STIM_013.jpg	99
1239.768	0.618	618.5	test	Phase2	test/STIM_013.jpg	99
1244.035	0.999	998.9	test	Phase2	test/STIM_014.jpg	99
1248.803	0.714	713.6	test	Phase2	test/STIM_014.jpg	99
1251.661	0.955	955.4	test	Phase2	test/STIM_014.jpg	100
1256.57	1.203	1202.7	test	Phase2	test/STIM_015.jpg	99
1261.48	0.751	750.7	test	Phase2	test/STIM_015.jpg	100
1265.888	1.055	1055.4	test	Phase2	test/STIM_015.jpg	99
1270.014	0.786	785.8	test	Phase2	test/STIM_016.jpg	99
1273.072	1.105	1105.0	test	Phase2	test/STIM_016.jpg	100
1276.281	1.129	1129.4	test	Phase2	test/STIM_016.jpg	99
1279.478	0.987	987.2	test	Phase2	test/STIM_017.jpg	100
1283.601	0.99	989.5	test	Phase2	test/STIM_017.jpg	100
1288.386	1.021	1021.3	test	Phase2	test/STIM_017.jpg	99
1291.791	1.165	1164.7	test	Phase2	test/STIM_018.jpg	100
1294.969	0.625	625.1	test	Phase2	test/STIM_018.jpg	100
1299.221	1.254	1254.0	test	Phase2	test/STIM_018.jpg	100
1302.808	1.179	1179.0	test	Phase2	test/STIM_019.jpg	100
1307.684	0.711	710.8	test	Phase2	test/STIM_019.jpg	99
1311.648	1.051	1050.8	test	Phase2	test/STIM_019.jpg	100
1314.725	1.244	1243.9	test	Phase2	test/STIM_020.jpg	99
1318.358	1.111	1111.4	test	Phase2	test/STIM_020.jpg	100
1321.799	0.858	858.4	test	Phase2	test/STIM_020.jpg	99
1325.493	0.795	794.7	test	Phase2	test/STIM_021.jpg	100
1328.301	1.051	1051.3	test	Phase2	test/STIM_021.jpg	99
1331.654	1.173	1172.6	test	Phase2	test/STIM_021.jpg	100
1335.668	1.254	1254.3	test	Phase2	test/STIM_022.jpg	100
1339.641	0.826	825.9	test	Phase2	test/STIM_022.jpg	100
1343.192	1.255	1254.9	test	Phase2	test/STIM_022.jpg	100
1347.337	0.732	732.0	test	Phase2	test/STIM_023.jpg	100
1351.734	0.783	782.6	test	Phase2	test/STIM_023.jpg	100
1355.42	1.056	1055.6	test	Phase2	test/STIM_023.jpg	99
1358.771	0.71	710.3	test	Phase2	test/STIM_024.jpg	99
1363.15	0.935	935.4	test	Phase2	test/STIM_024.jpg	99
1366.488	1.035	1034.9	test	Phase2	test/STIM_024.jpg	100
1369.923	0.627	626.8	test	Phase2	test/STIM_025.jpg	100
1374.182	1.055	1055.3	test	Phase2	test/STIM_025.jpg	99
1378.544	1.269	1269.3	test	Phase2	test/STIM_025.jpg	99
1382.87	0.956	956.3	test	Phase2	test/STIM_026.jpg	99
1387.202	1.165	1165.1	test	Phase2	test/STIM_026.jpg	100
1390.818	0.838	837.8	test	Phase2	test/STIM_026.jpg	99
1395.642	0.634	633.8	test	Phase2	test/STIM_027.jpg	100
1399.825	0.718	718.5	test	Phase2	test/STIM_027.jpg	99
1404.532	1.026	1025.5	test	Phase2	test/STIM_027.jpg	100
1409.223	1.115	1115.2	test	Phase2	test/STIM_028.jpg	99
1412.572	1.019	1019.3	test	Phase2	test/STIM_028.jpg	100
1415.705	0.613	613.2	test	Phase2	test/STIM_028.jpg	100
1419.183	1.235	1234.6	test	Phase2	test/STIM_029.jpg	99
1423.86	0.934	934.1	test	Phase2	test/STIM_029.jpg	99
1427.428	0.602	602.5	test	Phase2	test/STIM_029.jpg	99
1430.231	0.571	571.4	study	Phase3	study/STIM_000.jpg	99
1433.757	0.996	995.9	study	Phase3	study/STIM_000.jpg	99
1437.771	1.032	1032.4	study	Phase3	study/STIM_000.jpg	100
1441.091	1.185	1185.4	study	Phase3	study/STIM_001.jpg	100
1444.456	1.114	1113.9	study	Phase3	study/STIM_001.jpg	99
1448.754	0.638	638.5	study	Phase3	study/STIM_001.jpg	99
1451.8	0.576	576.5	study	Phase3	study/STIM_002.jpg	100
1455.777	1.089	1089.3	study	Phase3	study/STIM_002.jpg	99
1459.497	0.659	659.1	study	Phase3	study/STIM_002.jpg	100
1462.596	1.221	1221.4	study	Phase3	study/STIM_003.jpg	99
1467.012	1.042	1041.5	study	Phase3	study/STIM_003.jpg	100
1471.54	0.785	784.8	study	Phase3	study/STIM_003.jpg	100
1476.096	1.194	1194.1	study	Phase3	study/STIM_004.jpg	100
1480.825	1.057	1057.4	study	Phase3	study/STIM_004.jpg	100
1484.274	0.95	950.5	study	Phase3	study/STIM_004.jpg	99
1487.285	1.121	1121.4	study	Phase3	study/STIM_005.jpg	100
1490.44	0.734	734.4	study	Phase3	study/STIM_005.jpg	100
1495.053	1.126	1125.6	study	Phase3	study/STIM_005.jpg	100
1498.749	0.76	760.0	study	Phase3	study/STIM_006.jpg	99
1503.118	0.798	797.9	study	Phase3	study/STIM_006.jpg	99
1507.407	1.127	1126.7	study	Phase3	study/STIM_006.jpg	100
1512.263	0.74	740.4	study	Phase3	study/STIM_007.jpg	99
1515.807	1.183	1183.4	study	Phase3	study/STIM_007.jpg	100
1520.565	1.186	1185.5	study	Phase3	study/STIM_007.jpg	99
1525.329	1.154	1154.4	study	Phase3	study/STIM_008.jpg	99
1528.732	1.189	1188.8	study	Phase3	study/STIM_008.jpg	100
1532.89	0.768	768.4	study	Phase3	study/STIM_008.jpg	99
1537.637	0.579	579.0	study	Phase3	study/STIM_009.jpg	99
1540.265	0.726	726.5	study	Phase3	study/STIM_009.jpg	99
1543.542	0.966	965.8	study	Phase3	study/STIM_009.jpg	100
1548.257	1.12	1120.2	study	Phase3	study/STIM_010.jpg	99
1551.921	1.087	1086.9	study	Phase3	study/STIM_010.jpg	100
1555.59	0.841	841.3	study	Phase3	study/STIM_010.jpg	99
1559.483	0.86	859.9	study	Phase3	study/STIM_011.jpg	100
1563.213	1.227	1226.9	study	Phase3	study/STIM_011.jpg	100
1567.827	0.894	894.0	study	Phase3	study/STIM_011.jpg	99
1572.218	1.194	1194.2	study	Phase3	study/STIM_012.jpg	100
1577.308	0.576	576.1	study	Phase3	study/STIM_012.jpg	100
1581.234	0.876	876.5	study	Phase3	study/STIM_012.jpg	99
1584.392	0.876	876.4	study	Phase3	study/STIM_013.jpg	99
1588.783	1.089	1089.3	study	Phase3	study/STIM_013.jpg	99
1592.549	0.894	894.3	study	Phase3	study/STIM_013.jpg	100
1596.726	1.086	1086.1	study	Phase3	study/STIM_014.jpg	99
1601.011	0.942	941.6	study	Phase3	study/STIM_014.jpg	100
1605.943	0.89	889.8	study	Phase3	study/STIM_014.jpg	99
1609.214	1.06	1060.3	study	Phase3	study/STIM_015.jpg	99
1612.41	0.679	679.2	study	Phase3	study/STIM_015.jpg	99
1617.083	1.103	1102.9	study	Phase3	study/STIM_015.jpg	99
1621.473	0.873	872.6	study	Phase3	study/STIM_016.jpg	100
1625.578	0.91	910.3	study	Phase3	study/STIM_016.jpg	99
1628.615	0.631	630.6	study	Phase3	study/STIM_016.jpg	100
1631.963	0.839	838.6	study	Phase3	study/STIM_017.jpg	99
1636.224	0.67	669.9	study	Phase3	study/STIM_017.jpg	100
1639.835	0.781	780.7	study	Phase3	study/STIM_017.jpg	99
1643.326	0.976	976.1	study	Phase3	study/STIM_018.jpg	99
1647.766	0.94	940.1	study	Phase3	study/STIM_018.jpg	100
1651.757	1.206	1206.1	study	Phase3	study/STIM_018.jpg	99
1656.57	0.662	661.9	study	Phase3	study/STIM_019.jpg	99
1660.527	0.875	874.8	study	Phase3	study/STIM_019.jpg	99
1664.355	0.875	875.1	study	Phase3	study/STIM_019.jpg	100
1669.022	0.86	859.8	study	Phase3	study/STIM_020.jpg	100
1672.339	0.638	637.8	study	Phase3	study/STIM_020.jpg	100
1675.627	0.943	943.0	study	Phase3	study/STIM_020.jpg	99
1680.481	0.757	757.0	study	Phase3	study/STIM_021.jpg	100
1683.349	0.734	734.5	study	Phase3	study/STIM_021.jpg	100
1687.288	0.615	614.9	study	Phase3	study/STIM_021.jpg	99
1689.987	1.079	1079.1	study	Phase3	study/STIM_022.jpg	100
1694.204	0.863	862.8	study	Phase3	study/STIM_022.jpg	99
1698.399	0.829	828.7	study	Phase3	study/STIM_022.jpg	99
1702.046	1.112	1111.6	study	Phase3	study/STIM_023.jpg	99
1707.111	1.085	1085.1	study	Phase3	study/STIM_023.jpg	99
1711.762	0.85	850.5	study	Phase3	study/STIM_023.jpg	100
1715.874	0.702	702.2	study	Phase3	study/STIM_024.jpg	99
1719.574	0.947	946.7	study	Phase3	study/STIM_024.jpg	100
1723.78	0.651	650.9	study	Phase3	study/STIM_024.jpg	99
1727.232	1.045	1044.7	study	Phase3	study/STIM_025.jpg	99
1730.754	0.921	921.1	study	Phase3	study/STIM_025.jpg	100
1733.761	0.575	575.1	study	Phase3	study/STIM_025.jpg	100
1736.425	0.961	960.6	study	Phase3	study/STIM_026.jpg	99
1740.815	0.883	882.7	study	Phase3	study/STIM_026.jpg	100
1744.905	0.776	776.5	study	Phase3	study/STIM_026.jpg	99
1749.161	0.809	809.0	study	Phase3	study/STIM_027.jpg	99
1752.047	0.934	933.6	study	Phase3	study/STIM_027.jpg	99
1756.478	0.875	875.0	study	Phase3	study/STIM_027.jpg	100
1760.049	1.059	1059.2	study	Phase3	study/STIM_028.jpg	100
1764.834	0.789	788.6	study	Phase3	study/STIM_028.jpg	100
1769.231	0.66	660.0	study	Phase3	study/STIM_028.jpg	99
1772.471	0.955	955.2	study	Phase3	study/STIM_029.jpg	100
1776.597	1.088	1087.6	study	Phase3	study/STIM_029.jpg	100
1780.186	0.677	677.2	study	Phase3	study/STIM_029.jpg	99
1784.275	0.913	912.8	test	Phase3	test/STIM_000.jpg	99
1788.155	1.261	1260.8	test	Phase3	test/STIM_000.jpg	100
1793.16	0.647	647.3	test	Phase3	test/STIM_000.jpg	99
1796.923	0.956	956.5	test	Phase3	test/STIM_001.jpg	100
1800.793	0.918	918.5	test	Phase3	test/STIM_001.jpg	100
1804.383	1.188	1188.5	test	Phase3	test/STIM_001.jpg	100
1808.619	1.122	1121.9	test	Phase3	test/STIM_002.jpg	100
1813.057	0.614	614.4	test	Phase3	test/STIM_002.jpg	100
1817.13	0.954	954.5	test	Phase3	test/STIM_002.jpg	100
1820.963	1.234	1233.9	test	Phase3	test/STIM_003.jpg	100
1824.766	0.638	637.5	test	Phase3	test/STIM_003.jpg	100
1828.469	1.025	1025.1	test	Phase3	test/STIM_003.jpg	99
1833.38	1.155	1155.2	test	Phase3	test/STIM_004.jpg	99
1838.138	1.167	1166.8	test	Phase3	test/STIM_004.jpg	100
1842.122	0.801	801.1	test	Phase3	test/STIM_004.jpg	99
1845.138	1.013	1012.7	test	Phase3	test/STIM_005.jpg	99
1850.001	0.912	911.5	test	Phase3	test/STIM_005.jpg	99
1854.692	0.998	998.4	test	Phase3	test/STIM_005.jpg	99
1859.13	1.154	1153.5	test	Phase3	test/STIM_006.jpg	100
1862.798	1.243	1242.7	test	Phase3	test/STIM_006.jpg	100
1866.87	0.951	951.3	test	Phase3	test/STIM_006.jpg	100
1870.07	0.716	716.1	test	Phase3	test/STIM_007.jpg	100
1873.989	0.656	655.8	test	Phase3	test/STIM_007.jpg	100
1877.557	0.696	695.7	test	Phase3	test/STIM_007.jpg	100
1881.023	1.031	1030.7	test	Phase3	test/STIM_008.jpg	100
1885.508	0.938	937.7	test	Phase3	test/STIM_008.jpg	100
1889.994	0.744	744.2	test	Phase3	test/STIM_008.jpg	100
1893.89	1.097	1097.2	test	Phase3	test/STIM_009.jpg	99
1897.375	1.024	1023.6	test	Phase3	test/STIM_009.jpg	99
1901.976	0.988	988.2	test	Phase3	test/STIM_009.jpg	100
1905.402	0.616	615.9	test	Phase3	test/STIM_010.jpg	100
1909.558	1.102	1102.2	test	Phase3	test/STIM_010.jpg	99
1912.697	0.708	707.7	test	Phase3	test/STIM_010.jpg	100
1916.488	1.078	1078.4	test	Phase3	test/STIM_011.jpg	99
1920.272	1.065	1065.2	test	Phase3	test/STIM_011.jpg	100
1923.855	0.793	793.3	test	Phase3	test/STIM_011.jpg	100
1926.671	1.06	1060.5	test	Phase3	test/STIM_012.jpg	99
1931.315	0.71	709.6	test	Phase3	test/STIM_012.jpg	100
1934.687	1.199	1199.2	test	Phase3	test/STIM_012.jpg	99
1937.971	0.942	941.5	test	Phase3	test/STIM_013.jpg	99
1942.714	1.046	1045.5	test	Phase3	test/STIM_013.jpg	99
1947.466	0.921	920.8	test	Phase3	test/STIM_013.jpg	99
1951.834	0.662	661.6	test	Phase3	test/STIM_014.jpg	99
1954.701	0.986	986.3	test	Phase3	test/STIM_014.jpg	99
1959.572	1.198	1198.4	test	Phase3	test/STIM_014.jpg	99
1964.525	1.164	1163.6	test	Phase3	test/STIM_015.jpg	99
1967.871	1.065	1064.9	test	Phase3	test/STIM_015.jpg	100
1972.188	1.021	1020.9	test	Phase3	test/STIM_015.jpg	100
1975.533	1.193	1192.7	test	Phase3	test/STIM_016.jpg	100
1980.507	0.726	726.2	test	Phase3	test/STIM_016.jpg	100
1984.465	1.206	1205.6	test	Phase3	test/STIM_016.jpg	99
1987.835	1.183	1182.6	test	Phase3	test/STIM_017.jpg	99
1992.029	0.735	734.7	test	Phase3	test/STIM_017.jpg	99
1995.983	0.882	881.6	test	Phase3	test/STIM_017.jpg	99
2000.819	0.619	618.8	test	Phase3	test/STIM_018.jpg	100
2005.395	0.738	738.4	test	Phase3	test/STIM_018.jpg	100
2008.929	0.736	736.5	test	Phase3	test/STIM_018.jpg	100
2012.172	1.146	1146.2	test	Phase3	test/STIM_019.jpg	99
2016.928	1.007	1007.1	test	Phase3	test/STIM_019.jpg	99
2020.853	0.875	875.1	test	Phase3	test/STIM_019.jpg	100
2025.215	0.89	889.6	test	Phase3	test/STIM_020.jpg	100
2029.726	0.871	870.8	test	Phase3	test/STIM_020.jpg	100
2032.761	0.838	837.7	test	Phase3	test/STIM_020.jpg	100
2036.935	0.677	677.0	test	Phase3	test/STIM_021.jpg	99
2041.463	0.745	745.0	test	Phase3	test/STIM_021.jpg	99
2045.336	0.831	831.1	test	Phase3	test/STIM_021.jpg	99
2049.609	0.804	804.0	test	Phase3	test/STIM_022.jpg	99
2054.17	0.992	991.7	test	Phase3	test/STIM_022.jpg	99
2058.017	0.891	890.6	test	Phase3	test/STIM_022.jpg	99
2061.385	0.9	900.2	test	Phase3	test/STIM_023.jpg	100
2064.532	1.13	1130.4	test	Phase3	test/STIM_023.jpg	99
2068.435	0.769	769.1	test	Phase3	test/STIM_023.jpg	99
2072.14	0.973	972.6	test	Phase3	test/STIM_024.jpg	100
2076.619	0.845	845.4	test	Phase3	test/STIM_024.jpg	100
2080.254	0.966	965.9	test	Phase3	test/STIM_024.jpg	100
2085.171	1.088	1087.7	test	Phase3	test/STIM_025.jpg	100
2088.452	0.805	805.4	test	Phase3	test/STIM_025.jpg	100
2091.459	1.184	1183.7	test	Phase3	test/STIM_025.jpg	99
2096.223	0.708	707.7	test	Phase3	test/STIM_026.jpg	100
2099.985	1.006	1006.2	test	Phase3	test/STIM_026.jpg	99
2103.179	0.718	717.6	test	Phase3	test/STIM_026.jpg	100
2106.838	0.988	987.8	test	Phase3	test/STIM_027.jpg	100
2110.045	0.934	934.1	test	Phase3	test/STIM_027.jpg	100
2113.707	0.617	617.0	test	Phase3	test/STIM_027.jpg	99
2116.544	0.892	892.4	test	Phase3	test/STIM_028.jpg	99
2119.546	0.791	790.9	test	Phase3	test/STIM_028.jpg	100
2124.022	1.191	1191.2	test	Phase3	test/STIM_028.jpg	99
2128.97	1.238	1238.2	test	Phase3	test/STIM_029.jpg	99
2132.457	1.151	1150.6	test	Phase3	test/STIM_029.jpg	100
2136.507	1.036	1035.6	test	Phase3	test/STIM_029.jpg	99
