onset	duration	accuracy	trial_type	learning_stage	stimulus
0.0	3.257	incorrect	navigation	Trial1	navigation/STIM_000.jpg
5.901	3.996	incorrect	navigation	Trial1	navigation/STIM_000.jpg
12.601	2.45	correct	navigation	Trial1	navigation/STIM_000.jpg
18.885	3.751	incorrect	navigation	Trial1	navigation/STIM_000.jpg
25.865	1.613	incorrect	navigation	Trial1	navigation/STIM_000.jpg
30.157	2.981	correct	navigation	Trial1	navigation/STIM_000.jpg
36.585	2.572	correct	navigation	Trial1	navigation/STIM_001.jpg
42.85	2.989	correct	navigation	Trial1	navigation/STIM_001.jpg
48.81	2.443	incorrect	navigation	Trial1	navigation/STIM_001.jpg
53.888	1.642	correct	navigation	Trial1	navigation/STIM_001.jpg
58.79	3.252	incorrect	navigation	Trial1	navigation/STIM_001.jpg
65.152	2.143	incorrect	navigation	Trial1	navigation/STIM_001.jpg
70.525	3.818	incorrect	navigation	Trial1	navigation/STIM_002.jpg
77.507	3.127	correct	navigation	Trial1	navigation/STIM_002.jpg
83.53	2.907	incorrect	navigation	Trial1	navigation/STIM_002.jpg
88.995	3.125	correct	navigation	Trial1	navigation/STIM_002.jpg
94.392	1.515	correct	navigation	Trial1	navigation/STIM_002.jpg
98.434	1.935	incorrect	navigation	Trial1	navigation/STIM_002.jpg
104.056	4.266	incorrect	navigation	Trial1	navigation/STIM_003.jpg
111.753	4.087	correct	navigation	Trial1	navigation/STIM_003.jpg
119.216	3.645	correct	navigation	Trial1	navigation/STIM_003.jpg
125.572	2.441	correct	navigation	Trial1	navigation/STIM_003.jpg
131.897	2.681	incorrect	navigation	Trial1	navigation/STIM_003.jpg
137.934	3.156	correct	navigation	Trial1	navigation/STIM_003.jpg
143.766	2.858	correct	navigation	Trial1	navigation/STIM_004.jpg
149.164	3.556	incorrect	navigation	Trial1	navigation/STIM_004.jpg
156.001	2.932	incorrect	navigation	Trial1	navigation/STIM_004.jpg
162.931	2.082	incorrect	navigation	Trial1	navigation/STIM_004.jpg
168.448	2.252	correct	navigation	Trial1	navigation/STIM_004.jpg
173.644	1.993	correct	navigation	Trial1	navigation/STIM_004.jpg
177.816	4.304	correct	navigation	Trial1	navigation/STIM_005.jpg
185.1	3.731	correct	navigation	Trial1	navigation/STIM_005.jpg
192.644	3.863	correct	navigation	Trial1	navigation/STIM_005.jpg
199.915	3.048	correct	navigation	Trial1	navigation/STIM_005.jpg
205.862	3.47	incorrect	navigation	Trial1	navigation/STIM_005.jpg
211.969	1.497	correct	navigation	Trial1	navigation/STIM_005.jpg
217.436	2.701	incorrect	navigation	Trial1	navigation/STIM_006.jpg
222.695	3.655	correct	navigation	Trial1	navigation/STIM_006.jpg
230.229	3.25	correct	navigation	Trial1	navigation/STIM_006.jpg
236.532	1.99	correct	navigation	Trial1	navigation/STIM_006.jpg
240.602	2.177	correct	navigation	Trial1	navigation/STIM_006.jpg
245.234	2.859	correct	navigation	Trial1	navigation/STIM_006.jpg
251.63	2.023	correct	navigation	Trial1	navigation/STIM_007.jpg
255.689	2.998	incorrect	navigation	Trial1	navigation/STIM_007.jpg
262.14	3.213	incorrect	navigation	Trial1	navigation/STIM_007.jpg
269.18	2.874	correct	navigation	Trial1	navigation/STIM_007.jpg
274.156	3.164	correct	navigation	Trial1	navigation/STIM_007.jpg
279.395	2.008	correct	navigation	Trial1	navigation/STIM_007.jpg
285.151	3.092	correct	navigation	Trial1	navigation/STIM_008.jpg
291.903	2.728	correct	navigation	Trial1	navigation/STIM_008.jpg
296.727	3.867	correct	navigation	Trial1	navigation/STIM_008.jpg
304.393	2.413	correct	navigation	Trial1	navigation/STIM_008.jpg
310.148	2.119	correct	navigation	Trial1	navigation/STIM_008.jpg
315.536	1.99	correct	navigation	Trial1	navigation/STIM_008.jpg
320.531	4.387	correct	navigation	Trial1	navigation/STIM_009.jpg
328.592	2.471	correct	navigation	Trial1	navigation/STIM_009.jpg
334.768	2.934	correct	navigation	Trial1	navigation/STIM_009.jpg
341.059	2.271	incorrect	navigation	Trial1	navigation/STIM_009.jpg
346.749	2.167	incorrect	navigation	Trial1	navigation/STIM_009.jpg
352.831	2.501	correct	navigation	Trial1	navigation/STIM_009.jpg
358.871	2.478	incorrect	navigation	Trial1	navigation/STIM_010.jpg
364.205	3.906	correct	navigation	Trial1	navigation/STIM_010.jpg
371.779	3.87	incorrect	navigation	Trial1	navigation/STIM_010.jpg
378.39	2.453	incorrect	navigation	Trial1	navigation/STIM_010.jpg
383.701	1.564	correct	navigation	Trial1	navigation/STIM_010.jpg
388.98	2.42	incorrect	navigation	Trial1	navigation/STIM_010.jpg
394.499	3.399	incorrect	navigation	Trial1	navigation/STIM_011.jpg
400.71	4.172	correct	navigation	Trial1	navigation/STIM_011.jpg
408.148	3.866	correct	navigation	Trial1	navigation/STIM_011.jpg
415.413	1.745	correct	navigation	Trial1	navigation/STIM_011.jpg
420.656	3.444	correct	navigation	Trial1	navigation/STIM_011.jpg
426.524	3.266	correct	navigation	Trial1	navigation/STIM_011.jpg
432.522	0.944	correct	pointing	Trial1	pointing/STIM_000.jpg
435.894	1.068	correct	pointing	Trial1	pointing/STIM_000.jpg
439.524	1.183	correct	pointing	Trial1	pointing/STIM_000.jpg
444.026	0.785	correct	pointing	Trial1	pointing/STIM_000.jpg
447.257	0.927	correct	pointing	Trial1	pointing/STIM_000.jpg
451.969	0.821	correct	pointing	Trial1	pointing/STIM_000.jpg
454.98	1.048	incorrect	pointing	Trial1	pointing/STIM_001.jpg
458.453	0.839	correct	pointing	Trial1	pointing/STIM_001.jpg
461.32	1.295	correct	pointing	Trial1	pointing/STIM_001.jpg
466.434	1.022	correct	pointing	Trial1	pointing/STIM_001.jpg
470.372	0.721	correct	pointing	Trial1	pointing/STIM_001.jpg
474.215	0.748	correct	pointing	Trial1	pointing/STIM_001.jpg
477.951	1.32	correct	pointing	Trial1	pointing/STIM_002.jpg
482.826	1.107	correct	pointing	Trial1	pointing/STIM_002.jpg
486.397	0.787	correct	pointing	Trial1	pointing/STIM_002.jpg
490.494	1.206	correct	pointing	Trial1	pointing/STIM_002.jpg
494.526	1.231	correct	pointing	Trial1	pointing/STIM_002.jpg
498.37	0.78	correct	pointing	Trial1	pointing/STIM_002.jpg
503.033	1.28	correct	pointing	Trial1	pointing/STIM_003.jpg
506.659	1.019	correct	pointing	Trial1	pointing/STIM_003.jpg
511.498	0.973	correct	pointing	Trial1	pointing/STIM_003.jpg
515.397	0.999	correct	pointing	Trial1	pointing/STIM_003.jpg
519.561	1.049	correct	pointing	Trial1	pointing/STIM_003.jpg
523.72	0.821	correct	pointing	Trial1	pointing/STIM_003.jpg
526.684	0.966	correct	pointing	Trial1	pointing/STIM_004.jpg
530.531	1.217	correct	pointing	Trial1	pointing/STIM_004.jpg
534.824	1.159	correct	pointing	Trial1	pointing/STIM_004.jpg
539.805	0.862	correct	pointing	Trial1	pointing/STIM_004.jpg
542.987	0.826	correct	pointing	Trial1	pointing/STIM_004.jpg
546.597	1.036	correct	pointing	Trial1	pointing/STIM_004.jpg
551.379	1.334	correct	pointing	Trial1	pointing/STIM_005.jpg
555.356	1.175	correct	pointing	Trial1	pointing/STIM_005.jpg
559.431	1.24	correct	pointing	Trial1	pointing/STIM_005.jpg
563.46	1.237	correct	pointing	Trial1	pointing/STIM_005.jpg
568.222	0.903	correct	pointing	Trial1	pointing/STIM_005.jpg
572.638	0.86	correct	pointing	Trial1	pointing/STIM_005.jpg
576.999	0.805	correct	pointing	Trial1	pointing/STIM_006.jpg
581.705	0.949	correct	pointing	Trial1	pointing/STIM_006.jpg
585.96	0.74	incorrect	pointing	Trial1	pointing/STIM_006.jpg
589.076	1.24	incorrect	pointing	Trial1	pointing/STIM_006.jpg
593.427	1.009	correct	pointing	Trial1	pointing/STIM_006.jpg
598.368	0.879	correct	pointing	Trial1	pointing/STIM_006.jpg
601.523	0.942	correct	pointing	Trial1	pointing/STIM_007.jpg
605.537	1.283	correct	pointing	Trial1	pointing/STIM_007.jpg
610.805	1.078	incorrect	pointing	Trial1	pointing/STIM_007.jpg
613.897	1.189	correct	pointing	Trial1	pointing/STIM_007.jpg
617.636	1.16	correct	pointing	Trial1	pointing/STIM_007.jpg
622.646	0.995	correct	pointing	Trial1	pointing/STIM_007.jpg
626.611	1.275	correct	pointing	Trial1	pointing/STIM_008.jpg
631.046	1.2	correct	pointing	Trial1	pointing/STIM_008.jpg
635.943	1.036	correct	pointing	Trial1	pointing/STIM_008.jpg
640.67	1.04	correct	pointing	Trial1	pointing/STIM_008.jpg
645.689	0.894	correct	pointing	Trial1	pointing/STIM_008.jpg
650.3	0.976	correct	pointing	Trial1	pointing/STIM_008.jpg
654.791	0.956	correct	pointing	Trial1	pointing/STIM_009.jpg
657.86	0.762	correct	pointing	Trial1	pointing/STIM_009.jpg
661.929	1.335	incorrect	pointing	Trial1	pointing/STIM_009.jpg
666.205	1.153	correct	pointing	Trial1	pointing/STIM_009.jpg
669.771	1.269	incorrect	pointing	Trial1	pointing/STIM_009.jpg
673.051	0.807	correct	pointing	Trial1	pointing/STIM_009.jpg
676.381	1.08	incorrect	pointing	Trial1	pointing/STIM_010.jpg
681.053	1.016	incorrect	pointing	Trial1	pointing/STIM_010.jpg
685.486	1.229	correct	pointing	Trial1	pointing/STIM_010.jpg
690.595	0.989	correct	pointing	Trial1	pointing/STIM_010.jpg
694.412	1.064	correct	pointing	Trial1	pointing/STIM_010.jpg
699.321	1.269	correct	pointing	Trial1	pointing/STIM_010.jpg
704.303	1.099	correct	pointing	Trial1	pointing/STIM_011.jpg
708.202	1.267	correct	pointing	Trial1	pointing/STIM_011.jpg
713.341	0.956	correct	pointing	Trial1	pointing/STIM_011.jpg
716.88	1.213	correct	pointing	Trial1	pointing/STIM_011.jpg
720.852	1.102	correct	pointing	Trial1	pointing/STIM_011.jpg
725.36	1.263	correct	pointing	Trial1	pointing/STIM_011.jpg
729.285	1.71	incorrect	navigation	Trial2	navigation/STIM_000.jpg
733.207	3.409	correct	navigation	Trial2	navigation/STIM_000.jpg
738.97	2.791	correct	navigation	Trial2	navigation/STIM_000.jpg
744.489	2.219	correct	navigation	Trial2	navigation/STIM_000.jpg
749.158	1.545	correct	navigation	Trial2	navigation/STIM_000.jpg
754.052	1.424	correct	navigation	Trial2	navigation/STIM_000.jpg
757.888	2.942	correct	navigation	Trial2	navigation/STIM_001.jpg
763.939	2.571	correct	navigation	Trial2	navigation/STIM_001.jpg
768.809	2.916	correct	navigation	Trial2	navigation/STIM_001.jpg
774.788	2.804	correct	navigation	Trial2	navigation/STIM_001.jpg
779.643	1.747	correct	navigation	Trial2	navigation/STIM_001.jpg
785.036	1.296	correct	navigation	Trial2	navigation/STIM_001.jpg
789.692	2.82	correct	navigation	Trial2	navigation/STIM_002.jpg
794.635	2.373	correct	navigation	Trial2	navigation/STIM_002.jpg
799.108	1.649	incorrect	navigation	Trial2	navigation/STIM_002.jpg
802.98	1.498	correct	navigation	Trial2	navigation/STIM_002.jpg
806.702	2.478	correct	navigation	Trial2	navigation/STIM_002.jpg
813.162	2.713	correct	navigation	Trial2	navigation/STIM_002.jpg
819.189	2.701	incorrect	navigation	Trial2	navigation/STIM_003.jpg
824.739	1.774	correct	navigation	Trial2	navigation/STIM_003.jpg
829.196	1.977	correct	navigation	Trial2	navigation/STIM_003.jpg
833.901	1.599	correct	navigation	Trial2	navigation/STIM_003.jpg
838.352	2.008	correct	navigation	Trial2	navigation/STIM_003.jpg
843.008	1.296	correct	navigation	Trial2	navigation/STIM_003.jpg
847.723	2.148	correct	navigation	Trial2	navigation/STIM_004.jpg
853.805	1.606	incorrect	navigation	Trial2	navigation/STIM_004.jpg
858.698	3.348	correct	navigation	Trial2	navigation/STIM_004.jpg
865.489	2.746	correct	navigation	Trial2	navigation/STIM_004.jpg
871.093	3.053	correct	navigation	Trial2	navigation/STIM_004.jpg
878.071	1.699	incorrect	navigation	Trial2	navigation/STIM_004.jpg
882.376	2.398	correct	navigation	Trial2	navigation/STIM_005.jpg
888.726	3.11	correct	navigation	Trial2	navigation/STIM_005.jpg
894.39	2.521	correct	navigation	Trial2	navigation/STIM_005.jpg
899.921	2.306	correct	navigation	Trial2	navigation/STIM_005.jpg
904.926	2.331	correct	navigation	Trial2	navigation/STIM_005.jpg
911.117	2.71	incorrect	navigation	Trial2	navigation/STIM_005.jpg
916.772	1.529	incorrect	navigation	Trial2	navigation/STIM_006.jpg
920.414	1.896	correct	navigation	Trial2	navigation/STIM_006.jpg
924.618	1.916	correct	navigation	Trial2	navigation/STIM_006.jpg
929.812	2.733	incorrect	navigation	Trial2	navigation/STIM_006.jpg
934.795	2.945	correct	navigation	Trial2	navigation/STIM_006.jpg
940.422	2.337	incorrect	navigation	Trial2	navigation/STIM_006.jpg
945.855	3.039	correct	navigation	Trial2	navigation/STIM_007.jpg
951.216	2.47	correct	navigation	Trial2	navigation/STIM_007.jpg
956.209	2.179	correct	navigation	Trial2	navigation/STIM_007.jpg
962.367	2.097	correct	navigation	Trial2	navigation/STIM_007.jpg
967.756	2.584	correct	navigation	Trial2	navigation/STIM_007.jpg
972.686	2.565	correct	navigation	Trial2	navigation/STIM_007.jpg
977.849	3.78	correct	navigation	Trial2	navigation/STIM_008.jpg
985.373	2.71	correct	navigation	Trial2	navigation/STIM_008.jpg
991.037	3.28	correct	navigation	Trial2	navigation/STIM_008.jpg
996.455	2.82	incorrect	navigation	Trial2	navigation/STIM_008.jpg
1002.369	2.827	correct	navigation	Trial2	navigation/STIM_008.jpg
1008.762	2.143	correct	navigation	Trial2	navigation/STIM_008.jpg
1013.235	3.028	incorrect	navigation	Trial2	navigation/STIM_009.jpg
1019.282	1.63	incorrect	navigation	Trial2	navigation/STIM_009.jpg
1023.651	2.596	correct	navigation	Trial2	navigation/STIM_009.jpg
1028.443	2.713	incorrect	navigation	Trial2	navigation/STIM_009.jpg
1035.001	1.664	incorrect	navigation	Trial2	navigation/STIM_009.jpg
1039.413	1.306	correct	navigation	Trial2	navigation/STIM_009.jpg
1043.36	2.1	correct	navigation	Trial2	navigation/STIM_010.jpg
1049.304	2.78	correct	navigation	Trial2	navigation/STIM_010.jpg
1055.396	2.622	incorrect	navigation	Trial2	navigation/STIM_010.jpg
1060.442	1.629	correct	navigation	Trial2	navigation/STIM_010.jpg
1064.54	2.189	correct	navigation	Trial2	navigation/STIM_010.jpg
1069.257	1.444	incorrect	navigation	Trial2	navigation/STIM_010.jpg
1074.568	1.999	correct	navigation	Trial2	navigation/STIM_011.jpg
1080.169	2.343	correct	navigation	Trial2	navigation/STIM_011.jpg
1085.916	2.754	incorrect	navigation	Trial2	navigation/STIM_011.jpg
1092.528	2.79	correct	navigation	Trial2	navigation/STIM_011.jpg
1098.394	1.305	correct	navigation	Trial2	navigation/STIM_011.jpg
1102.052	1.407	correct	navigation	Trial2	navigation/STIM_011.jpg
1105.745	1.017	incorrect	pointing	Trial2	pointing/STIM_000.jpg
1110.169	0.892	correct	pointing	Trial2	pointing/STIM_000.jpg
1114.322	1.14	correct	pointing	Trial2	pointing/STIM_000.jpg
1119.403	0.722	correct	pointing	Trial2	pointing/STIM_000.jpg
1124.069	1.007	correct	pointing	Trial2	pointing/STIM_000.jpg
1128.063	1.31	correct	pointing	Trial2	pointing/STIM_000.jpg
1131.805	1.027	correct	pointing	Trial2	pointing/STIM_001.jpg
1135.723	1.268	correct	pointing	Trial2	pointing/STIM_001.jpg
1139.745	0.982	incorrect	pointing	Trial2	pointing/STIM_001.jpg
1144.06	1.071	correct	pointing	Trial2	pointing/STIM_001.jpg
1147.614	0.834	correct	pointing	Trial2	pointing/STIM_001.jpg
1151.333	1.22	correct	pointing	Trial2	pointing/STIM_001.jpg
1154.693	0.77	correct	pointing	Trial2	pointing/STIM_002.jpg
1159.263	1.294	correct	pointing	Trial2	pointing/STIM_002.jpg
1163.917	1.115	correct	pointing	Trial2	pointing/STIM_002.jpg
1168.784	1.299	correct	pointing	Trial2	pointing/STIM_002.jpg
1173.718	1.166	correct	pointing	Trial2	pointing/STIM_002.jpg
1177.25	1.018	correct	pointing	Trial2	pointing/STIM_002.jpg
1181.251	1.22	correct	pointing	Trial2	pointing/STIM_003.jpg
1186.403	0.785	incorrect	pointing	Trial2	pointing/STIM_003.jpg
1189.613	0.981	correct	pointing	Trial2	pointing/STIM_003.jpg
1193.394	0.792	correct	pointing	Trial2	pointing/STIM_003.jpg
1197.91	1.112	correct	pointing	Trial2	pointing/STIM_003.jpg
1202.664	1.219	correct	pointing	Trial2	pointing/STIM_003.jpg
1207.613	0.751	correct	pointing	Trial2	pointing/STIM_004.jpg
1211.274	0.882	correct	pointing	Trial2	pointing/STIM_004.jpg
1214.641	0.784	correct	pointing	Trial2	pointing/STIM_004.jpg
1217.919	0.993	correct	pointing	Trial2	pointing/STIM_004.jpg
1221.338	0.961	correct	pointing	Trial2	pointing/STIM_004.jpg
1225.958	1.149	correct	pointing	Trial2	pointing/STIM_004.jpg
1230.212	1.273	correct	pointing	Trial2	pointing/STIM_005.jpg
1234.611	1.043	incorrect	pointing	Trial2	pointing/STIM_005.jpg
1238.367	0.846	correct	pointing	Trial2	pointing/STIM_005.jpg
1242.276	1.039	incorrect	pointing	Trial2	pointing/STIM_005.jpg
1246.655	1.147	correct	pointing	Trial2	pointing/STIM_005.jpg
1250.529	1.126	correct	pointing	Trial2	pointing/STIM_005.jpg
1254.047	1.212	correct	pointing	Trial2	pointing/STIM_006.jpg
1258.754	1.288	correct	pointing	Trial2	pointing/STIM_006.jpg
1262.775	1.152	correct	pointing	Trial2	pointing/STIM_006.jpg
1266.531	1.121	correct	pointing	Trial2	pointing/STIM_006.jpg
1270.782	0.758	incorrect	pointing	Trial2	pointing/STIM_006.jpg
1274.719	0.839	correct	pointing	Trial2	pointing/STIM_006.jpg
1279.24	1.165	incorrect	pointing	Trial2	pointing/STIM_007.jpg
1282.639	1.179	correct	pointing	Trial2	pointing/STIM_007.jpg
1286.43	0.856	correct	pointing	Trial2	pointing/STIM_007.jpg
1289.5	0.877	correct	pointing	Trial2	pointing/STIM_007.jpg
1292.548	1.068	correct	pointing	Trial2	pointing/STIM_007.jpg
1296.075	0.853	correct	pointing	Trial2	pointing/STIM_007.jpg
1300.266	0.844	correct	pointing	Trial2	pointing/STIM_008.jpg
1304.653	1.263	correct	pointing	Trial2	pointing/STIM_008.jpg
1308.929	0.863	correct	pointing	Trial2	pointing/STIM_008.jpg
1312.899	1.174	correct	pointing	Trial2	pointing/STIM_008.jpg
1317.136	1.288	correct	pointing	Trial2	pointing/STIM_008.jpg
1320.88	0.946	correct	pointing	Trial2	pointing/STIM_008.jpg
1325.053	1.008	correct	pointing	Trial2	pointing/STIM_009.jpg
1328.936	1.015	incorrect	pointing	Trial2	pointing/STIM_009.jpg
1333.224	0.719	incorrect	pointing	Trial2	pointing/STIM_009.jpg
1337.535	1.183	correct	pointing	Trial2	pointing/STIM_009.jpg
1341.067	0.973	correct	pointing	Trial2	pointing/STIM_009.jpg
1344.728	1.303	correct	pointing	Trial2	pointing/STIM_009.jpg
1349.488	1.333	correct	pointing	Trial2	pointing/STIM_010.jpg
1353.525	1.09	incorrect	pointing	Trial2	pointing/STIM_010.jpg
1357.496	1.207	correct	pointing	Trial2	pointing/STIM_010.jpg
1362.108	0.785	incorrect	pointing	Trial2	pointing/STIM_010.jpg
1365.623	1.038	correct	pointing	Trial2	pointing/STIM_010.jpg
1369.59	0.858	incorrect	pointing	Trial2	pointing/STIM_010.jpg
1373.175	1.107	correct	pointing	Trial2	pointing/STIM_011.jpg
1376.777	1.256	correct	pointing	Trial2	pointing/STIM_011.jpg
1380.622	0.977	correct	pointing	Trial2	pointing/STIM_011.jpg
1385.035	0.8	correct	pointing	Trial2	pointing/STIM_011.jpg
1388.493	0.774	correct	pointing	Trial2	pointing/STIM_011.jpg
1391.547	1.128	incorrect	pointing	Trial2	pointing/STIM_011.jpg
1395.15	2.299	correct	navigation	Trial3	navigation/STIM_000.jpg
1400.744	1.568	correct	navigation	Trial3	navigation/STIM_000.jpg
1405.102	1.598	correct	navigation	Trial3	navigation/STIM_000.jpg
1408.952	2.191	correct	navigation	Trial3	navigation/STIM_000.jpg
1414.224	1.835	correct	navigation	Trial3	navigation/STIM_000.jpg
1418.601	2.162	correct	navigation	Trial3	navigation/STIM_000.jpg
1423.546	1.299	correct	navigation	Trial3	navigation/STIM_001.jpg
1428.74	2.296	correct	navigation	Trial3	navigation/STIM_001.jpg
1434.761	1.721	correct	navigation	Trial3	navigation/STIM_001.jpg
1438.749	1.565	correct	navigation	Trial3	navigation/STIM_001.jpg
1443.783	1.318	correct	navigation	Trial3	navigation/STIM_001.jpg
1448.536	2.514	correct	navigation	Trial3	navigation/STIM_001.jpg
1454.187	2.872	incorrect	navigation	Trial3	navigation/STIM_002.jpg
1460.643	1.671	correct	navigation	Trial3	navigation/STIM_002.jpg
1466.142	1.992	correct	navigation	Trial3	navigation/STIM_002.jpg
1471.849	2.046	correct	navigation	Trial3	navigation/STIM_002.jpg
1477.551	2.731	incorrect	navigation	Trial3	navigation/STIM_002.jpg
1483.658	2.535	correct	navigation	Trial3	navigation/STIM_002.jpg
1488.333	2.219	correct	navigation	Trial3	navigation/STIM_003.jpg
1493.964	2.259	correct	navigation	Trial3	navigation/STIM_003.jpg
1499.054	3.087	correct	navigation	Trial3	navigation/STIM_003.jpg
1504.857	1.916	correct	navigation	Trial3	navigation/STIM_003.jpg
1509.224	3.135	incorrect	navigation	Trial3	navigation/STIM_003.jpg
1515.053	2.615	correct	navigation	Trial3	navigation/STIM_003.jpg
1519.893	1.347	correct	navigation	Trial3	navigation/STIM_004.jpg
1523.937	1.729	correct	navigation	Trial3	navigation/STIM_004.jpg
1527.919	1.624	correct	navigation	Trial3	navigation/STIM_004.jpg
1533.476	3.098	incorrect	navigation	Trial3	navigation/STIM_004.jpg
1539.103	2.427	incorrect	navigation	Trial3	navigation/STIM_004.jpg
1545.087	2.164	correct	navigation	Trial3	navigation/STIM_004.jpg
1551.181	1.677	correct	navigation	Trial3	navigation/STIM_005.jpg
1556.177	2.527	correct	navigation	Trial3	navigation/STIM_005.jpg
1561.587	1.367	correct	navigation	Trial3	navigation/STIM_005.jpg
1565.802	2.145	correct	navigation	Trial3	navigation/STIM_005.jpg
1570.911	3.003	correct	navigation	Trial3	navigation/STIM_005.jpg
1577.46	2.308	correct	navigation	Trial3	navigation/STIM_005.jpg
1582.699	2.389	correct	navigation	Trial3	navigation/STIM_006.jpg
1588.678	2.715	incorrect	navigation	Trial3	navigation/STIM_006.jpg
1594.002	1.794	incorrect	navigation	Trial3	navigation/STIM_006.jpg
1599.48	2.227	correct	navigation	Trial3	navigation/STIM_006.jpg
1604.661	1.994	correct	navigation	Trial3	navigation/STIM_006.jpg
1610.387	1.477	correct	navigation	Trial3	navigation/STIM_006.jpg
1614.256	2.749	correct	navigation	Trial3	navigation/STIM_007.jpg
1619.489	2.133	correct	navigation	Trial3	navigation/STIM_007.jpg
1624.595	1.763	correct	navigation	Trial3	navigation/STIM_007.jpg
1630.149	1.437	correct	navigation	Trial3	navigation/STIM_007.jpg
1634.965	2.275	correct	navigation	Trial3	navigation/STIM_007.jpg
1639.289	1.894	correct	navigation	Trial3	navigation/STIM_007.jpg
1644.287	1.47	correct	navigation	Trial3	navigation/STIM_008.jpg
1649.316	2.282	correct	navigation	Trial3	navigation/STIM_008.jpg
1654.158	1.37	correct	navigation	Trial3	navigation/STIM_008.jpg
1659.064	2.372	incorrect	navigation	Trial3	navigation/STIM_008.jpg
1664.923	2.612	correct	navigation	Trial3	navigation/STIM_008.jpg
1670.852	3.054	correct	navigation	Trial3	navigation/STIM_008.jpg
1677.196	3.087	correct	navigation	Trial3	navigation/STIM_009.jpg
1683.996	3.02	correct	navigation	Trial3	navigation/STIM_009.jpg
1689.236	1.953	correct	navigation	Trial3	navigation/STIM_009.jpg
1694.656	1.576	correct	navigation	Trial3	navigation/STIM_009.jpg
1699.254	2.575	correct	navigation	Trial3	navigation/STIM_009.jpg
1704.934	3.078	correct	navigation	Trial3	navigation/STIM_009.jpg
1711.513	2.598	incorrect	navigation	Trial3	navigation/STIM_010.jpg
1716.614	2.258	correct	navigation	Trial3	navigation/STIM_010.jpg
1722.294	1.967	correct	navigation	Trial3	navigation/STIM_010.jpg
1727.193	2.779	correct	navigation	Trial3	navigation/STIM_010.jpg
1732.123	1.421	correct	navigation	Trial3	navigation/STIM_010.jpg
1736.795	2.364	correct	navigation	Trial3	navigation/STIM_010.jpg
1742.081	1.85	correct	navigation	Trial3	navigation/STIM_011.jpg
1746.99	1.769	correct	navigation	Trial3	navigation/STIM_011.jpg
1752.695	2.471	correct	navigation	Trial3	navigation/STIM_011.jpg
1758.01	2.066	correct	navigation	Trial3	navigation/STIM_011.jpg
1763.831	3.094	correct	navigation	Trial3	navigation/STIM_011.jpg
1768.94	1.911	incorrect	navigation	Trial3	navigation/STIM_011.jpg
1773.583	0.798	correct	pointing	Trial3	pointing/STIM_000.jpg
1776.609	0.748	correct	pointing	Trial3	pointing/STIM_000.jpg
1780.141	0.782	correct	pointing	Trial3	pointing/STIM_000.jpg
1784.2	0.839	correct	pointing	Trial3	pointing/STIM_000.jpg
1788.773	1.08	correct	pointing	Trial3	pointing/STIM_000.jpg
1793.254	1.189	correct	pointing	Trial3	pointing/STIM_000.jpg
1796.717	0.775	correct	pointing	Trial3	pointing/STIM_001.jpg
1801.217	0.961	correct	pointing	Trial3	pointing/STIM_001.jpg
1805.961	0.827	incorrect	pointing	Trial3	pointing/STIM_001.jpg
1810.6	1.234	correct	pointing	Trial3	pointing/STIM_001.jpg
1813.887	0.846	correct	pointing	Trial3	pointing/STIM_001.jpg
1816.735	1.298	correct	pointing	Trial3	pointing/STIM_001.jpg
1820.396	0.752	correct	pointing	Trial3	pointing/STIM_002.jpg
1824.867	1.213	correct	pointing	Trial3	pointing/STIM_002.jpg
1830.016	1.209	correct	pointing	Trial3	pointing/STIM_002.jpg
1833.331	1.212	incorrect	pointing	Trial3	pointing/STIM_002.jpg
1837.322	0.936	incorrect	pointing	Trial3	pointing/STIM_002.jpg
1840.567	1.276	correct	pointing	Trial3	pointing/STIM_002.jpg
1845.115	0.969	correct	pointing	Trial3	pointing/STIM_003.jpg
1849.326	0.907	correct	pointing	Trial3	pointing/STIM_003.jpg
1854.185	0.842	correct	pointing	Trial3	pointing/STIM_003.jpg
1857.293	0.851	correct	pointing	Trial3	pointing/STIM_003.jpg
1860.407	1.259	correct	pointing	Trial3	pointing/STIM_003.jpg
1865.422	0.88	correct	pointing	Trial3	pointing/STIM_003.jpg
1870.224	1.218	correct	pointing	Trial3	pointing/STIM_004.jpg
1874.911	0.86	correct	pointing	Trial3	pointing/STIM_004.jpg
1877.904	1.072	incorrect	pointing	Trial3	pointing/STIM_004.jpg
1882.136	1.232	correct	pointing	Trial3	pointing/STIM_004.jpg
1885.522	1.231	incorrect	pointing	Trial3	pointing/STIM_004.jpg
1889.487	0.853	correct	pointing	Trial3	pointing/STIM_004.jpg
1893.573	1.241	correct	pointing	Trial3	pointing/STIM_005.jpg
1897.95	1.101	correct	pointing	Trial3	pointing/STIM_005.jpg
1902.665	1.045	correct	pointing	Trial3	pointing/STIM_005.jpg
1907.42	0.963	correct	pointing	Trial3	pointing/STIM_005.jpg
1910.514	0.734	correct	pointing	Trial3	pointing/STIM_005.jpg
1913.349	1.266	correct	pointing	Trial3	pointing/STIM_005.jpg
1917.281	0.794	correct	pointing	Trial3	pointing/STIM_006.jpg
1921.887	0.964	correct	pointing	Trial3	pointing/STIM_006.jpg
1926.184	1.161	correct	pointing	Trial3	pointing/STIM_006.jpg
1930.467	0.808	correct	pointing	Trial3	pointing/STIM_006.jpg
1935.269	1.3	correct	pointing	Trial3	pointing/STIM_006.jpg
1940.018	0.993	correct	pointing	Trial3	pointing/STIM_006.jpg
1943.666	1.316	incorrect	pointing	Trial3	pointing/STIM_007.jpg
1947.392	1.313	correct	pointing	Trial3	pointing/STIM_007.jpg
1951.256	0.852	correct	pointing	Trial3	pointing/STIM_007.jpg
1955.747	0.862	correct	pointing	Trial3	pointing/STIM_007.jpg
1958.984	0.863	incorrect	pointing	Trial3	pointing/STIM_007.jpg
1963.062	1.216	correct	pointing	Trial3	pointing/STIM_007.jpg
1967.583	1.173	correct	pointing	Trial3	pointing/STIM_008.jpg
1971.65	1.107	correct	pointing	Trial3	pointing/STIM_008.jpg
1976.674	1.206	correct	pointing	Trial3	pointing/STIM_008.jpg
1981.668	0.735	correct	pointing	Trial3	pointing/STIM_008.jpg
1984.915	1.22	correct	pointing	Trial3	pointing/STIM_008.jpg
1989.658	0.91	correct	pointing	Trial3	pointing/STIM_008.jpg
1993.85	0.814	correct	pointing	Trial3	pointing/STIM_009.jpg
1997.536	0.724	correct	pointing	Trial3	pointing/STIM_009.jpg
2002.063	0.883	correct	pointing	Trial3	pointing/STIM_009.jpg
2005.411	0.938	correct	pointing	Trial3	pointing/STIM_009.jpg
2009.015	0.987	correct	pointing	Trial3	pointing/STIM_009.jpg
2012.669	1.29	correct	pointing	Trial3	pointing/STIM_009.jpg
2017.297	0.993	correct	pointing	Trial3	pointing/STIM_010.jpg
2021.821	0.798	correct	pointing	Trial3	pointing/STIM_010.jpg
2026.477	1.335	correct	pointing	Trial3	pointing/STIM_010.jpg
2031.613	0.997	correct	pointing	Trial3	pointing/STIM_010.jpg
2035.258	1.126	correct	pointing	Trial3	pointing/STIM_010.jpg
2038.982	1.1	correct	pointing	Trial3	pointing/STIM_010.jpg
2043.072	1.279	incorrect	pointing	Trial3	pointing/STIM_011.jpg
2047.788	0.835	correct	pointing	Trial3	pointing/STIM_011.jpg
2052.509	1.284	correct	pointing	Trial3	pointing/STIM_011.jpg
2056.654	1.046	correct	pointing	Trial3	pointing/STIM_011.jpg
2060.746	1.224	correct	pointing	Trial3	pointing/STIM_011.jpg
2064.08	1.231	correct	pointing	Trial3	pointing/STIM_011.jpg
