onset	duration	response_time_ms	trial_type	learning_stage	stimulus	response_port
0.0	3.931	3930.9	navigation	Trial1	navigation/STIM_000.jpg	99
6.606	2.454	2454.4	navigation	Trial1	navigation/STIM_000.jpg	99
13.147	3.646	3646.1	navigation	Trial1	navigation/STIM_000.jpg	100
20.74	2.758	2757.6	navigation	Trial1	navigation/STIM_000.jpg	99
27.632	3.464	3463.8	navigation	Trial1	navigation/STIM_000.jpg	100
34.694	2.5	2499.8	navigation	Trial1	navigation/STIM_000.jpg	99
40.329	3.451	3450.8	navigation	Trial1	navigation/STIM_001.jpg	99
46.713	4.182	4182.1	navigation	Trial1	navigation/STIM_001.jpg	99
53.807	3.135	3135.0	navigation	Trial1	navigation/STIM_001.jpg	100
60.545	3.133	3133.1	navigation	Trial1	navigation/STIM_001.jpg	100
67.132	2.654	2653.5	navigation	Trial1	navigation/STIM_001.jpg	99
72.215	3.329	3328.8	navigation	Trial1	navigation/STIM_001.jpg	100
78.955	3.177	3176.8	navigation	Trial1	navigation/STIM_002.jpg	99
84.524	3.678	3677.5	navigation	Trial1	navigation/STIM_002.jpg	100
91.255	3.909	3908.9	navigation	Trial1	navigation/STIM_002.jpg	99
98.381	3.549	3548.6	navigation	Trial1	navigation/STIM_002.jpg	99
106.273	1.821	1821.3	navigation	Trial1	navigation/STIM_002.jpg	100
111.088	2.931	2931.4	navigation	Trial1	navigation/STIM_002.jpg	99
117.387	3.917	3916.8	navigation	Trial1	navigation/STIM_003.jpg	100
123.844	2.65	2649.5	navigation	Trial1	navigation/STIM_003.jpg	100
130.289	3.54	3539.6	navigation	Trial1	navigation/STIM_003.jpg	99
136.895	2.78	2780.0	navigation	Trial1	navigation/STIM_003.jpg	100
143.686	2.282	2281.5	navigation	Trial1	navigation/STIM_003.jpg	100
149.517	2.642	2641.6	navigation	Trial1	navigation/STIM_003.jpg	99
155.274	2.338	2338.0	navigation	Trial1	navigation/STIM_004.jpg	99
160.204	2.892	2892.4	navigation	Trial1	navigation/STIM_004.jpg	100
167.417	1.95	1949.5	navigation	Trial1	navigation/STIM_004.jpg	99
172.51	2.953	2953.2	navigation	Trial1	navigation/STIM_004.jpg	100
179.54	2.611	2611.2	navigation	Trial1	navigation/STIM_004.jpg	100
184.949	2.881	2880.8	navigation	Trial1	navigation/STIM_004.jpg	99
192.082	4.425	4424.9	navigation	Trial1	navigation/STIM_005.jpg	99
199.284	3.031	3031.1	navigation	Trial1	navigation/STIM_005.jpg	99
206.138	2.022	2022.4	navigation	Trial1	navigation/STIM_005.jpg	100
211.27	2.886	2885.7	navigation	Trial1	navigation/STIM_005.jpg	99
217.179	3.466	3465.6	navigation	Trial1	navigation/STIM_005.jpg	99
223.164	3.228	3227.6	navigation	Trial1	navigation/STIM_005.jpg	100
230.126	2.488	2487.8	navigation	Trial1	navigation/STIM_006.jpg	99
236.856	2.758	2758.2	navigation	Trial1	navigation/STIM_006.jpg	99
243.281	2.613	2613.1	navigation	Trial1	navigation/STIM_006.jpg	100
250.239	2.637	2637.0	navigation	Trial1	navigation/STIM_006.jpg	100
256.056	1.572	1572.0	navigation	Trial1	navigation/STIM_006.jpg	99
261.556	2.544	2544.0	navigation	Trial1	navigation/STIM_006.jpg	100
267.138	3.46	3459.9	navigation	Trial1	navigation/STIM_007.jpg	100
273.013	2.911	2911.3	navigation	Trial1	navigation/STIM_007.jpg	99
279.729	3.247	3246.6	navigation	Trial1	navigation/STIM_007.jpg	100
286.315	2.53	2529.5	navigation	Trial1	navigation/STIM_007.jpg	100
292.702	3.476	3475.6	navigation	Trial1	navigation/STIM_007.jpg	99
300.175	2.472	2471.8	navigation	Trial1	navigation/STIM_007.jpg	100
305.213	3.739	3738.7	navigation	Trial1	navigation/STIM_008.jpg	100
312.885	1.977	1977.0	navigation	Trial1	navigation/STIM_008.jpg	100
317.361	3.896	3896.2	navigation	Trial1	navigation/STIM_008.jpg	100
325.664	2.8	2800.5	navigation	Trial1	navigation/STIM_008.jpg	99
332.003	3.137	3136.6	navigation	Trial1	navigation/STIM_008.jpg	99
338.086	1.418	1417.5	navigation	Trial1	navigation/STIM_008.jpg	99
341.95	1.939	1939.4	navigation	Trial1	navigation/STIM_009.jpg	99
347.13	4.07	4070.4	navigation	Trial1	navigation/STIM_009.jpg	99
355.311	3.26	3259.6	navigation	Trial1	navigation/STIM_009.jpg	99
362.663	3.544	3543.6	navigation	Trial1	navigation/STIM_009.jpg	100
369.743	3.435	3434.9	navigation	Trial1	navigation/STIM_009.jpg	100
376.043	2.718	2718.0	navigation	Trial1	navigation/STIM_009.jpg	99
382.267	4.042	4041.9	navigation	Trial1	navigation/STIM_010.jpg	99
389.514	2.24	2240.0	navigation	Trial1	navigation/STIM_010.jpg	99
395.272	2.206	2205.8	navigation	Trial1	navigation/STIM_010.jpg	100
400.031	3.677	3676.7	navigation	Trial1	navigation/STIM_010.jpg	99
406.504	2.796	2796.5	navigation	Trial1	navigation/STIM_010.jpg	99
412.676	3.211	3210.6	navigation	Trial1	navigation/STIM_010.jpg	100
419.698	2.946	2945.7	navigation	Trial1	navigation/STIM_011.jpg	99
426.185	3.958	3958.4	navigation	Trial1	navigation/STIM_011.jpg	99
433.641	3.432	3431.8	navigation	Trial1	navigation/STIM_011.jpg	99
441.266	3.398	3398.5	navigation	Trial1	navigation/STIM_011.jpg	100
448.091	2.115	2114.9	navigation	Trial1	navigation/STIM_011.jpg	99
454.483	2.464	2464.1	navigation	Trial1	navigation/STIM_011.jpg	100
460.426	1.161	1160.8	pointing	Trial1	pointing/STIM_000.jpg	99
465.74	0.937	937.4	pointing	Trial1	pointing/STIM_000.jpg	100
469.171	0.688	688.1	pointing	Trial1	pointing/STIM_000.jpg	99
472.536	1.212	1212.1	pointing	Trial1	pointing/STIM_000.jpg	100
476.489	0.868	868.4	pointing	Trial1	pointing/STIM_000.jpg	99
479.972	0.828	828.3	pointing	Trial1	pointing/STIM_000.jpg	100
482.937	0.972	971.5	pointing	Trial1	pointing/STIM_001.jpg	99
486.752	1.132	1131.6	pointing	Trial1	pointing/STIM_001.jpg	99
490.95	1.151	1150.6	pointing	Trial1	pointing/STIM_001.jpg	100
495.059	1.121	1120.7	pointing	Trial1	pointing/STIM_001.jpg	99
498.359	1.124	1123.7	pointing	Trial1	pointing/STIM_001.jpg	99
502.993	1.237	1237.1	pointing	Trial1	pointing/STIM_001.jpg	100
508.067	1.175	1175.4	pointing	Trial1	pointing/STIM_002.jpg	100
512.327	1.21	1209.9	pointing	Trial1	pointing/STIM_002.jpg	99
517.132	1.32	1319.8	pointing	Trial1	pointing/STIM_002.jpg	100
521.087	1.133	1132.6	pointing	Trial1	pointing/STIM_002.jpg	100
524.82	1.018	1017.7	pointing	Trial1	pointing/STIM_002.jpg	99
528.686	0.871	870.6	pointing	Trial1	pointing/STIM_002.jpg	100
533.416	1.085	1084.6	pointing	Trial1	pointing/STIM_003.jpg	100
537.949	0.928	928.2	pointing	Trial1	pointing/STIM_003.jpg	99
541.208	1.093	1093.4	pointing	Trial1	pointing/STIM_003.jpg	99
546.004	0.952	952.0	pointing	Trial1	pointing/STIM_003.jpg	99
549.134	0.906	905.9	pointing	Trial1	pointing/STIM_003.jpg	100
552.761	1.055	1054.6	pointing	Trial1	pointing/STIM_003.jpg	99
556.994	1.279	1279.4	pointing	Trial1	pointing/STIM_004.jpg	100
561.785	0.778	777.8	pointing	Trial1	pointing/STIM_004.jpg	99
565.815	1.287	1286.9	pointing	Trial1	pointing/STIM_004.jpg	99
569.594	1.141	1140.8	pointing	Trial1	pointing/STIM_004.jpg	100
574.424	1.289	1289.0	pointing	Trial1	pointing/STIM_004.jpg	100
579.789	1.245	1245.0	pointing	Trial1	pointing/STIM_004.jpg	99
585.131	1.247	1247.4	pointing	Trial1	pointing/STIM_005.jpg	99
590.483	0.733	732.7	pointing	Trial1	pointing/STIM_005.jpg	100
594.086	1.186	1185.6	pointing	Trial1	pointing/STIM_005.jpg	99
599.393	1.339	1338.7	pointing	Trial1	pointing/STIM_005.jpg	100
604.023	1.032	1032.4	pointing	Trial1	pointing/STIM_005.jpg	100
608.028	1.273	1272.9	pointing	Trial1	pointing/STIM_005.jpg	99
613.466	1.083	1083.1	pointing	Trial1	pointing/STIM_006.jpg	99
617.023	1.123	1123.2	pointing	Trial1	pointing/STIM_006.jpg	100
620.505	0.964	963.6	pointing	Trial1	pointing/STIM_006.jpg	100
625.106	1.101	1100.9	pointing	Trial1	pointing/STIM_006.jpg	99
629.818	0.972	972.0	pointing	Trial1	pointing/STIM_006.jpg	99
633.891	1.11	1110.3	pointing	Trial1	pointing/STIM_006.jpg	99
638.026	0.812	812.0	pointing	Trial1	pointing/STIM_007.jpg	100
642.507	0.758	757.5	pointing	Trial1	pointing/STIM_007.jpg	100
647.335	1.239	1238.8	pointing	Trial1	pointing/STIM_007.jpg	100
650.904	1.142	1142.1	pointing	Trial1	pointing/STIM_007.jpg	100
654.475	1.058	1057.5	pointing	Trial1	pointing/STIM_007.jpg	100
659.256	0.837	836.8	pointing	Trial1	pointing/STIM_007.jpg	99
664.13	0.729	728.9	pointing	Trial1	pointing/STIM_008.jpg	99
668.538	1.39	1390.0	pointing	Trial1	pointing/STIM_008.jpg	99
673.968	0.876	876.2	pointing	Trial1	pointing/STIM_008.jpg	100
679.043	1.292	1292.4	pointing	Trial1	pointing/STIM_008.jpg	100
683.969	1.105	1105.4	pointing	Trial1	pointing/STIM_008.jpg	99
688.071	1.065	1065.2	pointing	Trial1	pointing/STIM_008.jpg	99
691.264	0.874	874.3	pointing	Trial1	pointing/STIM_009.jpg	100
694.45	0.848	848.1	pointing	Trial1	pointing/STIM_009.jpg	100
698.505	1.015	1015.1	pointing	Trial1	pointing/STIM_009.jpg	100
702.911	1.045	1044.7	pointing	Trial1	pointing/STIM_009.jpg	99
706.936	0.832	832.3	pointing	Trial1	pointing/STIM_009.jpg	99
710.287	0.981	981.1	pointing	Trial1	pointing/STIM_009.jpg	99
713.515	0.738	737.6	pointing	Trial1	pointing/STIM_010.jpg	100
717.26	1.118	1118.5	pointing	Trial1	pointing/STIM_010.jpg	100
721.041	0.924	924.4	pointing	Trial1	pointing/STIM_010.jpg	99
724.152	0.806	806.5	pointing	Trial1	pointing/STIM_010.jpg	100
728.478	0.792	792.4	pointing	Trial1	pointing/STIM_010.jpg	100
731.778	1.31	1310.3	pointing	Trial1	pointing/STIM_010.jpg	100
737.12	1.266	1266.2	pointing	Trial1	pointing/STIM_011.jpg	99
740.568	1.003	1003.0	pointing	Trial1	pointing/STIM_011.jpg	99
744.149	1.062	1061.5	pointing	Trial1	pointing/STIM_011.jpg	99
749.16	1.335	1334.8	pointing	Trial1	pointing/STIM_011.jpg	100
753.193	0.925	925.2	pointing	Trial1	pointing/STIM_011.jpg	99
758.191	0.935	935.2	pointing	Trial1	pointing/STIM_011.jpg	100
762.471	1.706	1706.1	navigation	Trial2	navigation/STIM_000.jpg	99
768.026	2.729	2729.0	navigation	Trial2	navigation/STIM_000.jpg	100
773.457	2.724	2724.4	navigation	Trial2	navigation/STIM_000.jpg	100
779.761	2.576	2575.7	navigation	Trial2	navigation/STIM_000.jpg	100
786.141	1.546	1545.9	navigation	Trial2	navigation/STIM_000.jpg	100
790.621	3.08	3080.5	navigation	Trial2	navigation/STIM_000.jpg	99
797.487	3.524	3524.1	navigation	Trial2	navigation/STIM_001.jpg	100
804.995	1.525	1525.0	navigation	Trial2	navigation/STIM_001.jpg	99
810.282	2.131	2131.0	navigation	Trial2	navigation/STIM_001.jpg	100
815.643	2.387	2386.6	navigation	Trial2	navigation/STIM_001.jpg	100
821.671	1.988	1987.5	navigation	Trial2	navigation/STIM_001.jpg	100
827.38	2.322	2322.1	navigation	Trial2	navigation/STIM_001.jpg	99
833.584	2.909	2908.9	navigation	Trial2	navigation/STIM_002.jpg	100
840.379	3.54	3539.5	navigation	Trial2	navigation/STIM_002.jpg	99
847.305	2.262	2262.4	navigation	Trial2	navigation/STIM_002.jpg	99
852.418	2.048	2047.7	navigation	Trial2	navigation/STIM_002.jpg	100
857.15	1.948	1947.8	navigation	Trial2	navigation/STIM_002.jpg	100
863.017	1.585	1585.1	navigation	Trial2	navigation/STIM_002.jpg	99
868.315	1.936	1936.3	navigation	Trial2	navigation/STIM_003.jpg	99
873.047	1.841	1840.6	navigation	Trial2	navigation/STIM_003.jpg	100
878.469	1.486	1485.7	navigation	Trial2	navigation/STIM_003.jpg	100
882.189	1.573	1572.8	navigation	Trial2	navigation/STIM_003.jpg	99
886.67	1.421	1421.1	navigation	Trial2	navigation/STIM_003.jpg	99
891.918	2.953	2953.0	navigation	Trial2	navigation/STIM_003.jpg	99
898.734	2.428	2427.7	navigation	Trial2	navigation/STIM_004.jpg	99
904.944	2.638	2637.5	navigation	Trial2	navigation/STIM_004.jpg	99
910.979	2.649	2648.9	navigation	Trial2	navigation/STIM_004.jpg	99
916.885	1.242	1241.5	navigation	Trial2	navigation/STIM_004.jpg	99
922.123	2.742	2742.5	navigation	Trial2	navigation/STIM_004.jpg	99
928.304	2.528	2527.8	navigation	Trial2	navigation/STIM_004.jpg	99
933.231	2.506	2506.0	navigation	Trial2	navigation/STIM_005.jpg	99
938.999	3.342	3342.3	navigation	Trial2	navigation/STIM_005.jpg	99
945.801	1.95	1949.8	navigation	Trial2	navigation/STIM_005.jpg	100
950.479	3.011	3011.4	navigation	Trial2	navigation/STIM_005.jpg	99
956.427	2.65	2649.8	navigation	Trial2	navigation/STIM_005.jpg	99
962.445	3.023	3023.4	navigation	Trial2	navigation/STIM_005.jpg	100
967.904	2.26	2260.4	navigation	Trial2	navigation/STIM_006.jpg	100
972.526	2.831	2830.7	navigation	Trial2	navigation/STIM_006.jpg	100
978.244	3.067	3066.8	navigation	Trial2	navigation/STIM_006.jpg	99
984.577	2.227	2227.1	navigation	Trial2	navigation/STIM_006.jpg	100
989.333	2.314	2313.8	navigation	Trial2	navigation/STIM_006.jpg	100
994.362	2.284	2284.4	navigation	Trial2	navigation/STIM_006.jpg	99
999.489	1.586	1585.5	navigation	Trial2	navigation/STIM_007.jpg	99
1004.603	2.561	2561.2	navigation	Trial2	navigation/STIM_007.jpg	99
1010.141	2.688	2687.9	navigation	Trial2	navigation/STIM_007.jpg	100
1016.151	2.834	2833.5	navigation	Trial2	navigation/STIM_007.jpg	100
1023.042	1.74	1740.5	navigation	Trial2	navigation/STIM_007.jpg	100
1028.02	1.805	1805.3	navigation	Trial2	navigation/STIM_007.jpg	99
1033.771	2.055	2054.8	navigation	Trial2	navigation/STIM_008.jpg	100
1039.991	3.068	3067.9	navigation	Trial2	navigation/STIM_008.jpg	100
1046.678	2.476	2475.8	navigation	Trial2	navigation/STIM_008.jpg	99
1051.619	2.035	2035.5	navigation	Trial2	navigation/STIM_008.jpg	99
1056.665	1.445	1445.3	navigation	Trial2	navigation/STIM_008.jpg	99
1060.61	1.351	1351.2	navigation	Trial2	navigation/STIM_008.jpg	99
1065.428	2.509	2509.1	navigation	Trial2	navigation/STIM_009.jpg	99
1070.641	2.622	2622.2	navigation	Trial2	navigation/STIM_009.jpg	99
1075.906	2.707	2706.8	navigation	Trial2	navigation/STIM_009.jpg	99
1081.307	2.99	2989.6	navigation	Trial2	navigation/STIM_009.jpg	99
1086.761	2.818	2818.0	navigation	Trial2	navigation/STIM_009.jpg	99
1093.226	2.348	2348.1	navigation	Trial2	navigation/STIM_009.jpg	100
1099.218	2.193	2193.2	navigation	Trial2	navigation/STIM_010.jpg	100
1104.089	2.763	2763.4	navigation	Trial2	navigation/STIM_010.jpg	100
1110.094	1.533	1533.3	navigation	Trial2	navigation/STIM_010.jpg	99
1113.917	2.218	2217.5	navigation	Trial2	navigation/STIM_010.jpg	99
1119.993	1.678	1678.2	navigation	Trial2	navigation/STIM_010.jpg	100
1125.779	2.59	2590.3	navigation	Trial2	navigation/STIM_010.jpg	100
1131.861	2.768	2768.0	navigation	Trial2	navigation/STIM_011.jpg	99
1138.462	3.495	3495.4	navigation	Trial2	navigation/STIM_011.jpg	100
1145.077	1.621	1620.6	navigation	Trial2	navigation/STIM_011.jpg	99
1150.273	2.557	2557.1	navigation	Trial2	navigation/STIM_011.jpg	100
1156.891	2.581	2581.4	navigation	Trial2	navigation/STIM_011.jpg	100
1162.045	2.163	2162.8	navigation	Trial2	navigation/STIM_011.jpg	99
1168.078	1.057	1057.4	pointing	Trial2	pointing/STIM_000.jpg	99
1172.533	1.086	1086.1	pointing	Trial2	pointing/STIM_000.jpg	100
1177.727	0.916	916.0	pointing	Trial2	pointing/STIM_000.jpg	100
1181.492	0.776	776.3	pointing	Trial2	pointing/STIM_000.jpg	100
1185.835	1.38	1379.5	pointing	Trial2	pointing/STIM_000.jpg	100
1190.419	0.96	959.5	pointing	Trial2	pointing/STIM_000.jpg	99
1194.142	1.1	1099.8	pointing	Trial2	pointing/STIM_001.jpg	99
1198.983	1.244	1244.1	pointing	Trial2	pointing/STIM_001.jpg	100
1204.423	0.851	850.7	pointing	Trial2	pointing/STIM_001.jpg	99
1207.82	0.989	989.2	pointing	Trial2	pointing/STIM_001.jpg	100
1211.101	0.724	724.1	pointing	Trial2	pointing/STIM_001.jpg	99
1215.541	0.933	932.6	pointing	Trial2	pointing/STIM_001.jpg	99
1219.769	0.866	865.7	pointing	Trial2	pointing/STIM_002.jpg	99
1223.943	1.252	1252.3	pointing	Trial2	pointing/STIM_002.jpg	99
1227.65	0.972	971.8	pointing	Trial2	pointing/STIM_002.jpg	99
1231.687	0.971	971.3	pointing	Trial2	pointing/STIM_002.jpg	99
1236.577	1.106	1105.6	pointing	Trial2	pointing/STIM_002.jpg	100
1241.363	1.183	1183.1	pointing	Trial2	pointing/STIM_002.jpg	100
1245.433	0.702	701.5	pointing	Trial2	pointing/STIM_003.jpg	100
1249.258	0.979	978.6	pointing	Trial2	pointing/STIM_003.jpg	100
1253.402	0.824	823.9	pointing	Trial2	pointing/STIM_003.jpg	100
1257.888	1.054	1054.1	pointing	Trial2	pointing/STIM_003.jpg	100
1262.958	1.093	1092.7	pointing	Trial2	pointing/STIM_003.jpg	100
1267.008	1.292	1291.9	pointing	Trial2	pointing/STIM_003.jpg	100
1271.519	0.803	802.9	pointing	Trial2	pointing/STIM_004.jpg	99
1275.178	0.878	878.0	pointing	Trial2	pointing/STIM_004.jpg	99
1278.692	0.767	767.4	pointing	Trial2	pointing/STIM_004.jpg	100
1283.318	1.399	1398.7	pointing	Trial2	pointing/STIM_004.jpg	99
1287.849	0.811	811.0	pointing	Trial2	pointing/STIM_004.jpg	100
1292.222	1.313	1313.1	pointing	Trial2	pointing/STIM_004.jpg	100
1297.249	0.714	713.6	pointing	Trial2	pointing/STIM_005.jpg	99
1301.034	1.182	1181.5	pointing	Trial2	pointing/STIM_005.jpg	100
1306.28	0.835	835.2	pointing	Trial2	pointing/STIM_005.jpg	99
1310.957	1.086	1086.5	pointing	Trial2	pointing/STIM_005.jpg	100
1314.723	0.76	760.0	pointing	Trial2	pointing/STIM_005.jpg	100
1319.32	0.872	871.9	pointing	Trial2	pointing/STIM_005.jpg	99
1323.696	1.128	1128.4	pointing	Trial2	pointing/STIM_006.jpg	100
1328.766	0.962	961.7	pointing	Trial2	pointing/STIM_006.jpg	100
1333.142	1.142	1142.0	pointing	Trial2	pointing/STIM_006.jpg	99
1336.736	1.056	1055.5	pointing	Trial2	pointing/STIM_006.jpg	99
1340.328	1.156	1155.7	pointing	Trial2	pointing/STIM_006.jpg	99
1345.306	1.038	1038.1	pointing	Trial2	pointing/STIM_006.jpg	99
1350.096	0.961	960.8	pointing	Trial2	pointing/STIM_007.jpg	99
1354.808	1.067	1067.2	pointing	Trial2	pointing/STIM_007.jpg	100
1358.395	1.12	1119.9	pointing	Trial2	pointing/STIM_007.jpg	99
1362.342	0.85	849.8	pointing	Trial2	pointing/STIM_007.jpg	100
1367.118	0.814	814.4	pointing	Trial2	pointing/STIM_007.jpg	100
1372.061	1.098	1097.8	pointing	Trial2	pointing/STIM_007.jpg	99
1375.606	1.202	1202.0	pointing	Trial2	pointing/STIM_008.jpg	99
1379.856	0.886	885.7	pointing	Trial2	pointing/STIM_008.jpg	99
1383.615	0.718	718.1	pointing	Trial2	pointing/STIM_008.jpg	100
1386.683	0.957	956.6	pointing	Trial2	pointing/STIM_008.jpg	100
1390.92	0.932	932.4	pointing	Trial2	pointing/STIM_008.jpg	99
1394.552	1.0	1000.5	pointing	Trial2	pointing/STIM_008.jpg	99
1398.613	1.139	1139.2	pointing	Trial2	pointing/STIM_009.jpg	99
1402.101	0.784	784.2	pointing	Trial2	pointing/STIM_009.jpg	100
1406.89	1.069	1069.4	pointing	Trial2	pointing/STIM_009.jpg	100
1411.995	0.78	779.9	pointing	Trial2	pointing/STIM_009.jpg	99
1415.382	1.183	1182.8	pointing	Trial2	pointing/STIM_009.jpg	100
1420.256	0.823	822.8	pointing	Trial2	pointing/STIM_009.jpg	99
1425.069	0.81	809.8	pointing	Trial2	pointing/STIM_010.jpg	100
1429.45	1.301	1301.0	pointing	Trial2	pointing/STIM_010.jpg	100
1433.478	1.316	1315.5	pointing	Trial2	pointing/STIM_010.jpg	100
1436.926	0.874	874.2	pointing	Trial2	pointing/STIM_010.jpg	100
1441.092	1.204	1204.1	pointing	Trial2	pointing/STIM_010.jpg	100
1445.905	1.102	1102.4	pointing	Trial2	pointing/STIM_010.jpg	99
1450.069	0.751	751.1	pointing	Trial2	pointing/STIM_011.jpg	100
1453.827	1.177	1177.0	pointing	Trial2	pointing/STIM_011.jpg	100
1457.413	0.699	698.7	pointing	Trial2	pointing/STIM_011.jpg	99
1460.913	1.248	1248.1	pointing	Trial2	pointing/STIM_011.jpg	100
1464.529	0.946	945.9	pointing	Trial2	pointing/STIM_011.jpg	100
1469.358	1.183	1182.9	pointing	Trial2	pointing/STIM_011.jpg	99
1472.953	1.658	1657.5	navigation	Trial3	navigation/STIM_000.jpg	99
1477.353	1.85	1850.4	navigation	Trial3	navigation/STIM_000.jpg	100
1483.163	2.538	2537.7	navigation	Trial3	navigation/STIM_000.jpg	100
1488.126	2.005	2004.9	navigation	Trial3	navigation/STIM_000.jpg	100
1492.569	2.794	2794.2	navigation	Trial3	navigation/STIM_000.jpg	100
1499.116	1.551	1551.1	navigation	Trial3	navigation/STIM_000.jpg	100
1504.632	1.99	1989.6	navigation	Trial3	navigation/STIM_001.jpg	100
1510.35	2.385	2384.9	navigation	Trial3	navigation/STIM_001.jpg	99
1516.304	2.03	2029.5	navigation	Trial3	navigation/STIM_001.jpg	99
1522.151	1.857	1857.2	navigation	Trial3	navigation/STIM_001.jpg	99
1527.329	1.398	1397.9	navigation	Trial3	navigation/STIM_001.jpg	100
1530.912	1.841	1841.0	navigation	Trial3	navigation/STIM_001.jpg	99
1535.879	2.747	2747.4	navigation	Trial3	navigation/STIM_002.jpg	99
1541.647	1.832	1831.5	navigation	Trial3	navigation/STIM_002.jpg	99
1546.562	1.994	1993.5	navigation	Trial3	navigation/STIM_002.jpg	100
1551.005	1.9	1900.0	navigation	Trial3	navigation/STIM_002.jpg	99
1555.603	2.28	2279.9	navigation	Trial3	navigation/STIM_002.jpg	99
1561.899	1.469	1469.3	navigation	Trial3	navigation/STIM_002.jpg	99
1566.879	1.59	1590.3	navigation	Trial3	navigation/STIM_003.jpg	100
1572.05	2.616	2616.5	navigation	Trial3	navigation/STIM_003.jpg	100
1577.844	2.514	2514.5	navigation	Trial3	navigation/STIM_003.jpg	100
1584.69	1.955	1954.8	navigation	Trial3	navigation/STIM_003.jpg	100
1590.705	1.986	1985.8	navigation	Trial3	navigation/STIM_003.jpg	100
1595.972	2.06	2059.9	navigation	Trial3	navigation/STIM_003.jpg	99
1600.777	2.517	2516.8	navigation	Trial3	navigation/STIM_004.jpg	100
1607.613	2.329	2328.6	navigation	Trial3	navigation/STIM_004.jpg	99
1613.4	1.216	1216.4	navigation	Trial3	navigation/STIM_004.jpg	100
1616.863	1.66	1659.7	navigation	Trial3	navigation/STIM_004.jpg	99
1622.266	2.664	2664.2	navigation	Trial3	navigation/STIM_004.jpg	100
1627.355	2.546	2545.9	navigation	Trial3	navigation/STIM_004.jpg	99
1633.494	2.514	2514.1	navigation	Trial3	navigation/STIM_005.jpg	100
1639.039	1.576	1576.2	navigation	Trial3	navigation/STIM_005.jpg	99
1643.136	1.285	1284.7	navigation	Trial3	navigation/STIM_005.jpg	100
1646.696	2.932	2932.5	navigation	Trial3	navigation/STIM_005.jpg	99
1652.534	2.343	2343.1	navigation	Trial3	navigation/STIM_005.jpg	100
1658.572	2.45	2450.3	navigation	Trial3	navigation/STIM_005.jpg	100
1663.438	1.418	1418.5	navigation	Trial3	navigation/STIM_006.jpg	100
1668.862	2.222	2222.5	navigation	Trial3	navigation/STIM_006.jpg	100
1674.121	2.607	2606.8	navigation	Trial3	navigation/STIM_006.jpg	100
1679.765	1.892	1892.0	navigation	Trial3	navigation/STIM_006.jpg	99
1683.938	2.867	2867.1	navigation	Trial3	navigation/STIM_006.jpg	100
1690.555	2.778	2777.5	navigation	Trial3	navigation/STIM_006.jpg	99
1697.668	1.724	1723.7	navigation	Trial3	navigation/STIM_007.jpg	99
1702.241	2.676	2676.2	navigation	Trial3	navigation/STIM_007.jpg	100
1708.189	2.827	2827.4	navigation	Trial3	navigation/STIM_007.jpg	100
1714.15	1.765	1764.8	navigation	Trial3	navigation/STIM_007.jpg	100
1718.842	2.892	2892.1	navigation	Trial3	navigation/STIM_007.jpg	100
1724.828	1.892	1892.3	navigation	Trial3	navigation/STIM_007.jpg	99
1729.444	1.884	1884.2	navigation	Trial3	navigation/STIM_008.jpg	99
1735.128	2.764	2763.9	navigation	Trial3	navigation/STIM_008.jpg	99
1741.987	1.898	1897.8	navigation	Trial3	navigation/STIM_008.jpg	99
1747.059	1.407	1406.7	navigation	Trial3	navigation/STIM_008.jpg	99
1751.64	2.277	2276.9	navigation	Trial3	navigation/STIM_008.jpg	100
1757.072	2.432	2432.4	navigation	Trial3	navigation/STIM_008.jpg	99
1762.753	2.135	2135.3	navigation	Trial3	navigation/STIM_009.jpg	100
1767.781	2.494	2494.4	navigation	Trial3	navigation/STIM_009.jpg	99
1773.157	1.708	1708.2	navigation	Trial3	navigation/STIM_009.jpg	99
1777.916	2.853	2853.0	navigation	Trial3	navigation/STIM_009.jpg	99
1784.424	1.885	1885.4	navigation	Trial3	navigation/STIM_009.jpg	99
1790.438	2.428	2428.4	navigation	Trial3	navigation/STIM_009.jpg	100
1796.997	2.295	2294.8	navigation	Trial3	navigation/STIM_010.jpg	100
1802.982	1.916	1915.8	navigation	Trial3	navigation/STIM_010.jpg	100
1808.95	1.337	1337.1	navigation	Trial3	navigation/STIM_010.jpg	100
1812.687	2.832	2832.5	navigation	Trial3	navigation/STIM_010.jpg	99
1817.923	1.502	1502.5	navigation	Trial3	navigation/STIM_010.jpg	100
1821.974	1.945	1944.7	navigation	Trial3	navigation/STIM_010.jpg	100
1828.054	1.756	1756.0	navigation	Trial3	navigation/STIM_011.jpg	100
1833.004	2.075	2074.6	navigation	Trial3	navigation/STIM_011.jpg	99
1838.641	2.629	2628.6	navigation	Trial3	navigation/STIM_011.jpg	100
1843.652	1.911	1910.6	navigation	Trial3	navigation/STIM_011.jpg	100
1849.655	2.695	2695.4	navigation	Trial3	navigation/STIM_011.jpg	99
1855.804	1.441	1440.9	navigation	Trial3	navigation/STIM_011.jpg	99
1861.231	1.194	1193.6	pointing	Trial3	pointing/STIM_000.jpg	99
1865.113	0.943	943.4	pointing	Trial3	pointing/STIM_000.jpg	100
1869.491	0.998	998.2	pointing	Trial3	pointing/STIM_000.jpg	99
1872.596	0.933	932.8	pointing	Trial3	pointing/STIM_000.jpg	99
1877.572	0.8	799.8	pointing	Trial3	pointing/STIM_000.jpg	99
1880.863	0.788	787.7	pointing	Trial3	pointing/STIM_000.jpg	99
1885.568	0.843	843.0	pointing	Trial3	pointing/STIM_001.jpg	100
1889.809	1.148	1147.8	pointing	Trial3	pointing/STIM_001.jpg	100
1893.153	1.196	1196.3	pointing	Trial3	pointing/STIM_001.jpg	99
1898.09	1.034	1034.4	pointing	Trial3	pointing/STIM_001.jpg	99
1902.922	1.326	1325.5	pointing	Trial3	pointing/STIM_001.jpg	100
1907.696	0.84	839.5	pointing	Trial3	pointing/STIM_001.jpg	99
1910.572	1.111	1111.2	pointing	Trial3	pointing/STIM_002.jpg	99
1914.519	1.054	1053.8	pointing	Trial3	pointing/STIM_002.jpg	100
1918.728	0.908	907.9	pointing	Trial3	pointing/STIM_002.jpg	99
1922.289	1.175	1175.2	pointing	Trial3	pointing/STIM_002.jpg	100
1927.273	1.124	1124.0	pointing	Trial3	pointing/STIM_002.jpg	99
1932.369	1.233	1232.6	pointing	Trial3	pointing/STIM_002.jpg	99
1936.459	0.693	692.9	pointing	Trial3	pointing/STIM_003.jpg	99
1940.902	0.823	823.4	pointing	Trial3	pointing/STIM_003.jpg	100
1945.116	0.977	976.9	pointing	Trial3	pointing/STIM_003.jpg	99
1949.15	1.066	1065.9	pointing	Trial3	pointing/STIM_003.jpg	99
1952.679	0.889	889.0	pointing	Trial3	pointing/STIM_003.jpg	100
1957.253	0.804	804.0	pointing	Trial3	pointing/STIM_003.jpg	100
1960.343	0.984	984.3	pointing	Trial3	pointing/STIM_004.jpg	99
1965.225	1.008	1008.4	pointing	Trial3	pointing/STIM_004.jpg	100
1969.164	0.853	853.4	pointing	Trial3	pointing/STIM_004.jpg	100
1973.48	1.379	1379.1	pointing	Trial3	pointing/STIM_004.jpg	99
1977.638	1.057	1056.8	pointing	Trial3	pointing/STIM_004.jpg	99
1982.539	0.761	761.1	pointing	Trial3	pointing/STIM_004.jpg	99
1987.16	0.778	777.9	pointing	Trial3	pointing/STIM_005.jpg	100
1990.756	1.21	1210.4	pointing	Trial3	pointing/STIM_005.jpg	100
1994.328	1.161	1161.2	pointing	Trial3	pointing/STIM_005.jpg	100
1998.579	0.889	889.0	pointing	Trial3	pointing/STIM_005.jpg	99
2001.977	0.887	887.1	pointing	Trial3	pointing/STIM_005.jpg	99
2006.181	1.271	1270.7	pointing	Trial3	pointing/STIM_005.jpg	100
2010.07	1.03	1029.9	pointing	Trial3	pointing/STIM_006.jpg	99
2014.869	1.234	1233.6	pointing	Trial3	pointing/STIM_006.jpg	100
2018.819	1.079	1079.4	pointing	Trial3	pointing/STIM_006.jpg	100
2022.333	0.95	950.4	pointing	Trial3	pointing/STIM_006.jpg	100
2025.733	0.954	954.3	pointing	Trial3	pointing/STIM_006.jpg	100
2030.074	0.775	774.7	pointing	Trial3	pointing/STIM_006.jpg	99
2034.456	1.318	1318.5	pointing	Trial3	pointing/STIM_007.jpg	100
2039.236	0.986	986.5	pointing	Trial3	pointing/STIM_007.jpg	100
2043.938	1.309	1308.7	pointing	Trial3	pointing/STIM_007.jpg	99
2047.67	0.764	763.7	pointing	Trial3	pointing/STIM_007.jpg	100
2051.244	0.88	880.1	pointing	Trial3	pointing/STIM_007.jpg	100
2055.476	1.145	1144.9	pointing	Trial3	pointing/STIM_007.jpg	99
2059.793	1.217	1217.3	pointing	Trial3	pointing/STIM_008.jpg	99
2064.411	1.299	1299.0	pointing	Trial3	pointing/STIM_008.jpg	99
2068.772	0.837	837.2	pointing	Trial3	pointing/STIM_008.jpg	99
2072.42	0.931	931.4	pointing	Trial3	pointing/STIM_008.jpg	99
2075.978	1.143	1143.3	pointing	Trial3	pointing/STIM_008.jpg	100
2079.809	0.907	907.1	pointing	Trial3	pointing/STIM_008.jpg	99
2084.806	1.033	1033.3	pointing	Trial3	pointing/STIM_009.jpg	100
2088.309	0.851	850.9	pointing	Trial3	pointing/STIM_009.jpg	99
2092.84	0.763	763.0	pointing	Trial3	pointing/STIM_009.jpg	100
2096.257	0.972	971.6	pointing	Trial3	pointing/STIM_009.jpg	100
2101.387	1.296	1295.6	pointing	Trial3	pointing/STIM_009.jpg	100
2105.237	0.781	781.0	pointing	Trial3	pointing/STIM_009.jpg	99
2109.207	1.016	1016.0	pointing	Trial3	pointing/STIM_010.jpg	99
2113.89	0.718	717.5	pointing	Trial3	pointing/STIM_010.jpg	99
2117.343	1.185	1184.8	pointing	Trial3	pointing/STIM_010.jpg	99
2121.969	1.02	1019.7	pointing	Trial3	pointing/STIM_010.jpg	100
2126.789	1.235	1235.1	pointing	Trial3	pointing/STIM_010.jpg	100
2130.616	0.758	757.7	pointing	Trial3	pointing/STIM_010.jpg	100
2134.208	1.147	1146.6	pointing	Trial3	pointing/STIM_011.jpg	100
2138.686	1.058	1057.9	pointing	Trial3	pointing/STIM_011.jpg	100
2142.712	0.911	911.3	pointing	Trial3	pointing/STIM_011.jpg	100
2146.991	1.259	1259.2	pointing	Trial3	pointing/STIM_011.jpg	99
2151.338	1.213	1212.6	pointing	Trial3	pointing/STIM_011.jpg	100
2156.512	1.007	1006.7	pointing	Trial3	pointing/STIM_011.jpg	99
