onset	duration	response_time_ms	trial_type	learning_stage	stimulus	response_port
0.0	2.576	2575.9	regulate	Run1	regulate/STIM_000.jpg	99
5.826	2.092	2092.1	regulate	Run1	regulate/STIM_000.jpg	100
11.072	2.017	2016.5	regulate	Run1	regulate/STIM_000.jpg	100
15.974	2.084	2083.8	regulate	Run1	regulate/STIM_000.jpg	99
20.925	1.79	1789.7	regulate	Run1	regulate/STIM_001.jpg	100
25.197	1.288	1288.2	regulate	Run1	regulate/STIM_001.jpg	100
29.159	2.252	2252.0	regulate	Run1	regulate/STIM_001.jpg	99
34.873	1.332	1331.7	regulate	Run1	regulate/STIM_001.jpg	99
38.796	1.636	1635.6	regulate	Run1	regulate/STIM_002.jpg	100
43.506	2.393	2392.7	regulate	Run1	regulate/STIM_002.jpg	100
48.356	1.612	1612.1	regulate	Run1	regulate/STIM_002.jpg	100
53.542	1.288	1288.4	regulate	Run1	regulate/STIM_002.jpg	100
57.431	1.812	1811.7	regulate	Run1	regulate/STIM_003.jpg	99
61.523	1.824	1823.8	regulate	Run1	regulate/STIM_003.jpg	99
67.269	1.935	1934.8	regulate	Run1	regulate/STIM_003.jpg	100
72.283	1.723	1722.9	regulate	Run1	regulate/STIM_003.jpg	99
76.401	2.321	2320.6	regulate	Run1	regulate/STIM_004.jpg	99
81.84	1.807	1807.1	regulate	Run1	regulate/STIM_004.jpg	99
87.303	1.826	1825.6	regulate	Run1	regulate/STIM_004.jpg	99
92.322	1.374	1373.7	regulate	Run1	regulate/STIM_004.jpg	100
96.502	1.86	1859.7	regulate	Run1	regulate/STIM_005.jpg	100
101.272	2.099	2098.7	regulate	Run1	regulate/STIM_005.jpg	99
105.608	2.031	2030.9	regulate	Run1	regulate/STIM_005.jpg	100
109.871	1.755	1754.6	regulate	Run1	regulate/STIM_005.jpg	100
114.127	2.408	2408.2	regulate	Run1	regulate/STIM_006.jpg	100
119.588	2.477	2476.6	regulate	Run1	regulate/STIM_006.jpg	99
124.658	1.131	1131.2	regulate	Run1	regulate/STIM_006.jpg	99
129.188	1.066	1066.2	regulate	Run1	regulate/STIM_006.jpg	99
133.849	1.921	1921.3	regulate	Run1	regulate/STIM_007.jpg	100
139.371	1.529	1528.6	regulate	Run1	regulate/STIM_007.jpg	100
144.48	2.28	2280.5	regulate	Run1	regulate/STIM_007.jpg	100
149.03	1.094	1093.8	regulate	Run1	regulate/STIM_007.jpg	100
153.98	2.45	2449.8	regulate	Run1	regulate/STIM_008.jpg	100
160.025	1.502	1501.7	regulate	Run1	regulate/STIM_008.jpg	100
164.616	1.952	1951.6	regulate	Run1	regulate/STIM_008.jpg	100
169.428	2.158	2157.8	regulate	Run1	regulate/STIM_008.jpg	99
174.658	2.101	2101.2	regulate	Run1	regulate/STIM_009.jpg	99
180.448	1.235	1234.7	regulate	Run1	regulate/STIM_009.jpg	99
185.643	1.146	1145.7	regulate	Run1	regulate/STIM_009.jpg	100
189.055	2.055	2055.0	regulate	Run1	regulate/STIM_009.jpg	99
193.532	2.608	2608.1	regulate	Run1	regulate/STIM_010.jpg	100
198.447	2.3	2299.5	regulate	Run1	regulate/STIM_010.jpg	100
204.43	1.639	1638.6	regulate	Run1	regulate/STIM_010.jpg	100
209.167	1.354	1354.1	regulate	Run1	regulate/STIM_010.jpg	100
214.084	2.566	2566.0	regulate	Run1	regulate/STIM_011.jpg	100
218.846	2.104	2104.2	regulate	Run1	regulate/STIM_011.jpg	99
224.257	1.282	1281.7	regulate	Run1	regulate/STIM_011.jpg	99
228.519	1.065	1064.8	regulate	Run1	regulate/STIM_011.jpg	100
232.159	1.159	1158.8	regulate	Run1	regulate/STIM_012.jpg	99
235.379	1.986	1986.1	regulate	Run1	regulate/STIM_012.jpg	100
241.155	1.537	1537.1	regulate	Run1	regulate/STIM_012.jpg	100
245.308	2.126	2126.5	regulate	Run1	regulate/STIM_012.jpg	100
249.485	1.484	1483.7	regulate	Run1	regulate/STIM_013.jpg	99
253.148	1.604	1604.2	regulate	Run1	regulate/STIM_013.jpg	99
258.072	2.418	2418.5	regulate	Run1	regulate/STIM_013.jpg	99
263.465	2.226	2225.8	regulate	Run1	regulate/STIM_013.jpg	100
269.374	1.704	1703.6	regulate	Run1	regulate/STIM_014.jpg	99
274.154	2.145	2145.3	regulate	Run1	regulate/STIM_014.jpg	100
278.515	1.121	1120.6	regulate	Run1	regulate/STIM_014.jpg	100
283.198	1.396	1395.7	regulate	Run1	regulate/STIM_014.jpg	100
287.727	2.073	2072.7	regulate	Run1	regulate/STIM_015.jpg	100
292.001	1.884	1883.7	regulate	Run1	regulate/STIM_015.jpg	100
296.458	1.963	1963.1	regulate	Run1	regulate/STIM_015.jpg	99
302.187	1.106	1105.5	regulate	Run1	regulate/STIM_015.jpg	99
305.495	2.25	2249.5	regulate	Run1	regulate/STIM_016.jpg	100
310.431	2.226	2226.2	regulate	Run1	regulate/STIM_016.jpg	99
315.329	1.329	1328.7	regulate	Run1	regulate/STIM_016.jpg	99
318.932	1.401	1401.0	regulate	Run1	regulate/STIM_016.jpg	100
323.582	2.123	2122.9	regulate	Run1	regulate/STIM_017.jpg	100
328.514	1.831	1830.6	regulate	Run1	regulate/STIM_017.jpg	99
332.654	2.265	2265.4	regulate	Run1	regulate/STIM_017.jpg	99
337.82	1.286	1286.5	regulate	Run1	regulate/STIM_017.jpg	99
342.091	2.459	2458.7	regulate	Run1	regulate/STIM_018.jpg	99
348.088	2.036	2036.4	regulate	Run1	regulate/STIM_018.jpg	99
354.114	1.262	1262.5	regulate	Run1	regulate/STIM_018.jpg	99
359.045	1.663	1662.6	regulate	Run1	regulate/STIM_018.jpg	99
363.793	2.203	2202.7	regulate	Run1	regulate/STIM_019.jpg	100
369.433	1.122	1121.6	regulate	Run1	regulate/STIM_019.jpg	100
373.815	1.855	1854.8	regulate	Run1	regulate/STIM_019.jpg	99
378.115	1.55	1549.8	regulate	Run1	regulate/STIM_019.jpg	99
382.559	2.455	2455.4	regulate	Run1	regulate/STIM_020.jpg	99
388.968	1.818	1818.5	regulate	Run1	regulate/STIM_020.jpg	99
394.742	1.329	1328.7	regulate	Run1	regulate/STIM_020.jpg	100
398.859	1.928	1928.5	regulate	Run1	regulate/STIM_020.jpg	99
403.972	1.719	1718.6	regulate	Run1	regulate/STIM_021.jpg	99
409.104	2.11	2109.6	regulate	Run1	regulate/STIM_021.jpg	99
414.976	2.108	2108.2	regulate	Run1	regulate/STIM_021.jpg	99
420.106	1.998	1997.6	regulate	Run1	regulate/STIM_021.jpg	100
424.287	2.076	2076.5	regulate	Run1	regulate/STIM_022.jpg	99
430.037	2.508	2507.6	regulate	Run1	regulate/STIM_022.jpg	99
435.872	2.385	2384.6	regulate	Run1	regulate/STIM_022.jpg	99
440.901	1.897	1897.0	regulate	Run1	regulate/STIM_022.jpg	99
446.319	2.248	2247.9	regulate	Run1	regulate/STIM_023.jpg	99
451.082	1.677	1677.1	regulate	Run1	regulate/STIM_023.jpg	100
456.093	2.069	2068.7	regulate	Run1	regulate/STIM_023.jpg	100
461.989	2.094	2093.9	regulate	Run1	regulate/STIM_023.jpg	99
466.131	2.589	2589.3	regulate	Run1	regulate/STIM_024.jpg	99
471.946	1.874	1873.7	regulate	Run1	regulate/STIM_024.jpg	100
477.118	1.229	1229.2	regulate	Run1	regulate/STIM_024.jpg	99
481.099	1.353	1352.6	regulate	Run1	regulate/STIM_024.jpg	100
485.779	1.447	1446.7	regulate	Run1	regulate/STIM_025.jpg	100
489.445	1.694	1694.3	regulate	Run1	regulate/STIM_025.jpg	100
494.423	1.92	1920.0	regulate	Run1	regulate/STIM_025.jpg	100
499.264	1.706	1706.0	regulate	Run1	regulate/STIM_025.jpg	99
504.205	2.078	2078.4	regulate	Run1	regulate/STIM_026.jpg	99
508.488	2.51	2509.8	regulate	Run1	regulate/STIM_026.jpg	99
513.527	2.284	2283.5	regulate	Run1	regulate/STIM_026.jpg	99
519.528	1.516	1515.5	regulate	Run1	regulate/STIM_026.jpg	100
523.242	2.131	2130.8	regulate	Run1	regulate/STIM_027.jpg	100
528.402	1.781	1781.0	regulate	Run1	regulate/STIM_027.jpg	100
532.364	1.423	1422.9	regulate	Run1	regulate/STIM_027.jpg	100
536.871	1.057	1057.0	regulate	Run1	regulate/STIM_027.jpg	100
540.262	2.218	2218.5	regulate	Run1	regulate/STIM_028.jpg	100
545.509	1.801	1801.1	regulate	Run1	regulate/STIM_028.jpg	100
550.096	1.729	1728.6	regulate	Run1	regulate/STIM_028.jpg	99
554.843	2.187	2186.9	regulate	Run1	regulate/STIM_028.jpg	99
559.355	2.362	2361.7	regulate	Run1	regulate/STIM_029.jpg	99
564.47	1.63	1629.8	regulate	Run1	regulate/STIM_029.jpg	99
568.751	1.943	1943.4	regulate	Run1	regulate/STIM_029.jpg	99
573.978	1.636	1635.9	regulate	Run1	regulate/STIM_029.jpg	100
577.783	0.979	979.4	observe	Run1	observe/STIM_000.jpg	100
582.381	0.96	959.5	observe	Run1	observe/STIM_000.jpg	99
585.515	1.099	1098.6	observe	Run1	observe/STIM_000.jpg	99
589.998	0.799	798.7	observe	Run1	observe/STIM_000.jpg	100
593.569	1.003	1002.6	observe	Run1	observe/STIM_001.jpg	99
598.156	0.969	969.2	observe	Run1	observe/STIM_001.jpg	99
601.429	0.623	622.9	observe	Run1	observe/STIM_001.jpg	99
605.776	0.872	872.5	observe	Run1	observe/STIM_001.jpg	100
609.831	0.955	954.7	observe	Run1	observe/STIM_002.jpg	100
613.643	0.873	872.9	observe	Run1	observe/STIM_002.jpg	99
617.141	0.717	716.9	observe	Run1	observe/STIM_002.jpg	99
621.539	1.214	1213.5	observe	Run1	observe/STIM_002.jpg	100
626.049	0.851	851.4	observe	Run1	observe/STIM_003.jpg	99
630.764	0.73	729.6	observe	Run1	observe/STIM_003.jpg	99
635.454	1.098	1097.9	observe	Run1	observe/STIM_003.jpg	99
640.455	0.981	980.9	observe	Run1	observe/STIM_003.jpg	100
644.493	0.746	746.4	observe	Run1	observe/STIM_004.jpg	99
647.521	0.763	762.8	observe	Run1	observe/STIM_004.jpg	100
650.855	0.872	872.5	observe	Run1	observe/STIM_004.jpg	100
654.693	1.108	1108.3	observe	Run1	observe/STIM_004.jpg	100
659.776	0.662	662.0	observe	Run1	observe/STIM_005.jpg	99
663.718	0.763	763.1	observe	Run1	observe/STIM_005.jpg	99
667.618	1.086	1086.3	observe	Run1	observe/STIM_005.jpg	99
671.648	0.895	895.0	observe	Run1	observe/STIM_005.jpg	99
675.914	0.749	748.9	observe	Run1	observe/STIM_006.jpg	99
679.67	1.083	1083.0	observe	Run1	observe/STIM_006.jpg	100
684.561	0.915	915.4	observe	Run1	observe/STIM_006.jpg	99
689.112	0.676	676.1	observe	Run1	observe/STIM_006.jpg	100
692.994	1.2	1199.6	observe	Run1	observe/STIM_007.jpg	99
697.424	1.107	1107.4	observe	Run1	observe/STIM_007.jpg	100
700.777	0.857	857.2	observe	Run1	observe/STIM_007.jpg	99
704.187	0.737	737.1	observe	Run1	observe/STIM_007.jpg	99
707.096	0.649	648.8	observe	Run1	observe/STIM_008.jpg	100
710.116	0.844	843.7	observe	Run1	observe/STIM_008.jpg	99
713.499	0.823	823.2	observe	Run1	observe/STIM_008.jpg	99
716.785	1.008	1008.0	observe	Run1	observe/STIM_008.jpg	100
720.619	1.22	1219.7	observe	Run1	observe/STIM_009.jpg	100
725.519	1.067	1067.4	observe	Run1	observe/STIM_009.jpg	99
728.907	0.909	909.1	observe	Run1	observe/STIM_009.jpg	99
733.814	0.843	843.2	observe	Run1	observe/STIM_009.jpg	100
738.601	0.781	780.6	observe	Run1	observe/STIM_010.jpg	99
743.05	1.061	1060.8	observe	Run1	observe/STIM_010.jpg	99
747.861	0.977	977.0	observe	Run1	observe/STIM_010.jpg	99
751.725	0.636	636.1	observe	Run1	observe/STIM_010.jpg	100
755.359	0.65	650.0	observe	Run1	observe/STIM_011.jpg	100
758.408	0.945	945.3	observe	Run1	observe/STIM_011.jpg	100
761.431	0.828	828.2	observe	Run1	observe/STIM_011.jpg	99
766.024	0.705	704.9	observe	Run1	observe/STIM_011.jpg	100
770.182	1.163	1162.7	observe	Run1	observe/STIM_012.jpg	100
774.536	1.016	1016.5	observe	Run1	observe/STIM_012.jpg	100
778.259	0.627	627.2	observe	Run1	observe/STIM_012.jpg	99
782.49	1.206	1206.0	observe	Run1	observe/STIM_012.jpg	99
786.856	0.98	980.4	observe	Run1	observe/STIM_013.jpg	99
790.261	1.192	1192.4	observe	Run1	observe/STIM_013.jpg	99
794.409	0.636	635.9	observe	Run1	observe/STIM_013.jpg	100
797.744	0.738	738.3	observe	Run1	observe/STIM_013.jpg	99
801.225	0.909	909.0	observe	Run1	observe/STIM_014.jpg	99
804.621	0.862	862.5	observe	Run1	observe/STIM_014.jpg	99
808.478	1.091	1090.7	observe	Run1	observe/STIM_014.jpg	99
812.352	1.192	1192.3	observe	Run1	observe/STIM_014.jpg	100
815.823	0.911	910.6	observe	Run1	observe/STIM_015.jpg	100
819.034	1.019	1019.2	observe	Run1	observe/STIM_015.jpg	100
823.028	0.752	751.6	observe	Run1	observe/STIM_015.jpg	99
827.3	1.04	1040.1	observe	Run1	observe/STIM_015.jpg	99
830.539	1.053	1052.7	observe	Run1	observe/STIM_016.jpg	99
834.278	0.882	881.7	observe	Run1	observe/STIM_016.jpg	99
838.659	1.086	1086.1	observe	Run1	observe/STIM_016.jpg	99
843.614	0.849	849.4	observe	Run1	observe/STIM_016.jpg	99
847.068	1.006	1006.0	observe	Run1	observe/STIM_017.jpg	100
850.798	1.133	1133.4	observe	Run1	observe/STIM_017.jpg	99
854.797	0.84	839.6	observe	Run1	observe/STIM_017.jpg	100
858.421	0.861	861.3	observe	Run1	observe/STIM_017.jpg	99
861.354	0.9	899.5	observe	Run1	observe/STIM_018.jpg	99
864.325	0.893	893.0	observe	Run1	observe/STIM_018.jpg	100
867.86	0.834	834.0	observe	Run1	observe/STIM_018.jpg	100
871.354	0.712	711.8	observe	Run1	observe/STIM_018.jpg	100
875.324	1.101	1101.2	observe	Run1	observe/STIM_019.jpg	99
880.027	1.092	1092.4	observe	Run1	observe/STIM_019.jpg	99
884.511	1.205	1204.8	observe	Run1	observe/STIM_019.jpg	99
888.599	1.172	1172.0	observe	Run1	observe/STIM_019.jpg	99
892.261	2.216	2215.7	regulate	Run2	regulate/STIM_000.jpg	99
898.034	1.708	1708.0	regulate	Run2	regulate/STIM_000.jpg	100
902.23	1.354	1353.6	regulate	Run2	regulate/STIM_000.jpg	99
906.846	1.507	1507.0	regulate	Run2	regulate/STIM_000.jpg	99
911.883	1.83	1830.2	regulate	Run2	regulate/STIM_001.jpg	100
916.549	1.674	1673.5	regulate	Run2	regulate/STIM_001.jpg	99
920.356	1.881	1881.2	regulate	Run2	regulate/STIM_001.jpg	99
925.798	1.275	1274.8	regulate	Run2	regulate/STIM_001.jpg	99
929.982	1.013	1013.0	regulate	Run2	regulate/STIM_002.jpg	99
933.306	1.575	1575.3	regulate	Run2	regulate/STIM_002.jpg	100
937.381	2.023	2022.6	regulate	Run2	regulate/STIM_002.jpg	100
941.876	1.533	1533.2	regulate	Run2	regulate/STIM_002.jpg	100
946.008	1.133	1133.3	regulate	Run2	regulate/STIM_003.jpg	100
950.669	1.136	1135.6	regulate	Run2	regulate/STIM_003.jpg	99
954.513	1.791	1790.9	regulate	Run2	regulate/STIM_003.jpg	99
959.118	1.496	1496.2	regulate	Run2	regulate/STIM_003.jpg	100
963.209	1.882	1881.7	regulate	Run2	regulate/STIM_004.jpg	100
968.053	1.423	1422.8	regulate	Run2	regulate/STIM_004.jpg	100
971.783	1.964	1964.3	regulate	Run2	regulate/STIM_004.jpg	100
976.472	1.321	1321.2	regulate	Run2	regulate/STIM_004.jpg	99
980.228	1.335	1335.0	regulate	Run2	regulate/STIM_005.jpg	100
983.686	1.871	1871.4	regulate	Run2	regulate/STIM_005.jpg	100
987.951	1.563	1563.3	regulate	Run2	regulate/STIM_005.jpg	100
993.198	1.275	1274.8	regulate	Run2	regulate/STIM_005.jpg	99
997.193	1.137	1136.8	regulate	Run2	regulate/STIM_006.jpg	100
1001.802	1.352	1352.0	regulate	Run2	regulate/STIM_006.jpg	100
1005.371	1.443	1443.3	regulate	Run2	regulate/STIM_006.jpg	100
1010.427	0.946	946.4	regulate	Run2	regulate/STIM_006.jpg	99
1014.384	2.266	2266.5	regulate	Run2	regulate/STIM_007.jpg	100
1018.789	2.103	2103.2	regulate	Run2	regulate/STIM_007.jpg	99
1023.884	1.274	1274.0	regulate	Run2	regulate/STIM_007.jpg	100
1027.757	1.114	1114.3	regulate	Run2	regulate/STIM_007.jpg	99
1032.363	1.22	1219.6	regulate	Run2	regulate/STIM_008.jpg	99
1036.073	1.434	1434.4	regulate	Run2	regulate/STIM_008.jpg	99
1039.6	1.609	1608.8	regulate	Run2	regulate/STIM_008.jpg	99
1044.293	1.822	1821.6	regulate	Run2	regulate/STIM_008.jpg	100
1048.474	2.199	2198.9	regulate	Run2	regulate/STIM_009.jpg	99
1054.473	1.235	1235.0	regulate	Run2	regulate/STIM_009.jpg	100
1057.84	1.291	1291.1	regulate	Run2	regulate/STIM_009.jpg	100
1061.985	1.486	1486.3	regulate	Run2	regulate/STIM_009.jpg	99
1067.021	1.54	1540.5	regulate	Run2	regulate/STIM_010.jpg	100
1072.421	1.083	1082.7	regulate	Run2	regulate/STIM_010.jpg	99
1076.451	1.765	1764.6	regulate	Run2	regulate/STIM_010.jpg	100
1081.68	1.176	1175.9	regulate	Run2	regulate/STIM_010.jpg	99
1086.273	1.988	1988.5	regulate	Run2	regulate/STIM_011.jpg	99
1091.346	1.513	1512.9	regulate	Run2	regulate/STIM_011.jpg	100
1095.134	1.84	1840.4	regulate	Run2	regulate/STIM_011.jpg	100
1100.621	1.287	1287.2	regulate	Run2	regulate/STIM_011.jpg	99
1104.368	2.085	2085.3	regulate	Run2	regulate/STIM_012.jpg	100
1108.533	1.996	1996.2	regulate	Run2	regulate/STIM_012.jpg	99
1113.707	1.986	1986.5	regulate	Run2	regulate/STIM_012.jpg	100
1119.607	1.178	1178.2	regulate	Run2	regulate/STIM_012.jpg	99
1124.334	1.216	1216.5	regulate	Run2	regulate/STIM_013.jpg	100
1129.413	1.001	1000.9	regulate	Run2	regulate/STIM_013.jpg	100
1134.2	1.1	1100.2	regulate	Run2	regulate/STIM_013.jpg	99
1138.284	1.865	1865.3	regulate	Run2	regulate/STIM_013.jpg	100
1142.34	1.423	1422.6	regulate	Run2	regulate/STIM_014.jpg	100
1147.235	1.608	1607.5	regulate	Run2	regulate/STIM_014.jpg	100
1152.412	1.058	1057.7	regulate	Run2	regulate/STIM_014.jpg	100
1155.887	0.989	989.4	regulate	Run2	regulate/STIM_014.jpg	99
1159.787	1.753	1752.8	regulate	Run2	regulate/STIM_015.jpg	100
1163.792	1.115	1115.0	regulate	Run2	regulate/STIM_015.jpg	100
1167.722	1.444	1443.5	regulate	Run2	regulate/STIM_015.jpg	99
1171.293	0.876	876.4	regulate	Run2	regulate/STIM_015.jpg	100
1175.572	1.371	1370.8	regulate	Run2	regulate/STIM_016.jpg	99
1180.733	1.661	1660.7	regulate	Run2	regulate/STIM_016.jpg	100
1184.98	1.496	1496.5	regulate	Run2	regulate/STIM_016.jpg	100
1188.703	1.694	1693.7	regulate	Run2	regulate/STIM_016.jpg	99
1193.636	1.8	1800.3	regulate	Run2	regulate/STIM_017.jpg	100
1199.207	1.021	1020.9	regulate	Run2	regulate/STIM_017.jpg	100
1203.517	1.01	1009.8	regulate	Run2	regulate/STIM_017.jpg	99
1207.195	1.034	1033.9	regulate	Run2	regulate/STIM_017.jpg	99
1212.051	0.987	987.2	regulate	Run2	regulate/STIM_018.jpg	99
1216.691	1.55	1550.1	regulate	Run2	regulate/STIM_018.jpg	100
1222.095	1.502	1502.1	regulate	Run2	regulate/STIM_018.jpg	100
1225.869	1.261	1261.4	regulate	Run2	regulate/STIM_018.jpg	99
1229.488	1.559	1559.4	regulate	Run2	regulate/STIM_019.jpg	100
1234.0	1.51	1510.1	regulate	Run2	regulate/STIM_019.jpg	100
1237.899	1.096	1095.7	regulate	Run2	regulate/STIM_019.jpg	99
1242.935	1.52	1520.3	regulate	Run2	regulate/STIM_019.jpg	100
1247.53	1.04	1039.8	regulate	Run2	regulate/STIM_020.jpg	100
1251.397	1.149	1148.9	regulate	Run2	regulate/STIM_020.jpg	100
1256.368	1.119	1118.6	regulate	Run2	regulate/STIM_020.jpg	100
1259.565	0.871	870.6	regulate	Run2	regulate/STIM_020.jpg	99
1263.526	1.849	1848.6	regulate	Run2	regulate/STIM_021.jpg	99
1269.042	0.94	940.4	regulate	Run2	regulate/STIM_021.jpg	100
1272.446	1.519	1519.4	regulate	Run2	regulate/STIM_021.jpg	100
1277.056	1.734	1733.9	regulate	Run2	regulate/STIM_021.jpg	99
1282.54	1.94	1940.1	regulate	Run2	regulate/STIM_022.jpg	99
1287.335	0.945	945.4	regulate	Run2	regulate/STIM_022.jpg	100
1292.025	1.857	1856.7	regulate	Run2	regulate/STIM_022.jpg	99
1296.672	0.964	964.3	regulate	Run2	regulate/STIM_022.jpg	99
1300.586	1.952	1952.4	regulate	Run2	regulate/STIM_023.jpg	100
1305.055	2.051	2050.6	regulate	Run2	regulate/STIM_023.jpg	100
1310.361	1.638	1638.5	regulate	Run2	regulate/STIM_023.jpg	99
1314.222	1.025	1024.8	regulate	Run2	regulate/STIM_023.jpg	100
1319.209	1.382	1382.4	regulate	Run2	regulate/STIM_024.jpg	100
1324.192	1.338	1338.3	regulate	Run2	regulate/STIM_024.jpg	99
1328.322	1.285	1284.7	regulate	Run2	regulate/STIM_024.jpg	100
1331.642	1.45	1449.8	regulate	Run2	regulate/STIM_024.jpg	99
1336.025	2.088	2087.7	regulate	Run2	regulate/STIM_025.jpg	100
1341.738	1.978	1977.9	regulate	Run2	regulate/STIM_025.jpg	100
1346.937	0.923	922.7	regulate	Run2	regulate/STIM_025.jpg	99
1351.293	1.771	1771.3	regulate	Run2	regulate/STIM_025.jpg	99
1355.095	2.106	2105.6	regulate	Run2	regulate/STIM_026.jpg	100
1359.629	1.079	1079.1	regulate	Run2	regulate/STIM_026.jpg	100
1364.533	1.063	1062.8	regulate	Run2	regulate/STIM_026.jpg	100
1368.204	1.514	1514.2	regulate	Run2	regulate/STIM_026.jpg	100
1372.632	1.816	1815.8	regulate	Run2	regulate/STIM_027.jpg	100
1377.963	1.813	1813.4	regulate	Run2	regulate/STIM_027.jpg	99
1382.385	1.213	1213.4	regulate	Run2	regulate/STIM_027.jpg	99
1386.561	1.872	1871.6	regulate	Run2	regulate/STIM_027.jpg	100
1391.535	1.5	1499.6	regulate	Run2	regulate/STIM_028.jpg	100
1396.738	1.189	1189.0	regulate	Run2	regulate/STIM_028.jpg	99
1400.612	1.157	1157.1	regulate	Run2	regulate/STIM_028.jpg	99
1404.765	0.828	827.6	regulate	Run2	regulate/STIM_028.jpg	100
1408.208	1.134	1134.4	regulate	Run2	regulate/STIM_029.jpg	100
1412.297	1.982	1981.8	regulate	Run2	regulate/STIM_029.jpg	100
1417.577	1.558	1558.4	regulate	Run2	regulate/STIM_029.jpg	100
1422.469	1.663	1662.6	regulate	Run2	regulate/STIM_029.jpg	99
1426.385	0.654	654.5	observe	Run2	observe/STIM_000.jpg	100
1430.373	1.08	1080.5	observe	Run2	observe/STIM_000.jpg	100
1435.332	0.938	938.4	observe	Run2	observe/STIM_000.jpg	99
1438.505	1.081	1081.4	observe	Run2	observe/STIM_000.jpg	100
1441.964	0.706	706.0	observe	Run2	observe/STIM_001.jpg	99
1445.653	1.235	1234.9	observe	Run2	observe/STIM_001.jpg	99
1450.12	0.841	841.2	observe	Run2	observe/STIM_001.jpg	100
1453.23	0.707	706.8	observe	Run2	observe/STIM_001.jpg	99
1456.065	0.791	791.3	observe	Run2	observe/STIM_002.jpg	99
1459.83	0.719	719.1	observe	Run2	observe/STIM_002.jpg	99
1463.958	0.934	934.1	observe	Run2	observe/STIM_002.jpg	100
1468.456	1.133	1133.2	observe	Run2	observe/STIM_002.jpg	99
1472.534	0.861	861.0	observe	Run2	observe/STIM_003.jpg	99
1476.066	1.062	1061.9	observe	Run2	observe/STIM_003.jpg	100
1480.594	0.637	637.2	observe	Run2	observe/STIM_003.jpg	100
1483.515	0.971	971.0	observe	Run2	observe/STIM_003.jpg	99
1486.596	0.973	972.6	observe	Run2	observe/STIM_004.jpg	100
1489.827	1.234	1234.5	observe	Run2	observe/STIM_004.jpg	100
1494.695	1.205	1205.2	observe	Run2	observe/STIM_004.jpg	99
1498.781	1.225	1224.6	observe	Run2	observe/STIM_004.jpg	100
1502.224	0.821	821.2	observe	Run2	observe/STIM_005.jpg	100
1507.02	0.682	681.5	observe	Run2	observe/STIM_005.jpg	99
1509.872	0.804	804.0	observe	Run2	observe/STIM_005.jpg	99
1514.492	0.874	874.3	observe	Run2	observe/STIM_005.jpg	99
1517.822	1.215	1215.3	observe	Run2	observe/STIM_006.jpg	99
1521.362	0.952	952.4	observe	Run2	observe/STIM_006.jpg	99
1525.372	0.706	705.5	observe	Run2	observe/STIM_006.jpg	100
1529.171	1.192	1192.5	observe	Run2	observe/STIM_006.jpg	99
1533.286	0.879	878.6	observe	Run2	observe/STIM_007.jpg	99
1537.936	0.928	927.5	observe	Run2	observe/STIM_007.jpg	99
1541.823	1.003	1002.9	observe	Run2	observe/STIM_007.jpg	99
1546.508	0.818	818.4	observe	Run2	observe/STIM_007.jpg	100
1549.912	0.988	988.1	observe	Run2	observe/STIM_008.jpg	100
1552.929	0.928	927.5	observe	Run2	observe/STIM_008.jpg	100
1557.125	0.931	931.3	observe	Run2	observe/STIM_008.jpg	100
1561.293	0.756	755.9	observe	Run2	observe/STIM_008.jpg	100
1564.642	0.741	741.0	observe	Run2	observe/STIM_009.jpg	100
1568.27	0.939	939.3	observe	Run2	observe/STIM_009.jpg	100
1572.654	1.129	1129.1	observe	Run2	observe/STIM_009.jpg	100
1576.432	1.013	1012.6	observe	Run2	observe/STIM_009.jpg	100
1580.407	1.075	1075.4	observe	Run2	observe/STIM_010.jpg	100
1583.768	0.977	976.6	observe	Run2	observe/STIM_010.jpg	100
1588.64	0.73	729.8	observe	Run2	observe/STIM_010.jpg	99
1592.379	0.844	844.0	observe	Run2	observe/STIM_010.jpg	100
1596.013	1.136	1136.1	observe	Run2	observe/STIM_011.jpg	100
1600.641	0.819	818.8	observe	Run2	observe/STIM_011.jpg	99
1605.136	0.682	682.4	observe	Run2	observe/STIM_011.jpg	99
1609.479	0.692	692.0	observe	Run2	observe/STIM_011.jpg	99
1612.523	1.222	1222.5	observe	Run2	observe/STIM_012.jpg	100
1616.045	0.933	933.2	observe	Run2	observe/STIM_012.jpg	100
1620.533	1.009	1008.6	observe	Run2	observe/STIM_012.jpg	100
1625.12	0.649	649.4	observe	Run2	observe/STIM_012.jpg	99
1628.498	1.043	1043.4	observe	Run2	observe/STIM_013.jpg	99
1632.338	1.188	1188.3	observe	Run2	observe/STIM_013.jpg	100
1636.312	1.211	1211.2	observe	Run2	observe/STIM_013.jpg	100
1640.852	0.856	856.3	observe	Run2	observe/STIM_013.jpg	100
1645.07	0.855	855.4	observe	Run2	observe/STIM_014.jpg	100
1649.374	1.074	1074.3	observe	Run2	observe/STIM_014.jpg	100
1652.826	0.918	918.1	observe	Run2	observe/STIM_014.jpg	99
1656.963	1.187	1187.4	observe	Run2	observe/STIM_014.jpg	99
1661.077	1.028	1028.0	observe	Run2	observe/STIM_015.jpg	99
1665.372	1.071	1071.4	observe	Run2	observe/STIM_015.jpg	99
1669.206	1.21	1209.8	observe	Run2	observe/STIM_015.jpg	100
1672.813	1.009	1009.4	observe	Run2	observe/STIM_015.jpg	99
1677.062	0.644	644.5	observe	Run2	observe/STIM_016.jpg	100
1681.052	1.082	1081.9	observe	Run2	observe/STIM_016.jpg	100
1685.672	0.761	760.9	observe	Run2	observe/STIM_016.jpg	100
1688.81	1.083	1083.2	observe	Run2	observe/STIM_016.jpg	100
1692.751	0.742	742.3	observe	Run2	observe/STIM_017.jpg	99
1695.83	1.14	1139.8	observe	Run2	observe/STIM_017.jpg	100
1700.73	0.656	655.9	observe	Run2	observe/STIM_017.jpg	99
1703.718	0.822	821.5	observe	Run2	observe/STIM_017.jpg	100
1707.89	1.026	1026.3	observe	Run2	observe/STIM_018.jpg	99
1712.079	0.863	862.8	observe	Run2	observe/STIM_018.jpg	99
1715.837	1.22	1220.4	observe	Run2	observe/STIM_018.jpg	100
1720.435	0.621	621.4	observe	Run2	observe/STIM_018.jpg	100
1724.682	1.179	1178.9	observe	Run2	observe/STIM_019.jpg	100
1728.468	1.071	1071.0	observe	Run2	observe/STIM_019.jpg	99
1731.9	0.978	978.1	observe	Run2	observe/STIM_019.jpg	99
1736.064	0.821	820.8	observe	Run2	observe/STIM_019.jpg	100
1740.644	1.708	1707.8	regulate	Run3	regulate/STIM_000.jpg	99
1745.766	1.329	1329.2	regulate	Run3	regulate/STIM_000.jpg	100
1749.723	0.84	839.8	regulate	Run3	regulate/STIM_000.jpg	100
1754.511	1.425	1424.6	regulate	Run3	regulate/STIM_000.jpg	100
1759.198	1.862	1862.2	regulate	Run3	regulate/STIM_001.jpg	99
1764.128	1.278	1278.4	regulate	Run3	regulate/STIM_001.jpg	100
1768.723	1.164	1163.8	regulate	Run3	regulate/STIM_001.jpg	99
1771.957	1.116	1115.6	regulate	Run3	regulate/STIM_001.jpg	100
1776.681	1.423	1422.8	regulate	Run3	regulate/STIM_002.jpg	99
1780.599	0.865	865.0	regulate	Run3	regulate/STIM_002.jpg	100
1783.802	1.07	1070.1	regulate	Run3	regulate/STIM_002.jpg	99
1787.343	1.451	1450.8	regulate	Run3	regulate/STIM_002.jpg	100
1792.459	1.546	1545.6	regulate	Run3	regulate/STIM_003.jpg	100
1796.72	1.731	1731.0	regulate	Run3	regulate/STIM_003.jpg	100
1800.62	1.442	1441.8	regulate	Run3	regulate/STIM_003.jpg	100
1804.289	1.864	1864.3	regulate	Run3	regulate/STIM_003.jpg	99
1808.508	1.104	1103.9	regulate	Run3	regulate/STIM_004.jpg	100
1813.557	1.206	1206.4	regulate	Run3	regulate/STIM_004.jpg	100
1817.631	0.855	855.3	regulate	Run3	regulate/STIM_004.jpg	99
1821.909	1.042	1042.1	regulate	Run3	regulate/STIM_004.jpg	100
1826.22	1.578	1578.1	regulate	Run3	regulate/STIM_005.jpg	99
1829.88	0.89	889.5	regulate	Run3	regulate/STIM_005.jpg	99
1833.451	1.708	1707.6	regulate	Run3	regulate/STIM_005.jpg	99
1838.339	1.801	1801.4	regulate	Run3	regulate/STIM_005.jpg	100
1842.98	1.365	1364.9	regulate	Run3	regulate/STIM_006.jpg	100
1847.916	0.917	917.1	regulate	Run3	regulate/STIM_006.jpg	100
1851.272	1.161	1161.3	regulate	Run3	regulate/STIM_006.jpg	100
1856.197	0.911	911.4	regulate	Run3	regulate/STIM_006.jpg	99
1860.405	1.796	1795.9	regulate	Run3	regulate/STIM_007.jpg	100
1866.123	1.456	1456.5	regulate	Run3	regulate/STIM_007.jpg	99
1870.125	1.157	1157.0	regulate	Run3	regulate/STIM_007.jpg	100
1873.803	1.48	1479.9	regulate	Run3	regulate/STIM_007.jpg	100
1877.472	0.937	937.0	regulate	Run3	regulate/STIM_008.jpg	99
1880.976	0.82	819.5	regulate	Run3	regulate/STIM_008.jpg	99
1885.309	1.41	1410.3	regulate	Run3	regulate/STIM_008.jpg	99
1890.393	1.442	1442.0	regulate	Run3	regulate/STIM_008.jpg	99
1895.734	1.741	1741.0	regulate	Run3	regulate/STIM_009.jpg	100
1900.897	1.414	1413.8	regulate	Run3	regulate/STIM_009.jpg	100
1904.867	1.148	1147.7	regulate	Run3	regulate/STIM_009.jpg	100
1908.813	1.059	1059.2	regulate	Run3	regulate/STIM_009.jpg	99
1912.834	0.829	829.0	regulate	Run3	regulate/STIM_010.jpg	100
1916.667	1.639	1638.7	regulate	Run3	regulate/STIM_010.jpg	99
1921.888	1.689	1689.2	regulate	Run3	regulate/STIM_010.jpg	99
1926.78	1.523	1522.8	regulate	Run3	regulate/STIM_010.jpg	100
1931.713	0.894	894.2	regulate	Run3	regulate/STIM_011.jpg	99
1936.519	1.132	1132.0	regulate	Run3	regulate/STIM_011.jpg	100
1940.69	0.856	856.5	regulate	Run3	regulate/STIM_011.jpg	99
1943.866	1.451	1451.1	regulate	Run3	regulate/STIM_011.jpg	100
1947.56	0.956	955.7	regulate	Run3	regulate/STIM_012.jpg	99
1951.821	1.345	1344.6	regulate	Run3	regulate/STIM_012.jpg	100
1955.865	1.572	1571.9	regulate	Run3	regulate/STIM_012.jpg	100
1959.659	1.854	1854.4	regulate	Run3	regulate/STIM_012.jpg	100
1963.8	1.318	1318.5	regulate	Run3	regulate/STIM_013.jpg	100
1968.735	1.032	1031.9	regulate	Run3	regulate/STIM_013.jpg	100
1973.101	1.777	1776.6	regulate	Run3	regulate/STIM_013.jpg	100
1976.999	1.686	1685.7	regulate	Run3	regulate/STIM_013.jpg	99
1981.686	1.643	1643.2	regulate	Run3	regulate/STIM_014.jpg	100
1986.718	1.831	1830.7	regulate	Run3	regulate/STIM_014.jpg	99
1990.626	1.486	1486.1	regulate	Run3	regulate/STIM_014.jpg	100
1994.854	1.709	1709.4	regulate	Run3	regulate/STIM_014.jpg	99
1999.617	1.846	1845.8	regulate	Run3	regulate/STIM_015.jpg	99
2003.867	1.142	1142.0	regulate	Run3	regulate/STIM_015.jpg	99
2007.517	1.212	1212.4	regulate	Run3	regulate/STIM_015.jpg	100
2012.106	0.985	984.7	regulate	Run3	regulate/STIM_015.jpg	100
2015.744	1.325	1324.9	regulate	Run3	regulate/STIM_016.jpg	100
2020.448	1.646	1646.1	regulate	Run3	regulate/STIM_016.jpg	99
2025.112	1.274	1274.5	regulate	Run3	regulate/STIM_016.jpg	100
2029.48	1.642	1642.2	regulate	Run3	regulate/STIM_016.jpg	99
2034.412	0.869	868.9	regulate	Run3	regulate/STIM_017.jpg	100
2039.2	1.4	1400.1	regulate	Run3	regulate/STIM_017.jpg	100
2043.101	1.142	1141.6	regulate	Run3	regulate/STIM_017.jpg	100
2047.944	1.7	1699.8	regulate	Run3	regulate/STIM_017.jpg	99
2053.297	1.714	1714.2	regulate	Run3	regulate/STIM_018.jpg	99
2057.553	1.179	1179.0	regulate	Run3	regulate/STIM_018.jpg	100
2061.847	1.669	1669.3	regulate	Run3	regulate/STIM_018.jpg	100
2067.221	1.662	1661.5	regulate	Run3	regulate/STIM_018.jpg	99
2071.505	1.085	1085.3	regulate	Run3	regulate/STIM_019.jpg	100
2075.659	1.086	1086.1	regulate	Run3	regulate/STIM_019.jpg	99
2079.375	1.158	1158.5	regulate	Run3	regulate/STIM_019.jpg	99
2083.637	0.862	862.4	regulate	Run3	regulate/STIM_019.jpg	100
2088.15	1.807	1807.1	regulate	Run3	regulate/STIM_020.jpg	99
2092.35	1.246	1245.5	regulate	Run3	regulate/STIM_020.jpg	100
2097.15	1.163	1162.9	regulate	Run3	regulate/STIM_020.jpg	100
2102.157	1.45	1450.0	regulate	Run3	regulate/STIM_020.jpg	99
2106.094	1.81	1810.0	regulate	Run3	regulate/STIM_021.jpg	100
2110.26	1.076	1075.7	regulate	Run3	regulate/STIM_021.jpg	100
2114.7	1.409	1409.4	regulate	Run3	regulate/STIM_021.jpg	99
2119.521	1.115	1114.7	regulate	Run3	regulate/STIM_021.jpg	99
2122.961	1.002	1002.1	regulate	Run3	regulate/STIM_022.jpg	100
2126.993	1.294	1293.9	regulate	Run3	regulate/STIM_022.jpg	100
2131.41	0.916	915.6	regulate	Run3	regulate/STIM_022.jpg	99
2134.645	1.345	1344.6	regulate	Run3	regulate/STIM_022.jpg	100
2139.449	1.33	1329.8	regulate	Run3	regulate/STIM_023.jpg	99
2144.64	1.312	1311.9	regulate	Run3	regulate/STIM_023.jpg	100
2148.005	1.507	1507.4	regulate	Run3	regulate/STIM_023.jpg	99
2152.171	1.582	1582.3	regulate	Run3	regulate/STIM_023.jpg	99
2156.574	0.881	881.0	regulate	Run3	regulate/STIM_024.jpg	100
2160.247	1.847	1846.7	regulate	Run3	regulate/STIM_024.jpg	99
2164.555	1.858	1858.0	regulate	Run3	regulate/STIM_024.jpg	100
2169.44	1.101	1101.2	regulate	Run3	regulate/STIM_024.jpg	99
2174.318	1.266	1265.8	regulate	Run3	regulate/STIM_025.jpg	99
2177.799	1.248	1248.3	regulate	Run3	regulate/STIM_025.jpg	100
2182.641	0.845	845.1	regulate	Run3	regulate/STIM_025.jpg	100
2187.204	1.318	1317.6	regulate	Run3	regulate/STIM_025.jpg	100
2190.775	1.786	1785.5	regulate	Run3	regulate/STIM_026.jpg	99
2195.46	1.654	1654.2	regulate	Run3	regulate/STIM_026.jpg	99
2199.64	1.051	1050.6	regulate	Run3	regulate/STIM_026.jpg	99
2203.864	0.846	846.2	regulate	Run3	regulate/STIM_026.jpg	99
2207.927	1.228	1228.3	regulate	Run3	regulate/STIM_027.jpg	99
2213.05	1.791	1791.3	regulate	Run3	regulate/STIM_027.jpg	99
2218.79	1.185	1185.4	regulate	Run3	regulate/STIM_027.jpg	99
2222.73	1.38	1380.3	regulate	Run3	regulate/STIM_027.jpg	99
2226.301	1.607	1606.7	regulate	Run3	regulate/STIM_028.jpg	99
2230.323	1.534	1533.5	regulate	Run3	regulate/STIM_028.jpg	99
2234.421	1.718	1718.3	regulate	Run3	regulate/STIM_028.jpg	100
2239.862	1.155	1155.4	regulate	Run3	regulate/STIM_028.jpg	100
2244.09	1.726	1726.2	regulate	Run3	regulate/STIM_029.jpg	99
2248.888	1.105	1105.3	regulate	Run3	regulate/STIM_029.jpg	100
2253.506	1.065	1064.7	regulate	Run3	regulate/STIM_029.jpg	99
2257.932	1.826	1825.5	regulate	Run3	regulate/STIM_029.jpg	100
2263.49	0.763	762.9	observe	Run3	observe/STIM_000.jpg	100
2267.631	0.671	671.4	observe	Run3	observe/STIM_000.jpg	100
2270.344	0.691	690.8	observe	Run3	observe/STIM_000.jpg	100
2274.124	0.9	900.0	observe	Run3	observe/STIM_000.jpg	100
2278.223	0.947	946.9	observe	Run3	observe/STIM_001.jpg	99
2282.274	0.974	973.5	observe	Run3	observe/STIM_001.jpg	100
2286.189	0.922	922.2	observe	Run3	observe/STIM_001.jpg	100
2290.361	0.99	989.6	observe	Run3	observe/STIM_001.jpg	99
2293.913	0.966	966.4	observe	Run3	observe/STIM_002.jpg	100
2297.416	0.88	880.3	observe	Run3	observe/STIM_002.jpg	100
2301.324	1.154	1154.4	observe	Run3	observe/STIM_002.jpg	100
2304.974	1.063	1063.3	observe	Run3	observe/STIM_002.jpg	99
2308.965	0.712	711.7	observe	Run3	observe/STIM_003.jpg	100
2312.86	0.902	902.2	observe	Run3	observe/STIM_003.jpg	100
2316.809	1.205	1204.6	observe	Run3	observe/STIM_003.jpg	99
2320.559	1.22	1220.0	observe	Run3	observe/STIM_003.jpg	99
2325.16	0.652	652.5	observe	Run3	observe/STIM_004.jpg	99
2328.563	1.231	1231.4	observe	Run3	observe/STIM_004.jpg	100
2332.941	1.117	1116.6	observe	Run3	observe/STIM_004.jpg	100
2336.364	0.644	644.1	observe	Run3	observe/STIM_004.jpg	100
2340.972	0.898	898.4	observe	Run3	observe/STIM_005.jpg	100
2344.901	1.121	1120.7	observe	Run3	observe/STIM_005.jpg	99
2349.576	0.712	711.5	observe	Run3	observe/STIM_005.jpg	100
2354.017	0.867	866.7	observe	Run3	observe/STIM_005.jpg	99
2357.525	1.039	1039.1	observe	Run3	observe/STIM_006.jpg	99
2361.324	0.791	790.9	observe	Run3	observe/STIM_006.jpg	100
2364.678	0.822	821.5	observe	Run3	observe/STIM_006.jpg	100
2367.686	0.939	939.3	observe	Run3	observe/STIM_006.jpg	100
2371.867	1.112	1111.9	observe	Run3	observe/STIM_007.jpg	99
2375.985	1.078	1078.3	observe	Run3	observe/STIM_007.jpg	99
2380.541	0.678	677.6	observe	Run3	observe/STIM_007.jpg	100
2384.07	1.005	1004.9	observe	Run3	observe/STIM_007.jpg	100
2387.164	0.793	793.1	observe	Run3	observe/STIM_008.jpg	100
2390.431	0.916	916.1	observe	Run3	observe/STIM_008.jpg	100
2393.989	0.858	857.9	observe	Run3	observe/STIM_008.jpg	99
2398.045	0.822	822.5	observe	Run3	observe/STIM_008.jpg	100
2401.368	1.228	1227.9	observe	Run3	observe/STIM_009.jpg	100
2405.269	1.082	1081.8	observe	Run3	observe/STIM_009.jpg	99
2408.939	0.894	893.5	observe	Run3	observe/STIM_009.jpg	100
2413.139	0.687	687.4	observe	Run3	observe/STIM_009.jpg	100
2416.057	0.693	692.6	observe	Run3	observe/STIM_010.jpg	100
2419.609	0.847	846.9	observe	Run3	observe/STIM_010.jpg	100
2423.22	1.186	1186.2	observe	Run3	observe/STIM_010.jpg	99
2426.571	1.201	1200.7	observe	Run3	observe/STIM_010.jpg	99
2430.843	0.706	705.7	observe	Run3	observe/STIM_011.jpg	100
2434.169	0.975	975.3	observe	Run3	observe/STIM_011.jpg	100
2438.397	1.02	1020.1	observe	Run3	observe/STIM_011.jpg	99
2443.018	1.137	1137.1	observe	Run3	observe/STIM_011.jpg	99
2446.999	1.139	1138.8	observe	Run3	observe/STIM_012.jpg	99
2451.212	1.189	1188.7	observe	Run3	observe/STIM_012.jpg	99
2454.89	1.154	1154.1	observe	Run3	observe/STIM_012.jpg	100
2458.418	0.79	790.2	observe	Run3	observe/STIM_012.jpg	99
2463.077	0.744	744.4	observe	Run3	observe/STIM_013.jpg	99
2465.828	0.678	677.7	observe	Run3	observe/STIM_013.jpg	99
2469.689	0.979	978.6	observe	Run3	observe/STIM_013.jpg	100
2472.876	0.754	753.5	observe	Run3	observe/STIM_013.jpg	100
2476.222	1.147	1146.8	observe	Run3	observe/STIM_014.jpg	100
2480.443	0.839	839.1	observe	Run3	observe/STIM_014.jpg	100
2484.77	1.003	1003.2	observe	Run3	observe/STIM_014.jpg	99
2488.322	0.719	719.3	observe	Run3	observe/STIM_014.jpg	100
2491.135	1.111	1111.4	observe	Run3	observe/STIM_015.jpg	100
2494.52	0.802	802.2	observe	Run3	observe/STIM_015.jpg	99
2498.361	0.632	631.7	observe	Run3	observe/STIM_015.jpg	100
2501.789	1.123	1122.6	observe	Run3	observe/STIM_015.jpg	100
2504.979	0.619	619.1	observe	Run3	observe/STIM_016.jpg	100
2508.493	0.783	783.3	observe	Run3	observe/STIM_016.jpg	100
2512.915	1.119	1118.6	observe	Run3	observe/STIM_016.jpg	100
2516.789	1.032	1032.0	observe	Run3	observe/STIM_016.jpg	99
2521.007	1.058	1057.8	observe	Run3	observe/STIM_017.jpg	99
2525.677	1.044	1043.9	observe	Run3	observe/STIM_017.jpg	99
2530.696	1.214	1213.9	observe	Run3	observe/STIM_017.jpg	100
2534.493	0.799	798.7	observe	Run3	observe/STIM_017.jpg	99
2539.173	0.993	993.2	observe	Run3	observe/STIM_018.jpg	100
2543.347	1.002	1001.7	observe	Run3	observe/STIM_018.jpg	100
2546.439	0.696	695.6	observe	Run3	observe/STIM_018.jpg	99
2549.742	1.161	1160.9	observe	Run3	observe/STIM_018.jpg	99
2554.88	0.827	827.2	observe	Run3	observe/STIM_019.jpg	99
2557.918	1.156	1156.1	observe	Run3	observe/STIM_019.jpg	100
2562.372	0.869	869.2	observe	Run3	observe/STIM_019.jpg	99
2566.134	0.987	987.2	observe	Run3	observe/STIM_019.jpg	100
