onset	duration	accuracy	trial_type	learning_stage	stimulus
0.0	1.504	incorrect	regulate	Run1	regulate/STIM_000.jpg
3.918	2.372	correct	regulate	Run1	regulate/STIM_000.jpg
9.618	1.482	correct	regulate	Run1	regulate/STIM_000.jpg
14.89	2.229	correct	regulate	Run1	regulate/STIM_000.jpg
20.177	2.453	incorrect	regulate	Run1	regulate/STIM_001.jpg
25.096	1.884	correct	regulate	Run1	regulate/STIM_001.jpg
29.676	1.483	incorrect	regulate	Run1	regulate/STIM_001.jpg
34.036	1.19	incorrect	regulate	Run1	regulate/STIM_001.jpg
39.455	2.286	correct	regulate	Run1	regulate/STIM_002.jpg
45.734	2.129	correct	regulate	Run1	regulate/STIM_002.jpg
51.869	2.264	incorrect	regulate	Run1	regulate/STIM_002.jpg
57.908	1.941	incorrect	regulate	Run1	regulate/STIM_002.jpg
63.336	2.614	correct	regulate	Run1	regulate/STIM_003.jpg
69.28	1.328	incorrect	regulate	Run1	regulate/STIM_003.jpg
73.292	1.374	correct	regulate	Run1	regulate/STIM_003.jpg
78.474	2.377	correct	regulate	Run1	regulate/STIM_003.jpg
85.021	1.434	correct	regulate	Run1	regulate/STIM_004.jpg
90.073	2.892	incorrect	regulate	Run1	regulate/STIM_004.jpg
95.423	1.354	incorrect	regulate	Run1	regulate/STIM_004.jpg
99.489	1.928	correct	regulate	Run1	regulate/STIM_004.jpg
105.143	1.395	correct	regulate	Run1	regulate/STIM_005.jpg
110.793	1.477	correct	regulate	Run1	regulate/STIM_005.jpg
116.095	1.187	correct	regulate	Run1	regulate/STIM_005.jpg
120.479	1.309	correct	regulate	Run1	regulate/STIM_005.jpg
124.057	2.921	correct	regulate	Run1	regulate/STIM_006.jpg
129.837	1.53	incorrect	regulate	Run1	regulate/STIM_006.jpg
133.804	1.993	incorrect	regulate	Run1	regulate/STIM_006.jpg
138.88	2.51	correct	regulate	Run1	regulate/STIM_006.jpg
145.578	3.016	incorrect	regulate	Run1	regulate/STIM_007.jpg
152.784	1.957	correct	regulate	Run1	regulate/STIM_007.jpg
157.593	1.366	incorrect	regulate	Run1	regulate/STIM_007.jpg
162.769	1.947	correct	regulate	Run1	regulate/STIM_007.jpg
167.437	1.913	correct	regulate	Run1	regulate/STIM_008.jpg
172.128	2.488	incorrect	regulate	Run1	regulate/STIM_008.jpg
178.476	2.389	correct	regulate	Run1	regulate/STIM_008.jpg
184.905	1.494	correct	regulate	Run1	regulate/STIM_008.jpg
188.951	1.795	correct	regulate	Run1	regulate/STIM_009.jpg
194.741	1.737	incorrect	regulate	Run1	regulate/STIM_009.jpg
200.183	2.115	correct	regulate	Run1	regulate/STIM_009.jpg
205.628	2.119	correct	regulate	Run1	regulate/STIM_009.jpg
211.6	1.31	correct	regulate	Run1	regulate/STIM_010.jpg
215.747	2.824	correct	regulate	Run1	regulate/STIM_010.jpg
222.854	1.941	correct	regulate	Run1	regulate/STIM_010.jpg
228.776	1.908	incorrect	regulate	Run1	regulate/STIM_010.jpg
233.601	2.132	incorrect	regulate	Run1	regulate/STIM_011.jpg
239.338	1.611	incorrect	regulate	Run1	regulate/STIM_011.jpg
244.911	2.421	correct	regulate	Run1	regulate/STIM_011.jpg
249.982	2.204	correct	regulate	Run1	regulate/STIM_011.jpg
255.496	1.875	correct	regulate	Run1	regulate/STIM_012.jpg
261.384	2.58	correct	regulate	Run1	regulate/STIM_012.jpg
267.341	1.079	incorrect	regulate	Run1	regulate/STIM_012.jpg
271.194	2.3	correct	regulate	Run1	regulate/STIM_012.jpg
276.701	2.682	correct	regulate	Run1	regulate/STIM_013.jpg
282.838	1.372	correct	regulate	Run1	regulate/STIM_013.jpg
287.952	1.268	correct	regulate	Run1	regulate/STIM_013.jpg
292.962	2.011	correct	regulate	Run1	regulate/STIM_013.jpg
299.109	1.459	correct	regulate	Run1	regulate/STIM_014.jpg
303.605	1.87	correct	regulate	Run1	regulate/STIM_014.jpg
309.261	2.156	correct	regulate	Run1	regulate/STIM_014.jpg
315.406	2.501	correct	regulate	Run1	regulate/STIM_014.jpg
321.453	1.843	correct	regulate	Run1	regulate/STIM_015.jpg
327.086	1.379	correct	regulate	Run1	regulate/STIM_015.jpg
331.947	1.732	correct	regulate	Run1	regulate/STIM_015.jpg
336.1	2.02	correct	regulate	Run1	regulate/STIM_015.jpg
341.51	1.578	incorrect	regulate	Run1	regulate/STIM_016.jpg
347.222	2.884	correct	regulate	Run1	regulate/STIM_016.jpg
354.507	2.036	correct	regulate	Run1	regulate/STIM_016.jpg
360.733	1.186	correct	regulate	Run1	regulate/STIM_016.jpg
365.982	2.589	correct	regulate	Run1	regulate/STIM_017.jpg
372.572	1.696	correct	regulate	Run1	regulate/STIM_017.jpg
378.194	1.755	correct	regulate	Run1	regulate/STIM_017.jpg
383.629	1.937	correct	regulate	Run1	regulate/STIM_017.jpg
388.25	2.882	correct	regulate	Run1	regulate/STIM_018.jpg
394.569	2.675	correct	regulate	Run1	regulate/STIM_018.jpg
400.124	1.215	correct	regulate	Run1	regulate/STIM_018.jpg
403.656	1.67	correct	regulate	Run1	regulate/STIM_018.jpg
407.89	2.879	correct	regulate	Run1	regulate/STIM_019.jpg
414.57	1.817	correct	regulate	Run1	regulate/STIM_019.jpg
419.581	2.047	correct	regulate	Run1	regulate/STIM_019.jpg
424.718	1.62	incorrect	regulate	Run1	regulate/STIM_019.jpg
429.063	1.622	correct	regulate	Run1	regulate/STIM_020.jpg
433.93	1.288	correct	regulate	Run1	regulate/STIM_020.jpg
438.786	2.609	correct	regulate	Run1	regulate/STIM_020.jpg
444.229	2.419	correct	regulate	Run1	regulate/STIM_020.jpg
449.919	1.933	correct	regulate	Run1	regulate/STIM_021.jpg
454.605	1.859	incorrect	regulate	Run1	regulate/STIM_021.jpg
460.281	2.717	correct	regulate	Run1	regulate/STIM_021.jpg
466.608	1.91	correct	regulate	Run1	regulate/STIM_021.jpg
471.56	2.786	correct	regulate	Run1	regulate/STIM_022.jpg
476.866	2.646	correct	regulate	Run1	regulate/STIM_022.jpg
483.322	1.851	correct	regulate	Run1	regulate/STIM_022.jpg
487.949	2.607	correct	regulate	Run1	regulate/STIM_022.jpg
494.023	2.327	correct	regulate	Run1	regulate/STIM_023.jpg
500.524	1.637	incorrect	regulate	Run1	regulate/STIM_023.jpg
505.169	2.416	correct	regulate	Run1	regulate/STIM_023.jpg
511.595	2.176	incorrect	regulate	Run1	regulate/STIM_023.jpg
516.673	1.476	correct	regulate	Run1	regulate/STIM_024.jpg
521.414	2.132	correct	regulate	Run1	regulate/STIM_024.jpg
527.066	1.677	correct	regulate	Run1	regulate/STIM_024.jpg
533.001	1.586	correct	regulate	Run1	regulate/STIM_024.jpg
538.014	2.55	correct	regulate	Run1	regulate/STIM_025.jpg
543.82	2.778	correct	regulate	Run1	regulate/STIM_025.jpg
550.665	2.667	correct	regulate	Run1	regulate/STIM_025.jpg
555.936	1.723	correct	regulate	Run1	regulate/STIM_025.jpg
561.228	2.922	correct	regulate	Run1	regulate/STIM_026.jpg
568.011	2.387	incorrect	regulate	Run1	regulate/STIM_026.jpg
573.634	1.788	incorrect	regulate	Run1	regulate/STIM_026.jpg
578.295	1.316	correct	regulate	Run1	regulate/STIM_026.jpg
582.78	1.776	incorrect	regulate	Run1	regulate/STIM_027.jpg
587.315	1.253	correct	regulate	Run1	regulate/STIM_027.jpg
591.234	1.535	correct	regulate	Run1	regulate/STIM_027.jpg
595.995	2.289	correct	regulate	Run1	regulate/STIM_027.jpg
601.043	2.029	incorrect	regulate	Run1	regulate/STIM_028.jpg
606.052	2.061	correct	regulate	Run1	regulate/STIM_028.jpg
610.95	1.154	correct	regulate	Run1	regulate/STIM_028.jpg
616.238	1.865	correct	regulate	Run1	regulate/STIM_028.jpg
621.631	2.949	correct	regulate	Run1	regulate/STIM_029.jpg
628.238	1.783	correct	regulate	Run1	regulate/STIM_029.jpg
633.33	1.825	correct	regulate	Run1	regulate/STIM_029.jpg
638.639	1.898	correct	regulate	Run1	regulate/STIM_029.jpg
643.676	1.204	correct	observe	Run1	observe/STIM_000.jpg
648.88	0.722	correct	observe	Run1	observe/STIM_000.jpg
652.762	1.011	correct	observe	Run1	observe/STIM_000.jpg
657.459	1.288	correct	observe	Run1	observe/STIM_000.jpg
662.527	0.821	correct	observe	Run1	observe/STIM_001.jpg
667.088	1.431	correct	observe	Run1	observe/STIM_001.jpg
671.986	1.089	correct	observe	Run1	observe/STIM_001.jpg
676.481	1.028	correct	observe	Run1	observe/STIM_001.jpg
681.287	1.194	correct	observe	Run1	observe/STIM_002.jpg
686.411	0.668	correct	observe	Run1	observe/STIM_002.jpg
689.542	1.04	correct	observe	Run1	observe/STIM_002.jpg
694.694	1.065	correct	observe	Run1	observe/STIM_002.jpg
698.877	0.889	correct	observe	Run1	observe/STIM_003.jpg
703.663	1.297	correct	observe	Run1	observe/STIM_003.jpg
708.276	1.331	correct	observe	Run1	observe/STIM_003.jpg
713.395	0.853	correct	observe	Run1	observe/STIM_003.jpg
717.615	0.884	correct	observe	Run1	observe/STIM_004.jpg
721.079	1.298	correct	observe	Run1	observe/STIM_004.jpg
725.256	0.743	correct	observe	Run1	observe/STIM_004.jpg
728.692	1.141	correct	observe	Run1	observe/STIM_004.jpg
733.349	1.271	correct	observe	Run1	observe/STIM_005.jpg
738.366	1.186	correct	observe	Run1	observe/STIM_005.jpg
743.211	1.233	correct	observe	Run1	observe/STIM_005.jpg
747.039	1.327	correct	observe	Run1	observe/STIM_005.jpg
751.763	1.256	correct	observe	Run1	observe/STIM_006.jpg
755.705	1.012	correct	observe	Run1	observe/STIM_006.jpg
759.22	0.881	correct	observe	Run1	observe/STIM_006.jpg
762.609	1.368	correct	observe	Run1	observe/STIM_006.jpg
766.384	0.665	correct	observe	Run1	observe/STIM_007.jpg
770.159	1.25	correct	observe	Run1	observe/STIM_007.jpg
773.752	1.056	correct	observe	Run1	observe/STIM_007.jpg
777.775	0.729	correct	observe	Run1	observe/STIM_007.jpg
782.386	1.316	correct	observe	Run1	observe/STIM_008.jpg
787.239	1.123	correct	observe	Run1	observe/STIM_008.jpg
792.011	1.068	correct	observe	Run1	observe/STIM_008.jpg
796.113	0.978	correct	observe	Run1	observe/STIM_008.jpg
800.425	1.289	correct	observe	Run1	observe/STIM_009.jpg
804.998	0.94	correct	observe	Run1	observe/STIM_009.jpg
809.171	1.131	incorrect	observe	Run1	observe/STIM_009.jpg
814.293	1.352	correct	observe	Run1	observe/STIM_009.jpg
818.427	0.908	correct	observe	Run1	observe/STIM_010.jpg
822.367	1.362	incorrect	observe	Run1	observe/STIM_010.jpg
825.989	1.114	correct	observe	Run1	observe/STIM_010.jpg
829.778	1.406	correct	observe	Run1	observe/STIM_010.jpg
834.567	1.367	incorrect	observe	Run1	observe/STIM_011.jpg
838.559	1.273	correct	observe	Run1	observe/STIM_011.jpg
842.815	0.971	correct	observe	Run1	observe/STIM_011.jpg
845.905	1.28	correct	observe	Run1	observe/STIM_011.jpg
851.47	1.311	correct	observe	Run1	observe/STIM_012.jpg
856.651	1.003	correct	observe	Run1	observe/STIM_012.jpg
860.584	1.313	correct	observe	Run1	observe/STIM_012.jpg
864.627	1.27	correct	observe	Run1	observe/STIM_012.jpg
868.481	1.312	correct	observe	Run1	observe/STIM_013.jpg
872.016	1.1	correct	observe	Run1	observe/STIM_013.jpg
876.501	1.27	correct	observe	Run1	observe/STIM_013.jpg
880.574	0.821	correct	observe	Run1	observe/STIM_013.jpg
883.804	0.846	correct	observe	Run1	observe/STIM_014.jpg
887.895	1.344	correct	observe	Run1	observe/STIM_014.jpg
892.471	1.281	correct	observe	Run1	observe/STIM_014.jpg
897.204	1.106	correct	observe	Run1	observe/STIM_014.jpg
902.498	1.026	correct	observe	Run1	observe/STIM_015.jpg
906.163	1.307	correct	observe	Run1	observe/STIM_015.jpg
910.227	0.89	correct	observe	Run1	observe/STIM_015.jpg
914.36	0.697	correct	observe	Run1	observe/STIM_015.jpg
918.079	1.187	correct	observe	Run1	observe/STIM_016.jpg
922.674	0.953	correct	observe	Run1	observe/STIM_016.jpg
927.618	1.012	correct	observe	Run1	observe/STIM_016.jpg
930.951	0.806	correct	observe	Run1	observe/STIM_016.jpg
934.472	1.068	correct	observe	Run1	observe/STIM_017.jpg
938.198	0.869	correct	observe	Run1	observe/STIM_017.jpg
942.534	0.914	correct	observe	Run1	observe/STIM_017.jpg
946.612	1.334	correct	observe	Run1	observe/STIM_017.jpg
951.922	1.153	correct	observe	Run1	observe/STIM_018.jpg
956.965	0.83	correct	observe	Run1	observe/STIM_018.jpg
960.35	0.976	correct	observe	Run1	observe/STIM_018.jpg
964.413	1.191	correct	observe	Run1	observe/STIM_018.jpg
968.681	0.754	correct	observe	Run1	observe/STIM_019.jpg
971.882	1.02	correct	observe	Run1	observe/STIM_019.jpg
976.881	1.16	correct	observe	Run1	observe/STIM_019.jpg
980.726	0.958	correct	observe	Run1	observe/STIM_019.jpg
984.133	1.797	correct	regulate	Run2	regulate/STIM_000.jpg
988.691	1.083	correct	regulate	Run2	regulate/STIM_000.jpg
993.008	0.984	correct	regulate	Run2	regulate/STIM_000.jpg
997.529	1.047	incorrect	regulate	Run2	regulate/STIM_000.jpg
1002.085	1.99	correct	regulate	Run2	regulate/STIM_001.jpg
1008.152	2.116	correct	regulate	Run2	regulate/STIM_001.jpg
1013.438	1.905	correct	regulate	Run2	regulate/STIM_001.jpg
1017.874	1.95	correct	regulate	Run2	regulate/STIM_001.jpg
1023.975	2.495	correct	regulate	Run2	regulate/STIM_002.jpg
1029.604	1.703	correct	regulate	Run2	regulate/STIM_002.jpg
1034.672	1.885	correct	regulate	Run2	regulate/STIM_002.jpg
1039.761	0.994	incorrect	regulate	Run2	regulate/STIM_002.jpg
1043.607	2.057	incorrect	regulate	Run2	regulate/STIM_003.jpg
1049.687	1.346	incorrect	regulate	Run2	regulate/STIM_003.jpg
1054.682	1.279	correct	regulate	Run2	regulate/STIM_003.jpg
1058.838	1.479	correct	regulate	Run2	regulate/STIM_003.jpg
1063.956	2.064	correct	regulate	Run2	regulate/STIM_004.jpg
1068.487	1.684	correct	regulate	Run2	regulate/STIM_004.jpg
1073.563	1.419	correct	regulate	Run2	regulate/STIM_004.jpg
1078.177	1.936	correct	regulate	Run2	regulate/STIM_004.jpg
1083.393	1.423	correct	regulate	Run2	regulate/STIM_005.jpg
1088.763	1.962	correct	regulate	Run2	regulate/STIM_005.jpg
1094.801	1.405	correct	regulate	Run2	regulate/STIM_005.jpg
1098.919	1.436	correct	regulate	Run2	regulate/STIM_005.jpg
1103.773	2.374	incorrect	regulate	Run2	regulate/STIM_006.jpg
1110.033	1.341	correct	regulate	Run2	regulate/STIM_006.jpg
1114.542	1.207	correct	regulate	Run2	regulate/STIM_006.jpg
1118.617	1.002	correct	regulate	Run2	regulate/STIM_006.jpg
1122.328	1.861	correct	regulate	Run2	regulate/STIM_007.jpg
1126.564	1.541	correct	regulate	Run2	regulate/STIM_007.jpg
1131.56	2.06	correct	regulate	Run2	regulate/STIM_007.jpg
1137.533	1.619	correct	regulate	Run2	regulate/STIM_007.jpg
1143.3	1.256	correct	regulate	Run2	regulate/STIM_008.jpg
1148.513	1.117	correct	regulate	Run2	regulate/STIM_008.jpg
1153.028	2.122	correct	regulate	Run2	regulate/STIM_008.jpg
1158.92	1.345	incorrect	regulate	Run2	regulate/STIM_008.jpg
1163.025	2.432	correct	regulate	Run2	regulate/STIM_009.jpg
1169.14	2.095	correct	regulate	Run2	regulate/STIM_009.jpg
1173.652	1.29	correct	regulate	Run2	regulate/STIM_009.jpg
1178.436	1.618	correct	regulate	Run2	regulate/STIM_009.jpg
1183.103	2.077	correct	regulate	Run2	regulate/STIM_010.jpg
1189.411	1.747	correct	regulate	Run2	regulate/STIM_010.jpg
1194.623	1.173	incorrect	regulate	Run2	regulate/STIM_010.jpg
1199.491	1.579	correct	regulate	Run2	regulate/STIM_010.jpg
1204.163	2.077	correct	regulate	Run2	regulate/STIM_011.jpg
1210.034	2.272	correct	regulate	Run2	regulate/STIM_011.jpg
1215.718	1.672	correct	regulate	Run2	regulate/STIM_011.jpg
1220.839	2.006	correct	regulate	Run2	regulate/STIM_011.jpg
1226.562	1.461	correct	regulate	Run2	regulate/STIM_012.jpg
1232.037	1.566	correct	regulate	Run2	regulate/STIM_012.jpg
1236.589	1.165	correct	regulate	Run2	regulate/STIM_012.jpg
1241.746	1.043	correct	regulate	Run2	regulate/STIM_012.jpg
1245.038	2.015	correct	regulate	Run2	regulate/STIM_013.jpg
1249.385	2.18	correct	regulate	Run2	regulate/STIM_013.jpg
1254.348	1.658	correct	regulate	Run2	regulate/STIM_013.jpg
1260.019	1.983	correct	regulate	Run2	regulate/STIM_013.jpg
1266.233	1.269	correct	regulate	Run2	regulate/STIM_014.jpg
1270.619	2.264	correct	regulate	Run2	regulate/STIM_014.jpg
1276.668	1.455	correct	regulate	Run2	regulate/STIM_014.jpg
1280.628	1.433	correct	regulate	Run2	regulate/STIM_014.jpg
1284.795	1.109	correct	regulate	Run2	regulate/STIM_015.jpg
1289.946	1.299	correct	regulate	Run2	regulate/STIM_015.jpg
1295.021	1.883	correct	regulate	Run2	regulate/STIM_015.jpg
1301.107	1.834	correct	regulate	Run2	regulate/STIM_015.jpg
1306.503	1.892	correct	regulate	Run2	regulate/STIM_016.jpg
1311.705	1.544	correct	regulate	Run2	regulate/STIM_016.jpg
1316.394	1.906	incorrect	regulate	Run2	regulate/STIM_016.jpg
1320.826	1.513	correct	regulate	Run2	regulate/STIM_016.jpg
1325.784	2.188	correct	regulate	Run2	regulate/STIM_017.jpg
1332.177	2.365	correct	regulate	Run2	regulate/STIM_017.jpg
1337.972	1.939	incorrect	regulate	Run2	regulate/STIM_017.jpg
1343.301	1.577	correct	regulate	Run2	regulate/STIM_017.jpg
1348.784	1.755	correct	regulate	Run2	regulate/STIM_018.jpg
1354.399	1.725	incorrect	regulate	Run2	regulate/STIM_018.jpg
1358.375	1.209	correct	regulate	Run2	regulate/STIM_018.jpg
1362.479	1.871	correct	regulate	Run2	regulate/STIM_018.jpg
1367.223	2.463	correct	regulate	Run2	regulate/STIM_019.jpg
1373.329	1.79	correct	regulate	Run2	regulate/STIM_019.jpg
1378.544	1.4	correct	regulate	Run2	regulate/STIM_019.jpg
1383.086	1.76	incorrect	regulate	Run2	regulate/STIM_019.jpg
1388.928	2.067	correct	regulate	Run2	regulate/STIM_020.jpg
1395.222	2.158	incorrect	regulate	Run2	regulate/STIM_020.jpg
1400.499	1.948	correct	regulate	Run2	regulate/STIM_020.jpg
1406.636	1.055	correct	regulate	Run2	regulate/STIM_020.jpg
1410.398	2.425	correct	regulate	Run2	regulate/STIM_021.jpg
1417.1	1.594	correct	regulate	Run2	regulate/STIM_021.jpg
1422.828	1.516	incorrect	regulate	Run2	regulate/STIM_021.jpg
1427.519	1.251	incorrect	regulate	Run2	regulate/STIM_021.jpg
1432.161	2.456	correct	regulate	Run2	regulate/STIM_022.jpg
1437.351	1.574	correct	regulate	Run2	regulate/STIM_022.jpg
1441.833	1.831	correct	regulate	Run2	regulate/STIM_022.jpg
1446.587	1.635	correct	regulate	Run2	regulate/STIM_022.jpg
1451.733	1.54	incorrect	regulate	Run2	regulate/STIM_023.jpg
1456.43	1.329	incorrect	regulate	Run2	regulate/STIM_023.jpg
1460.423	1.347	correct	regulate	Run2	regulate/STIM_023.jpg
1464.914	1.261	correct	regulate	Run2	regulate/STIM_023.jpg
1470.17	1.259	correct	regulate	Run2	regulate/STIM_024.jpg
1475.253	1.5	correct	regulate	Run2	regulate/STIM_024.jpg
1479.917	2.307	correct	regulate	Run2	regulate/STIM_024.jpg
1485.727	1.403	incorrect	regulate	Run2	regulate/STIM_024.jpg
1490.371	2.063	correct	regulate	Run2	regulate/STIM_025.jpg
1496.098	1.529	correct	regulate	Run2	regulate/STIM_025.jpg
1500.275	2.028	correct	regulate	Run2	regulate/STIM_025.jpg
1505.983	1.788	incorrect	regulate	Run2	regulate/STIM_025.jpg
1511.39	1.932	correct	regulate	Run2	regulate/STIM_026.jpg
1515.848	2.357	correct	regulate	Run2	regulate/STIM_026.jpg
1521.094	1.096	correct	regulate	Run2	regulate/STIM_026.jpg
1526.29	1.157	correct	regulate	Run2	regulate/STIM_026.jpg
1529.742	2.102	incorrect	regulate	Run2	regulate/STIM_027.jpg
1535.882	2.045	incorrect	regulate	Run2	regulate/STIM_027.jpg
1540.227	1.743	incorrect	regulate	Run2	regulate/STIM_027.jpg
1545.205	1.846	correct	regulate	Run2	regulate/STIM_027.jpg
1549.485	1.47	correct	regulate	Run2	regulate/STIM_028.jpg
1553.323	1.35	correct	regulate	Run2	regulate/STIM_028.jpg
1557.82	1.197	correct	regulate	Run2	regulate/STIM_028.jpg
1562.706	1.293	correct	regulate	Run2	regulate/STIM_028.jpg
1567.694	1.856	incorrect	regulate	Run2	regulate/STIM_029.jpg
1573.235	1.09	correct	regulate	Run2	regulate/STIM_029.jpg
1578.476	1.866	incorrect	regulate	Run2	regulate/STIM_029.jpg
1583.831	0.964	correct	regulate	Run2	regulate/STIM_029.jpg
1587.59	1.239	correct	observe	Run2	observe/STIM_000.jpg
1592.219	1.289	correct	observe	Run2	observe/STIM_000.jpg
1596.642	1.441	correct	observe	Run2	observe/STIM_000.jpg
1601.286	0.713	correct	observe	Run2	observe/STIM_000.jpg
1605.461	0.656	correct	observe	Run2	observe/STIM_001.jpg
1609.648	0.997	correct	observe	Run2	observe/STIM_001.jpg
1614.616	1.014	correct	observe	Run2	observe/STIM_001.jpg
1619.445	1.103	incorrect	observe	Run2	observe/STIM_001.jpg
1623.283	0.903	correct	observe	Run2	observe/STIM_002.jpg
1628.314	1.361	correct	observe	Run2	observe/STIM_002.jpg
1631.943	0.869	correct	observe	Run2	observe/STIM_002.jpg
1635.911	1.103	correct	observe	Run2	observe/STIM_002.jpg
1640.092	1.202	correct	observe	Run2	observe/STIM_003.jpg
1645.254	1.152	correct	observe	Run2	observe/STIM_003.jpg
1650.161	0.8	correct	observe	Run2	observe/STIM_003.jpg
1654.092	0.67	correct	observe	Run2	observe/STIM_003.jpg
1658.214	0.979	correct	observe	Run2	observe/STIM_004.jpg
1663.054	0.839	correct	observe	Run2	observe/STIM_004.jpg
1666.175	1.298	correct	observe	Run2	observe/STIM_004.jpg
1669.669	0.952	correct	observe	Run2	observe/STIM_004.jpg
1673.538	0.838	correct	observe	Run2	observe/STIM_005.jpg
1677.752	1.083	incorrect	observe	Run2	observe/STIM_005.jpg
1681.227	0.988	correct	observe	Run2	observe/STIM_005.jpg
1684.947	1.366	correct	observe	Run2	observe/STIM_005.jpg
1690.09	1.233	correct	observe	Run2	observe/STIM_006.jpg
1693.869	1.084	incorrect	observe	Run2	observe/STIM_006.jpg
1697.536	1.376	correct	observe	Run2	observe/STIM_006.jpg
1702.944	1.169	correct	observe	Run2	observe/STIM_006.jpg
1706.552	1.251	correct	observe	Run2	observe/STIM_007.jpg
1711.111	0.815	correct	observe	Run2	observe/STIM_007.jpg
1715.369	0.891	correct	observe	Run2	observe/STIM_007.jpg
1719.788	0.947	correct	observe	Run2	observe/STIM_007.jpg
1723.826	1.268	correct	observe	Run2	observe/STIM_008.jpg
1728.249	0.882	correct	observe	Run2	observe/STIM_008.jpg
1732.275	1.115	correct	observe	Run2	observe/STIM_008.jpg
1736.486	0.856	correct	observe	Run2	observe/STIM_008.jpg
1741.436	1.025	correct	observe	Run2	observe/STIM_009.jpg
1745.969	1.071	correct	observe	Run2	observe/STIM_009.jpg
1749.423	1.086	correct	observe	Run2	observe/STIM_009.jpg
1754.341	0.877	correct	observe	Run2	observe/STIM_009.jpg
1758.087	0.919	correct	observe	Run2	observe/STIM_010.jpg
1762.928	1.406	correct	observe	Run2	observe/STIM_010.jpg
1768.224	0.83	correct	observe	Run2	observe/STIM_010.jpg
1772.052	0.638	incorrect	observe	Run2	observe/STIM_010.jpg
1776.431	0.834	correct	observe	Run2	observe/STIM_011.jpg
1780.867	1.154	correct	observe	Run2	observe/STIM_011.jpg
1785.986	1.259	incorrect	observe	Run2	observe/STIM_011.jpg
1791.275	1.321	correct	observe	Run2	observe/STIM_011.jpg
1796.513	1.025	incorrect	observe	Run2	observe/STIM_012.jpg
1799.725	1.305	correct	observe	Run2	observe/STIM_012.jpg
1804.002	1.073	correct	observe	Run2	observe/STIM_012.jpg
1807.573	1.295	correct	observe	Run2	observe/STIM_012.jpg
1812.158	1.159	correct	observe	Run2	observe/STIM_013.jpg
1816.394	1.175	correct	observe	Run2	observe/STIM_013.jpg
1820.591	1.292	correct	observe	Run2	observe/STIM_013.jpg
1824.295	0.88	incorrect	observe	Run2	observe/STIM_013.jpg
1829.036	0.671	correct	observe	Run2	observe/STIM_014.jpg
1833.675	0.731	correct	observe	Run2	observe/STIM_014.jpg
1837.817	1.287	correct	observe	Run2	observe/STIM_014.jpg
1841.361	1.113	correct	observe	Run2	observe/STIM_014.jpg
1845.954	1.331	correct	observe	Run2	observe/STIM_015.jpg
1849.903	1.013	correct	observe	Run2	observe/STIM_015.jpg
1854.674	0.687	correct	observe	Run2	observe/STIM_015.jpg
1857.591	0.932	correct	observe	Run2	observe/STIM_015.jpg
1861.385	1.288	correct	observe	Run2	observe/STIM_016.jpg
1864.883	0.85	correct	observe	Run2	observe/STIM_016.jpg
1869.273	1.099	correct	observe	Run2	observe/STIM_016.jpg
1874.047	0.736	correct	observe	Run2	observe/STIM_016.jpg
1876.951	0.805	correct	observe	Run2	observe/STIM_017.jpg
1879.908	1.008	correct	observe	Run2	observe/STIM_017.jpg
1884.755	1.065	correct	observe	Run2	observe/STIM_017.jpg
1888.31	0.777	correct	observe	Run2	observe/STIM_017.jpg
1892.047	1.043	correct	observe	Run2	observe/STIM_018.jpg
1895.762	0.894	correct	observe	Run2	observe/STIM_018.jpg
1898.963	1.18	correct	observe	Run2	observe/STIM_018.jpg
1902.729	0.773	correct	observe	Run2	observe/STIM_018.jpg
1906.333	0.766	correct	observe	Run2	observe/STIM_019.jpg
1910.532	0.869	correct	observe	Run2	observe/STIM_019.jpg
1914.92	0.769	incorrect	observe	Run2	observe/STIM_019.jpg
1919.379	0.709	correct	observe	Run2	observe/STIM_019.jpg
1922.644	1.842	correct	regulate	Run3	regulate/STIM_000.jpg
1926.945	1.569	correct	regulate	Run3	regulate/STIM_000.jpg
1930.89	1.724	correct	regulate	Run3	regulate/STIM_000.jpg
1934.989	1.768	correct	regulate	Run3	regulate/STIM_000.jpg
1939.541	1.347	correct	regulate	Run3	regulate/STIM_001.jpg
1944.834	2.015	correct	regulate	Run3	regulate/STIM_001.jpg
1950.104	1.94	correct	regulate	Run3	regulate/STIM_001.jpg
1954.811	1.174	correct	regulate	Run3	regulate/STIM_001.jpg
1959.921	1.974	incorrect	regulate	Run3	regulate/STIM_002.jpg
1965.628	1.044	correct	regulate	Run3	regulate/STIM_002.jpg
1969.732	1.477	correct	regulate	Run3	regulate/STIM_002.jpg
1975.228	2.114	correct	regulate	Run3	regulate/STIM_002.jpg
1979.893	1.565	correct	regulate	Run3	regulate/STIM_003.jpg
1983.999	1.857	correct	regulate	Run3	regulate/STIM_003.jpg
1990.049	0.866	correct	regulate	Run3	regulate/STIM_003.jpg
1994.866	1.381	correct	regulate	Run3	regulate/STIM_003.jpg
1999.705	0.953	correct	regulate	Run3	regulate/STIM_004.jpg
2003.064	1.073	correct	regulate	Run3	regulate/STIM_004.jpg
2007.481	1.107	correct	regulate	Run3	regulate/STIM_004.jpg
2012.151	1.301	correct	regulate	Run3	regulate/STIM_004.jpg
2017.35	1.426	correct	regulate	Run3	regulate/STIM_005.jpg
2021.157	1.027	correct	regulate	Run3	regulate/STIM_005.jpg
2025.432	2.112	correct	regulate	Run3	regulate/STIM_005.jpg
2031.204	2.029	correct	regulate	Run3	regulate/STIM_005.jpg
2036.842	0.963	correct	regulate	Run3	regulate/STIM_006.jpg
2040.456	1.59	correct	regulate	Run3	regulate/STIM_006.jpg
2045.483	2.174	correct	regulate	Run3	regulate/STIM_006.jpg
2049.948	1.199	correct	regulate	Run3	regulate/STIM_006.jpg
2053.462	1.704	correct	regulate	Run3	regulate/STIM_007.jpg
2058.579	1.4	correct	regulate	Run3	regulate/STIM_007.jpg
2062.292	1.531	correct	regulate	Run3	regulate/STIM_007.jpg
2067.314	1.674	correct	regulate	Run3	regulate/STIM_007.jpg
2072.254	2.063	correct	regulate	Run3	regulate/STIM_008.jpg
2077.925	1.79	correct	regulate	Run3	regulate/STIM_008.jpg
2082.318	1.157	correct	regulate	Run3	regulate/STIM_008.jpg
2087.327	1.051	correct	regulate	Run3	regulate/STIM_008.jpg
2091.556	1.685	correct	regulate	Run3	regulate/STIM_009.jpg
2096.144	1.982	correct	regulate	Run3	regulate/STIM_009.jpg
2102.085	1.006	correct	regulate	Run3	regulate/STIM_009.jpg
2105.509	1.043	correct	regulate	Run3	regulate/STIM_009.jpg
2109.904	1.062	correct	regulate	Run3	regulate/STIM_010.jpg
2114.489	1.371	correct	regulate	Run3	regulate/STIM_010.jpg
2118.432	1.569	correct	regulate	Run3	regulate/STIM_010.jpg
2122.962	1.173	correct	regulate	Run3	regulate/STIM_010.jpg
2127.156	1.401	correct	regulate	Run3	regulate/STIM_011.jpg
2132.622	1.556	correct	regulate	Run3	regulate/STIM_011.jpg
2136.547	1.469	correct	regulate	Run3	regulate/STIM_011.jpg
2140.569	1.398	correct	regulate	Run3	regulate/STIM_011.jpg
2145.226	1.056	correct	regulate	Run3	regulate/STIM_012.jpg
2148.857	1.215	correct	regulate	Run3	regulate/STIM_012.jpg
2153.873	2.084	correct	regulate	Run3	regulate/STIM_012.jpg
2159.757	1.768	correct	regulate	Run3	regulate/STIM_012.jpg
2165.773	2.073	correct	regulate	Run3	regulate/STIM_013.jpg
2170.424	1.366	correct	regulate	Run3	regulate/STIM_013.jpg
2174.125	1.521	correct	regulate	Run3	regulate/STIM_013.jpg
2178.061	1.312	correct	regulate	Run3	regulate/STIM_013.jpg
2181.611	2.024	correct	regulate	Run3	regulate/STIM_014.jpg
2186.721	1.711	correct	regulate	Run3	regulate/STIM_014.jpg
2191.231	1.175	correct	regulate	Run3	regulate/STIM_014.jpg
2196.346	0.965	correct	regulate	Run3	regulate/STIM_014.jpg
2200.701	1.093	correct	regulate	Run3	regulate/STIM_015.jpg
2205.239	1.683	correct	regulate	Run3	regulate/STIM_015.jpg
2210.415	1.568	correct	regulate	Run3	regulate/STIM_015.jpg
2215.663	1.593	correct	regulate	Run3	regulate/STIM_015.jpg
2219.63	1.447	correct	regulate	Run3	regulate/STIM_016.jpg
2223.956	1.125	correct	regulate	Run3	regulate/STIM_016.jpg
2229.209	1.948	correct	regulate	Run3	regulate/STIM_016.jpg
2234.25	1.005	correct	regulate	Run3	regulate/STIM_016.jpg
2239.244	2.063	correct	regulate	Run3	regulate/STIM_017.jpg
2244.056	1.491	correct	regulate	Run3	regulate/STIM_017.jpg
2248.327	1.025	incorrect	regulate	Run3	regulate/STIM_017.jpg
2251.925	1.61	correct	regulate	Run3	regulate/STIM_017.jpg
2257.44	1.446	correct	regulate	Run3	regulate/STIM_018.jpg
2261.327	2.073	correct	regulate	Run3	regulate/STIM_018.jpg
2267.103	0.906	correct	regulate	Run3	regulate/STIM_018.jpg
2271.633	1.663	correct	regulate	Run3	regulate/STIM_018.jpg
2276.932	1.835	correct	regulate	Run3	regulate/STIM_019.jpg
2282.355	2.067	correct	regulate	Run3	regulate/STIM_019.jpg
2286.863	1.906	correct	regulate	Run3	regulate/STIM_019.jpg
2291.696	1.814	correct	regulate	Run3	regulate/STIM_019.jpg
2296.302	1.089	correct	regulate	Run3	regulate/STIM_020.jpg
2300.445	2.11	correct	regulate	Run3	regulate/STIM_020.jpg
2306.818	1.752	incorrect	regulate	Run3	regulate/STIM_020.jpg
2312.015	1.932	correct	regulate	Run3	regulate/STIM_020.jpg
2316.265	1.479	correct	regulate	Run3	regulate/STIM_021.jpg
2321.101	1.44	correct	regulate	Run3	regulate/STIM_021.jpg
2325.882	2.119	correct	regulate	Run3	regulate/STIM_021.jpg
2330.947	1.818	correct	regulate	Run3	regulate/STIM_021.jpg
2336.631	1.392	correct	regulate	Run3	regulate/STIM_022.jpg
2342.032	1.917	correct	regulate	Run3	regulate/STIM_022.jpg
2348.183	1.106	correct	regulate	Run3	regulate/STIM_022.jpg
2351.523	1.147	correct	regulate	Run3	regulate/STIM_022.jpg
2356.774	1.28	correct	regulate	Run3	regulate/STIM_023.jpg
2362.161	1.303	correct	regulate	Run3	regulate/STIM_023.jpg
2366.227	1.778	correct	regulate	Run3	regulate/STIM_023.jpg
2371.503	1.02	correct	regulate	Run3	regulate/STIM_023.jpg
2376.228	1.849	correct	regulate	Run3	regulate/STIM_024.jpg
2382.243	1.479	correct	regulate	Run3	regulate/STIM_024.jpg
2386.344	1.778	correct	regulate	Run3	regulate/STIM_024.jpg
2391.653	1.576	correct	regulate	Run3	regulate/STIM_024.jpg
2396.543	1.177	correct	regulate	Run3	regulate/STIM_025.jpg
2401.33	1.234	incorrect	regulate	Run3	regulate/STIM_025.jpg
2406.05	1.059	correct	regulate	Run3	regulate/STIM_025.jpg
2410.808	1.995	correct	regulate	Run3	regulate/STIM_025.jpg
2416.858	1.019	correct	regulate	Run3	regulate/STIM_026.jpg
2420.251	1.627	correct	regulate	Run3	regulate/STIM_026.jpg
2425.287	1.41	correct	regulate	Run3	regulate/STIM_026.jpg
2430.21	1.128	correct	regulate	Run3	regulate/STIM_026.jpg
2435.174	1.222	correct	regulate	Run3	regulate/STIM_027.jpg
2440.242	1.518	correct	regulate	Run3	regulate/STIM_027.jpg
2445.02	0.955	correct	regulate	Run3	regulate/STIM_027.jpg
2449.975	1.848	correct	regulate	Run3	regulate/STIM_027.jpg
2454.252	1.075	correct	regulate	Run3	regulate/STIM_028.jpg
2457.779	1.341	correct	regulate	Run3	regulate/STIM_028.jpg
2461.673	1.199	correct	regulate	Run3	regulate/STIM_028.jpg
2465.894	1.846	correct	regulate	Run3	regulate/STIM_028.jpg
2471.362	1.188	incorrect	regulate	Run3	regulate/STIM_029.jpg
2476.017	1.818	correct	regulate	Run3	regulate/STIM_029.jpg
2480.081	2.109	correct	regulate	Run3	regulate/STIM_029.jpg
2484.848	1.234	correct	regulate	Run3	regulate/STIM_029.jpg
2488.833	0.752	correct	observe	Run3	observe/STIM_000.jpg
2493.41	1.048	correct	observe	Run3	observe/STIM_000.jpg
2497.663	0.67	correct	observe	Run3	observe/STIM_000.jpg
2501.014	0.93	correct	observe	Run3	observe/STIM_000.jpg
2504.211	1.026	correct	observe	Run3	observe/STIM_001.jpg
2507.373	1.239	incorrect	observe	Run3	observe/STIM_001.jpg
2510.903	1.215	correct	observe	Run3	observe/STIM_001.jpg
2514.851	1.041	correct	observe	Run3	observe/STIM_001.jpg
2519.363	1.173	correct	observe	Run3	observe/STIM_002.jpg
2522.929	1.074	correct	observe	Run3	observe/STIM_002.jpg
2528.025	0.651	correct	observe	Run3	observe/STIM_002.jpg
2532.067	0.736	correct	observe	Run3	observe/STIM_002.jpg
2535.223	1.2	correct	observe	Run3	observe/STIM_003.jpg
2539.713	0.822	correct	observe	Run3	observe/STIM_003.jpg
2544.266	1.453	correct	observe	Run3	observe/STIM_003.jpg
2548.586	0.766	correct	observe	Run3	observe/STIM_003.jpg
2553.023	1.04	correct	observe	Run3	observe/STIM_004.jpg
2557.249	1.055	incorrect	observe	Run3	observe/STIM_004.jpg
2562.394	0.724	correct	observe	Run3	observe/STIM_004.jpg
2566.707	1.354	correct	observe	Run3	observe/STIM_004.jpg
2571.851	1.111	correct	observe	Run3	observe/STIM_005.jpg
2576.56	1.401	correct	observe	Run3	observe/STIM_005.jpg
2581.497	0.986	correct	observe	Run3	observe/STIM_005.jpg
2585.821	0.84	correct	observe	Run3	observe/STIM_005.jpg
2589.037	0.867	correct	observe	Run3	observe/STIM_006.jpg
2593.671	1.375	correct	observe	Run3	observe/STIM_006.jpg
2597.765	1.009	correct	observe	Run3	observe/STIM_006.jpg
2601.997	1.02	correct	observe	Run3	observe/STIM_006.jpg
2606.684	0.922	correct	observe	Run3	observe/STIM_007.jpg
2610.857	0.782	correct	observe	Run3	observe/STIM_007.jpg
2615.143	0.932	correct	observe	Run3	observe/STIM_007.jpg
2619.532	0.964	correct	observe	Run3	observe/STIM_007.jpg
2623.163	0.806	correct	observe	Run3	observe/STIM_008.jpg
2627.495	1.308	correct	observe	Run3	observe/STIM_008.jpg
2631.491	0.83	correct	observe	Run3	observe/STIM_008.jpg
2635.402	0.836	incorrect	observe	Run3	observe/STIM_008.jpg
2638.826	0.754	correct	observe	Run3	observe/STIM_009.jpg
2643.216	1.263	correct	observe	Run3	observe/STIM_009.jpg
2648.301	1.392	correct	observe	Run3	observe/STIM_009.jpg
2652.269	1.08	correct	observe	Run3	observe/STIM_009.jpg
2656.397	0.93	correct	observe	Run3	observe/STIM_010.jpg
2659.8	1.362	incorrect	observe	Run3	observe/STIM_010.jpg
2664.464	1.178	correct	observe	Run3	observe/STIM_010.jpg
2668.144	1.396	correct	observe	Run3	observe/STIM_010.jpg
2673.097	1.021	correct	observe	Run3	observe/STIM_011.jpg
2676.84	1.288	correct	observe	Run3	observe/STIM_011.jpg
2681.12	1.029	correct	observe	Run3	observe/STIM_011.jpg
2684.923	0.932	correct	observe	Run3	observe/STIM_011.jpg
2688.394	1.271	correct	observe	Run3	observe/STIM_012.jpg
2692.347	0.819	correct	observe	Run3	observe/STIM_012.jpg
2696.139	1.05	correct	observe	Run3	observe/STIM_012.jpg
2700.856	0.932	correct	observe	Run3	observe/STIM_012.jpg
2705.816	1.267	correct	observe	Run3	observe/STIM_013.jpg
2709.617	1.229	correct	observe	Run3	observe/STIM_013.jpg
2714.763	1.005	correct	observe	Run3	observe/STIM_013.jpg
2719.598	0.988	incorrect	observe	Run3	observe/STIM_013.jpg
2723.712	1.34	correct	observe	Run3	observe/STIM_014.jpg
2728.807	1.313	correct	observe	Run3	observe/STIM_014.jpg
2733.23	0.868	correct	observe	Run3	observe/STIM_014.jpg
2736.639	0.948	correct	observe	Run3	observe/STIM_014.jpg
2740.231	0.884	incorrect	observe	Run3	observe/STIM_015.jpg
2745.187	0.992	correct	observe	Run3	observe/STIM_015.jpg
2749.731	1.071	correct	observe	Run3	observe/STIM_015.jpg
2754.079	1.397	correct	observe	Run3	observe/STIM_015.jpg
2758.599	1.393	correct	observe	Run3	observe/STIM_016.jpg
2763.221	1.283	incorrect	observe	Run3	observe/STIM_016.jpg
2767.211	1.291	incorrect	observe	Run3	observe/STIM_016.jpg
2771.386	1.189	correct	observe	Run3	observe/STIM_016.jpg
2776.13	0.685	correct	observe	Run3	observe/STIM_017.jpg
2779.564	1.221	correct	observe	Run3	observe/STIM_017.jpg
2783.209	1.27	correct	observe	Run3	observe/STIM_017.jpg
2786.77	1.047	correct	observe	Run3	observe/STIM_017.jpg
2790.404	1.065	correct	observe	Run3	observe/STIM_018.jpg
2794.91	1.137	correct	observe	Run3	observe/STIM_018.jpg
2799.937	1.339	correct	observe	Run3	observe/STIM_018.jpg
2804.258	0.968	correct	observe	Run3	observe/STIM_018.jpg
2807.999	1.024	correct	observe	Run3	observe/STIM_019.jpg
2812.088	1.226	correct	observe	Run3	observe/STIM_019.jpg
2816.884	1.304	correct	observe	Run3	observe/STIM_019.jpg
2820.39	1.181	correct	observe	Run3	observe/STIM_019.jpg
