onset	duration	accuracy	trial_type	learning_stage	stimulus
0.0	3.017	incorrect	regulate	Run1	regulate/STIM_000.jpg
6.147	2.331	correct	regulate	Run1	regulate/STIM_000.jpg
10.788	2.823	correct	regulate	Run1	regulate/STIM_000.jpg
16.945	2.541	correct	regulate	Run1	regulate/STIM_000.jpg
22.944	2.178	correct	regulate	Run1	regulate/STIM_001.jpg
27.407	2.647	correct	regulate	Run1	regulate/STIM_001.jpg
33.738	2.175	correct	regulate	Run1	regulate/STIM_001.jpg
38.13	1.636	incorrect	regulate	Run1	regulate/STIM_001.jpg
42.449	3.614	incorrect	regulate	Run1	regulate/STIM_002.jpg
49.698	2.032	correct	regulate	Run1	regulate/STIM_002.jpg
54.852	3.41	correct	regulate	Run1	regulate/STIM_002.jpg
60.642	3.2	correct	regulate	Run1	regulate/STIM_002.jpg
66.25	3.208	correct	regulate	Run1	regulate/STIM_003.jpg
73.35	2.58	correct	regulate	Run1	regulate/STIM_003.jpg
78.564	1.812	correct	regulate	Run1	regulate/STIM_003.jpg
82.517	2.913	correct	regulate	Run1	regulate/STIM_003.jpg
88.598	3.49	correct	regulate	Run1	regulate/STIM_004.jpg
95.795	2.396	correct	regulate	Run1	regulate/STIM_004.jpg
101.803	3.683	correct	regulate	Run1	regulate/STIM_004.jpg
109.227	1.624	correct	regulate	Run1	regulate/STIM_004.jpg
113.857	2.336	correct	regulate	Run1	regulate/STIM_005.jpg
118.42	2.87	correct	regulate	Run1	regulate/STIM_005.jpg
124.658	3.109	correct	regulate	Run1	regulate/STIM_005.jpg
130.492	3.176	correct	regulate	Run1	regulate/STIM_005.jpg
136.401	2.962	correct	regulate	Run1	regulate/STIM_006.jpg
141.927	4.008	correct	regulate	Run1	regulate/STIM_006.jpg
149.62	3.482	correct	regulate	Run1	regulate/STIM_006.jpg
156.501	2.584	correct	regulate	Run1	regulate/STIM_006.jpg
162.968	2.352	correct	regulate	Run1	regulate/STIM_007.jpg
168.842	3.279	correct	regulate	Run1	regulate/STIM_007.jpg
174.739	3.027	incorrect	regulate	Run1	regulate/STIM_007.jpg
179.928	3.002	correct	regulate	Run1	regulate/STIM_007.jpg
185.515	2.376	correct	regulate	Run1	regulate/STIM_008.jpg
190.374	3.105	correct	regulate	Run1	regulate/STIM_008.jpg
195.988	3.46	correct	regulate	Run1	regulate/STIM_008.jpg
202.858	2.602	incorrect	regulate	Run1	regulate/STIM_008.jpg
208.24	2.926	incorrect	regulate	Run1	regulate/STIM_009.jpg
215.163	3.025	correct	regulate	Run1	regulate/STIM_009.jpg
220.298	3.114	incorrect	regulate	Run1	regulate/STIM_009.jpg
226.551	1.888	correct	regulate	Run1	regulate/STIM_009.jpg
232.266	2.234	correct	regulate	Run1	regulate/STIM_010.jpg
237.334	1.992	correct	regulate	Run1	regulate/STIM_010.jpg
242.45	2.203	incorrect	regulate	Run1	regulate/STIM_010.jpg
248.617	3.179	correct	regulate	Run1	regulate/STIM_010.jpg
255.58	3.449	incorrect	regulate	Run1	regulate/STIM_011.jpg
261.406	3.013	correct	regulate	Run1	regulate/STIM_011.jpg
266.484	2.84	correct	regulate	Run1	regulate/STIM_011.jpg
273.05	3.527	correct	regulate	Run1	regulate/STIM_011.jpg
280.236	3.658	correct	regulate	Run1	regulate/STIM_012.jpg
285.959	2.754	incorrect	regulate	Run1	regulate/STIM_012.jpg
291.636	2.988	correct	regulate	Run1	regulate/STIM_012.jpg
296.781	2.389	incorrect	regulate	Run1	regulate/STIM_012.jpg
301.969	2.256	correct	regulate	Run1	regulate/STIM_013.jpg
307.945	2.001	correct	regulate	Run1	regulate/STIM_013.jpg
313.533	3.044	correct	regulate	Run1	regulate/STIM_013.jpg
320.045	3.408	correct	regulate	Run1	regulate/STIM_013.jpg
325.812	3.389	incorrect	regulate	Run1	regulate/STIM_014.jpg
332.21	3.381	correct	regulate	Run1	regulate/STIM_014.jpg
339.21	3.376	correct	regulate	Run1	regulate/STIM_014.jpg
345.073	3.05	correct	regulate	Run1	regulate/STIM_014.jpg
350.141	2.68	incorrect	regulate	Run1	regulate/STIM_015.jpg
355.518	3.015	correct	regulate	Run1	regulate/STIM_015.jpg
361.054	2.899	correct	regulate	Run1	regulate/STIM_015.jpg
367.418	2.289	correct	regulate	Run1	regulate/STIM_015.jpg
372.334	3.243	correct	regulate	Run1	regulate/STIM_016.jpg
378.191	2.105	incorrect	regulate	Run1	regulate/STIM_016.jpg
382.48	3.085	correct	regulate	Run1	regulate/STIM_016.jpg
388.975	3.435	correct	regulate	Run1	regulate/STIM_016.jpg
394.782	2.571	correct	regulate	Run1	regulate/STIM_017.jpg
399.719	3.062	correct	regulate	Run1	regulate/STIM_017.jpg
404.997	1.938	correct	regulate	Run1	regulate/STIM_017.jpg
408.936	1.82	correct	regulate	Run1	regulate/STIM_017.jpg
413.606	3.346	correct	regulate	Run1	regulate/STIM_018.jpg
420.713	1.832	correct	regulate	Run1	regulate/STIM_018.jpg
426.254	2.132	correct	regulate	Run1	regulate/STIM_018.jpg
432.207	2.96	correct	regulate	Run1	regulate/STIM_018.jpg
438.369	2.268	incorrect	regulate	Run1	regulate/STIM_019.jpg
443.489	2.171	incorrect	regulate	Run1	regulate/STIM_019.jpg
448.242	3.434	correct	regulate	Run1	regulate/STIM_019.jpg
455.418	2.579	correct	regulate	Run1	regulate/STIM_019.jpg
460.489	2.594	incorrect	regulate	Run1	regulate/STIM_020.jpg
465.993	3.135	correct	regulate	Run1	regulate/STIM_020.jpg
472.055	2.993	correct	regulate	Run1	regulate/STIM_020.jpg
478.957	2.365	correct	regulate	Run1	regulate/STIM_020.jpg
484.972	3.921	correct	regulate	Run1	regulate/STIM_021.jpg
491.719	1.73	incorrect	regulate	Run1	regulate/STIM_021.jpg
495.961	2.294	correct	regulate	Run1	regulate/STIM_021.jpg
501.169	2.669	correct	regulate	Run1	regulate/STIM_021.jpg
506.482	4.033	correct	regulate	Run1	regulate/STIM_022.jpg
513.034	2.0	correct	regulate	Run1	regulate/STIM_022.jpg
517.566	3.256	correct	regulate	Run1	regulate/STIM_022.jpg
523.939	2.214	correct	regulate	Run1	regulate/STIM_022.jpg
528.507	3.85	correct	regulate	Run1	regulate/STIM_023.jpg
536.22	2.596	incorrect	regulate	Run1	regulate/STIM_023.jpg
541.749	2.428	correct	regulate	Run1	regulate/STIM_023.jpg
546.251	3.085	correct	regulate	Run1	regulate/STIM_023.jpg
551.478	3.335	correct	regulate	Run1	regulate/STIM_024.jpg
557.959	2.642	incorrect	regulate	Run1	regulate/STIM_024.jpg
564.481	2.306	correct	regulate	Run1	regulate/STIM_024.jpg
570.786	2.233	correct	regulate	Run1	regulate/STIM_024.jpg
576.794	4.138	correct	regulate	Run1	regulate/STIM_025.jpg
584.776	3.386	correct	regulate	Run1	regulate/STIM_025.jpg
591.758	1.639	correct	regulate	Run1	regulate/STIM_025.jpg
595.717	2.215	correct	regulate	Run1	regulate/STIM_025.jpg
601.629	3.875	correct	regulate	Run1	regulate/STIM_026.jpg
609.119	2.581	incorrect	regulate	Run1	regulate/STIM_026.jpg
614.626	1.757	correct	regulate	Run1	regulate/STIM_026.jpg
618.533	1.694	correct	regulate	Run1	regulate/STIM_026.jpg
623.703	3.445	correct	regulate	Run1	regulate/STIM_027.jpg
629.389	1.842	correct	regulate	Run1	regulate/STIM_027.jpg
634.653	2.577	correct	regulate	Run1	regulate/STIM_027.jpg
640.873	2.123	incorrect	regulate	Run1	regulate/STIM_027.jpg
646.662	1.967	incorrect	regulate	Run1	regulate/STIM_028.jpg
651.226	3.027	correct	regulate	Run1	regulate/STIM_028.jpg
656.657	2.508	correct	regulate	Run1	regulate/STIM_028.jpg
662.976	3.198	correct	regulate	Run1	regulate/STIM_028.jpg
669.764	3.713	correct	regulate	Run1	regulate/STIM_029.jpg
676.822	3.854	incorrect	regulate	Run1	regulate/STIM_029.jpg
684.272	3.223	correct	regulate	Run1	regulate/STIM_029.jpg
690.802	3.352	correct	regulate	Run1	regulate/STIM_029.jpg
696.808	1.447	correct	observe	Run1	observe/STIM_000.jpg
700.971	1.136	correct	observe	Run1	observe/STIM_000.jpg
704.791	1.544	correct	observe	Run1	observe/STIM_000.jpg
709.227	1.012	correct	observe	Run1	observe/STIM_000.jpg
713.765	1.626	correct	observe	Run1	observe/STIM_001.jpg
718.269	1.557	correct	observe	Run1	observe/STIM_001.jpg
723.134	1.654	correct	observe	Run1	observe/STIM_001.jpg
728.614	1.769	correct	observe	Run1	observe/STIM_001.jpg
732.572	1.629	correct	observe	Run1	observe/STIM_002.jpg
736.774	1.073	correct	observe	Run1	observe/STIM_002.jpg
739.861	1.803	correct	observe	Run1	observe/STIM_002.jpg
745.512	1.3	correct	observe	Run1	observe/STIM_002.jpg
749.54	1.901	correct	observe	Run1	observe/STIM_003.jpg
754.403	1.858	correct	observe	Run1	observe/STIM_003.jpg
759.237	1.15	correct	observe	Run1	observe/STIM_003.jpg
762.85	1.462	correct	observe	Run1	observe/STIM_003.jpg
768.108	1.136	correct	observe	Run1	observe/STIM_004.jpg
773.104	1.915	correct	observe	Run1	observe/STIM_004.jpg
778.841	1.803	incorrect	observe	Run1	observe/STIM_004.jpg
784.372	1.263	correct	observe	Run1	observe/STIM_004.jpg
788.153	1.176	incorrect	observe	Run1	observe/STIM_005.jpg
792.859	1.731	correct	observe	Run1	observe/STIM_005.jpg
797.43	1.539	correct	observe	Run1	observe/STIM_005.jpg
801.835	1.014	correct	observe	Run1	observe/STIM_005.jpg
806.417	1.557	incorrect	observe	Run1	observe/STIM_006.jpg
810.553	1.665	incorrect	observe	Run1	observe/STIM_006.jpg
814.479	1.123	correct	observe	Run1	observe/STIM_006.jpg
819.581	1.761	correct	observe	Run1	observe/STIM_006.jpg
823.901	0.974	correct	observe	Run1	observe/STIM_007.jpg
828.81	1.201	correct	observe	Run1	observe/STIM_007.jpg
832.187	1.875	correct	observe	Run1	observe/STIM_007.jpg
837.225	1.4	correct	observe	Run1	observe/STIM_007.jpg
842.105	1.186	correct	observe	Run1	observe/STIM_008.jpg
846.144	1.648	correct	observe	Run1	observe/STIM_008.jpg
850.087	1.587	correct	observe	Run1	observe/STIM_008.jpg
853.812	1.663	correct	observe	Run1	observe/STIM_008.jpg
858.668	0.976	correct	observe	Run1	observe/STIM_009.jpg
862.691	0.979	correct	observe	Run1	observe/STIM_009.jpg
866.943	1.589	correct	observe	Run1	observe/STIM_009.jpg
872.083	1.376	correct	observe	Run1	observe/STIM_009.jpg
875.522	1.488	correct	observe	Run1	observe/STIM_010.jpg
879.357	1.531	correct	observe	Run1	observe/STIM_010.jpg
883.348	1.837	correct	observe	Run1	observe/STIM_010.jpg
887.566	1.767	correct	observe	Run1	observe/STIM_010.jpg
892.812	1.248	correct	observe	Run1	observe/STIM_011.jpg
896.802	1.652	correct	observe	Run1	observe/STIM_011.jpg
901.955	1.564	correct	observe	Run1	observe/STIM_011.jpg
906.988	1.286	correct	observe	Run1	observe/STIM_011.jpg
911.881	1.677	correct	observe	Run1	observe/STIM_012.jpg
917.092	1.242	correct	observe	Run1	observe/STIM_012.jpg
922.037	1.884	correct	observe	Run1	observe/STIM_012.jpg
927.409	1.488	incorrect	observe	Run1	observe/STIM_012.jpg
931.138	1.386	correct	observe	Run1	observe/STIM_013.jpg
935.537	1.013	correct	observe	Run1	observe/STIM_013.jpg
939.658	1.038	correct	observe	Run1	observe/STIM_013.jpg
943.615	1.923	correct	observe	Run1	observe/STIM_013.jpg
948.88	1.892	correct	observe	Run1	observe/STIM_014.jpg
954.216	1.283	correct	observe	Run1	observe/STIM_014.jpg
958.255	1.265	correct	observe	Run1	observe/STIM_014.jpg
962.053	1.024	correct	observe	Run1	observe/STIM_014.jpg
966.14	1.313	correct	observe	Run1	observe/STIM_015.jpg
970.482	1.823	correct	observe	Run1	observe/STIM_015.jpg
975.276	1.083	correct	observe	Run1	observe/STIM_015.jpg
979.291	1.624	correct	observe	Run1	observe/STIM_015.jpg
984.378	1.417	incorrect	observe	Run1	observe/STIM_016.jpg
988.812	1.083	correct	observe	Run1	observe/STIM_016.jpg
992.549	1.556	correct	observe	Run1	observe/STIM_016.jpg
997.807	1.131	correct	observe	Run1	observe/STIM_016.jpg
1002.484	1.419	correct	observe	Run1	observe/STIM_017.jpg
1006.364	1.716	correct	observe	Run1	observe/STIM_017.jpg
1010.821	1.93	correct	observe	Run1	observe/STIM_017.jpg
1015.602	1.455	correct	observe	Run1	observe/STIM_017.jpg
1019.224	1.326	correct	observe	Run1	observe/STIM_018.jpg
1023.096	1.59	correct	observe	Run1	observe/STIM_018.jpg
1027.813	1.169	correct	observe	Run1	observe/STIM_018.jpg
1031.965	1.918	correct	observe	Run1	observe/STIM_018.jpg
1037.67	1.16	correct	observe	Run1	observe/STIM_019.jpg
1040.982	1.733	correct	observe	Run1	observe/STIM_019.jpg
1045.21	1.57	incorrect	observe	Run1	observe/STIM_019.jpg
1049.512	1.153	incorrect	observe	Run1	observe/STIM_019.jpg
1053.273	2.73	correct	regulate	Run2	regulate/STIM_000.jpg
1058.853	2.986	correct	regulate	Run2	regulate/STIM_000.jpg
1064.884	2.572	correct	regulate	Run2	regulate/STIM_000.jpg
1069.755	1.438	correct	regulate	Run2	regulate/STIM_000.jpg
1073.213	1.899	correct	regulate	Run2	regulate/STIM_001.jpg
1079.034	1.469	correct	regulate	Run2	regulate/STIM_001.jpg
1082.917	2.869	correct	regulate	Run2	regulate/STIM_001.jpg
1089.488	1.941	correct	regulate	Run2	regulate/STIM_001.jpg
1094.585	3.385	correct	regulate	Run2	regulate/STIM_002.jpg
1100.596	1.687	correct	regulate	Run2	regulate/STIM_002.jpg
1104.685	2.194	correct	regulate	Run2	regulate/STIM_002.jpg
1109.101	1.903	correct	regulate	Run2	regulate/STIM_002.jpg
1113.535	1.944	correct	regulate	Run2	regulate/STIM_003.jpg
1118.034	2.122	incorrect	regulate	Run2	regulate/STIM_003.jpg
1122.185	2.523	incorrect	regulate	Run2	regulate/STIM_003.jpg
1127.669	2.236	correct	regulate	Run2	regulate/STIM_003.jpg
1132.193	2.561	correct	regulate	Run2	regulate/STIM_004.jpg
1136.88	1.762	correct	regulate	Run2	regulate/STIM_004.jpg
1142.275	2.228	correct	regulate	Run2	regulate/STIM_004.jpg
1147.378	2.365	correct	regulate	Run2	regulate/STIM_004.jpg
1152.375	2.583	correct	regulate	Run2	regulate/STIM_005.jpg
1157.459	2.637	correct	regulate	Run2	regulate/STIM_005.jpg
1163.46	2.649	correct	regulate	Run2	regulate/STIM_005.jpg
1168.92	2.437	correct	regulate	Run2	regulate/STIM_005.jpg
1173.682	3.187	correct	regulate	Run2	regulate/STIM_006.jpg
1179.157	1.8	correct	regulate	Run2	regulate/STIM_006.jpg
1183.04	2.431	correct	regulate	Run2	regulate/STIM_006.jpg
1187.914	1.309	correct	regulate	Run2	regulate/STIM_006.jpg
1192.832	2.647	correct	regulate	Run2	regulate/STIM_007.jpg
1199.295	3.338	correct	regulate	Run2	regulate/STIM_007.jpg
1205.859	3.036	correct	regulate	Run2	regulate/STIM_007.jpg
1212.059	1.396	correct	regulate	Run2	regulate/STIM_007.jpg
1216.801	1.649	correct	regulate	Run2	regulate/STIM_008.jpg
1220.678	3.359	correct	regulate	Run2	regulate/STIM_008.jpg
1226.168	1.676	correct	regulate	Run2	regulate/STIM_008.jpg
1231.649	1.683	correct	regulate	Run2	regulate/STIM_008.jpg
1235.342	2.905	correct	regulate	Run2	regulate/STIM_009.jpg
1240.271	3.143	correct	regulate	Run2	regulate/STIM_009.jpg
1246.865	1.451	correct	regulate	Run2	regulate/STIM_009.jpg
1250.597	2.054	correct	regulate	Run2	regulate/STIM_009.jpg
1254.982	1.625	incorrect	regulate	Run2	regulate/STIM_010.jpg
1260.58	2.45	correct	regulate	Run2	regulate/STIM_010.jpg
1266.927	2.32	correct	regulate	Run2	regulate/STIM_010.jpg
1271.96	1.746	correct	regulate	Run2	regulate/STIM_010.jpg
1277.471	3.468	correct	regulate	Run2	regulate/STIM_011.jpg
1284.901	1.52	correct	regulate	Run2	regulate/STIM_011.jpg
1289.759	2.0	correct	regulate	Run2	regulate/STIM_011.jpg
1293.872	2.796	correct	regulate	Run2	regulate/STIM_011.jpg
1298.932	3.564	correct	regulate	Run2	regulate/STIM_012.jpg
1304.946	1.629	correct	regulate	Run2	regulate/STIM_012.jpg
1309.734	2.252	correct	regulate	Run2	regulate/STIM_012.jpg
1315.284	1.408	correct	regulate	Run2	regulate/STIM_012.jpg
1319.999	2.498	correct	regulate	Run2	regulate/STIM_013.jpg
1325.95	1.816	correct	regulate	Run2	regulate/STIM_013.jpg
1331.355	2.733	correct	regulate	Run2	regulate/STIM_013.jpg
1337.632	1.81	correct	regulate	Run2	regulate/STIM_013.jpg
1342.641	2.699	correct	regulate	Run2	regulate/STIM_014.jpg
1348.406	2.645	correct	regulate	Run2	regulate/STIM_014.jpg
1353.828	2.624	correct	regulate	Run2	regulate/STIM_014.jpg
1359.405	2.365	correct	regulate	Run2	regulate/STIM_014.jpg
1364.084	2.462	correct	regulate	Run2	regulate/STIM_015.jpg
1369.415	3.171	correct	regulate	Run2	regulate/STIM_015.jpg
1375.942	2.453	correct	regulate	Run2	regulate/STIM_015.jpg
1382.394	1.828	correct	regulate	Run2	regulate/STIM_015.jpg
1387.148	1.607	correct	regulate	Run2	regulate/STIM_016.jpg
1391.952	1.83	incorrect	regulate	Run2	regulate/STIM_016.jpg
1397.191	2.725	correct	regulate	Run2	regulate/STIM_016.jpg
1402.078	2.899	correct	regulate	Run2	regulate/STIM_016.jpg
1408.107	2.566	correct	regulate	Run2	regulate/STIM_017.jpg
1413.633	3.209	correct	regulate	Run2	regulate/STIM_017.jpg
1419.549	2.105	correct	regulate	Run2	regulate/STIM_017.jpg
1424.445	2.792	correct	regulate	Run2	regulate/STIM_017.jpg
1430.434	1.54	correct	regulate	Run2	regulate/STIM_018.jpg
1434.557	2.988	correct	regulate	Run2	regulate/STIM_018.jpg
1440.395	2.769	correct	regulate	Run2	regulate/STIM_018.jpg
1446.374	2.632	correct	regulate	Run2	regulate/STIM_018.jpg
1451.766	2.806	correct	regulate	Run2	regulate/STIM_019.jpg
1457.902	1.664	incorrect	regulate	Run2	regulate/STIM_019.jpg
1461.812	1.929	correct	regulate	Run2	regulate/STIM_019.jpg
1467.385	2.874	correct	regulate	Run2	regulate/STIM_019.jpg
1472.886	2.081	correct	regulate	Run2	regulate/STIM_020.jpg
1478.227	2.789	correct	regulate	Run2	regulate/STIM_020.jpg
1483.918	1.743	correct	regulate	Run2	regulate/STIM_020.jpg
1489.02	2.826	correct	regulate	Run2	regulate/STIM_020.jpg
1495.602	1.834	correct	regulate	Run2	regulate/STIM_021.jpg
1499.506	2.428	correct	regulate	Run2	regulate/STIM_021.jpg
1505.462	1.412	correct	regulate	Run2	regulate/STIM_021.jpg
1509.853	1.904	correct	regulate	Run2	regulate/STIM_021.jpg
1513.891	1.776	correct	regulate	Run2	regulate/STIM_022.jpg
1518.538	3.236	correct	regulate	Run2	regulate/STIM_022.jpg
1524.378	1.522	correct	regulate	Run2	regulate/STIM_022.jpg
1529.135	1.508	correct	regulate	Run2	regulate/STIM_022.jpg
1533.455	2.754	correct	regulate	Run2	regulate/STIM_023.jpg
1538.855	2.433	correct	regulate	Run2	regulate/STIM_023.jpg
1544.034	1.519	correct	regulate	Run2	regulate/STIM_023.jpg
1549.396	1.666	correct	regulate	Run2	regulate/STIM_023.jpg
1554.177	3.377	correct	regulate	Run2	regulate/STIM_024.jpg
1560.517	1.928	correct	regulate	Run2	regulate/STIM_024.jpg
1566.147	1.499	correct	regulate	Run2	regulate/STIM_024.jpg
1570.933	2.23	correct	regulate	Run2	regulate/STIM_024.jpg
1576.5	3.274	correct	regulate	Run2	regulate/STIM_025.jpg
1582.808	2.977	correct	regulate	Run2	regulate/STIM_025.jpg
1588.697	2.099	correct	regulate	Run2	regulate/STIM_025.jpg
1593.433	1.56	correct	regulate	Run2	regulate/STIM_025.jpg
1597.014	2.173	correct	regulate	Run2	regulate/STIM_026.jpg
1602.144	3.063	correct	regulate	Run2	regulate/STIM_026.jpg
1607.534	2.221	correct	regulate	Run2	regulate/STIM_026.jpg
1613.427	2.195	correct	regulate	Run2	regulate/STIM_026.jpg
1618.656	2.448	correct	regulate	Run2	regulate/STIM_027.jpg
1624.482	1.509	correct	regulate	Run2	regulate/STIM_027.jpg
1628.283	1.422	correct	regulate	Run2	regulate/STIM_027.jpg
1632.132	1.522	correct	regulate	Run2	regulate/STIM_027.jpg
1637.319	3.532	correct	regulate	Run2	regulate/STIM_028.jpg
1643.588	3.361	correct	regulate	Run2	regulate/STIM_028.jpg
1649.232	2.483	correct	regulate	Run2	regulate/STIM_028.jpg
1655.14	1.602	correct	regulate	Run2	regulate/STIM_028.jpg
1660.402	2.509	correct	regulate	Run2	regulate/STIM_029.jpg
1666.862	1.835	correct	regulate	Run2	regulate/STIM_029.jpg
1672.351	2.658	correct	regulate	Run2	regulate/STIM_029.jpg
1678.089	2.392	correct	regulate	Run2	regulate/STIM_029.jpg
1684.214	1.725	incorrect	observe	Run2	observe/STIM_000.jpg
1689.466	1.642	correct	observe	Run2	observe/STIM_000.jpg
1693.608	1.001	correct	observe	Run2	observe/STIM_000.jpg
1696.78	1.56	correct	observe	Run2	observe/STIM_000.jpg
1700.785	1.602	correct	observe	Run2	observe/STIM_001.jpg
1706.383	1.019	correct	observe	Run2	observe/STIM_001.jpg
1710.964	1.697	correct	observe	Run2	observe/STIM_001.jpg
1716.222	1.519	correct	observe	Run2	observe/STIM_001.jpg
1721.246	1.897	correct	observe	Run2	observe/STIM_002.jpg
1725.944	1.092	correct	observe	Run2	observe/STIM_002.jpg
1729.236	1.752	correct	observe	Run2	observe/STIM_002.jpg
1734.756	1.481	correct	observe	Run2	observe/STIM_002.jpg
1738.292	1.065	correct	observe	Run2	observe/STIM_003.jpg
1742.842	1.832	correct	observe	Run2	observe/STIM_003.jpg
1746.766	1.451	correct	observe	Run2	observe/STIM_003.jpg
1750.452	1.644	correct	observe	Run2	observe/STIM_003.jpg
1755.746	1.131	correct	observe	Run2	observe/STIM_004.jpg
1759.184	1.344	incorrect	observe	Run2	observe/STIM_004.jpg
1762.96	1.826	correct	observe	Run2	observe/STIM_004.jpg
1767.502	1.449	correct	observe	Run2	observe/STIM_004.jpg
1771.044	1.507	correct	observe	Run2	observe/STIM_005.jpg
1774.872	1.464	correct	observe	Run2	observe/STIM_005.jpg
1779.737	1.508	correct	observe	Run2	observe/STIM_005.jpg
1783.987	1.02	correct	observe	Run2	observe/STIM_005.jpg
1787.142	1.685	correct	observe	Run2	observe/STIM_006.jpg
1792.601	1.611	correct	observe	Run2	observe/STIM_006.jpg
1797.963	1.262	incorrect	observe	Run2	observe/STIM_006.jpg
1803.06	1.487	correct	observe	Run2	observe/STIM_006.jpg
1807.393	1.216	correct	observe	Run2	observe/STIM_007.jpg
1812.084	1.922	correct	observe	Run2	observe/STIM_007.jpg
1816.725	1.003	correct	observe	Run2	observe/STIM_007.jpg
1821.06	1.507	correct	observe	Run2	observe/STIM_007.jpg
1824.823	1.403	correct	observe	Run2	observe/STIM_008.jpg
1830.075	1.045	correct	observe	Run2	observe/STIM_008.jpg
1833.787	1.757	correct	observe	Run2	observe/STIM_008.jpg
1838.157	1.639	correct	observe	Run2	observe/STIM_008.jpg
1843.077	1.407	correct	observe	Run2	observe/STIM_009.jpg
1847.514	1.476	correct	observe	Run2	observe/STIM_009.jpg
1852.32	0.981	correct	observe	Run2	observe/STIM_009.jpg
1856.589	1.796	correct	observe	Run2	observe/STIM_009.jpg
1862.177	1.205	correct	observe	Run2	observe/STIM_010.jpg
1867.069	1.682	correct	observe	Run2	observe/STIM_010.jpg
1871.767	1.319	correct	observe	Run2	observe/STIM_010.jpg
1876.929	1.806	correct	observe	Run2	observe/STIM_010.jpg
1881.622	1.623	correct	observe	Run2	observe/STIM_011.jpg
1885.281	1.598	correct	observe	Run2	observe/STIM_011.jpg
1889.075	1.139	correct	observe	Run2	observe/STIM_011.jpg
1892.216	1.059	correct	observe	Run2	observe/STIM_011.jpg
1896.396	1.638	correct	observe	Run2	observe/STIM_012.jpg
1901.167	1.104	correct	observe	Run2	observe/STIM_012.jpg
1904.516	1.168	correct	observe	Run2	observe/STIM_012.jpg
1908.138	1.286	incorrect	observe	Run2	observe/STIM_012.jpg
1912.486	1.789	correct	observe	Run2	observe/STIM_013.jpg
1917.659	1.399	correct	observe	Run2	observe/STIM_013.jpg
1922.733	1.143	correct	observe	Run2	observe/STIM_013.jpg
1926.309	1.708	correct	observe	Run2	observe/STIM_013.jpg
1930.953	1.163	incorrect	observe	Run2	observe/STIM_014.jpg
1934.222	1.639	correct	observe	Run2	observe/STIM_014.jpg
1938.479	1.327	correct	observe	Run2	observe/STIM_014.jpg
1942.986	1.774	correct	observe	Run2	observe/STIM_014.jpg
1947.178	1.572	correct	observe	Run2	observe/STIM_015.jpg
1951.493	1.192	correct	observe	Run2	observe/STIM_015.jpg
1955.281	1.147	correct	observe	Run2	observe/STIM_015.jpg
1959.384	1.19	correct	observe	Run2	observe/STIM_015.jpg
1962.637	1.233	correct	observe	Run2	observe/STIM_016.jpg
1967.528	1.251	correct	observe	Run2	observe/STIM_016.jpg
1972.546	1.691	correct	observe	Run2	observe/STIM_016.jpg
1977.431	1.43	correct	observe	Run2	observe/STIM_016.jpg
1981.039	1.417	correct	observe	Run2	observe/STIM_017.jpg
1984.864	1.208	correct	observe	Run2	observe/STIM_017.jpg
1989.489	1.23	correct	observe	Run2	observe/STIM_017.jpg
1993.933	1.216	correct	observe	Run2	observe/STIM_017.jpg
1998.916	1.068	correct	observe	Run2	observe/STIM_018.jpg
2002.347	1.05	correct	observe	Run2	observe/STIM_018.jpg
2006.271	1.605	correct	observe	Run2	observe/STIM_018.jpg
2011.124	1.066	correct	observe	Run2	observe/STIM_018.jpg
2014.652	1.528	correct	observe	Run2	observe/STIM_019.jpg
2018.279	1.0	correct	observe	Run2	observe/STIM_019.jpg
2021.849	1.854	correct	observe	Run2	observe/STIM_019.jpg
2026.412	0.996	correct	observe	Run2	observe/STIM_019.jpg
2030.72	2.716	correct	regulate	Run3	regulate/STIM_000.jpg
2037.019	1.813	correct	regulate	Run3	regulate/STIM_000.jpg
2042.086	2.433	correct	regulate	Run3	regulate/STIM_000.jpg
2046.783	1.846	correct	regulate	Run3	regulate/STIM_000.jpg
2052.387	1.315	correct	regulate	Run3	regulate/STIM_001.jpg
2056.078	1.587	correct	regulate	Run3	regulate/STIM_001.jpg
2059.814	2.212	correct	regulate	Run3	regulate/STIM_001.jpg
2065.554	1.473	correct	regulate	Run3	regulate/STIM_001.jpg
2070.06	1.567	correct	regulate	Run3	regulate/STIM_002.jpg
2074.894	1.672	correct	regulate	Run3	regulate/STIM_002.jpg
2078.587	1.274	correct	regulate	Run3	regulate/STIM_002.jpg
2082.411	2.277	correct	regulate	Run3	regulate/STIM_002.jpg
2088.527	2.282	correct	regulate	Run3	regulate/STIM_003.jpg
2094.719	1.69	correct	regulate	Run3	regulate/STIM_003.jpg
2100.308	2.119	correct	regulate	Run3	regulate/STIM_003.jpg
2105.491	1.453	correct	regulate	Run3	regulate/STIM_003.jpg
2109.798	1.659	correct	regulate	Run3	regulate/STIM_004.jpg
2114.982	2.55	correct	regulate	Run3	regulate/STIM_004.jpg
2120.555	1.951	correct	regulate	Run3	regulate/STIM_004.jpg
2126.112	1.538	correct	regulate	Run3	regulate/STIM_004.jpg
2130.178	2.218	correct	regulate	Run3	regulate/STIM_005.jpg
2135.024	2.346	correct	regulate	Run3	regulate/STIM_005.jpg
2141.033	1.79	correct	regulate	Run3	regulate/STIM_005.jpg
2146.451	1.899	correct	regulate	Run3	regulate/STIM_005.jpg
2150.795	2.609	correct	regulate	Run3	regulate/STIM_006.jpg
2156.266	1.718	correct	regulate	Run3	regulate/STIM_006.jpg
2161.034	2.737	correct	regulate	Run3	regulate/STIM_006.jpg
2166.797	1.778	correct	regulate	Run3	regulate/STIM_006.jpg
2171.412	2.646	correct	regulate	Run3	regulate/STIM_007.jpg
2176.115	2.241	correct	regulate	Run3	regulate/STIM_007.jpg
2181.557	1.645	correct	regulate	Run3	regulate/STIM_007.jpg
2186.917	1.459	correct	regulate	Run3	regulate/STIM_007.jpg
2191.493	1.603	correct	regulate	Run3	regulate/STIM_008.jpg
2195.383	1.846	correct	regulate	Run3	regulate/STIM_008.jpg
2199.976	1.687	correct	regulate	Run3	regulate/STIM_008.jpg
2204.226	1.739	correct	regulate	Run3	regulate/STIM_008.jpg
2209.331	1.857	correct	regulate	Run3	regulate/STIM_009.jpg
2215.145	2.585	incorrect	regulate	Run3	regulate/STIM_009.jpg
2219.755	1.539	correct	regulate	Run3	regulate/STIM_009.jpg
2224.071	2.171	incorrect	regulate	Run3	regulate/STIM_009.jpg
2229.421	2.786	correct	regulate	Run3	regulate/STIM_010.jpg
2234.318	2.554	correct	regulate	Run3	regulate/STIM_010.jpg
2240.836	2.298	correct	regulate	Run3	regulate/STIM_010.jpg
2246.194	2.64	correct	regulate	Run3	regulate/STIM_010.jpg
2250.87	2.202	correct	regulate	Run3	regulate/STIM_011.jpg
2255.464	2.368	correct	regulate	Run3	regulate/STIM_011.jpg
2261.206	2.907	correct	regulate	Run3	regulate/STIM_011.jpg
2267.621	1.65	correct	regulate	Run3	regulate/STIM_011.jpg
2272.019	2.324	correct	regulate	Run3	regulate/STIM_012.jpg
2277.293	1.656	correct	regulate	Run3	regulate/STIM_012.jpg
2282.69	2.815	correct	regulate	Run3	regulate/STIM_012.jpg
2289.469	2.788	correct	regulate	Run3	regulate/STIM_012.jpg
2295.871	2.521	correct	regulate	Run3	regulate/STIM_013.jpg
2301.268	1.576	correct	regulate	Run3	regulate/STIM_013.jpg
2306.756	2.92	correct	regulate	Run3	regulate/STIM_013.jpg
2312.575	2.397	correct	regulate	Run3	regulate/STIM_013.jpg
2318.151	1.412	correct	regulate	Run3	regulate/STIM_014.jpg
2322.915	2.523	correct	regulate	Run3	regulate/STIM_014.jpg
2328.95	2.14	correct	regulate	Run3	regulate/STIM_014.jpg
2334.23	2.436	correct	regulate	Run3	regulate/STIM_014.jpg
2338.705	2.931	correct	regulate	Run3	regulate/STIM_015.jpg
2344.467	2.837	correct	regulate	Run3	regulate/STIM_015.jpg
2350.028	2.527	correct	regulate	Run3	regulate/STIM_015.jpg
2354.634	1.608	correct	regulate	Run3	regulate/STIM_015.jpg
2358.321	2.04	correct	regulate	Run3	regulate/STIM_016.jpg
2363.878	2.551	correct	regulate	Run3	regulate/STIM_016.jpg
2369.197	2.538	correct	regulate	Run3	regulate/STIM_016.jpg
2374.069	2.744	correct	regulate	Run3	regulate/STIM_016.jpg
2379.354	2.496	correct	regulate	Run3	regulate/STIM_017.jpg
2383.867	1.692	correct	regulate	Run3	regulate/STIM_017.jpg
2388.088	1.333	correct	regulate	Run3	regulate/STIM_017.jpg
2392.772	2.474	correct	regulate	Run3	regulate/STIM_017.jpg
2398.589	1.343	correct	regulate	Run3	regulate/STIM_018.jpg
2402.677	2.62	correct	regulate	Run3	regulate/STIM_018.jpg
2407.688	1.962	correct	regulate	Run3	regulate/STIM_018.jpg
2411.786	1.723	correct	regulate	Run3	regulate/STIM_018.jpg
2417.043	2.427	correct	regulate	Run3	regulate/STIM_019.jpg
2423.292	2.275	correct	regulate	Run3	regulate/STIM_019.jpg
2428.735	1.683	correct	regulate	Run3	regulate/STIM_019.jpg
2433.819	2.744	correct	regulate	Run3	regulate/STIM_019.jpg
2440.054	1.862	correct	regulate	Run3	regulate/STIM_020.jpg
2444.419	1.821	correct	regulate	Run3	regulate/STIM_020.jpg
2449.838	1.351	correct	regulate	Run3	regulate/STIM_020.jpg
2453.799	2.333	correct	regulate	Run3	regulate/STIM_020.jpg
2458.926	1.66	correct	regulate	Run3	regulate/STIM_021.jpg
2464.029	1.649	correct	regulate	Run3	regulate/STIM_021.jpg
2469.101	1.658	correct	regulate	Run3	regulate/STIM_021.jpg
2474.266	2.64	correct	regulate	Run3	regulate/STIM_021.jpg
2479.8	1.735	correct	regulate	Run3	regulate/STIM_022.jpg
2485.267	2.209	incorrect	regulate	Run3	regulate/STIM_022.jpg
2489.851	2.457	correct	regulate	Run3	regulate/STIM_022.jpg
2495.75	2.197	correct	regulate	Run3	regulate/STIM_022.jpg
2500.846	1.617	correct	regulate	Run3	regulate/STIM_023.jpg
2506.195	2.0	correct	regulate	Run3	regulate/STIM_023.jpg
2510.854	1.959	correct	regulate	Run3	regulate/STIM_023.jpg
2514.968	1.679	correct	regulate	Run3	regulate/STIM_023.jpg
2519.386	2.466	correct	regulate	Run3	regulate/STIM_024.jpg
2525.554	1.512	incorrect	regulate	Run3	regulate/STIM_024.jpg
2530.884	1.946	correct	regulate	Run3	regulate/STIM_024.jpg
2536.037	1.7	correct	regulate	Run3	regulate/STIM_024.jpg
2540.566	2.905	incorrect	regulate	Run3	regulate/STIM_025.jpg
2546.862	1.441	correct	regulate	Run3	regulate/STIM_025.jpg
2550.849	1.874	correct	regulate	Run3	regulate/STIM_025.jpg
2555.084	1.829	correct	regulate	Run3	regulate/STIM_025.jpg
2559.344	2.93	correct	regulate	Run3	regulate/STIM_026.jpg
2564.758	1.75	correct	regulate	Run3	regulate/STIM_026.jpg
2569.007	2.897	correct	regulate	Run3	regulate/STIM_026.jpg
2574.655	2.658	correct	regulate	Run3	regulate/STIM_026.jpg
2579.68	1.762	correct	regulate	Run3	regulate/STIM_027.jpg
2584.079	1.648	correct	regulate	Run3	regulate/STIM_027.jpg
2588.499	2.142	correct	regulate	Run3	regulate/STIM_027.jpg
2594.307	2.419	correct	regulate	Run3	regulate/STIM_027.jpg
2599.035	1.779	correct	regulate	Run3	regulate/STIM_028.jpg
2604.76	2.93	correct	regulate	Run3	regulate/STIM_028.jpg
2611.426	2.858	correct	regulate	Run3	regulate/STIM_028.jpg
2616.532	2.589	correct	regulate	Run3	regulate/STIM_028.jpg
2622.912	1.702	correct	regulate	Run3	regulate/STIM_029.jpg
2628.325	2.917	correct	regulate	Run3	regulate/STIM_029.jpg
2634.749	1.272	correct	regulate	Run3	regulate/STIM_029.jpg
2638.991	1.597	correct	regulate	Run3	regulate/STIM_029.jpg
2643.981	1.675	incorrect	observe	Run3	observe/STIM_000.jpg
2649.032	1.693	correct	observe	Run3	observe/STIM_000.jpg
2652.833	1.58	correct	observe	Run3	observe/STIM_000.jpg
2657.706	1.11	correct	observe	Run3	observe/STIM_000.jpg
2661.006	1.365	correct	observe	Run3	observe/STIM_001.jpg
2666.322	1.25	correct	observe	Run3	observe/STIM_001.jpg
2669.95	1.709	correct	observe	Run3	observe/STIM_001.jpg
2674.954	1.62	correct	observe	Run3	observe/STIM_001.jpg
2678.758	0.999	correct	observe	Run3	observe/STIM_002.jpg
2681.848	1.452	correct	observe	Run3	observe/STIM_002.jpg
2686.215	1.589	correct	observe	Run3	observe/STIM_002.jpg
2691.428	1.671	correct	observe	Run3	observe/STIM_002.jpg
2696.228	1.463	correct	observe	Run3	observe/STIM_003.jpg
2701.628	1.546	correct	observe	Run3	observe/STIM_003.jpg
2705.574	1.128	correct	observe	Run3	observe/STIM_003.jpg
2709.481	1.602	correct	observe	Run3	observe/STIM_003.jpg
2714.314	1.29	correct	observe	Run3	observe/STIM_004.jpg
2718.551	1.025	correct	observe	Run3	observe/STIM_004.jpg
2722.462	1.264	correct	observe	Run3	observe/STIM_004.jpg
2727.254	1.595	correct	observe	Run3	observe/STIM_004.jpg
2732.441	1.019	correct	observe	Run3	observe/STIM_005.jpg
2735.972	1.807	correct	observe	Run3	observe/STIM_005.jpg
2741.104	1.113	correct	observe	Run3	observe/STIM_005.jpg
2745.262	1.672	incorrect	observe	Run3	observe/STIM_005.jpg
2749.945	1.233	correct	observe	Run3	observe/STIM_006.jpg
2753.234	1.349	correct	observe	Run3	observe/STIM_006.jpg
2757.132	1.273	correct	observe	Run3	observe/STIM_006.jpg
2761.932	1.877	correct	observe	Run3	observe/STIM_006.jpg
2767.073	1.89	correct	observe	Run3	observe/STIM_007.jpg
2772.644	1.877	correct	observe	Run3	observe/STIM_007.jpg
2777.289	1.533	correct	observe	Run3	observe/STIM_007.jpg
2781.956	1.821	correct	observe	Run3	observe/STIM_007.jpg
2787.533	1.704	incorrect	observe	Run3	observe/STIM_008.jpg
2792.454	1.079	correct	observe	Run3	observe/STIM_008.jpg
2797.1	1.764	correct	observe	Run3	observe/STIM_008.jpg
2801.285	1.439	correct	observe	Run3	observe/STIM_008.jpg
2805.026	1.032	correct	observe	Run3	observe/STIM_009.jpg
2809.605	1.533	correct	observe	Run3	observe/STIM_009.jpg
2814.531	1.77	correct	observe	Run3	observe/STIM_009.jpg
2819.857	1.543	correct	observe	Run3	observe/STIM_009.jpg
2824.14	1.851	correct	observe	Run3	observe/STIM_010.jpg
2829.572	1.907	incorrect	observe	Run3	observe/STIM_010.jpg
2835.044	1.292	correct	observe	Run3	observe/STIM_010.jpg
2839.582	1.332	correct	observe	Run3	observe/STIM_010.jpg
2844.419	1.425	correct	observe	Run3	observe/STIM_011.jpg
2848.002	1.379	correct	observe	Run3	observe/STIM_011.jpg
2853.145	1.115	correct	observe	Run3	observe/STIM_011.jpg
2857.164	1.243	correct	observe	Run3	observe/STIM_011.jpg
2861.665	1.537	correct	observe	Run3	observe/STIM_012.jpg
2866.407	1.268	correct	observe	Run3	observe/STIM_012.jpg
2870.832	1.88	correct	observe	Run3	observe/STIM_012.jpg
2875.575	1.189	correct	observe	Run3	observe/STIM_012.jpg
2879.406	1.917	correct	observe	Run3	observe/STIM_013.jpg
2883.555	1.005	correct	observe	Run3	observe/STIM_013.jpg
2887.038	1.195	correct	observe	Run3	observe/STIM_013.jpg
2892.19	1.07	correct	observe	Run3	observe/STIM_013.jpg
2895.437	1.918	correct	observe	Run3	observe/STIM_014.jpg
2900.573	1.562	correct	observe	Run3	observe/STIM_014.jpg
2905.81	1.017	correct	observe	Run3	observe/STIM_014.jpg
2910.777	1.28	correct	observe	Run3	observe/STIM_014.jpg
2914.997	1.582	correct	observe	Run3	observe/STIM_015.jpg
2920.511	1.271	correct	observe	Run3	observe/STIM_015.jpg
2923.789	1.37	correct	observe	Run3	observe/STIM_015.jpg
2929.02	1.598	correct	observe	Run3	observe/STIM_015.jpg
2932.849	1.074	correct	observe	Run3	observe/STIM_016.jpg
2936.28	1.602	correct	observe	Run3	observe/STIM_016.jpg
2941.473	1.329	correct	observe	Run3	observe/STIM_016.jpg
2946.711	0.989	correct	observe	Run3	observe/STIM_016.jpg
2951.518	1.277	correct	observe	Run3	observe/STIM_017.jpg
2956.039	1.352	correct	observe	Run3	observe/STIM_017.jpg
2960.177	1.169	correct	observe	Run3	observe/STIM_017.jpg
2964.608	1.266	correct	observe	Run3	observe/STIM_017.jpg
2968.903	1.232	correct	observe	Run3	observe/STIM_018.jpg
2972.95	1.565	correct	observe	Run3	observe/STIM_018.jpg
2977.883	1.006	correct	observe	Run3	observe/STIM_018.jpg
2982.766	1.794	correct	observe	Run3	observe/STIM_018.jpg
2987.054	1.608	correct	observe	Run3	observe/STIM_019.jpg
2991.178	1.46	correct	observe	Run3	observe/STIM_019.jpg
2995.836	1.734	correct	observe	Run3	observe/STIM_019.jpg
2999.802	1.01	correct	observe	Run3	observe/STIM_019.jpg
