onset	duration	response_time_ms	trial_type	learning_stage	stimulus	response_port
0.0	2.404	2404.2	regulate	Run1	regulate/STIM_000.jpg	99
4.637	2.311	2310.8	regulate	Run1	regulate/STIM_000.jpg	99
9.066	2.841	2841.2	regulate	Run1	regulate/STIM_000.jpg	100
14.303	2.115	2114.6	regulate	Run1	regulate/STIM_000.jpg	99
19.321	3.338	3338.3	regulate	Run1	regulate/STIM_001.jpg	100
25.188	2.302	2301.7	regulate	Run1	regulate/STIM_001.jpg	99
30.237	1.425	1425.0	regulate	Run1	regulate/STIM_001.jpg	100
35.129	1.441	1441.4	regulate	Run1	regulate/STIM_001.jpg	99
40.426	1.518	1517.9	regulate	Run1	regulate/STIM_002.jpg	100
45.348	3.349	3348.9	regulate	Run1	regulate/STIM_002.jpg	100
51.688	1.579	1578.7	regulate	Run1	regulate/STIM_002.jpg	100
56.783	2.487	2487.3	regulate	Run1	regulate/STIM_002.jpg	100
61.405	2.539	2539.1	regulate	Run1	regulate/STIM_003.jpg	99
67.335	1.955	1954.7	regulate	Run1	regulate/STIM_003.jpg	100
72.514	2.366	2366.0	regulate	Run1	regulate/STIM_003.jpg	100
78.36	2.103	2103.4	regulate	Run1	regulate/STIM_003.jpg	100
83.15	2.618	2617.9	regulate	Run1	regulate/STIM_004.jpg	99
88.479	2.772	2772.0	regulate	Run1	regulate/STIM_004.jpg	99
93.689	1.83	1830.0	regulate	Run1	regulate/STIM_004.jpg	99
98.269	1.493	1492.9	regulate	Run1	regulate/STIM_004.jpg	99
102.697	3.093	3092.7	regulate	Run1	regulate/STIM_005.jpg	100
108.378	3.333	3332.6	regulate	Run1	regulate/STIM_005.jpg	99
114.619	2.399	2399.1	regulate	Run1	regulate/STIM_005.jpg	100
120.827	2.778	2777.6	regulate	Run1	regulate/STIM_005.jpg	100
126.494	1.681	1681.2	regulate	Run1	regulate/STIM_006.jpg	99
130.909	3.118	3117.5	regulate	Run1	regulate/STIM_006.jpg	99
137.455	1.828	1827.6	regulate	Run1	regulate/STIM_006.jpg	99
141.5	2.459	2458.8	regulate	Run1	regulate/STIM_006.jpg	100
146.172	2.171	2171.1	regulate	Run1	regulate/STIM_007.jpg	100
152.13	2.466	2466.0	regulate	Run1	regulate/STIM_007.jpg	100
157.818	2.516	2515.6	regulate	Run1	regulate/STIM_007.jpg	99
162.633	2.212	2212.2	regulate	Run1	regulate/STIM_007.jpg	100
168.64	1.848	1847.6	regulate	Run1	regulate/STIM_008.jpg	100
173.978	1.981	1980.7	regulate	Run1	regulate/STIM_008.jpg	100
178.094	1.775	1775.2	regulate	Run1	regulate/STIM_008.jpg	99
182.993	1.648	1647.8	regulate	Run1	regulate/STIM_008.jpg	99
187.952	2.205	2204.7	regulate	Run1	regulate/STIM_009.jpg	100
192.521	3.031	3031.4	regulate	Run1	regulate/STIM_009.jpg	99
197.592	2.982	2981.5	regulate	Run1	regulate/STIM_009.jpg	100
202.779	2.826	2825.8	regulate	Run1	regulate/STIM_009.jpg	100
207.851	2.25	2250.5	regulate	Run1	regulate/STIM_010.jpg	99
213.167	3.498	3497.8	regulate	Run1	regulate/STIM_010.jpg	100
220.046	2.572	2571.6	regulate	Run1	regulate/STIM_010.jpg	100
224.669	1.826	1825.8	regulate	Run1	regulate/STIM_010.jpg	99
229.032	3.398	3397.6	regulate	Run1	regulate/STIM_011.jpg	99
236.23	3.372	3371.5	regulate	Run1	regulate/STIM_011.jpg	100
243.283	1.696	1695.5	regulate	Run1	regulate/STIM_011.jpg	99
247.144	2.818	2817.8	regulate	Run1	regulate/STIM_011.jpg	99
252.595	2.067	2067.4	regulate	Run1	regulate/STIM_012.jpg	100
257.955	3.333	3333.3	regulate	Run1	regulate/STIM_012.jpg	100
263.813	1.74	1740.1	regulate	Run1	regulate/STIM_012.jpg	99
268.232	2.36	2360.4	regulate	Run1	regulate/STIM_012.jpg	100
274.062	3.234	3233.5	regulate	Run1	regulate/STIM_013.jpg	99
279.988	2.708	2707.8	regulate	Run1	regulate/STIM_013.jpg	99
284.76	2.349	2349.1	regulate	Run1	regulate/STIM_013.jpg	99
289.171	2.707	2707.2	regulate	Run1	regulate/STIM_013.jpg	100
294.511	2.127	2127.2	regulate	Run1	regulate/STIM_014.jpg	100
299.782	3.387	3386.8	regulate	Run1	regulate/STIM_014.jpg	99
306.917	3.233	3232.9	regulate	Run1	regulate/STIM_014.jpg	100
312.212	2.55	2550.1	regulate	Run1	regulate/STIM_014.jpg	99
318.05	1.833	1832.6	regulate	Run1	regulate/STIM_015.jpg	99
323.839	2.376	2376.2	regulate	Run1	regulate/STIM_015.jpg	100
328.697	1.462	1462.1	regulate	Run1	regulate/STIM_015.jpg	100
333.785	1.961	1961.3	regulate	Run1	regulate/STIM_015.jpg	100
339.278	2.376	2376.0	regulate	Run1	regulate/STIM_016.jpg	99
344.611	2.614	2613.7	regulate	Run1	regulate/STIM_016.jpg	99
351.087	3.148	3148.3	regulate	Run1	regulate/STIM_016.jpg	100
357.19	2.674	2674.1	regulate	Run1	regulate/STIM_016.jpg	100
362.768	2.095	2095.1	regulate	Run1	regulate/STIM_017.jpg	100
368.503	2.314	2313.6	regulate	Run1	regulate/STIM_017.jpg	99
374.566	2.528	2528.0	regulate	Run1	regulate/STIM_017.jpg	100
379.294	1.495	1494.8	regulate	Run1	regulate/STIM_017.jpg	100
384.02	2.795	2795.2	regulate	Run1	regulate/STIM_018.jpg	100
389.143	1.567	1567.4	regulate	Run1	regulate/STIM_018.jpg	99
393.53	1.659	1658.7	regulate	Run1	regulate/STIM_018.jpg	100
398.344	2.541	2540.7	regulate	Run1	regulate/STIM_018.jpg	100
404.399	1.814	1813.5	regulate	Run1	regulate/STIM_019.jpg	99
409.322	2.802	2801.5	regulate	Run1	regulate/STIM_019.jpg	100
415.948	2.291	2291.3	regulate	Run1	regulate/STIM_019.jpg	100
421.544	2.728	2728.2	regulate	Run1	regulate/STIM_019.jpg	100
427.861	1.582	1582.1	regulate	Run1	regulate/STIM_020.jpg	100
432.141	2.794	2793.5	regulate	Run1	regulate/STIM_020.jpg	100
438.148	2.495	2495.0	regulate	Run1	regulate/STIM_020.jpg	99
443.023	2.027	2027.1	regulate	Run1	regulate/STIM_020.jpg	99
447.855	2.357	2356.9	regulate	Run1	regulate/STIM_021.jpg	100
452.804	2.668	2668.1	regulate	Run1	regulate/STIM_021.jpg	99
457.873	2.642	2642.3	regulate	Run1	regulate/STIM_021.jpg	99
463.742	1.734	1734.2	regulate	Run1	regulate/STIM_021.jpg	100
469.171	2.951	2950.6	regulate	Run1	regulate/STIM_022.jpg	99
474.149	2.832	2832.5	regulate	Run1	regulate/STIM_022.jpg	99
479.665	2.773	2773.0	regulate	Run1	regulate/STIM_022.jpg	99
485.772	1.501	1500.7	regulate	Run1	regulate/STIM_022.jpg	99
490.126	1.672	1671.6	regulate	Run1	regulate/STIM_023.jpg	99
494.58	2.083	2083.0	regulate	Run1	regulate/STIM_023.jpg	100
500.527	2.931	2931.2	regulate	Run1	regulate/STIM_023.jpg	99
506.152	1.548	1548.2	regulate	Run1	regulate/STIM_023.jpg	99
510.734	3.136	3136.3	regulate	Run1	regulate/STIM_024.jpg	100
517.301	1.464	1464.2	regulate	Run1	regulate/STIM_024.jpg	99
522.053	1.797	1796.7	regulate	Run1	regulate/STIM_024.jpg	100
527.157	1.969	1969.1	regulate	Run1	regulate/STIM_024.jpg	99
531.466	3.536	3536.1	regulate	Run1	regulate/STIM_025.jpg	100
537.485	2.7	2700.0	regulate	Run1	regulate/STIM_025.jpg	100
543.991	1.443	1443.1	regulate	Run1	regulate/STIM_025.jpg	99
549.145	1.765	1765.3	regulate	Run1	regulate/STIM_025.jpg	99
553.351	1.604	1604.5	regulate	Run1	regulate/STIM_026.jpg	100
558.011	1.781	1781.0	regulate	Run1	regulate/STIM_026.jpg	100
562.956	1.939	1938.9	regulate	Run1	regulate/STIM_026.jpg	100
568.407	2.405	2404.9	regulate	Run1	regulate/STIM_026.jpg	99
574.021	2.047	2047.5	regulate	Run1	regulate/STIM_027.jpg	99
578.214	1.938	1938.0	regulate	Run1	regulate/STIM_027.jpg	99
583.818	2.923	2922.6	regulate	Run1	regulate/STIM_027.jpg	99
589.461	1.354	1354.4	regulate	Run1	regulate/STIM_027.jpg	99
592.824	1.564	1564.2	regulate	Run1	regulate/STIM_028.jpg	99
596.394	2.698	2697.9	regulate	Run1	regulate/STIM_028.jpg	100
601.666	1.856	1855.5	regulate	Run1	regulate/STIM_028.jpg	100
605.52	1.449	1449.4	regulate	Run1	regulate/STIM_028.jpg	100
610.428	2.194	2193.7	regulate	Run1	regulate/STIM_029.jpg	100
615.133	2.624	2624.4	regulate	Run1	regulate/STIM_029.jpg	100
620.484	3.242	3241.5	regulate	Run1	regulate/STIM_029.jpg	99
626.013	1.893	1892.6	regulate	Run1	regulate/STIM_029.jpg	100
631.523	1.428	1428.1	observe	Run1	observe/STIM_000.jpg	99
636.729	1.563	1563.4	observe	Run1	observe/STIM_000.jpg	99
641.909	1.286	1286.0	observe	Run1	observe/STIM_000.jpg	99
645.943	1.273	1273.4	observe	Run1	observe/STIM_000.jpg	100
649.159	1.014	1014.1	observe	Run1	observe/STIM_001.jpg	100
653.92	0.834	834.1	observe	Run1	observe/STIM_001.jpg	100
657.482	1.692	1692.0	observe	Run1	observe/STIM_001.jpg	99
662.683	1.025	1024.9	observe	Run1	observe/STIM_001.jpg	99
667.018	1.126	1126.1	observe	Run1	observe/STIM_002.jpg	100
670.791	1.358	1358.5	observe	Run1	observe/STIM_002.jpg	99
675.368	1.184	1184.4	observe	Run1	observe/STIM_002.jpg	100
679.508	1.546	1546.5	observe	Run1	observe/STIM_002.jpg	99
683.551	1.607	1607.0	observe	Run1	observe/STIM_003.jpg	99
687.519	0.942	942.2	observe	Run1	observe/STIM_003.jpg	99
692.369	1.289	1289.0	observe	Run1	observe/STIM_003.jpg	99
695.756	1.452	1451.9	observe	Run1	observe/STIM_003.jpg	100
701.045	1.032	1031.6	observe	Run1	observe/STIM_004.jpg	99
705.314	0.972	972.3	observe	Run1	observe/STIM_004.jpg	100
709.09	1.032	1031.9	observe	Run1	observe/STIM_004.jpg	99
712.424	1.426	1425.7	observe	Run1	observe/STIM_004.jpg	100
717.653	1.293	1293.4	observe	Run1	observe/STIM_005.jpg	100
722.359	1.258	1257.9	observe	Run1	observe/STIM_005.jpg	99
726.406	1.313	1312.9	observe	Run1	observe/STIM_005.jpg	100
731.163	1.421	1421.2	observe	Run1	observe/STIM_005.jpg	99
734.941	1.344	1343.9	observe	Run1	observe/STIM_006.jpg	100
739.404	1.419	1419.1	observe	Run1	observe/STIM_006.jpg	99
743.858	1.056	1055.5	observe	Run1	observe/STIM_006.jpg	99
748.584	1.271	1271.1	observe	Run1	observe/STIM_006.jpg	100
753.598	1.19	1189.9	observe	Run1	observe/STIM_007.jpg	99
757.998	1.153	1153.3	observe	Run1	observe/STIM_007.jpg	99
761.359	1.376	1375.5	observe	Run1	observe/STIM_007.jpg	100
765.671	1.379	1379.0	observe	Run1	observe/STIM_007.jpg	99
770.589	0.946	946.4	observe	Run1	observe/STIM_008.jpg	99
775.2	1.169	1169.1	observe	Run1	observe/STIM_008.jpg	100
779.921	1.012	1011.6	observe	Run1	observe/STIM_008.jpg	99
784.672	1.672	1672.0	observe	Run1	observe/STIM_008.jpg	99
788.683	1.093	1092.9	observe	Run1	observe/STIM_009.jpg	100
793.328	1.028	1027.6	observe	Run1	observe/STIM_009.jpg	99
797.687	1.448	1448.4	observe	Run1	observe/STIM_009.jpg	99
801.378	1.176	1175.5	observe	Run1	observe/STIM_009.jpg	100
806.395	1.542	1541.6	observe	Run1	observe/STIM_010.jpg	100
810.091	1.305	1305.2	observe	Run1	observe/STIM_010.jpg	99
813.851	1.121	1120.6	observe	Run1	observe/STIM_010.jpg	100
818.477	1.076	1075.8	observe	Run1	observe/STIM_010.jpg	99
822.787	1.11	1109.7	observe	Run1	observe/STIM_011.jpg	99
826.908	1.627	1626.7	observe	Run1	observe/STIM_011.jpg	100
830.69	1.438	1438.3	observe	Run1	observe/STIM_011.jpg	100
834.591	1.237	1236.9	observe	Run1	observe/STIM_011.jpg	99
838.005	0.913	913.0	observe	Run1	observe/STIM_012.jpg	100
842.757	1.653	1653.0	observe	Run1	observe/STIM_012.jpg	100
846.532	0.946	946.4	observe	Run1	observe/STIM_012.jpg	99
849.785	1.473	1473.3	observe	Run1	observe/STIM_012.jpg	99
854.726	0.997	996.7	observe	Run1	observe/STIM_013.jpg	100
858.853	1.011	1011.2	observe	Run1	observe/STIM_013.jpg	99
861.821	0.853	853.3	observe	Run1	observe/STIM_013.jpg	100
866.307	1.07	1069.6	observe	Run1	observe/STIM_013.jpg	99
869.98	0.865	865.4	observe	Run1	observe/STIM_014.jpg	100
874.36	1.285	1285.3	observe	Run1	observe/STIM_014.jpg	100
878.09	0.871	871.4	observe	Run1	observe/STIM_014.jpg	99
881.564	1.33	1329.7	observe	Run1	observe/STIM_014.jpg	99
886.608	0.96	959.7	observe	Run1	observe/STIM_015.jpg	99
891.204	1.555	1555.2	observe	Run1	observe/STIM_015.jpg	100
896.278	1.034	1033.6	observe	Run1	observe/STIM_015.jpg	100
899.737	1.417	1417.2	observe	Run1	observe/STIM_015.jpg	100
904.461	1.567	1567.2	observe	Run1	observe/STIM_016.jpg	100
909.316	1.527	1526.7	observe	Run1	observe/STIM_016.jpg	100
913.395	1.466	1465.5	observe	Run1	observe/STIM_016.jpg	99
917.067	1.492	1492.5	observe	Run1	observe/STIM_016.jpg	99
921.567	1.167	1167.4	observe	Run1	observe/STIM_017.jpg	99
925.355	1.251	1251.1	observe	Run1	observe/STIM_017.jpg	100
928.685	0.971	971.1	observe	Run1	observe/STIM_017.jpg	99
932.631	1.333	1332.8	observe	Run1	observe/STIM_017.jpg	99
936.582	1.484	1483.5	observe	Run1	observe/STIM_018.jpg	99
940.999	1.2	1199.9	observe	Run1	observe/STIM_018.jpg	100
944.923	1.335	1334.9	observe	Run1	observe/STIM_018.jpg	100
948.522	0.923	923.1	observe	Run1	observe/STIM_018.jpg	100
951.845	1.106	1105.5	observe	Run1	observe/STIM_019.jpg	99
956.723	0.857	857.0	observe	Run1	observe/STIM_019.jpg	100
960.366	1.189	1189.3	observe	Run1	observe/STIM_019.jpg	100
963.739	1.648	1647.9	observe	Run1	observe/STIM_019.jpg	99
968.899	1.973	1972.6	regulate	Run2	regulate/STIM_000.jpg	100
973.052	2.258	2257.9	regulate	Run2	regulate/STIM_000.jpg	99
977.929	1.358	1358.5	regulate	Run2	regulate/STIM_000.jpg	100
981.395	2.202	2201.5	regulate	Run2	regulate/STIM_000.jpg	99
985.557	2.389	2388.6	regulate	Run2	regulate/STIM_001.jpg	99
990.339	1.92	1920.5	regulate	Run2	regulate/STIM_001.jpg	99
994.52	1.227	1226.6	regulate	Run2	regulate/STIM_001.jpg	100
998.146	2.13	2129.8	regulate	Run2	regulate/STIM_001.jpg	99
1003.284	1.774	1773.6	regulate	Run2	regulate/STIM_002.jpg	100
1007.231	1.815	1814.6	regulate	Run2	regulate/STIM_002.jpg	100
1011.937	2.576	2576.2	regulate	Run2	regulate/STIM_002.jpg	100
1018.305	1.282	1282.4	regulate	Run2	regulate/STIM_002.jpg	99
1022.173	2.748	2747.5	regulate	Run2	regulate/STIM_003.jpg	99
1027.293	2.478	2477.6	regulate	Run2	regulate/STIM_003.jpg	100
1032.837	2.717	2716.8	regulate	Run2	regulate/STIM_003.jpg	99
1038.412	1.67	1669.7	regulate	Run2	regulate/STIM_003.jpg	99
1042.57	1.402	1401.7	regulate	Run2	regulate/STIM_004.jpg	100
1046.302	1.938	1938.1	regulate	Run2	regulate/STIM_004.jpg	100
1050.361	1.967	1966.8	regulate	Run2	regulate/STIM_004.jpg	100
1055.816	1.887	1887.2	regulate	Run2	regulate/STIM_004.jpg	99
1059.982	1.793	1793.0	regulate	Run2	regulate/STIM_005.jpg	100
1065.398	2.349	2348.8	regulate	Run2	regulate/STIM_005.jpg	99
1070.911	2.73	2729.9	regulate	Run2	regulate/STIM_005.jpg	99
1076.04	1.879	1879.3	regulate	Run2	regulate/STIM_005.jpg	100
1080.149	1.869	1869.0	regulate	Run2	regulate/STIM_006.jpg	100
1085.109	1.967	1967.0	regulate	Run2	regulate/STIM_006.jpg	99
1090.631	1.312	1312.0	regulate	Run2	regulate/STIM_006.jpg	99
1095.249	1.71	1709.5	regulate	Run2	regulate/STIM_006.jpg	100
1099.664	2.944	2943.7	regulate	Run2	regulate/STIM_007.jpg	99
1105.28	2.51	2509.7	regulate	Run2	regulate/STIM_007.jpg	99
1110.291	1.694	1693.9	regulate	Run2	regulate/STIM_007.jpg	99
1115.641	1.928	1928.3	regulate	Run2	regulate/STIM_007.jpg	100
1121.046	2.885	2885.1	regulate	Run2	regulate/STIM_008.jpg	100
1127.53	1.338	1337.6	regulate	Run2	regulate/STIM_008.jpg	100
1132.323	1.704	1703.9	regulate	Run2	regulate/STIM_008.jpg	99
1137.694	1.449	1448.8	regulate	Run2	regulate/STIM_008.jpg	100
1142.266	1.795	1795.0	regulate	Run2	regulate/STIM_009.jpg	100
1146.408	1.87	1869.8	regulate	Run2	regulate/STIM_009.jpg	100
1150.988	1.615	1614.9	regulate	Run2	regulate/STIM_009.jpg	99
1156.54	2.41	2409.9	regulate	Run2	regulate/STIM_009.jpg	100
1162.119	2.41	2410.1	regulate	Run2	regulate/STIM_010.jpg	100
1166.998	2.914	2914.3	regulate	Run2	regulate/STIM_010.jpg	99
1173.539	1.983	1983.3	regulate	Run2	regulate/STIM_010.jpg	100
1177.465	1.71	1709.9	regulate	Run2	regulate/STIM_010.jpg	100
1181.999	1.47	1470.2	regulate	Run2	regulate/STIM_011.jpg	100
1187.276	2.781	2781.4	regulate	Run2	regulate/STIM_011.jpg	100
1192.252	1.36	1360.4	regulate	Run2	regulate/STIM_011.jpg	100
1196.678	1.499	1499.0	regulate	Run2	regulate/STIM_011.jpg	99
1200.643	2.355	2355.1	regulate	Run2	regulate/STIM_012.jpg	100
1206.71	1.609	1609.3	regulate	Run2	regulate/STIM_012.jpg	100
1210.688	1.323	1322.6	regulate	Run2	regulate/STIM_012.jpg	99
1215.941	1.75	1749.9	regulate	Run2	regulate/STIM_012.jpg	100
1220.193	2.848	2848.4	regulate	Run2	regulate/STIM_013.jpg	99
1225.829	2.78	2779.7	regulate	Run2	regulate/STIM_013.jpg	99
1231.151	1.992	1991.6	regulate	Run2	regulate/STIM_013.jpg	100
1235.165	1.574	1574.4	regulate	Run2	regulate/STIM_013.jpg	99
1240.607	2.508	2508.3	regulate	Run2	regulate/STIM_014.jpg	100
1246.723	2.586	2586.4	regulate	Run2	regulate/STIM_014.jpg	100
1251.557	1.627	1626.9	regulate	Run2	regulate/STIM_014.jpg	100
1255.84	1.785	1784.6	regulate	Run2	regulate/STIM_014.jpg	100
1261.472	2.908	2908.1	regulate	Run2	regulate/STIM_015.jpg	100
1266.643	2.72	2720.2	regulate	Run2	regulate/STIM_015.jpg	99
1272.963	1.651	1650.8	regulate	Run2	regulate/STIM_015.jpg	100
1277.042	1.89	1890.5	regulate	Run2	regulate/STIM_015.jpg	99
1282.29	1.764	1764.0	regulate	Run2	regulate/STIM_016.jpg	100
1286.932	1.857	1856.7	regulate	Run2	regulate/STIM_016.jpg	100
1290.891	2.49	2490.2	regulate	Run2	regulate/STIM_016.jpg	99
1296.958	1.784	1784.3	regulate	Run2	regulate/STIM_016.jpg	99
1301.575	2.483	2483.4	regulate	Run2	regulate/STIM_017.jpg	100
1307.659	1.417	1417.3	regulate	Run2	regulate/STIM_017.jpg	100
1311.61	2.182	2182.0	regulate	Run2	regulate/STIM_017.jpg	99
1317.365	1.166	1165.8	regulate	Run2	regulate/STIM_017.jpg	100
1321.778	1.48	1480.5	regulate	Run2	regulate/STIM_018.jpg	100
1325.21	2.721	2721.2	regulate	Run2	regulate/STIM_018.jpg	99
1330.569	2.67	2669.6	regulate	Run2	regulate/STIM_018.jpg	100
1335.197	1.878	1877.9	regulate	Run2	regulate/STIM_018.jpg	99
1339.93	2.432	2431.8	regulate	Run2	regulate/STIM_019.jpg	100
1344.96	1.641	1641.2	regulate	Run2	regulate/STIM_019.jpg	99
1350.433	1.153	1152.9	regulate	Run2	regulate/STIM_019.jpg	100
1354.973	2.059	2059.1	regulate	Run2	regulate/STIM_019.jpg	100
1360.878	1.391	1391.0	regulate	Run2	regulate/STIM_020.jpg	100
1366.23	1.82	1820.5	regulate	Run2	regulate/STIM_020.jpg	100
1371.751	2.182	2181.5	regulate	Run2	regulate/STIM_020.jpg	99
1377.757	1.339	1339.3	regulate	Run2	regulate/STIM_020.jpg	99
1382.015	1.552	1552.1	regulate	Run2	regulate/STIM_021.jpg	99
1386.282	2.487	2487.4	regulate	Run2	regulate/STIM_021.jpg	100
1390.972	1.905	1905.1	regulate	Run2	regulate/STIM_021.jpg	99
1394.763	1.945	1945.4	regulate	Run2	regulate/STIM_021.jpg	100
1399.19	1.715	1714.9	regulate	Run2	regulate/STIM_022.jpg	99
1402.992	2.16	2159.8	regulate	Run2	regulate/STIM_022.jpg	99
1407.323	2.588	2588.0	regulate	Run2	regulate/STIM_022.jpg	100
1412.065	1.918	1917.6	regulate	Run2	regulate/STIM_022.jpg	100
1417.934	1.738	1738.3	regulate	Run2	regulate/STIM_023.jpg	99
1421.793	1.278	1278.0	regulate	Run2	regulate/STIM_023.jpg	100
1425.829	2.145	2145.0	regulate	Run2	regulate/STIM_023.jpg	100
1431.717	1.366	1366.2	regulate	Run2	regulate/STIM_023.jpg	100
1435.77	2.528	2527.9	regulate	Run2	regulate/STIM_024.jpg	100
1440.751	2.756	2756.0	regulate	Run2	regulate/STIM_024.jpg	99
1446.36	1.708	1708.5	regulate	Run2	regulate/STIM_024.jpg	100
1451.761	1.407	1406.9	regulate	Run2	regulate/STIM_024.jpg	99
1455.943	2.968	2968.4	regulate	Run2	regulate/STIM_025.jpg	100
1461.241	2.797	2797.2	regulate	Run2	regulate/STIM_025.jpg	100
1467.56	1.434	1433.9	regulate	Run2	regulate/STIM_025.jpg	99
1472.846	1.745	1744.9	regulate	Run2	regulate/STIM_025.jpg	99
1477.353	2.213	2213.0	regulate	Run2	regulate/STIM_026.jpg	99
1483.045	1.646	1646.2	regulate	Run2	regulate/STIM_026.jpg	100
1487.763	1.6	1600.1	regulate	Run2	regulate/STIM_026.jpg	99
1491.788	2.286	2285.7	regulate	Run2	regulate/STIM_026.jpg	100
1496.689	2.08	2079.8	regulate	Run2	regulate/STIM_027.jpg	100
1502.553	2.78	2779.6	regulate	Run2	regulate/STIM_027.jpg	100
1507.502	2.335	2335.2	regulate	Run2	regulate/STIM_027.jpg	99
1512.815	1.781	1781.1	regulate	Run2	regulate/STIM_027.jpg	99
1518.258	2.182	2181.8	regulate	Run2	regulate/STIM_028.jpg	100
1523.152	1.492	1492.0	regulate	Run2	regulate/STIM_028.jpg	99
1527.738	2.536	2536.2	regulate	Run2	regulate/STIM_028.jpg	100
1532.46	1.926	1925.7	regulate	Run2	regulate/STIM_028.jpg	99
1537.998	1.794	1793.5	regulate	Run2	regulate/STIM_029.jpg	99
1543.039	2.78	2779.8	regulate	Run2	regulate/STIM_029.jpg	100
1548.34	1.309	1308.7	regulate	Run2	regulate/STIM_029.jpg	100
1553.619	1.942	1942.3	regulate	Run2	regulate/STIM_029.jpg	99
1559.314	1.153	1153.1	observe	Run2	observe/STIM_000.jpg	99
1563.391	1.366	1366.5	observe	Run2	observe/STIM_000.jpg	99
1567.623	1.165	1164.9	observe	Run2	observe/STIM_000.jpg	100
1571.526	1.198	1198.0	observe	Run2	observe/STIM_000.jpg	99
1575.291	0.947	946.8	observe	Run2	observe/STIM_001.jpg	99
1578.423	1.651	1650.7	observe	Run2	observe/STIM_001.jpg	100
1582.201	1.051	1051.0	observe	Run2	observe/STIM_001.jpg	99
1585.564	1.178	1177.9	observe	Run2	observe/STIM_001.jpg	99
1589.594	0.886	885.7	observe	Run2	observe/STIM_002.jpg	100
1594.309	1.298	1298.2	observe	Run2	observe/STIM_002.jpg	100
1599.551	1.502	1501.8	observe	Run2	observe/STIM_002.jpg	100
1603.457	1.334	1333.9	observe	Run2	observe/STIM_002.jpg	100
1607.754	1.285	1285.2	observe	Run2	observe/STIM_003.jpg	100
1612.764	1.596	1596.1	observe	Run2	observe/STIM_003.jpg	99
1617.535	1.07	1070.5	observe	Run2	observe/STIM_003.jpg	99
1621.559	1.257	1256.7	observe	Run2	observe/STIM_003.jpg	99
1626.48	1.578	1577.6	observe	Run2	observe/STIM_004.jpg	100
1630.389	1.482	1481.6	observe	Run2	observe/STIM_004.jpg	100
1634.98	1.592	1592.2	observe	Run2	observe/STIM_004.jpg	100
1639.121	1.112	1111.6	observe	Run2	observe/STIM_004.jpg	100
1642.561	1.648	1647.5	observe	Run2	observe/STIM_005.jpg	100
1646.256	0.833	833.4	observe	Run2	observe/STIM_005.jpg	99
1651.01	0.836	836.0	observe	Run2	observe/STIM_005.jpg	99
1654.218	0.971	971.1	observe	Run2	observe/STIM_005.jpg	100
1658.836	1.44	1439.8	observe	Run2	observe/STIM_006.jpg	100
1663.285	1.42	1420.4	observe	Run2	observe/STIM_006.jpg	99
1667.332	0.93	930.3	observe	Run2	observe/STIM_006.jpg	100
1671.776	1.497	1497.2	observe	Run2	observe/STIM_006.jpg	99
1676.556	0.884	884.5	observe	Run2	observe/STIM_007.jpg	100
1680.826	0.948	948.2	observe	Run2	observe/STIM_007.jpg	100
1684.757	1.142	1142.4	observe	Run2	observe/STIM_007.jpg	100
1689.172	1.119	1119.0	observe	Run2	observe/STIM_007.jpg	99
1693.893	0.989	988.6	observe	Run2	observe/STIM_008.jpg	99
1697.738	1.335	1335.4	observe	Run2	observe/STIM_008.jpg	100
1701.979	0.908	907.7	observe	Run2	observe/STIM_008.jpg	100
1706.404	1.054	1053.8	observe	Run2	observe/STIM_008.jpg	100
1710.111	1.453	1452.8	observe	Run2	observe/STIM_009.jpg	100
1714.401	1.244	1244.4	observe	Run2	observe/STIM_009.jpg	100
1719.189	1.487	1486.7	observe	Run2	observe/STIM_009.jpg	99
1724.218	0.794	794.5	observe	Run2	observe/STIM_009.jpg	100
1728.459	1.035	1034.8	observe	Run2	observe/STIM_010.jpg	100
1732.103	1.119	1119.2	observe	Run2	observe/STIM_010.jpg	99
1736.076	1.127	1127.2	observe	Run2	observe/STIM_010.jpg	100
1740.192	1.654	1654.5	observe	Run2	observe/STIM_010.jpg	100
1743.79	1.496	1496.1	observe	Run2	observe/STIM_011.jpg	100
1747.936	1.702	1702.1	observe	Run2	observe/STIM_011.jpg	99
1752.876	1.013	1013.3	observe	Run2	observe/STIM_011.jpg	100
1756.294	0.907	906.6	observe	Run2	observe/STIM_011.jpg	100
1761.028	1.601	1601.4	observe	Run2	observe/STIM_012.jpg	99
1765.294	1.122	1121.9	observe	Run2	observe/STIM_012.jpg	100
1769.177	1.327	1326.7	observe	Run2	observe/STIM_012.jpg	100
1772.554	1.301	1300.8	observe	Run2	observe/STIM_012.jpg	100
1776.924	1.526	1526.5	observe	Run2	observe/STIM_013.jpg	100
1781.401	1.171	1170.8	observe	Run2	observe/STIM_013.jpg	99
1784.964	1.332	1331.7	observe	Run2	observe/STIM_013.jpg	100
1790.224	1.099	1098.8	observe	Run2	observe/STIM_013.jpg	100
1794.601	1.134	1134.1	observe	Run2	observe/STIM_014.jpg	99
1798.935	1.443	1443.0	observe	Run2	observe/STIM_014.jpg	100
1804.332	1.411	1410.8	observe	Run2	observe/STIM_014.jpg	100
1809.307	0.845	844.7	observe	Run2	observe/STIM_014.jpg	99
1813.208	0.813	813.0	observe	Run2	observe/STIM_015.jpg	100
1817.439	0.891	891.3	observe	Run2	observe/STIM_015.jpg	100
1820.762	0.799	798.8	observe	Run2	observe/STIM_015.jpg	100
1825.405	1.112	1111.7	observe	Run2	observe/STIM_015.jpg	99
1829.413	0.901	900.6	observe	Run2	observe/STIM_016.jpg	100
1834.145	1.24	1240.4	observe	Run2	observe/STIM_016.jpg	99
1837.636	1.354	1354.0	observe	Run2	observe/STIM_016.jpg	100
1841.174	1.08	1079.7	observe	Run2	observe/STIM_016.jpg	99
1845.626	1.364	1363.9	observe	Run2	observe/STIM_017.jpg	99
1850.775	1.377	1376.6	observe	Run2	observe/STIM_017.jpg	99
1854.295	1.385	1385.1	observe	Run2	observe/STIM_017.jpg	100
1857.817	1.308	1307.9	observe	Run2	observe/STIM_017.jpg	100
1862.584	0.822	822.2	observe	Run2	observe/STIM_018.jpg	99
1865.619	0.956	956.1	observe	Run2	observe/STIM_018.jpg	99
1869.799	0.933	932.6	observe	Run2	observe/STIM_018.jpg	99
1873.806	1.41	1409.7	observe	Run2	observe/STIM_018.jpg	100
1878.285	1.365	1365.4	observe	Run2	observe/STIM_019.jpg	100
1881.938	0.833	832.9	observe	Run2	observe/STIM_019.jpg	100
1885.106	0.829	828.6	observe	Run2	observe/STIM_019.jpg	99
1888.887	1.602	1602.2	observe	Run2	observe/STIM_019.jpg	100
1893.535	2.248	2247.8	regulate	Run3	regulate/STIM_000.jpg	99
1899.04	2.049	2049.4	regulate	Run3	regulate/STIM_000.jpg	100
1903.489	1.916	1916.0	regulate	Run3	regulate/STIM_000.jpg	100
1908.118	2.306	2306.4	regulate	Run3	regulate/STIM_000.jpg	99
1912.507	1.948	1948.3	regulate	Run3	regulate/STIM_001.jpg	100
1917.604	1.448	1448.0	regulate	Run3	regulate/STIM_001.jpg	99
1922.338	1.606	1605.7	regulate	Run3	regulate/STIM_001.jpg	99
1927.319	2.316	2315.6	regulate	Run3	regulate/STIM_001.jpg	99
1933.181	2.233	2233.4	regulate	Run3	regulate/STIM_002.jpg	99
1938.959	1.41	1409.6	regulate	Run3	regulate/STIM_002.jpg	99
1942.617	1.913	1912.7	regulate	Run3	regulate/STIM_002.jpg	100
1947.028	1.756	1756.1	regulate	Run3	regulate/STIM_002.jpg	99
1952.275	1.291	1290.8	regulate	Run3	regulate/STIM_003.jpg	99
1957.411	1.93	1930.4	regulate	Run3	regulate/STIM_003.jpg	99
1961.452	1.175	1175.0	regulate	Run3	regulate/STIM_003.jpg	99
1965.89	2.205	2205.2	regulate	Run3	regulate/STIM_003.jpg	99
1970.3	2.093	2093.4	regulate	Run3	regulate/STIM_004.jpg	99
1975.398	2.081	2081.0	regulate	Run3	regulate/STIM_004.jpg	100
1980.461	1.394	1394.1	regulate	Run3	regulate/STIM_004.jpg	100
1985.307	1.419	1419.3	regulate	Run3	regulate/STIM_004.jpg	99
1988.917	2.223	2223.3	regulate	Run3	regulate/STIM_005.jpg	100
1993.306	2.186	2185.8	regulate	Run3	regulate/STIM_005.jpg	99
1997.56	1.842	1842.4	regulate	Run3	regulate/STIM_005.jpg	100
2002.977	1.444	1444.2	regulate	Run3	regulate/STIM_005.jpg	99
2006.931	1.816	1815.5	regulate	Run3	regulate/STIM_006.jpg	100
2011.66	1.698	1698.2	regulate	Run3	regulate/STIM_006.jpg	100
2017.024	1.896	1896.3	regulate	Run3	regulate/STIM_006.jpg	99
2021.15	2.221	2221.3	regulate	Run3	regulate/STIM_006.jpg	100
2025.664	1.242	1242.0	regulate	Run3	regulate/STIM_007.jpg	100
2029.367	2.002	2001.5	regulate	Run3	regulate/STIM_007.jpg	99
2034.757	1.398	1397.5	regulate	Run3	regulate/STIM_007.jpg	100
2039.165	1.275	1275.2	regulate	Run3	regulate/STIM_007.jpg	100
2044.114	1.398	1398.0	regulate	Run3	regulate/STIM_008.jpg	100
2047.965	1.033	1032.7	regulate	Run3	regulate/STIM_008.jpg	100
2052.355	1.996	1995.6	regulate	Run3	regulate/STIM_008.jpg	100
2058.228	1.79	1789.5	regulate	Run3	regulate/STIM_008.jpg	100
2063.033	1.086	1085.6	regulate	Run3	regulate/STIM_009.jpg	99
2067.868	1.198	1197.7	regulate	Run3	regulate/STIM_009.jpg	100
2072.1	1.057	1057.2	regulate	Run3	regulate/STIM_009.jpg	100
2076.226	2.379	2379.0	regulate	Run3	regulate/STIM_009.jpg	99
2081.106	1.128	1128.0	regulate	Run3	regulate/STIM_010.jpg	100
2086.02	1.416	1416.3	regulate	Run3	regulate/STIM_010.jpg	99
2090.133	1.994	1993.8	regulate	Run3	regulate/STIM_010.jpg	99
2094.071	1.661	1661.2	regulate	Run3	regulate/STIM_010.jpg	100
2099.498	1.232	1231.9	regulate	Run3	regulate/STIM_011.jpg	99
2103.259	2.037	2037.3	regulate	Run3	regulate/STIM_011.jpg	99
2107.532	1.849	1848.6	regulate	Run3	regulate/STIM_011.jpg	100
2111.454	1.872	1872.4	regulate	Run3	regulate/STIM_011.jpg	100
2116.84	1.872	1872.4	regulate	Run3	regulate/STIM_012.jpg	99
2121.676	1.248	1248.1	regulate	Run3	regulate/STIM_012.jpg	100
2125.365	2.124	2124.3	regulate	Run3	regulate/STIM_012.jpg	99
2129.759	1.578	1577.6	regulate	Run3	regulate/STIM_012.jpg	99
2133.343	1.61	1610.3	regulate	Run3	regulate/STIM_013.jpg	99
2137.773	1.646	1645.7	regulate	Run3	regulate/STIM_013.jpg	99
2141.617	1.173	1172.9	regulate	Run3	regulate/STIM_013.jpg	99
2145.063	1.859	1858.9	regulate	Run3	regulate/STIM_013.jpg	100
2149.867	1.499	1499.0	regulate	Run3	regulate/STIM_014.jpg	100
2153.744	1.998	1997.7	regulate	Run3	regulate/STIM_014.jpg	99
2157.934	2.398	2397.8	regulate	Run3	regulate/STIM_014.jpg	99
2164.161	1.193	1193.1	regulate	Run3	regulate/STIM_014.jpg	100
2168.587	1.444	1444.4	regulate	Run3	regulate/STIM_015.jpg	99
2173.417	1.474	1474.0	regulate	Run3	regulate/STIM_015.jpg	99
2176.964	1.287	1287.3	regulate	Run3	regulate/STIM_015.jpg	99
2180.868	1.412	1411.8	regulate	Run3	regulate/STIM_015.jpg	100
2184.907	1.641	1641.0	regulate	Run3	regulate/STIM_016.jpg	100
2190.315	1.505	1504.9	regulate	Run3	regulate/STIM_016.jpg	100
2195.124	2.258	2258.0	regulate	Run3	regulate/STIM_016.jpg	99
2199.755	1.216	1216.5	regulate	Run3	regulate/STIM_016.jpg	100
2203.255	1.383	1383.2	regulate	Run3	regulate/STIM_017.jpg	100
2207.166	1.773	1773.0	regulate	Run3	regulate/STIM_017.jpg	100
2212.873	1.457	1457.0	regulate	Run3	regulate/STIM_017.jpg	99
2216.626	2.169	2168.8	regulate	Run3	regulate/STIM_017.jpg	99
2222.39	1.98	1979.9	regulate	Run3	regulate/STIM_018.jpg	100
2227.694	2.258	2258.3	regulate	Run3	regulate/STIM_018.jpg	99
2232.252	1.569	1568.6	regulate	Run3	regulate/STIM_018.jpg	100
2237.055	1.152	1152.2	regulate	Run3	regulate/STIM_018.jpg	99
2241.04	1.47	1469.7	regulate	Run3	regulate/STIM_019.jpg	99
2246.177	2.223	2222.6	regulate	Run3	regulate/STIM_019.jpg	99
2252.099	1.946	1945.7	regulate	Run3	regulate/STIM_019.jpg	99
2256.073	1.172	1172.2	regulate	Run3	regulate/STIM_019.jpg	100
2261.213	1.72	1720.1	regulate	Run3	regulate/STIM_020.jpg	100
2266.689	2.111	2110.8	regulate	Run3	regulate/STIM_020.jpg	100
2271.629	1.199	1199.1	regulate	Run3	regulate/STIM_020.jpg	100
2275.312	1.936	1935.6	regulate	Run3	regulate/STIM_020.jpg	99
2280.474	1.481	1481.1	regulate	Run3	regulate/STIM_021.jpg	99
2284.208	2.018	2018.3	regulate	Run3	regulate/STIM_021.jpg	99
2289.921	2.109	2109.0	regulate	Run3	regulate/STIM_021.jpg	99
2295.21	1.935	1934.6	regulate	Run3	regulate/STIM_021.jpg	99
2301.099	1.411	1411.4	regulate	Run3	regulate/STIM_022.jpg	99
2304.588	1.562	1562.0	regulate	Run3	regulate/STIM_022.jpg	100
2308.186	1.576	1576.5	regulate	Run3	regulate/STIM_022.jpg	100
2311.883	1.734	1734.0	regulate	Run3	regulate/STIM_022.jpg	99
2317.569	1.352	1351.8	regulate	Run3	regulate/STIM_023.jpg	99
2322.114	1.76	1759.5	regulate	Run3	regulate/STIM_023.jpg	100
2326.131	1.116	1116.4	regulate	Run3	regulate/STIM_023.jpg	99
2329.336	1.799	1799.3	regulate	Run3	regulate/STIM_023.jpg	99
2333.71	2.359	2359.1	regulate	Run3	regulate/STIM_024.jpg	100
2338.459	2.148	2148.5	regulate	Run3	regulate/STIM_024.jpg	100
2343.75	1.885	1885.0	regulate	Run3	regulate/STIM_024.jpg	100
2347.63	2.31	2309.7	regulate	Run3	regulate/STIM_024.jpg	100
2353.223	1.637	1637.0	regulate	Run3	regulate/STIM_025.jpg	100
2357.306	1.82	1819.7	regulate	Run3	regulate/STIM_025.jpg	99
2362.14	1.083	1082.7	regulate	Run3	regulate/STIM_025.jpg	99
2366.906	1.511	1511.1	regulate	Run3	regulate/STIM_025.jpg	99
2370.774	1.224	1224.5	regulate	Run3	regulate/STIM_026.jpg	99
2374.453	2.446	2446.1	regulate	Run3	regulate/STIM_026.jpg	99
2380.516	1.446	1445.8	regulate	Run3	regulate/STIM_026.jpg	100
2384.085	2.261	2261.4	regulate	Run3	regulate/STIM_026.jpg	99
2389.058	2.427	2427.3	regulate	Run3	regulate/STIM_027.jpg	99
2393.714	1.32	1320.2	regulate	Run3	regulate/STIM_027.jpg	99
2397.109	2.185	2185.2	regulate	Run3	regulate/STIM_027.jpg	100
2402.887	2.062	2062.3	regulate	Run3	regulate/STIM_027.jpg	100
2408.612	1.906	1906.2	regulate	Run3	regulate/STIM_028.jpg	99
2413.332	1.589	1588.6	regulate	Run3	regulate/STIM_028.jpg	100
2417.748	1.915	1914.6	regulate	Run3	regulate/STIM_028.jpg	100
2423.377	2.173	2173.4	regulate	Run3	regulate/STIM_028.jpg	99
2428.467	1.46	1460.2	regulate	Run3	regulate/STIM_029.jpg	99
2431.986	1.883	1882.8	regulate	Run3	regulate/STIM_029.jpg	99
2437.759	2.113	2113.1	regulate	Run3	regulate/STIM_029.jpg	99
2443.656	2.52	2519.5	regulate	Run3	regulate/STIM_029.jpg	100
2448.595	0.877	876.9	observe	Run3	observe/STIM_000.jpg	99
2451.511	1.534	1534.5	observe	Run3	observe/STIM_000.jpg	99
2455.802	1.224	1223.7	observe	Run3	observe/STIM_000.jpg	100
2460.639	0.976	976.3	observe	Run3	observe/STIM_000.jpg	100
2465.55	1.245	1244.6	observe	Run3	observe/STIM_001.jpg	100
2469.416	1.285	1285.3	observe	Run3	observe/STIM_001.jpg	100
2474.467	0.94	939.8	observe	Run3	observe/STIM_001.jpg	99
2479.027	1.116	1115.6	observe	Run3	observe/STIM_001.jpg	99
2483.813	1.191	1190.8	observe	Run3	observe/STIM_002.jpg	100
2487.109	1.101	1100.7	observe	Run3	observe/STIM_002.jpg	99
2492.216	1.193	1192.9	observe	Run3	observe/STIM_002.jpg	99
2497.396	1.07	1069.5	observe	Run3	observe/STIM_002.jpg	100
2501.641	1.517	1516.9	observe	Run3	observe/STIM_003.jpg	99
2506.74	0.849	849.4	observe	Run3	observe/STIM_003.jpg	100
2510.116	1.4	1399.7	observe	Run3	observe/STIM_003.jpg	99
2513.511	0.984	984.4	observe	Run3	observe/STIM_003.jpg	99
2516.616	0.856	856.2	observe	Run3	observe/STIM_004.jpg	99
2520.142	1.507	1507.3	observe	Run3	observe/STIM_004.jpg	99
2524.556	1.383	1383.1	observe	Run3	observe/STIM_004.jpg	100
2529.654	1.448	1447.5	observe	Run3	observe/STIM_004.jpg	99
2533.671	0.947	947.1	observe	Run3	observe/STIM_005.jpg	99
2536.951	1.123	1122.9	observe	Run3	observe/STIM_005.jpg	99
2540.095	0.965	965.4	observe	Run3	observe/STIM_005.jpg	99
2544.284	0.852	851.6	observe	Run3	observe/STIM_005.jpg	99
2548.967	1.178	1178.2	observe	Run3	observe/STIM_006.jpg	99
2552.443	1.206	1206.4	observe	Run3	observe/STIM_006.jpg	99
2556.037	1.286	1285.6	observe	Run3	observe/STIM_006.jpg	100
2561.159	1.02	1020.1	observe	Run3	observe/STIM_006.jpg	100
2564.656	1.308	1307.7	observe	Run3	observe/STIM_007.jpg	100
2568.976	1.23	1230.0	observe	Run3	observe/STIM_007.jpg	100
2573.721	0.969	969.2	observe	Run3	observe/STIM_007.jpg	100
2577.671	1.633	1632.8	observe	Run3	observe/STIM_007.jpg	100
2581.641	1.169	1168.8	observe	Run3	observe/STIM_008.jpg	99
2586.418	1.381	1380.8	observe	Run3	observe/STIM_008.jpg	100
2590.206	1.325	1325.2	observe	Run3	observe/STIM_008.jpg	100
2595.298	1.422	1422.0	observe	Run3	observe/STIM_008.jpg	99
2600.216	1.394	1394.0	observe	Run3	observe/STIM_009.jpg	99
2604.157	1.286	1285.6	observe	Run3	observe/STIM_009.jpg	99
2608.569	1.432	1431.9	observe	Run3	observe/STIM_009.jpg	99
2613.452	1.332	1331.9	observe	Run3	observe/STIM_009.jpg	99
2616.912	1.113	1113.3	observe	Run3	observe/STIM_010.jpg	99
2620.264	1.252	1251.7	observe	Run3	observe/STIM_010.jpg	99
2624.719	1.385	1384.6	observe	Run3	observe/STIM_010.jpg	99
2629.858	1.383	1383.3	observe	Run3	observe/STIM_010.jpg	100
2634.987	1.038	1037.7	observe	Run3	observe/STIM_011.jpg	99
2638.202	1.519	1518.7	observe	Run3	observe/STIM_011.jpg	99
2643.006	1.623	1623.3	observe	Run3	observe/STIM_011.jpg	99
2647.632	1.402	1401.8	observe	Run3	observe/STIM_011.jpg	99
2651.31	1.16	1160.2	observe	Run3	observe/STIM_012.jpg	100
2656.384	1.012	1011.8	observe	Run3	observe/STIM_012.jpg	100
2659.753	1.587	1586.8	observe	Run3	observe/STIM_012.jpg	100
2664.507	1.61	1610.4	observe	Run3	observe/STIM_012.jpg	100
2668.324	0.786	785.5	observe	Run3	observe/STIM_013.jpg	100
2672.527	1.218	1218.2	observe	Run3	observe/STIM_013.jpg	99
2676.966	1.13	1130.1	observe	Run3	observe/STIM_013.jpg	99
2680.966	0.849	848.8	observe	Run3	observe/STIM_013.jpg	100
2684.558	0.986	985.6	observe	Run3	observe/STIM_014.jpg	100
2688.654	0.846	846.2	observe	Run3	observe/STIM_014.jpg	100
2691.769	1.593	1592.7	observe	Run3	observe/STIM_014.jpg	99
2696.89	1.39	1389.8	observe	Run3	observe/STIM_014.jpg	100
2700.511	1.022	1021.6	observe	Run3	observe/STIM_015.jpg	99
2703.954	0.944	943.7	observe	Run3	observe/STIM_015.jpg	99
2707.738	1.501	1500.8	observe	Run3	observe/STIM_015.jpg	99
2712.328	1.597	1597.1	observe	Run3	observe/STIM_015.jpg	99
2716.539	1.185	1185.0	observe	Run3	observe/STIM_016.jpg	100
2720.3	1.447	1447.0	observe	Run3	observe/STIM_016.jpg	99
2725.351	1.031	1031.3	observe	Run3	observe/STIM_016.jpg	100
2729.063	1.412	1412.0	observe	Run3	observe/STIM_016.jpg	99
2732.815	1.0	1000.0	observe	Run3	observe/STIM_017.jpg	100
2736.209	1.456	1456.1	observe	Run3	observe/STIM_017.jpg	99
2739.964	1.57	1570.2	observe	Run3	observe/STIM_017.jpg	99
2745.101	1.206	1205.9	observe	Run3	observe/STIM_017.jpg	99
2750.054	1.689	1688.9	observe	Run3	observe/STIM_018.jpg	99
2754.998	0.905	904.6	observe	Run3	observe/STIM_018.jpg	99
2758.099	0.903	903.3	observe	Run3	observe/STIM_018.jpg	99
2761.765	1.463	1463.1	observe	Run3	observe/STIM_018.jpg	100
2766.394	1.041	1041.3	observe	Run3	observe/STIM_019.jpg	100
2770.797	1.104	1103.8	observe	Run3	observe/STIM_019.jpg	99
2775.14	1.15	1150.5	observe	Run3	observe/STIM_019.jpg	100
2778.437	0.864	864.3	observe	Run3	observe/STIM_019.jpg	100
