onset	duration	response_time_ms	trial_type	learning_stage	stimulus	response_port
0.0	3.017	3016.8	regulate	Run1	regulate/STIM_000.jpg	99
6.147	2.331	2330.9	regulate	Run1	regulate/STIM_000.jpg	99
10.788	2.823	2823.1	regulate	Run1	regulate/STIM_000.jpg	100
16.945	2.541	2540.8	regulate	Run1	regulate/STIM_000.jpg	99
22.944	2.178	2178.1	regulate	Run1	regulate/STIM_001.jpg	100
27.407	2.647	2646.6	regulate	Run1	regulate/STIM_001.jpg	99
33.738	2.175	2175.1	regulate	Run1	regulate/STIM_001.jpg	100
38.13	1.636	1636.3	regulate	Run1	regulate/STIM_001.jpg	99
42.449	3.614	3614.0	regulate	Run1	regulate/STIM_002.jpg	100
49.698	2.032	2032.4	regulate	Run1	regulate/STIM_002.jpg	100
54.852	3.41	3410.4	regulate	Run1	regulate/STIM_002.jpg	100
60.642	3.2	3200.0	regulate	Run1	regulate/STIM_002.jpg	100
66.25	3.208	3207.8	regulate	Run1	regulate/STIM_003.jpg	99
73.35	2.58	2580.4	regulate	Run1	regulate/STIM_003.jpg	100
78.564	1.812	1811.6	regulate	Run1	regulate/STIM_003.jpg	100
82.517	2.913	2912.7	regulate	Run1	regulate/STIM_003.jpg	100
88.598	3.49	3489.8	regulate	Run1	regulate/STIM_004.jpg	99
95.795	2.396	2396.1	regulate	Run1	regulate/STIM_004.jpg	99
101.803	3.683	3683.0	regulate	Run1	regulate/STIM_004.jpg	99
109.227	1.624	1623.6	regulate	Run1	regulate/STIM_004.jpg	99
113.857	2.336	2336.3	regulate	Run1	regulate/STIM_005.jpg	100
118.42	2.87	2870.1	regulate	Run1	regulate/STIM_005.jpg	99
124.658	3.109	3108.8	regulate	Run1	regulate/STIM_005.jpg	100
130.492	3.176	3176.5	regulate	Run1	regulate/STIM_005.jpg	100
136.401	2.962	2961.5	regulate	Run1	regulate/STIM_006.jpg	99
141.927	4.008	4007.8	regulate	Run1	regulate/STIM_006.jpg	99
149.62	3.482	3481.8	regulate	Run1	regulate/STIM_006.jpg	99
156.501	2.584	2583.8	regulate	Run1	regulate/STIM_006.jpg	100
162.968	2.352	2351.9	regulate	Run1	regulate/STIM_007.jpg	100
168.842	3.279	3279.0	regulate	Run1	regulate/STIM_007.jpg	100
174.739	3.027	3027.2	regulate	Run1	regulate/STIM_007.jpg	99
179.928	3.002	3002.5	regulate	Run1	regulate/STIM_007.jpg	100
185.515	2.376	2376.0	regulate	Run1	regulate/STIM_008.jpg	100
190.374	3.105	3105.2	regulate	Run1	regulate/STIM_008.jpg	100
195.988	3.46	3460.4	regulate	Run1	regulate/STIM_008.jpg	99
202.858	2.602	2601.9	regulate	Run1	regulate/STIM_008.jpg	99
208.24	2.926	2925.9	regulate	Run1	regulate/STIM_009.jpg	100
215.163	3.025	3025.1	regulate	Run1	regulate/STIM_009.jpg	99
220.298	3.114	3113.8	regulate	Run1	regulate/STIM_009.jpg	100
226.551	1.888	1888.3	regulate	Run1	regulate/STIM_009.jpg	100
232.266	2.234	2233.8	regulate	Run1	regulate/STIM_010.jpg	99
237.334	1.992	1992.3	regulate	Run1	regulate/STIM_010.jpg	100
242.45	2.203	2202.9	regulate	Run1	regulate/STIM_010.jpg	100
248.617	3.179	3179.4	regulate	Run1	regulate/STIM_010.jpg	99
255.58	3.449	3449.4	regulate	Run1	regulate/STIM_011.jpg	99
261.406	3.013	3012.6	regulate	Run1	regulate/STIM_011.jpg	100
266.484	2.84	2839.5	regulate	Run1	regulate/STIM_011.jpg	99
273.05	3.527	3527.3	regulate	Run1	regulate/STIM_011.jpg	99
280.236	3.658	3657.7	regulate	Run1	regulate/STIM_012.jpg	100
285.959	2.754	2754.3	regulate	Run1	regulate/STIM_012.jpg	100
291.636	2.988	2987.9	regulate	Run1	regulate/STIM_012.jpg	99
296.781	2.389	2388.6	regulate	Run1	regulate/STIM_012.jpg	100
301.969	2.256	2255.7	regulate	Run1	regulate/STIM_013.jpg	99
307.945	2.001	2000.9	regulate	Run1	regulate/STIM_013.jpg	99
313.533	3.044	3044.3	regulate	Run1	regulate/STIM_013.jpg	99
320.045	3.408	3407.7	regulate	Run1	regulate/STIM_013.jpg	100
325.812	3.389	3389.0	regulate	Run1	regulate/STIM_014.jpg	100
332.21	3.381	3380.9	regulate	Run1	regulate/STIM_014.jpg	99
339.21	3.376	3375.7	regulate	Run1	regulate/STIM_014.jpg	100
345.073	3.05	3049.7	regulate	Run1	regulate/STIM_014.jpg	99
350.141	2.68	2680.0	regulate	Run1	regulate/STIM_015.jpg	99
355.518	3.015	3015.1	regulate	Run1	regulate/STIM_015.jpg	100
361.054	2.899	2898.6	regulate	Run1	regulate/STIM_015.jpg	100
367.418	2.289	2289.4	regulate	Run1	regulate/STIM_015.jpg	100
372.334	3.243	3242.7	regulate	Run1	regulate/STIM_016.jpg	99
378.191	2.105	2105.1	regulate	Run1	regulate/STIM_016.jpg	99
382.48	3.085	3085.2	regulate	Run1	regulate/STIM_016.jpg	100
388.975	3.435	3435.1	regulate	Run1	regulate/STIM_016.jpg	100
394.782	2.571	2570.7	regulate	Run1	regulate/STIM_017.jpg	100
399.719	3.062	3061.7	regulate	Run1	regulate/STIM_017.jpg	99
404.997	1.938	1937.7	regulate	Run1	regulate/STIM_017.jpg	100
408.936	1.82	1820.1	regulate	Run1	regulate/STIM_017.jpg	100
413.606	3.346	3345.7	regulate	Run1	regulate/STIM_018.jpg	100
420.713	1.832	1831.5	regulate	Run1	regulate/STIM_018.jpg	99
426.254	2.132	2132.5	regulate	Run1	regulate/STIM_018.jpg	100
432.207	2.96	2960.0	regulate	Run1	regulate/STIM_018.jpg	100
438.369	2.268	2267.9	regulate	Run1	regulate/STIM_019.jpg	99
443.489	2.171	2171.1	regulate	Run1	regulate/STIM_019.jpg	100
448.242	3.434	3433.5	regulate	Run1	regulate/STIM_019.jpg	100
455.418	2.579	2578.8	regulate	Run1	regulate/STIM_019.jpg	100
460.489	2.594	2594.5	regulate	Run1	regulate/STIM_020.jpg	100
465.993	3.135	3135.0	regulate	Run1	regulate/STIM_020.jpg	100
472.055	2.993	2992.9	regulate	Run1	regulate/STIM_020.jpg	99
478.957	2.365	2365.0	regulate	Run1	regulate/STIM_020.jpg	99
484.972	3.921	3921.0	regulate	Run1	regulate/STIM_021.jpg	100
491.719	1.73	1729.9	regulate	Run1	regulate/STIM_021.jpg	99
495.961	2.294	2293.8	regulate	Run1	regulate/STIM_021.jpg	99
501.169	2.669	2668.9	regulate	Run1	regulate/STIM_021.jpg	100
506.482	4.033	4033.4	regulate	Run1	regulate/STIM_022.jpg	99
513.034	2.0	2000.0	regulate	Run1	regulate/STIM_022.jpg	99
517.566	3.256	3256.5	regulate	Run1	regulate/STIM_022.jpg	99
523.939	2.214	2214.0	regulate	Run1	regulate/STIM_022.jpg	99
528.507	3.85	3849.5	regulate	Run1	regulate/STIM_023.jpg	99
536.22	2.596	2596.5	regulate	Run1	regulate/STIM_023.jpg	100
541.749	2.428	2428.0	regulate	Run1	regulate/STIM_023.jpg	99
546.251	3.085	3085.4	regulate	Run1	regulate/STIM_023.jpg	99
551.478	3.335	3335.2	regulate	Run1	regulate/STIM_024.jpg	100
557.959	2.642	2641.9	regulate	Run1	regulate/STIM_024.jpg	99
564.481	2.306	2305.9	regulate	Run1	regulate/STIM_024.jpg	100
570.786	2.233	2232.7	regulate	Run1	regulate/STIM_024.jpg	99
576.794	4.138	4138.1	regulate	Run1	regulate/STIM_025.jpg	100
584.776	3.386	3385.5	regulate	Run1	regulate/STIM_025.jpg	100
591.758	1.639	1638.8	regulate	Run1	regulate/STIM_025.jpg	99
595.717	2.215	2215.1	regulate	Run1	regulate/STIM_025.jpg	99
601.629	3.875	3874.9	regulate	Run1	regulate/STIM_026.jpg	100
609.119	2.581	2580.8	regulate	Run1	regulate/STIM_026.jpg	100
614.626	1.757	1757.4	regulate	Run1	regulate/STIM_026.jpg	100
618.533	1.694	1694.2	regulate	Run1	regulate/STIM_026.jpg	99
623.703	3.445	3444.6	regulate	Run1	regulate/STIM_027.jpg	99
629.389	1.842	1842.2	regulate	Run1	regulate/STIM_027.jpg	99
634.653	2.577	2576.6	regulate	Run1	regulate/STIM_027.jpg	99
640.873	2.123	2122.7	regulate	Run1	regulate/STIM_027.jpg	99
646.662	1.967	1967.4	regulate	Run1	regulate/STIM_028.jpg	99
651.226	3.027	3026.6	regulate	Run1	regulate/STIM_028.jpg	100
656.657	2.508	2507.5	regulate	Run1	regulate/STIM_028.jpg	100
662.976	3.198	3197.9	regulate	Run1	regulate/STIM_028.jpg	100
669.764	3.713	3713.2	regulate	Run1	regulate/STIM_029.jpg	100
676.822	3.854	3853.7	regulate	Run1	regulate/STIM_029.jpg	100
684.272	3.223	3223.3	regulate	Run1	regulate/STIM_029.jpg	99
690.802	3.352	3352.3	regulate	Run1	regulate/STIM_029.jpg	100
696.808	1.447	1447.4	observe	Run1	observe/STIM_000.jpg	99
700.971	1.136	1136.3	observe	Run1	observe/STIM_000.jpg	99
704.791	1.544	1544.4	observe	Run1	observe/STIM_000.jpg	99
709.227	1.012	1012.0	observe	Run1	observe/STIM_000.jpg	100
713.765	1.626	1626.5	observe	Run1	observe/STIM_001.jpg	100
718.269	1.557	1556.9	observe	Run1	observe/STIM_001.jpg	100
723.134	1.654	1653.7	observe	Run1	observe/STIM_001.jpg	99
728.614	1.769	1768.9	observe	Run1	observe/STIM_001.jpg	99
732.572	1.629	1629.2	observe	Run1	observe/STIM_002.jpg	100
736.774	1.073	1073.4	observe	Run1	observe/STIM_002.jpg	99
739.861	1.803	1802.7	observe	Run1	observe/STIM_002.jpg	100
745.512	1.3	1300.0	observe	Run1	observe/STIM_002.jpg	99
749.54	1.901	1900.6	observe	Run1	observe/STIM_003.jpg	99
754.403	1.858	1858.1	observe	Run1	observe/STIM_003.jpg	99
759.237	1.15	1150.5	observe	Run1	observe/STIM_003.jpg	99
762.85	1.462	1461.5	observe	Run1	observe/STIM_003.jpg	100
768.108	1.136	1136.2	observe	Run1	observe/STIM_004.jpg	99
773.104	1.915	1915.1	observe	Run1	observe/STIM_004.jpg	100
778.841	1.803	1803.2	observe	Run1	observe/STIM_004.jpg	99
784.372	1.263	1263.2	observe	Run1	observe/STIM_004.jpg	100
788.153	1.176	1175.7	observe	Run1	observe/STIM_005.jpg	100
792.859	1.731	1731.2	observe	Run1	observe/STIM_005.jpg	99
797.43	1.539	1538.9	observe	Run1	observe/STIM_005.jpg	100
801.835	1.014	1014.5	observe	Run1	observe/STIM_005.jpg	99
806.417	1.557	1556.7	observe	Run1	observe/STIM_006.jpg	100
810.553	1.665	1665.4	observe	Run1	observe/STIM_006.jpg	99
814.479	1.123	1123.0	observe	Run1	observe/STIM_006.jpg	99
819.581	1.761	1761.4	observe	Run1	observe/STIM_006.jpg	100
823.901	0.974	973.7	observe	Run1	observe/STIM_007.jpg	99
828.81	1.201	1201.0	observe	Run1	observe/STIM_007.jpg	99
832.187	1.875	1875.2	observe	Run1	observe/STIM_007.jpg	100
837.225	1.4	1400.4	observe	Run1	observe/STIM_007.jpg	99
842.105	1.186	1186.3	observe	Run1	observe/STIM_008.jpg	99
846.144	1.648	1648.5	observe	Run1	observe/STIM_008.jpg	100
850.087	1.587	1587.3	observe	Run1	observe/STIM_008.jpg	99
853.812	1.663	1662.9	observe	Run1	observe/STIM_008.jpg	99
858.668	0.976	976.0	observe	Run1	observe/STIM_009.jpg	100
862.691	0.979	978.9	observe	Run1	observe/STIM_009.jpg	99
866.943	1.589	1588.6	observe	Run1	observe/STIM_009.jpg	99
872.083	1.376	1376.1	observe	Run1	observe/STIM_009.jpg	100
875.522	1.488	1487.6	observe	Run1	observe/STIM_010.jpg	100
879.357	1.531	1531.4	observe	Run1	observe/STIM_010.jpg	99
883.348	1.837	1836.8	observe	Run1	observe/STIM_010.jpg	100
887.566	1.767	1767.1	observe	Run1	observe/STIM_010.jpg	99
892.812	1.248	1248.3	observe	Run1	observe/STIM_011.jpg	99
896.802	1.652	1652.0	observe	Run1	observe/STIM_011.jpg	100
901.955	1.564	1563.9	observe	Run1	observe/STIM_011.jpg	100
906.988	1.286	1286.5	observe	Run1	observe/STIM_011.jpg	99
911.881	1.677	1676.6	observe	Run1	observe/STIM_012.jpg	100
917.092	1.242	1241.5	observe	Run1	observe/STIM_012.jpg	100
922.037	1.884	1883.7	observe	Run1	observe/STIM_012.jpg	99
927.409	1.488	1487.8	observe	Run1	observe/STIM_012.jpg	99
931.138	1.386	1385.6	observe	Run1	observe/STIM_013.jpg	100
935.537	1.013	1012.7	observe	Run1	observe/STIM_013.jpg	99
939.658	1.038	1038.2	observe	Run1	observe/STIM_013.jpg	100
943.615	1.923	1923.0	observe	Run1	observe/STIM_013.jpg	99
948.88	1.892	1892.1	observe	Run1	observe/STIM_014.jpg	100
954.216	1.283	1283.4	observe	Run1	observe/STIM_014.jpg	100
958.255	1.265	1264.6	observe	Run1	observe/STIM_014.jpg	99
962.053	1.024	1023.5	observe	Run1	observe/STIM_014.jpg	99
966.14	1.313	1313.1	observe	Run1	observe/STIM_015.jpg	99
970.482	1.823	1823.1	observe	Run1	observe/STIM_015.jpg	100
975.276	1.083	1082.8	observe	Run1	observe/STIM_015.jpg	100
979.291	1.624	1623.9	observe	Run1	observe/STIM_015.jpg	100
984.378	1.417	1417.3	observe	Run1	observe/STIM_016.jpg	100
988.812	1.083	1083.0	observe	Run1	observe/STIM_016.jpg	100
992.549	1.556	1555.6	observe	Run1	observe/STIM_016.jpg	99
997.807	1.131	1131.4	observe	Run1	observe/STIM_016.jpg	99
1002.484	1.419	1419.1	observe	Run1	observe/STIM_017.jpg	99
1006.364	1.716	1715.8	observe	Run1	observe/STIM_017.jpg	100
1010.821	1.93	1929.7	observe	Run1	observe/STIM_017.jpg	99
1015.602	1.455	1454.9	observe	Run1	observe/STIM_017.jpg	99
1019.224	1.326	1326.1	observe	Run1	observe/STIM_018.jpg	99
1023.096	1.59	1589.6	observe	Run1	observe/STIM_018.jpg	100
1027.813	1.169	1168.6	observe	Run1	observe/STIM_018.jpg	100
1031.965	1.918	1917.8	observe	Run1	observe/STIM_018.jpg	100
1037.67	1.16	1160.4	observe	Run1	observe/STIM_019.jpg	99
1040.982	1.733	1733.3	observe	Run1	observe/STIM_019.jpg	100
1045.21	1.57	1570.2	observe	Run1	observe/STIM_019.jpg	100
1049.512	1.153	1153.4	observe	Run1	observe/STIM_019.jpg	99
1053.273	2.73	2730.0	regulate	Run2	regulate/STIM_000.jpg	100
1058.853	2.986	2985.8	regulate	Run2	regulate/STIM_000.jpg	99
1064.884	2.572	2571.7	regulate	Run2	regulate/STIM_000.jpg	100
1069.755	1.438	1438.0	regulate	Run2	regulate/STIM_000.jpg	99
1073.213	1.899	1899.1	regulate	Run2	regulate/STIM_001.jpg	99
1079.034	1.469	1468.6	regulate	Run2	regulate/STIM_001.jpg	99
1082.917	2.869	2869.1	regulate	Run2	regulate/STIM_001.jpg	100
1089.488	1.941	1941.1	regulate	Run2	regulate/STIM_001.jpg	99
1094.585	3.385	3384.9	regulate	Run2	regulate/STIM_002.jpg	100
1100.596	1.687	1687.4	regulate	Run2	regulate/STIM_002.jpg	100
1104.685	2.194	2194.4	regulate	Run2	regulate/STIM_002.jpg	100
1109.101	1.903	1903.3	regulate	Run2	regulate/STIM_002.jpg	99
1113.535	1.944	1943.8	regulate	Run2	regulate/STIM_003.jpg	99
1118.034	2.122	2121.9	regulate	Run2	regulate/STIM_003.jpg	100
1122.185	2.523	2523.0	regulate	Run2	regulate/STIM_003.jpg	99
1127.669	2.236	2235.8	regulate	Run2	regulate/STIM_003.jpg	99
1132.193	2.561	2561.0	regulate	Run2	regulate/STIM_004.jpg	100
1136.88	1.762	1761.8	regulate	Run2	regulate/STIM_004.jpg	100
1142.275	2.228	2227.7	regulate	Run2	regulate/STIM_004.jpg	100
1147.378	2.365	2365.1	regulate	Run2	regulate/STIM_004.jpg	99
1152.375	2.583	2582.8	regulate	Run2	regulate/STIM_005.jpg	100
1157.459	2.637	2636.6	regulate	Run2	regulate/STIM_005.jpg	99
1163.46	2.649	2648.6	regulate	Run2	regulate/STIM_005.jpg	99
1168.92	2.437	2436.9	regulate	Run2	regulate/STIM_005.jpg	100
1173.682	3.187	3186.8	regulate	Run2	regulate/STIM_006.jpg	100
1179.157	1.8	1800.1	regulate	Run2	regulate/STIM_006.jpg	99
1183.04	2.431	2430.8	regulate	Run2	regulate/STIM_006.jpg	99
1187.914	1.309	1308.9	regulate	Run2	regulate/STIM_006.jpg	100
1192.832	2.647	2646.8	regulate	Run2	regulate/STIM_007.jpg	99
1199.295	3.338	3337.5	regulate	Run2	regulate/STIM_007.jpg	99
1205.859	3.036	3036.3	regulate	Run2	regulate/STIM_007.jpg	99
1212.059	1.396	1396.2	regulate	Run2	regulate/STIM_007.jpg	100
1216.801	1.649	1648.9	regulate	Run2	regulate/STIM_008.jpg	100
1220.678	3.359	3359.4	regulate	Run2	regulate/STIM_008.jpg	100
1226.168	1.676	1675.6	regulate	Run2	regulate/STIM_008.jpg	99
1231.649	1.683	1683.4	regulate	Run2	regulate/STIM_008.jpg	100
1235.342	2.905	2905.2	regulate	Run2	regulate/STIM_009.jpg	100
1240.271	3.143	3143.4	regulate	Run2	regulate/STIM_009.jpg	100
1246.865	1.451	1451.0	regulate	Run2	regulate/STIM_009.jpg	99
1250.597	2.054	2054.0	regulate	Run2	regulate/STIM_009.jpg	100
1254.982	1.625	1625.0	regulate	Run2	regulate/STIM_010.jpg	100
1260.58	2.45	2449.7	regulate	Run2	regulate/STIM_010.jpg	99
1266.927	2.32	2320.4	regulate	Run2	regulate/STIM_010.jpg	100
1271.96	1.746	1745.6	regulate	Run2	regulate/STIM_010.jpg	100
1277.471	3.468	3468.4	regulate	Run2	regulate/STIM_011.jpg	100
1284.901	1.52	1520.0	regulate	Run2	regulate/STIM_011.jpg	100
1289.759	2.0	2000.4	regulate	Run2	regulate/STIM_011.jpg	100
1293.872	2.796	2796.2	regulate	Run2	regulate/STIM_011.jpg	99
1298.932	3.564	3563.5	regulate	Run2	regulate/STIM_012.jpg	100
1304.946	1.629	1628.7	regulate	Run2	regulate/STIM_012.jpg	100
1309.734	2.252	2252.5	regulate	Run2	regulate/STIM_012.jpg	99
1315.284	1.408	1407.9	regulate	Run2	regulate/STIM_012.jpg	100
1319.999	2.498	2498.2	regulate	Run2	regulate/STIM_013.jpg	99
1325.95	1.816	1815.5	regulate	Run2	regulate/STIM_013.jpg	99
1331.355	2.733	2733.2	regulate	Run2	regulate/STIM_013.jpg	100
1337.632	1.81	1809.7	regulate	Run2	regulate/STIM_013.jpg	99
1342.641	2.699	2699.0	regulate	Run2	regulate/STIM_014.jpg	100
1348.406	2.645	2645.1	regulate	Run2	regulate/STIM_014.jpg	100
1353.828	2.624	2624.1	regulate	Run2	regulate/STIM_014.jpg	100
1359.405	2.365	2365.4	regulate	Run2	regulate/STIM_014.jpg	100
1364.084	2.462	2462.3	regulate	Run2	regulate/STIM_015.jpg	100
1369.415	3.171	3171.1	regulate	Run2	regulate/STIM_015.jpg	99
1375.942	2.453	2452.6	regulate	Run2	regulate/STIM_015.jpg	100
1382.394	1.828	1828.3	regulate	Run2	regulate/STIM_015.jpg	99
1387.148	1.607	1606.7	regulate	Run2	regulate/STIM_016.jpg	100
1391.952	1.83	1829.6	regulate	Run2	regulate/STIM_016.jpg	100
1397.191	2.725	2725.4	regulate	Run2	regulate/STIM_016.jpg	99
1402.078	2.899	2899.1	regulate	Run2	regulate/STIM_016.jpg	99
1408.107	2.566	2566.3	regulate	Run2	regulate/STIM_017.jpg	100
1413.633	3.209	3209.0	regulate	Run2	regulate/STIM_017.jpg	100
1419.549	2.105	2105.4	regulate	Run2	regulate/STIM_017.jpg	99
1424.445	2.792	2792.4	regulate	Run2	regulate/STIM_017.jpg	100
1430.434	1.54	1540.3	regulate	Run2	regulate/STIM_018.jpg	100
1434.557	2.988	2988.3	regulate	Run2	regulate/STIM_018.jpg	99
1440.395	2.769	2769.0	regulate	Run2	regulate/STIM_018.jpg	100
1446.374	2.632	2632.3	regulate	Run2	regulate/STIM_018.jpg	99
1451.766	2.806	2805.5	regulate	Run2	regulate/STIM_019.jpg	100
1457.902	1.664	1664.2	regulate	Run2	regulate/STIM_019.jpg	99
1461.812	1.929	1928.9	regulate	Run2	regulate/STIM_019.jpg	100
1467.385	2.874	2874.3	regulate	Run2	regulate/STIM_019.jpg	100
1472.886	2.081	2080.7	regulate	Run2	regulate/STIM_020.jpg	100
1478.227	2.789	2788.7	regulate	Run2	regulate/STIM_020.jpg	100
1483.918	1.743	1742.6	regulate	Run2	regulate/STIM_020.jpg	99
1489.02	2.826	2826.1	regulate	Run2	regulate/STIM_020.jpg	99
1495.602	1.834	1834.4	regulate	Run2	regulate/STIM_021.jpg	99
1499.506	2.428	2427.9	regulate	Run2	regulate/STIM_021.jpg	100
1505.462	1.412	1412.2	regulate	Run2	regulate/STIM_021.jpg	99
1509.853	1.904	1904.1	regulate	Run2	regulate/STIM_021.jpg	100
1513.891	1.776	1776.3	regulate	Run2	regulate/STIM_022.jpg	99
1518.538	3.236	3236.1	regulate	Run2	regulate/STIM_022.jpg	99
1524.378	1.522	1521.9	regulate	Run2	regulate/STIM_022.jpg	100
1529.135	1.508	1508.3	regulate	Run2	regulate/STIM_022.jpg	100
1533.455	2.754	2754.0	regulate	Run2	regulate/STIM_023.jpg	99
1538.855	2.433	2433.4	regulate	Run2	regulate/STIM_023.jpg	100
1544.034	1.519	1518.9	regulate	Run2	regulate/STIM_023.jpg	100
1549.396	1.666	1665.6	regulate	Run2	regulate/STIM_023.jpg	100
1554.177	3.377	3377.0	regulate	Run2	regulate/STIM_024.jpg	100
1560.517	1.928	1928.2	regulate	Run2	regulate/STIM_024.jpg	99
1566.147	1.499	1498.9	regulate	Run2	regulate/STIM_024.jpg	100
1570.933	2.23	2229.9	regulate	Run2	regulate/STIM_024.jpg	99
1576.5	3.274	3274.1	regulate	Run2	regulate/STIM_025.jpg	100
1582.808	2.977	2976.6	regulate	Run2	regulate/STIM_025.jpg	100
1588.697	2.099	2098.6	regulate	Run2	regulate/STIM_025.jpg	99
1593.433	1.56	1560.2	regulate	Run2	regulate/STIM_025.jpg	99
1597.014	2.173	2172.9	regulate	Run2	regulate/STIM_026.jpg	99
1602.144	3.063	3062.6	regulate	Run2	regulate/STIM_026.jpg	100
1607.534	2.221	2220.9	regulate	Run2	regulate/STIM_026.jpg	99
1613.427	2.195	2194.8	regulate	Run2	regulate/STIM_026.jpg	100
1618.656	2.448	2447.8	regulate	Run2	regulate/STIM_027.jpg	100
1624.482	1.509	1509.4	regulate	Run2	regulate/STIM_027.jpg	100
1628.283	1.422	1422.1	regulate	Run2	regulate/STIM_027.jpg	99
1632.132	1.522	1521.6	regulate	Run2	regulate/STIM_027.jpg	99
1637.319	3.532	3531.9	regulate	Run2	regulate/STIM_028.jpg	100
1643.588	3.361	3361.0	regulate	Run2	regulate/STIM_028.jpg	99
1649.232	2.483	2482.8	regulate	Run2	regulate/STIM_028.jpg	100
1655.14	1.602	1601.7	regulate	Run2	regulate/STIM_028.jpg	99
1660.402	2.509	2508.6	regulate	Run2	regulate/STIM_029.jpg	99
1666.862	1.835	1834.7	regulate	Run2	regulate/STIM_029.jpg	100
1672.351	2.658	2658.5	regulate	Run2	regulate/STIM_029.jpg	100
1678.089	2.392	2392.4	regulate	Run2	regulate/STIM_029.jpg	99
1684.214	1.725	1725.3	observe	Run2	observe/STIM_000.jpg	99
1689.466	1.642	1641.5	observe	Run2	observe/STIM_000.jpg	99
1693.608	1.001	1001.4	observe	Run2	observe/STIM_000.jpg	100
1696.78	1.56	1559.8	observe	Run2	observe/STIM_000.jpg	99
1700.785	1.602	1601.7	observe	Run2	observe/STIM_001.jpg	99
1706.383	1.019	1019.3	observe	Run2	observe/STIM_001.jpg	100
1710.964	1.697	1697.0	observe	Run2	observe/STIM_001.jpg	99
1716.222	1.519	1518.7	observe	Run2	observe/STIM_001.jpg	99
1721.246	1.897	1896.7	observe	Run2	observe/STIM_002.jpg	100
1725.944	1.092	1091.5	observe	Run2	observe/STIM_002.jpg	100
1729.236	1.752	1752.4	observe	Run2	observe/STIM_002.jpg	100
1734.756	1.481	1480.9	observe	Run2	observe/STIM_002.jpg	100
1738.292	1.065	1065.4	observe	Run2	observe/STIM_003.jpg	100
1742.842	1.832	1832.3	observe	Run2	observe/STIM_003.jpg	99
1746.766	1.451	1451.1	observe	Run2	observe/STIM_003.jpg	99
1750.452	1.644	1644.1	observe	Run2	observe/STIM_003.jpg	99
1755.746	1.131	1131.4	observe	Run2	observe/STIM_004.jpg	100
1759.184	1.344	1343.9	observe	Run2	observe/STIM_004.jpg	100
1762.96	1.826	1826.4	observe	Run2	observe/STIM_004.jpg	100
1767.502	1.449	1448.6	observe	Run2	observe/STIM_004.jpg	100
1771.044	1.507	1506.7	observe	Run2	observe/STIM_005.jpg	100
1774.872	1.464	1464.2	observe	Run2	observe/STIM_005.jpg	99
1779.737	1.508	1507.9	observe	Run2	observe/STIM_005.jpg	99
1783.987	1.02	1020.0	observe	Run2	observe/STIM_005.jpg	100
1787.142	1.685	1685.2	observe	Run2	observe/STIM_006.jpg	100
1792.601	1.611	1611.2	observe	Run2	observe/STIM_006.jpg	99
1797.963	1.262	1261.6	observe	Run2	observe/STIM_006.jpg	100
1803.06	1.487	1487.1	observe	Run2	observe/STIM_006.jpg	99
1807.393	1.216	1215.8	observe	Run2	observe/STIM_007.jpg	100
1812.084	1.922	1922.5	observe	Run2	observe/STIM_007.jpg	100
1816.725	1.003	1002.7	observe	Run2	observe/STIM_007.jpg	100
1821.06	1.507	1507.2	observe	Run2	observe/STIM_007.jpg	99
1824.823	1.403	1403.2	observe	Run2	observe/STIM_008.jpg	99
1830.075	1.045	1045.2	observe	Run2	observe/STIM_008.jpg	100
1833.787	1.757	1757.2	observe	Run2	observe/STIM_008.jpg	100
1838.157	1.639	1639.3	observe	Run2	observe/STIM_008.jpg	100
1843.077	1.407	1407.0	observe	Run2	observe/STIM_009.jpg	100
1847.514	1.476	1476.1	observe	Run2	observe/STIM_009.jpg	100
1852.32	0.981	980.6	observe	Run2	observe/STIM_009.jpg	99
1856.589	1.796	1795.9	observe	Run2	observe/STIM_009.jpg	100
1862.177	1.205	1205.0	observe	Run2	observe/STIM_010.jpg	100
1867.069	1.682	1681.8	observe	Run2	observe/STIM_010.jpg	99
1871.767	1.319	1318.9	observe	Run2	observe/STIM_010.jpg	100
1876.929	1.806	1806.2	observe	Run2	observe/STIM_010.jpg	100
1881.622	1.623	1623.3	observe	Run2	observe/STIM_011.jpg	100
1885.281	1.598	1598.2	observe	Run2	observe/STIM_011.jpg	99
1889.075	1.139	1139.2	observe	Run2	observe/STIM_011.jpg	100
1892.216	1.059	1058.6	observe	Run2	observe/STIM_011.jpg	100
1896.396	1.638	1638.1	observe	Run2	observe/STIM_012.jpg	99
1901.167	1.104	1104.1	observe	Run2	observe/STIM_012.jpg	100
1904.516	1.168	1167.5	observe	Run2	observe/STIM_012.jpg	100
1908.138	1.286	1286.4	observe	Run2	observe/STIM_012.jpg	100
1912.486	1.789	1788.7	observe	Run2	observe/STIM_013.jpg	100
1917.659	1.399	1399.2	observe	Run2	observe/STIM_013.jpg	99
1922.733	1.143	1142.6	observe	Run2	observe/STIM_013.jpg	100
1926.309	1.708	1708.1	observe	Run2	observe/STIM_013.jpg	100
1930.953	1.163	1163.2	observe	Run2	observe/STIM_014.jpg	99
1934.222	1.639	1639.2	observe	Run2	observe/STIM_014.jpg	100
1938.479	1.327	1326.6	observe	Run2	observe/STIM_014.jpg	100
1942.986	1.774	1774.5	observe	Run2	observe/STIM_014.jpg	99
1947.178	1.572	1571.8	observe	Run2	observe/STIM_015.jpg	100
1951.493	1.192	1191.5	observe	Run2	observe/STIM_015.jpg	100
1955.281	1.147	1147.2	observe	Run2	observe/STIM_015.jpg	100
1959.384	1.19	1189.6	observe	Run2	observe/STIM_015.jpg	99
1962.637	1.233	1232.8	observe	Run2	observe/STIM_016.jpg	100
1967.528	1.251	1250.6	observe	Run2	observe/STIM_016.jpg	99
1972.546	1.691	1691.1	observe	Run2	observe/STIM_016.jpg	100
1977.431	1.43	1429.8	observe	Run2	observe/STIM_016.jpg	99
1981.039	1.417	1416.9	observe	Run2	observe/STIM_017.jpg	99
1984.864	1.208	1207.8	observe	Run2	observe/STIM_017.jpg	99
1989.489	1.23	1229.8	observe	Run2	observe/STIM_017.jpg	100
1993.933	1.216	1215.6	observe	Run2	observe/STIM_017.jpg	100
1998.916	1.068	1068.3	observe	Run2	observe/STIM_018.jpg	99
2002.347	1.05	1049.6	observe	Run2	observe/STIM_018.jpg	99
2006.271	1.605	1604.6	observe	Run2	observe/STIM_018.jpg	99
2011.124	1.066	1065.9	observe	Run2	observe/STIM_018.jpg	100
2014.652	1.528	1527.6	observe	Run2	observe/STIM_019.jpg	100
2018.279	1.0	1000.1	observe	Run2	observe/STIM_019.jpg	100
2021.849	1.854	1853.8	observe	Run2	observe/STIM_019.jpg	99
2026.412	0.996	995.5	observe	Run2	observe/STIM_019.jpg	100
2030.72	2.716	2716.2	regulate	Run3	regulate/STIM_000.jpg	99
2037.019	1.813	1812.8	regulate	Run3	regulate/STIM_000.jpg	100
2042.086	2.433	2433.2	regulate	Run3	regulate/STIM_000.jpg	100
2046.783	1.846	1846.3	regulate	Run3	regulate/STIM_000.jpg	99
2052.387	1.315	1314.6	regulate	Run3	regulate/STIM_001.jpg	100
2056.078	1.587	1586.7	regulate	Run3	regulate/STIM_001.jpg	99
2059.814	2.212	2211.9	regulate	Run3	regulate/STIM_001.jpg	99
2065.554	1.473	1472.9	regulate	Run3	regulate/STIM_001.jpg	99
2070.06	1.567	1567.0	regulate	Run3	regulate/STIM_002.jpg	99
2074.894	1.672	1672.0	regulate	Run3	regulate/STIM_002.jpg	99
2078.587	1.274	1274.3	regulate	Run3	regulate/STIM_002.jpg	100
2082.411	2.277	2277.2	regulate	Run3	regulate/STIM_002.jpg	99
2088.527	2.282	2282.2	regulate	Run3	regulate/STIM_003.jpg	99
2094.719	1.69	1690.1	regulate	Run3	regulate/STIM_003.jpg	99
2100.308	2.119	2118.8	regulate	Run3	regulate/STIM_003.jpg	99
2105.491	1.453	1453.0	regulate	Run3	regulate/STIM_003.jpg	99
2109.798	1.659	1658.8	regulate	Run3	regulate/STIM_004.jpg	99
2114.982	2.55	2549.9	regulate	Run3	regulate/STIM_004.jpg	100
2120.555	1.951	1950.8	regulate	Run3	regulate/STIM_004.jpg	100
2126.112	1.538	1538.2	regulate	Run3	regulate/STIM_004.jpg	99
2130.178	2.218	2218.3	regulate	Run3	regulate/STIM_005.jpg	100
2135.024	2.346	2346.3	regulate	Run3	regulate/STIM_005.jpg	99
2141.033	1.79	1790.3	regulate	Run3	regulate/STIM_005.jpg	100
2146.451	1.899	1899.2	regulate	Run3	regulate/STIM_005.jpg	99
2150.795	2.609	2608.7	regulate	Run3	regulate/STIM_006.jpg	100
2156.266	1.718	1718.2	regulate	Run3	regulate/STIM_006.jpg	100
2161.034	2.737	2737.1	regulate	Run3	regulate/STIM_006.jpg	99
2166.797	1.778	1777.8	regulate	Run3	regulate/STIM_006.jpg	100
2171.412	2.646	2646.1	regulate	Run3	regulate/STIM_007.jpg	100
2176.115	2.241	2241.3	regulate	Run3	regulate/STIM_007.jpg	99
2181.557	1.645	1644.9	regulate	Run3	regulate/STIM_007.jpg	100
2186.917	1.459	1459.3	regulate	Run3	regulate/STIM_007.jpg	100
2191.493	1.603	1602.7	regulate	Run3	regulate/STIM_008.jpg	100
2195.383	1.846	1846.5	regulate	Run3	regulate/STIM_008.jpg	100
2199.976	1.687	1687.0	regulate	Run3	regulate/STIM_008.jpg	100
2204.226	1.739	1739.4	regulate	Run3	regulate/STIM_008.jpg	100
2209.331	1.857	1856.6	regulate	Run3	regulate/STIM_009.jpg	99
2215.145	2.585	2585.0	regulate	Run3	regulate/STIM_009.jpg	100
2219.755	1.539	1538.9	regulate	Run3	regulate/STIM_009.jpg	100
2224.071	2.171	2171.0	regulate	Run3	regulate/STIM_009.jpg	99
2229.421	2.786	2786.2	regulate	Run3	regulate/STIM_010.jpg	100
2234.318	2.554	2553.8	regulate	Run3	regulate/STIM_010.jpg	99
2240.836	2.298	2298.0	regulate	Run3	regulate/STIM_010.jpg	99
2246.194	2.64	2640.1	regulate	Run3	regulate/STIM_010.jpg	100
2250.87	2.202	2202.2	regulate	Run3	regulate/STIM_011.jpg	99
2255.464	2.368	2367.6	regulate	Run3	regulate/STIM_011.jpg	99
2261.206	2.907	2907.4	regulate	Run3	regulate/STIM_011.jpg	100
2267.621	1.65	1649.5	regulate	Run3	regulate/STIM_011.jpg	100
2272.019	2.324	2323.6	regulate	Run3	regulate/STIM_012.jpg	99
2277.293	1.656	1656.5	regulate	Run3	regulate/STIM_012.jpg	100
2282.69	2.815	2815.0	regulate	Run3	regulate/STIM_012.jpg	99
2289.469	2.788	2788.4	regulate	Run3	regulate/STIM_012.jpg	99
2295.871	2.521	2521.4	regulate	Run3	regulate/STIM_013.jpg	99
2301.268	1.576	1575.8	regulate	Run3	regulate/STIM_013.jpg	99
2306.756	2.92	2920.1	regulate	Run3	regulate/STIM_013.jpg	99
2312.575	2.397	2397.3	regulate	Run3	regulate/STIM_013.jpg	100
2318.151	1.412	1411.8	regulate	Run3	regulate/STIM_014.jpg	100
2322.915	2.523	2523.3	regulate	Run3	regulate/STIM_014.jpg	99
2328.95	2.14	2140.5	regulate	Run3	regulate/STIM_014.jpg	99
2334.23	2.436	2435.7	regulate	Run3	regulate/STIM_014.jpg	100
2338.705	2.931	2930.7	regulate	Run3	regulate/STIM_015.jpg	99
2344.467	2.837	2837.0	regulate	Run3	regulate/STIM_015.jpg	99
2350.028	2.527	2526.7	regulate	Run3	regulate/STIM_015.jpg	99
2354.634	1.608	1608.4	regulate	Run3	regulate/STIM_015.jpg	100
2358.321	2.04	2039.9	regulate	Run3	regulate/STIM_016.jpg	100
2363.878	2.551	2551.0	regulate	Run3	regulate/STIM_016.jpg	100
2369.197	2.538	2538.4	regulate	Run3	regulate/STIM_016.jpg	99
2374.069	2.744	2743.7	regulate	Run3	regulate/STIM_016.jpg	100
2379.354	2.496	2495.6	regulate	Run3	regulate/STIM_017.jpg	100
2383.867	1.692	1692.3	regulate	Run3	regulate/STIM_017.jpg	100
2388.088	1.333	1333.3	regulate	Run3	regulate/STIM_017.jpg	99
2392.772	2.474	2474.0	regulate	Run3	regulate/STIM_017.jpg	99
2398.589	1.343	1343.4	regulate	Run3	regulate/STIM_018.jpg	100
2402.677	2.62	2620.2	regulate	Run3	regulate/STIM_018.jpg	99
2407.688	1.962	1961.6	regulate	Run3	regulate/STIM_018.jpg	100
2411.786	1.723	1723.2	regulate	Run3	regulate/STIM_018.jpg	99
2417.043	2.427	2427.3	regulate	Run3	regulate/STIM_019.jpg	99
2423.292	2.275	2275.1	regulate	Run3	regulate/STIM_019.jpg	99
2428.735	1.683	1682.8	regulate	Run3	regulate/STIM_019.jpg	99
2433.819	2.744	2743.5	regulate	Run3	regulate/STIM_019.jpg	100
2440.054	1.862	1862.1	regulate	Run3	regulate/STIM_020.jpg	100
2444.419	1.821	1821.1	regulate	Run3	regulate/STIM_020.jpg	100
2449.838	1.351	1350.7	regulate	Run3	regulate/STIM_020.jpg	100
2453.799	2.333	2333.2	regulate	Run3	regulate/STIM_020.jpg	99
2458.926	1.66	1659.9	regulate	Run3	regulate/STIM_021.jpg	99
2464.029	1.649	1648.6	regulate	Run3	regulate/STIM_021.jpg	99
2469.101	1.658	1658.4	regulate	Run3	regulate/STIM_021.jpg	99
2474.266	2.64	2640.0	regulate	Run3	regulate/STIM_021.jpg	99
2479.8	1.735	1735.0	regulate	Run3	regulate/STIM_022.jpg	99
2485.267	2.209	2209.0	regulate	Run3	regulate/STIM_022.jpg	100
2489.851	2.457	2457.2	regulate	Run3	regulate/STIM_022.jpg	100
2495.75	2.197	2197.0	regulate	Run3	regulate/STIM_022.jpg	99
2500.846	1.617	1617.2	regulate	Run3	regulate/STIM_023.jpg	99
2506.195	2.0	2000.2	regulate	Run3	regulate/STIM_023.jpg	100
2510.854	1.959	1959.4	regulate	Run3	regulate/STIM_023.jpg	99
2514.968	1.679	1678.9	regulate	Run3	regulate/STIM_023.jpg	99
2519.386	2.466	2466.3	regulate	Run3	regulate/STIM_024.jpg	100
2525.554	1.512	1511.6	regulate	Run3	regulate/STIM_024.jpg	100
2530.884	1.946	1945.5	regulate	Run3	regulate/STIM_024.jpg	100
2536.037	1.7	1699.5	regulate	Run3	regulate/STIM_024.jpg	100
2540.566	2.905	2904.9	regulate	Run3	regulate/STIM_025.jpg	100
2546.862	1.441	1440.8	regulate	Run3	regulate/STIM_025.jpg	99
2550.849	1.874	1873.9	regulate	Run3	regulate/STIM_025.jpg	99
2555.084	1.829	1828.9	regulate	Run3	regulate/STIM_025.jpg	99
2559.344	2.93	2930.1	regulate	Run3	regulate/STIM_026.jpg	99
2564.758	1.75	1750.1	regulate	Run3	regulate/STIM_026.jpg	99
2569.007	2.897	2896.7	regulate	Run3	regulate/STIM_026.jpg	100
2574.655	2.658	2658.0	regulate	Run3	regulate/STIM_026.jpg	99
2579.68	1.762	1761.6	regulate	Run3	regulate/STIM_027.jpg	99
2584.079	1.648	1648.0	regulate	Run3	regulate/STIM_027.jpg	99
2588.499	2.142	2141.7	regulate	Run3	regulate/STIM_027.jpg	100
2594.307	2.419	2419.1	regulate	Run3	regulate/STIM_027.jpg	100
2599.035	1.779	1779.1	regulate	Run3	regulate/STIM_028.jpg	99
2604.76	2.93	2930.5	regulate	Run3	regulate/STIM_028.jpg	100
2611.426	2.858	2858.3	regulate	Run3	regulate/STIM_028.jpg	100
2616.532	2.589	2588.6	regulate	Run3	regulate/STIM_028.jpg	99
2622.912	1.702	1702.3	regulate	Run3	regulate/STIM_029.jpg	99
2628.325	2.917	2916.7	regulate	Run3	regulate/STIM_029.jpg	99
2634.749	1.272	1272.2	regulate	Run3	regulate/STIM_029.jpg	99
2638.991	1.597	1596.9	regulate	Run3	regulate/STIM_029.jpg	100
2643.981	1.675	1675.4	observe	Run3	observe/STIM_000.jpg	99
2649.032	1.693	1692.6	observe	Run3	observe/STIM_000.jpg	99
2652.833	1.58	1579.8	observe	Run3	observe/STIM_000.jpg	100
2657.706	1.11	1109.9	observe	Run3	observe/STIM_000.jpg	100
2661.006	1.365	1364.7	observe	Run3	observe/STIM_001.jpg	100
2666.322	1.25	1250.4	observe	Run3	observe/STIM_001.jpg	100
2669.95	1.709	1708.6	observe	Run3	observe/STIM_001.jpg	99
2674.954	1.62	1620.5	observe	Run3	observe/STIM_001.jpg	99
2678.758	0.999	998.9	observe	Run3	observe/STIM_002.jpg	100
2681.848	1.452	1452.2	observe	Run3	observe/STIM_002.jpg	99
2686.215	1.589	1589.0	observe	Run3	observe/STIM_002.jpg	99
2691.428	1.671	1670.6	observe	Run3	observe/STIM_002.jpg	100
2696.228	1.463	1462.9	observe	Run3	observe/STIM_003.jpg	99
2701.628	1.546	1545.5	observe	Run3	observe/STIM_003.jpg	100
2705.574	1.128	1128.2	observe	Run3	observe/STIM_003.jpg	99
2709.481	1.602	1602.0	observe	Run3	observe/STIM_003.jpg	99
2714.314	1.29	1289.6	observe	Run3	observe/STIM_004.jpg	99
2718.551	1.025	1024.6	observe	Run3	observe/STIM_004.jpg	99
2722.462	1.264	1264.1	observe	Run3	observe/STIM_004.jpg	100
2727.254	1.595	1595.3	observe	Run3	observe/STIM_004.jpg	99
2732.441	1.019	1019.2	observe	Run3	observe/STIM_005.jpg	99
2735.972	1.807	1807.1	observe	Run3	observe/STIM_005.jpg	99
2741.104	1.113	1113.2	observe	Run3	observe/STIM_005.jpg	99
2745.262	1.672	1672.2	observe	Run3	observe/STIM_005.jpg	99
2749.945	1.233	1233.1	observe	Run3	observe/STIM_006.jpg	99
2753.234	1.349	1349.0	observe	Run3	observe/STIM_006.jpg	99
2757.132	1.273	1273.3	observe	Run3	observe/STIM_006.jpg	100
2761.932	1.877	1876.8	observe	Run3	observe/STIM_006.jpg	100
2767.073	1.89	1890.5	observe	Run3	observe/STIM_007.jpg	100
2772.644	1.877	1876.9	observe	Run3	observe/STIM_007.jpg	100
2777.289	1.533	1533.1	observe	Run3	observe/STIM_007.jpg	100
2781.956	1.821	1821.4	observe	Run3	observe/STIM_007.jpg	100
2787.533	1.704	1704.5	observe	Run3	observe/STIM_008.jpg	99
2792.454	1.079	1079.0	observe	Run3	observe/STIM_008.jpg	100
2797.1	1.764	1763.6	observe	Run3	observe/STIM_008.jpg	100
2801.285	1.439	1438.7	observe	Run3	observe/STIM_008.jpg	99
2805.026	1.032	1032.5	observe	Run3	observe/STIM_009.jpg	99
2809.605	1.533	1533.1	observe	Run3	observe/STIM_009.jpg	99
2814.531	1.77	1769.9	observe	Run3	observe/STIM_009.jpg	99
2819.857	1.543	1543.0	observe	Run3	observe/STIM_009.jpg	99
2824.14	1.851	1850.7	observe	Run3	observe/STIM_010.jpg	99
2829.572	1.907	1906.9	observe	Run3	observe/STIM_010.jpg	99
2835.044	1.292	1292.4	observe	Run3	observe/STIM_010.jpg	99
2839.582	1.332	1331.8	observe	Run3	observe/STIM_010.jpg	100
2844.419	1.425	1425.0	observe	Run3	observe/STIM_011.jpg	99
2848.002	1.379	1378.6	observe	Run3	observe/STIM_011.jpg	99
2853.145	1.115	1114.7	observe	Run3	observe/STIM_011.jpg	99
2857.164	1.243	1243.0	observe	Run3	observe/STIM_011.jpg	99
2861.665	1.537	1537.1	observe	Run3	observe/STIM_012.jpg	100
2866.407	1.268	1268.1	observe	Run3	observe/STIM_012.jpg	100
2870.832	1.88	1880.1	observe	Run3	observe/STIM_012.jpg	100
2875.575	1.189	1188.6	observe	Run3	observe/STIM_012.jpg	100
2879.406	1.917	1917.3	observe	Run3	observe/STIM_013.jpg	100
2883.555	1.005	1005.2	observe	Run3	observe/STIM_013.jpg	99
2887.038	1.195	1195.0	observe	Run3	observe/STIM_013.jpg	99
2892.19	1.07	1070.2	observe	Run3	observe/STIM_013.jpg	100
2895.437	1.918	1917.6	observe	Run3	observe/STIM_014.jpg	100
2900.573	1.562	1562.2	observe	Run3	observe/STIM_014.jpg	100
2905.81	1.017	1016.9	observe	Run3	observe/STIM_014.jpg	99
2910.777	1.28	1279.8	observe	Run3	observe/STIM_014.jpg	100
2914.997	1.582	1582.4	observe	Run3	observe/STIM_015.jpg	99
2920.511	1.271	1270.8	observe	Run3	observe/STIM_015.jpg	99
2923.789	1.37	1370.5	observe	Run3	observe/STIM_015.jpg	99
2929.02	1.598	1598.1	observe	Run3	observe/STIM_015.jpg	99
2932.849	1.074	1074.1	observe	Run3	observe/STIM_016.jpg	100
2936.28	1.602	1601.6	observe	Run3	observe/STIM_016.jpg	99
2941.473	1.329	1328.8	observe	Run3	observe/STIM_016.jpg	100
2946.711	0.989	989.3	observe	Run3	observe/STIM_016.jpg	99
2951.518	1.277	1277.2	observe	Run3	observe/STIM_017.jpg	100
2956.039	1.352	1351.5	observe	Run3	observe/STIM_017.jpg	99
2960.177	1.169	1169.0	observe	Run3	observe/STIM_017.jpg	99
2964.608	1.266	1265.5	observe	Run3	observe/STIM_017.jpg	99
2968.903	1.232	1232.4	observe	Run3	observe/STIM_018.jpg	99
2972.95	1.565	1564.6	observe	Run3	observe/STIM_018.jpg	99
2977.883	1.006	1005.7	observe	Run3	observe/STIM_018.jpg	99
2982.766	1.794	1793.8	observe	Run3	observe/STIM_018.jpg	100
2987.054	1.608	1607.9	observe	Run3	observe/STIM_019.jpg	100
2991.178	1.46	1460.4	observe	Run3	observe/STIM_019.jpg	99
2995.836	1.734	1733.7	observe	Run3	observe/STIM_019.jpg	100
2999.802	1.01	1010.4	observe	Run3	observe/STIM_019.jpg	100
