onset	duration	accuracy	trial_type	learning_stage	stimulus
0.0	4.266	correct	navigation	Trial1	navigation/STIM_000.jpg
7.131	5.446	correct	navigation	Trial1	navigation/STIM_000.jpg
16.546	4.343	incorrect	navigation	Trial1	navigation/STIM_000.jpg
23.139	3.659	correct	navigation	Trial1	navigation/STIM_000.jpg
30.564	4.257	correct	navigation	Trial1	navigation/STIM_000.jpg
37.472	4.629	correct	navigation	Trial1	navigation/STIM_000.jpg
45.714	2.653	correct	navigation	Trial1	navigation/STIM_001.jpg
51.756	3.081	correct	navigation	Trial1	navigation/STIM_001.jpg
57.274	5.483	incorrect	navigation	Trial1	navigation/STIM_001.jpg
66.506	3.448	correct	navigation	Trial1	navigation/STIM_001.jpg
72.132	4.471	correct	navigation	Trial1	navigation/STIM_001.jpg
79.862	2.641	correct	navigation	Trial1	navigation/STIM_001.jpg
85.858	4.384	correct	navigation	Trial1	navigation/STIM_002.jpg
94.142	4.58	correct	navigation	Trial1	navigation/STIM_002.jpg
102.618	5.03	correct	navigation	Trial1	navigation/STIM_002.jpg
110.557	2.898	incorrect	navigation	Trial1	navigation/STIM_002.jpg
116.566	2.269	incorrect	navigation	Trial1	navigation/STIM_002.jpg
122.533	3.083	correct	navigation	Trial1	navigation/STIM_002.jpg
128.66	5.902	correct	navigation	Trial1	navigation/STIM_003.jpg
136.871	3.76	incorrect	navigation	Trial1	navigation/STIM_003.jpg
144.61	3.734	correct	navigation	Trial1	navigation/STIM_003.jpg
152.199	4.164	correct	navigation	Trial1	navigation/STIM_003.jpg
158.751	2.261	correct	navigation	Trial1	navigation/STIM_003.jpg
164.149	3.36	correct	navigation	Trial1	navigation/STIM_003.jpg
169.59	3.001	correct	navigation	Trial1	navigation/STIM_004.jpg
175.321	5.846	correct	navigation	Trial1	navigation/STIM_004.jpg
183.655	5.377	correct	navigation	Trial1	navigation/STIM_004.jpg
192.513	3.69	correct	navigation	Trial1	navigation/STIM_004.jpg
198.24	2.462	correct	navigation	Trial1	navigation/STIM_004.jpg
204.399	4.512	correct	navigation	Trial1	navigation/STIM_004.jpg
212.159	4.598	correct	navigation	Trial1	navigation/STIM_005.jpg
219.009	2.978	correct	navigation	Trial1	navigation/STIM_005.jpg
225.043	4.732	correct	navigation	Trial1	navigation/STIM_005.jpg
231.819	4.587	correct	navigation	Trial1	navigation/STIM_005.jpg
239.557	4.436	correct	navigation	Trial1	navigation/STIM_005.jpg
246.025	3.012	correct	navigation	Trial1	navigation/STIM_005.jpg
251.914	6.067	incorrect	navigation	Trial1	navigation/STIM_006.jpg
261.752	5.213	correct	navigation	Trial1	navigation/STIM_006.jpg
270.252	3.208	correct	navigation	Trial1	navigation/STIM_006.jpg
276.733	2.951	correct	navigation	Trial1	navigation/STIM_006.jpg
283.46	3.815	correct	navigation	Trial1	navigation/STIM_006.jpg
289.301	4.434	correct	navigation	Trial1	navigation/STIM_006.jpg
295.928	4.973	correct	navigation	Trial1	navigation/STIM_007.jpg
303.757	3.689	incorrect	navigation	Trial1	navigation/STIM_007.jpg
309.955	5.299	correct	navigation	Trial1	navigation/STIM_007.jpg
317.818	4.872	correct	navigation	Trial1	navigation/STIM_007.jpg
325.417	4.42	correct	navigation	Trial1	navigation/STIM_007.jpg
333.175	3.161	correct	navigation	Trial1	navigation/STIM_007.jpg
339.298	6.027	correct	navigation	Trial1	navigation/STIM_008.jpg
349.263	3.804	correct	navigation	Trial1	navigation/STIM_008.jpg
356.035	2.688	correct	navigation	Trial1	navigation/STIM_008.jpg
361.305	5.266	incorrect	navigation	Trial1	navigation/STIM_008.jpg
369.349	4.902	correct	navigation	Trial1	navigation/STIM_008.jpg
376.949	2.515	correct	navigation	Trial1	navigation/STIM_008.jpg
382.616	3.729	correct	navigation	Trial1	navigation/STIM_009.jpg
389.19	5.326	correct	navigation	Trial1	navigation/STIM_009.jpg
397.052	3.885	correct	navigation	Trial1	navigation/STIM_009.jpg
404.778	3.763	correct	navigation	Trial1	navigation/STIM_009.jpg
411.08	3.993	correct	navigation	Trial1	navigation/STIM_009.jpg
418.867	3.644	incorrect	navigation	Trial1	navigation/STIM_009.jpg
424.601	4.358	correct	navigation	Trial1	navigation/STIM_010.jpg
431.498	2.422	correct	navigation	Trial1	navigation/STIM_010.jpg
437.295	3.899	correct	navigation	Trial1	navigation/STIM_010.jpg
444.768	4.184	correct	navigation	Trial1	navigation/STIM_010.jpg
451.414	3.842	correct	navigation	Trial1	navigation/STIM_010.jpg
457.805	2.949	correct	navigation	Trial1	navigation/STIM_010.jpg
463.433	3.988	incorrect	navigation	Trial1	navigation/STIM_011.jpg
470.724	3.793	correct	navigation	Trial1	navigation/STIM_011.jpg
478.25	4.876	correct	navigation	Trial1	navigation/STIM_011.jpg
486.57	3.115	correct	navigation	Trial1	navigation/STIM_011.jpg
493.224	2.602	correct	navigation	Trial1	navigation/STIM_011.jpg
497.847	2.256	incorrect	navigation	Trial1	navigation/STIM_011.jpg
503.425	1.05	correct	pointing	Trial1	pointing/STIM_000.jpg
507.356	1.202	correct	pointing	Trial1	pointing/STIM_000.jpg
511.283	1.723	correct	pointing	Trial1	pointing/STIM_000.jpg
516.914	1.683	correct	pointing	Trial1	pointing/STIM_000.jpg
521.994	1.269	correct	pointing	Trial1	pointing/STIM_000.jpg
526.169	1.873	correct	pointing	Trial1	pointing/STIM_000.jpg
531.478	1.802	correct	pointing	Trial1	pointing/STIM_001.jpg
537.213	1.573	correct	pointing	Trial1	pointing/STIM_001.jpg
541.15	1.056	correct	pointing	Trial1	pointing/STIM_001.jpg
544.428	1.067	correct	pointing	Trial1	pointing/STIM_001.jpg
547.662	1.892	correct	pointing	Trial1	pointing/STIM_001.jpg
552.219	1.556	correct	pointing	Trial1	pointing/STIM_001.jpg
557.156	1.901	correct	pointing	Trial1	pointing/STIM_002.jpg
562.011	1.777	correct	pointing	Trial1	pointing/STIM_002.jpg
565.813	1.654	correct	pointing	Trial1	pointing/STIM_002.jpg
569.545	1.033	correct	pointing	Trial1	pointing/STIM_002.jpg
573.797	1.364	correct	pointing	Trial1	pointing/STIM_002.jpg
577.324	1.324	correct	pointing	Trial1	pointing/STIM_002.jpg
582.21	1.474	correct	pointing	Trial1	pointing/STIM_003.jpg
587.576	1.142	correct	pointing	Trial1	pointing/STIM_003.jpg
590.748	1.892	correct	pointing	Trial1	pointing/STIM_003.jpg
595.474	1.22	correct	pointing	Trial1	pointing/STIM_003.jpg
599.097	1.332	correct	pointing	Trial1	pointing/STIM_003.jpg
604.057	1.468	correct	pointing	Trial1	pointing/STIM_003.jpg
608.772	1.712	correct	pointing	Trial1	pointing/STIM_004.jpg
614.389	1.342	correct	pointing	Trial1	pointing/STIM_004.jpg
619.371	1.176	correct	pointing	Trial1	pointing/STIM_004.jpg
622.581	1.148	correct	pointing	Trial1	pointing/STIM_004.jpg
627.218	1.626	correct	pointing	Trial1	pointing/STIM_004.jpg
631.528	1.551	correct	pointing	Trial1	pointing/STIM_004.jpg
635.322	1.496	correct	pointing	Trial1	pointing/STIM_005.jpg
639.69	1.703	correct	pointing	Trial1	pointing/STIM_005.jpg
644.605	1.779	correct	pointing	Trial1	pointing/STIM_005.jpg
649.413	1.069	correct	pointing	Trial1	pointing/STIM_005.jpg
654.197	1.473	correct	pointing	Trial1	pointing/STIM_005.jpg
659.46	1.653	correct	pointing	Trial1	pointing/STIM_005.jpg
664.235	1.057	correct	pointing	Trial1	pointing/STIM_006.jpg
667.721	1.026	correct	pointing	Trial1	pointing/STIM_006.jpg
671.771	1.352	correct	pointing	Trial1	pointing/STIM_006.jpg
677.072	1.278	correct	pointing	Trial1	pointing/STIM_006.jpg
682.336	1.386	correct	pointing	Trial1	pointing/STIM_006.jpg
687.497	1.616	correct	pointing	Trial1	pointing/STIM_006.jpg
691.635	1.498	correct	pointing	Trial1	pointing/STIM_007.jpg
697.109	1.729	correct	pointing	Trial1	pointing/STIM_007.jpg
700.885	1.59	correct	pointing	Trial1	pointing/STIM_007.jpg
705.511	1.806	correct	pointing	Trial1	pointing/STIM_007.jpg
710.866	1.478	correct	pointing	Trial1	pointing/STIM_007.jpg
715.062	1.642	correct	pointing	Trial1	pointing/STIM_007.jpg
719.13	1.452	correct	pointing	Trial1	pointing/STIM_008.jpg
724.277	1.713	correct	pointing	Trial1	pointing/STIM_008.jpg
729.925	1.073	correct	pointing	Trial1	pointing/STIM_008.jpg
734.214	1.101	correct	pointing	Trial1	pointing/STIM_008.jpg
738.226	1.039	correct	pointing	Trial1	pointing/STIM_008.jpg
741.546	1.306	correct	pointing	Trial1	pointing/STIM_008.jpg
746.419	1.32	correct	pointing	Trial1	pointing/STIM_009.jpg
749.858	1.238	correct	pointing	Trial1	pointing/STIM_009.jpg
755.033	1.677	correct	pointing	Trial1	pointing/STIM_009.jpg
759.866	1.552	correct	pointing	Trial1	pointing/STIM_009.jpg
764.853	1.156	correct	pointing	Trial1	pointing/STIM_009.jpg
769.717	1.858	correct	pointing	Trial1	pointing/STIM_009.jpg
773.894	1.792	correct	pointing	Trial1	pointing/STIM_010.jpg
778.261	1.857	correct	pointing	Trial1	pointing/STIM_010.jpg
783.5	1.183	correct	pointing	Trial1	pointing/STIM_010.jpg
787.335	1.573	correct	pointing	Trial1	pointing/STIM_010.jpg
791.917	1.11	correct	pointing	Trial1	pointing/STIM_010.jpg
795.133	1.874	correct	pointing	Trial1	pointing/STIM_010.jpg
800.861	1.28	correct	pointing	Trial1	pointing/STIM_011.jpg
805.852	1.46	correct	pointing	Trial1	pointing/STIM_011.jpg
809.685	1.213	correct	pointing	Trial1	pointing/STIM_011.jpg
814.295	1.331	correct	pointing	Trial1	pointing/STIM_011.jpg
818.898	1.411	correct	pointing	Trial1	pointing/STIM_011.jpg
823.218	1.115	correct	pointing	Trial1	pointing/STIM_011.jpg
827.372	3.274	correct	navigation	Trial2	navigation/STIM_000.jpg
834.472	4.229	correct	navigation	Trial2	navigation/STIM_000.jpg
841.204	2.463	incorrect	navigation	Trial2	navigation/STIM_000.jpg
846.212	4.442	correct	navigation	Trial2	navigation/STIM_000.jpg
852.958	2.491	correct	navigation	Trial2	navigation/STIM_000.jpg
859.106	3.757	correct	navigation	Trial2	navigation/STIM_000.jpg
866.008	2.932	correct	navigation	Trial2	navigation/STIM_001.jpg
872.923	4.939	correct	navigation	Trial2	navigation/STIM_001.jpg
880.468	4.332	correct	navigation	Trial2	navigation/STIM_001.jpg
888.562	2.403	correct	navigation	Trial2	navigation/STIM_001.jpg
894.032	3.139	correct	navigation	Trial2	navigation/STIM_001.jpg
900.823	3.992	correct	navigation	Trial2	navigation/STIM_001.jpg
908.413	5.272	correct	navigation	Trial2	navigation/STIM_002.jpg
916.682	2.889	correct	navigation	Trial2	navigation/STIM_002.jpg
922.972	3.7	correct	navigation	Trial2	navigation/STIM_002.jpg
930.572	1.938	correct	navigation	Trial2	navigation/STIM_002.jpg
934.752	2.361	correct	navigation	Trial2	navigation/STIM_002.jpg
939.147	2.216	correct	navigation	Trial2	navigation/STIM_002.jpg
944.84	4.874	correct	navigation	Trial2	navigation/STIM_003.jpg
952.944	2.121	correct	navigation	Trial2	navigation/STIM_003.jpg
958.983	3.315	correct	navigation	Trial2	navigation/STIM_003.jpg
966.289	2.867	correct	navigation	Trial2	navigation/STIM_003.jpg
971.807	2.311	correct	navigation	Trial2	navigation/STIM_003.jpg
977.142	4.079	correct	navigation	Trial2	navigation/STIM_003.jpg
983.498	3.771	correct	navigation	Trial2	navigation/STIM_004.jpg
989.528	3.55	correct	navigation	Trial2	navigation/STIM_004.jpg
996.079	4.403	correct	navigation	Trial2	navigation/STIM_004.jpg
1003.185	3.74	correct	navigation	Trial2	navigation/STIM_004.jpg
1010.781	1.835	correct	navigation	Trial2	navigation/STIM_004.jpg
1015.91	2.357	correct	navigation	Trial2	navigation/STIM_004.jpg
1021.72	4.589	correct	navigation	Trial2	navigation/STIM_005.jpg
1028.51	3.03	correct	navigation	Trial2	navigation/STIM_005.jpg
1035.398	3.132	correct	navigation	Trial2	navigation/STIM_005.jpg
1041.576	3.625	incorrect	navigation	Trial2	navigation/STIM_005.jpg
1049.108	2.209	correct	navigation	Trial2	navigation/STIM_005.jpg
1053.593	4.333	correct	navigation	Trial2	navigation/STIM_005.jpg
1061.308	4.121	correct	navigation	Trial2	navigation/STIM_006.jpg
1067.744	4.554	correct	navigation	Trial2	navigation/STIM_006.jpg
1074.564	3.033	correct	navigation	Trial2	navigation/STIM_006.jpg
1080.676	2.753	correct	navigation	Trial2	navigation/STIM_006.jpg
1086.443	4.018	correct	navigation	Trial2	navigation/STIM_006.jpg
1092.97	3.878	correct	navigation	Trial2	navigation/STIM_006.jpg
1099.939	5.281	correct	navigation	Trial2	navigation/STIM_007.jpg
1107.604	4.298	correct	navigation	Trial2	navigation/STIM_007.jpg
1114.005	4.627	correct	navigation	Trial2	navigation/STIM_007.jpg
1122.571	3.705	correct	navigation	Trial2	navigation/STIM_007.jpg
1128.921	3.829	correct	navigation	Trial2	navigation/STIM_007.jpg
1135.307	3.01	correct	navigation	Trial2	navigation/STIM_007.jpg
1140.614	2.932	correct	navigation	Trial2	navigation/STIM_008.jpg
1145.753	2.745	incorrect	navigation	Trial2	navigation/STIM_008.jpg
1150.647	3.112	correct	navigation	Trial2	navigation/STIM_008.jpg
1156.988	3.413	correct	navigation	Trial2	navigation/STIM_008.jpg
1163.936	2.035	correct	navigation	Trial2	navigation/STIM_008.jpg
1168.146	3.953	correct	navigation	Trial2	navigation/STIM_008.jpg
1175.104	4.699	correct	navigation	Trial2	navigation/STIM_009.jpg
1182.024	3.136	correct	navigation	Trial2	navigation/STIM_009.jpg
1188.553	3.558	correct	navigation	Trial2	navigation/STIM_009.jpg
1194.29	3.744	correct	navigation	Trial2	navigation/STIM_009.jpg
1200.874	2.529	correct	navigation	Trial2	navigation/STIM_009.jpg
1207.079	2.154	correct	navigation	Trial2	navigation/STIM_009.jpg
1213.212	4.029	correct	navigation	Trial2	navigation/STIM_010.jpg
1219.797	4.435	correct	navigation	Trial2	navigation/STIM_010.jpg
1227.161	4.632	correct	navigation	Trial2	navigation/STIM_010.jpg
1235.648	3.451	correct	navigation	Trial2	navigation/STIM_010.jpg
1242.664	3.164	correct	navigation	Trial2	navigation/STIM_010.jpg
1249.554	3.898	correct	navigation	Trial2	navigation/STIM_010.jpg
1255.83	4.934	correct	navigation	Trial2	navigation/STIM_011.jpg
1264.046	2.513	correct	navigation	Trial2	navigation/STIM_011.jpg
1268.767	3.242	correct	navigation	Trial2	navigation/STIM_011.jpg
1275.936	3.653	correct	navigation	Trial2	navigation/STIM_011.jpg
1283.425	4.39	correct	navigation	Trial2	navigation/STIM_011.jpg
1291.035	4.164	correct	navigation	Trial2	navigation/STIM_011.jpg
1297.578	1.073	correct	pointing	Trial2	pointing/STIM_000.jpg
1301.249	1.386	correct	pointing	Trial2	pointing/STIM_000.jpg
1306.617	1.892	correct	pointing	Trial2	pointing/STIM_000.jpg
1310.513	1.83	correct	pointing	Trial2	pointing/STIM_000.jpg
1315.508	1.373	correct	pointing	Trial2	pointing/STIM_000.jpg
1319.973	1.631	correct	pointing	Trial2	pointing/STIM_000.jpg
1323.717	1.261	correct	pointing	Trial2	pointing/STIM_001.jpg
1328.853	1.54	correct	pointing	Trial2	pointing/STIM_001.jpg
1332.5	1.524	correct	pointing	Trial2	pointing/STIM_001.jpg
1336.037	1.331	correct	pointing	Trial2	pointing/STIM_001.jpg
1339.843	1.687	correct	pointing	Trial2	pointing/STIM_001.jpg
1345.049	1.784	correct	pointing	Trial2	pointing/STIM_001.jpg
1350.0	1.681	correct	pointing	Trial2	pointing/STIM_002.jpg
1355.471	1.108	correct	pointing	Trial2	pointing/STIM_002.jpg
1359.908	1.049	correct	pointing	Trial2	pointing/STIM_002.jpg
1364.653	1.688	correct	pointing	Trial2	pointing/STIM_002.jpg
1369.998	1.814	correct	pointing	Trial2	pointing/STIM_002.jpg
1375.311	1.623	correct	pointing	Trial2	pointing/STIM_002.jpg
1380.526	1.693	correct	pointing	Trial2	pointing/STIM_003.jpg
1384.653	1.479	correct	pointing	Trial2	pointing/STIM_003.jpg
1388.462	1.651	correct	pointing	Trial2	pointing/STIM_003.jpg
1392.182	1.652	correct	pointing	Trial2	pointing/STIM_003.jpg
1396.815	1.544	correct	pointing	Trial2	pointing/STIM_003.jpg
1400.403	1.533	correct	pointing	Trial2	pointing/STIM_003.jpg
1405.374	1.398	correct	pointing	Trial2	pointing/STIM_004.jpg
1410.133	1.71	correct	pointing	Trial2	pointing/STIM_004.jpg
1415.105	1.856	correct	pointing	Trial2	pointing/STIM_004.jpg
1419.824	1.553	correct	pointing	Trial2	pointing/STIM_004.jpg
1425.203	1.738	correct	pointing	Trial2	pointing/STIM_004.jpg
1429.733	1.552	correct	pointing	Trial2	pointing/STIM_004.jpg
1434.928	1.221	correct	pointing	Trial2	pointing/STIM_005.jpg
1438.755	1.838	correct	pointing	Trial2	pointing/STIM_005.jpg
1443.312	1.539	correct	pointing	Trial2	pointing/STIM_005.jpg
1447.552	1.524	correct	pointing	Trial2	pointing/STIM_005.jpg
1452.542	1.087	correct	pointing	Trial2	pointing/STIM_005.jpg
1456.85	1.884	correct	pointing	Trial2	pointing/STIM_005.jpg
1460.785	1.548	correct	pointing	Trial2	pointing/STIM_006.jpg
1464.858	1.809	correct	pointing	Trial2	pointing/STIM_006.jpg
1469.482	1.615	correct	pointing	Trial2	pointing/STIM_006.jpg
1473.663	1.127	correct	pointing	Trial2	pointing/STIM_006.jpg
1478.321	1.354	correct	pointing	Trial2	pointing/STIM_006.jpg
1482.078	1.05	correct	pointing	Trial2	pointing/STIM_006.jpg
1486.062	1.778	correct	pointing	Trial2	pointing/STIM_007.jpg
1490.927	1.504	correct	pointing	Trial2	pointing/STIM_007.jpg
1495.928	1.455	correct	pointing	Trial2	pointing/STIM_007.jpg
1499.971	1.275	correct	pointing	Trial2	pointing/STIM_007.jpg
1503.979	1.709	correct	pointing	Trial2	pointing/STIM_007.jpg
1509.471	1.457	correct	pointing	Trial2	pointing/STIM_007.jpg
1514.023	1.787	correct	pointing	Trial2	pointing/STIM_008.jpg
1519.203	1.512	correct	pointing	Trial2	pointing/STIM_008.jpg
1522.765	1.276	correct	pointing	Trial2	pointing/STIM_008.jpg
1527.608	1.064	correct	pointing	Trial2	pointing/STIM_008.jpg
1530.961	1.042	correct	pointing	Trial2	pointing/STIM_008.jpg
1535.133	1.908	correct	pointing	Trial2	pointing/STIM_008.jpg
1539.967	1.862	correct	pointing	Trial2	pointing/STIM_009.jpg
1544.405	1.056	correct	pointing	Trial2	pointing/STIM_009.jpg
1547.717	1.838	correct	pointing	Trial2	pointing/STIM_009.jpg
1553.358	1.808	correct	pointing	Trial2	pointing/STIM_009.jpg
1557.733	1.63	correct	pointing	Trial2	pointing/STIM_009.jpg
1562.579	1.803	correct	pointing	Trial2	pointing/STIM_009.jpg
1566.699	1.246	correct	pointing	Trial2	pointing/STIM_010.jpg
1569.97	1.835	correct	pointing	Trial2	pointing/STIM_010.jpg
1575.343	1.599	correct	pointing	Trial2	pointing/STIM_010.jpg
1580.757	1.191	correct	pointing	Trial2	pointing/STIM_010.jpg
1585.297	1.368	correct	pointing	Trial2	pointing/STIM_010.jpg
1590.18	1.908	correct	pointing	Trial2	pointing/STIM_010.jpg
1594.847	1.571	correct	pointing	Trial2	pointing/STIM_011.jpg
1599.763	1.63	correct	pointing	Trial2	pointing/STIM_011.jpg
1604.806	1.35	correct	pointing	Trial2	pointing/STIM_011.jpg
1608.65	1.14	correct	pointing	Trial2	pointing/STIM_011.jpg
1612.858	1.569	correct	pointing	Trial2	pointing/STIM_011.jpg
1617.127	1.82	correct	pointing	Trial2	pointing/STIM_011.jpg
1621.078	2.306	correct	navigation	Trial3	navigation/STIM_000.jpg
1626.334	3.427	correct	navigation	Trial3	navigation/STIM_000.jpg
1631.816	4.438	correct	navigation	Trial3	navigation/STIM_000.jpg
1638.637	1.858	correct	navigation	Trial3	navigation/STIM_000.jpg
1643.21	3.24	correct	navigation	Trial3	navigation/STIM_000.jpg
1650.076	3.516	correct	navigation	Trial3	navigation/STIM_000.jpg
1657.356	3.891	correct	navigation	Trial3	navigation/STIM_001.jpg
1663.956	4.093	correct	navigation	Trial3	navigation/STIM_001.jpg
1670.177	2.411	correct	navigation	Trial3	navigation/STIM_001.jpg
1675.334	4.072	correct	navigation	Trial3	navigation/STIM_001.jpg
1682.981	1.976	correct	navigation	Trial3	navigation/STIM_001.jpg
1688.764	4.182	correct	navigation	Trial3	navigation/STIM_001.jpg
1696.912	2.222	correct	navigation	Trial3	navigation/STIM_002.jpg
1702.327	2.722	correct	navigation	Trial3	navigation/STIM_002.jpg
1708.653	2.992	correct	navigation	Trial3	navigation/STIM_002.jpg
1715.631	3.734	correct	navigation	Trial3	navigation/STIM_002.jpg
1721.694	3.865	correct	navigation	Trial3	navigation/STIM_002.jpg
1728.436	2.506	correct	navigation	Trial3	navigation/STIM_002.jpg
1734.295	4.132	correct	navigation	Trial3	navigation/STIM_003.jpg
1742.231	3.172	correct	navigation	Trial3	navigation/STIM_003.jpg
1749.348	3.967	correct	navigation	Trial3	navigation/STIM_003.jpg
1756.046	2.439	correct	navigation	Trial3	navigation/STIM_003.jpg
1761.129	3.357	incorrect	navigation	Trial3	navigation/STIM_003.jpg
1768.113	4.167	correct	navigation	Trial3	navigation/STIM_003.jpg
1775.817	4.008	correct	navigation	Trial3	navigation/STIM_004.jpg
1782.062	2.077	correct	navigation	Trial3	navigation/STIM_004.jpg
1787.429	3.897	correct	navigation	Trial3	navigation/STIM_004.jpg
1794.66	4.174	correct	navigation	Trial3	navigation/STIM_004.jpg
1801.335	2.631	correct	navigation	Trial3	navigation/STIM_004.jpg
1806.233	1.925	correct	navigation	Trial3	navigation/STIM_004.jpg
1812.057	4.208	correct	navigation	Trial3	navigation/STIM_005.jpg
1819.014	3.434	correct	navigation	Trial3	navigation/STIM_005.jpg
1824.913	4.039	correct	navigation	Trial3	navigation/STIM_005.jpg
1832.165	3.099	correct	navigation	Trial3	navigation/STIM_005.jpg
1837.304	3.801	correct	navigation	Trial3	navigation/STIM_005.jpg
1843.714	3.519	correct	navigation	Trial3	navigation/STIM_005.jpg
1849.65	4.403	correct	navigation	Trial3	navigation/STIM_006.jpg
1857.03	1.811	correct	navigation	Trial3	navigation/STIM_006.jpg
1862.435	3.19	correct	navigation	Trial3	navigation/STIM_006.jpg
1869.484	3.073	correct	navigation	Trial3	navigation/STIM_006.jpg
1875.804	2.319	correct	navigation	Trial3	navigation/STIM_006.jpg
1881.858	1.869	correct	navigation	Trial3	navigation/STIM_006.jpg
1885.79	3.477	correct	navigation	Trial3	navigation/STIM_007.jpg
1892.812	2.762	correct	navigation	Trial3	navigation/STIM_007.jpg
1898.38	3.482	correct	navigation	Trial3	navigation/STIM_007.jpg
1905.631	2.909	correct	navigation	Trial3	navigation/STIM_007.jpg
1912.471	2.89	correct	navigation	Trial3	navigation/STIM_007.jpg
1918.632	4.198	correct	navigation	Trial3	navigation/STIM_007.jpg
1925.345	3.449	correct	navigation	Trial3	navigation/STIM_008.jpg
1931.101	1.877	correct	navigation	Trial3	navigation/STIM_008.jpg
1935.731	3.578	correct	navigation	Trial3	navigation/STIM_008.jpg
1942.875	4.292	correct	navigation	Trial3	navigation/STIM_008.jpg
1951.119	4.028	correct	navigation	Trial3	navigation/STIM_008.jpg
1958.405	4.29	correct	navigation	Trial3	navigation/STIM_008.jpg
1965.331	3.176	correct	navigation	Trial3	navigation/STIM_009.jpg
1971.043	3.482	correct	navigation	Trial3	navigation/STIM_009.jpg
1977.379	2.609	correct	navigation	Trial3	navigation/STIM_009.jpg
1983.175	2.069	correct	navigation	Trial3	navigation/STIM_009.jpg
1988.726	2.848	correct	navigation	Trial3	navigation/STIM_009.jpg
1995.139	2.973	correct	navigation	Trial3	navigation/STIM_009.jpg
2002.045	3.667	correct	navigation	Trial3	navigation/STIM_010.jpg
2008.592	1.825	correct	navigation	Trial3	navigation/STIM_010.jpg
2013.239	3.032	correct	navigation	Trial3	navigation/STIM_010.jpg
2019.689	3.967	correct	navigation	Trial3	navigation/STIM_010.jpg
2026.398	3.474	correct	navigation	Trial3	navigation/STIM_010.jpg
2033.034	3.614	correct	navigation	Trial3	navigation/STIM_010.jpg
2039.281	2.553	correct	navigation	Trial3	navigation/STIM_011.jpg
2045.654	2.934	correct	navigation	Trial3	navigation/STIM_011.jpg
2051.828	4.066	correct	navigation	Trial3	navigation/STIM_011.jpg
2058.292	3.586	correct	navigation	Trial3	navigation/STIM_011.jpg
2065.643	3.26	correct	navigation	Trial3	navigation/STIM_011.jpg
2071.194	2.094	correct	navigation	Trial3	navigation/STIM_011.jpg
2075.295	1.555	correct	pointing	Trial3	pointing/STIM_000.jpg
2078.946	1.296	correct	pointing	Trial3	pointing/STIM_000.jpg
2083.893	1.112	correct	pointing	Trial3	pointing/STIM_000.jpg
2087.962	1.548	correct	pointing	Trial3	pointing/STIM_000.jpg
2093.304	1.034	correct	pointing	Trial3	pointing/STIM_000.jpg
2097.402	1.866	correct	pointing	Trial3	pointing/STIM_000.jpg
2102.192	1.162	correct	pointing	Trial3	pointing/STIM_001.jpg
2105.867	1.575	correct	pointing	Trial3	pointing/STIM_001.jpg
2109.749	1.323	correct	pointing	Trial3	pointing/STIM_001.jpg
2114.097	1.894	correct	pointing	Trial3	pointing/STIM_001.jpg
2119.085	1.34	correct	pointing	Trial3	pointing/STIM_001.jpg
2123.393	1.89	correct	pointing	Trial3	pointing/STIM_001.jpg
2129.262	1.063	correct	pointing	Trial3	pointing/STIM_002.jpg
2132.605	1.566	correct	pointing	Trial3	pointing/STIM_002.jpg
2137.708	1.108	correct	pointing	Trial3	pointing/STIM_002.jpg
2142.328	1.201	correct	pointing	Trial3	pointing/STIM_002.jpg
2146.213	1.534	correct	pointing	Trial3	pointing/STIM_002.jpg
2151.52	1.441	correct	pointing	Trial3	pointing/STIM_002.jpg
2155.372	1.877	correct	pointing	Trial3	pointing/STIM_003.jpg
2159.675	1.256	correct	pointing	Trial3	pointing/STIM_003.jpg
2164.757	1.3	correct	pointing	Trial3	pointing/STIM_003.jpg
2169.396	1.094	correct	pointing	Trial3	pointing/STIM_003.jpg
2174.056	1.716	correct	pointing	Trial3	pointing/STIM_003.jpg
2179.604	1.592	correct	pointing	Trial3	pointing/STIM_003.jpg
2185.054	1.902	correct	pointing	Trial3	pointing/STIM_004.jpg
2189.719	1.509	correct	pointing	Trial3	pointing/STIM_004.jpg
2195.174	1.694	correct	pointing	Trial3	pointing/STIM_004.jpg
2199.24	1.768	correct	pointing	Trial3	pointing/STIM_004.jpg
2203.915	1.311	correct	pointing	Trial3	pointing/STIM_004.jpg
2208.377	1.755	correct	pointing	Trial3	pointing/STIM_004.jpg
2212.637	1.88	correct	pointing	Trial3	pointing/STIM_005.jpg
2216.981	1.834	correct	pointing	Trial3	pointing/STIM_005.jpg
2221.13	1.545	correct	pointing	Trial3	pointing/STIM_005.jpg
2224.706	1.662	correct	pointing	Trial3	pointing/STIM_005.jpg
2228.821	1.201	correct	pointing	Trial3	pointing/STIM_005.jpg
2232.269	1.589	correct	pointing	Trial3	pointing/STIM_005.jpg
2235.926	1.418	correct	pointing	Trial3	pointing/STIM_006.jpg
2240.753	1.186	correct	pointing	Trial3	pointing/STIM_006.jpg
2244.502	1.728	correct	pointing	Trial3	pointing/STIM_006.jpg
2248.552	1.645	correct	pointing	Trial3	pointing/STIM_006.jpg
2253.716	1.61	correct	pointing	Trial3	pointing/STIM_006.jpg
2258.61	1.544	correct	pointing	Trial3	pointing/STIM_006.jpg
2262.232	1.829	correct	pointing	Trial3	pointing/STIM_007.jpg
2266.939	1.124	correct	pointing	Trial3	pointing/STIM_007.jpg
2271.592	1.656	correct	pointing	Trial3	pointing/STIM_007.jpg
2275.345	1.148	correct	pointing	Trial3	pointing/STIM_007.jpg
2280.466	1.782	correct	pointing	Trial3	pointing/STIM_007.jpg
2284.603	1.663	correct	pointing	Trial3	pointing/STIM_007.jpg
2289.171	1.592	correct	pointing	Trial3	pointing/STIM_008.jpg
2294.122	1.891	incorrect	pointing	Trial3	pointing/STIM_008.jpg
2298.804	1.378	correct	pointing	Trial3	pointing/STIM_008.jpg
2304.123	1.372	correct	pointing	Trial3	pointing/STIM_008.jpg
2309.042	1.144	correct	pointing	Trial3	pointing/STIM_008.jpg
2312.879	1.307	correct	pointing	Trial3	pointing/STIM_008.jpg
2317.403	1.189	correct	pointing	Trial3	pointing/STIM_009.jpg
2321.067	1.437	correct	pointing	Trial3	pointing/STIM_009.jpg
2326.13	1.886	correct	pointing	Trial3	pointing/STIM_009.jpg
2331.491	1.309	correct	pointing	Trial3	pointing/STIM_009.jpg
2336.322	1.258	correct	pointing	Trial3	pointing/STIM_009.jpg
2340.754	1.844	correct	pointing	Trial3	pointing/STIM_009.jpg
2344.63	1.787	correct	pointing	Trial3	pointing/STIM_010.jpg
2349.337	1.666	correct	pointing	Trial3	pointing/STIM_010.jpg
2354.561	1.628	correct	pointing	Trial3	pointing/STIM_010.jpg
2359.108	1.716	correct	pointing	Trial3	pointing/STIM_010.jpg
2362.89	1.197	correct	pointing	Trial3	pointing/STIM_010.jpg
2367.733	1.089	correct	pointing	Trial3	pointing/STIM_010.jpg
2371.878	1.151	correct	pointing	Trial3	pointing/STIM_011.jpg
2376.876	1.246	correct	pointing	Trial3	pointing/STIM_011.jpg
2380.838	1.356	correct	pointing	Trial3	pointing/STIM_011.jpg
2384.388	1.582	correct	pointing	Trial3	pointing/STIM_011.jpg
2389.645	1.779	correct	pointing	Trial3	pointing/STIM_011.jpg
2393.716	1.815	correct	pointing	Trial3	pointing/STIM_011.jpg
