onset	duration	accuracy	trial_type	learning_stage	stimulus
0.0	0.843	correct	study	Phase1	study/STIM_000.jpg
4.034	1.458	incorrect	study	Phase1	study/STIM_000.jpg
8.335	1.034	correct	study	Phase1	study/STIM_000.jpg
11.722	1.19	incorrect	study	Phase1	study/STIM_001.jpg
16.402	1.177	correct	study	Phase1	study/STIM_001.jpg
19.903	1.234	correct	study	Phase1	study/STIM_001.jpg
23.442	1.601	incorrect	study	Phase1	study/STIM_002.jpg
28.627	1.478	correct	study	Phase1	study/STIM_002.jpg
32.606	0.746	correct	study	Phase1	study/STIM_002.jpg
35.637	1.275	correct	study	Phase1	study/STIM_003.jpg
40.148	1.524	correct	study	Phase1	study/STIM_003.jpg
45.085	0.868	correct	study	Phase1	study/STIM_003.jpg
49.135	1.001	correct	study	Phase1	study/STIM_004.jpg
54.134	1.081	correct	study	Phase1	study/STIM_004.jpg
58.057	0.965	correct	study	Phase1	study/STIM_004.jpg
62.617	1.314	incorrect	study	Phase1	study/STIM_005.jpg
67.019	1.013	incorrect	study	Phase1	study/STIM_005.jpg
70.756	1.211	correct	study	Phase1	study/STIM_005.jpg
75.23	0.888	correct	study	Phase1	study/STIM_006.jpg
78.728	1.447	correct	study	Phase1	study/STIM_006.jpg
84.334	1.003	incorrect	study	Phase1	study/STIM_006.jpg
88.589	1.153	correct	study	Phase1	study/STIM_007.jpg
92.04	1.096	correct	study	Phase1	study/STIM_007.jpg
95.913	1.188	correct	study	Phase1	study/STIM_007.jpg
100.048	1.064	incorrect	study	Phase1	study/STIM_008.jpg
104.813	1.317	correct	study	Phase1	study/STIM_008.jpg
109.994	0.875	correct	study	Phase1	study/STIM_008.jpg
113.873	0.989	correct	study	Phase1	study/STIM_009.jpg
117.005	1.366	incorrect	study	Phase1	study/STIM_009.jpg
121.896	1.076	correct	study	Phase1	study/STIM_009.jpg
126.483	1.172	correct	study	Phase1	study/STIM_010.jpg
130.933	0.714	correct	study	Phase1	study/STIM_010.jpg
134.86	1.095	correct	study	Phase1	study/STIM_010.jpg
138.362	1.273	incorrect	study	Phase1	study/STIM_011.jpg
142.021	0.587	correct	study	Phase1	study/STIM_011.jpg
146.268	0.885	incorrect	study	Phase1	study/STIM_011.jpg
150.005	1.386	correct	study	Phase1	study/STIM_012.jpg
153.95	0.743	correct	study	Phase1	study/STIM_012.jpg
158.196	1.275	correct	study	Phase1	study/STIM_012.jpg
161.646	0.777	correct	study	Phase1	study/STIM_013.jpg
165.119	1.321	correct	study	Phase1	study/STIM_013.jpg
169.373	0.738	correct	study	Phase1	study/STIM_013.jpg
173.509	1.384	correct	study	Phase1	study/STIM_014.jpg
178.144	0.627	incorrect	study	Phase1	study/STIM_014.jpg
182.541	0.882	correct	study	Phase1	study/STIM_014.jpg
186.728	1.186	correct	study	Phase1	study/STIM_015.jpg
191.734	1.206	correct	study	Phase1	study/STIM_015.jpg
195.795	1.266	correct	study	Phase1	study/STIM_015.jpg
200.094	1.004	correct	study	Phase1	study/STIM_016.jpg
204.552	1.44	correct	study	Phase1	study/STIM_016.jpg
208.451	0.717	correct	study	Phase1	study/STIM_016.jpg
212.64	0.948	correct	study	Phase1	study/STIM_017.jpg
217.449	1.264	correct	study	Phase1	study/STIM_017.jpg
221.518	1.234	correct	study	Phase1	study/STIM_017.jpg
226.601	1.24	incorrect	study	Phase1	study/STIM_018.jpg
231.442	0.818	correct	study	Phase1	study/STIM_018.jpg
236.34	1.363	correct	study	Phase1	study/STIM_018.jpg
240.233	0.759	correct	study	Phase1	study/STIM_019.jpg
244.801	0.849	correct	study	Phase1	study/STIM_019.jpg
249.445	1.188	correct	study	Phase1	study/STIM_019.jpg
254.005	1.087	incorrect	study	Phase1	study/STIM_020.jpg
258.443	1.154	correct	study	Phase1	study/STIM_020.jpg
263.13	1.098	correct	study	Phase1	study/STIM_020.jpg
267.459	0.707	correct	study	Phase1	study/STIM_021.jpg
271.721	1.371	correct	study	Phase1	study/STIM_021.jpg
276.226	1.231	incorrect	study	Phase1	study/STIM_021.jpg
280.776	1.292	correct	study	Phase1	study/STIM_022.jpg
284.685	0.969	correct	study	Phase1	study/STIM_022.jpg
288.891	0.602	correct	study	Phase1	study/STIM_022.jpg
291.687	1.3	correct	study	Phase1	study/STIM_023.jpg
297.149	0.981	correct	study	Phase1	study/STIM_023.jpg
300.556	0.864	correct	study	Phase1	study/STIM_023.jpg
305.544	1.011	correct	study	Phase1	study/STIM_024.jpg
310.156	1.388	correct	study	Phase1	study/STIM_024.jpg
314.541	0.853	correct	study	Phase1	study/STIM_024.jpg
317.639	1.247	correct	study	Phase1	study/STIM_025.jpg
322.647	0.753	correct	study	Phase1	study/STIM_025.jpg
326.457	1.055	correct	study	Phase1	study/STIM_025.jpg
330.915	1.147	correct	study	Phase1	study/STIM_026.jpg
335.484	1.192	correct	study	Phase1	study/STIM_026.jpg
339.426	1.239	correct	study	Phase1	study/STIM_026.jpg
343.043	0.748	correct	study	Phase1	study/STIM_027.jpg
347.471	1.291	correct	study	Phase1	study/STIM_027.jpg
351.938	1.005	incorrect	study	Phase1	study/STIM_027.jpg
355.71	0.985	incorrect	study	Phase1	study/STIM_028.jpg
359.386	1.162	correct	study	Phase1	study/STIM_028.jpg
364.711	1.395	correct	study	Phase1	study/STIM_028.jpg
369.113	1.242	correct	study	Phase1	study/STIM_029.jpg
372.786	1.033	correct	study	Phase1	study/STIM_029.jpg
376.703	1.152	correct	study	Phase1	study/STIM_029.jpg
380.306	0.778	correct	test	Phase1	test/STIM_000.jpg
383.212	0.538	incorrect	test	Phase1	test/STIM_000.jpg
386.376	0.872	correct	test	Phase1	test/STIM_000.jpg
391.22	0.673	correct	test	Phase1	test/STIM_001.jpg
395.747	1.014	correct	test	Phase1	test/STIM_001.jpg
400.541	0.766	correct	test	Phase1	test/STIM_001.jpg
403.729	0.637	correct	test	Phase1	test/STIM_002.jpg
407.378	0.73	incorrect	test	Phase1	test/STIM_002.jpg
411.815	0.682	incorrect	test	Phase1	test/STIM_002.jpg
414.797	0.984	correct	test	Phase1	test/STIM_003.jpg
419.836	0.482	correct	test	Phase1	test/STIM_003.jpg
423.049	0.685	incorrect	test	Phase1	test/STIM_003.jpg
427.644	0.555	correct	test	Phase1	test/STIM_004.jpg
431.938	0.81	correct	test	Phase1	test/STIM_004.jpg
434.984	0.846	correct	test	Phase1	test/STIM_004.jpg
438.05	1.022	correct	test	Phase1	test/STIM_005.jpg
442.349	0.762	correct	test	Phase1	test/STIM_005.jpg
447.037	0.622	correct	test	Phase1	test/STIM_005.jpg
451.579	0.82	correct	test	Phase1	test/STIM_006.jpg
454.676	0.708	correct	test	Phase1	test/STIM_006.jpg
459.03	1.17	correct	test	Phase1	test/STIM_006.jpg
463.626	0.727	correct	test	Phase1	test/STIM_007.jpg
467.292	1.091	correct	test	Phase1	test/STIM_007.jpg
471.272	0.63	correct	test	Phase1	test/STIM_007.jpg
474.402	0.728	correct	test	Phase1	test/STIM_008.jpg
478.3	0.786	correct	test	Phase1	test/STIM_008.jpg
482.987	0.918	correct	test	Phase1	test/STIM_008.jpg
487.509	0.896	correct	test	Phase1	test/STIM_009.jpg
491.406	0.884	correct	test	Phase1	test/STIM_009.jpg
496.236	1.046	correct	test	Phase1	test/STIM_009.jpg
500.356	0.712	correct	test	Phase1	test/STIM_010.jpg
504.335	0.648	incorrect	test	Phase1	test/STIM_010.jpg
508.591	0.758	incorrect	test	Phase1	test/STIM_010.jpg
513.085	0.614	correct	test	Phase1	test/STIM_011.jpg
516.156	0.725	correct	test	Phase1	test/STIM_011.jpg
520.026	0.711	correct	test	Phase1	test/STIM_011.jpg
524.528	1.073	correct	test	Phase1	test/STIM_012.jpg
528.64	1.119	incorrect	test	Phase1	test/STIM_012.jpg
531.984	0.573	correct	test	Phase1	test/STIM_012.jpg
536.448	0.834	correct	test	Phase1	test/STIM_013.jpg
539.636	0.93	correct	test	Phase1	test/STIM_013.jpg
543.457	0.847	correct	test	Phase1	test/STIM_013.jpg
547.007	0.808	correct	test	Phase1	test/STIM_014.jpg
551.559	0.867	correct	test	Phase1	test/STIM_014.jpg
556.159	0.689	correct	test	Phase1	test/STIM_014.jpg
560.103	0.624	correct	test	Phase1	test/STIM_015.jpg
564.4	0.69	correct	test	Phase1	test/STIM_015.jpg
569.034	0.764	incorrect	test	Phase1	test/STIM_015.jpg
572.109	0.71	correct	test	Phase1	test/STIM_016.jpg
576.638	0.878	correct	test	Phase1	test/STIM_016.jpg
580.577	0.87	incorrect	test	Phase1	test/STIM_016.jpg
585.373	0.986	correct	test	Phase1	test/STIM_017.jpg
590.469	0.737	incorrect	test	Phase1	test/STIM_017.jpg
594.698	0.899	correct	test	Phase1	test/STIM_017.jpg
599.506	0.728	correct	test	Phase1	test/STIM_018.jpg
602.43	0.788	correct	test	Phase1	test/STIM_018.jpg
606.861	1.073	correct	test	Phase1	test/STIM_018.jpg
611.547	0.654	correct	test	Phase1	test/STIM_019.jpg
615.916	0.793	correct	test	Phase1	test/STIM_019.jpg
619.523	0.837	correct	test	Phase1	test/STIM_019.jpg
623.372	0.693	correct	test	Phase1	test/STIM_020.jpg
627.879	0.723	correct	test	Phase1	test/STIM_020.jpg
632.137	1.044	correct	test	Phase1	test/STIM_020.jpg
635.795	0.594	correct	test	Phase1	test/STIM_021.jpg
639.395	0.98	correct	test	Phase1	test/STIM_021.jpg
643.761	0.695	incorrect	test	Phase1	test/STIM_021.jpg
647.551	1.085	correct	test	Phase1	test/STIM_022.jpg
651.089	0.904	correct	test	Phase1	test/STIM_022.jpg
655.535	0.515	correct	test	Phase1	test/STIM_022.jpg
659.895	0.638	correct	test	Phase1	test/STIM_023.jpg
663.212	0.817	correct	test	Phase1	test/STIM_023.jpg
667.288	0.668	correct	test	Phase1	test/STIM_023.jpg
670.168	0.678	correct	test	Phase1	test/STIM_024.jpg
674.857	1.018	correct	test	Phase1	test/STIM_024.jpg
679.644	0.895	correct	test	Phase1	test/STIM_024.jpg
684.524	0.908	correct	test	Phase1	test/STIM_025.jpg
687.815	0.801	correct	test	Phase1	test/STIM_025.jpg
692.457	0.881	correct	test	Phase1	test/STIM_025.jpg
697.394	0.544	correct	test	Phase1	test/STIM_026.jpg
700.155	0.892	correct	test	Phase1	test/STIM_026.jpg
703.833	0.97	correct	test	Phase1	test/STIM_026.jpg
708.856	0.936	correct	test	Phase1	test/STIM_027.jpg
712.019	1.067	correct	test	Phase1	test/STIM_027.jpg
715.903	0.967	correct	test	Phase1	test/STIM_027.jpg
720.829	0.513	correct	test	Phase1	test/STIM_028.jpg
724.589	0.546	correct	test	Phase1	test/STIM_028.jpg
727.281	0.8	correct	test	Phase1	test/STIM_028.jpg
731.406	0.718	correct	test	Phase1	test/STIM_029.jpg
735.701	0.512	correct	test	Phase1	test/STIM_029.jpg
740.039	0.888	correct	test	Phase1	test/STIM_029.jpg
744.891	0.667	correct	study	Phase2	study/STIM_000.jpg
748.208	1.085	correct	study	Phase2	study/STIM_000.jpg
752.649	1.104	correct	study	Phase2	study/STIM_000.jpg
757.038	0.654	correct	study	Phase2	study/STIM_001.jpg
760.97	0.534	correct	study	Phase2	study/STIM_001.jpg
765.522	0.92	correct	study	Phase2	study/STIM_001.jpg
770.381	1.008	correct	study	Phase2	study/STIM_002.jpg
774.408	0.77	correct	study	Phase2	study/STIM_002.jpg
778.85	1.03	correct	study	Phase2	study/STIM_002.jpg
782.788	1.036	correct	study	Phase2	study/STIM_003.jpg
787.167	0.974	incorrect	study	Phase2	study/STIM_003.jpg
791.394	0.573	correct	study	Phase2	study/STIM_003.jpg
795.048	0.962	correct	study	Phase2	study/STIM_004.jpg
799.483	1.048	correct	study	Phase2	study/STIM_004.jpg
803.986	0.515	correct	study	Phase2	study/STIM_004.jpg
807.363	0.967	correct	study	Phase2	study/STIM_005.jpg
810.725	0.706	correct	study	Phase2	study/STIM_005.jpg
814.249	0.813	correct	study	Phase2	study/STIM_005.jpg
818.432	0.75	correct	study	Phase2	study/STIM_006.jpg
822.384	0.636	correct	study	Phase2	study/STIM_006.jpg
825.466	0.518	correct	study	Phase2	study/STIM_006.jpg
828.772	1.252	correct	study	Phase2	study/STIM_007.jpg
833.159	0.786	correct	study	Phase2	study/STIM_007.jpg
836.828	0.591	correct	study	Phase2	study/STIM_007.jpg
839.721	0.847	incorrect	study	Phase2	study/STIM_008.jpg
844.443	0.901	correct	study	Phase2	study/STIM_008.jpg
849.463	0.498	correct	study	Phase2	study/STIM_008.jpg
852.951	0.871	correct	study	Phase2	study/STIM_009.jpg
857.805	1.074	correct	study	Phase2	study/STIM_009.jpg
861.635	1.035	correct	study	Phase2	study/STIM_009.jpg
866.495	0.51	correct	study	Phase2	study/STIM_010.jpg
869.279	0.718	correct	study	Phase2	study/STIM_010.jpg
873.332	1.035	correct	study	Phase2	study/STIM_010.jpg
877.215	0.972	correct	study	Phase2	study/STIM_011.jpg
880.525	0.827	correct	study	Phase2	study/STIM_011.jpg
883.642	0.61	correct	study	Phase2	study/STIM_011.jpg
888.186	1.045	correct	study	Phase2	study/STIM_012.jpg
892.158	0.864	incorrect	study	Phase2	study/STIM_012.jpg
896.545	1.048	correct	study	Phase2	study/STIM_012.jpg
901.577	1.181	correct	study	Phase2	study/STIM_013.jpg
906.678	0.577	correct	study	Phase2	study/STIM_013.jpg
909.655	0.506	correct	study	Phase2	study/STIM_013.jpg
912.854	0.916	correct	study	Phase2	study/STIM_014.jpg
916.034	0.724	correct	study	Phase2	study/STIM_014.jpg
919.459	1.058	correct	study	Phase2	study/STIM_014.jpg
924.297	1.191	correct	study	Phase2	study/STIM_015.jpg
928.912	0.725	correct	study	Phase2	study/STIM_015.jpg
933.35	0.811	correct	study	Phase2	study/STIM_015.jpg
937.93	1.124	correct	study	Phase2	study/STIM_016.jpg
942.201	0.836	correct	study	Phase2	study/STIM_016.jpg
945.838	0.836	correct	study	Phase2	study/STIM_016.jpg
950.266	0.861	correct	study	Phase2	study/STIM_017.jpg
954.125	0.587	correct	study	Phase2	study/STIM_017.jpg
957.571	0.58	incorrect	study	Phase2	study/STIM_017.jpg
961.578	0.998	correct	study	Phase2	study/STIM_018.jpg
964.943	0.794	correct	study	Phase2	study/STIM_018.jpg
969.265	0.871	incorrect	study	Phase2	study/STIM_018.jpg
972.755	1.267	correct	study	Phase2	study/STIM_019.jpg
977.652	0.682	correct	study	Phase2	study/STIM_019.jpg
980.459	0.779	correct	study	Phase2	study/STIM_019.jpg
984.207	0.618	correct	study	Phase2	study/STIM_020.jpg
987.696	0.715	correct	study	Phase2	study/STIM_020.jpg
991.976	0.778	correct	study	Phase2	study/STIM_020.jpg
996.72	0.627	correct	study	Phase2	study/STIM_021.jpg
1000.127	1.139	correct	study	Phase2	study/STIM_021.jpg
1005.131	1.198	correct	study	Phase2	study/STIM_021.jpg
1010.391	0.871	correct	study	Phase2	study/STIM_022.jpg
1014.083	0.887	correct	study	Phase2	study/STIM_022.jpg
1018.264	0.881	correct	study	Phase2	study/STIM_022.jpg
1022.937	0.843	incorrect	study	Phase2	study/STIM_023.jpg
1026.51	0.712	incorrect	study	Phase2	study/STIM_023.jpg
1029.991	0.704	correct	study	Phase2	study/STIM_023.jpg
1033.909	0.815	correct	study	Phase2	study/STIM_024.jpg
1037.163	0.806	incorrect	study	Phase2	study/STIM_024.jpg
1041.136	0.723	correct	study	Phase2	study/STIM_024.jpg
1045.798	1.057	incorrect	study	Phase2	study/STIM_025.jpg
1050.249	0.744	correct	study	Phase2	study/STIM_025.jpg
1053.129	0.783	correct	study	Phase2	study/STIM_025.jpg
1056.541	1.3	correct	study	Phase2	study/STIM_026.jpg
1061.485	0.804	correct	study	Phase2	study/STIM_026.jpg
1064.813	0.987	correct	study	Phase2	study/STIM_026.jpg
1069.594	0.777	correct	study	Phase2	study/STIM_027.jpg
1074.397	0.601	correct	study	Phase2	study/STIM_027.jpg
1079.118	0.773	correct	study	Phase2	study/STIM_027.jpg
1083.258	0.817	incorrect	study	Phase2	study/STIM_028.jpg
1086.663	1.079	correct	study	Phase2	study/STIM_028.jpg
1090.935	0.816	correct	study	Phase2	study/STIM_028.jpg
1095.635	1.177	correct	study	Phase2	study/STIM_029.jpg
1100.804	0.96	correct	study	Phase2	study/STIM_029.jpg
1105.968	0.609	correct	study	Phase2	study/STIM_029.jpg
1110.426	0.796	correct	test	Phase2	test/STIM_000.jpg
1115.12	0.411	correct	test	Phase2	test/STIM_000.jpg
1118.66	0.79	correct	test	Phase2	test/STIM_000.jpg
1123.47	0.496	correct	test	Phase2	test/STIM_001.jpg
1127.459	1.011	correct	test	Phase2	test/STIM_001.jpg
1130.834	0.67	correct	test	Phase2	test/STIM_001.jpg
1135.252	0.696	correct	test	Phase2	test/STIM_002.jpg
1139.962	0.523	correct	test	Phase2	test/STIM_002.jpg
1143.922	0.898	correct	test	Phase2	test/STIM_002.jpg
1147.131	0.989	correct	test	Phase2	test/STIM_003.jpg
1151.728	0.607	correct	test	Phase2	test/STIM_003.jpg
1155.966	0.929	correct	test	Phase2	test/STIM_003.jpg
1160.719	1.073	correct	test	Phase2	test/STIM_004.jpg
1164.723	0.453	incorrect	test	Phase2	test/STIM_004.jpg
1168.192	0.636	correct	test	Phase2	test/STIM_004.jpg
1171.06	0.978	correct	test	Phase2	test/STIM_005.jpg
1174.371	1.095	incorrect	test	Phase2	test/STIM_005.jpg
1178.238	0.554	correct	test	Phase2	test/STIM_005.jpg
1182.481	0.911	incorrect	test	Phase2	test/STIM_006.jpg
1185.722	0.723	incorrect	test	Phase2	test/STIM_006.jpg
1189.069	0.695	correct	test	Phase2	test/STIM_006.jpg
1193.724	0.677	correct	test	Phase2	test/STIM_007.jpg
1197.25	0.832	correct	test	Phase2	test/STIM_007.jpg
1201.465	1.074	correct	test	Phase2	test/STIM_007.jpg
1205.466	0.841	incorrect	test	Phase2	test/STIM_008.jpg
1210.297	0.788	correct	test	Phase2	test/STIM_008.jpg
1214.421	0.946	correct	test	Phase2	test/STIM_008.jpg
1218.823	0.628	correct	test	Phase2	test/STIM_009.jpg
1223.238	1.008	correct	test	Phase2	test/STIM_009.jpg
1227.441	0.56	correct	test	Phase2	test/STIM_009.jpg
1230.683	0.845	correct	test	Phase2	test/STIM_010.jpg
1233.899	0.921	incorrect	test	Phase2	test/STIM_010.jpg
1238.437	0.793	correct	test	Phase2	test/STIM_010.jpg
1242.281	0.53	correct	test	Phase2	test/STIM_011.jpg
1246.328	0.582	correct	test	Phase2	test/STIM_011.jpg
1248.98	0.663	correct	test	Phase2	test/STIM_011.jpg
1252.385	0.636	correct	test	Phase2	test/STIM_012.jpg
1255.597	0.977	incorrect	test	Phase2	test/STIM_012.jpg
1260.365	1.08	correct	test	Phase2	test/STIM_012.jpg
1265.409	0.726	correct	test	Phase2	test/STIM_013.jpg
1268.452	0.917	correct	test	Phase2	test/STIM_013.jpg
1272.308	0.893	correct	test	Phase2	test/STIM_013.jpg
1275.36	0.623	correct	test	Phase2	test/STIM_014.jpg
1279.409	1.081	correct	test	Phase2	test/STIM_014.jpg
1284.587	0.94	correct	test	Phase2	test/STIM_014.jpg
1287.889	1.056	correct	test	Phase2	test/STIM_015.jpg
1291.133	0.775	correct	test	Phase2	test/STIM_015.jpg
1294.986	0.812	correct	test	Phase2	test/STIM_015.jpg
1298.307	0.708	correct	test	Phase2	test/STIM_016.jpg
1301.269	0.924	correct	test	Phase2	test/STIM_016.jpg
1306.051	1.066	correct	test	Phase2	test/STIM_016.jpg
1310.561	0.836	correct	test	Phase2	test/STIM_017.jpg
1313.923	0.989	correct	test	Phase2	test/STIM_017.jpg
1317.588	0.562	correct	test	Phase2	test/STIM_017.jpg
1321.761	0.688	correct	test	Phase2	test/STIM_018.jpg
1325.372	0.854	correct	test	Phase2	test/STIM_018.jpg
1330.252	0.663	correct	test	Phase2	test/STIM_018.jpg
1333.169	0.627	correct	test	Phase2	test/STIM_019.jpg
1336.383	0.986	correct	test	Phase2	test/STIM_019.jpg
1340.326	0.744	correct	test	Phase2	test/STIM_019.jpg
1343.41	0.748	correct	test	Phase2	test/STIM_020.jpg
1347.109	0.844	correct	test	Phase2	test/STIM_020.jpg
1350.1	0.73	correct	test	Phase2	test/STIM_020.jpg
1354.063	0.919	correct	test	Phase2	test/STIM_021.jpg
1358.685	0.822	correct	test	Phase2	test/STIM_021.jpg
1363.778	0.576	correct	test	Phase2	test/STIM_021.jpg
1368.007	0.911	correct	test	Phase2	test/STIM_022.jpg
1371.703	0.582	correct	test	Phase2	test/STIM_022.jpg
1375.861	0.859	correct	test	Phase2	test/STIM_022.jpg
1379.567	0.535	incorrect	test	Phase2	test/STIM_023.jpg
1383.461	1.168	incorrect	test	Phase2	test/STIM_023.jpg
1386.79	0.999	correct	test	Phase2	test/STIM_023.jpg
1391.58	0.871	correct	test	Phase2	test/STIM_024.jpg
1395.106	0.597	correct	test	Phase2	test/STIM_024.jpg
1398.246	0.788	correct	test	Phase2	test/STIM_024.jpg
1402.132	0.602	correct	test	Phase2	test/STIM_025.jpg
1406.658	0.924	correct	test	Phase2	test/STIM_025.jpg
1410.897	1.044	correct	test	Phase2	test/STIM_025.jpg
1414.902	0.615	correct	test	Phase2	test/STIM_026.jpg
1417.941	0.856	correct	test	Phase2	test/STIM_026.jpg
1422.134	0.546	correct	test	Phase2	test/STIM_026.jpg
1426.108	0.804	incorrect	test	Phase2	test/STIM_027.jpg
1429.5	0.704	correct	test	Phase2	test/STIM_027.jpg
1432.923	0.809	correct	test	Phase2	test/STIM_027.jpg
1437.267	0.52	correct	test	Phase2	test/STIM_028.jpg
1439.926	0.796	correct	test	Phase2	test/STIM_028.jpg
1443.236	1.096	incorrect	test	Phase2	test/STIM_028.jpg
1446.991	0.714	correct	test	Phase2	test/STIM_029.jpg
1450.094	0.671	correct	test	Phase2	test/STIM_029.jpg
1453.805	0.768	correct	test	Phase2	test/STIM_029.jpg
1456.876	0.675	correct	study	Phase3	study/STIM_000.jpg
1459.97	0.552	correct	study	Phase3	study/STIM_000.jpg
1464.527	0.955	correct	study	Phase3	study/STIM_000.jpg
1468.127	1.113	correct	study	Phase3	study/STIM_001.jpg
1473.262	1.028	correct	study	Phase3	study/STIM_001.jpg
1478.481	0.844	correct	study	Phase3	study/STIM_001.jpg
1482.313	0.841	correct	study	Phase3	study/STIM_002.jpg
1486.533	1.075	correct	study	Phase3	study/STIM_002.jpg
1491.365	1.082	correct	study	Phase3	study/STIM_002.jpg
1496.481	0.824	incorrect	study	Phase3	study/STIM_003.jpg
1500.921	0.588	correct	study	Phase3	study/STIM_003.jpg
1505.031	0.542	correct	study	Phase3	study/STIM_003.jpg
1509.097	0.526	correct	study	Phase3	study/STIM_004.jpg
1513.314	0.768	correct	study	Phase3	study/STIM_004.jpg
1516.242	0.694	correct	study	Phase3	study/STIM_004.jpg
1519.509	0.799	correct	study	Phase3	study/STIM_005.jpg
1523.156	1.103	correct	study	Phase3	study/STIM_005.jpg
1526.501	0.808	correct	study	Phase3	study/STIM_005.jpg
1530.323	0.902	correct	study	Phase3	study/STIM_006.jpg
1533.924	0.718	correct	study	Phase3	study/STIM_006.jpg
1538.749	0.493	correct	study	Phase3	study/STIM_006.jpg
1542.084	0.663	correct	study	Phase3	study/STIM_007.jpg
1546.755	1.048	correct	study	Phase3	study/STIM_007.jpg
1550.695	0.959	correct	study	Phase3	study/STIM_007.jpg
1554.935	0.628	correct	study	Phase3	study/STIM_008.jpg
1558.227	0.608	correct	study	Phase3	study/STIM_008.jpg
1561.124	0.771	correct	study	Phase3	study/STIM_008.jpg
1564.116	0.403	correct	study	Phase3	study/STIM_009.jpg
1568.435	0.602	correct	study	Phase3	study/STIM_009.jpg
1572.356	0.716	correct	study	Phase3	study/STIM_009.jpg
1576.255	1.024	correct	study	Phase3	study/STIM_010.jpg
1580.052	1.038	correct	study	Phase3	study/STIM_010.jpg
1585.023	0.66	correct	study	Phase3	study/STIM_010.jpg
1588.83	0.798	correct	study	Phase3	study/STIM_011.jpg
1592.92	0.51	correct	study	Phase3	study/STIM_011.jpg
1597.32	0.654	incorrect	study	Phase3	study/STIM_011.jpg
1600.163	1.014	correct	study	Phase3	study/STIM_012.jpg
1604.201	0.956	correct	study	Phase3	study/STIM_012.jpg
1607.993	0.957	correct	study	Phase3	study/STIM_012.jpg
1612.348	0.503	correct	study	Phase3	study/STIM_013.jpg
1616.092	0.575	correct	study	Phase3	study/STIM_013.jpg
1618.925	0.524	correct	study	Phase3	study/STIM_013.jpg
1621.574	0.777	correct	study	Phase3	study/STIM_014.jpg
1624.535	0.981	correct	study	Phase3	study/STIM_014.jpg
1628.385	0.516	correct	study	Phase3	study/STIM_014.jpg
1631.16	0.889	correct	study	Phase3	study/STIM_015.jpg
1634.68	0.9	correct	study	Phase3	study/STIM_015.jpg
1639.401	0.789	correct	study	Phase3	study/STIM_015.jpg
1642.907	0.878	correct	study	Phase3	study/STIM_016.jpg
1646.329	0.678	correct	study	Phase3	study/STIM_016.jpg
1650.762	1.122	correct	study	Phase3	study/STIM_016.jpg
1654.798	0.735	correct	study	Phase3	study/STIM_017.jpg
1657.928	0.782	correct	study	Phase3	study/STIM_017.jpg
1661.204	0.952	correct	study	Phase3	study/STIM_017.jpg
1666.215	0.525	correct	study	Phase3	study/STIM_018.jpg
1670.008	0.628	correct	study	Phase3	study/STIM_018.jpg
1674.293	0.54	correct	study	Phase3	study/STIM_018.jpg
1677.943	0.573	correct	study	Phase3	study/STIM_019.jpg
1682.416	0.86	correct	study	Phase3	study/STIM_019.jpg
1686.388	1.049	correct	study	Phase3	study/STIM_019.jpg
1691.051	0.942	incorrect	study	Phase3	study/STIM_020.jpg
1695.828	0.596	correct	study	Phase3	study/STIM_020.jpg
1699.196	1.082	correct	study	Phase3	study/STIM_020.jpg
1703.843	0.893	correct	study	Phase3	study/STIM_021.jpg
1708.806	0.781	correct	study	Phase3	study/STIM_021.jpg
1712.04	0.897	correct	study	Phase3	study/STIM_021.jpg
1715.919	0.482	correct	study	Phase3	study/STIM_022.jpg
1718.519	0.927	correct	study	Phase3	study/STIM_022.jpg
1722.447	0.625	correct	study	Phase3	study/STIM_022.jpg
1726.806	0.773	correct	study	Phase3	study/STIM_023.jpg
1729.852	0.789	correct	study	Phase3	study/STIM_023.jpg
1734.49	0.62	correct	study	Phase3	study/STIM_023.jpg
1738.281	0.611	correct	study	Phase3	study/STIM_024.jpg
1742.849	0.629	correct	study	Phase3	study/STIM_024.jpg
1746.1	0.98	correct	study	Phase3	study/STIM_024.jpg
1750.863	0.648	correct	study	Phase3	study/STIM_025.jpg
1754.742	1.033	correct	study	Phase3	study/STIM_025.jpg
1757.909	0.81	correct	study	Phase3	study/STIM_025.jpg
1762.039	0.613	correct	study	Phase3	study/STIM_026.jpg
1765.506	0.833	incorrect	study	Phase3	study/STIM_026.jpg
1769.966	0.679	correct	study	Phase3	study/STIM_026.jpg
1774.377	0.734	correct	study	Phase3	study/STIM_027.jpg
1778.508	0.632	correct	study	Phase3	study/STIM_027.jpg
1782.048	1.012	correct	study	Phase3	study/STIM_027.jpg
1786.612	0.864	correct	study	Phase3	study/STIM_028.jpg
1790.452	0.864	correct	study	Phase3	study/STIM_028.jpg
1794.093	0.622	correct	study	Phase3	study/STIM_028.jpg
1798.807	0.533	correct	study	Phase3	study/STIM_029.jpg
1801.773	1.039	correct	study	Phase3	study/STIM_029.jpg
1805.82	0.912	correct	study	Phase3	study/STIM_029.jpg
1809.742	0.691	correct	test	Phase3	test/STIM_000.jpg
1813.113	0.558	correct	test	Phase3	test/STIM_000.jpg
1816.394	0.698	correct	test	Phase3	test/STIM_000.jpg
1821.132	0.958	incorrect	test	Phase3	test/STIM_001.jpg
1824.306	1.079	correct	test	Phase3	test/STIM_001.jpg
1827.756	0.879	correct	test	Phase3	test/STIM_001.jpg
1832.072	0.705	correct	test	Phase3	test/STIM_002.jpg
1836.789	0.597	incorrect	test	Phase3	test/STIM_002.jpg
1840.978	0.96	correct	test	Phase3	test/STIM_002.jpg
1844.547	0.877	correct	test	Phase3	test/STIM_003.jpg
1849.459	0.656	correct	test	Phase3	test/STIM_003.jpg
1854.023	0.913	correct	test	Phase3	test/STIM_003.jpg
1857.544	0.952	correct	test	Phase3	test/STIM_004.jpg
1861.915	0.793	correct	test	Phase3	test/STIM_004.jpg
1865.967	0.69	correct	test	Phase3	test/STIM_004.jpg
1870.659	0.76	correct	test	Phase3	test/STIM_005.jpg
1873.916	0.899	correct	test	Phase3	test/STIM_005.jpg
1877.19	0.576	incorrect	test	Phase3	test/STIM_005.jpg
1879.981	0.964	correct	test	Phase3	test/STIM_006.jpg
1883.973	0.567	correct	test	Phase3	test/STIM_006.jpg
1888.201	0.46	correct	test	Phase3	test/STIM_006.jpg
1892.034	0.882	correct	test	Phase3	test/STIM_007.jpg
1896.508	0.581	correct	test	Phase3	test/STIM_007.jpg
1900.927	0.948	correct	test	Phase3	test/STIM_007.jpg
1904.541	0.7	correct	test	Phase3	test/STIM_008.jpg
1907.786	0.451	correct	test	Phase3	test/STIM_008.jpg
1911.896	0.88	correct	test	Phase3	test/STIM_008.jpg
1915.083	0.987	correct	test	Phase3	test/STIM_009.jpg
1919.959	1.04	correct	test	Phase3	test/STIM_009.jpg
1924.224	0.626	correct	test	Phase3	test/STIM_009.jpg
1928.449	0.972	correct	test	Phase3	test/STIM_010.jpg
1931.703	0.689	correct	test	Phase3	test/STIM_010.jpg
1935.732	0.896	correct	test	Phase3	test/STIM_010.jpg
1939.445	1.097	correct	test	Phase3	test/STIM_011.jpg
1944.247	0.811	correct	test	Phase3	test/STIM_011.jpg
1947.662	0.925	correct	test	Phase3	test/STIM_011.jpg
1951.641	0.927	correct	test	Phase3	test/STIM_012.jpg
1954.823	0.967	incorrect	test	Phase3	test/STIM_012.jpg
1958.888	0.567	correct	test	Phase3	test/STIM_012.jpg
1962.509	0.627	correct	test	Phase3	test/STIM_013.jpg
1967.002	0.627	correct	test	Phase3	test/STIM_013.jpg
1970.496	0.865	correct	test	Phase3	test/STIM_013.jpg
1973.873	0.625	correct	test	Phase3	test/STIM_014.jpg
1976.957	0.842	correct	test	Phase3	test/STIM_014.jpg
1981.65	0.948	correct	test	Phase3	test/STIM_014.jpg
1985.308	0.718	correct	test	Phase3	test/STIM_015.jpg
1989.155	0.737	correct	test	Phase3	test/STIM_015.jpg
1992.837	0.947	correct	test	Phase3	test/STIM_015.jpg
1996.633	1.042	correct	test	Phase3	test/STIM_016.jpg
2000.526	0.707	correct	test	Phase3	test/STIM_016.jpg
2005.256	0.973	correct	test	Phase3	test/STIM_016.jpg
2009.255	0.86	correct	test	Phase3	test/STIM_017.jpg
2012.63	1.036	correct	test	Phase3	test/STIM_017.jpg
2017.507	1.013	correct	test	Phase3	test/STIM_017.jpg
2021.587	0.837	correct	test	Phase3	test/STIM_018.jpg
2025.962	0.67	correct	test	Phase3	test/STIM_018.jpg
2029.146	0.664	correct	test	Phase3	test/STIM_018.jpg
2031.832	0.915	correct	test	Phase3	test/STIM_019.jpg
2035.965	0.577	incorrect	test	Phase3	test/STIM_019.jpg
2038.717	0.634	correct	test	Phase3	test/STIM_019.jpg
2041.916	0.704	incorrect	test	Phase3	test/STIM_020.jpg
2045.208	0.814	correct	test	Phase3	test/STIM_020.jpg
2048.663	0.582	correct	test	Phase3	test/STIM_020.jpg
2051.771	0.546	correct	test	Phase3	test/STIM_021.jpg
2055.758	0.909	correct	test	Phase3	test/STIM_021.jpg
2059.605	0.837	correct	test	Phase3	test/STIM_021.jpg
2063.988	0.593	incorrect	test	Phase3	test/STIM_022.jpg
2067.532	1.025	incorrect	test	Phase3	test/STIM_022.jpg
2071.807	0.578	correct	test	Phase3	test/STIM_022.jpg
2074.722	0.625	incorrect	test	Phase3	test/STIM_023.jpg
2078.942	0.709	correct	test	Phase3	test/STIM_023.jpg
2083.478	0.635	correct	test	Phase3	test/STIM_023.jpg
2087.06	0.544	correct	test	Phase3	test/STIM_024.jpg
2089.81	0.841	correct	test	Phase3	test/STIM_024.jpg
2093.999	0.87	correct	test	Phase3	test/STIM_024.jpg
2097.101	0.966	correct	test	Phase3	test/STIM_025.jpg
2101.88	0.987	correct	test	Phase3	test/STIM_025.jpg
2106.025	0.752	correct	test	Phase3	test/STIM_025.jpg
2109.761	0.514	correct	test	Phase3	test/STIM_026.jpg
2114.255	0.784	correct	test	Phase3	test/STIM_026.jpg
2117.957	0.96	correct	test	Phase3	test/STIM_026.jpg
2121.526	0.572	correct	test	Phase3	test/STIM_027.jpg
2124.952	0.857	correct	test	Phase3	test/STIM_027.jpg
2128.064	0.862	incorrect	test	Phase3	test/STIM_027.jpg
2131.869	0.954	incorrect	test	Phase3	test/STIM_028.jpg
2137.026	0.839	correct	test	Phase3	test/STIM_028.jpg
2140.458	0.675	correct	test	Phase3	test/STIM_028.jpg
2143.44	0.773	correct	test	Phase3	test/STIM_029.jpg
2147.744	0.884	correct	test	Phase3	test/STIM_029.jpg
2150.821	0.495	correct	test	Phase3	test/STIM_029.jpg
