onset	duration	response_time_ms	trial_type	learning_stage	stimulus	response_port
0.0	0.843	843.0	study	Phase1	study/STIM_000.jpg	99
4.034	1.458	1458.4	study	Phase1	study/STIM_000.jpg	100
8.335	1.034	1034.4	study	Phase1	study/STIM_000.jpg	100
11.722	1.19	1190.3	study	Phase1	study/STIM_001.jpg	99
16.402	1.177	1177.3	study	Phase1	study/STIM_001.jpg	99
19.903	1.234	1234.5	study	Phase1	study/STIM_001.jpg	100
23.442	1.601	1601.3	study	Phase1	study/STIM_002.jpg	99
28.627	1.478	1478.2	study	Phase1	study/STIM_002.jpg	100
32.606	0.746	745.6	study	Phase1	study/STIM_002.jpg	100
35.637	1.275	1274.9	study	Phase1	study/STIM_003.jpg	99
40.148	1.524	1524.1	study	Phase1	study/STIM_003.jpg	100
45.085	0.868	868.3	study	Phase1	study/STIM_003.jpg	99
49.135	1.001	1001.0	study	Phase1	study/STIM_004.jpg	100
54.134	1.081	1081.3	study	Phase1	study/STIM_004.jpg	99
58.057	0.965	965.4	study	Phase1	study/STIM_004.jpg	99
62.617	1.314	1314.2	study	Phase1	study/STIM_005.jpg	100
67.019	1.013	1012.6	study	Phase1	study/STIM_005.jpg	100
70.756	1.211	1210.7	study	Phase1	study/STIM_005.jpg	99
75.23	0.888	887.7	study	Phase1	study/STIM_006.jpg	100
78.728	1.447	1446.6	study	Phase1	study/STIM_006.jpg	100
84.334	1.003	1002.7	study	Phase1	study/STIM_006.jpg	99
88.589	1.153	1153.2	study	Phase1	study/STIM_007.jpg	100
92.04	1.096	1095.8	study	Phase1	study/STIM_007.jpg	99
95.913	1.188	1187.8	study	Phase1	study/STIM_007.jpg	99
100.048	1.064	1064.3	study	Phase1	study/STIM_008.jpg	100
104.813	1.317	1317.3	study	Phase1	study/STIM_008.jpg	100
109.994	0.875	874.8	study	Phase1	study/STIM_008.jpg	99
113.873	0.989	988.7	study	Phase1	study/STIM_009.jpg	100
117.005	1.366	1365.9	study	Phase1	study/STIM_009.jpg	99
121.896	1.076	1076.1	study	Phase1	study/STIM_009.jpg	99
126.483	1.172	1171.5	study	Phase1	study/STIM_010.jpg	99
130.933	0.714	714.2	study	Phase1	study/STIM_010.jpg	99
134.86	1.095	1095.3	study	Phase1	study/STIM_010.jpg	99
138.362	1.273	1272.8	study	Phase1	study/STIM_011.jpg	99
142.021	0.587	586.7	study	Phase1	study/STIM_011.jpg	99
146.268	0.885	884.7	study	Phase1	study/STIM_011.jpg	100
150.005	1.386	1386.1	study	Phase1	study/STIM_012.jpg	100
153.95	0.743	742.7	study	Phase1	study/STIM_012.jpg	99
158.196	1.275	1275.0	study	Phase1	study/STIM_012.jpg	100
161.646	0.777	776.8	study	Phase1	study/STIM_013.jpg	99
165.119	1.321	1321.1	study	Phase1	study/STIM_013.jpg	100
169.373	0.738	737.9	study	Phase1	study/STIM_013.jpg	100
173.509	1.384	1383.6	study	Phase1	study/STIM_014.jpg	100
178.144	0.627	626.6	study	Phase1	study/STIM_014.jpg	99
182.541	0.882	882.0	study	Phase1	study/STIM_014.jpg	99
186.728	1.186	1185.8	study	Phase1	study/STIM_015.jpg	99
191.734	1.206	1206.1	study	Phase1	study/STIM_015.jpg	100
195.795	1.266	1265.7	study	Phase1	study/STIM_015.jpg	99
200.094	1.004	1004.4	study	Phase1	study/STIM_016.jpg	99
204.552	1.44	1440.1	study	Phase1	study/STIM_016.jpg	99
208.451	0.717	717.1	study	Phase1	study/STIM_016.jpg	99
212.64	0.948	947.9	study	Phase1	study/STIM_017.jpg	99
217.449	1.264	1263.7	study	Phase1	study/STIM_017.jpg	99
221.518	1.234	1234.2	study	Phase1	study/STIM_017.jpg	100
226.601	1.24	1240.1	study	Phase1	study/STIM_018.jpg	100
231.442	0.818	818.4	study	Phase1	study/STIM_018.jpg	100
236.34	1.363	1362.9	study	Phase1	study/STIM_018.jpg	99
240.233	0.759	758.6	study	Phase1	study/STIM_019.jpg	99
244.801	0.849	849.0	study	Phase1	study/STIM_019.jpg	99
249.445	1.188	1187.8	study	Phase1	study/STIM_019.jpg	100
254.005	1.087	1087.3	study	Phase1	study/STIM_020.jpg	99
258.443	1.154	1154.1	study	Phase1	study/STIM_020.jpg	100
263.13	1.098	1098.4	study	Phase1	study/STIM_020.jpg	99
267.459	0.707	706.7	study	Phase1	study/STIM_021.jpg	100
271.721	1.371	1371.4	study	Phase1	study/STIM_021.jpg	99
276.226	1.231	1231.2	study	Phase1	study/STIM_021.jpg	99
280.776	1.292	1292.4	study	Phase1	study/STIM_022.jpg	99
284.685	0.969	968.7	study	Phase1	study/STIM_022.jpg	100
288.891	0.602	602.1	study	Phase1	study/STIM_022.jpg	100
291.687	1.3	1299.8	study	Phase1	study/STIM_023.jpg	99
297.149	0.981	981.4	study	Phase1	study/STIM_023.jpg	100
300.556	0.864	864.1	study	Phase1	study/STIM_023.jpg	100
305.544	1.011	1010.7	study	Phase1	study/STIM_024.jpg	100
310.156	1.388	1387.7	study	Phase1	study/STIM_024.jpg	99
314.541	0.853	852.6	study	Phase1	study/STIM_024.jpg	99
317.639	1.247	1246.7	study	Phase1	study/STIM_025.jpg	100
322.647	0.753	753.0	study	Phase1	study/STIM_025.jpg	100
326.457	1.055	1054.7	study	Phase1	study/STIM_025.jpg	100
330.915	1.147	1147.2	study	Phase1	study/STIM_026.jpg	99
335.484	1.192	1192.4	study	Phase1	study/STIM_026.jpg	100
339.426	1.239	1238.8	study	Phase1	study/STIM_026.jpg	99
343.043	0.748	747.9	study	Phase1	study/STIM_027.jpg	100
347.471	1.291	1291.3	study	Phase1	study/STIM_027.jpg	100
351.938	1.005	1004.6	study	Phase1	study/STIM_027.jpg	100
355.71	0.985	985.3	study	Phase1	study/STIM_028.jpg	100
359.386	1.162	1162.3	study	Phase1	study/STIM_028.jpg	100
364.711	1.395	1394.7	study	Phase1	study/STIM_028.jpg	99
369.113	1.242	1242.4	study	Phase1	study/STIM_029.jpg	100
372.786	1.033	1033.3	study	Phase1	study/STIM_029.jpg	100
376.703	1.152	1152.1	study	Phase1	study/STIM_029.jpg	99
380.306	0.778	778.1	test	Phase1	test/STIM_000.jpg	100
383.212	0.538	537.8	test	Phase1	test/STIM_000.jpg	100
386.376	0.872	872.1	test	Phase1	test/STIM_000.jpg	99
391.22	0.673	672.7	test	Phase1	test/STIM_001.jpg	100
395.747	1.014	1014.1	test	Phase1	test/STIM_001.jpg	99
400.541	0.766	766.5	test	Phase1	test/STIM_001.jpg	99
403.729	0.637	637.2	test	Phase1	test/STIM_002.jpg	100
407.378	0.73	730.5	test	Phase1	test/STIM_002.jpg	100
411.815	0.682	682.3	test	Phase1	test/STIM_002.jpg	100
414.797	0.984	983.9	test	Phase1	test/STIM_003.jpg	99
419.836	0.482	482.1	test	Phase1	test/STIM_003.jpg	99
423.049	0.685	685.4	test	Phase1	test/STIM_003.jpg	100
427.644	0.555	554.7	test	Phase1	test/STIM_004.jpg	100
431.938	0.81	810.3	test	Phase1	test/STIM_004.jpg	100
434.984	0.846	845.9	test	Phase1	test/STIM_004.jpg	100
438.05	1.022	1021.7	test	Phase1	test/STIM_005.jpg	99
442.349	0.762	762.2	test	Phase1	test/STIM_005.jpg	100
447.037	0.622	621.7	test	Phase1	test/STIM_005.jpg	100
451.579	0.82	819.6	test	Phase1	test/STIM_006.jpg	100
454.676	0.708	707.7	test	Phase1	test/STIM_006.jpg	99
459.03	1.17	1170.0	test	Phase1	test/STIM_006.jpg	100
463.626	0.727	727.2	test	Phase1	test/STIM_007.jpg	100
467.292	1.091	1090.6	test	Phase1	test/STIM_007.jpg	100
471.272	0.63	629.6	test	Phase1	test/STIM_007.jpg	100
474.402	0.728	727.7	test	Phase1	test/STIM_008.jpg	100
478.3	0.786	785.9	test	Phase1	test/STIM_008.jpg	99
482.987	0.918	917.6	test	Phase1	test/STIM_008.jpg	100
487.509	0.896	896.5	test	Phase1	test/STIM_009.jpg	100
491.406	0.884	884.2	test	Phase1	test/STIM_009.jpg	99
496.236	1.046	1045.8	test	Phase1	test/STIM_009.jpg	100
500.356	0.712	712.4	test	Phase1	test/STIM_010.jpg	99
504.335	0.648	647.5	test	Phase1	test/STIM_010.jpg	99
508.591	0.758	758.2	test	Phase1	test/STIM_010.jpg	100
513.085	0.614	614.2	test	Phase1	test/STIM_011.jpg	99
516.156	0.725	724.9	test	Phase1	test/STIM_011.jpg	100
520.026	0.711	710.8	test	Phase1	test/STIM_011.jpg	99
524.528	1.073	1072.6	test	Phase1	test/STIM_012.jpg	100
528.64	1.119	1118.8	test	Phase1	test/STIM_012.jpg	100
531.984	0.573	573.0	test	Phase1	test/STIM_012.jpg	99
536.448	0.834	834.3	test	Phase1	test/STIM_013.jpg	100
539.636	0.93	930.3	test	Phase1	test/STIM_013.jpg	100
543.457	0.847	846.8	test	Phase1	test/STIM_013.jpg	99
547.007	0.808	808.1	test	Phase1	test/STIM_014.jpg	99
551.559	0.867	867.4	test	Phase1	test/STIM_014.jpg	100
556.159	0.689	689.4	test	Phase1	test/STIM_014.jpg	99
560.103	0.624	624.4	test	Phase1	test/STIM_015.jpg	100
564.4	0.69	689.6	test	Phase1	test/STIM_015.jpg	99
569.034	0.764	763.8	test	Phase1	test/STIM_015.jpg	100
572.109	0.71	710.1	test	Phase1	test/STIM_016.jpg	100
576.638	0.878	877.7	test	Phase1	test/STIM_016.jpg	99
580.577	0.87	870.2	test	Phase1	test/STIM_016.jpg	100
585.373	0.986	986.3	test	Phase1	test/STIM_017.jpg	100
590.469	0.737	737.4	test	Phase1	test/STIM_017.jpg	100
594.698	0.899	899.1	test	Phase1	test/STIM_017.jpg	99
599.506	0.728	727.9	test	Phase1	test/STIM_018.jpg	100
602.43	0.788	788.1	test	Phase1	test/STIM_018.jpg	99
606.861	1.073	1072.8	test	Phase1	test/STIM_018.jpg	99
611.547	0.654	654.2	test	Phase1	test/STIM_019.jpg	99
615.916	0.793	793.2	test	Phase1	test/STIM_019.jpg	99
619.523	0.837	836.6	test	Phase1	test/STIM_019.jpg	99
623.372	0.693	692.7	test	Phase1	test/STIM_020.jpg	99
627.879	0.723	723.4	test	Phase1	test/STIM_020.jpg	100
632.137	1.044	1044.3	test	Phase1	test/STIM_020.jpg	99
635.795	0.594	593.9	test	Phase1	test/STIM_021.jpg	99
639.395	0.98	980.1	test	Phase1	test/STIM_021.jpg	100
643.761	0.695	695.2	test	Phase1	test/STIM_021.jpg	100
647.551	1.085	1084.8	test	Phase1	test/STIM_022.jpg	100
651.089	0.904	903.7	test	Phase1	test/STIM_022.jpg	99
655.535	0.515	515.1	test	Phase1	test/STIM_022.jpg	100
659.895	0.638	637.6	test	Phase1	test/STIM_023.jpg	100
663.212	0.817	816.8	test	Phase1	test/STIM_023.jpg	100
667.288	0.668	668.3	test	Phase1	test/STIM_023.jpg	99
670.168	0.678	678.0	test	Phase1	test/STIM_024.jpg	99
674.857	1.018	1017.5	test	Phase1	test/STIM_024.jpg	99
679.644	0.895	895.3	test	Phase1	test/STIM_024.jpg	99
684.524	0.908	907.7	test	Phase1	test/STIM_025.jpg	99
687.815	0.801	801.4	test	Phase1	test/STIM_025.jpg	99
692.457	0.881	880.6	test	Phase1	test/STIM_025.jpg	100
697.394	0.544	544.5	test	Phase1	test/STIM_026.jpg	100
700.155	0.892	891.8	test	Phase1	test/STIM_026.jpg	100
703.833	0.97	970.5	test	Phase1	test/STIM_026.jpg	100
708.856	0.936	936.0	test	Phase1	test/STIM_027.jpg	99
712.019	1.067	1067.3	test	Phase1	test/STIM_027.jpg	99
715.903	0.967	966.9	test	Phase1	test/STIM_027.jpg	99
720.829	0.513	513.3	test	Phase1	test/STIM_028.jpg	100
724.589	0.546	545.7	test	Phase1	test/STIM_028.jpg	99
727.281	0.8	799.5	test	Phase1	test/STIM_028.jpg	99
731.406	0.718	718.0	test	Phase1	test/STIM_029.jpg	100
735.701	0.512	511.8	test	Phase1	test/STIM_029.jpg	100
740.039	0.888	888.5	test	Phase1	test/STIM_029.jpg	99
744.891	0.667	666.9	study	Phase2	study/STIM_000.jpg	100
748.208	1.085	1084.8	study	Phase2	study/STIM_000.jpg	100
752.649	1.104	1104.4	study	Phase2	study/STIM_000.jpg	100
757.038	0.654	653.9	study	Phase2	study/STIM_001.jpg	99
760.97	0.534	534.0	study	Phase2	study/STIM_001.jpg	99
765.522	0.92	920.4	study	Phase2	study/STIM_001.jpg	100
770.381	1.008	1008.1	study	Phase2	study/STIM_002.jpg	100
774.408	0.77	770.2	study	Phase2	study/STIM_002.jpg	100
778.85	1.03	1030.1	study	Phase2	study/STIM_002.jpg	100
782.788	1.036	1036.0	study	Phase2	study/STIM_003.jpg	100
787.167	0.974	973.5	study	Phase2	study/STIM_003.jpg	99
791.394	0.573	572.8	study	Phase2	study/STIM_003.jpg	99
795.048	0.962	962.4	study	Phase2	study/STIM_004.jpg	100
799.483	1.048	1047.6	study	Phase2	study/STIM_004.jpg	100
803.986	0.515	514.6	study	Phase2	study/STIM_004.jpg	99
807.363	0.967	966.9	study	Phase2	study/STIM_005.jpg	100
810.725	0.706	706.1	study	Phase2	study/STIM_005.jpg	100
814.249	0.813	813.0	study	Phase2	study/STIM_005.jpg	99
818.432	0.75	750.5	study	Phase2	study/STIM_006.jpg	100
822.384	0.636	635.7	study	Phase2	study/STIM_006.jpg	99
825.466	0.518	518.3	study	Phase2	study/STIM_006.jpg	100
828.772	1.252	1251.6	study	Phase2	study/STIM_007.jpg	100
833.159	0.786	785.7	study	Phase2	study/STIM_007.jpg	99
836.828	0.591	590.7	study	Phase2	study/STIM_007.jpg	100
839.721	0.847	847.3	study	Phase2	study/STIM_008.jpg	99
844.443	0.901	900.9	study	Phase2	study/STIM_008.jpg	99
849.463	0.498	498.5	study	Phase2	study/STIM_008.jpg	100
852.951	0.871	870.6	study	Phase2	study/STIM_009.jpg	100
857.805	1.074	1073.8	study	Phase2	study/STIM_009.jpg	99
861.635	1.035	1034.7	study	Phase2	study/STIM_009.jpg	100
866.495	0.51	509.9	study	Phase2	study/STIM_010.jpg	100
869.279	0.718	717.9	study	Phase2	study/STIM_010.jpg	100
873.332	1.035	1034.6	study	Phase2	study/STIM_010.jpg	100
877.215	0.972	971.6	study	Phase2	study/STIM_011.jpg	99
880.525	0.827	827.4	study	Phase2	study/STIM_011.jpg	100
883.642	0.61	609.7	study	Phase2	study/STIM_011.jpg	100
888.186	1.045	1044.7	study	Phase2	study/STIM_012.jpg	100
892.158	0.864	864.2	study	Phase2	study/STIM_012.jpg	99
896.545	1.048	1048.1	study	Phase2	study/STIM_012.jpg	99
901.577	1.181	1181.3	study	Phase2	study/STIM_013.jpg	100
906.678	0.577	576.6	study	Phase2	study/STIM_013.jpg	100
909.655	0.506	506.3	study	Phase2	study/STIM_013.jpg	99
912.854	0.916	915.9	study	Phase2	study/STIM_014.jpg	100
916.034	0.724	724.0	study	Phase2	study/STIM_014.jpg	99
919.459	1.058	1058.0	study	Phase2	study/STIM_014.jpg	100
924.297	1.191	1191.2	study	Phase2	study/STIM_015.jpg	100
928.912	0.725	724.6	study	Phase2	study/STIM_015.jpg	99
933.35	0.811	810.9	study	Phase2	study/STIM_015.jpg	100
937.93	1.124	1124.0	study	Phase2	study/STIM_016.jpg	100
942.201	0.836	836.1	study	Phase2	study/STIM_016.jpg	100
945.838	0.836	836.5	study	Phase2	study/STIM_016.jpg	100
950.266	0.861	861.0	study	Phase2	study/STIM_017.jpg	99
954.125	0.587	587.3	study	Phase2	study/STIM_017.jpg	99
957.571	0.58	580.2	study	Phase2	study/STIM_017.jpg	100
961.578	0.998	998.2	study	Phase2	study/STIM_018.jpg	99
964.943	0.794	793.7	study	Phase2	study/STIM_018.jpg	100
969.265	0.871	870.8	study	Phase2	study/STIM_018.jpg	99
972.755	1.267	1266.9	study	Phase2	study/STIM_019.jpg	100
977.652	0.682	682.4	study	Phase2	study/STIM_019.jpg	100
980.459	0.779	778.6	study	Phase2	study/STIM_019.jpg	99
984.207	0.618	618.3	study	Phase2	study/STIM_020.jpg	99
987.696	0.715	714.9	study	Phase2	study/STIM_020.jpg	100
991.976	0.778	778.1	study	Phase2	study/STIM_020.jpg	99
996.72	0.627	627.2	study	Phase2	study/STIM_021.jpg	99
1000.127	1.139	1138.7	study	Phase2	study/STIM_021.jpg	100
1005.131	1.198	1198.4	study	Phase2	study/STIM_021.jpg	99
1010.391	0.871	870.7	study	Phase2	study/STIM_022.jpg	99
1014.083	0.887	887.2	study	Phase2	study/STIM_022.jpg	100
1018.264	0.881	881.2	study	Phase2	study/STIM_022.jpg	100
1022.937	0.843	842.8	study	Phase2	study/STIM_023.jpg	100
1026.51	0.712	711.7	study	Phase2	study/STIM_023.jpg	100
1029.991	0.704	704.0	study	Phase2	study/STIM_023.jpg	100
1033.909	0.815	815.1	study	Phase2	study/STIM_024.jpg	99
1037.163	0.806	805.6	study	Phase2	study/STIM_024.jpg	100
1041.136	0.723	723.2	study	Phase2	study/STIM_024.jpg	99
1045.798	1.057	1057.0	study	Phase2	study/STIM_025.jpg	100
1050.249	0.744	743.5	study	Phase2	study/STIM_025.jpg	99
1053.129	0.783	782.8	study	Phase2	study/STIM_025.jpg	100
1056.541	1.3	1299.8	study	Phase2	study/STIM_026.jpg	100
1061.485	0.804	804.0	study	Phase2	study/STIM_026.jpg	100
1064.813	0.987	986.7	study	Phase2	study/STIM_026.jpg	100
1069.594	0.777	777.1	study	Phase2	study/STIM_027.jpg	100
1074.397	0.601	600.9	study	Phase2	study/STIM_027.jpg	99
1079.118	0.773	772.9	study	Phase2	study/STIM_027.jpg	100
1083.258	0.817	817.3	study	Phase2	study/STIM_028.jpg	99
1086.663	1.079	1078.6	study	Phase2	study/STIM_028.jpg	100
1090.935	0.816	816.0	study	Phase2	study/STIM_028.jpg	100
1095.635	1.177	1177.1	study	Phase2	study/STIM_029.jpg	100
1100.804	0.96	959.9	study	Phase2	study/STIM_029.jpg	100
1105.968	0.609	608.7	study	Phase2	study/STIM_029.jpg	99
1110.426	0.796	795.6	test	Phase2	test/STIM_000.jpg	99
1115.12	0.411	410.8	test	Phase2	test/STIM_000.jpg	99
1118.66	0.79	790.2	test	Phase2	test/STIM_000.jpg	100
1123.47	0.496	496.1	test	Phase2	test/STIM_001.jpg	99
1127.459	1.011	1011.2	test	Phase2	test/STIM_001.jpg	99
1130.834	0.67	670.2	test	Phase2	test/STIM_001.jpg	99
1135.252	0.696	696.2	test	Phase2	test/STIM_002.jpg	100
1139.962	0.523	523.3	test	Phase2	test/STIM_002.jpg	99
1143.922	0.898	898.3	test	Phase2	test/STIM_002.jpg	100
1147.131	0.989	989.2	test	Phase2	test/STIM_003.jpg	99
1151.728	0.607	606.9	test	Phase2	test/STIM_003.jpg	99
1155.966	0.929	928.9	test	Phase2	test/STIM_003.jpg	99
1160.719	1.073	1073.0	test	Phase2	test/STIM_004.jpg	99
1164.723	0.453	453.1	test	Phase2	test/STIM_004.jpg	99
1168.192	0.636	636.5	test	Phase2	test/STIM_004.jpg	99
1171.06	0.978	978.4	test	Phase2	test/STIM_005.jpg	99
1174.371	1.095	1094.7	test	Phase2	test/STIM_005.jpg	100
1178.238	0.554	554.5	test	Phase2	test/STIM_005.jpg	99
1182.481	0.911	911.3	test	Phase2	test/STIM_006.jpg	100
1185.722	0.723	722.6	test	Phase2	test/STIM_006.jpg	99
1189.069	0.695	695.0	test	Phase2	test/STIM_006.jpg	99
1193.724	0.677	676.6	test	Phase2	test/STIM_007.jpg	100
1197.25	0.832	832.5	test	Phase2	test/STIM_007.jpg	100
1201.465	1.074	1073.8	test	Phase2	test/STIM_007.jpg	99
1205.466	0.841	840.7	test	Phase2	test/STIM_008.jpg	100
1210.297	0.788	788.4	test	Phase2	test/STIM_008.jpg	99
1214.421	0.946	946.3	test	Phase2	test/STIM_008.jpg	100
1218.823	0.628	628.4	test	Phase2	test/STIM_009.jpg	99
1223.238	1.008	1008.1	test	Phase2	test/STIM_009.jpg	100
1227.441	0.56	559.6	test	Phase2	test/STIM_009.jpg	99
1230.683	0.845	845.0	test	Phase2	test/STIM_010.jpg	100
1233.899	0.921	920.6	test	Phase2	test/STIM_010.jpg	100
1238.437	0.793	792.7	test	Phase2	test/STIM_010.jpg	99
1242.281	0.53	530.1	test	Phase2	test/STIM_011.jpg	99
1246.328	0.582	581.7	test	Phase2	test/STIM_011.jpg	99
1248.98	0.663	663.0	test	Phase2	test/STIM_011.jpg	100
1252.385	0.636	636.5	test	Phase2	test/STIM_012.jpg	100
1255.597	0.977	977.4	test	Phase2	test/STIM_012.jpg	100
1260.365	1.08	1079.9	test	Phase2	test/STIM_012.jpg	99
1265.409	0.726	726.2	test	Phase2	test/STIM_013.jpg	100
1268.452	0.917	917.3	test	Phase2	test/STIM_013.jpg	99
1272.308	0.893	892.7	test	Phase2	test/STIM_013.jpg	100
1275.36	0.623	623.1	test	Phase2	test/STIM_014.jpg	100
1279.409	1.081	1081.0	test	Phase2	test/STIM_014.jpg	100
1284.587	0.94	940.5	test	Phase2	test/STIM_014.jpg	100
1287.889	1.056	1055.9	test	Phase2	test/STIM_015.jpg	99
1291.133	0.775	774.9	test	Phase2	test/STIM_015.jpg	99
1294.986	0.812	812.4	test	Phase2	test/STIM_015.jpg	100
1298.307	0.708	708.0	test	Phase2	test/STIM_016.jpg	100
1301.269	0.924	924.0	test	Phase2	test/STIM_016.jpg	100
1306.051	1.066	1065.6	test	Phase2	test/STIM_016.jpg	99
1310.561	0.836	836.3	test	Phase2	test/STIM_017.jpg	99
1313.923	0.989	988.6	test	Phase2	test/STIM_017.jpg	100
1317.588	0.562	562.2	test	Phase2	test/STIM_017.jpg	99
1321.761	0.688	687.6	test	Phase2	test/STIM_018.jpg	99
1325.372	0.854	854.1	test	Phase2	test/STIM_018.jpg	99
1330.252	0.663	662.7	test	Phase2	test/STIM_018.jpg	100
1333.169	0.627	627.3	test	Phase2	test/STIM_019.jpg	99
1336.383	0.986	985.7	test	Phase2	test/STIM_019.jpg	100
1340.326	0.744	744.0	test	Phase2	test/STIM_019.jpg	100
1343.41	0.748	748.0	test	Phase2	test/STIM_020.jpg	100
1347.109	0.844	843.7	test	Phase2	test/STIM_020.jpg	100
1350.1	0.73	730.2	test	Phase2	test/STIM_020.jpg	99
1354.063	0.919	919.2	test	Phase2	test/STIM_021.jpg	100
1358.685	0.822	822.1	test	Phase2	test/STIM_021.jpg	100
1363.778	0.576	576.5	test	Phase2	test/STIM_021.jpg	99
1368.007	0.911	910.6	test	Phase2	test/STIM_022.jpg	99
1371.703	0.582	581.7	test	Phase2	test/STIM_022.jpg	100
1375.861	0.859	858.6	test	Phase2	test/STIM_022.jpg	99
1379.567	0.535	535.0	test	Phase2	test/STIM_023.jpg	99
1383.461	1.168	1167.8	test	Phase2	test/STIM_023.jpg	100
1386.79	0.999	999.2	test	Phase2	test/STIM_023.jpg	100
1391.58	0.871	871.4	test	Phase2	test/STIM_024.jpg	99
1395.106	0.597	596.7	test	Phase2	test/STIM_024.jpg	100
1398.246	0.788	787.8	test	Phase2	test/STIM_024.jpg	100
1402.132	0.602	602.2	test	Phase2	test/STIM_025.jpg	100
1406.658	0.924	923.7	test	Phase2	test/STIM_025.jpg	99
1410.897	1.044	1043.6	test	Phase2	test/STIM_025.jpg	100
1414.902	0.615	614.9	test	Phase2	test/STIM_026.jpg	100
1417.941	0.856	855.6	test	Phase2	test/STIM_026.jpg	99
1422.134	0.546	545.8	test	Phase2	test/STIM_026.jpg	99
1426.108	0.804	803.5	test	Phase2	test/STIM_027.jpg	100
1429.5	0.704	703.8	test	Phase2	test/STIM_027.jpg	100
1432.923	0.809	808.7	test	Phase2	test/STIM_027.jpg	99
1437.267	0.52	519.5	test	Phase2	test/STIM_028.jpg	100
1439.926	0.796	796.0	test	Phase2	test/STIM_028.jpg	99
1443.236	1.096	1095.5	test	Phase2	test/STIM_028.jpg	99
1446.991	0.714	713.8	test	Phase2	test/STIM_029.jpg	100
1450.094	0.671	671.3	test	Phase2	test/STIM_029.jpg	99
1453.805	0.768	768.4	test	Phase2	test/STIM_029.jpg	99
1456.876	0.675	675.1	study	Phase3	study/STIM_000.jpg	99
1459.97	0.552	552.3	study	Phase3	study/STIM_000.jpg	99
1464.527	0.955	955.0	study	Phase3	study/STIM_000.jpg	99
1468.127	1.113	1112.7	study	Phase3	study/STIM_001.jpg	99
1473.262	1.028	1027.6	study	Phase3	study/STIM_001.jpg	99
1478.481	0.844	843.6	study	Phase3	study/STIM_001.jpg	100
1482.313	0.841	840.7	study	Phase3	study/STIM_002.jpg	100
1486.533	1.075	1075.0	study	Phase3	study/STIM_002.jpg	100
1491.365	1.082	1081.7	study	Phase3	study/STIM_002.jpg	99
1496.481	0.824	824.3	study	Phase3	study/STIM_003.jpg	99
1500.921	0.588	587.7	study	Phase3	study/STIM_003.jpg	100
1505.031	0.542	541.6	study	Phase3	study/STIM_003.jpg	99
1509.097	0.526	525.9	study	Phase3	study/STIM_004.jpg	100
1513.314	0.768	768.2	study	Phase3	study/STIM_004.jpg	99
1516.242	0.694	694.4	study	Phase3	study/STIM_004.jpg	100
1519.509	0.799	798.6	study	Phase3	study/STIM_005.jpg	100
1523.156	1.103	1103.0	study	Phase3	study/STIM_005.jpg	100
1526.501	0.808	808.3	study	Phase3	study/STIM_005.jpg	100
1530.323	0.902	901.9	study	Phase3	study/STIM_006.jpg	100
1533.924	0.718	717.7	study	Phase3	study/STIM_006.jpg	99
1538.749	0.493	493.0	study	Phase3	study/STIM_006.jpg	99
1542.084	0.663	663.2	study	Phase3	study/STIM_007.jpg	99
1546.755	1.048	1047.7	study	Phase3	study/STIM_007.jpg	100
1550.695	0.959	959.3	study	Phase3	study/STIM_007.jpg	99
1554.935	0.628	628.5	study	Phase3	study/STIM_008.jpg	100
1558.227	0.608	607.8	study	Phase3	study/STIM_008.jpg	99
1561.124	0.771	770.7	study	Phase3	study/STIM_008.jpg	100
1564.116	0.403	403.0	study	Phase3	study/STIM_009.jpg	99
1568.435	0.602	602.3	study	Phase3	study/STIM_009.jpg	100
1572.356	0.716	716.4	study	Phase3	study/STIM_009.jpg	99
1576.255	1.024	1023.6	study	Phase3	study/STIM_010.jpg	99
1580.052	1.038	1037.7	study	Phase3	study/STIM_010.jpg	99
1585.023	0.66	660.1	study	Phase3	study/STIM_010.jpg	100
1588.83	0.798	797.8	study	Phase3	study/STIM_011.jpg	99
1592.92	0.51	510.5	study	Phase3	study/STIM_011.jpg	99
1597.32	0.654	654.5	study	Phase3	study/STIM_011.jpg	99
1600.163	1.014	1014.1	study	Phase3	study/STIM_012.jpg	100
1604.201	0.956	955.6	study	Phase3	study/STIM_012.jpg	99
1607.993	0.957	956.6	study	Phase3	study/STIM_012.jpg	99
1612.348	0.503	502.8	study	Phase3	study/STIM_013.jpg	100
1616.092	0.575	575.4	study	Phase3	study/STIM_013.jpg	100
1618.925	0.524	523.9	study	Phase3	study/STIM_013.jpg	100
1621.574	0.777	777.1	study	Phase3	study/STIM_014.jpg	100
1624.535	0.981	981.0	study	Phase3	study/STIM_014.jpg	100
1628.385	0.516	516.5	study	Phase3	study/STIM_014.jpg	100
1631.16	0.889	889.0	study	Phase3	study/STIM_015.jpg	100
1634.68	0.9	899.7	study	Phase3	study/STIM_015.jpg	99
1639.401	0.789	788.8	study	Phase3	study/STIM_015.jpg	99
1642.907	0.878	878.5	study	Phase3	study/STIM_016.jpg	99
1646.329	0.678	677.5	study	Phase3	study/STIM_016.jpg	100
1650.762	1.122	1121.7	study	Phase3	study/STIM_016.jpg	99
1654.798	0.735	735.4	study	Phase3	study/STIM_017.jpg	100
1657.928	0.782	782.0	study	Phase3	study/STIM_017.jpg	99
1661.204	0.952	951.7	study	Phase3	study/STIM_017.jpg	100
1666.215	0.525	524.7	study	Phase3	study/STIM_018.jpg	100
1670.008	0.628	628.2	study	Phase3	study/STIM_018.jpg	100
1674.293	0.54	539.7	study	Phase3	study/STIM_018.jpg	100
1677.943	0.573	572.6	study	Phase3	study/STIM_019.jpg	100
1682.416	0.86	859.6	study	Phase3	study/STIM_019.jpg	99
1686.388	1.049	1048.6	study	Phase3	study/STIM_019.jpg	99
1691.051	0.942	941.5	study	Phase3	study/STIM_020.jpg	99
1695.828	0.596	596.2	study	Phase3	study/STIM_020.jpg	100
1699.196	1.082	1082.5	study	Phase3	study/STIM_020.jpg	99
1703.843	0.893	893.2	study	Phase3	study/STIM_021.jpg	99
1708.806	0.781	781.2	study	Phase3	study/STIM_021.jpg	100
1712.04	0.897	897.4	study	Phase3	study/STIM_021.jpg	100
1715.919	0.482	481.6	study	Phase3	study/STIM_022.jpg	99
1718.519	0.927	926.9	study	Phase3	study/STIM_022.jpg	100
1722.447	0.625	624.8	study	Phase3	study/STIM_022.jpg	100
1726.806	0.773	773.3	study	Phase3	study/STIM_023.jpg	100
1729.852	0.789	789.0	study	Phase3	study/STIM_023.jpg	100
1734.49	0.62	619.5	study	Phase3	study/STIM_023.jpg	99
1738.281	0.611	610.8	study	Phase3	study/STIM_024.jpg	99
1742.849	0.629	628.7	study	Phase3	study/STIM_024.jpg	99
1746.1	0.98	979.6	study	Phase3	study/STIM_024.jpg	100
1750.863	0.648	647.5	study	Phase3	study/STIM_025.jpg	100
1754.742	1.033	1033.3	study	Phase3	study/STIM_025.jpg	99
1757.909	0.81	810.1	study	Phase3	study/STIM_025.jpg	100
1762.039	0.613	612.8	study	Phase3	study/STIM_026.jpg	99
1765.506	0.833	832.9	study	Phase3	study/STIM_026.jpg	99
1769.966	0.679	678.9	study	Phase3	study/STIM_026.jpg	99
1774.377	0.734	733.9	study	Phase3	study/STIM_027.jpg	99
1778.508	0.632	632.3	study	Phase3	study/STIM_027.jpg	100
1782.048	1.012	1012.1	study	Phase3	study/STIM_027.jpg	100
1786.612	0.864	864.0	study	Phase3	study/STIM_028.jpg	99
1790.452	0.864	864.5	study	Phase3	study/STIM_028.jpg	99
1794.093	0.622	621.8	study	Phase3	study/STIM_028.jpg	100
1798.807	0.533	533.1	study	Phase3	study/STIM_029.jpg	100
1801.773	1.039	1039.0	study	Phase3	study/STIM_029.jpg	99
1805.82	0.912	912.0	study	Phase3	study/STIM_029.jpg	99
1809.742	0.691	691.1	test	Phase3	test/STIM_000.jpg	100
1813.113	0.558	557.6	test	Phase3	test/STIM_000.jpg	99
1816.394	0.698	698.4	test	Phase3	test/STIM_000.jpg	100
1821.132	0.958	958.5	test	Phase3	test/STIM_001.jpg	99
1824.306	1.079	1079.0	test	Phase3	test/STIM_001.jpg	100
1827.756	0.879	879.3	test	Phase3	test/STIM_001.jpg	99
1832.072	0.705	705.0	test	Phase3	test/STIM_002.jpg	100
1836.789	0.597	597.0	test	Phase3	test/STIM_002.jpg	100
1840.978	0.96	959.7	test	Phase3	test/STIM_002.jpg	99
1844.547	0.877	877.4	test	Phase3	test/STIM_003.jpg	100
1849.459	0.656	655.7	test	Phase3	test/STIM_003.jpg	100
1854.023	0.913	913.3	test	Phase3	test/STIM_003.jpg	99
1857.544	0.952	952.1	test	Phase3	test/STIM_004.jpg	99
1861.915	0.793	793.1	test	Phase3	test/STIM_004.jpg	100
1865.967	0.69	689.6	test	Phase3	test/STIM_004.jpg	100
1870.659	0.76	760.5	test	Phase3	test/STIM_005.jpg	99
1873.916	0.899	899.4	test	Phase3	test/STIM_005.jpg	100
1877.19	0.576	575.9	test	Phase3	test/STIM_005.jpg	100
1879.981	0.964	964.1	test	Phase3	test/STIM_006.jpg	100
1883.973	0.567	566.8	test	Phase3	test/STIM_006.jpg	100
1888.201	0.46	460.4	test	Phase3	test/STIM_006.jpg	100
1892.034	0.882	881.8	test	Phase3	test/STIM_007.jpg	100
1896.508	0.581	581.0	test	Phase3	test/STIM_007.jpg	100
1900.927	0.948	948.5	test	Phase3	test/STIM_007.jpg	100
1904.541	0.7	699.7	test	Phase3	test/STIM_008.jpg	99
1907.786	0.451	450.7	test	Phase3	test/STIM_008.jpg	99
1911.896	0.88	879.8	test	Phase3	test/STIM_008.jpg	99
1915.083	0.987	987.2	test	Phase3	test/STIM_009.jpg	100
1919.959	1.04	1039.6	test	Phase3	test/STIM_009.jpg	99
1924.224	0.626	625.6	test	Phase3	test/STIM_009.jpg	100
1928.449	0.972	971.8	test	Phase3	test/STIM_010.jpg	100
1931.703	0.689	689.0	test	Phase3	test/STIM_010.jpg	99
1935.732	0.896	895.8	test	Phase3	test/STIM_010.jpg	100
1939.445	1.097	1096.8	test	Phase3	test/STIM_011.jpg	100
1944.247	0.811	811.0	test	Phase3	test/STIM_011.jpg	99
1947.662	0.925	925.0	test	Phase3	test/STIM_011.jpg	99
1951.641	0.927	927.0	test	Phase3	test/STIM_012.jpg	100
1954.823	0.967	967.3	test	Phase3	test/STIM_012.jpg	99
1958.888	0.567	566.8	test	Phase3	test/STIM_012.jpg	100
1962.509	0.627	626.9	test	Phase3	test/STIM_013.jpg	99
1967.002	0.627	627.3	test	Phase3	test/STIM_013.jpg	99
1970.496	0.865	865.0	test	Phase3	test/STIM_013.jpg	99
1973.873	0.625	624.7	test	Phase3	test/STIM_014.jpg	100
1976.957	0.842	842.2	test	Phase3	test/STIM_014.jpg	99
1981.65	0.948	948.0	test	Phase3	test/STIM_014.jpg	100
1985.308	0.718	718.2	test	Phase3	test/STIM_015.jpg	100
1989.155	0.737	736.7	test	Phase3	test/STIM_015.jpg	99
1992.837	0.947	946.8	test	Phase3	test/STIM_015.jpg	99
1996.633	1.042	1041.5	test	Phase3	test/STIM_016.jpg	100
2000.526	0.707	707.2	test	Phase3	test/STIM_016.jpg	99
2005.256	0.973	972.8	test	Phase3	test/STIM_016.jpg	99
2009.255	0.86	860.3	test	Phase3	test/STIM_017.jpg	100
2012.63	1.036	1035.5	test	Phase3	test/STIM_017.jpg	100
2017.507	1.013	1013.1	test	Phase3	test/STIM_017.jpg	100
2021.587	0.837	837.1	test	Phase3	test/STIM_018.jpg	100
2025.962	0.67	670.2	test	Phase3	test/STIM_018.jpg	99
2029.146	0.664	663.8	test	Phase3	test/STIM_018.jpg	99
2031.832	0.915	915.2	test	Phase3	test/STIM_019.jpg	99
2035.965	0.577	576.6	test	Phase3	test/STIM_019.jpg	100
2038.717	0.634	634.3	test	Phase3	test/STIM_019.jpg	100
2041.916	0.704	704.3	test	Phase3	test/STIM_020.jpg	99
2045.208	0.814	813.5	test	Phase3	test/STIM_020.jpg	100
2048.663	0.582	582.4	test	Phase3	test/STIM_020.jpg	100
2051.771	0.546	546.3	test	Phase3	test/STIM_021.jpg	99
2055.758	0.909	908.8	test	Phase3	test/STIM_021.jpg	99
2059.605	0.837	837.0	test	Phase3	test/STIM_021.jpg	99
2063.988	0.593	592.7	test	Phase3	test/STIM_022.jpg	100
2067.532	1.025	1025.4	test	Phase3	test/STIM_022.jpg	99
2071.807	0.578	577.9	test	Phase3	test/STIM_022.jpg	100
2074.722	0.625	625.3	test	Phase3	test/STIM_023.jpg	99
2078.942	0.709	708.6	test	Phase3	test/STIM_023.jpg	100
2083.478	0.635	634.8	test	Phase3	test/STIM_023.jpg	99
2087.06	0.544	544.0	test	Phase3	test/STIM_024.jpg	99
2089.81	0.841	841.3	test	Phase3	test/STIM_024.jpg	99
2093.999	0.87	870.3	test	Phase3	test/STIM_024.jpg	100
2097.101	0.966	965.9	test	Phase3	test/STIM_025.jpg	100
2101.88	0.987	987.2	test	Phase3	test/STIM_025.jpg	100
2106.025	0.752	752.1	test	Phase3	test/STIM_025.jpg	100
2109.761	0.514	513.9	test	Phase3	test/STIM_026.jpg	99
2114.255	0.784	783.9	test	Phase3	test/STIM_026.jpg	99
2117.957	0.96	959.9	test	Phase3	test/STIM_026.jpg	100
2121.526	0.572	572.5	test	Phase3	test/STIM_027.jpg	99
2124.952	0.857	857.4	test	Phase3	test/STIM_027.jpg	100
2128.064	0.862	862.0	test	Phase3	test/STIM_027.jpg	100
2131.869	0.954	954.5	test	Phase3	test/STIM_028.jpg	100
2137.026	0.839	838.7	test	Phase3	test/STIM_028.jpg	99
2140.458	0.675	675.1	test	Phase3	test/STIM_028.jpg	99
2143.44	0.773	773.4	test	Phase3	test/STIM_029.jpg	100
2147.744	0.884	883.9	test	Phase3	test/STIM_029.jpg	99
2150.821	0.495	495.4	test	Phase3	test/STIM_029.jpg	99
