onset	duration	response_time_ms	trial_type	learning_stage	stimulus	response_port
0.0	1.424	1424.3	study	Phase1	study/STIM_000.jpg	100
4.489	0.852	851.8	study	Phase1	study/STIM_000.jpg	100
9.312	0.966	966.3	study	Phase1	study/STIM_000.jpg	100
12.455	0.813	813.3	study	Phase1	study/STIM_001.jpg	99
16.527	1.048	1048.4	study	Phase1	study/STIM_001.jpg	100
21.113	0.796	796.4	study	Phase1	study/STIM_001.jpg	99
25.872	1.196	1196.0	study	Phase1	study/STIM_002.jpg	100
30.827	1.168	1167.5	study	Phase1	study/STIM_002.jpg	99
35.508	1.043	1042.6	study	Phase1	study/STIM_002.jpg	100
38.956	1.118	1117.6	study	Phase1	study/STIM_003.jpg	100
43.323	1.241	1240.6	study	Phase1	study/STIM_003.jpg	99
46.852	0.74	740.2	study	Phase1	study/STIM_003.jpg	99
51.223	0.814	814.2	study	Phase1	study/STIM_004.jpg	99
54.597	1.294	1294.3	study	Phase1	study/STIM_004.jpg	100
58.37	1.059	1058.7	study	Phase1	study/STIM_004.jpg	100
63.067	0.87	869.7	study	Phase1	study/STIM_005.jpg	100
66.0	1.363	1363.2	study	Phase1	study/STIM_005.jpg	99
70.385	0.794	793.8	study	Phase1	study/STIM_005.jpg	100
73.372	1.596	1596.2	study	Phase1	study/STIM_006.jpg	99
78.55	1.39	1390.1	study	Phase1	study/STIM_006.jpg	100
84.006	1.405	1405.2	study	Phase1	study/STIM_006.jpg	99
88.938	1.449	1449.1	study	Phase1	study/STIM_007.jpg	99
92.988	1.048	1048.2	study	Phase1	study/STIM_007.jpg	100
97.639	1.121	1120.6	study	Phase1	study/STIM_007.jpg	100
102.766	1.144	1143.8	study	Phase1	study/STIM_008.jpg	100
106.807	0.992	992.5	study	Phase1	study/STIM_008.jpg	99
111.476	1.509	1509.2	study	Phase1	study/STIM_008.jpg	99
116.832	1.246	1246.5	study	Phase1	study/STIM_009.jpg	99
121.745	1.012	1012.0	study	Phase1	study/STIM_009.jpg	99
125.135	1.28	1280.3	study	Phase1	study/STIM_009.jpg	99
129.01	0.8	800.5	study	Phase1	study/STIM_010.jpg	100
132.643	0.771	770.6	study	Phase1	study/STIM_010.jpg	100
136.436	1.362	1362.5	study	Phase1	study/STIM_010.jpg	100
140.914	1.133	1132.8	study	Phase1	study/STIM_011.jpg	99
146.043	0.886	885.7	study	Phase1	study/STIM_011.jpg	99
150.626	1.374	1374.4	study	Phase1	study/STIM_011.jpg	100
155.029	1.133	1133.1	study	Phase1	study/STIM_012.jpg	100
158.684	1.099	1098.6	study	Phase1	study/STIM_012.jpg	99
163.515	0.995	994.6	study	Phase1	study/STIM_012.jpg	100
167.13	1.541	1540.9	study	Phase1	study/STIM_013.jpg	100
172.407	0.767	766.8	study	Phase1	study/STIM_013.jpg	99
175.493	1.249	1248.6	study	Phase1	study/STIM_013.jpg	99
180.369	0.814	814.5	study	Phase1	study/STIM_014.jpg	100
183.481	1.214	1214.4	study	Phase1	study/STIM_014.jpg	100
187.695	0.915	914.7	study	Phase1	study/STIM_014.jpg	100
191.991	1.572	1572.5	study	Phase1	study/STIM_015.jpg	100
197.448	1.547	1546.7	study	Phase1	study/STIM_015.jpg	100
202.487	1.014	1014.4	study	Phase1	study/STIM_015.jpg	99
206.69	1.462	1461.5	study	Phase1	study/STIM_016.jpg	99
211.394	1.379	1379.0	study	Phase1	study/STIM_016.jpg	100
214.887	1.308	1307.9	study	Phase1	study/STIM_016.jpg	100
219.134	1.282	1282.2	study	Phase1	study/STIM_017.jpg	99
222.703	1.575	1574.7	study	Phase1	study/STIM_017.jpg	99
226.887	0.718	718.3	study	Phase1	study/STIM_017.jpg	100
230.512	1.075	1075.1	study	Phase1	study/STIM_018.jpg	100
235.062	1.289	1289.4	study	Phase1	study/STIM_018.jpg	99
240.061	1.404	1404.2	study	Phase1	study/STIM_018.jpg	100
243.788	1.136	1135.5	study	Phase1	study/STIM_019.jpg	99
247.12	0.733	733.2	study	Phase1	study/STIM_019.jpg	99
251.359	0.808	807.5	study	Phase1	study/STIM_019.jpg	100
254.604	0.763	762.8	study	Phase1	study/STIM_020.jpg	100
258.711	1.569	1568.7	study	Phase1	study/STIM_020.jpg	100
262.838	0.963	962.6	study	Phase1	study/STIM_020.jpg	100
266.243	1.537	1537.2	study	Phase1	study/STIM_021.jpg	100
270.456	1.232	1232.0	study	Phase1	study/STIM_021.jpg	100
275.014	1.478	1477.8	study	Phase1	study/STIM_021.jpg	100
280.209	1.166	1165.9	study	Phase1	study/STIM_022.jpg	99
284.105	1.306	1306.1	study	Phase1	study/STIM_022.jpg	99
288.437	0.763	763.2	study	Phase1	study/STIM_022.jpg	99
292.698	0.938	937.8	study	Phase1	study/STIM_023.jpg	99
297.453	0.872	871.6	study	Phase1	study/STIM_023.jpg	99
302.132	1.091	1090.7	study	Phase1	study/STIM_023.jpg	100
305.722	0.813	813.3	study	Phase1	study/STIM_024.jpg	100
310.53	0.863	862.8	study	Phase1	study/STIM_024.jpg	99
314.078	0.712	711.8	study	Phase1	study/STIM_024.jpg	99
317.845	0.854	853.6	study	Phase1	study/STIM_025.jpg	100
322.552	0.849	848.8	study	Phase1	study/STIM_025.jpg	100
326.375	1.51	1509.9	study	Phase1	study/STIM_025.jpg	100
330.921	1.022	1021.9	study	Phase1	study/STIM_026.jpg	100
334.229	1.277	1277.2	study	Phase1	study/STIM_026.jpg	99
338.493	1.063	1062.6	study	Phase1	study/STIM_026.jpg	99
342.453	1.174	1174.4	study	Phase1	study/STIM_027.jpg	100
347.697	0.82	819.6	study	Phase1	study/STIM_027.jpg	100
350.989	1.139	1138.9	study	Phase1	study/STIM_027.jpg	99
356.041	1.253	1253.1	study	Phase1	study/STIM_028.jpg	100
360.062	0.85	849.5	study	Phase1	study/STIM_028.jpg	100
363.906	0.712	711.9	study	Phase1	study/STIM_028.jpg	100
368.244	1.414	1413.9	study	Phase1	study/STIM_029.jpg	99
372.844	1.144	1144.1	study	Phase1	study/STIM_029.jpg	100
376.424	1.112	1111.9	study	Phase1	study/STIM_029.jpg	99
381.134	0.794	794.0	test	Phase1	test/STIM_000.jpg	100
385.172	1.084	1084.1	test	Phase1	test/STIM_000.jpg	100
388.504	1.057	1056.6	test	Phase1	test/STIM_000.jpg	100
391.658	1.038	1038.1	test	Phase1	test/STIM_001.jpg	99
396.331	1.04	1040.1	test	Phase1	test/STIM_001.jpg	99
399.676	1.17	1170.4	test	Phase1	test/STIM_001.jpg	100
404.72	0.802	802.3	test	Phase1	test/STIM_002.jpg	99
407.802	0.598	598.5	test	Phase1	test/STIM_002.jpg	100
411.575	0.777	776.6	test	Phase1	test/STIM_002.jpg	99
415.585	1.162	1162.5	test	Phase1	test/STIM_003.jpg	99
420.257	1.104	1104.2	test	Phase1	test/STIM_003.jpg	100
423.461	0.867	867.0	test	Phase1	test/STIM_003.jpg	100
427.971	0.86	859.6	test	Phase1	test/STIM_004.jpg	99
432.514	0.632	632.5	test	Phase1	test/STIM_004.jpg	100
437.175	0.835	835.0	test	Phase1	test/STIM_004.jpg	100
440.65	0.885	885.4	test	Phase1	test/STIM_005.jpg	99
443.686	1.116	1115.5	test	Phase1	test/STIM_005.jpg	100
448.433	1.168	1168.2	test	Phase1	test/STIM_005.jpg	100
452.574	0.612	611.6	test	Phase1	test/STIM_006.jpg	100
457.129	0.761	761.0	test	Phase1	test/STIM_006.jpg	99
460.533	0.814	814.5	test	Phase1	test/STIM_006.jpg	99
464.98	0.662	661.7	test	Phase1	test/STIM_007.jpg	99
468.086	0.6	599.8	test	Phase1	test/STIM_007.jpg	99
471.103	0.853	853.2	test	Phase1	test/STIM_007.jpg	100
474.907	1.162	1161.8	test	Phase1	test/STIM_008.jpg	100
478.688	0.651	650.8	test	Phase1	test/STIM_008.jpg	99
482.173	0.817	816.9	test	Phase1	test/STIM_008.jpg	100
485.059	0.862	862.1	test	Phase1	test/STIM_009.jpg	100
489.672	1.148	1148.1	test	Phase1	test/STIM_009.jpg	99
494.587	0.588	588.4	test	Phase1	test/STIM_009.jpg	99
497.234	0.674	673.9	test	Phase1	test/STIM_010.jpg	100
499.958	0.91	909.5	test	Phase1	test/STIM_010.jpg	99
503.17	1.017	1016.6	test	Phase1	test/STIM_010.jpg	100
507.703	1.069	1069.1	test	Phase1	test/STIM_011.jpg	100
512.827	0.613	612.9	test	Phase1	test/STIM_011.jpg	99
517.419	0.713	712.6	test	Phase1	test/STIM_011.jpg	99
521.328	1.08	1079.7	test	Phase1	test/STIM_012.jpg	100
526.149	0.724	723.6	test	Phase1	test/STIM_012.jpg	100
529.423	0.972	971.7	test	Phase1	test/STIM_012.jpg	99
533.099	0.798	798.1	test	Phase1	test/STIM_013.jpg	99
537.637	1.065	1065.2	test	Phase1	test/STIM_013.jpg	99
541.333	1.128	1127.8	test	Phase1	test/STIM_013.jpg	100
545.438	1.023	1023.4	test	Phase1	test/STIM_014.jpg	99
548.824	0.777	776.6	test	Phase1	test/STIM_014.jpg	99
553.187	1.126	1126.1	test	Phase1	test/STIM_014.jpg	100
557.356	0.745	745.3	test	Phase1	test/STIM_015.jpg	99
560.639	0.938	938.0	test	Phase1	test/STIM_015.jpg	100
565.175	0.742	742.4	test	Phase1	test/STIM_015.jpg	99
568.401	0.96	959.6	test	Phase1	test/STIM_016.jpg	99
571.739	1.221	1220.8	test	Phase1	test/STIM_016.jpg	99
576.028	0.572	572.1	test	Phase1	test/STIM_016.jpg	100
579.287	0.914	914.2	test	Phase1	test/STIM_017.jpg	100
584.193	0.742	741.6	test	Phase1	test/STIM_017.jpg	100
587.744	0.843	842.9	test	Phase1	test/STIM_017.jpg	100
592.016	0.694	693.5	test	Phase1	test/STIM_018.jpg	100
595.621	0.873	873.3	test	Phase1	test/STIM_018.jpg	99
599.034	0.86	860.5	test	Phase1	test/STIM_018.jpg	100
602.432	1.082	1082.0	test	Phase1	test/STIM_019.jpg	99
607.012	0.982	981.7	test	Phase1	test/STIM_019.jpg	100
610.311	0.911	911.0	test	Phase1	test/STIM_019.jpg	100
614.834	0.908	907.9	test	Phase1	test/STIM_020.jpg	99
619.397	0.872	872.0	test	Phase1	test/STIM_020.jpg	99
622.38	0.91	909.8	test	Phase1	test/STIM_020.jpg	100
625.814	1.215	1214.9	test	Phase1	test/STIM_021.jpg	99
629.67	1.035	1034.7	test	Phase1	test/STIM_021.jpg	100
634.1	0.976	976.0	test	Phase1	test/STIM_021.jpg	99
637.746	1.143	1143.4	test	Phase1	test/STIM_022.jpg	100
642.3	0.876	876.0	test	Phase1	test/STIM_022.jpg	99
646.69	1.208	1207.5	test	Phase1	test/STIM_022.jpg	100
650.599	1.079	1079.3	test	Phase1	test/STIM_023.jpg	100
655.091	0.653	652.6	test	Phase1	test/STIM_023.jpg	100
659.132	0.951	950.9	test	Phase1	test/STIM_023.jpg	99
663.902	1.111	1111.3	test	Phase1	test/STIM_024.jpg	99
668.571	0.861	861.2	test	Phase1	test/STIM_024.jpg	100
673.246	0.934	933.6	test	Phase1	test/STIM_024.jpg	99
677.806	0.929	929.4	test	Phase1	test/STIM_025.jpg	100
681.0	1.076	1076.3	test	Phase1	test/STIM_025.jpg	100
684.593	0.683	683.1	test	Phase1	test/STIM_025.jpg	99
688.783	0.997	996.6	test	Phase1	test/STIM_026.jpg	99
692.382	0.63	630.2	test	Phase1	test/STIM_026.jpg	99
695.808	0.661	660.9	test	Phase1	test/STIM_026.jpg	99
700.216	0.637	636.7	test	Phase1	test/STIM_027.jpg	100
704.364	1.138	1138.1	test	Phase1	test/STIM_027.jpg	100
709.378	0.605	605.4	test	Phase1	test/STIM_027.jpg	100
712.065	1.176	1176.5	test	Phase1	test/STIM_028.jpg	99
716.613	0.686	686.5	test	Phase1	test/STIM_028.jpg	99
720.836	1.206	1206.0	test	Phase1	test/STIM_028.jpg	99
725.737	1.123	1123.1	test	Phase1	test/STIM_029.jpg	100
729.011	0.677	676.9	test	Phase1	test/STIM_029.jpg	99
732.732	1.196	1196.4	test	Phase1	test/STIM_029.jpg	99
737.114	1.302	1301.6	study	Phase2	study/STIM_000.jpg	100
741.893	1.277	1276.8	study	Phase2	study/STIM_000.jpg	99
746.257	0.822	822.3	study	Phase2	study/STIM_000.jpg	100
749.559	1.356	1355.5	study	Phase2	study/STIM_001.jpg	100
754.059	0.81	810.5	study	Phase2	study/STIM_001.jpg	100
758.142	0.565	565.3	study	Phase2	study/STIM_001.jpg	100
762.742	1.42	1420.2	study	Phase2	study/STIM_002.jpg	100
767.378	1.282	1281.5	study	Phase2	study/STIM_002.jpg	99
772.604	0.903	903.1	study	Phase2	study/STIM_002.jpg	100
776.643	1.156	1156.1	study	Phase2	study/STIM_003.jpg	100
781.094	1.181	1180.7	study	Phase2	study/STIM_003.jpg	99
785.353	0.842	842.5	study	Phase2	study/STIM_003.jpg	100
789.201	0.741	741.1	study	Phase2	study/STIM_004.jpg	100
793.534	1.015	1014.9	study	Phase2	study/STIM_004.jpg	99
797.377	1.21	1210.1	study	Phase2	study/STIM_004.jpg	100
800.769	0.739	738.9	study	Phase2	study/STIM_005.jpg	100
805.292	0.656	655.9	study	Phase2	study/STIM_005.jpg	99
808.444	1.212	1212.4	study	Phase2	study/STIM_005.jpg	100
812.965	1.268	1268.0	study	Phase2	study/STIM_006.jpg	99
817.804	0.658	657.9	study	Phase2	study/STIM_006.jpg	100
822.009	0.964	964.2	study	Phase2	study/STIM_006.jpg	100
825.456	1.411	1410.6	study	Phase2	study/STIM_007.jpg	99
830.331	1.1	1099.7	study	Phase2	study/STIM_007.jpg	100
833.508	0.876	875.9	study	Phase2	study/STIM_007.jpg	100
838.062	0.785	785.4	study	Phase2	study/STIM_008.jpg	100
841.053	0.904	903.6	study	Phase2	study/STIM_008.jpg	99
844.538	0.744	744.2	study	Phase2	study/STIM_008.jpg	99
847.968	1.07	1069.6	study	Phase2	study/STIM_009.jpg	99
851.232	0.923	923.2	study	Phase2	study/STIM_009.jpg	99
854.414	1.232	1231.6	study	Phase2	study/STIM_009.jpg	99
857.751	0.843	842.7	study	Phase2	study/STIM_010.jpg	99
861.779	0.841	840.7	study	Phase2	study/STIM_010.jpg	100
866.137	0.896	895.6	study	Phase2	study/STIM_010.jpg	99
870.306	0.857	856.7	study	Phase2	study/STIM_011.jpg	100
873.969	0.674	673.9	study	Phase2	study/STIM_011.jpg	100
877.79	0.946	946.2	study	Phase2	study/STIM_011.jpg	100
880.812	0.711	711.3	study	Phase2	study/STIM_012.jpg	100
884.369	0.896	896.0	study	Phase2	study/STIM_012.jpg	99
887.751	0.845	844.7	study	Phase2	study/STIM_012.jpg	99
891.077	0.965	964.7	study	Phase2	study/STIM_013.jpg	100
895.784	1.112	1111.6	study	Phase2	study/STIM_013.jpg	100
899.265	0.702	701.9	study	Phase2	study/STIM_013.jpg	100
902.331	0.978	978.2	study	Phase2	study/STIM_014.jpg	100
907.14	1.326	1326.1	study	Phase2	study/STIM_014.jpg	99
912.166	0.745	744.9	study	Phase2	study/STIM_014.jpg	99
915.073	1.408	1408.5	study	Phase2	study/STIM_015.jpg	99
919.203	1.185	1184.6	study	Phase2	study/STIM_015.jpg	100
923.214	1.197	1197.1	study	Phase2	study/STIM_015.jpg	99
927.822	0.928	928.3	study	Phase2	study/STIM_016.jpg	100
932.3	1.288	1288.0	study	Phase2	study/STIM_016.jpg	100
936.221	0.909	909.2	study	Phase2	study/STIM_016.jpg	100
940.123	1.285	1284.7	study	Phase2	study/STIM_017.jpg	100
944.298	0.633	633.1	study	Phase2	study/STIM_017.jpg	100
947.944	1.22	1219.6	study	Phase2	study/STIM_017.jpg	99
952.301	1.22	1219.5	study	Phase2	study/STIM_018.jpg	99
955.89	0.863	862.6	study	Phase2	study/STIM_018.jpg	99
960.558	1.045	1045.0	study	Phase2	study/STIM_018.jpg	100
964.778	0.883	883.0	study	Phase2	study/STIM_019.jpg	100
968.553	0.693	693.0	study	Phase2	study/STIM_019.jpg	100
972.507	1.055	1055.2	study	Phase2	study/STIM_019.jpg	99
977.245	1.3	1299.8	study	Phase2	study/STIM_020.jpg	99
981.992	0.777	777.1	study	Phase2	study/STIM_020.jpg	99
985.355	0.694	693.7	study	Phase2	study/STIM_020.jpg	99
988.82	1.387	1386.7	study	Phase2	study/STIM_021.jpg	100
992.621	1.324	1323.6	study	Phase2	study/STIM_021.jpg	99
997.064	0.837	837.3	study	Phase2	study/STIM_021.jpg	99
1000.528	0.651	651.1	study	Phase2	study/STIM_022.jpg	99
1005.072	0.808	808.3	study	Phase2	study/STIM_022.jpg	100
1009.407	1.112	1112.4	study	Phase2	study/STIM_022.jpg	99
1014.256	0.778	777.7	study	Phase2	study/STIM_023.jpg	100
1017.89	0.838	838.0	study	Phase2	study/STIM_023.jpg	99
1021.457	0.578	577.5	study	Phase2	study/STIM_023.jpg	100
1025.438	1.0	1000.4	study	Phase2	study/STIM_024.jpg	100
1029.369	1.308	1307.8	study	Phase2	study/STIM_024.jpg	99
1034.221	0.727	726.8	study	Phase2	study/STIM_024.jpg	99
1037.16	1.018	1017.8	study	Phase2	study/STIM_025.jpg	99
1041.789	1.145	1145.0	study	Phase2	study/STIM_025.jpg	99
1045.109	1.169	1168.7	study	Phase2	study/STIM_025.jpg	99
1048.702	1.186	1186.1	study	Phase2	study/STIM_026.jpg	99
1052.68	0.789	789.2	study	Phase2	study/STIM_026.jpg	100
1055.997	0.623	623.3	study	Phase2	study/STIM_026.jpg	100
1059.845	0.931	931.1	study	Phase2	study/STIM_027.jpg	99
1064.563	0.843	843.4	study	Phase2	study/STIM_027.jpg	100
1068.991	0.706	706.4	study	Phase2	study/STIM_027.jpg	100
1072.61	1.04	1040.3	study	Phase2	study/STIM_028.jpg	99
1077.702	1.229	1228.7	study	Phase2	study/STIM_028.jpg	100
1081.456	0.854	854.2	study	Phase2	study/STIM_028.jpg	99
1085.382	1.362	1361.7	study	Phase2	study/STIM_029.jpg	100
1089.346	0.768	767.6	study	Phase2	study/STIM_029.jpg	100
1093.091	0.576	575.5	study	Phase2	study/STIM_029.jpg	100
1096.426	0.736	736.4	test	Phase2	test/STIM_000.jpg	100
1101.1	1.186	1185.6	test	Phase2	test/STIM_000.jpg	99
1104.825	0.991	990.6	test	Phase2	test/STIM_000.jpg	100
1108.713	0.94	939.5	test	Phase2	test/STIM_001.jpg	99
1113.612	1.043	1042.7	test	Phase2	test/STIM_001.jpg	99
1118.155	0.609	609.4	test	Phase2	test/STIM_001.jpg	100
1121.856	1.078	1077.7	test	Phase2	test/STIM_002.jpg	100
1126.75	1.002	1002.3	test	Phase2	test/STIM_002.jpg	99
1130.135	0.591	590.9	test	Phase2	test/STIM_002.jpg	99
1133.105	0.595	594.9	test	Phase2	test/STIM_003.jpg	99
1136.856	0.891	891.3	test	Phase2	test/STIM_003.jpg	100
1141.688	1.128	1128.1	test	Phase2	test/STIM_003.jpg	99
1145.836	0.905	905.4	test	Phase2	test/STIM_004.jpg	100
1149.654	0.925	924.9	test	Phase2	test/STIM_004.jpg	99
1154.162	0.931	931.2	test	Phase2	test/STIM_004.jpg	99
1157.258	1.161	1160.7	test	Phase2	test/STIM_005.jpg	99
1162.128	0.657	657.3	test	Phase2	test/STIM_005.jpg	100
1166.787	1.191	1191.0	test	Phase2	test/STIM_005.jpg	99
1170.918	0.668	667.6	test	Phase2	test/STIM_006.jpg	100
1173.997	0.618	618.2	test	Phase2	test/STIM_006.jpg	100
1177.135	1.219	1218.7	test	Phase2	test/STIM_006.jpg	99
1181.148	1.167	1166.6	test	Phase2	test/STIM_007.jpg	100
1184.641	0.893	892.9	test	Phase2	test/STIM_007.jpg	99
1189.12	1.022	1022.0	test	Phase2	test/STIM_007.jpg	99
1193.144	0.907	906.7	test	Phase2	test/STIM_008.jpg	99
1196.323	1.162	1161.5	test	Phase2	test/STIM_008.jpg	99
1200.496	0.94	940.2	test	Phase2	test/STIM_008.jpg	99
1204.556	1.056	1056.4	test	Phase2	test/STIM_009.jpg	99
1208.64	0.87	869.5	test	Phase2	test/STIM_009.jpg	100
1213.07	1.059	1059.0	test	Phase2	test/STIM_009.jpg	99
1217.431	1.078	1078.1	test	Phase2	test/STIM_010.jpg	100
1222.134	1.128	1127.9	test	Phase2	test/STIM_010.jpg	100
1225.945	0.961	961.0	test	Phase2	test/STIM_010.jpg	99
1230.848	0.693	692.8	test	Phase2	test/STIM_011.jpg	100
1235.573	0.69	689.5	test	Phase2	test/STIM_011.jpg	100
1238.933	1.098	1098.5	test	Phase2	test/STIM_011.jpg	100
1242.423	1.18	1179.7	test	Phase2	test/STIM_012.jpg	99
1247.159	0.756	756.3	test	Phase2	test/STIM_012.jpg	100
1251.568	0.601	601.4	test	Phase2	test/STIM_012.jpg	99
1255.767	0.902	902.3	test	Phase2	test/STIM_013.jpg	100
1258.859	1.059	1059.0	test	Phase2	test/STIM_013.jpg	99
1263.601	0.937	936.6	test	Phase2	test/STIM_013.jpg	100
1267.022	0.825	825.4	test	Phase2	test/STIM_014.jpg	100
1271.72	0.714	714.1	test	Phase2	test/STIM_014.jpg	99
1274.696	0.845	845.4	test	Phase2	test/STIM_014.jpg	100
1279.484	0.76	760.3	test	Phase2	test/STIM_015.jpg	100
1282.591	0.882	881.7	test	Phase2	test/STIM_015.jpg	99
1286.241	0.576	576.0	test	Phase2	test/STIM_015.jpg	100
1290.653	0.859	859.4	test	Phase2	test/STIM_016.jpg	99
1294.86	1.194	1194.5	test	Phase2	test/STIM_016.jpg	100
1299.378	1.171	1170.7	test	Phase2	test/STIM_016.jpg	99
1303.95	0.855	855.2	test	Phase2	test/STIM_017.jpg	100
1307.866	1.148	1148.5	test	Phase2	test/STIM_017.jpg	100
1312.423	0.819	819.3	test	Phase2	test/STIM_017.jpg	100
1316.587	0.578	577.9	test	Phase2	test/STIM_018.jpg	99
1320.554	0.64	640.1	test	Phase2	test/STIM_018.jpg	99
1323.878	0.92	919.9	test	Phase2	test/STIM_018.jpg	100
1327.347	0.853	852.7	test	Phase2	test/STIM_019.jpg	99
1330.565	0.75	750.2	test	Phase2	test/STIM_019.jpg	100
1335.087	0.992	991.8	test	Phase2	test/STIM_019.jpg	99
1340.034	1.05	1049.7	test	Phase2	test/STIM_020.jpg	99
1344.345	0.656	655.8	test	Phase2	test/STIM_020.jpg	100
1347.444	0.793	792.8	test	Phase2	test/STIM_020.jpg	99
1350.601	0.578	578.5	test	Phase2	test/STIM_021.jpg	99
1354.864	0.575	575.0	test	Phase2	test/STIM_021.jpg	99
1359.089	0.766	766.4	test	Phase2	test/STIM_021.jpg	99
1362.663	1.09	1089.8	test	Phase2	test/STIM_022.jpg	100
1365.945	1.146	1145.7	test	Phase2	test/STIM_022.jpg	99
1370.578	1.072	1072.2	test	Phase2	test/STIM_022.jpg	99
1375.225	0.876	875.9	test	Phase2	test/STIM_023.jpg	99
1379.235	0.744	743.5	test	Phase2	test/STIM_023.jpg	100
1382.616	0.933	932.9	test	Phase2	test/STIM_023.jpg	100
1386.958	0.69	689.7	test	Phase2	test/STIM_024.jpg	99
1389.739	0.645	645.1	test	Phase2	test/STIM_024.jpg	99
1392.869	0.781	780.8	test	Phase2	test/STIM_024.jpg	100
1397.569	0.643	643.3	test	Phase2	test/STIM_025.jpg	100
1401.322	0.929	929.1	test	Phase2	test/STIM_025.jpg	100
1404.795	1.079	1078.7	test	Phase2	test/STIM_025.jpg	99
1408.856	0.924	924.5	test	Phase2	test/STIM_026.jpg	99
1413.45	1.058	1058.2	test	Phase2	test/STIM_026.jpg	99
1418.198	0.906	906.5	test	Phase2	test/STIM_026.jpg	99
1422.894	0.878	878.5	test	Phase2	test/STIM_027.jpg	99
1427.083	0.846	846.0	test	Phase2	test/STIM_027.jpg	99
1430.192	0.948	947.9	test	Phase2	test/STIM_027.jpg	100
1433.511	0.959	959.4	test	Phase2	test/STIM_028.jpg	100
1437.055	1.195	1194.7	test	Phase2	test/STIM_028.jpg	99
1441.454	0.917	916.9	test	Phase2	test/STIM_028.jpg	99
1445.776	0.903	902.8	test	Phase2	test/STIM_029.jpg	100
1448.868	0.758	757.9	test	Phase2	test/STIM_029.jpg	99
1452.02	0.709	709.3	test	Phase2	test/STIM_029.jpg	99
1456.555	0.988	988.4	study	Phase3	study/STIM_000.jpg	99
1461.433	1.139	1138.7	study	Phase3	study/STIM_000.jpg	99
1465.595	1.073	1073.4	study	Phase3	study/STIM_000.jpg	99
1468.779	0.746	745.7	study	Phase3	study/STIM_001.jpg	100
1471.819	1.044	1044.3	study	Phase3	study/STIM_001.jpg	99
1475.13	0.592	591.7	study	Phase3	study/STIM_001.jpg	99
1478.471	0.878	878.2	study	Phase3	study/STIM_002.jpg	99
1483.11	0.621	620.9	study	Phase3	study/STIM_002.jpg	100
1486.868	1.013	1012.7	study	Phase3	study/STIM_002.jpg	99
1490.886	0.546	546.0	study	Phase3	study/STIM_003.jpg	100
1494.216	0.844	844.3	study	Phase3	study/STIM_003.jpg	99
1498.763	1.15	1150.5	study	Phase3	study/STIM_003.jpg	100
1502.092	1.014	1014.0	study	Phase3	study/STIM_004.jpg	99
1506.637	0.813	813.3	study	Phase3	study/STIM_004.jpg	100
1510.058	0.808	808.5	study	Phase3	study/STIM_004.jpg	100
1513.183	0.716	716.3	study	Phase3	study/STIM_005.jpg	99
1517.176	0.84	839.7	study	Phase3	study/STIM_005.jpg	99
1521.549	1.04	1039.7	study	Phase3	study/STIM_005.jpg	100
1525.187	0.865	865.3	study	Phase3	study/STIM_006.jpg	100
1529.846	1.04	1039.7	study	Phase3	study/STIM_006.jpg	99
1534.649	0.53	530.1	study	Phase3	study/STIM_006.jpg	99
1537.322	0.843	842.9	study	Phase3	study/STIM_007.jpg	99
1540.575	1.036	1035.5	study	Phase3	study/STIM_007.jpg	99
1545.656	1.09	1089.5	study	Phase3	study/STIM_007.jpg	100
1549.997	0.687	687.0	study	Phase3	study/STIM_008.jpg	100
1553.647	0.792	792.5	study	Phase3	study/STIM_008.jpg	100
1556.829	0.898	897.6	study	Phase3	study/STIM_008.jpg	100
1560.381	1.041	1041.2	study	Phase3	study/STIM_009.jpg	99
1563.812	0.656	655.5	study	Phase3	study/STIM_009.jpg	100
1566.825	0.898	898.1	study	Phase3	study/STIM_009.jpg	99
1571.571	0.74	740.5	study	Phase3	study/STIM_010.jpg	99
1576.265	0.721	721.0	study	Phase3	study/STIM_010.jpg	100
1581.026	1.053	1052.8	study	Phase3	study/STIM_010.jpg	99
1585.362	0.767	767.1	study	Phase3	study/STIM_011.jpg	99
1588.312	1.116	1115.7	study	Phase3	study/STIM_011.jpg	100
1591.582	1.147	1146.6	study	Phase3	study/STIM_011.jpg	99
1595.523	1.158	1158.2	study	Phase3	study/STIM_012.jpg	100
1600.557	0.919	919.3	study	Phase3	study/STIM_012.jpg	100
1605.153	1.147	1146.6	study	Phase3	study/STIM_012.jpg	100
1609.435	1.099	1099.0	study	Phase3	study/STIM_013.jpg	100
1614.205	1.168	1168.4	study	Phase3	study/STIM_013.jpg	100
1618.077	0.605	605.4	study	Phase3	study/STIM_013.jpg	100
1622.045	0.534	534.4	study	Phase3	study/STIM_014.jpg	100
1625.267	1.104	1103.9	study	Phase3	study/STIM_014.jpg	99
1628.539	0.891	890.7	study	Phase3	study/STIM_014.jpg	99
1631.97	0.649	648.6	study	Phase3	study/STIM_015.jpg	99
1634.77	1.147	1146.6	study	Phase3	study/STIM_015.jpg	100
1639.891	1.04	1039.9	study	Phase3	study/STIM_015.jpg	99
1643.341	0.968	968.5	study	Phase3	study/STIM_016.jpg	99
1647.486	0.89	890.4	study	Phase3	study/STIM_016.jpg	99
1651.26	0.626	626.4	study	Phase3	study/STIM_016.jpg	99
1655.296	0.559	559.1	study	Phase3	study/STIM_017.jpg	99
1659.165	0.59	590.1	study	Phase3	study/STIM_017.jpg	99
1662.147	0.796	795.9	study	Phase3	study/STIM_017.jpg	100
1665.723	0.778	778.1	study	Phase3	study/STIM_018.jpg	99
1669.168	0.959	958.9	study	Phase3	study/STIM_018.jpg	100
1672.492	0.557	557.4	study	Phase3	study/STIM_018.jpg	99
1676.186	1.073	1072.6	study	Phase3	study/STIM_019.jpg	100
1680.991	0.59	590.0	study	Phase3	study/STIM_019.jpg	100
1685.262	0.901	901.0	study	Phase3	study/STIM_019.jpg	100
1688.911	0.66	660.0	study	Phase3	study/STIM_020.jpg	100
1692.927	1.185	1185.1	study	Phase3	study/STIM_020.jpg	99
1697.055	1.017	1017.0	study	Phase3	study/STIM_020.jpg	99
1700.965	0.807	807.1	study	Phase3	study/STIM_021.jpg	100
1704.605	0.582	582.1	study	Phase3	study/STIM_021.jpg	99
1708.62	0.718	717.7	study	Phase3	study/STIM_021.jpg	99
1712.348	0.745	744.9	study	Phase3	study/STIM_022.jpg	99
1715.974	1.013	1013.1	study	Phase3	study/STIM_022.jpg	99
1720.497	1.092	1092.0	study	Phase3	study/STIM_022.jpg	100
1724.986	1.158	1157.8	study	Phase3	study/STIM_023.jpg	99
1730.077	0.625	624.9	study	Phase3	study/STIM_023.jpg	99
1734.375	0.791	791.0	study	Phase3	study/STIM_023.jpg	100
1737.738	0.675	675.1	study	Phase3	study/STIM_024.jpg	100
1740.849	0.901	900.6	study	Phase3	study/STIM_024.jpg	100
1745.283	0.771	771.1	study	Phase3	study/STIM_024.jpg	100
1748.76	0.6	600.4	study	Phase3	study/STIM_025.jpg	100
1752.479	1.167	1167.3	study	Phase3	study/STIM_025.jpg	100
1757.234	0.6	599.7	study	Phase3	study/STIM_025.jpg	99
1760.212	0.572	572.4	study	Phase3	study/STIM_026.jpg	100
1763.935	0.72	719.5	study	Phase3	study/STIM_026.jpg	100
1768.405	1.056	1056.5	study	Phase3	study/STIM_026.jpg	100
1773.308	1.097	1097.3	study	Phase3	study/STIM_027.jpg	100
1778.343	0.724	723.7	study	Phase3	study/STIM_027.jpg	100
1782.398	0.608	608.4	study	Phase3	study/STIM_027.jpg	100
1786.59	0.955	955.0	study	Phase3	study/STIM_028.jpg	99
1791.506	0.967	967.1	study	Phase3	study/STIM_028.jpg	99
1795.094	0.75	750.3	study	Phase3	study/STIM_028.jpg	100
1797.961	0.7	699.5	study	Phase3	study/STIM_029.jpg	99
1802.16	0.937	936.9	study	Phase3	study/STIM_029.jpg	100
1805.684	0.908	907.9	study	Phase3	study/STIM_029.jpg	100
1810.432	0.86	859.9	test	Phase3	test/STIM_000.jpg	100
1813.824	1.124	1123.8	test	Phase3	test/STIM_000.jpg	100
1818.868	0.811	810.9	test	Phase3	test/STIM_000.jpg	100
1822.393	0.834	834.3	test	Phase3	test/STIM_001.jpg	99
1826.453	0.86	859.9	test	Phase3	test/STIM_001.jpg	100
1829.937	0.818	817.8	test	Phase3	test/STIM_001.jpg	100
1834.001	0.651	651.0	test	Phase3	test/STIM_002.jpg	100
1838.054	0.762	761.7	test	Phase3	test/STIM_002.jpg	99
1842.757	0.578	578.3	test	Phase3	test/STIM_002.jpg	99
1846.395	0.973	972.6	test	Phase3	test/STIM_003.jpg	99
1850.34	0.691	691.3	test	Phase3	test/STIM_003.jpg	100
1854.555	0.934	933.6	test	Phase3	test/STIM_003.jpg	100
1858.545	1.108	1107.5	test	Phase3	test/STIM_004.jpg	100
1863.452	0.596	595.6	test	Phase3	test/STIM_004.jpg	99
1866.751	1.012	1011.8	test	Phase3	test/STIM_004.jpg	99
1870.938	1.128	1128.4	test	Phase3	test/STIM_005.jpg	100
1874.306	0.59	589.5	test	Phase3	test/STIM_005.jpg	99
1877.071	0.612	611.8	test	Phase3	test/STIM_005.jpg	100
1880.14	0.699	699.3	test	Phase3	test/STIM_006.jpg	99
1883.444	0.709	709.3	test	Phase3	test/STIM_006.jpg	100
1886.78	0.618	617.7	test	Phase3	test/STIM_006.jpg	100
1890.607	0.705	704.6	test	Phase3	test/STIM_007.jpg	99
1895.267	1.195	1195.1	test	Phase3	test/STIM_007.jpg	100
1898.732	0.867	866.7	test	Phase3	test/STIM_007.jpg	100
1902.483	1.164	1164.1	test	Phase3	test/STIM_008.jpg	100
1906.821	0.669	668.9	test	Phase3	test/STIM_008.jpg	99
1911.518	0.788	787.7	test	Phase3	test/STIM_008.jpg	100
1915.498	1.056	1055.9	test	Phase3	test/STIM_009.jpg	100
1919.668	0.784	784.0	test	Phase3	test/STIM_009.jpg	99
1922.823	0.901	901.0	test	Phase3	test/STIM_009.jpg	99
1927.46	0.978	978.5	test	Phase3	test/STIM_010.jpg	99
1931.699	0.685	684.8	test	Phase3	test/STIM_010.jpg	100
1935.756	0.812	811.5	test	Phase3	test/STIM_010.jpg	100
1938.943	1.077	1076.9	test	Phase3	test/STIM_011.jpg	99
1942.717	1.088	1087.6	test	Phase3	test/STIM_011.jpg	99
1946.366	0.869	869.2	test	Phase3	test/STIM_011.jpg	100
1950.528	0.936	935.8	test	Phase3	test/STIM_012.jpg	100
1953.786	0.599	598.9	test	Phase3	test/STIM_012.jpg	100
1957.713	1.129	1128.6	test	Phase3	test/STIM_012.jpg	100
1961.299	0.978	977.7	test	Phase3	test/STIM_013.jpg	99
1965.154	0.81	809.9	test	Phase3	test/STIM_013.jpg	99
1969.25	0.665	664.7	test	Phase3	test/STIM_013.jpg	100
1973.228	0.918	917.9	test	Phase3	test/STIM_014.jpg	100
1976.511	1.171	1170.9	test	Phase3	test/STIM_014.jpg	100
1980.28	1.102	1101.8	test	Phase3	test/STIM_014.jpg	100
1985.112	0.781	781.0	test	Phase3	test/STIM_015.jpg	99
1988.403	1.047	1046.9	test	Phase3	test/STIM_015.jpg	99
1993.314	0.81	809.8	test	Phase3	test/STIM_015.jpg	100
1996.222	1.208	1207.9	test	Phase3	test/STIM_016.jpg	99
2000.399	1.171	1171.3	test	Phase3	test/STIM_016.jpg	100
2004.71	0.719	718.9	test	Phase3	test/STIM_016.jpg	99
2008.123	0.86	860.0	test	Phase3	test/STIM_017.jpg	100
2011.6	1.118	1117.7	test	Phase3	test/STIM_017.jpg	100
2016.398	0.912	912.3	test	Phase3	test/STIM_017.jpg	99
2021.006	0.594	594.2	test	Phase3	test/STIM_018.jpg	99
2024.695	0.826	826.5	test	Phase3	test/STIM_018.jpg	100
2028.105	1.155	1155.0	test	Phase3	test/STIM_018.jpg	99
2032.553	0.91	909.6	test	Phase3	test/STIM_019.jpg	100
2036.753	1.042	1042.5	test	Phase3	test/STIM_019.jpg	100
2040.593	1.113	1113.4	test	Phase3	test/STIM_019.jpg	99
2045.006	0.715	715.4	test	Phase3	test/STIM_020.jpg	100
2049.338	0.83	829.5	test	Phase3	test/STIM_020.jpg	100
2052.374	0.898	898.1	test	Phase3	test/STIM_020.jpg	99
2055.654	0.842	842.5	test	Phase3	test/STIM_021.jpg	100
2058.86	0.743	742.7	test	Phase3	test/STIM_021.jpg	100
2063.099	0.984	983.9	test	Phase3	test/STIM_021.jpg	99
2067.307	1.116	1115.6	test	Phase3	test/STIM_022.jpg	100
2072.085	0.944	944.0	test	Phase3	test/STIM_022.jpg	100
2075.166	0.694	693.8	test	Phase3	test/STIM_022.jpg	100
2079.556	1.104	1104.3	test	Phase3	test/STIM_023.jpg	100
2083.574	1.179	1178.9	test	Phase3	test/STIM_023.jpg	100
2088.7	0.932	931.7	test	Phase3	test/STIM_023.jpg	100
2093.162	0.76	759.8	test	Phase3	test/STIM_024.jpg	100
2096.313	0.584	584.2	test	Phase3	test/STIM_024.jpg	99
2099.907	1.21	1209.8	test	Phase3	test/STIM_024.jpg	100
2104.879	1.203	1202.8	test	Phase3	test/STIM_025.jpg	99
2108.367	0.794	794.0	test	Phase3	test/STIM_025.jpg	100
2112.886	0.806	806.5	test	Phase3	test/STIM_025.jpg	99
2117.348	0.958	958.1	test	Phase3	test/STIM_026.jpg	99
2121.974	1.196	1195.5	test	Phase3	test/STIM_026.jpg	100
2125.816	1.105	1104.8	test	Phase3	test/STIM_026.jpg	100
2130.968	1.168	1168.2	test	Phase3	test/STIM_027.jpg	100
2135.557	0.995	995.3	test	Phase3	test/STIM_027.jpg	99
2138.793	0.94	940.1	test	Phase3	test/STIM_027.jpg	99
2142.883	0.722	722.2	test	Phase3	test/STIM_028.jpg	100
2146.417	1.15	1149.7	test	Phase3	test/STIM_028.jpg	99
2151.38	0.822	821.8	test	Phase3	test/STIM_028.jpg	99
2154.825	1.098	1098.0	test	Phase3	test/STIM_029.jpg	99
2159.61	0.986	986.5	test	Phase3	test/STIM_029.jpg	99
2163.931	1.197	1197.1	test	Phase3	test/STIM_029.jpg	100
