onset	duration	accuracy_binary	trial_type	learning_stage	stimulus
0.0	1.617	1	study	Phase1	study/STIM_000.jpg
4.158	1.943	0	study	Phase1	study/STIM_000.jpg
8.23	1.16	1	study	Phase1	study/STIM_000.jpg
12.564	1.701	1	study	Phase1	study/STIM_001.jpg
17.21	1.242	1	study	Phase1	study/STIM_001.jpg
21.65	1.85	1	study	Phase1	study/STIM_001.jpg
27.036	1.042	0	study	Phase1	study/STIM_002.jpg
30.516	2.0	0	study	Phase1	study/STIM_002.jpg
35.673	1.066	0	study	Phase1	study/STIM_002.jpg
39.566	1.033	1	study	Phase1	study/STIM_003.jpg
44.159	1.257	1	study	Phase1	study/STIM_003.jpg
48.141	1.734	1	study	Phase1	study/STIM_003.jpg
52.055	2.018	0	study	Phase1	study/STIM_004.jpg
56.422	1.788	0	study	Phase1	study/STIM_004.jpg
60.455	1.254	1	study	Phase1	study/STIM_004.jpg
64.063	1.398	0	study	Phase1	study/STIM_005.jpg
68.173	1.766	1	study	Phase1	study/STIM_005.jpg
73.458	1.591	1	study	Phase1	study/STIM_005.jpg
77.914	1.846	1	study	Phase1	study/STIM_006.jpg
83.496	2.021	1	study	Phase1	study/STIM_006.jpg
89.495	1.543	1	study	Phase1	study/STIM_006.jpg
94.048	1.264	1	study	Phase1	study/STIM_007.jpg
98.292	1.277	1	study	Phase1	study/STIM_007.jpg
102.373	1.2	1	study	Phase1	study/STIM_007.jpg
107.104	1.467	0	study	Phase1	study/STIM_008.jpg
112.337	1.808	0	study	Phase1	study/STIM_008.jpg
117.588	1.055	1	study	Phase1	study/STIM_008.jpg
121.455	1.787	0	study	Phase1	study/STIM_009.jpg
126.367	1.682	1	study	Phase1	study/STIM_009.jpg
131.234	1.392	0	study	Phase1	study/STIM_009.jpg
135.447	1.364	1	study	Phase1	study/STIM_010.jpg
140.21	1.583	1	study	Phase1	study/STIM_010.jpg
143.891	1.514	1	study	Phase1	study/STIM_010.jpg
147.492	1.604	1	study	Phase1	study/STIM_011.jpg
151.105	1.254	1	study	Phase1	study/STIM_011.jpg
154.523	1.554	1	study	Phase1	study/STIM_011.jpg
158.38	1.034	1	study	Phase1	study/STIM_012.jpg
162.885	1.14	1	study	Phase1	study/STIM_012.jpg
167.117	1.279	0	study	Phase1	study/STIM_012.jpg
170.78	1.543	1	study	Phase1	study/STIM_013.jpg
175.24	1.396	1	study	Phase1	study/STIM_013.jpg
179.949	1.59	0	study	Phase1	study/STIM_013.jpg
185.526	1.678	1	study	Phase1	study/STIM_014.jpg
190.762	1.098	1	study	Phase1	study/STIM_014.jpg
194.909	1.97	1	study	Phase1	study/STIM_014.jpg
200.478	1.562	0	study	Phase1	study/STIM_015.jpg
204.68	1.9	1	study	Phase1	study/STIM_015.jpg
210.123	1.037	0	study	Phase1	study/STIM_015.jpg
214.234	1.135	0	study	Phase1	study/STIM_016.jpg
217.544	2.051	0	study	Phase1	study/STIM_016.jpg
222.837	1.11	1	study	Phase1	study/STIM_016.jpg
226.236	1.64	1	study	Phase1	study/STIM_017.jpg
229.914	1.053	0	study	Phase1	study/STIM_017.jpg
234.395	1.871	1	study	Phase1	study/STIM_017.jpg
239.316	1.111	1	study	Phase1	study/STIM_018.jpg
242.638	1.338	1	study	Phase1	study/STIM_018.jpg
246.695	1.248	0	study	Phase1	study/STIM_018.jpg
250.286	2.02	0	study	Phase1	study/STIM_019.jpg
255.288	1.057	1	study	Phase1	study/STIM_019.jpg
259.987	1.204	0	study	Phase1	study/STIM_019.jpg
264.544	2.194	1	study	Phase1	study/STIM_020.jpg
269.141	1.456	1	study	Phase1	study/STIM_020.jpg
272.736	1.664	1	study	Phase1	study/STIM_020.jpg
278.347	1.314	0	study	Phase1	study/STIM_021.jpg
282.782	1.167	1	study	Phase1	study/STIM_021.jpg
287.623	1.779	1	study	Phase1	study/STIM_021.jpg
292.367	1.674	1	study	Phase1	study/STIM_022.jpg
296.519	1.893	1	study	Phase1	study/STIM_022.jpg
302.007	1.741	0	study	Phase1	study/STIM_022.jpg
307.204	1.245	1	study	Phase1	study/STIM_023.jpg
311.85	1.766	0	study	Phase1	study/STIM_023.jpg
315.98	1.415	1	study	Phase1	study/STIM_023.jpg
320.518	2.058	1	study	Phase1	study/STIM_024.jpg
326.166	1.947	1	study	Phase1	study/STIM_024.jpg
331.856	1.126	1	study	Phase1	study/STIM_024.jpg
335.331	1.204	1	study	Phase1	study/STIM_025.jpg
340.455	1.623	1	study	Phase1	study/STIM_025.jpg
345.953	0.979	1	study	Phase1	study/STIM_025.jpg
349.514	1.739	1	study	Phase1	study/STIM_026.jpg
354.826	1.007	1	study	Phase1	study/STIM_026.jpg
358.596	1.5	1	study	Phase1	study/STIM_026.jpg
364.024	2.068	1	study	Phase1	study/STIM_027.jpg
369.354	1.448	1	study	Phase1	study/STIM_027.jpg
373.912	1.278	0	study	Phase1	study/STIM_027.jpg
377.379	2.183	1	study	Phase1	study/STIM_028.jpg
382.123	2.003	1	study	Phase1	study/STIM_028.jpg
387.746	1.612	1	study	Phase1	study/STIM_028.jpg
392.227	1.54	1	study	Phase1	study/STIM_029.jpg
397.287	1.273	1	study	Phase1	study/STIM_029.jpg
401.748	1.781	0	study	Phase1	study/STIM_029.jpg
406.932	1.021	1	test	Phase1	test/STIM_000.jpg
411.416	1.021	1	test	Phase1	test/STIM_000.jpg
414.763	1.584	0	test	Phase1	test/STIM_000.jpg
418.924	1.373	0	test	Phase1	test/STIM_001.jpg
423.604	0.788	1	test	Phase1	test/STIM_001.jpg
428.349	0.84	1	test	Phase1	test/STIM_001.jpg
431.33	1.312	1	test	Phase1	test/STIM_002.jpg
435.262	1.027	0	test	Phase1	test/STIM_002.jpg
440.172	1.515	1	test	Phase1	test/STIM_002.jpg
443.899	0.937	1	test	Phase1	test/STIM_003.jpg
448.777	1.256	1	test	Phase1	test/STIM_003.jpg
453.668	0.853	1	test	Phase1	test/STIM_003.jpg
458.47	1.568	0	test	Phase1	test/STIM_004.jpg
463.137	1.239	1	test	Phase1	test/STIM_004.jpg
467.47	1.292	1	test	Phase1	test/STIM_004.jpg
471.393	0.788	1	test	Phase1	test/STIM_005.jpg
475.788	1.389	0	test	Phase1	test/STIM_005.jpg
480.426	0.892	1	test	Phase1	test/STIM_005.jpg
484.56	1.468	1	test	Phase1	test/STIM_006.jpg
488.083	1.522	1	test	Phase1	test/STIM_006.jpg
492.517	0.804	1	test	Phase1	test/STIM_006.jpg
496.368	1.442	0	test	Phase1	test/STIM_007.jpg
499.952	1.342	0	test	Phase1	test/STIM_007.jpg
503.474	1.079	1	test	Phase1	test/STIM_007.jpg
508.211	1.134	1	test	Phase1	test/STIM_008.jpg
512.499	1.577	0	test	Phase1	test/STIM_008.jpg
517.774	1.066	1	test	Phase1	test/STIM_008.jpg
522.024	1.115	1	test	Phase1	test/STIM_009.jpg
525.334	1.111	1	test	Phase1	test/STIM_009.jpg
529.696	1.401	0	test	Phase1	test/STIM_009.jpg
533.74	1.199	1	test	Phase1	test/STIM_010.jpg
537.03	1.191	1	test	Phase1	test/STIM_010.jpg
540.431	1.11	1	test	Phase1	test/STIM_010.jpg
544.598	0.762	0	test	Phase1	test/STIM_011.jpg
547.823	1.03	1	test	Phase1	test/STIM_011.jpg
552.57	0.777	1	test	Phase1	test/STIM_011.jpg
556.137	1.268	0	test	Phase1	test/STIM_012.jpg
560.86	1.383	1	test	Phase1	test/STIM_012.jpg
566.067	1.092	1	test	Phase1	test/STIM_012.jpg
570.495	1.255	1	test	Phase1	test/STIM_013.jpg
575.67	1.219	1	test	Phase1	test/STIM_013.jpg
579.686	0.917	1	test	Phase1	test/STIM_013.jpg
584.007	1.224	1	test	Phase1	test/STIM_014.jpg
588.912	1.283	1	test	Phase1	test/STIM_014.jpg
593.589	1.222	1	test	Phase1	test/STIM_014.jpg
598.278	1.032	1	test	Phase1	test/STIM_015.jpg
602.275	1.32	1	test	Phase1	test/STIM_015.jpg
606.894	1.446	1	test	Phase1	test/STIM_015.jpg
611.751	0.795	0	test	Phase1	test/STIM_016.jpg
614.611	1.279	1	test	Phase1	test/STIM_016.jpg
619.433	0.955	1	test	Phase1	test/STIM_016.jpg
623.621	0.739	1	test	Phase1	test/STIM_017.jpg
626.847	0.994	1	test	Phase1	test/STIM_017.jpg
631.367	0.965	1	test	Phase1	test/STIM_017.jpg
635.414	1.134	1	test	Phase1	test/STIM_018.jpg
639.075	0.815	0	test	Phase1	test/STIM_018.jpg
642.26	1.092	0	test	Phase1	test/STIM_018.jpg
647.113	1.018	1	test	Phase1	test/STIM_019.jpg
652.028	1.544	1	test	Phase1	test/STIM_019.jpg
657.539	1.3	1	test	Phase1	test/STIM_019.jpg
662.616	1.139	1	test	Phase1	test/STIM_020.jpg
667.338	1.273	1	test	Phase1	test/STIM_020.jpg
672.266	1.012	1	test	Phase1	test/STIM_020.jpg
676.745	1.229	1	test	Phase1	test/STIM_021.jpg
680.337	0.866	1	test	Phase1	test/STIM_021.jpg
683.375	0.915	1	test	Phase1	test/STIM_021.jpg
686.556	0.95	1	test	Phase1	test/STIM_022.jpg
690.9	1.0	1	test	Phase1	test/STIM_022.jpg
694.401	1.243	0	test	Phase1	test/STIM_022.jpg
699.148	1.056	1	test	Phase1	test/STIM_023.jpg
703.419	1.377	1	test	Phase1	test/STIM_023.jpg
708.228	1.099	1	test	Phase1	test/STIM_023.jpg
712.497	0.905	1	test	Phase1	test/STIM_024.jpg
717.076	1.565	1	test	Phase1	test/STIM_024.jpg
721.992	1.478	1	test	Phase1	test/STIM_024.jpg
727.295	0.969	1	test	Phase1	test/STIM_025.jpg
730.739	1.24	1	test	Phase1	test/STIM_025.jpg
733.981	1.286	1	test	Phase1	test/STIM_025.jpg
738.956	0.958	0	test	Phase1	test/STIM_026.jpg
742.068	1.199	0	test	Phase1	test/STIM_026.jpg
745.947	1.13	1	test	Phase1	test/STIM_026.jpg
749.287	1.186	1	test	Phase1	test/STIM_027.jpg
752.898	0.957	1	test	Phase1	test/STIM_027.jpg
756.844	1.485	1	test	Phase1	test/STIM_027.jpg
761.502	0.978	1	test	Phase1	test/STIM_028.jpg
766.066	1.422	1	test	Phase1	test/STIM_028.jpg
770.996	1.469	1	test	Phase1	test/STIM_028.jpg
775.968	1.403	1	test	Phase1	test/STIM_029.jpg
780.998	1.417	1	test	Phase1	test/STIM_029.jpg
786.258	1.192	1	test	Phase1	test/STIM_029.jpg
789.488	1.814	1	study	Phase2	study/STIM_000.jpg
794.057	1.247	1	study	Phase2	study/STIM_000.jpg
798.485	1.459	1	study	Phase2	study/STIM_000.jpg
803.43	1.536	1	study	Phase2	study/STIM_001.jpg
807.616	1.642	1	study	Phase2	study/STIM_001.jpg
812.008	1.327	1	study	Phase2	study/STIM_001.jpg
816.351	1.589	1	study	Phase2	study/STIM_002.jpg
820.377	0.907	1	study	Phase2	study/STIM_002.jpg
823.327	1.245	1	study	Phase2	study/STIM_002.jpg
828.304	1.86	1	study	Phase2	study/STIM_003.jpg
833.064	1.127	1	study	Phase2	study/STIM_003.jpg
837.407	1.052	1	study	Phase2	study/STIM_003.jpg
841.749	1.413	0	study	Phase2	study/STIM_004.jpg
847.045	1.551	1	study	Phase2	study/STIM_004.jpg
852.114	1.151	0	study	Phase2	study/STIM_004.jpg
857.038	1.095	1	study	Phase2	study/STIM_005.jpg
860.999	0.836	1	study	Phase2	study/STIM_005.jpg
865.334	1.054	1	study	Phase2	study/STIM_005.jpg
869.569	0.911	0	study	Phase2	study/STIM_006.jpg
873.534	1.398	1	study	Phase2	study/STIM_006.jpg
878.284	0.824	1	study	Phase2	study/STIM_006.jpg
882.328	1.58	0	study	Phase2	study/STIM_007.jpg
886.351	1.597	1	study	Phase2	study/STIM_007.jpg
891.099	1.244	1	study	Phase2	study/STIM_007.jpg
894.482	1.15	1	study	Phase2	study/STIM_008.jpg
898.593	1.671	1	study	Phase2	study/STIM_008.jpg
903.829	1.001	1	study	Phase2	study/STIM_008.jpg
907.669	1.205	1	study	Phase2	study/STIM_009.jpg
911.899	1.117	0	study	Phase2	study/STIM_009.jpg
915.349	1.447	1	study	Phase2	study/STIM_009.jpg
919.134	1.429	0	study	Phase2	study/STIM_010.jpg
923.145	1.226	1	study	Phase2	study/STIM_010.jpg
926.459	1.456	1	study	Phase2	study/STIM_010.jpg
931.434	1.487	0	study	Phase2	study/STIM_011.jpg
936.369	1.018	1	study	Phase2	study/STIM_011.jpg
939.51	1.098	1	study	Phase2	study/STIM_011.jpg
943.447	0.845	0	study	Phase2	study/STIM_012.jpg
948.157	1.567	1	study	Phase2	study/STIM_012.jpg
953.16	1.352	0	study	Phase2	study/STIM_012.jpg
957.254	1.788	1	study	Phase2	study/STIM_013.jpg
962.562	1.339	1	study	Phase2	study/STIM_013.jpg
966.919	1.418	1	study	Phase2	study/STIM_013.jpg
970.4	1.494	1	study	Phase2	study/STIM_014.jpg
974.028	1.188	1	study	Phase2	study/STIM_014.jpg
979.124	1.456	1	study	Phase2	study/STIM_014.jpg
983.329	1.025	0	study	Phase2	study/STIM_015.jpg
987.901	1.653	1	study	Phase2	study/STIM_015.jpg
991.753	0.852	0	study	Phase2	study/STIM_015.jpg
996.292	1.315	1	study	Phase2	study/STIM_016.jpg
1000.713	1.371	1	study	Phase2	study/STIM_016.jpg
1004.892	1.307	0	study	Phase2	study/STIM_016.jpg
1010.196	1.13	1	study	Phase2	study/STIM_017.jpg
1014.434	1.229	0	study	Phase2	study/STIM_017.jpg
1018.794	0.82	1	study	Phase2	study/STIM_017.jpg
1022.063	0.964	0	study	Phase2	study/STIM_018.jpg
1026.427	0.951	1	study	Phase2	study/STIM_018.jpg
1029.81	0.953	1	study	Phase2	study/STIM_018.jpg
1034.219	1.43	1	study	Phase2	study/STIM_019.jpg
1037.7	1.309	1	study	Phase2	study/STIM_019.jpg
1042.654	1.177	1	study	Phase2	study/STIM_019.jpg
1047.298	1.474	1	study	Phase2	study/STIM_020.jpg
1051.036	1.421	1	study	Phase2	study/STIM_020.jpg
1054.837	1.192	0	study	Phase2	study/STIM_020.jpg
1058.441	1.091	1	study	Phase2	study/STIM_021.jpg
1062.369	1.169	1	study	Phase2	study/STIM_021.jpg
1065.724	1.272	0	study	Phase2	study/STIM_021.jpg
1069.511	1.358	1	study	Phase2	study/STIM_022.jpg
1074.412	0.82	0	study	Phase2	study/STIM_022.jpg
1077.941	1.376	1	study	Phase2	study/STIM_022.jpg
1082.805	1.463	1	study	Phase2	study/STIM_023.jpg
1088.236	1.678	0	study	Phase2	study/STIM_023.jpg
1093.702	0.877	0	study	Phase2	study/STIM_023.jpg
1097.645	1.851	1	study	Phase2	study/STIM_024.jpg
1102.107	1.442	1	study	Phase2	study/STIM_024.jpg
1106.49	0.955	1	study	Phase2	study/STIM_024.jpg
1109.945	1.588	1	study	Phase2	study/STIM_025.jpg
1113.58	1.188	1	study	Phase2	study/STIM_025.jpg
1118.677	1.541	1	study	Phase2	study/STIM_025.jpg
1122.656	1.051	1	study	Phase2	study/STIM_026.jpg
1126.999	0.936	1	study	Phase2	study/STIM_026.jpg
1131.489	1.122	1	study	Phase2	study/STIM_026.jpg
1135.695	1.442	1	study	Phase2	study/STIM_027.jpg
1139.537	1.457	1	study	Phase2	study/STIM_027.jpg
1143.912	1.322	1	study	Phase2	study/STIM_027.jpg
1147.45	0.93	1	study	Phase2	study/STIM_028.jpg
1151.624	1.764	1	study	Phase2	study/STIM_028.jpg
1155.659	1.118	1	study	Phase2	study/STIM_028.jpg
1158.827	1.423	1	study	Phase2	study/STIM_029.jpg
1163.971	0.884	1	study	Phase2	study/STIM_029.jpg
1167.838	1.075	1	study	Phase2	study/STIM_029.jpg
1171.903	0.754	0	test	Phase2	test/STIM_000.jpg
1176.46	1.176	1	test	Phase2	test/STIM_000.jpg
1180.44	1.318	1	test	Phase2	test/STIM_000.jpg
1185.231	1.412	1	test	Phase2	test/STIM_001.jpg
1189.01	1.134	1	test	Phase2	test/STIM_001.jpg
1193.419	1.31	0	test	Phase2	test/STIM_001.jpg
1197.741	1.23	1	test	Phase2	test/STIM_002.jpg
1201.305	1.165	1	test	Phase2	test/STIM_002.jpg
1206.088	1.363	1	test	Phase2	test/STIM_002.jpg
1210.013	1.118	1	test	Phase2	test/STIM_003.jpg
1214.327	0.8	1	test	Phase2	test/STIM_003.jpg
1218.38	0.748	1	test	Phase2	test/STIM_003.jpg
1222.404	1.414	1	test	Phase2	test/STIM_004.jpg
1225.824	1.395	0	test	Phase2	test/STIM_004.jpg
1230.994	0.895	1	test	Phase2	test/STIM_004.jpg
1234.108	1.082	1	test	Phase2	test/STIM_005.jpg
1238.407	1.329	1	test	Phase2	test/STIM_005.jpg
1243.581	1.272	1	test	Phase2	test/STIM_005.jpg
1246.885	0.75	1	test	Phase2	test/STIM_006.jpg
1251.458	1.044	0	test	Phase2	test/STIM_006.jpg
1255.336	1.088	1	test	Phase2	test/STIM_006.jpg
1258.608	0.83	1	test	Phase2	test/STIM_007.jpg
1262.231	1.512	0	test	Phase2	test/STIM_007.jpg
1266.75	1.534	1	test	Phase2	test/STIM_007.jpg
1271.288	1.048	0	test	Phase2	test/STIM_008.jpg
1275.121	1.242	1	test	Phase2	test/STIM_008.jpg
1279.42	1.447	1	test	Phase2	test/STIM_008.jpg
1283.327	1.226	1	test	Phase2	test/STIM_009.jpg
1287.94	1.001	1	test	Phase2	test/STIM_009.jpg
1291.627	1.581	1	test	Phase2	test/STIM_009.jpg
1297.207	0.802	1	test	Phase2	test/STIM_010.jpg
1301.49	1.32	0	test	Phase2	test/STIM_010.jpg
1305.754	0.783	1	test	Phase2	test/STIM_010.jpg
1309.821	1.292	1	test	Phase2	test/STIM_011.jpg
1313.619	1.155	1	test	Phase2	test/STIM_011.jpg
1318.479	0.811	1	test	Phase2	test/STIM_011.jpg
1323.145	0.743	1	test	Phase2	test/STIM_012.jpg
1327.063	1.212	1	test	Phase2	test/STIM_012.jpg
1331.282	0.989	1	test	Phase2	test/STIM_012.jpg
1334.688	1.372	1	test	Phase2	test/STIM_013.jpg
1339.719	1.083	0	test	Phase2	test/STIM_013.jpg
1344.54	0.92	1	test	Phase2	test/STIM_013.jpg
1349.431	1.201	0	test	Phase2	test/STIM_014.jpg
1352.963	1.477	1	test	Phase2	test/STIM_014.jpg
1356.67	1.498	1	test	Phase2	test/STIM_014.jpg
1362.147	0.978	1	test	Phase2	test/STIM_015.jpg
1365.472	1.114	1	test	Phase2	test/STIM_015.jpg
1369.201	0.968	0	test	Phase2	test/STIM_015.jpg
1374.109	0.77	0	test	Phase2	test/STIM_016.jpg
1378.137	1.304	0	test	Phase2	test/STIM_016.jpg
1382.963	1.557	1	test	Phase2	test/STIM_016.jpg
1388.168	1.194	1	test	Phase2	test/STIM_017.jpg
1392.318	0.974	1	test	Phase2	test/STIM_017.jpg
1396.013	1.029	1	test	Phase2	test/STIM_017.jpg
1399.537	1.18	0	test	Phase2	test/STIM_018.jpg
1403.529	0.928	0	test	Phase2	test/STIM_018.jpg
1408.211	1.546	0	test	Phase2	test/STIM_018.jpg
1412.331	1.07	1	test	Phase2	test/STIM_019.jpg
1416.048	0.855	0	test	Phase2	test/STIM_019.jpg
1420.831	1.094	1	test	Phase2	test/STIM_019.jpg
1424.133	1.395	0	test	Phase2	test/STIM_020.jpg
1427.923	1.266	1	test	Phase2	test/STIM_020.jpg
1432.522	1.573	0	test	Phase2	test/STIM_020.jpg
1436.478	1.286	1	test	Phase2	test/STIM_021.jpg
1441.36	1.136	1	test	Phase2	test/STIM_021.jpg
1444.912	0.748	1	test	Phase2	test/STIM_021.jpg
1449.287	1.109	1	test	Phase2	test/STIM_022.jpg
1453.24	1.178	1	test	Phase2	test/STIM_022.jpg
1457.375	0.743	1	test	Phase2	test/STIM_022.jpg
1461.353	1.364	0	test	Phase2	test/STIM_023.jpg
1465.289	1.169	0	test	Phase2	test/STIM_023.jpg
1469.149	1.463	1	test	Phase2	test/STIM_023.jpg
1474.079	1.431	1	test	Phase2	test/STIM_024.jpg
1479.001	1.401	0	test	Phase2	test/STIM_024.jpg
1483.379	1.17	0	test	Phase2	test/STIM_024.jpg
1488.253	1.195	1	test	Phase2	test/STIM_025.jpg
1491.691	1.254	1	test	Phase2	test/STIM_025.jpg
1496.791	1.478	1	test	Phase2	test/STIM_025.jpg
1501.457	1.254	1	test	Phase2	test/STIM_026.jpg
1506.225	1.59	1	test	Phase2	test/STIM_026.jpg
1510.064	1.229	1	test	Phase2	test/STIM_026.jpg
1513.865	0.939	1	test	Phase2	test/STIM_027.jpg
1518.311	0.911	1	test	Phase2	test/STIM_027.jpg
1521.492	0.83	1	test	Phase2	test/STIM_027.jpg
1526.095	1.334	1	test	Phase2	test/STIM_028.jpg
1529.744	1.349	0	test	Phase2	test/STIM_028.jpg
1535.069	1.394	1	test	Phase2	test/STIM_028.jpg
1539.919	0.958	1	test	Phase2	test/STIM_029.jpg
1542.915	0.941	1	test	Phase2	test/STIM_029.jpg
1546.015	1.032	0	test	Phase2	test/STIM_029.jpg
1549.941	1.083	1	study	Phase3	study/STIM_000.jpg
1554.034	1.496	0	study	Phase3	study/STIM_000.jpg
1558.091	1.251	1	study	Phase3	study/STIM_000.jpg
1562.037	1.462	1	study	Phase3	study/STIM_001.jpg
1566.167	1.355	1	study	Phase3	study/STIM_001.jpg
1570.649	0.773	0	study	Phase3	study/STIM_001.jpg
1573.547	1.462	1	study	Phase3	study/STIM_002.jpg
1578.042	0.881	1	study	Phase3	study/STIM_002.jpg
1581.91	1.074	1	study	Phase3	study/STIM_002.jpg
1586.808	0.945	1	study	Phase3	study/STIM_003.jpg
1591.541	1.528	1	study	Phase3	study/STIM_003.jpg
1595.981	0.811	1	study	Phase3	study/STIM_003.jpg
1599.399	1.542	1	study	Phase3	study/STIM_004.jpg
1603.698	1.217	1	study	Phase3	study/STIM_004.jpg
1607.864	1.524	1	study	Phase3	study/STIM_004.jpg
1613.208	0.724	1	study	Phase3	study/STIM_005.jpg
1617.821	0.798	1	study	Phase3	study/STIM_005.jpg
1621.511	1.037	1	study	Phase3	study/STIM_005.jpg
1626.003	1.488	0	study	Phase3	study/STIM_006.jpg
1630.888	0.981	1	study	Phase3	study/STIM_006.jpg
1634.153	1.08	0	study	Phase3	study/STIM_006.jpg
1637.907	1.302	1	study	Phase3	study/STIM_007.jpg
1642.579	1.113	1	study	Phase3	study/STIM_007.jpg
1646.465	1.434	1	study	Phase3	study/STIM_007.jpg
1650.637	0.734	0	study	Phase3	study/STIM_008.jpg
1654.948	1.251	1	study	Phase3	study/STIM_008.jpg
1658.982	1.384	1	study	Phase3	study/STIM_008.jpg
1663.877	0.941	1	study	Phase3	study/STIM_009.jpg
1667.751	1.156	0	study	Phase3	study/STIM_009.jpg
1671.808	1.088	1	study	Phase3	study/STIM_009.jpg
1676.868	1.466	1	study	Phase3	study/STIM_010.jpg
1680.402	0.832	1	study	Phase3	study/STIM_010.jpg
1685.096	0.826	1	study	Phase3	study/STIM_010.jpg
1689.168	0.948	1	study	Phase3	study/STIM_011.jpg
1693.471	0.774	1	study	Phase3	study/STIM_011.jpg
1696.312	1.462	0	study	Phase3	study/STIM_011.jpg
1700.821	1.294	1	study	Phase3	study/STIM_012.jpg
1704.46	0.802	1	study	Phase3	study/STIM_012.jpg
1709.069	1.041	1	study	Phase3	study/STIM_012.jpg
1712.516	1.111	1	study	Phase3	study/STIM_013.jpg
1716.453	0.913	1	study	Phase3	study/STIM_013.jpg
1720.927	1.494	1	study	Phase3	study/STIM_013.jpg
1725.906	1.448	1	study	Phase3	study/STIM_014.jpg
1730.527	1.213	1	study	Phase3	study/STIM_014.jpg
1733.785	0.908	1	study	Phase3	study/STIM_014.jpg
1737.085	0.934	1	study	Phase3	study/STIM_015.jpg
1740.816	0.744	1	study	Phase3	study/STIM_015.jpg
1745.559	0.912	1	study	Phase3	study/STIM_015.jpg
1748.811	0.921	1	study	Phase3	study/STIM_016.jpg
1753.661	1.21	1	study	Phase3	study/STIM_016.jpg
1757.649	0.708	1	study	Phase3	study/STIM_016.jpg
1761.952	1.108	1	study	Phase3	study/STIM_017.jpg
1765.632	0.994	1	study	Phase3	study/STIM_017.jpg
1769.495	1.366	1	study	Phase3	study/STIM_017.jpg
1772.927	1.52	1	study	Phase3	study/STIM_018.jpg
1776.998	1.383	1	study	Phase3	study/STIM_018.jpg
1781.182	1.43	1	study	Phase3	study/STIM_018.jpg
1785.217	1.241	1	study	Phase3	study/STIM_019.jpg
1789.266	1.178	1	study	Phase3	study/STIM_019.jpg
1794.373	1.125	1	study	Phase3	study/STIM_019.jpg
1798.899	0.918	1	study	Phase3	study/STIM_020.jpg
1802.521	1.305	0	study	Phase3	study/STIM_020.jpg
1807.708	0.805	1	study	Phase3	study/STIM_020.jpg
1812.075	1.032	1	study	Phase3	study/STIM_021.jpg
1816.975	1.194	1	study	Phase3	study/STIM_021.jpg
1820.208	1.263	1	study	Phase3	study/STIM_021.jpg
1824.392	1.382	1	study	Phase3	study/STIM_022.jpg
1829.748	1.372	1	study	Phase3	study/STIM_022.jpg
1834.297	1.042	1	study	Phase3	study/STIM_022.jpg
1837.376	0.728	1	study	Phase3	study/STIM_023.jpg
1840.749	1.289	1	study	Phase3	study/STIM_023.jpg
1845.182	1.185	1	study	Phase3	study/STIM_023.jpg
1850.14	1.477	1	study	Phase3	study/STIM_024.jpg
1855.345	0.739	1	study	Phase3	study/STIM_024.jpg
1859.202	1.415	1	study	Phase3	study/STIM_024.jpg
1863.713	0.696	1	study	Phase3	study/STIM_025.jpg
1867.943	0.998	1	study	Phase3	study/STIM_025.jpg
1871.126	1.086	1	study	Phase3	study/STIM_025.jpg
1874.882	0.876	1	study	Phase3	study/STIM_026.jpg
1879.652	1.054	1	study	Phase3	study/STIM_026.jpg
1883.988	1.274	1	study	Phase3	study/STIM_026.jpg
1888.355	1.334	1	study	Phase3	study/STIM_027.jpg
1892.031	1.057	1	study	Phase3	study/STIM_027.jpg
1895.929	1.285	1	study	Phase3	study/STIM_027.jpg
1901.122	1.532	1	study	Phase3	study/STIM_028.jpg
1905.77	1.038	1	study	Phase3	study/STIM_028.jpg
1910.779	0.722	1	study	Phase3	study/STIM_028.jpg
1913.804	1.311	1	study	Phase3	study/STIM_029.jpg
1918.884	1.009	1	study	Phase3	study/STIM_029.jpg
1923.866	1.35	1	study	Phase3	study/STIM_029.jpg
1927.516	1.538	0	test	Phase3	test/STIM_000.jpg
1931.63	1.139	1	test	Phase3	test/STIM_000.jpg
1936.087	0.844	1	test	Phase3	test/STIM_000.jpg
1940.274	1.015	1	test	Phase3	test/STIM_001.jpg
1944.848	1.163	1	test	Phase3	test/STIM_001.jpg
1949.723	1.331	1	test	Phase3	test/STIM_001.jpg
1954.048	1.479	1	test	Phase3	test/STIM_002.jpg
1958.618	1.557	1	test	Phase3	test/STIM_002.jpg
1962.199	1.504	0	test	Phase3	test/STIM_002.jpg
1966.368	1.53	1	test	Phase3	test/STIM_003.jpg
1971.195	1.301	1	test	Phase3	test/STIM_003.jpg
1975.557	1.278	0	test	Phase3	test/STIM_003.jpg
1980.425	1.013	1	test	Phase3	test/STIM_004.jpg
1983.841	1.087	0	test	Phase3	test/STIM_004.jpg
1987.76	0.814	1	test	Phase3	test/STIM_004.jpg
1991.662	0.889	0	test	Phase3	test/STIM_005.jpg
1995.981	1.41	1	test	Phase3	test/STIM_005.jpg
2001.079	1.062	1	test	Phase3	test/STIM_005.jpg
2005.308	0.756	0	test	Phase3	test/STIM_006.jpg
2008.171	0.808	1	test	Phase3	test/STIM_006.jpg
2012.901	1.462	1	test	Phase3	test/STIM_006.jpg
2016.858	0.799	1	test	Phase3	test/STIM_007.jpg
2020.858	1.421	1	test	Phase3	test/STIM_007.jpg
2025.115	1.576	1	test	Phase3	test/STIM_007.jpg
2029.491	0.973	1	test	Phase3	test/STIM_008.jpg
2034.142	1.335	1	test	Phase3	test/STIM_008.jpg
2038.215	1.448	0	test	Phase3	test/STIM_008.jpg
2041.957	1.515	1	test	Phase3	test/STIM_009.jpg
2047.022	1.272	1	test	Phase3	test/STIM_009.jpg
2052.164	1.159	1	test	Phase3	test/STIM_009.jpg
2056.054	0.751	0	test	Phase3	test/STIM_010.jpg
2059.181	0.853	1	test	Phase3	test/STIM_010.jpg
2062.487	0.825	0	test	Phase3	test/STIM_010.jpg
2065.588	0.91	0	test	Phase3	test/STIM_011.jpg
2069.665	1.013	1	test	Phase3	test/STIM_011.jpg
2074.559	1.179	1	test	Phase3	test/STIM_011.jpg
2079.127	0.981	1	test	Phase3	test/STIM_012.jpg
2083.312	1.039	1	test	Phase3	test/STIM_012.jpg
2087.932	1.049	0	test	Phase3	test/STIM_012.jpg
2091.68	0.837	0	test	Phase3	test/STIM_013.jpg
2095.249	0.915	1	test	Phase3	test/STIM_013.jpg
2099.47	1.182	1	test	Phase3	test/STIM_013.jpg
2102.859	1.414	1	test	Phase3	test/STIM_014.jpg
2106.364	1.446	1	test	Phase3	test/STIM_014.jpg
2110.582	1.574	1	test	Phase3	test/STIM_014.jpg
2115.598	1.552	0	test	Phase3	test/STIM_015.jpg
2120.882	1.094	1	test	Phase3	test/STIM_015.jpg
2124.593	1.581	1	test	Phase3	test/STIM_015.jpg
2129.427	1.429	1	test	Phase3	test/STIM_016.jpg
2133.374	0.962	1	test	Phase3	test/STIM_016.jpg
2137.571	1.457	1	test	Phase3	test/STIM_016.jpg
2141.834	1.418	0	test	Phase3	test/STIM_017.jpg
2146.631	0.827	1	test	Phase3	test/STIM_017.jpg
2150.746	0.808	1	test	Phase3	test/STIM_017.jpg
2154.803	1.113	1	test	Phase3	test/STIM_018.jpg
2159.869	1.279	1	test	Phase3	test/STIM_018.jpg
2163.909	1.278	1	test	Phase3	test/STIM_018.jpg
2168.302	0.796	1	test	Phase3	test/STIM_019.jpg
2172.224	1.31	1	test	Phase3	test/STIM_019.jpg
2176.372	1.164	1	test	Phase3	test/STIM_019.jpg
2179.572	1.12	1	test	Phase3	test/STIM_020.jpg
2183.331	1.183	0	test	Phase3	test/STIM_020.jpg
2187.484	1.531	1	test	Phase3	test/STIM_020.jpg
2192.58	1.235	1	test	Phase3	test/STIM_021.jpg
2196.109	1.123	0	test	Phase3	test/STIM_021.jpg
2200.978	1.001	1	test	Phase3	test/STIM_021.jpg
2205.928	0.759	0	test	Phase3	test/STIM_022.jpg
2209.531	1.163	1	test	Phase3	test/STIM_022.jpg
2213.59	1.207	1	test	Phase3	test/STIM_022.jpg
2217.935	1.036	1	test	Phase3	test/STIM_023.jpg
2222.863	0.807	0	test	Phase3	test/STIM_023.jpg
2227.486	0.89	0	test	Phase3	test/STIM_023.jpg
2231.23	0.99	1	test	Phase3	test/STIM_024.jpg
2234.896	1.583	0	test	Phase3	test/STIM_024.jpg
2240.27	0.791	0	test	Phase3	test/STIM_024.jpg
2243.4	1.314	0	test	Phase3	test/STIM_025.jpg
2248.327	1.206	0	test	Phase3	test/STIM_025.jpg
2252.608	1.196	1	test	Phase3	test/STIM_025.jpg
2256.371	1.155	1	test	Phase3	test/STIM_026.jpg
2260.07	1.429	1	test	Phase3	test/STIM_026.jpg
2264.047	1.218	1	test	Phase3	test/STIM_026.jpg
2267.646	1.429	1	test	Phase3	test/STIM_027.jpg
2272.206	1.522	1	test	Phase3	test/STIM_027.jpg
2276.859	1.149	1	test	Phase3	test/STIM_027.jpg
2280.177	1.116	1	test	Phase3	test/STIM_028.jpg
2284.312	1.334	1	test	Phase3	test/STIM_028.jpg
2288.354	1.094	1	test	Phase3	test/STIM_028.jpg
2293.261	1.322	1	test	Phase3	test/STIM_029.jpg
2298.008	1.207	1	test	Phase3	test/STIM_029.jpg
2303.195	1.268	1	test	Phase3	test/STIM_029.jpg
