onset	duration	response_time_ms	trial_type	learning_stage	stimulus	response_port
0.0	2.09	2089.8	generate	Run1	generate/STIM_000.jpg	100
5.073	1.971	1970.6	generate	Run1	generate/STIM_000.jpg	99
10.269	1.347	1347.4	generate	Run1	generate/STIM_000.jpg	99
14.829	1.9	1900.3	generate	Run1	generate/STIM_000.jpg	99
20.001	1.787	1786.6	generate	Run1	generate/STIM_000.jpg	100
23.775	1.889	1888.7	generate	Run1	generate/STIM_001.jpg	100
28.341	1.666	1665.8	generate	Run1	generate/STIM_001.jpg	100
32.84	2.232	2232.5	generate	Run1	generate/STIM_001.jpg	100
38.545	1.54	1539.8	generate	Run1	generate/STIM_001.jpg	99
42.952	1.518	1518.0	generate	Run1	generate/STIM_001.jpg	100
46.486	1.258	1257.5	generate	Run1	generate/STIM_002.jpg	99
50.436	2.133	2133.4	generate	Run1	generate/STIM_002.jpg	99
55.033	2.686	2686.2	generate	Run1	generate/STIM_002.jpg	99
60.763	1.987	1986.7	generate	Run1	generate/STIM_002.jpg	100
64.705	1.908	1907.6	generate	Run1	generate/STIM_002.jpg	99
68.964	2.778	2778.4	generate	Run1	generate/STIM_003.jpg	100
74.48	2.189	2189.3	generate	Run1	generate/STIM_003.jpg	100
80.266	2.359	2359.0	generate	Run1	generate/STIM_003.jpg	99
86.099	2.079	2079.1	generate	Run1	generate/STIM_003.jpg	99
90.134	2.462	2461.8	generate	Run1	generate/STIM_003.jpg	99
96.377	2.425	2424.7	generate	Run1	generate/STIM_004.jpg	100
102.705	1.582	1582.0	generate	Run1	generate/STIM_004.jpg	99
107.527	2.606	2606.3	generate	Run1	generate/STIM_004.jpg	99
113.97	2.05	2050.3	generate	Run1	generate/STIM_004.jpg	99
117.892	1.452	1452.3	generate	Run1	generate/STIM_004.jpg	100
121.396	2.233	2232.6	generate	Run1	generate/STIM_005.jpg	99
126.568	1.22	1219.5	generate	Run1	generate/STIM_005.jpg	99
130.829	2.525	2525.3	generate	Run1	generate/STIM_005.jpg	100
135.929	2.405	2405.0	generate	Run1	generate/STIM_005.jpg	100
142.101	1.99	1990.5	generate	Run1	generate/STIM_005.jpg	100
146.134	2.732	2732.3	generate	Run1	generate/STIM_006.jpg	100
151.769	2.395	2395.2	generate	Run1	generate/STIM_006.jpg	99
157.194	1.881	1880.8	generate	Run1	generate/STIM_006.jpg	100
162.015	1.856	1856.0	generate	Run1	generate/STIM_006.jpg	100
166.624	1.854	1853.8	generate	Run1	generate/STIM_006.jpg	99
170.572	2.188	2187.5	generate	Run1	generate/STIM_007.jpg	99
175.204	2.418	2417.5	generate	Run1	generate/STIM_007.jpg	99
180.137	2.374	2374.0	generate	Run1	generate/STIM_007.jpg	99
185.441	1.568	1568.2	generate	Run1	generate/STIM_007.jpg	99
190.661	2.155	2154.9	generate	Run1	generate/STIM_007.jpg	100
194.878	1.904	1904.0	generate	Run1	generate/STIM_008.jpg	99
200.495	2.364	2363.8	generate	Run1	generate/STIM_008.jpg	99
206.097	1.341	1340.6	generate	Run1	generate/STIM_008.jpg	99
211.175	2.447	2447.1	generate	Run1	generate/STIM_008.jpg	99
215.819	2.368	2367.8	generate	Run1	generate/STIM_008.jpg	99
220.035	2.663	2662.8	generate	Run1	generate/STIM_009.jpg	100
224.869	1.835	1835.3	generate	Run1	generate/STIM_009.jpg	99
230.336	2.483	2483.3	generate	Run1	generate/STIM_009.jpg	99
236.281	2.366	2365.5	generate	Run1	generate/STIM_009.jpg	100
241.821	1.39	1389.5	generate	Run1	generate/STIM_009.jpg	99
245.514	1.818	1817.5	generate	Run1	generate/STIM_010.jpg	99
251.256	2.556	2556.1	generate	Run1	generate/STIM_010.jpg	99
256.07	2.208	2208.4	generate	Run1	generate/STIM_010.jpg	99
260.7	1.831	1831.3	generate	Run1	generate/STIM_010.jpg	99
264.689	1.92	1919.5	generate	Run1	generate/STIM_010.jpg	99
270.375	2.0	1999.9	generate	Run1	generate/STIM_011.jpg	100
275.873	1.643	1643.0	generate	Run1	generate/STIM_011.jpg	99
279.963	1.311	1311.0	generate	Run1	generate/STIM_011.jpg	99
284.967	2.15	2149.7	generate	Run1	generate/STIM_011.jpg	100
289.494	2.251	2250.6	generate	Run1	generate/STIM_011.jpg	100
294.528	1.51	1509.7	generate	Run1	generate/STIM_012.jpg	100
298.577	2.32	2319.7	generate	Run1	generate/STIM_012.jpg	99
304.574	2.285	2285.3	generate	Run1	generate/STIM_012.jpg	99
309.279	1.806	1806.5	generate	Run1	generate/STIM_012.jpg	99
314.101	2.409	2409.3	generate	Run1	generate/STIM_012.jpg	100
319.4	2.409	2408.7	generate	Run1	generate/STIM_013.jpg	99
324.449	2.722	2722.1	generate	Run1	generate/STIM_013.jpg	99
329.9	1.341	1341.0	generate	Run1	generate/STIM_013.jpg	100
333.348	1.451	1450.7	generate	Run1	generate/STIM_013.jpg	99
338.57	2.032	2032.2	generate	Run1	generate/STIM_013.jpg	100
343.007	2.76	2759.7	generate	Run1	generate/STIM_014.jpg	100
349.358	1.852	1852.3	generate	Run1	generate/STIM_014.jpg	100
353.689	1.186	1185.7	generate	Run1	generate/STIM_014.jpg	99
357.495	1.076	1075.9	generate	Run1	generate/STIM_014.jpg	99
362.418	1.105	1105.2	generate	Run1	generate/STIM_014.jpg	100
367.356	2.676	2675.9	generate	Run1	generate/STIM_015.jpg	99
373.587	2.308	2307.7	generate	Run1	generate/STIM_015.jpg	99
378.763	2.081	2080.8	generate	Run1	generate/STIM_015.jpg	100
383.781	1.854	1854.3	generate	Run1	generate/STIM_015.jpg	100
387.795	2.309	2308.6	generate	Run1	generate/STIM_015.jpg	99
393.651	2.31	2310.4	generate	Run1	generate/STIM_016.jpg	99
398.413	2.546	2545.9	generate	Run1	generate/STIM_016.jpg	99
403.17	2.523	2522.8	generate	Run1	generate/STIM_016.jpg	99
407.935	1.76	1760.2	generate	Run1	generate/STIM_016.jpg	99
412.834	1.575	1575.2	generate	Run1	generate/STIM_016.jpg	99
417.585	1.416	1415.6	generate	Run1	generate/STIM_017.jpg	99
421.959	2.236	2235.5	generate	Run1	generate/STIM_017.jpg	99
426.793	1.373	1373.0	generate	Run1	generate/STIM_017.jpg	100
430.635	1.97	1969.8	generate	Run1	generate/STIM_017.jpg	100
434.695	1.148	1147.5	generate	Run1	generate/STIM_017.jpg	99
437.866	3.129	3129.1	generate	Run1	generate/STIM_018.jpg	99
443.162	1.468	1467.6	generate	Run1	generate/STIM_018.jpg	100
447.065	1.477	1477.1	generate	Run1	generate/STIM_018.jpg	99
451.627	1.565	1565.2	generate	Run1	generate/STIM_018.jpg	99
455.573	1.332	1331.6	generate	Run1	generate/STIM_018.jpg	99
460.474	2.281	2280.9	generate	Run1	generate/STIM_019.jpg	100
466.36	2.023	2022.6	generate	Run1	generate/STIM_019.jpg	100
470.494	2.223	2223.1	generate	Run1	generate/STIM_019.jpg	100
475.155	1.895	1894.6	generate	Run1	generate/STIM_019.jpg	100
480.595	1.552	1552.4	generate	Run1	generate/STIM_019.jpg	99
484.398	1.938	1937.5	generate	Run1	generate/STIM_020.jpg	99
490.038	3.004	3003.5	generate	Run1	generate/STIM_020.jpg	100
495.937	2.749	2748.9	generate	Run1	generate/STIM_020.jpg	99
501.041	1.305	1304.6	generate	Run1	generate/STIM_020.jpg	100
505.458	0.941	941.0	generate	Run1	generate/STIM_020.jpg	100
509.978	2.241	2241.3	generate	Run1	generate/STIM_021.jpg	100
515.683	1.431	1430.7	generate	Run1	generate/STIM_021.jpg	100
520.824	1.262	1261.5	generate	Run1	generate/STIM_021.jpg	100
525.194	2.074	2073.6	generate	Run1	generate/STIM_021.jpg	99
529.413	2.509	2509.0	generate	Run1	generate/STIM_021.jpg	99
534.479	3.166	3166.4	generate	Run1	generate/STIM_022.jpg	100
539.581	1.975	1975.1	generate	Run1	generate/STIM_022.jpg	100
543.57	1.514	1513.5	generate	Run1	generate/STIM_022.jpg	100
547.253	2.571	2570.9	generate	Run1	generate/STIM_022.jpg	100
552.781	1.321	1321.3	generate	Run1	generate/STIM_022.jpg	99
557.474	2.604	2604.4	generate	Run1	generate/STIM_023.jpg	99
562.359	2.405	2404.7	generate	Run1	generate/STIM_023.jpg	100
567.392	2.631	2630.6	generate	Run1	generate/STIM_023.jpg	99
573.271	1.402	1402.3	generate	Run1	generate/STIM_023.jpg	99
577.461	1.289	1289.1	generate	Run1	generate/STIM_023.jpg	99
582.321	1.992	1992.2	generate	Run1	generate/STIM_024.jpg	99
586.698	2.459	2458.7	generate	Run1	generate/STIM_024.jpg	100
592.505	2.372	2371.6	generate	Run1	generate/STIM_024.jpg	99
597.118	1.335	1335.2	generate	Run1	generate/STIM_024.jpg	99
601.488	1.849	1848.6	generate	Run1	generate/STIM_024.jpg	100
606.513	0.928	927.7	repeat	Run1	repeat/STIM_000.jpg	100
609.776	0.521	520.9	repeat	Run1	repeat/STIM_000.jpg	99
613.134	0.926	926.3	repeat	Run1	repeat/STIM_000.jpg	100
617.177	0.722	722.3	repeat	Run1	repeat/STIM_000.jpg	99
621.807	0.861	860.9	repeat	Run1	repeat/STIM_000.jpg	100
625.503	0.808	808.4	repeat	Run1	repeat/STIM_001.jpg	100
629.135	0.892	892.0	repeat	Run1	repeat/STIM_001.jpg	100
632.689	0.811	810.7	repeat	Run1	repeat/STIM_001.jpg	100
636.566	0.781	780.6	repeat	Run1	repeat/STIM_001.jpg	100
639.976	0.609	608.6	repeat	Run1	repeat/STIM_001.jpg	99
643.044	0.935	935.3	repeat	Run1	repeat/STIM_002.jpg	100
646.907	0.705	704.8	repeat	Run1	repeat/STIM_002.jpg	100
649.635	0.641	640.6	repeat	Run1	repeat/STIM_002.jpg	100
652.779	0.851	850.7	repeat	Run1	repeat/STIM_002.jpg	99
656.252	0.964	964.3	repeat	Run1	repeat/STIM_002.jpg	100
659.98	0.87	869.9	repeat	Run1	repeat/STIM_003.jpg	99
662.969	0.807	806.7	repeat	Run1	repeat/STIM_003.jpg	99
667.124	0.823	823.1	repeat	Run1	repeat/STIM_003.jpg	99
669.91	0.699	698.6	repeat	Run1	repeat/STIM_003.jpg	99
672.997	0.92	920.5	repeat	Run1	repeat/STIM_003.jpg	100
676.079	0.817	817.2	repeat	Run1	repeat/STIM_004.jpg	100
680.107	0.823	823.0	repeat	Run1	repeat/STIM_004.jpg	99
684.708	0.586	586.2	repeat	Run1	repeat/STIM_004.jpg	100
687.818	0.777	777.1	repeat	Run1	repeat/STIM_004.jpg	99
691.888	0.746	745.5	repeat	Run1	repeat/STIM_004.jpg	100
694.802	0.847	846.6	repeat	Run1	repeat/STIM_005.jpg	99
698.883	0.976	976.4	repeat	Run1	repeat/STIM_005.jpg	100
702.533	0.804	803.8	repeat	Run1	repeat/STIM_005.jpg	99
706.836	0.898	898.1	repeat	Run1	repeat/STIM_005.jpg	100
710.706	0.51	510.3	repeat	Run1	repeat/STIM_005.jpg	99
713.25	0.902	902.3	repeat	Run1	repeat/STIM_006.jpg	99
716.958	0.634	634.2	repeat	Run1	repeat/STIM_006.jpg	99
721.48	0.731	731.2	repeat	Run1	repeat/STIM_006.jpg	100
725.464	0.726	725.6	repeat	Run1	repeat/STIM_006.jpg	100
729.792	0.86	860.3	repeat	Run1	repeat/STIM_006.jpg	100
734.245	0.979	979.4	repeat	Run1	repeat/STIM_007.jpg	99
737.945	0.963	962.7	repeat	Run1	repeat/STIM_007.jpg	99
742.393	0.929	929.3	repeat	Run1	repeat/STIM_007.jpg	100
746.977	0.848	847.5	repeat	Run1	repeat/STIM_007.jpg	99
750.42	0.595	594.7	repeat	Run1	repeat/STIM_007.jpg	99
753.696	0.627	626.7	repeat	Run1	repeat/STIM_008.jpg	100
757.954	0.851	851.1	repeat	Run1	repeat/STIM_008.jpg	99
761.249	0.748	748.2	repeat	Run1	repeat/STIM_008.jpg	100
765.166	0.867	867.1	repeat	Run1	repeat/STIM_008.jpg	100
768.538	0.996	996.0	repeat	Run1	repeat/STIM_008.jpg	99
772.546	0.926	926.3	repeat	Run1	repeat/STIM_009.jpg	100
775.559	0.85	850.4	repeat	Run1	repeat/STIM_009.jpg	99
779.754	0.712	711.8	repeat	Run1	repeat/STIM_009.jpg	100
782.803	0.665	665.0	repeat	Run1	repeat/STIM_009.jpg	99
785.863	1.008	1007.9	repeat	Run1	repeat/STIM_009.jpg	100
790.768	0.637	636.9	repeat	Run1	repeat/STIM_010.jpg	99
795.242	0.718	717.5	repeat	Run1	repeat/STIM_010.jpg	99
798.042	0.568	568.0	repeat	Run1	repeat/STIM_010.jpg	100
802.277	0.575	574.6	repeat	Run1	repeat/STIM_010.jpg	99
805.726	0.619	619.0	repeat	Run1	repeat/STIM_010.jpg	100
808.866	0.99	990.4	repeat	Run1	repeat/STIM_011.jpg	99
811.827	1.056	1055.8	repeat	Run1	repeat/STIM_011.jpg	99
815.223	0.894	893.7	repeat	Run1	repeat/STIM_011.jpg	100
818.419	0.968	968.3	repeat	Run1	repeat/STIM_011.jpg	100
821.646	0.94	940.1	repeat	Run1	repeat/STIM_011.jpg	99
825.654	0.844	843.9	repeat	Run1	repeat/STIM_012.jpg	99
828.734	0.528	527.9	repeat	Run1	repeat/STIM_012.jpg	100
831.587	0.619	619.0	repeat	Run1	repeat/STIM_012.jpg	99
835.858	0.826	825.9	repeat	Run1	repeat/STIM_012.jpg	99
840.355	0.509	509.1	repeat	Run1	repeat/STIM_012.jpg	100
843.35	0.95	950.4	repeat	Run1	repeat/STIM_013.jpg	100
846.768	0.708	707.9	repeat	Run1	repeat/STIM_013.jpg	100
849.736	0.719	718.8	repeat	Run1	repeat/STIM_013.jpg	100
853.08	0.795	795.2	repeat	Run1	repeat/STIM_013.jpg	99
857.734	1.057	1056.6	repeat	Run1	repeat/STIM_013.jpg	100
861.547	0.775	775.1	repeat	Run1	repeat/STIM_014.jpg	99
865.888	0.768	768.2	repeat	Run1	repeat/STIM_014.jpg	100
870.31	0.653	653.1	repeat	Run1	repeat/STIM_014.jpg	99
874.207	0.718	717.8	repeat	Run1	repeat/STIM_014.jpg	99
878.219	0.564	564.4	repeat	Run1	repeat/STIM_014.jpg	99
881.102	1.927	1926.6	generate	Run2	generate/STIM_000.jpg	100
885.901	1.696	1696.4	generate	Run2	generate/STIM_000.jpg	99
890.92	1.293	1293.4	generate	Run2	generate/STIM_000.jpg	99
895.055	1.929	1929.2	generate	Run2	generate/STIM_000.jpg	100
898.906	1.656	1656.0	generate	Run2	generate/STIM_000.jpg	100
903.739	2.416	2416.5	generate	Run2	generate/STIM_001.jpg	100
909.947	2.399	2398.9	generate	Run2	generate/STIM_001.jpg	99
916.169	1.68	1680.1	generate	Run2	generate/STIM_001.jpg	100
920.208	1.802	1802.1	generate	Run2	generate/STIM_001.jpg	100
925.874	1.641	1640.6	generate	Run2	generate/STIM_001.jpg	100
931.202	2.345	2344.6	generate	Run2	generate/STIM_002.jpg	100
937.175	2.336	2335.6	generate	Run2	generate/STIM_002.jpg	99
942.916	2.229	2228.9	generate	Run2	generate/STIM_002.jpg	99
948.532	1.074	1074.3	generate	Run2	generate/STIM_002.jpg	99
952.49	1.3	1300.5	generate	Run2	generate/STIM_002.jpg	100
956.143	1.995	1994.6	generate	Run2	generate/STIM_003.jpg	99
960.939	2.144	2143.5	generate	Run2	generate/STIM_003.jpg	99
966.656	1.573	1572.9	generate	Run2	generate/STIM_003.jpg	100
970.567	1.907	1907.1	generate	Run2	generate/STIM_003.jpg	100
976.129	1.412	1411.7	generate	Run2	generate/STIM_003.jpg	99
980.909	2.102	2102.1	generate	Run2	generate/STIM_004.jpg	99
985.44	2.313	2313.2	generate	Run2	generate/STIM_004.jpg	99
990.265	2.3	2299.5	generate	Run2	generate/STIM_004.jpg	100
995.675	1.209	1209.4	generate	Run2	generate/STIM_004.jpg	99
1000.063	1.443	1442.7	generate	Run2	generate/STIM_004.jpg	99
1003.445	1.42	1419.7	generate	Run2	generate/STIM_005.jpg	100
1008.677	1.88	1880.0	generate	Run2	generate/STIM_005.jpg	100
1014.401	2.01	2009.6	generate	Run2	generate/STIM_005.jpg	100
1020.287	1.523	1523.2	generate	Run2	generate/STIM_005.jpg	100
1024.022	1.632	1632.1	generate	Run2	generate/STIM_005.jpg	99
1029.094	1.104	1104.4	generate	Run2	generate/STIM_006.jpg	100
1034.021	2.039	2039.4	generate	Run2	generate/STIM_006.jpg	99
1038.423	1.366	1366.4	generate	Run2	generate/STIM_006.jpg	100
1042.064	1.557	1557.4	generate	Run2	generate/STIM_006.jpg	99
1045.698	1.28	1280.0	generate	Run2	generate/STIM_006.jpg	100
1050.96	1.486	1485.5	generate	Run2	generate/STIM_007.jpg	100
1054.572	1.444	1443.9	generate	Run2	generate/STIM_007.jpg	99
1059.001	1.739	1739.4	generate	Run2	generate/STIM_007.jpg	100
1064.406	2.228	2227.5	generate	Run2	generate/STIM_007.jpg	100
1068.838	1.219	1219.3	generate	Run2	generate/STIM_007.jpg	100
1073.002	1.06	1060.2	generate	Run2	generate/STIM_008.jpg	99
1077.394	2.23	2230.4	generate	Run2	generate/STIM_008.jpg	100
1082.691	1.328	1328.4	generate	Run2	generate/STIM_008.jpg	100
1087.854	1.267	1266.8	generate	Run2	generate/STIM_008.jpg	99
1093.096	1.152	1152.3	generate	Run2	generate/STIM_008.jpg	100
1096.785	2.559	2558.7	generate	Run2	generate/STIM_009.jpg	99
1101.795	2.292	2292.5	generate	Run2	generate/STIM_009.jpg	100
1107.544	0.933	933.4	generate	Run2	generate/STIM_009.jpg	100
1110.845	1.188	1187.6	generate	Run2	generate/STIM_009.jpg	99
1115.404	1.253	1252.8	generate	Run2	generate/STIM_009.jpg	99
1120.32	2.511	2510.6	generate	Run2	generate/STIM_010.jpg	100
1126.626	1.808	1808.0	generate	Run2	generate/STIM_010.jpg	100
1130.756	1.929	1929.2	generate	Run2	generate/STIM_010.jpg	100
1134.949	1.864	1863.5	generate	Run2	generate/STIM_010.jpg	99
1140.002	1.839	1838.9	generate	Run2	generate/STIM_010.jpg	100
1144.487	1.208	1208.3	generate	Run2	generate/STIM_011.jpg	99
1147.777	2.359	2359.0	generate	Run2	generate/STIM_011.jpg	99
1152.627	1.705	1705.4	generate	Run2	generate/STIM_011.jpg	100
1157.469	1.004	1003.5	generate	Run2	generate/STIM_011.jpg	100
1161.654	1.088	1088.0	generate	Run2	generate/STIM_011.jpg	100
1165.939	1.217	1216.7	generate	Run2	generate/STIM_012.jpg	99
1169.548	1.218	1217.7	generate	Run2	generate/STIM_012.jpg	99
1173.412	1.487	1487.0	generate	Run2	generate/STIM_012.jpg	99
1177.74	1.112	1112.4	generate	Run2	generate/STIM_012.jpg	100
1182.132	0.967	967.1	generate	Run2	generate/STIM_012.jpg	99
1186.338	1.999	1998.6	generate	Run2	generate/STIM_013.jpg	99
1191.711	1.17	1170.2	generate	Run2	generate/STIM_013.jpg	100
1195.498	1.535	1535.0	generate	Run2	generate/STIM_013.jpg	99
1200.865	1.485	1484.6	generate	Run2	generate/STIM_013.jpg	99
1205.624	1.103	1103.4	generate	Run2	generate/STIM_013.jpg	99
1209.301	2.289	2289.0	generate	Run2	generate/STIM_014.jpg	100
1214.573	1.344	1344.5	generate	Run2	generate/STIM_014.jpg	99
1219.163	1.131	1131.0	generate	Run2	generate/STIM_014.jpg	100
1223.357	1.606	1606.4	generate	Run2	generate/STIM_014.jpg	100
1227.295	1.335	1335.4	generate	Run2	generate/STIM_014.jpg	99
1231.853	2.246	2246.1	generate	Run2	generate/STIM_015.jpg	99
1237.619	1.962	1961.8	generate	Run2	generate/STIM_015.jpg	100
1241.754	2.209	2209.4	generate	Run2	generate/STIM_015.jpg	99
1247.563	1.367	1366.7	generate	Run2	generate/STIM_015.jpg	100
1251.69	1.608	1608.3	generate	Run2	generate/STIM_015.jpg	100
1257.058	1.637	1637.0	generate	Run2	generate/STIM_016.jpg	99
1261.926	1.33	1330.4	generate	Run2	generate/STIM_016.jpg	99
1266.112	1.306	1306.1	generate	Run2	generate/STIM_016.jpg	100
1269.527	1.635	1635.0	generate	Run2	generate/STIM_016.jpg	100
1275.08	1.962	1962.5	generate	Run2	generate/STIM_016.jpg	99
1279.811	1.448	1447.7	generate	Run2	generate/STIM_017.jpg	99
1283.773	2.452	2452.3	generate	Run2	generate/STIM_017.jpg	100
1289.216	1.038	1038.5	generate	Run2	generate/STIM_017.jpg	99
1293.752	0.97	970.0	generate	Run2	generate/STIM_017.jpg	100
1298.157	1.644	1644.5	generate	Run2	generate/STIM_017.jpg	100
1302.999	1.883	1883.2	generate	Run2	generate/STIM_018.jpg	100
1306.844	2.258	2257.5	generate	Run2	generate/STIM_018.jpg	100
1312.773	1.987	1986.9	generate	Run2	generate/STIM_018.jpg	99
1317.115	0.991	991.4	generate	Run2	generate/STIM_018.jpg	100
1320.69	1.036	1036.2	generate	Run2	generate/STIM_018.jpg	100
1325.559	2.671	2671.4	generate	Run2	generate/STIM_019.jpg	99
1331.974	1.531	1530.7	generate	Run2	generate/STIM_019.jpg	99
1337.219	1.698	1698.2	generate	Run2	generate/STIM_019.jpg	100
1341.799	1.784	1783.6	generate	Run2	generate/STIM_019.jpg	100
1346.758	2.0	1999.5	generate	Run2	generate/STIM_019.jpg	99
1352.294	1.573	1573.3	generate	Run2	generate/STIM_020.jpg	100
1356.348	1.894	1893.7	generate	Run2	generate/STIM_020.jpg	99
1360.865	2.26	2259.5	generate	Run2	generate/STIM_020.jpg	100
1365.539	1.239	1239.1	generate	Run2	generate/STIM_020.jpg	100
1370.527	1.284	1284.5	generate	Run2	generate/STIM_020.jpg	99
1374.78	1.785	1784.6	generate	Run2	generate/STIM_021.jpg	99
1380.146	1.939	1939.3	generate	Run2	generate/STIM_021.jpg	100
1385.226	1.433	1432.8	generate	Run2	generate/STIM_021.jpg	100
1390.348	1.495	1495.1	generate	Run2	generate/STIM_021.jpg	99
1395.062	1.507	1507.3	generate	Run2	generate/STIM_021.jpg	100
1400.107	2.113	2113.2	generate	Run2	generate/STIM_022.jpg	100
1405.746	1.51	1510.0	generate	Run2	generate/STIM_022.jpg	100
1410.849	1.669	1669.2	generate	Run2	generate/STIM_022.jpg	100
1414.527	1.064	1064.0	generate	Run2	generate/STIM_022.jpg	100
1417.564	1.736	1736.3	generate	Run2	generate/STIM_022.jpg	100
1422.442	1.763	1763.3	generate	Run2	generate/STIM_023.jpg	99
1426.194	2.435	2434.7	generate	Run2	generate/STIM_023.jpg	99
1430.833	2.274	2273.8	generate	Run2	generate/STIM_023.jpg	100
1436.35	1.837	1837.3	generate	Run2	generate/STIM_023.jpg	100
1441.964	1.258	1258.5	generate	Run2	generate/STIM_023.jpg	99
1446.386	1.75	1749.9	generate	Run2	generate/STIM_024.jpg	99
1451.301	1.435	1434.6	generate	Run2	generate/STIM_024.jpg	100
1454.959	1.575	1574.6	generate	Run2	generate/STIM_024.jpg	99
1459.038	1.853	1853.2	generate	Run2	generate/STIM_024.jpg	99
1463.816	1.259	1258.6	generate	Run2	generate/STIM_024.jpg	100
1468.916	0.629	628.9	repeat	Run2	repeat/STIM_000.jpg	99
1471.537	0.66	659.8	repeat	Run2	repeat/STIM_000.jpg	99
1475.864	0.664	663.9	repeat	Run2	repeat/STIM_000.jpg	99
1479.86	0.949	948.6	repeat	Run2	repeat/STIM_000.jpg	99
1484.048	0.564	564.1	repeat	Run2	repeat/STIM_000.jpg	100
1488.113	0.692	692.3	repeat	Run2	repeat/STIM_001.jpg	100
1491.575	0.738	737.7	repeat	Run2	repeat/STIM_001.jpg	100
1494.847	0.855	855.0	repeat	Run2	repeat/STIM_001.jpg	100
1498.669	1.024	1024.3	repeat	Run2	repeat/STIM_001.jpg	99
1501.94	0.556	555.9	repeat	Run2	repeat/STIM_001.jpg	99
1504.611	1.062	1062.1	repeat	Run2	repeat/STIM_002.jpg	100
1508.166	0.642	642.1	repeat	Run2	repeat/STIM_002.jpg	100
1510.849	0.77	769.7	repeat	Run2	repeat/STIM_002.jpg	99
1514.046	0.808	807.6	repeat	Run2	repeat/STIM_002.jpg	99
1516.98	0.933	933.2	repeat	Run2	repeat/STIM_002.jpg	99
1520.362	1.007	1006.7	repeat	Run2	repeat/STIM_003.jpg	100
1524.239	0.733	733.4	repeat	Run2	repeat/STIM_003.jpg	99
1527.564	0.834	833.7	repeat	Run2	repeat/STIM_003.jpg	99
1531.861	0.818	817.7	repeat	Run2	repeat/STIM_003.jpg	100
1535.653	0.571	570.9	repeat	Run2	repeat/STIM_003.jpg	99
1538.287	0.645	645.4	repeat	Run2	repeat/STIM_004.jpg	99
1541.967	1.007	1007.0	repeat	Run2	repeat/STIM_004.jpg	100
1545.356	0.574	574.4	repeat	Run2	repeat/STIM_004.jpg	100
1548.876	0.644	643.8	repeat	Run2	repeat/STIM_004.jpg	99
1552.036	1.025	1025.4	repeat	Run2	repeat/STIM_004.jpg	99
1555.852	1.1	1100.2	repeat	Run2	repeat/STIM_005.jpg	100
1560.117	0.919	918.6	repeat	Run2	repeat/STIM_005.jpg	100
1564.41	0.916	915.5	repeat	Run2	repeat/STIM_005.jpg	99
1568.905	1.035	1035.2	repeat	Run2	repeat/STIM_005.jpg	99
1573.483	0.711	710.9	repeat	Run2	repeat/STIM_005.jpg	99
1577.681	1.011	1010.9	repeat	Run2	repeat/STIM_006.jpg	100
1581.408	0.67	670.2	repeat	Run2	repeat/STIM_006.jpg	100
1585.124	0.788	787.9	repeat	Run2	repeat/STIM_006.jpg	99
1588.492	0.906	906.5	repeat	Run2	repeat/STIM_006.jpg	99
1592.702	0.828	828.3	repeat	Run2	repeat/STIM_006.jpg	100
1596.741	0.716	716.2	repeat	Run2	repeat/STIM_007.jpg	99
1601.275	0.885	884.9	repeat	Run2	repeat/STIM_007.jpg	99
1605.497	0.655	655.3	repeat	Run2	repeat/STIM_007.jpg	99
1608.506	0.868	868.1	repeat	Run2	repeat/STIM_007.jpg	100
1611.369	0.674	673.8	repeat	Run2	repeat/STIM_007.jpg	99
1615.507	1.026	1026.3	repeat	Run2	repeat/STIM_008.jpg	99
1619.385	0.784	784.3	repeat	Run2	repeat/STIM_008.jpg	99
1622.218	0.57	570.2	repeat	Run2	repeat/STIM_008.jpg	100
1624.98	0.709	709.2	repeat	Run2	repeat/STIM_008.jpg	99
1627.966	0.881	881.1	repeat	Run2	repeat/STIM_008.jpg	100
1632.473	1.008	1007.9	repeat	Run2	repeat/STIM_009.jpg	100
1635.931	0.793	793.4	repeat	Run2	repeat/STIM_009.jpg	99
1639.507	1.02	1019.9	repeat	Run2	repeat/STIM_009.jpg	100
1643.644	0.682	681.8	repeat	Run2	repeat/STIM_009.jpg	100
1647.205	0.863	863.2	repeat	Run2	repeat/STIM_009.jpg	100
1651.171	0.942	942.1	repeat	Run2	repeat/STIM_010.jpg	99
1656.037	0.86	860.2	repeat	Run2	repeat/STIM_010.jpg	100
1660.494	0.777	776.7	repeat	Run2	repeat/STIM_010.jpg	99
1663.812	0.858	857.5	repeat	Run2	repeat/STIM_010.jpg	100
1666.702	0.899	898.8	repeat	Run2	repeat/STIM_010.jpg	100
1669.841	0.962	961.7	repeat	Run2	repeat/STIM_011.jpg	100
1673.961	0.573	572.9	repeat	Run2	repeat/STIM_011.jpg	100
1677.31	0.843	843.1	repeat	Run2	repeat/STIM_011.jpg	99
1682.093	0.505	505.0	repeat	Run2	repeat/STIM_011.jpg	100
1686.139	0.748	747.7	repeat	Run2	repeat/STIM_011.jpg	100
1689.455	0.893	893.2	repeat	Run2	repeat/STIM_012.jpg	100
1693.11	0.827	827.4	repeat	Run2	repeat/STIM_012.jpg	99
1697.079	1.026	1025.9	repeat	Run2	repeat/STIM_012.jpg	100
1701.271	0.954	954.5	repeat	Run2	repeat/STIM_012.jpg	99
1704.573	0.8	799.8	repeat	Run2	repeat/STIM_012.jpg	100
1707.617	0.715	714.8	repeat	Run2	repeat/STIM_013.jpg	99
1710.912	0.599	599.4	repeat	Run2	repeat/STIM_013.jpg	100
1715.417	0.648	648.2	repeat	Run2	repeat/STIM_013.jpg	100
1718.223	0.712	712.3	repeat	Run2	repeat/STIM_013.jpg	100
1722.242	0.507	507.2	repeat	Run2	repeat/STIM_013.jpg	99
1725.012	0.608	607.8	repeat	Run2	repeat/STIM_014.jpg	99
1729.031	0.869	869.0	repeat	Run2	repeat/STIM_014.jpg	100
1732.769	0.591	590.9	repeat	Run2	repeat/STIM_014.jpg	100
1736.371	0.967	966.6	repeat	Run2	repeat/STIM_014.jpg	99
1741.167	1.158	1157.6	repeat	Run2	repeat/STIM_014.jpg	100
1745.709	2.151	2150.9	generate	Run3	generate/STIM_000.jpg	100
1751.575	1.587	1587.4	generate	Run3	generate/STIM_000.jpg	99
1757.011	2.037	2037.3	generate	Run3	generate/STIM_000.jpg	100
1762.177	1.3	1299.6	generate	Run3	generate/STIM_000.jpg	100
1765.534	1.501	1501.0	generate	Run3	generate/STIM_000.jpg	99
1770.794	1.376	1375.6	generate	Run3	generate/STIM_001.jpg	99
1775.249	1.381	1380.9	generate	Run3	generate/STIM_001.jpg	99
1780.204	1.67	1669.7	generate	Run3	generate/STIM_001.jpg	99
1785.125	1.735	1734.7	generate	Run3	generate/STIM_001.jpg	99
1790.183	1.982	1982.3	generate	Run3	generate/STIM_001.jpg	100
1795.803	1.12	1119.9	generate	Run3	generate/STIM_002.jpg	100
1799.57	0.938	938.1	generate	Run3	generate/STIM_002.jpg	100
1804.154	1.945	1945.2	generate	Run3	generate/STIM_002.jpg	100
1809.535	1.098	1098.2	generate	Run3	generate/STIM_002.jpg	99
1812.963	1.933	1932.9	generate	Run3	generate/STIM_002.jpg	99
1817.383	1.646	1645.7	generate	Run3	generate/STIM_003.jpg	100
1820.997	1.68	1680.2	generate	Run3	generate/STIM_003.jpg	100
1825.496	1.068	1067.7	generate	Run3	generate/STIM_003.jpg	99
1829.839	1.006	1006.1	generate	Run3	generate/STIM_003.jpg	100
1834.104	2.102	2102.5	generate	Run3	generate/STIM_003.jpg	100
1840.092	0.971	971.1	generate	Run3	generate/STIM_004.jpg	99
1843.517	1.484	1483.8	generate	Run3	generate/STIM_004.jpg	99
1847.68	1.137	1136.9	generate	Run3	generate/STIM_004.jpg	99
1851.603	1.238	1238.2	generate	Run3	generate/STIM_004.jpg	100
1856.146	1.131	1131.3	generate	Run3	generate/STIM_004.jpg	100
1859.531	0.97	969.6	generate	Run3	generate/STIM_005.jpg	100
1864.292	0.931	930.6	generate	Run3	generate/STIM_005.jpg	100
1868.995	1.349	1349.1	generate	Run3	generate/STIM_005.jpg	100
1872.67	1.876	1875.7	generate	Run3	generate/STIM_005.jpg	100
1877.179	1.271	1271.4	generate	Run3	generate/STIM_005.jpg	100
1880.786	1.55	1549.6	generate	Run3	generate/STIM_006.jpg	99
1885.551	1.264	1264.3	generate	Run3	generate/STIM_006.jpg	99
1889.342	2.084	2083.7	generate	Run3	generate/STIM_006.jpg	100
1893.491	1.805	1805.2	generate	Run3	generate/STIM_006.jpg	99
1897.991	1.755	1755.2	generate	Run3	generate/STIM_006.jpg	99
1902.153	1.884	1884.3	generate	Run3	generate/STIM_007.jpg	100
1906.086	1.74	1740.4	generate	Run3	generate/STIM_007.jpg	99
1911.619	2.118	2118.5	generate	Run3	generate/STIM_007.jpg	100
1916.884	1.399	1399.1	generate	Run3	generate/STIM_007.jpg	100
1920.663	2.115	2114.9	generate	Run3	generate/STIM_007.jpg	100
1925.275	1.746	1745.7	generate	Run3	generate/STIM_008.jpg	100
1929.411	1.357	1357.2	generate	Run3	generate/STIM_008.jpg	100
1934.666	1.061	1061.2	generate	Run3	generate/STIM_008.jpg	100
1939.114	1.535	1534.9	generate	Run3	generate/STIM_008.jpg	100
1943.35	1.36	1360.4	generate	Run3	generate/STIM_008.jpg	100
1948.288	1.579	1579.1	generate	Run3	generate/STIM_009.jpg	99
1952.465	1.758	1757.5	generate	Run3	generate/STIM_009.jpg	100
1956.377	1.835	1835.0	generate	Run3	generate/STIM_009.jpg	100
1960.674	1.972	1971.5	generate	Run3	generate/STIM_009.jpg	100
1964.56	1.504	1504.2	generate	Run3	generate/STIM_009.jpg	99
1968.328	1.148	1148.3	generate	Run3	generate/STIM_010.jpg	99
1971.948	1.5	1500.1	generate	Run3	generate/STIM_010.jpg	100
1976.751	1.352	1351.6	generate	Run3	generate/STIM_010.jpg	99
1980.995	2.07	2069.8	generate	Run3	generate/STIM_010.jpg	100
1986.618	1.077	1076.8	generate	Run3	generate/STIM_010.jpg	100
1989.713	0.982	982.3	generate	Run3	generate/STIM_011.jpg	100
1994.595	1.339	1338.6	generate	Run3	generate/STIM_011.jpg	99
1998.8	0.972	971.6	generate	Run3	generate/STIM_011.jpg	99
2001.874	1.336	1335.5	generate	Run3	generate/STIM_011.jpg	100
2006.119	1.476	1476.2	generate	Run3	generate/STIM_011.jpg	100
2009.952	1.877	1876.8	generate	Run3	generate/STIM_012.jpg	100
2014.822	1.458	1458.2	generate	Run3	generate/STIM_012.jpg	99
2019.556	1.954	1953.5	generate	Run3	generate/STIM_012.jpg	100
2025.07	1.354	1354.5	generate	Run3	generate/STIM_012.jpg	100
2029.363	1.164	1163.8	generate	Run3	generate/STIM_012.jpg	99
2033.433	1.301	1300.6	generate	Run3	generate/STIM_013.jpg	99
2036.777	1.472	1472.3	generate	Run3	generate/STIM_013.jpg	99
2041.239	1.286	1286.1	generate	Run3	generate/STIM_013.jpg	99
2044.968	1.832	1832.3	generate	Run3	generate/STIM_013.jpg	99
2050.347	1.145	1145.0	generate	Run3	generate/STIM_013.jpg	99
2053.852	1.553	1553.3	generate	Run3	generate/STIM_014.jpg	99
2058.915	1.161	1161.4	generate	Run3	generate/STIM_014.jpg	100
2062.304	1.541	1541.1	generate	Run3	generate/STIM_014.jpg	99
2066.97	1.941	1941.4	generate	Run3	generate/STIM_014.jpg	100
2072.75	1.224	1224.1	generate	Run3	generate/STIM_014.jpg	100
2077.692	2.007	2007.2	generate	Run3	generate/STIM_015.jpg	99
2082.067	2.167	2166.6	generate	Run3	generate/STIM_015.jpg	100
2086.305	1.087	1087.1	generate	Run3	generate/STIM_015.jpg	99
2089.708	1.902	1901.5	generate	Run3	generate/STIM_015.jpg	99
2093.811	0.896	895.7	generate	Run3	generate/STIM_015.jpg	100
2098.02	1.731	1730.6	generate	Run3	generate/STIM_016.jpg	100
2102.76	1.559	1558.8	generate	Run3	generate/STIM_016.jpg	100
2107.156	1.094	1094.0	generate	Run3	generate/STIM_016.jpg	99
2111.34	1.145	1145.2	generate	Run3	generate/STIM_016.jpg	99
2114.725	2.085	2085.2	generate	Run3	generate/STIM_016.jpg	100
2119.323	1.862	1861.5	generate	Run3	generate/STIM_017.jpg	100
2123.567	2.183	2183.0	generate	Run3	generate/STIM_017.jpg	99
2128.493	1.846	1846.3	generate	Run3	generate/STIM_017.jpg	100
2132.864	0.983	983.0	generate	Run3	generate/STIM_017.jpg	99
2136.897	1.578	1578.0	generate	Run3	generate/STIM_017.jpg	99
2141.631	2.154	2154.5	generate	Run3	generate/STIM_018.jpg	99
2146.507	1.124	1124.3	generate	Run3	generate/STIM_018.jpg	100
2150.194	1.587	1586.7	generate	Run3	generate/STIM_018.jpg	100
2154.2	1.151	1151.4	generate	Run3	generate/STIM_018.jpg	99
2158.919	1.189	1188.7	generate	Run3	generate/STIM_018.jpg	100
2162.939	1.687	1687.0	generate	Run3	generate/STIM_019.jpg	99
2166.663	0.86	860.0	generate	Run3	generate/STIM_019.jpg	100
2170.566	1.46	1460.2	generate	Run3	generate/STIM_019.jpg	99
2175.172	1.564	1564.5	generate	Run3	generate/STIM_019.jpg	99
2178.817	1.596	1595.8	generate	Run3	generate/STIM_019.jpg	100
2183.03	1.941	1941.0	generate	Run3	generate/STIM_020.jpg	100
2187.201	1.842	1841.7	generate	Run3	generate/STIM_020.jpg	100
2191.896	2.114	2114.3	generate	Run3	generate/STIM_020.jpg	99
2196.86	2.133	2133.2	generate	Run3	generate/STIM_020.jpg	100
2202.117	1.743	1742.7	generate	Run3	generate/STIM_020.jpg	99
2206.14	1.288	1287.9	generate	Run3	generate/STIM_021.jpg	99
2210.333	1.313	1313.1	generate	Run3	generate/STIM_021.jpg	99
2214.757	1.713	1713.0	generate	Run3	generate/STIM_021.jpg	99
2220.38	1.655	1655.4	generate	Run3	generate/STIM_021.jpg	99
2224.125	1.725	1725.0	generate	Run3	generate/STIM_021.jpg	99
2227.962	1.705	1705.4	generate	Run3	generate/STIM_022.jpg	100
2233.244	0.846	846.5	generate	Run3	generate/STIM_022.jpg	99
2236.736	1.886	1885.6	generate	Run3	generate/STIM_022.jpg	99
2241.357	1.954	1954.3	generate	Run3	generate/STIM_022.jpg	100
2246.444	1.953	1953.1	generate	Run3	generate/STIM_022.jpg	99
2251.942	1.751	1750.8	generate	Run3	generate/STIM_023.jpg	99
2255.817	1.267	1267.1	generate	Run3	generate/STIM_023.jpg	100
2260.92	2.01	2010.0	generate	Run3	generate/STIM_023.jpg	100
2265.248	1.49	1489.8	generate	Run3	generate/STIM_023.jpg	99
2270.344	1.748	1748.4	generate	Run3	generate/STIM_023.jpg	99
2274.098	1.698	1697.7	generate	Run3	generate/STIM_024.jpg	99
2277.808	1.636	1636.1	generate	Run3	generate/STIM_024.jpg	100
2281.619	1.485	1484.8	generate	Run3	generate/STIM_024.jpg	99
2286.505	1.392	1392.2	generate	Run3	generate/STIM_024.jpg	100
2290.638	1.505	1505.2	generate	Run3	generate/STIM_024.jpg	100
2294.88	0.626	626.5	repeat	Run3	repeat/STIM_000.jpg	99
2298.909	1.022	1022.2	repeat	Run3	repeat/STIM_000.jpg	100
2303.176	0.832	831.9	repeat	Run3	repeat/STIM_000.jpg	99
2306.382	0.614	613.8	repeat	Run3	repeat/STIM_000.jpg	99
2310.577	0.451	450.6	repeat	Run3	repeat/STIM_000.jpg	99
2313.242	0.949	948.6	repeat	Run3	repeat/STIM_001.jpg	99
2317.936	0.888	888.0	repeat	Run3	repeat/STIM_001.jpg	99
2321.06	0.868	867.5	repeat	Run3	repeat/STIM_001.jpg	99
2324.755	0.606	606.0	repeat	Run3	repeat/STIM_001.jpg	100
2329.078	1.065	1065.3	repeat	Run3	repeat/STIM_001.jpg	99
2333.629	0.553	553.0	repeat	Run3	repeat/STIM_002.jpg	99
2336.38	0.637	637.0	repeat	Run3	repeat/STIM_002.jpg	99
2340.239	1.022	1021.6	repeat	Run3	repeat/STIM_002.jpg	99
2343.482	0.893	892.9	repeat	Run3	repeat/STIM_002.jpg	100
2348.047	0.898	897.9	repeat	Run3	repeat/STIM_002.jpg	100
2350.918	0.874	874.4	repeat	Run3	repeat/STIM_003.jpg	99
2355.516	0.903	903.0	repeat	Run3	repeat/STIM_003.jpg	100
2358.454	0.665	665.4	repeat	Run3	repeat/STIM_003.jpg	99
2361.294	0.586	585.6	repeat	Run3	repeat/STIM_003.jpg	100
2364.431	0.651	651.1	repeat	Run3	repeat/STIM_003.jpg	99
2368.328	0.904	903.6	repeat	Run3	repeat/STIM_004.jpg	100
2371.877	0.807	806.6	repeat	Run3	repeat/STIM_004.jpg	100
2376.213	0.584	584.5	repeat	Run3	repeat/STIM_004.jpg	99
2379.923	0.704	704.2	repeat	Run3	repeat/STIM_004.jpg	100
2383.164	0.871	870.7	repeat	Run3	repeat/STIM_004.jpg	100
2387.402	0.6	599.6	repeat	Run3	repeat/STIM_005.jpg	100
2390.013	0.957	956.7	repeat	Run3	repeat/STIM_005.jpg	100
2394.377	0.795	794.7	repeat	Run3	repeat/STIM_005.jpg	100
2398.936	0.988	987.9	repeat	Run3	repeat/STIM_005.jpg	99
2403.853	0.937	936.9	repeat	Run3	repeat/STIM_005.jpg	100
2407.624	0.69	689.6	repeat	Run3	repeat/STIM_006.jpg	100
2410.556	0.874	874.1	repeat	Run3	repeat/STIM_006.jpg	99
2414.845	0.807	807.1	repeat	Run3	repeat/STIM_006.jpg	100
2419.292	0.876	875.6	repeat	Run3	repeat/STIM_006.jpg	99
2423.262	0.69	690.0	repeat	Run3	repeat/STIM_006.jpg	100
2427.706	0.612	611.8	repeat	Run3	repeat/STIM_007.jpg	100
2431.524	0.827	827.2	repeat	Run3	repeat/STIM_007.jpg	99
2434.54	0.812	812.5	repeat	Run3	repeat/STIM_007.jpg	99
2438.074	0.617	617.0	repeat	Run3	repeat/STIM_007.jpg	100
2442.157	0.729	729.0	repeat	Run3	repeat/STIM_007.jpg	99
2446.387	0.977	977.2	repeat	Run3	repeat/STIM_008.jpg	99
2450.283	0.651	651.2	repeat	Run3	repeat/STIM_008.jpg	99
2454.797	0.563	563.0	repeat	Run3	repeat/STIM_008.jpg	99
2458.157	0.725	725.3	repeat	Run3	repeat/STIM_008.jpg	99
2461.373	0.797	796.8	repeat	Run3	repeat/STIM_008.jpg	100
2465.029	0.924	924.2	repeat	Run3	repeat/STIM_009.jpg	99
2469.633	0.822	821.9	repeat	Run3	repeat/STIM_009.jpg	100
2474.167	1.01	1010.0	repeat	Run3	repeat/STIM_009.jpg	100
2478.368	0.942	941.6	repeat	Run3	repeat/STIM_009.jpg	99
2482.846	0.616	616.3	repeat	Run3	repeat/STIM_009.jpg	100
2485.853	0.619	618.9	repeat	Run3	repeat/STIM_010.jpg	100
2489.912	0.631	630.6	repeat	Run3	repeat/STIM_010.jpg	99
2493.252	0.652	652.5	repeat	Run3	repeat/STIM_010.jpg	100
2496.515	0.629	629.4	repeat	Run3	repeat/STIM_010.jpg	100
2499.63	0.728	728.5	repeat	Run3	repeat/STIM_010.jpg	99
2503.13	1.054	1054.5	repeat	Run3	repeat/STIM_011.jpg	100
2506.096	0.748	747.7	repeat	Run3	repeat/STIM_011.jpg	99
2510.379	0.713	713.1	repeat	Run3	repeat/STIM_011.jpg	99
2513.733	0.819	819.0	repeat	Run3	repeat/STIM_011.jpg	99
2516.705	0.675	675.3	repeat	Run3	repeat/STIM_011.jpg	99
2520.899	0.585	585.1	repeat	Run3	repeat/STIM_012.jpg	99
2524.806	0.99	990.0	repeat	Run3	repeat/STIM_012.jpg	100
2529.07	0.505	504.8	repeat	Run3	repeat/STIM_012.jpg	100
2533.269	0.788	787.9	repeat	Run3	repeat/STIM_012.jpg	100
2537.793	0.769	769.2	repeat	Run3	repeat/STIM_012.jpg	100
2541.543	0.841	841.1	repeat	Run3	repeat/STIM_013.jpg	100
2544.625	0.708	708.0	repeat	Run3	repeat/STIM_013.jpg	100
2548.438	0.68	679.7	repeat	Run3	repeat/STIM_013.jpg	100
2552.08	0.656	656.2	repeat	Run3	repeat/STIM_013.jpg	99
2555.86	1.043	1043.3	repeat	Run3	repeat/STIM_013.jpg	100
2559.802	0.6	599.9	repeat	Run3	repeat/STIM_014.jpg	100
2562.69	0.691	691.4	repeat	Run3	repeat/STIM_014.jpg	100
2566.699	0.574	573.7	repeat	Run3	repeat/STIM_014.jpg	99
2571.126	0.91	910.1	repeat	Run3	repeat/STIM_014.jpg	100
2574.564	0.544	543.9	repeat	Run3	repeat/STIM_014.jpg	100
2578.192	1.45	1449.7	generate	Run4	generate/STIM_000.jpg	99
2581.801	1.732	1731.9	generate	Run4	generate/STIM_000.jpg	100
2585.709	2.222	2222.4	generate	Run4	generate/STIM_000.jpg	100
2590.826	1.918	1917.9	generate	Run4	generate/STIM_000.jpg	99
2596.153	0.956	956.2	generate	Run4	generate/STIM_000.jpg	99
2600.756	1.782	1782.4	generate	Run4	generate/STIM_001.jpg	99
2606.064	1.506	1505.8	generate	Run4	generate/STIM_001.jpg	99
2611.045	2.018	2018.5	generate	Run4	generate/STIM_001.jpg	100
2615.891	0.935	934.6	generate	Run4	generate/STIM_001.jpg	100
2619.805	2.064	2063.9	generate	Run4	generate/STIM_001.jpg	100
2624.265	1.137	1137.0	generate	Run4	generate/STIM_002.jpg	99
2627.558	2.016	2016.4	generate	Run4	generate/STIM_002.jpg	100
2633.375	1.368	1367.6	generate	Run4	generate/STIM_002.jpg	100
2638.528	1.712	1712.5	generate	Run4	generate/STIM_002.jpg	100
2642.393	1.69	1689.7	generate	Run4	generate/STIM_002.jpg	99
2647.723	1.19	1190.3	generate	Run4	generate/STIM_003.jpg	100
2651.188	1.078	1077.5	generate	Run4	generate/STIM_003.jpg	100
2654.755	1.152	1151.8	generate	Run4	generate/STIM_003.jpg	99
2658.27	1.196	1196.3	generate	Run4	generate/STIM_003.jpg	99
2662.408	0.794	793.7	generate	Run4	generate/STIM_003.jpg	100
2665.975	1.716	1715.8	generate	Run4	generate/STIM_004.jpg	100
2670.257	1.358	1357.5	generate	Run4	generate/STIM_004.jpg	100
2675.5	1.087	1087.3	generate	Run4	generate/STIM_004.jpg	99
2679.209	0.995	994.9	generate	Run4	generate/STIM_004.jpg	99
2682.971	2.166	2166.1	generate	Run4	generate/STIM_004.jpg	100
2686.977	2.128	2128.0	generate	Run4	generate/STIM_005.jpg	99
2691.109	1.933	1932.8	generate	Run4	generate/STIM_005.jpg	100
2695.544	1.918	1917.7	generate	Run4	generate/STIM_005.jpg	99
2699.589	1.698	1697.8	generate	Run4	generate/STIM_005.jpg	99
2704.995	1.419	1419.0	generate	Run4	generate/STIM_005.jpg	99
2709.661	1.042	1041.9	generate	Run4	generate/STIM_006.jpg	99
2714.025	0.871	870.9	generate	Run4	generate/STIM_006.jpg	100
2718.397	1.212	1212.2	generate	Run4	generate/STIM_006.jpg	100
2721.901	1.318	1318.2	generate	Run4	generate/STIM_006.jpg	100
2725.74	1.05	1050.0	generate	Run4	generate/STIM_006.jpg	99
2730.551	1.179	1178.8	generate	Run4	generate/STIM_007.jpg	99
2734.474	1.972	1971.7	generate	Run4	generate/STIM_007.jpg	100
2739.36	1.461	1460.7	generate	Run4	generate/STIM_007.jpg	100
2744.4	1.906	1906.2	generate	Run4	generate/STIM_007.jpg	100
2750.002	2.146	2146.1	generate	Run4	generate/STIM_007.jpg	100
2754.558	1.919	1918.9	generate	Run4	generate/STIM_008.jpg	100
2759.362	1.536	1535.5	generate	Run4	generate/STIM_008.jpg	100
2763.821	2.007	2007.5	generate	Run4	generate/STIM_008.jpg	99
2769.431	1.01	1010.2	generate	Run4	generate/STIM_008.jpg	99
2773.956	1.214	1214.5	generate	Run4	generate/STIM_008.jpg	99
2778.504	2.218	2218.2	generate	Run4	generate/STIM_009.jpg	100
2783.354	1.788	1787.8	generate	Run4	generate/STIM_009.jpg	99
2787.838	1.59	1589.7	generate	Run4	generate/STIM_009.jpg	100
2792.848	2.016	2015.7	generate	Run4	generate/STIM_009.jpg	100
2797.237	1.813	1813.2	generate	Run4	generate/STIM_009.jpg	99
2801.326	1.526	1525.8	generate	Run4	generate/STIM_010.jpg	99
2806.527	1.438	1437.9	generate	Run4	generate/STIM_010.jpg	99
2810.696	1.79	1789.7	generate	Run4	generate/STIM_010.jpg	100
2814.871	1.198	1198.5	generate	Run4	generate/STIM_010.jpg	99
2818.786	1.339	1339.4	generate	Run4	generate/STIM_010.jpg	100
2823.279	1.963	1963.3	generate	Run4	generate/STIM_011.jpg	99
2829.007	2.043	2042.6	generate	Run4	generate/STIM_011.jpg	100
2834.914	1.738	1738.0	generate	Run4	generate/STIM_011.jpg	99
2839.242	1.863	1863.1	generate	Run4	generate/STIM_011.jpg	100
2843.415	1.346	1346.4	generate	Run4	generate/STIM_011.jpg	100
2848.523	1.26	1260.4	generate	Run4	generate/STIM_012.jpg	99
2853.39	1.728	1728.4	generate	Run4	generate/STIM_012.jpg	100
2857.835	0.922	922.0	generate	Run4	generate/STIM_012.jpg	100
2862.681	0.878	878.5	generate	Run4	generate/STIM_012.jpg	99
2866.267	0.961	960.8	generate	Run4	generate/STIM_012.jpg	99
2870.385	1.378	1378.2	generate	Run4	generate/STIM_013.jpg	99
2875.558	2.304	2304.0	generate	Run4	generate/STIM_013.jpg	99
2880.094	2.19	2189.5	generate	Run4	generate/STIM_013.jpg	99
2886.135	1.65	1650.2	generate	Run4	generate/STIM_013.jpg	100
2890.458	1.443	1443.2	generate	Run4	generate/STIM_013.jpg	99
2895.594	1.909	1909.3	generate	Run4	generate/STIM_014.jpg	100
2899.604	1.224	1224.1	generate	Run4	generate/STIM_014.jpg	100
2903.941	0.875	874.9	generate	Run4	generate/STIM_014.jpg	99
2906.946	1.657	1657.4	generate	Run4	generate/STIM_014.jpg	99
2911.822	1.207	1206.6	generate	Run4	generate/STIM_014.jpg	100
2915.241	1.128	1128.3	generate	Run4	generate/STIM_015.jpg	99
2919.797	1.575	1575.2	generate	Run4	generate/STIM_015.jpg	99
2924.697	1.855	1854.7	generate	Run4	generate/STIM_015.jpg	100
2928.9	2.056	2056.5	generate	Run4	generate/STIM_015.jpg	99
2932.891	1.712	1711.9	generate	Run4	generate/STIM_015.jpg	100
2937.174	1.016	1016.1	generate	Run4	generate/STIM_016.jpg	100
2941.246	1.645	1645.1	generate	Run4	generate/STIM_016.jpg	99
2944.851	1.295	1294.7	generate	Run4	generate/STIM_016.jpg	100
2949.296	1.741	1740.6	generate	Run4	generate/STIM_016.jpg	100
2954.255	1.705	1705.0	generate	Run4	generate/STIM_016.jpg	100
2959.286	1.523	1522.9	generate	Run4	generate/STIM_017.jpg	99
2963.332	2.104	2103.8	generate	Run4	generate/STIM_017.jpg	100
2967.802	1.444	1443.8	generate	Run4	generate/STIM_017.jpg	99
2971.936	1.397	1397.1	generate	Run4	generate/STIM_017.jpg	99
2976.173	1.564	1563.8	generate	Run4	generate/STIM_017.jpg	100
2981.219	1.993	1993.0	generate	Run4	generate/STIM_018.jpg	99
2986.11	1.654	1653.8	generate	Run4	generate/STIM_018.jpg	100
2991.473	1.76	1759.7	generate	Run4	generate/STIM_018.jpg	100
2997.052	1.88	1880.2	generate	Run4	generate/STIM_018.jpg	100
3002.45	1.568	1567.8	generate	Run4	generate/STIM_018.jpg	100
3007.583	1.106	1105.9	generate	Run4	generate/STIM_019.jpg	99
3011.847	1.888	1888.4	generate	Run4	generate/STIM_019.jpg	100
3017.583	1.172	1171.5	generate	Run4	generate/STIM_019.jpg	99
3021.107	1.021	1021.4	generate	Run4	generate/STIM_019.jpg	100
3025.89	1.122	1122.4	generate	Run4	generate/STIM_019.jpg	100
3029.249	2.029	2028.9	generate	Run4	generate/STIM_020.jpg	100
3034.798	2.187	2187.0	generate	Run4	generate/STIM_020.jpg	99
3039.07	1.992	1991.7	generate	Run4	generate/STIM_020.jpg	99
3044.003	1.198	1198.2	generate	Run4	generate/STIM_020.jpg	100
3048.899	1.679	1678.7	generate	Run4	generate/STIM_020.jpg	99
3052.564	1.292	1292.5	generate	Run4	generate/STIM_021.jpg	99
3057.503	1.596	1595.7	generate	Run4	generate/STIM_021.jpg	100
3062.854	1.724	1724.3	generate	Run4	generate/STIM_021.jpg	100
3068.345	1.126	1125.5	generate	Run4	generate/STIM_021.jpg	99
3072.487	1.122	1121.7	generate	Run4	generate/STIM_021.jpg	100
3077.544	0.974	973.6	generate	Run4	generate/STIM_022.jpg	99
3081.881	0.926	925.8	generate	Run4	generate/STIM_022.jpg	100
3085.533	1.545	1545.4	generate	Run4	generate/STIM_022.jpg	99
3089.692	1.182	1181.6	generate	Run4	generate/STIM_022.jpg	99
3092.976	2.278	2277.6	generate	Run4	generate/STIM_022.jpg	100
3097.239	1.445	1445.3	generate	Run4	generate/STIM_023.jpg	99
3102.074	1.644	1644.5	generate	Run4	generate/STIM_023.jpg	100
3106.756	1.646	1645.8	generate	Run4	generate/STIM_023.jpg	100
3110.757	0.905	905.1	generate	Run4	generate/STIM_023.jpg	100
3115.67	1.83	1830.1	generate	Run4	generate/STIM_023.jpg	100
3119.897	1.177	1176.6	generate	Run4	generate/STIM_024.jpg	99
3124.576	1.902	1901.6	generate	Run4	generate/STIM_024.jpg	100
3128.825	2.179	2179.2	generate	Run4	generate/STIM_024.jpg	100
3133.969	2.16	2160.3	generate	Run4	generate/STIM_024.jpg	99
3139.726	1.591	1591.3	generate	Run4	generate/STIM_024.jpg	100
3143.581	1.049	1048.6	repeat	Run4	repeat/STIM_000.jpg	99
3146.652	0.925	925.1	repeat	Run4	repeat/STIM_000.jpg	100
3149.831	0.91	910.4	repeat	Run4	repeat/STIM_000.jpg	100
3153.175	0.84	840.1	repeat	Run4	repeat/STIM_000.jpg	99
3157.492	0.982	981.7	repeat	Run4	repeat/STIM_000.jpg	99
3160.521	0.781	781.0	repeat	Run4	repeat/STIM_001.jpg	100
3164.485	0.834	833.7	repeat	Run4	repeat/STIM_001.jpg	99
3169.161	1.03	1029.9	repeat	Run4	repeat/STIM_001.jpg	100
3173.286	0.808	807.6	repeat	Run4	repeat/STIM_001.jpg	99
3178.011	1.096	1096.2	repeat	Run4	repeat/STIM_001.jpg	99
3182.906	0.746	745.8	repeat	Run4	repeat/STIM_002.jpg	100
3185.597	0.944	944.2	repeat	Run4	repeat/STIM_002.jpg	99
3189.885	0.905	904.6	repeat	Run4	repeat/STIM_002.jpg	100
3193.094	0.628	628.0	repeat	Run4	repeat/STIM_002.jpg	99
3197.647	0.807	807.2	repeat	Run4	repeat/STIM_002.jpg	100
3200.57	0.713	713.2	repeat	Run4	repeat/STIM_003.jpg	100
3204.18	0.884	884.5	repeat	Run4	repeat/STIM_003.jpg	99
3207.712	0.861	860.8	repeat	Run4	repeat/STIM_003.jpg	100
3211.527	0.917	916.9	repeat	Run4	repeat/STIM_003.jpg	100
3215.255	1.09	1090.1	repeat	Run4	repeat/STIM_003.jpg	99
3218.786	0.511	511.3	repeat	Run4	repeat/STIM_004.jpg	100
3221.475	0.988	987.6	repeat	Run4	repeat/STIM_004.jpg	100
3225.057	0.728	727.7	repeat	Run4	repeat/STIM_004.jpg	99
3229.549	0.64	640.4	repeat	Run4	repeat/STIM_004.jpg	99
3232.483	0.818	817.7	repeat	Run4	repeat/STIM_004.jpg	99
3236.127	0.937	937.2	repeat	Run4	repeat/STIM_005.jpg	100
3240.201	0.976	975.9	repeat	Run4	repeat/STIM_005.jpg	99
3244.365	0.946	945.7	repeat	Run4	repeat/STIM_005.jpg	100
3248.219	0.828	828.2	repeat	Run4	repeat/STIM_005.jpg	99
3251.851	0.698	697.7	repeat	Run4	repeat/STIM_005.jpg	99
3254.862	0.969	969.3	repeat	Run4	repeat/STIM_006.jpg	99
3259.802	0.711	710.9	repeat	Run4	repeat/STIM_006.jpg	99
3263.152	0.739	738.7	repeat	Run4	repeat/STIM_006.jpg	99
3267.291	0.9	900.1	repeat	Run4	repeat/STIM_006.jpg	100
3270.162	0.981	981.4	repeat	Run4	repeat/STIM_006.jpg	99
3274.451	0.945	944.8	repeat	Run4	repeat/STIM_007.jpg	100
3279.041	0.91	910.0	repeat	Run4	repeat/STIM_007.jpg	100
3283.395	0.608	607.8	repeat	Run4	repeat/STIM_007.jpg	99
3286.381	0.707	706.7	repeat	Run4	repeat/STIM_007.jpg	100
3290.862	0.598	597.5	repeat	Run4	repeat/STIM_007.jpg	100
3293.833	1.061	1060.7	repeat	Run4	repeat/STIM_008.jpg	100
3298.496	0.661	661.1	repeat	Run4	repeat/STIM_008.jpg	100
3301.268	0.52	520.3	repeat	Run4	repeat/STIM_008.jpg	99
3305.619	0.612	611.5	repeat	Run4	repeat/STIM_008.jpg	99
3309.637	0.537	536.6	repeat	Run4	repeat/STIM_008.jpg	99
3312.442	0.738	738.3	repeat	Run4	repeat/STIM_009.jpg	99
3316.412	0.634	634.0	repeat	Run4	repeat/STIM_009.jpg	99
3319.65	0.524	524.0	repeat	Run4	repeat/STIM_009.jpg	99
3322.69	0.428	427.8	repeat	Run4	repeat/STIM_009.jpg	100
3326.795	0.706	705.9	repeat	Run4	repeat/STIM_009.jpg	100
3330.52	0.641	640.6	repeat	Run4	repeat/STIM_010.jpg	99
3333.663	0.927	927.1	repeat	Run4	repeat/STIM_010.jpg	100
3338.464	0.943	943.3	repeat	Run4	repeat/STIM_010.jpg	99
3341.978	0.923	922.8	repeat	Run4	repeat/STIM_010.jpg	100
3346.035	0.711	710.7	repeat	Run4	repeat/STIM_010.jpg	100
3350.268	0.869	868.6	repeat	Run4	repeat/STIM_011.jpg	99
3353.72	0.669	669.3	repeat	Run4	repeat/STIM_011.jpg	99
3356.828	0.64	640.1	repeat	Run4	repeat/STIM_011.jpg	99
3361.375	0.85	850.5	repeat	Run4	repeat/STIM_011.jpg	100
3364.79	0.973	972.7	repeat	Run4	repeat/STIM_011.jpg	99
3368.33	0.983	983.3	repeat	Run4	repeat/STIM_012.jpg	100
3371.569	0.755	754.9	repeat	Run4	repeat/STIM_012.jpg	100
3375.377	0.784	783.8	repeat	Run4	repeat/STIM_012.jpg	99
3378.942	1.021	1020.9	repeat	Run4	repeat/STIM_012.jpg	99
3383.23	0.892	892.4	repeat	Run4	repeat/STIM_012.jpg	99
3387.982	0.987	986.6	repeat	Run4	repeat/STIM_013.jpg	99
3392.137	0.967	967.0	repeat	Run4	repeat/STIM_013.jpg	99
3396.267	0.913	913.2	repeat	Run4	repeat/STIM_013.jpg	99
3399.769	0.767	766.6	repeat	Run4	repeat/STIM_013.jpg	100
3403.092	0.648	648.2	repeat	Run4	repeat/STIM_013.jpg	99
3406.126	0.714	714.5	repeat	Run4	repeat/STIM_014.jpg	100
3408.943	0.611	611.2	repeat	Run4	repeat/STIM_014.jpg	99
3413.455	0.732	732.1	repeat	Run4	repeat/STIM_014.jpg	100
3417.202	0.762	762.1	repeat	Run4	repeat/STIM_014.jpg	100
3420.128	0.696	695.7	repeat	Run4	repeat/STIM_014.jpg	99
