onset	duration	accuracy_binary	trial_type	learning_stage	stimulus
0.0	2.1	0	generate	Run1	generate/STIM_000.jpg
4.815	2.169	1	generate	Run1	generate/STIM_000.jpg
9.133	2.45	0	generate	Run1	generate/STIM_000.jpg
14.975	1.417	0	generate	Run1	generate/STIM_000.jpg
19.524	1.436	1	generate	Run1	generate/STIM_000.jpg
24.691	2.182	1	generate	Run1	generate/STIM_001.jpg
29.852	1.229	1	generate	Run1	generate/STIM_001.jpg
33.911	1.617	1	generate	Run1	generate/STIM_001.jpg
37.832	1.927	1	generate	Run1	generate/STIM_001.jpg
42.646	1.999	1	generate	Run1	generate/STIM_001.jpg
47.206	1.788	1	generate	Run1	generate/STIM_002.jpg
52.29	2.012	0	generate	Run1	generate/STIM_002.jpg
57.301	1.844	1	generate	Run1	generate/STIM_002.jpg
62.235	2.018	1	generate	Run1	generate/STIM_002.jpg
67.359	1.967	0	generate	Run1	generate/STIM_002.jpg
73.062	1.734	1	generate	Run1	generate/STIM_003.jpg
78.458	2.656	1	generate	Run1	generate/STIM_003.jpg
83.205	1.237	1	generate	Run1	generate/STIM_003.jpg
88.255	1.614	1	generate	Run1	generate/STIM_003.jpg
92.589	1.429	1	generate	Run1	generate/STIM_003.jpg
96.829	1.234	1	generate	Run1	generate/STIM_004.jpg
101.491	1.362	0	generate	Run1	generate/STIM_004.jpg
105.903	1.712	0	generate	Run1	generate/STIM_004.jpg
110.855	1.407	1	generate	Run1	generate/STIM_004.jpg
115.647	1.467	1	generate	Run1	generate/STIM_004.jpg
119.732	2.764	1	generate	Run1	generate/STIM_005.jpg
125.805	1.382	0	generate	Run1	generate/STIM_005.jpg
130.043	2.413	1	generate	Run1	generate/STIM_005.jpg
136.281	1.668	0	generate	Run1	generate/STIM_005.jpg
140.164	1.112	0	generate	Run1	generate/STIM_005.jpg
144.06	1.406	1	generate	Run1	generate/STIM_006.jpg
148.376	2.075	1	generate	Run1	generate/STIM_006.jpg
153.086	2.097	1	generate	Run1	generate/STIM_006.jpg
157.793	2.136	1	generate	Run1	generate/STIM_006.jpg
163.715	0.995	0	generate	Run1	generate/STIM_006.jpg
167.946	2.257	1	generate	Run1	generate/STIM_007.jpg
174.05	1.765	1	generate	Run1	generate/STIM_007.jpg
178.745	1.35	1	generate	Run1	generate/STIM_007.jpg
182.372	2.053	0	generate	Run1	generate/STIM_007.jpg
187.048	1.006	0	generate	Run1	generate/STIM_007.jpg
190.646	1.921	0	generate	Run1	generate/STIM_008.jpg
194.635	1.404	1	generate	Run1	generate/STIM_008.jpg
198.661	2.014	1	generate	Run1	generate/STIM_008.jpg
202.934	1.591	1	generate	Run1	generate/STIM_008.jpg
207.742	2.238	1	generate	Run1	generate/STIM_008.jpg
212.858	1.874	1	generate	Run1	generate/STIM_009.jpg
217.521	2.331	1	generate	Run1	generate/STIM_009.jpg
223.591	1.18	0	generate	Run1	generate/STIM_009.jpg
226.945	2.127	1	generate	Run1	generate/STIM_009.jpg
232.32	1.232	1	generate	Run1	generate/STIM_009.jpg
235.705	2.541	0	generate	Run1	generate/STIM_010.jpg
241.702	2.02	1	generate	Run1	generate/STIM_010.jpg
246.953	1.682	1	generate	Run1	generate/STIM_010.jpg
252.609	1.249	1	generate	Run1	generate/STIM_010.jpg
257.137	2.144	1	generate	Run1	generate/STIM_010.jpg
262.974	2.641	1	generate	Run1	generate/STIM_011.jpg
267.779	2.132	1	generate	Run1	generate/STIM_011.jpg
273.279	1.853	0	generate	Run1	generate/STIM_011.jpg
277.164	1.191	0	generate	Run1	generate/STIM_011.jpg
280.494	1.388	1	generate	Run1	generate/STIM_011.jpg
285.363	1.816	1	generate	Run1	generate/STIM_012.jpg
290.948	2.019	1	generate	Run1	generate/STIM_012.jpg
296.922	2.411	1	generate	Run1	generate/STIM_012.jpg
303.187	1.623	0	generate	Run1	generate/STIM_012.jpg
307.326	2.202	1	generate	Run1	generate/STIM_012.jpg
313.166	2.248	0	generate	Run1	generate/STIM_013.jpg
318.81	1.913	0	generate	Run1	generate/STIM_013.jpg
323.623	1.134	1	generate	Run1	generate/STIM_013.jpg
327.6	2.334	1	generate	Run1	generate/STIM_013.jpg
333.738	0.944	1	generate	Run1	generate/STIM_013.jpg
337.519	2.297	1	generate	Run1	generate/STIM_014.jpg
342.785	1.227	1	generate	Run1	generate/STIM_014.jpg
347.735	1.903	0	generate	Run1	generate/STIM_014.jpg
351.824	1.045	0	generate	Run1	generate/STIM_014.jpg
356.86	1.324	0	generate	Run1	generate/STIM_014.jpg
361.724	1.598	1	generate	Run1	generate/STIM_015.jpg
366.719	2.182	0	generate	Run1	generate/STIM_015.jpg
371.792	2.21	1	generate	Run1	generate/STIM_015.jpg
376.683	1.883	0	generate	Run1	generate/STIM_015.jpg
382.524	1.266	1	generate	Run1	generate/STIM_015.jpg
386.6	2.39	0	generate	Run1	generate/STIM_016.jpg
392.061	2.621	1	generate	Run1	generate/STIM_016.jpg
398.023	1.29	0	generate	Run1	generate/STIM_016.jpg
402.949	1.434	1	generate	Run1	generate/STIM_016.jpg
406.546	1.309	1	generate	Run1	generate/STIM_016.jpg
411.838	1.15	1	generate	Run1	generate/STIM_017.jpg
416.816	1.918	0	generate	Run1	generate/STIM_017.jpg
422.333	2.39	1	generate	Run1	generate/STIM_017.jpg
426.86	1.454	1	generate	Run1	generate/STIM_017.jpg
431.593	1.568	0	generate	Run1	generate/STIM_017.jpg
435.957	1.971	1	generate	Run1	generate/STIM_018.jpg
440.505	1.386	1	generate	Run1	generate/STIM_018.jpg
444.19	1.328	1	generate	Run1	generate/STIM_018.jpg
448.508	1.128	1	generate	Run1	generate/STIM_018.jpg
453.179	2.092	0	generate	Run1	generate/STIM_018.jpg
458.946	2.101	1	generate	Run1	generate/STIM_019.jpg
464.427	2.249	1	generate	Run1	generate/STIM_019.jpg
468.873	2.459	0	generate	Run1	generate/STIM_019.jpg
474.932	1.45	1	generate	Run1	generate/STIM_019.jpg
479.522	1.953	1	generate	Run1	generate/STIM_019.jpg
483.634	2.563	0	generate	Run1	generate/STIM_020.jpg
490.147	2.549	1	generate	Run1	generate/STIM_020.jpg
494.94	2.052	1	generate	Run1	generate/STIM_020.jpg
500.036	2.165	1	generate	Run1	generate/STIM_020.jpg
506.16	1.54	1	generate	Run1	generate/STIM_020.jpg
510.263	2.401	0	generate	Run1	generate/STIM_021.jpg
516.62	1.266	1	generate	Run1	generate/STIM_021.jpg
521.617	1.415	1	generate	Run1	generate/STIM_021.jpg
526.717	1.842	1	generate	Run1	generate/STIM_021.jpg
531.663	1.598	1	generate	Run1	generate/STIM_021.jpg
536.938	2.283	1	generate	Run1	generate/STIM_022.jpg
542.787	2.622	0	generate	Run1	generate/STIM_022.jpg
547.625	1.498	1	generate	Run1	generate/STIM_022.jpg
553.028	1.594	1	generate	Run1	generate/STIM_022.jpg
558.335	1.61	0	generate	Run1	generate/STIM_022.jpg
562.815	2.522	1	generate	Run1	generate/STIM_023.jpg
567.972	1.964	1	generate	Run1	generate/STIM_023.jpg
573.878	2.151	1	generate	Run1	generate/STIM_023.jpg
579.895	1.648	0	generate	Run1	generate/STIM_023.jpg
584.86	2.158	1	generate	Run1	generate/STIM_023.jpg
589.769	1.809	1	generate	Run1	generate/STIM_024.jpg
594.344	1.942	1	generate	Run1	generate/STIM_024.jpg
599.647	1.635	1	generate	Run1	generate/STIM_024.jpg
604.103	1.784	1	generate	Run1	generate/STIM_024.jpg
609.749	1.014	1	generate	Run1	generate/STIM_024.jpg
613.546	0.647	1	repeat	Run1	repeat/STIM_000.jpg
616.246	0.605	1	repeat	Run1	repeat/STIM_000.jpg
619.483	0.915	1	repeat	Run1	repeat/STIM_000.jpg
622.976	0.689	1	repeat	Run1	repeat/STIM_000.jpg
626.048	0.774	1	repeat	Run1	repeat/STIM_000.jpg
628.942	0.714	1	repeat	Run1	repeat/STIM_001.jpg
632.528	0.587	1	repeat	Run1	repeat/STIM_001.jpg
635.176	0.474	1	repeat	Run1	repeat/STIM_001.jpg
639.212	0.672	1	repeat	Run1	repeat/STIM_001.jpg
643.526	0.894	1	repeat	Run1	repeat/STIM_001.jpg
647.856	0.932	1	repeat	Run1	repeat/STIM_002.jpg
650.952	0.858	1	repeat	Run1	repeat/STIM_002.jpg
654.957	0.541	1	repeat	Run1	repeat/STIM_002.jpg
658.911	0.774	1	repeat	Run1	repeat/STIM_002.jpg
662.832	0.499	1	repeat	Run1	repeat/STIM_002.jpg
665.83	0.858	1	repeat	Run1	repeat/STIM_003.jpg
668.921	0.514	1	repeat	Run1	repeat/STIM_003.jpg
672.345	0.675	1	repeat	Run1	repeat/STIM_003.jpg
675.272	0.755	1	repeat	Run1	repeat/STIM_003.jpg
679.918	0.579	0	repeat	Run1	repeat/STIM_003.jpg
683.823	0.562	1	repeat	Run1	repeat/STIM_004.jpg
687.72	0.906	0	repeat	Run1	repeat/STIM_004.jpg
691.866	0.85	1	repeat	Run1	repeat/STIM_004.jpg
695.597	0.819	1	repeat	Run1	repeat/STIM_004.jpg
698.821	0.862	1	repeat	Run1	repeat/STIM_004.jpg
702.353	0.761	1	repeat	Run1	repeat/STIM_005.jpg
706.946	0.595	1	repeat	Run1	repeat/STIM_005.jpg
710.357	0.912	0	repeat	Run1	repeat/STIM_005.jpg
714.264	0.934	1	repeat	Run1	repeat/STIM_005.jpg
718.95	0.668	1	repeat	Run1	repeat/STIM_005.jpg
722.058	0.915	1	repeat	Run1	repeat/STIM_006.jpg
726.631	0.702	1	repeat	Run1	repeat/STIM_006.jpg
730.236	0.483	1	repeat	Run1	repeat/STIM_006.jpg
733.26	0.688	1	repeat	Run1	repeat/STIM_006.jpg
737.167	0.601	1	repeat	Run1	repeat/STIM_006.jpg
739.994	0.633	0	repeat	Run1	repeat/STIM_007.jpg
744.524	0.778	1	repeat	Run1	repeat/STIM_007.jpg
748.556	0.716	1	repeat	Run1	repeat/STIM_007.jpg
752.036	0.657	1	repeat	Run1	repeat/STIM_007.jpg
755.644	0.758	1	repeat	Run1	repeat/STIM_007.jpg
758.842	0.81	1	repeat	Run1	repeat/STIM_008.jpg
763.623	0.849	1	repeat	Run1	repeat/STIM_008.jpg
768.388	0.552	1	repeat	Run1	repeat/STIM_008.jpg
771.111	0.636	1	repeat	Run1	repeat/STIM_008.jpg
774.516	0.741	0	repeat	Run1	repeat/STIM_008.jpg
777.554	0.472	1	repeat	Run1	repeat/STIM_009.jpg
781.511	0.868	0	repeat	Run1	repeat/STIM_009.jpg
784.625	0.542	1	repeat	Run1	repeat/STIM_009.jpg
788.933	0.471	1	repeat	Run1	repeat/STIM_009.jpg
792.67	0.781	1	repeat	Run1	repeat/STIM_009.jpg
796.052	0.921	1	repeat	Run1	repeat/STIM_010.jpg
799.981	0.929	1	repeat	Run1	repeat/STIM_010.jpg
804.615	0.671	1	repeat	Run1	repeat/STIM_010.jpg
808.412	0.779	1	repeat	Run1	repeat/STIM_010.jpg
812.346	0.588	0	repeat	Run1	repeat/STIM_010.jpg
815.216	0.928	1	repeat	Run1	repeat/STIM_011.jpg
818.508	0.577	1	repeat	Run1	repeat/STIM_011.jpg
821.788	0.863	1	repeat	Run1	repeat/STIM_011.jpg
825.641	0.686	1	repeat	Run1	repeat/STIM_011.jpg
829.925	0.552	1	repeat	Run1	repeat/STIM_011.jpg
832.994	0.823	1	repeat	Run1	repeat/STIM_012.jpg
837.517	0.921	1	repeat	Run1	repeat/STIM_012.jpg
840.914	0.862	1	repeat	Run1	repeat/STIM_012.jpg
844.288	0.535	1	repeat	Run1	repeat/STIM_012.jpg
848.422	0.699	1	repeat	Run1	repeat/STIM_012.jpg
851.953	0.612	0	repeat	Run1	repeat/STIM_013.jpg
855.641	0.76	1	repeat	Run1	repeat/STIM_013.jpg
859.726	0.599	1	repeat	Run1	repeat/STIM_013.jpg
863.904	0.762	1	repeat	Run1	repeat/STIM_013.jpg
867.311	0.654	1	repeat	Run1	repeat/STIM_013.jpg
871.185	0.876	1	repeat	Run1	repeat/STIM_014.jpg
874.886	0.831	1	repeat	Run1	repeat/STIM_014.jpg
878.639	0.674	1	repeat	Run1	repeat/STIM_014.jpg
882.156	0.517	1	repeat	Run1	repeat/STIM_014.jpg
885.33	0.774	1	repeat	Run1	repeat/STIM_014.jpg
888.389	1.033	1	generate	Run2	generate/STIM_000.jpg
892.186	1.959	1	generate	Run2	generate/STIM_000.jpg
897.596	1.301	1	generate	Run2	generate/STIM_000.jpg
901.073	1.332	1	generate	Run2	generate/STIM_000.jpg
905.931	0.831	0	generate	Run2	generate/STIM_000.jpg
910.487	1.748	1	generate	Run2	generate/STIM_001.jpg
915.645	0.96	1	generate	Run2	generate/STIM_001.jpg
918.803	1.829	1	generate	Run2	generate/STIM_001.jpg
923.17	1.742	1	generate	Run2	generate/STIM_001.jpg
928.59	1.163	1	generate	Run2	generate/STIM_001.jpg
933.035	1.474	0	generate	Run2	generate/STIM_002.jpg
938.138	0.955	1	generate	Run2	generate/STIM_002.jpg
942.637	1.128	1	generate	Run2	generate/STIM_002.jpg
947.586	1.21	1	generate	Run2	generate/STIM_002.jpg
951.112	1.55	1	generate	Run2	generate/STIM_002.jpg
954.842	1.311	1	generate	Run2	generate/STIM_003.jpg
958.742	1.837	1	generate	Run2	generate/STIM_003.jpg
964.578	0.993	1	generate	Run2	generate/STIM_003.jpg
968.462	1.395	1	generate	Run2	generate/STIM_003.jpg
972.187	1.437	1	generate	Run2	generate/STIM_003.jpg
977.216	1.017	1	generate	Run2	generate/STIM_004.jpg
982.057	1.734	1	generate	Run2	generate/STIM_004.jpg
987.483	1.812	1	generate	Run2	generate/STIM_004.jpg
991.302	1.124	1	generate	Run2	generate/STIM_004.jpg
995.959	1.239	0	generate	Run2	generate/STIM_004.jpg
1001.014	1.674	0	generate	Run2	generate/STIM_005.jpg
1006.408	1.518	1	generate	Run2	generate/STIM_005.jpg
1011.498	1.404	1	generate	Run2	generate/STIM_005.jpg
1015.974	1.353	1	generate	Run2	generate/STIM_005.jpg
1020.975	1.358	1	generate	Run2	generate/STIM_005.jpg
1024.654	2.053	1	generate	Run2	generate/STIM_006.jpg
1028.96	0.983	1	generate	Run2	generate/STIM_006.jpg
1033.098	1.238	1	generate	Run2	generate/STIM_006.jpg
1036.913	1.25	1	generate	Run2	generate/STIM_006.jpg
1041.992	1.654	1	generate	Run2	generate/STIM_006.jpg
1047.573	2.277	1	generate	Run2	generate/STIM_007.jpg
1052.851	1.57	1	generate	Run2	generate/STIM_007.jpg
1057.298	1.771	1	generate	Run2	generate/STIM_007.jpg
1061.314	1.2	1	generate	Run2	generate/STIM_007.jpg
1065.83	0.8	1	generate	Run2	generate/STIM_007.jpg
1068.816	1.939	0	generate	Run2	generate/STIM_008.jpg
1073.463	2.035	1	generate	Run2	generate/STIM_008.jpg
1078.722	0.895	1	generate	Run2	generate/STIM_008.jpg
1082.995	0.884	1	generate	Run2	generate/STIM_008.jpg
1087.155	0.799	1	generate	Run2	generate/STIM_008.jpg
1091.572	2.067	1	generate	Run2	generate/STIM_009.jpg
1096.496	1.407	1	generate	Run2	generate/STIM_009.jpg
1100.013	1.363	1	generate	Run2	generate/STIM_009.jpg
1103.385	1.594	1	generate	Run2	generate/STIM_009.jpg
1107.966	1.355	1	generate	Run2	generate/STIM_009.jpg
1112.563	1.798	1	generate	Run2	generate/STIM_010.jpg
1116.459	1.939	1	generate	Run2	generate/STIM_010.jpg
1121.205	1.826	1	generate	Run2	generate/STIM_010.jpg
1125.062	1.354	1	generate	Run2	generate/STIM_010.jpg
1129.508	1.381	0	generate	Run2	generate/STIM_010.jpg
1133.267	1.578	1	generate	Run2	generate/STIM_011.jpg
1138.49	1.249	1	generate	Run2	generate/STIM_011.jpg
1141.749	0.933	1	generate	Run2	generate/STIM_011.jpg
1145.288	0.975	1	generate	Run2	generate/STIM_011.jpg
1148.598	0.934	1	generate	Run2	generate/STIM_011.jpg
1152.847	1.134	1	generate	Run2	generate/STIM_012.jpg
1156.555	1.659	1	generate	Run2	generate/STIM_012.jpg
1160.751	0.902	0	generate	Run2	generate/STIM_012.jpg
1165.182	1.123	1	generate	Run2	generate/STIM_012.jpg
1169.373	1.642	1	generate	Run2	generate/STIM_012.jpg
1174.802	2.182	1	generate	Run2	generate/STIM_013.jpg
1180.853	1.556	1	generate	Run2	generate/STIM_013.jpg
1185.997	1.151	1	generate	Run2	generate/STIM_013.jpg
1190.243	1.012	1	generate	Run2	generate/STIM_013.jpg
1194.627	1.844	1	generate	Run2	generate/STIM_013.jpg
1200.176	1.166	0	generate	Run2	generate/STIM_014.jpg
1204.179	1.359	1	generate	Run2	generate/STIM_014.jpg
1208.499	1.547	0	generate	Run2	generate/STIM_014.jpg
1212.51	1.66	0	generate	Run2	generate/STIM_014.jpg
1217.597	1.83	1	generate	Run2	generate/STIM_014.jpg
1222.657	1.228	0	generate	Run2	generate/STIM_015.jpg
1227.377	1.204	0	generate	Run2	generate/STIM_015.jpg
1231.015	1.064	1	generate	Run2	generate/STIM_015.jpg
1235.884	1.417	1	generate	Run2	generate/STIM_015.jpg
1239.571	1.057	0	generate	Run2	generate/STIM_015.jpg
1243.169	2.379	1	generate	Run2	generate/STIM_016.jpg
1249.468	1.842	0	generate	Run2	generate/STIM_016.jpg
1253.901	0.902	0	generate	Run2	generate/STIM_016.jpg
1258.34	1.556	0	generate	Run2	generate/STIM_016.jpg
1263.135	1.354	1	generate	Run2	generate/STIM_016.jpg
1268.027	1.721	1	generate	Run2	generate/STIM_017.jpg
1272.851	1.547	0	generate	Run2	generate/STIM_017.jpg
1278.287	1.466	1	generate	Run2	generate/STIM_017.jpg
1281.789	1.745	0	generate	Run2	generate/STIM_017.jpg
1287.099	1.923	1	generate	Run2	generate/STIM_017.jpg
1292.807	1.265	1	generate	Run2	generate/STIM_018.jpg
1297.249	1.924	0	generate	Run2	generate/STIM_018.jpg
1301.587	1.733	1	generate	Run2	generate/STIM_018.jpg
1305.71	1.936	1	generate	Run2	generate/STIM_018.jpg
1311.181	1.539	1	generate	Run2	generate/STIM_018.jpg
1316.385	1.149	1	generate	Run2	generate/STIM_019.jpg
1321.335	2.228	1	generate	Run2	generate/STIM_019.jpg
1327.36	1.157	0	generate	Run2	generate/STIM_019.jpg
1332.247	1.909	1	generate	Run2	generate/STIM_019.jpg
1338.126	1.691	1	generate	Run2	generate/STIM_019.jpg
1341.937	1.031	0	generate	Run2	generate/STIM_020.jpg
1346.63	2.098	1	generate	Run2	generate/STIM_020.jpg
1350.954	1.976	1	generate	Run2	generate/STIM_020.jpg
1356.268	1.824	0	generate	Run2	generate/STIM_020.jpg
1361.343	1.812	1	generate	Run2	generate/STIM_020.jpg
1365.222	1.143	1	generate	Run2	generate/STIM_021.jpg
1369.827	1.708	1	generate	Run2	generate/STIM_021.jpg
1375.006	1.552	1	generate	Run2	generate/STIM_021.jpg
1379.014	1.647	1	generate	Run2	generate/STIM_021.jpg
1383.817	1.488	1	generate	Run2	generate/STIM_021.jpg
1388.666	2.281	1	generate	Run2	generate/STIM_022.jpg
1393.436	2.093	1	generate	Run2	generate/STIM_022.jpg
1399.028	1.83	1	generate	Run2	generate/STIM_022.jpg
1403.494	1.781	1	generate	Run2	generate/STIM_022.jpg
1409.001	1.241	0	generate	Run2	generate/STIM_022.jpg
1413.242	0.975	0	generate	Run2	generate/STIM_023.jpg
1417.544	2.114	1	generate	Run2	generate/STIM_023.jpg
1421.881	1.084	0	generate	Run2	generate/STIM_023.jpg
1426.113	1.958	1	generate	Run2	generate/STIM_023.jpg
1430.435	0.916	1	generate	Run2	generate/STIM_023.jpg
1433.669	0.986	1	generate	Run2	generate/STIM_024.jpg
1437.306	1.123	0	generate	Run2	generate/STIM_024.jpg
1440.836	1.783	1	generate	Run2	generate/STIM_024.jpg
1445.306	1.464	1	generate	Run2	generate/STIM_024.jpg
1450.534	1.822	1	generate	Run2	generate/STIM_024.jpg
1456.178	0.823	1	repeat	Run2	repeat/STIM_000.jpg
1459.769	0.55	1	repeat	Run2	repeat/STIM_000.jpg
1462.374	0.703	1	repeat	Run2	repeat/STIM_000.jpg
1465.847	0.907	1	repeat	Run2	repeat/STIM_000.jpg
1469.709	0.901	1	repeat	Run2	repeat/STIM_000.jpg
1472.734	0.83	1	repeat	Run2	repeat/STIM_001.jpg
1475.635	0.879	1	repeat	Run2	repeat/STIM_001.jpg
1480.223	0.9	1	repeat	Run2	repeat/STIM_001.jpg
1483.63	0.727	1	repeat	Run2	repeat/STIM_001.jpg
1487.79	0.613	1	repeat	Run2	repeat/STIM_001.jpg
1491.725	0.838	1	repeat	Run2	repeat/STIM_002.jpg
1496.001	0.864	1	repeat	Run2	repeat/STIM_002.jpg
1500.151	0.634	1	repeat	Run2	repeat/STIM_002.jpg
1503.923	0.746	1	repeat	Run2	repeat/STIM_002.jpg
1507.743	0.514	1	repeat	Run2	repeat/STIM_002.jpg
1511.082	0.711	1	repeat	Run2	repeat/STIM_003.jpg
1515.502	0.858	1	repeat	Run2	repeat/STIM_003.jpg
1519.273	0.919	1	repeat	Run2	repeat/STIM_003.jpg
1523.544	0.57	1	repeat	Run2	repeat/STIM_003.jpg
1526.651	0.806	1	repeat	Run2	repeat/STIM_003.jpg
1530.88	0.508	1	repeat	Run2	repeat/STIM_004.jpg
1533.567	0.914	1	repeat	Run2	repeat/STIM_004.jpg
1536.664	0.778	1	repeat	Run2	repeat/STIM_004.jpg
1541.361	0.724	1	repeat	Run2	repeat/STIM_004.jpg
1545.379	0.664	1	repeat	Run2	repeat/STIM_004.jpg
1549.61	0.905	1	repeat	Run2	repeat/STIM_005.jpg
1552.945	0.525	1	repeat	Run2	repeat/STIM_005.jpg
1557.196	0.477	0	repeat	Run2	repeat/STIM_005.jpg
1560.752	0.475	0	repeat	Run2	repeat/STIM_005.jpg
1564.102	0.679	1	repeat	Run2	repeat/STIM_005.jpg
1566.828	0.797	0	repeat	Run2	repeat/STIM_006.jpg
1570.027	0.533	1	repeat	Run2	repeat/STIM_006.jpg
1573.646	0.616	1	repeat	Run2	repeat/STIM_006.jpg
1577.91	0.929	1	repeat	Run2	repeat/STIM_006.jpg
1582.182	0.68	1	repeat	Run2	repeat/STIM_006.jpg
1586.288	0.852	1	repeat	Run2	repeat/STIM_007.jpg
1589.551	0.841	0	repeat	Run2	repeat/STIM_007.jpg
1593.912	0.565	0	repeat	Run2	repeat/STIM_007.jpg
1596.819	0.78	1	repeat	Run2	repeat/STIM_007.jpg
1601.429	0.84	1	repeat	Run2	repeat/STIM_007.jpg
1606.008	0.786	1	repeat	Run2	repeat/STIM_008.jpg
1609.563	0.85	1	repeat	Run2	repeat/STIM_008.jpg
1612.693	0.618	1	repeat	Run2	repeat/STIM_008.jpg
1616.566	0.792	1	repeat	Run2	repeat/STIM_008.jpg
1619.9	0.503	1	repeat	Run2	repeat/STIM_008.jpg
1622.744	0.903	1	repeat	Run2	repeat/STIM_009.jpg
1627.289	0.671	1	repeat	Run2	repeat/STIM_009.jpg
1630.208	0.818	1	repeat	Run2	repeat/STIM_009.jpg
1633.642	0.847	0	repeat	Run2	repeat/STIM_009.jpg
1637.654	0.7	0	repeat	Run2	repeat/STIM_009.jpg
1641.695	0.601	1	repeat	Run2	repeat/STIM_010.jpg
1645.065	0.8	0	repeat	Run2	repeat/STIM_010.jpg
1649.052	0.695	1	repeat	Run2	repeat/STIM_010.jpg
1652.946	0.616	1	repeat	Run2	repeat/STIM_010.jpg
1657.258	0.78	1	repeat	Run2	repeat/STIM_010.jpg
1660.134	0.855	1	repeat	Run2	repeat/STIM_011.jpg
1663.361	0.606	1	repeat	Run2	repeat/STIM_011.jpg
1666.308	0.868	1	repeat	Run2	repeat/STIM_011.jpg
1669.97	0.88	1	repeat	Run2	repeat/STIM_011.jpg
1672.874	0.912	1	repeat	Run2	repeat/STIM_011.jpg
1676.568	0.819	1	repeat	Run2	repeat/STIM_012.jpg
1681.189	0.49	1	repeat	Run2	repeat/STIM_012.jpg
1685.449	0.588	1	repeat	Run2	repeat/STIM_012.jpg
1689.718	0.492	1	repeat	Run2	repeat/STIM_012.jpg
1693.412	0.714	1	repeat	Run2	repeat/STIM_012.jpg
1697.083	0.739	1	repeat	Run2	repeat/STIM_013.jpg
1701.109	0.805	1	repeat	Run2	repeat/STIM_013.jpg
1704.568	0.719	1	repeat	Run2	repeat/STIM_013.jpg
1708.295	0.572	1	repeat	Run2	repeat/STIM_013.jpg
1711.059	0.632	1	repeat	Run2	repeat/STIM_013.jpg
1713.864	0.816	1	repeat	Run2	repeat/STIM_014.jpg
1717.942	0.721	1	repeat	Run2	repeat/STIM_014.jpg
1721.185	0.734	1	repeat	Run2	repeat/STIM_014.jpg
1723.952	0.739	1	repeat	Run2	repeat/STIM_014.jpg
1728.575	0.673	1	repeat	Run2	repeat/STIM_014.jpg
1732.749	1.366	1	generate	Run3	generate/STIM_000.jpg
1737.929	1.895	1	generate	Run3	generate/STIM_000.jpg
1743.671	1.287	1	generate	Run3	generate/STIM_000.jpg
1747.075	1.694	1	generate	Run3	generate/STIM_000.jpg
1752.621	1.118	1	generate	Run3	generate/STIM_000.jpg
1756.6	1.904	1	generate	Run3	generate/STIM_001.jpg
1760.986	1.525	1	generate	Run3	generate/STIM_001.jpg
1766.071	0.962	1	generate	Run3	generate/STIM_001.jpg
1769.958	0.803	1	generate	Run3	generate/STIM_001.jpg
1774.383	1.097	1	generate	Run3	generate/STIM_001.jpg
1777.596	1.011	1	generate	Run3	generate/STIM_002.jpg
1780.624	1.836	1	generate	Run3	generate/STIM_002.jpg
1785.966	0.975	1	generate	Run3	generate/STIM_002.jpg
1790.601	1.104	0	generate	Run3	generate/STIM_002.jpg
1794.056	1.604	1	generate	Run3	generate/STIM_002.jpg
1798.645	1.127	0	generate	Run3	generate/STIM_003.jpg
1801.826	1.067	1	generate	Run3	generate/STIM_003.jpg
1805.592	1.434	1	generate	Run3	generate/STIM_003.jpg
1810.75	1.134	1	generate	Run3	generate/STIM_003.jpg
1815.434	1.758	1	generate	Run3	generate/STIM_003.jpg
1820.92	0.808	1	generate	Run3	generate/STIM_004.jpg
1825.018	1.83	0	generate	Run3	generate/STIM_004.jpg
1829.895	1.672	1	generate	Run3	generate/STIM_004.jpg
1834.962	1.589	0	generate	Run3	generate/STIM_004.jpg
1840.022	1.605	1	generate	Run3	generate/STIM_004.jpg
1844.329	1.279	1	generate	Run3	generate/STIM_005.jpg
1848.161	1.546	0	generate	Run3	generate/STIM_005.jpg
1853.685	1.84	1	generate	Run3	generate/STIM_005.jpg
1857.696	1.669	0	generate	Run3	generate/STIM_005.jpg
1863.021	1.848	0	generate	Run3	generate/STIM_005.jpg
1868.357	0.922	1	generate	Run3	generate/STIM_006.jpg
1871.31	1.884	1	generate	Run3	generate/STIM_006.jpg
1875.597	1.434	1	generate	Run3	generate/STIM_006.jpg
1880.02	1.873	1	generate	Run3	generate/STIM_006.jpg
1885.884	1.05	1	generate	Run3	generate/STIM_006.jpg
1890.841	1.764	1	generate	Run3	generate/STIM_007.jpg
1895.247	1.793	1	generate	Run3	generate/STIM_007.jpg
1899.982	0.977	1	generate	Run3	generate/STIM_007.jpg
1904.407	1.463	1	generate	Run3	generate/STIM_007.jpg
1908.438	1.656	1	generate	Run3	generate/STIM_007.jpg
1912.44	1.477	1	generate	Run3	generate/STIM_008.jpg
1917.188	1.92	0	generate	Run3	generate/STIM_008.jpg
1922.551	1.61	1	generate	Run3	generate/STIM_008.jpg
1926.582	1.17	1	generate	Run3	generate/STIM_008.jpg
1930.895	1.468	1	generate	Run3	generate/STIM_008.jpg
1936.199	1.711	1	generate	Run3	generate/STIM_009.jpg
1940.817	1.451	1	generate	Run3	generate/STIM_009.jpg
1944.553	1.876	0	generate	Run3	generate/STIM_009.jpg
1949.099	1.674	0	generate	Run3	generate/STIM_009.jpg
1954.189	1.02	1	generate	Run3	generate/STIM_009.jpg
1958.666	0.796	1	generate	Run3	generate/STIM_010.jpg
1963.3	1.298	1	generate	Run3	generate/STIM_010.jpg
1966.781	1.855	1	generate	Run3	generate/STIM_010.jpg
1971.236	1.595	1	generate	Run3	generate/STIM_010.jpg
1976.4	1.964	1	generate	Run3	generate/STIM_010.jpg
1981.134	1.334	1	generate	Run3	generate/STIM_011.jpg
1985.188	1.841	0	generate	Run3	generate/STIM_011.jpg
1990.791	1.301	1	generate	Run3	generate/STIM_011.jpg
1995.094	1.347	1	generate	Run3	generate/STIM_011.jpg
1999.024	1.179	1	generate	Run3	generate/STIM_011.jpg
2004.08	1.162	1	generate	Run3	generate/STIM_012.jpg
2008.295	0.967	1	generate	Run3	generate/STIM_012.jpg
2012.277	1.456	1	generate	Run3	generate/STIM_012.jpg
2015.862	1.516	0	generate	Run3	generate/STIM_012.jpg
2020.164	1.933	1	generate	Run3	generate/STIM_012.jpg
2025.841	1.828	0	generate	Run3	generate/STIM_013.jpg
2030.171	1.28	0	generate	Run3	generate/STIM_013.jpg
2033.68	1.721	1	generate	Run3	generate/STIM_013.jpg
2038.51	1.793	1	generate	Run3	generate/STIM_013.jpg
2043.001	1.856	1	generate	Run3	generate/STIM_013.jpg
2047.79	1.36	1	generate	Run3	generate/STIM_014.jpg
2052.604	1.265	1	generate	Run3	generate/STIM_014.jpg
2056.078	1.026	1	generate	Run3	generate/STIM_014.jpg
2059.143	0.93	1	generate	Run3	generate/STIM_014.jpg
2063.548	1.333	1	generate	Run3	generate/STIM_014.jpg
2068.494	1.587	0	generate	Run3	generate/STIM_015.jpg
2073.893	1.206	1	generate	Run3	generate/STIM_015.jpg
2077.655	1.731	1	generate	Run3	generate/STIM_015.jpg
2082.817	1.298	1	generate	Run3	generate/STIM_015.jpg
2088.036	1.423	1	generate	Run3	generate/STIM_015.jpg
2091.717	1.487	0	generate	Run3	generate/STIM_016.jpg
2096.547	1.181	1	generate	Run3	generate/STIM_016.jpg
2100.755	1.938	0	generate	Run3	generate/STIM_016.jpg
2105.657	1.108	1	generate	Run3	generate/STIM_016.jpg
2109.855	1.706	1	generate	Run3	generate/STIM_016.jpg
2114.005	1.912	1	generate	Run3	generate/STIM_017.jpg
2119.123	1.787	0	generate	Run3	generate/STIM_017.jpg
2123.382	1.285	1	generate	Run3	generate/STIM_017.jpg
2126.677	1.699	1	generate	Run3	generate/STIM_017.jpg
2130.831	1.076	1	generate	Run3	generate/STIM_017.jpg
2134.544	0.82	0	generate	Run3	generate/STIM_018.jpg
2139.042	1.389	1	generate	Run3	generate/STIM_018.jpg
2142.786	1.542	1	generate	Run3	generate/STIM_018.jpg
2146.68	1.066	1	generate	Run3	generate/STIM_018.jpg
2151.564	1.91	1	generate	Run3	generate/STIM_018.jpg
2155.523	1.258	0	generate	Run3	generate/STIM_019.jpg
2160.61	1.57	1	generate	Run3	generate/STIM_019.jpg
2164.198	1.105	1	generate	Run3	generate/STIM_019.jpg
2167.761	1.829	1	generate	Run3	generate/STIM_019.jpg
2171.704	1.936	1	generate	Run3	generate/STIM_019.jpg
2177.612	1.858	1	generate	Run3	generate/STIM_020.jpg
2183.433	1.926	0	generate	Run3	generate/STIM_020.jpg
2187.671	1.045	1	generate	Run3	generate/STIM_020.jpg
2192.215	1.76	0	generate	Run3	generate/STIM_020.jpg
2197.026	1.612	0	generate	Run3	generate/STIM_020.jpg
2202.269	1.817	1	generate	Run3	generate/STIM_021.jpg
2207.027	1.17	0	generate	Run3	generate/STIM_021.jpg
2211.162	0.818	1	generate	Run3	generate/STIM_021.jpg
2215.237	1.115	1	generate	Run3	generate/STIM_021.jpg
2218.505	1.938	1	generate	Run3	generate/STIM_021.jpg
2224.161	1.044	1	generate	Run3	generate/STIM_022.jpg
2229.044	0.869	0	generate	Run3	generate/STIM_022.jpg
2233.003	0.978	1	generate	Run3	generate/STIM_022.jpg
2236.993	1.498	1	generate	Run3	generate/STIM_022.jpg
2242.418	1.678	1	generate	Run3	generate/STIM_022.jpg
2247.367	1.234	1	generate	Run3	generate/STIM_023.jpg
2252.153	0.996	1	generate	Run3	generate/STIM_023.jpg
2255.17	1.217	1	generate	Run3	generate/STIM_023.jpg
2260.333	1.364	1	generate	Run3	generate/STIM_023.jpg
2265.032	1.855	1	generate	Run3	generate/STIM_023.jpg
2269.897	1.625	1	generate	Run3	generate/STIM_024.jpg
2275.216	1.208	1	generate	Run3	generate/STIM_024.jpg
2279.061	1.876	1	generate	Run3	generate/STIM_024.jpg
2283.901	0.972	1	generate	Run3	generate/STIM_024.jpg
2288.14	1.829	1	generate	Run3	generate/STIM_024.jpg
2292.661	0.532	1	repeat	Run3	repeat/STIM_000.jpg
2296.121	0.636	1	repeat	Run3	repeat/STIM_000.jpg
2299.283	0.669	1	repeat	Run3	repeat/STIM_000.jpg
2302.847	0.908	1	repeat	Run3	repeat/STIM_000.jpg
2305.888	0.677	1	repeat	Run3	repeat/STIM_000.jpg
2309.641	0.56	1	repeat	Run3	repeat/STIM_001.jpg
2313.848	0.497	1	repeat	Run3	repeat/STIM_001.jpg
2316.413	0.937	1	repeat	Run3	repeat/STIM_001.jpg
2319.994	0.676	1	repeat	Run3	repeat/STIM_001.jpg
2323.792	0.885	1	repeat	Run3	repeat/STIM_001.jpg
2327.089	0.869	1	repeat	Run3	repeat/STIM_002.jpg
2331.661	0.841	1	repeat	Run3	repeat/STIM_002.jpg
2335.861	0.839	1	repeat	Run3	repeat/STIM_002.jpg
2338.88	0.68	1	repeat	Run3	repeat/STIM_002.jpg
2342.679	0.595	1	repeat	Run3	repeat/STIM_002.jpg
2346.888	0.888	1	repeat	Run3	repeat/STIM_003.jpg
2350.297	0.549	1	repeat	Run3	repeat/STIM_003.jpg
2353.572	0.857	1	repeat	Run3	repeat/STIM_003.jpg
2356.487	0.917	1	repeat	Run3	repeat/STIM_003.jpg
2360.396	0.618	1	repeat	Run3	repeat/STIM_003.jpg
2363.521	0.526	1	repeat	Run3	repeat/STIM_004.jpg
2367.735	0.762	1	repeat	Run3	repeat/STIM_004.jpg
2370.606	0.605	1	repeat	Run3	repeat/STIM_004.jpg
2374.534	0.915	1	repeat	Run3	repeat/STIM_004.jpg
2378.348	0.634	1	repeat	Run3	repeat/STIM_004.jpg
2382.572	0.875	1	repeat	Run3	repeat/STIM_005.jpg
2387.384	0.928	1	repeat	Run3	repeat/STIM_005.jpg
2390.362	0.524	1	repeat	Run3	repeat/STIM_005.jpg
2394.703	0.649	1	repeat	Run3	repeat/STIM_005.jpg
2398.973	0.65	1	repeat	Run3	repeat/STIM_005.jpg
2403.249	0.616	1	repeat	Run3	repeat/STIM_006.jpg
2406.221	0.567	1	repeat	Run3	repeat/STIM_006.jpg
2409.17	0.663	1	repeat	Run3	repeat/STIM_006.jpg
2413.431	0.78	1	repeat	Run3	repeat/STIM_006.jpg
2417.118	0.493	1	repeat	Run3	repeat/STIM_006.jpg
2420.423	0.786	1	repeat	Run3	repeat/STIM_007.jpg
2424.338	0.608	1	repeat	Run3	repeat/STIM_007.jpg
2428.438	0.748	1	repeat	Run3	repeat/STIM_007.jpg
2432.007	0.56	1	repeat	Run3	repeat/STIM_007.jpg
2435.776	0.469	1	repeat	Run3	repeat/STIM_007.jpg
2439.766	0.771	1	repeat	Run3	repeat/STIM_008.jpg
2443.926	0.937	1	repeat	Run3	repeat/STIM_008.jpg
2447.399	0.517	1	repeat	Run3	repeat/STIM_008.jpg
2450.783	0.501	1	repeat	Run3	repeat/STIM_008.jpg
2453.303	0.471	1	repeat	Run3	repeat/STIM_008.jpg
2456.417	0.475	1	repeat	Run3	repeat/STIM_009.jpg
2460.712	0.91	1	repeat	Run3	repeat/STIM_009.jpg
2464.903	0.643	1	repeat	Run3	repeat/STIM_009.jpg
2468.89	0.673	1	repeat	Run3	repeat/STIM_009.jpg
2472.415	0.874	1	repeat	Run3	repeat/STIM_009.jpg
2476.829	0.657	1	repeat	Run3	repeat/STIM_010.jpg
2479.667	0.604	0	repeat	Run3	repeat/STIM_010.jpg
2482.597	0.615	1	repeat	Run3	repeat/STIM_010.jpg
2486.607	0.931	1	repeat	Run3	repeat/STIM_010.jpg
2490.815	0.881	1	repeat	Run3	repeat/STIM_010.jpg
2495.464	0.624	1	repeat	Run3	repeat/STIM_011.jpg
2499.302	0.709	0	repeat	Run3	repeat/STIM_011.jpg
2502.618	0.569	1	repeat	Run3	repeat/STIM_011.jpg
2506.478	0.53	1	repeat	Run3	repeat/STIM_011.jpg
2510.775	0.807	1	repeat	Run3	repeat/STIM_011.jpg
2515.047	0.794	1	repeat	Run3	repeat/STIM_012.jpg
2518.129	0.826	1	repeat	Run3	repeat/STIM_012.jpg
2522.801	0.863	1	repeat	Run3	repeat/STIM_012.jpg
2526.025	0.921	1	repeat	Run3	repeat/STIM_012.jpg
2529.483	0.838	1	repeat	Run3	repeat/STIM_012.jpg
2533.134	0.819	1	repeat	Run3	repeat/STIM_013.jpg
2537.833	0.795	1	repeat	Run3	repeat/STIM_013.jpg
2542.409	0.556	1	repeat	Run3	repeat/STIM_013.jpg
2546.685	0.874	1	repeat	Run3	repeat/STIM_013.jpg
2551.093	0.607	1	repeat	Run3	repeat/STIM_013.jpg
2553.706	0.495	1	repeat	Run3	repeat/STIM_014.jpg
2557.22	0.55	0	repeat	Run3	repeat/STIM_014.jpg
2560.947	0.614	1	repeat	Run3	repeat/STIM_014.jpg
2565.122	0.754	1	repeat	Run3	repeat/STIM_014.jpg
2568.763	0.729	1	repeat	Run3	repeat/STIM_014.jpg
2573.282	1.649	1	generate	Run4	generate/STIM_000.jpg
2578.406	1.12	1	generate	Run4	generate/STIM_000.jpg
2581.632	1.38	1	generate	Run4	generate/STIM_000.jpg
2585.354	1.613	1	generate	Run4	generate/STIM_000.jpg
2590.666	1.773	1	generate	Run4	generate/STIM_000.jpg
2596.116	1.88	1	generate	Run4	generate/STIM_001.jpg
2601.525	1.741	0	generate	Run4	generate/STIM_001.jpg
2605.508	1.534	1	generate	Run4	generate/STIM_001.jpg
2609.183	1.507	1	generate	Run4	generate/STIM_001.jpg
2613.781	1.741	1	generate	Run4	generate/STIM_001.jpg
2619.423	1.6	1	generate	Run4	generate/STIM_002.jpg
2623.577	1.553	1	generate	Run4	generate/STIM_002.jpg
2627.802	1.446	1	generate	Run4	generate/STIM_002.jpg
2631.286	1.523	1	generate	Run4	generate/STIM_002.jpg
2634.945	1.838	1	generate	Run4	generate/STIM_002.jpg
2639.375	0.948	1	generate	Run4	generate/STIM_003.jpg
2642.406	1.133	1	generate	Run4	generate/STIM_003.jpg
2646.458	0.865	1	generate	Run4	generate/STIM_003.jpg
2651.007	1.77	1	generate	Run4	generate/STIM_003.jpg
2655.888	1.345	1	generate	Run4	generate/STIM_003.jpg
2661.172	1.455	0	generate	Run4	generate/STIM_004.jpg
2665.154	0.806	1	generate	Run4	generate/STIM_004.jpg
2668.393	1.415	1	generate	Run4	generate/STIM_004.jpg
2671.835	0.86	1	generate	Run4	generate/STIM_004.jpg
2676.631	0.854	1	generate	Run4	generate/STIM_004.jpg
2680.109	1.05	1	generate	Run4	generate/STIM_005.jpg
2684.028	1.414	1	generate	Run4	generate/STIM_005.jpg
2688.882	1.285	1	generate	Run4	generate/STIM_005.jpg
2693.884	0.965	1	generate	Run4	generate/STIM_005.jpg
2698.096	1.626	1	generate	Run4	generate/STIM_005.jpg
2703.426	1.175	1	generate	Run4	generate/STIM_006.jpg
2707.223	0.949	0	generate	Run4	generate/STIM_006.jpg
2711.02	1.479	1	generate	Run4	generate/STIM_006.jpg
2716.318	1.172	1	generate	Run4	generate/STIM_006.jpg
2721.035	1.141	1	generate	Run4	generate/STIM_006.jpg
2725.856	1.363	1	generate	Run4	generate/STIM_007.jpg
2730.682	1.754	1	generate	Run4	generate/STIM_007.jpg
2734.911	1.38	1	generate	Run4	generate/STIM_007.jpg
2738.295	0.813	1	generate	Run4	generate/STIM_007.jpg
2741.89	1.641	1	generate	Run4	generate/STIM_007.jpg
2746.158	1.576	1	generate	Run4	generate/STIM_008.jpg
2751.179	0.831	1	generate	Run4	generate/STIM_008.jpg
2754.975	1.736	1	generate	Run4	generate/STIM_008.jpg
2760.448	1.121	1	generate	Run4	generate/STIM_008.jpg
2764.201	1.857	1	generate	Run4	generate/STIM_008.jpg
2768.304	1.574	1	generate	Run4	generate/STIM_009.jpg
2772.419	1.536	1	generate	Run4	generate/STIM_009.jpg
2777.055	1.798	1	generate	Run4	generate/STIM_009.jpg
2781.685	1.034	1	generate	Run4	generate/STIM_009.jpg
2785.67	1.934	1	generate	Run4	generate/STIM_009.jpg
2790.004	0.819	0	generate	Run4	generate/STIM_010.jpg
2792.844	1.396	1	generate	Run4	generate/STIM_010.jpg
2798.051	1.078	1	generate	Run4	generate/STIM_010.jpg
2802.03	1.101	0	generate	Run4	generate/STIM_010.jpg
2805.772	0.851	1	generate	Run4	generate/STIM_010.jpg
2809.101	1.041	1	generate	Run4	generate/STIM_011.jpg
2812.555	1.014	1	generate	Run4	generate/STIM_011.jpg
2816.343	1.404	1	generate	Run4	generate/STIM_011.jpg
2821.345	1.134	1	generate	Run4	generate/STIM_011.jpg
2826.167	1.116	1	generate	Run4	generate/STIM_011.jpg
2829.501	0.855	1	generate	Run4	generate/STIM_012.jpg
2833.441	0.944	1	generate	Run4	generate/STIM_012.jpg
2837.235	1.73	1	generate	Run4	generate/STIM_012.jpg
2842.766	1.334	1	generate	Run4	generate/STIM_012.jpg
2846.289	1.699	1	generate	Run4	generate/STIM_012.jpg
2851.856	1.12	1	generate	Run4	generate/STIM_013.jpg
2856.387	1.11	1	generate	Run4	generate/STIM_013.jpg
2860.411	1.746	1	generate	Run4	generate/STIM_013.jpg
2865.29	0.851	1	generate	Run4	generate/STIM_013.jpg
2868.554	1.43	1	generate	Run4	generate/STIM_013.jpg
2873.173	0.823	0	generate	Run4	generate/STIM_014.jpg
2877.138	1.666	1	generate	Run4	generate/STIM_014.jpg
2881.531	1.633	1	generate	Run4	generate/STIM_014.jpg
2886.152	1.061	1	generate	Run4	generate/STIM_014.jpg
2890.402	1.703	1	generate	Run4	generate/STIM_014.jpg
2895.28	1.164	1	generate	Run4	generate/STIM_015.jpg
2899.836	1.356	1	generate	Run4	generate/STIM_015.jpg
2903.772	1.189	1	generate	Run4	generate/STIM_015.jpg
2908.603	1.746	1	generate	Run4	generate/STIM_015.jpg
2912.803	1.08	1	generate	Run4	generate/STIM_015.jpg
2916.963	1.185	1	generate	Run4	generate/STIM_016.jpg
2920.326	1.08	1	generate	Run4	generate/STIM_016.jpg
2924.867	1.063	1	generate	Run4	generate/STIM_016.jpg
2928.441	1.673	1	generate	Run4	generate/STIM_016.jpg
2933.111	1.277	1	generate	Run4	generate/STIM_016.jpg
2937.608	1.478	1	generate	Run4	generate/STIM_017.jpg
2943.074	0.848	1	generate	Run4	generate/STIM_017.jpg
2946.155	1.254	1	generate	Run4	generate/STIM_017.jpg
2950.181	0.908	1	generate	Run4	generate/STIM_017.jpg
2954.226	1.226	1	generate	Run4	generate/STIM_017.jpg
2959.344	1.164	1	generate	Run4	generate/STIM_018.jpg
2962.622	1.524	1	generate	Run4	generate/STIM_018.jpg
2966.311	1.379	1	generate	Run4	generate/STIM_018.jpg
2970.149	1.023	1	generate	Run4	generate/STIM_018.jpg
2974.746	1.64	1	generate	Run4	generate/STIM_018.jpg
2980.245	1.42	1	generate	Run4	generate/STIM_019.jpg
2984.782	1.966	1	generate	Run4	generate/STIM_019.jpg
2989.318	1.74	0	generate	Run4	generate/STIM_019.jpg
2993.706	1.04	1	generate	Run4	generate/STIM_019.jpg
2997.131	0.893	1	generate	Run4	generate/STIM_019.jpg
3001.035	1.793	0	generate	Run4	generate/STIM_020.jpg
3006.153	1.154	1	generate	Run4	generate/STIM_020.jpg
3010.377	0.796	1	generate	Run4	generate/STIM_020.jpg
3013.748	1.72	1	generate	Run4	generate/STIM_020.jpg
3018.84	1.47	1	generate	Run4	generate/STIM_020.jpg
3024.258	1.776	1	generate	Run4	generate/STIM_021.jpg
3029.121	1.264	1	generate	Run4	generate/STIM_021.jpg
3033.886	0.877	1	generate	Run4	generate/STIM_021.jpg
3036.98	1.521	1	generate	Run4	generate/STIM_021.jpg
3041.516	1.115	1	generate	Run4	generate/STIM_021.jpg
3045.587	1.548	1	generate	Run4	generate/STIM_022.jpg
3051.002	1.24	1	generate	Run4	generate/STIM_022.jpg
3056.025	1.799	1	generate	Run4	generate/STIM_022.jpg
3061.617	1.67	1	generate	Run4	generate/STIM_022.jpg
3066.871	1.385	1	generate	Run4	generate/STIM_022.jpg
3070.933	0.976	1	generate	Run4	generate/STIM_023.jpg
3074.778	0.952	1	generate	Run4	generate/STIM_023.jpg
3078.482	1.162	1	generate	Run4	generate/STIM_023.jpg
3082.546	1.451	1	generate	Run4	generate/STIM_023.jpg
3086.076	1.097	1	generate	Run4	generate/STIM_023.jpg
3089.534	1.41	1	generate	Run4	generate/STIM_024.jpg
3094.747	0.837	1	generate	Run4	generate/STIM_024.jpg
3099.511	0.859	1	generate	Run4	generate/STIM_024.jpg
3102.479	1.314	1	generate	Run4	generate/STIM_024.jpg
3106.696	1.142	1	generate	Run4	generate/STIM_024.jpg
3110.909	0.648	1	repeat	Run4	repeat/STIM_000.jpg
3114.374	0.488	1	repeat	Run4	repeat/STIM_000.jpg
3117.077	0.908	1	repeat	Run4	repeat/STIM_000.jpg
3120.424	0.484	1	repeat	Run4	repeat/STIM_000.jpg
3124.19	0.554	1	repeat	Run4	repeat/STIM_000.jpg
3127.74	0.846	1	repeat	Run4	repeat/STIM_001.jpg
3132.379	0.841	1	repeat	Run4	repeat/STIM_001.jpg
3136.83	0.715	0	repeat	Run4	repeat/STIM_001.jpg
3140.276	0.597	1	repeat	Run4	repeat/STIM_001.jpg
3144.459	0.472	1	repeat	Run4	repeat/STIM_001.jpg
3148.77	0.76	1	repeat	Run4	repeat/STIM_002.jpg
3152.445	0.511	1	repeat	Run4	repeat/STIM_002.jpg
3155.529	0.604	1	repeat	Run4	repeat/STIM_002.jpg
3158.566	0.713	1	repeat	Run4	repeat/STIM_002.jpg
3162.581	0.734	1	repeat	Run4	repeat/STIM_002.jpg
3166.27	0.541	1	repeat	Run4	repeat/STIM_003.jpg
3169.741	0.9	0	repeat	Run4	repeat/STIM_003.jpg
3174.125	0.687	0	repeat	Run4	repeat/STIM_003.jpg
3177.354	0.67	1	repeat	Run4	repeat/STIM_003.jpg
3180.203	0.936	0	repeat	Run4	repeat/STIM_003.jpg
3183.81	0.691	1	repeat	Run4	repeat/STIM_004.jpg
3187.539	0.888	1	repeat	Run4	repeat/STIM_004.jpg
3190.763	0.896	0	repeat	Run4	repeat/STIM_004.jpg
3193.73	0.695	0	repeat	Run4	repeat/STIM_004.jpg
3196.847	0.485	1	repeat	Run4	repeat/STIM_004.jpg
3199.911	0.628	1	repeat	Run4	repeat/STIM_005.jpg
3203.749	0.677	1	repeat	Run4	repeat/STIM_005.jpg
3207.305	0.496	1	repeat	Run4	repeat/STIM_005.jpg
3210.884	0.85	1	repeat	Run4	repeat/STIM_005.jpg
3215.481	0.607	1	repeat	Run4	repeat/STIM_005.jpg
3219.29	0.884	0	repeat	Run4	repeat/STIM_006.jpg
3223.552	0.532	1	repeat	Run4	repeat/STIM_006.jpg
3226.164	0.48	1	repeat	Run4	repeat/STIM_006.jpg
3229.229	0.728	1	repeat	Run4	repeat/STIM_006.jpg
3233.472	0.842	1	repeat	Run4	repeat/STIM_006.jpg
3237.666	0.625	0	repeat	Run4	repeat/STIM_007.jpg
3241.367	0.821	1	repeat	Run4	repeat/STIM_007.jpg
3245.225	0.726	1	repeat	Run4	repeat/STIM_007.jpg
3248.524	0.69	1	repeat	Run4	repeat/STIM_007.jpg
3252.16	0.755	1	repeat	Run4	repeat/STIM_007.jpg
3256.509	0.525	1	repeat	Run4	repeat/STIM_008.jpg
3260.88	0.512	1	repeat	Run4	repeat/STIM_008.jpg
3265.29	0.856	1	repeat	Run4	repeat/STIM_008.jpg
3269.014	0.935	1	repeat	Run4	repeat/STIM_008.jpg
3272.846	0.514	1	repeat	Run4	repeat/STIM_008.jpg
3276.762	0.507	1	repeat	Run4	repeat/STIM_009.jpg
3280.067	0.591	1	repeat	Run4	repeat/STIM_009.jpg
3283.073	0.593	1	repeat	Run4	repeat/STIM_009.jpg
3287.48	0.921	0	repeat	Run4	repeat/STIM_009.jpg
3290.737	0.572	1	repeat	Run4	repeat/STIM_009.jpg
3294.683	0.609	1	repeat	Run4	repeat/STIM_010.jpg
3298.502	0.895	1	repeat	Run4	repeat/STIM_010.jpg
3302.694	0.576	1	repeat	Run4	repeat/STIM_010.jpg
3306.066	0.815	1	repeat	Run4	repeat/STIM_010.jpg
3310.428	0.773	1	repeat	Run4	repeat/STIM_010.jpg
3314.875	0.835	0	repeat	Run4	repeat/STIM_011.jpg
3318.329	0.854	1	repeat	Run4	repeat/STIM_011.jpg
3321.7	0.538	1	repeat	Run4	repeat/STIM_011.jpg
3324.618	0.892	1	repeat	Run4	repeat/STIM_011.jpg
3328.855	0.747	1	repeat	Run4	repeat/STIM_011.jpg
3331.872	0.847	1	repeat	Run4	repeat/STIM_012.jpg
3336.245	0.527	1	repeat	Run4	repeat/STIM_012.jpg
3340.391	0.872	1	repeat	Run4	repeat/STIM_012.jpg
3344.743	0.75	1	repeat	Run4	repeat/STIM_012.jpg
3348.347	0.861	1	repeat	Run4	repeat/STIM_012.jpg
3352.393	0.693	1	repeat	Run4	repeat/STIM_013.jpg
3356.142	0.922	1	repeat	Run4	repeat/STIM_013.jpg
3359.197	0.828	1	repeat	Run4	repeat/STIM_013.jpg
3363.978	0.516	1	repeat	Run4	repeat/STIM_013.jpg
3366.815	0.848	1	repeat	Run4	repeat/STIM_013.jpg
3371.436	0.862	1	repeat	Run4	repeat/STIM_014.jpg
3375.034	0.684	1	repeat	Run4	repeat/STIM_014.jpg
3379.071	0.63	1	repeat	Run4	repeat/STIM_014.jpg
3383.415	0.707	1	repeat	Run4	repeat/STIM_014.jpg
3386.589	0.768	1	repeat	Run4	repeat/STIM_014.jpg
