onset	duration	accuracy	trial_type	learning_stage	stimulus
0.0	2.09	correct	generate	Run1	generate/STIM_000.jpg
5.073	1.971	correct	generate	Run1	generate/STIM_000.jpg
10.269	1.347	incorrect	generate	Run1	generate/STIM_000.jpg
14.829	1.9	correct	generate	Run1	generate/STIM_000.jpg
20.001	1.787	correct	generate	Run1	generate/STIM_000.jpg
23.775	1.889	correct	generate	Run1	generate/STIM_001.jpg
28.341	1.666	correct	generate	Run1	generate/STIM_001.jpg
32.84	2.232	correct	generate	Run1	generate/STIM_001.jpg
38.545	1.54	correct	generate	Run1	generate/STIM_001.jpg
42.952	1.518	correct	generate	Run1	generate/STIM_001.jpg
46.486	1.258	correct	generate	Run1	generate/STIM_002.jpg
50.436	2.133	incorrect	generate	Run1	generate/STIM_002.jpg
55.033	2.686	correct	generate	Run1	generate/STIM_002.jpg
60.763	1.987	correct	generate	Run1	generate/STIM_002.jpg
64.705	1.908	incorrect	generate	Run1	generate/STIM_002.jpg
68.964	2.778	correct	generate	Run1	generate/STIM_003.jpg
74.48	2.189	correct	generate	Run1	generate/STIM_003.jpg
80.266	2.359	correct	generate	Run1	generate/STIM_003.jpg
86.099	2.079	correct	generate	Run1	generate/STIM_003.jpg
90.134	2.462	correct	generate	Run1	generate/STIM_003.jpg
96.377	2.425	correct	generate	Run1	generate/STIM_004.jpg
102.705	1.582	correct	generate	Run1	generate/STIM_004.jpg
107.527	2.606	incorrect	generate	Run1	generate/STIM_004.jpg
113.97	2.05	correct	generate	Run1	generate/STIM_004.jpg
117.892	1.452	correct	generate	Run1	generate/STIM_004.jpg
121.396	2.233	correct	generate	Run1	generate/STIM_005.jpg
126.568	1.22	incorrect	generate	Run1	generate/STIM_005.jpg
130.829	2.525	correct	generate	Run1	generate/STIM_005.jpg
135.929	2.405	correct	generate	Run1	generate/STIM_005.jpg
142.101	1.99	correct	generate	Run1	generate/STIM_005.jpg
146.134	2.732	correct	generate	Run1	generate/STIM_006.jpg
151.769	2.395	correct	generate	Run1	generate/STIM_006.jpg
157.194	1.881	correct	generate	Run1	generate/STIM_006.jpg
162.015	1.856	correct	generate	Run1	generate/STIM_006.jpg
166.624	1.854	incorrect	generate	Run1	generate/STIM_006.jpg
170.572	2.188	correct	generate	Run1	generate/STIM_007.jpg
175.204	2.418	correct	generate	Run1	generate/STIM_007.jpg
180.137	2.374	correct	generate	Run1	generate/STIM_007.jpg
185.441	1.568	incorrect	generate	Run1	generate/STIM_007.jpg
190.661	2.155	correct	generate	Run1	generate/STIM_007.jpg
194.878	1.904	correct	generate	Run1	generate/STIM_008.jpg
200.495	2.364	correct	generate	Run1	generate/STIM_008.jpg
206.097	1.341	correct	generate	Run1	generate/STIM_008.jpg
211.175	2.447	correct	generate	Run1	generate/STIM_008.jpg
215.819	2.368	correct	generate	Run1	generate/STIM_008.jpg
220.035	2.663	correct	generate	Run1	generate/STIM_009.jpg
224.869	1.835	correct	generate	Run1	generate/STIM_009.jpg
230.336	2.483	correct	generate	Run1	generate/STIM_009.jpg
236.281	2.366	correct	generate	Run1	generate/STIM_009.jpg
241.821	1.39	correct	generate	Run1	generate/STIM_009.jpg
245.514	1.818	incorrect	generate	Run1	generate/STIM_010.jpg
251.256	2.556	correct	generate	Run1	generate/STIM_010.jpg
256.07	2.208	correct	generate	Run1	generate/STIM_010.jpg
260.7	1.831	correct	generate	Run1	generate/STIM_010.jpg
264.689	1.92	correct	generate	Run1	generate/STIM_010.jpg
270.375	2.0	correct	generate	Run1	generate/STIM_011.jpg
275.873	1.643	correct	generate	Run1	generate/STIM_011.jpg
279.963	1.311	correct	generate	Run1	generate/STIM_011.jpg
284.967	2.15	correct	generate	Run1	generate/STIM_011.jpg
289.494	2.251	correct	generate	Run1	generate/STIM_011.jpg
294.528	1.51	correct	generate	Run1	generate/STIM_012.jpg
298.577	2.32	correct	generate	Run1	generate/STIM_012.jpg
304.574	2.285	correct	generate	Run1	generate/STIM_012.jpg
309.279	1.806	incorrect	generate	Run1	generate/STIM_012.jpg
314.101	2.409	correct	generate	Run1	generate/STIM_012.jpg
319.4	2.409	incorrect	generate	Run1	generate/STIM_013.jpg
324.449	2.722	incorrect	generate	Run1	generate/STIM_013.jpg
329.9	1.341	correct	generate	Run1	generate/STIM_013.jpg
333.348	1.451	correct	generate	Run1	generate/STIM_013.jpg
338.57	2.032	correct	generate	Run1	generate/STIM_013.jpg
343.007	2.76	correct	generate	Run1	generate/STIM_014.jpg
349.358	1.852	correct	generate	Run1	generate/STIM_014.jpg
353.689	1.186	incorrect	generate	Run1	generate/STIM_014.jpg
357.495	1.076	correct	generate	Run1	generate/STIM_014.jpg
362.418	1.105	incorrect	generate	Run1	generate/STIM_014.jpg
367.356	2.676	correct	generate	Run1	generate/STIM_015.jpg
373.587	2.308	incorrect	generate	Run1	generate/STIM_015.jpg
378.763	2.081	correct	generate	Run1	generate/STIM_015.jpg
383.781	1.854	incorrect	generate	Run1	generate/STIM_015.jpg
387.795	2.309	correct	generate	Run1	generate/STIM_015.jpg
393.651	2.31	incorrect	generate	Run1	generate/STIM_016.jpg
398.413	2.546	correct	generate	Run1	generate/STIM_016.jpg
403.17	2.523	incorrect	generate	Run1	generate/STIM_016.jpg
407.935	1.76	correct	generate	Run1	generate/STIM_016.jpg
412.834	1.575	correct	generate	Run1	generate/STIM_016.jpg
417.585	1.416	correct	generate	Run1	generate/STIM_017.jpg
421.959	2.236	incorrect	generate	Run1	generate/STIM_017.jpg
426.793	1.373	correct	generate	Run1	generate/STIM_017.jpg
430.635	1.97	correct	generate	Run1	generate/STIM_017.jpg
434.695	1.148	incorrect	generate	Run1	generate/STIM_017.jpg
437.866	3.129	correct	generate	Run1	generate/STIM_018.jpg
443.162	1.468	correct	generate	Run1	generate/STIM_018.jpg
447.065	1.477	correct	generate	Run1	generate/STIM_018.jpg
451.627	1.565	correct	generate	Run1	generate/STIM_018.jpg
455.573	1.332	incorrect	generate	Run1	generate/STIM_018.jpg
460.474	2.281	correct	generate	Run1	generate/STIM_019.jpg
466.36	2.023	correct	generate	Run1	generate/STIM_019.jpg
470.494	2.223	correct	generate	Run1	generate/STIM_019.jpg
475.155	1.895	correct	generate	Run1	generate/STIM_019.jpg
480.595	1.552	correct	generate	Run1	generate/STIM_019.jpg
484.398	1.938	correct	generate	Run1	generate/STIM_020.jpg
490.038	3.004	correct	generate	Run1	generate/STIM_020.jpg
495.937	2.749	correct	generate	Run1	generate/STIM_020.jpg
501.041	1.305	correct	generate	Run1	generate/STIM_020.jpg
505.458	0.941	incorrect	generate	Run1	generate/STIM_020.jpg
509.978	2.241	correct	generate	Run1	generate/STIM_021.jpg
515.683	1.431	correct	generate	Run1	generate/STIM_021.jpg
520.824	1.262	correct	generate	Run1	generate/STIM_021.jpg
525.194	2.074	correct	generate	Run1	generate/STIM_021.jpg
529.413	2.509	correct	generate	Run1	generate/STIM_021.jpg
534.479	3.166	correct	generate	Run1	generate/STIM_022.jpg
539.581	1.975	incorrect	generate	Run1	generate/STIM_022.jpg
543.57	1.514	correct	generate	Run1	generate/STIM_022.jpg
547.253	2.571	correct	generate	Run1	generate/STIM_022.jpg
552.781	1.321	incorrect	generate	Run1	generate/STIM_022.jpg
557.474	2.604	correct	generate	Run1	generate/STIM_023.jpg
562.359	2.405	correct	generate	Run1	generate/STIM_023.jpg
567.392	2.631	correct	generate	Run1	generate/STIM_023.jpg
573.271	1.402	incorrect	generate	Run1	generate/STIM_023.jpg
577.461	1.289	correct	generate	Run1	generate/STIM_023.jpg
582.321	1.992	correct	generate	Run1	generate/STIM_024.jpg
586.698	2.459	correct	generate	Run1	generate/STIM_024.jpg
592.505	2.372	correct	generate	Run1	generate/STIM_024.jpg
597.118	1.335	correct	generate	Run1	generate/STIM_024.jpg
601.488	1.849	correct	generate	Run1	generate/STIM_024.jpg
606.513	0.928	correct	repeat	Run1	repeat/STIM_000.jpg
609.776	0.521	correct	repeat	Run1	repeat/STIM_000.jpg
613.134	0.926	correct	repeat	Run1	repeat/STIM_000.jpg
617.177	0.722	correct	repeat	Run1	repeat/STIM_000.jpg
621.807	0.861	correct	repeat	Run1	repeat/STIM_000.jpg
625.503	0.808	correct	repeat	Run1	repeat/STIM_001.jpg
629.135	0.892	correct	repeat	Run1	repeat/STIM_001.jpg
632.689	0.811	correct	repeat	Run1	repeat/STIM_001.jpg
636.566	0.781	correct	repeat	Run1	repeat/STIM_001.jpg
639.976	0.609	correct	repeat	Run1	repeat/STIM_001.jpg
643.044	0.935	correct	repeat	Run1	repeat/STIM_002.jpg
646.907	0.705	correct	repeat	Run1	repeat/STIM_002.jpg
649.635	0.641	correct	repeat	Run1	repeat/STIM_002.jpg
652.779	0.851	correct	repeat	Run1	repeat/STIM_002.jpg
656.252	0.964	correct	repeat	Run1	repeat/STIM_002.jpg
659.98	0.87	correct	repeat	Run1	repeat/STIM_003.jpg
662.969	0.807	correct	repeat	Run1	repeat/STIM_003.jpg
667.124	0.823	correct	repeat	Run1	repeat/STIM_003.jpg
669.91	0.699	correct	repeat	Run1	repeat/STIM_003.jpg
672.997	0.92	incorrect	repeat	Run1	repeat/STIM_003.jpg
676.079	0.817	correct	repeat	Run1	repeat/STIM_004.jpg
680.107	0.823	correct	repeat	Run1	repeat/STIM_004.jpg
684.708	0.586	correct	repeat	Run1	repeat/STIM_004.jpg
687.818	0.777	correct	repeat	Run1	repeat/STIM_004.jpg
691.888	0.746	correct	repeat	Run1	repeat/STIM_004.jpg
694.802	0.847	correct	repeat	Run1	repeat/STIM_005.jpg
698.883	0.976	correct	repeat	Run1	repeat/STIM_005.jpg
702.533	0.804	correct	repeat	Run1	repeat/STIM_005.jpg
706.836	0.898	correct	repeat	Run1	repeat/STIM_005.jpg
710.706	0.51	correct	repeat	Run1	repeat/STIM_005.jpg
713.25	0.902	correct	repeat	Run1	repeat/STIM_006.jpg
716.958	0.634	correct	repeat	Run1	repeat/STIM_006.jpg
721.48	0.731	correct	repeat	Run1	repeat/STIM_006.jpg
725.464	0.726	correct	repeat	Run1	repeat/STIM_006.jpg
729.792	0.86	correct	repeat	Run1	repeat/STIM_006.jpg
734.245	0.979	incorrect	repeat	Run1	repeat/STIM_007.jpg
737.945	0.963	correct	repeat	Run1	repeat/STIM_007.jpg
742.393	0.929	correct	repeat	Run1	repeat/STIM_007.jpg
746.977	0.848	correct	repeat	Run1	repeat/STIM_007.jpg
750.42	0.595	correct	repeat	Run1	repeat/STIM_007.jpg
753.696	0.627	correct	repeat	Run1	repeat/STIM_008.jpg
757.954	0.851	correct	repeat	Run1	repeat/STIM_008.jpg
761.249	0.748	correct	repeat	Run1	repeat/STIM_008.jpg
765.166	0.867	correct	repeat	Run1	repeat/STIM_008.jpg
768.538	0.996	correct	repeat	Run1	repeat/STIM_008.jpg
772.546	0.926	correct	repeat	Run1	repeat/STIM_009.jpg
775.559	0.85	incorrect	repeat	Run1	repeat/STIM_009.jpg
779.754	0.712	correct	repeat	Run1	repeat/STIM_009.jpg
782.803	0.665	correct	repeat	Run1	repeat/STIM_009.jpg
785.863	1.008	correct	repeat	Run1	repeat/STIM_009.jpg
790.768	0.637	correct	repeat	Run1	repeat/STIM_010.jpg
795.242	0.718	correct	repeat	Run1	repeat/STIM_010.jpg
798.042	0.568	correct	repeat	Run1	repeat/STIM_010.jpg
802.277	0.575	correct	repeat	Run1	repeat/STIM_010.jpg
805.726	0.619	incorrect	repeat	Run1	repeat/STIM_010.jpg
808.866	0.99	correct	repeat	Run1	repeat/STIM_011.jpg
811.827	1.056	correct	repeat	Run1	repeat/STIM_011.jpg
815.223	0.894	correct	repeat	Run1	repeat/STIM_011.jpg
818.419	0.968	correct	repeat	Run1	repeat/STIM_011.jpg
821.646	0.94	correct	repeat	Run1	repeat/STIM_011.jpg
825.654	0.844	correct	repeat	Run1	repeat/STIM_012.jpg
828.734	0.528	correct	repeat	Run1	repeat/STIM_012.jpg
831.587	0.619	correct	repeat	Run1	repeat/STIM_012.jpg
835.858	0.826	correct	repeat	Run1	repeat/STIM_012.jpg
840.355	0.509	correct	repeat	Run1	repeat/STIM_012.jpg
843.35	0.95	incorrect	repeat	Run1	repeat/STIM_013.jpg
846.768	0.708	correct	repeat	Run1	repeat/STIM_013.jpg
849.736	0.719	correct	repeat	Run1	repeat/STIM_013.jpg
853.08	0.795	correct	repeat	Run1	repeat/STIM_013.jpg
857.734	1.057	correct	repeat	Run1	repeat/STIM_013.jpg
861.547	0.775	correct	repeat	Run1	repeat/STIM_014.jpg
865.888	0.768	correct	repeat	Run1	repeat/STIM_014.jpg
870.31	0.653	correct	repeat	Run1	repeat/STIM_014.jpg
874.207	0.718	correct	repeat	Run1	repeat/STIM_014.jpg
878.219	0.564	correct	repeat	Run1	repeat/STIM_014.jpg
881.102	1.927	correct	generate	Run2	generate/STIM_000.jpg
885.901	1.696	correct	generate	Run2	generate/STIM_000.jpg
890.92	1.293	correct	generate	Run2	generate/STIM_000.jpg
895.055	1.929	correct	generate	Run2	generate/STIM_000.jpg
898.906	1.656	correct	generate	Run2	generate/STIM_000.jpg
903.739	2.416	correct	generate	Run2	generate/STIM_001.jpg
909.947	2.399	correct	generate	Run2	generate/STIM_001.jpg
916.169	1.68	correct	generate	Run2	generate/STIM_001.jpg
920.208	1.802	correct	generate	Run2	generate/STIM_001.jpg
925.874	1.641	correct	generate	Run2	generate/STIM_001.jpg
931.202	2.345	incorrect	generate	Run2	generate/STIM_002.jpg
937.175	2.336	correct	generate	Run2	generate/STIM_002.jpg
942.916	2.229	correct	generate	Run2	generate/STIM_002.jpg
948.532	1.074	correct	generate	Run2	generate/STIM_002.jpg
952.49	1.3	correct	generate	Run2	generate/STIM_002.jpg
956.143	1.995	correct	generate	Run2	generate/STIM_003.jpg
960.939	2.144	correct	generate	Run2	generate/STIM_003.jpg
966.656	1.573	correct	generate	Run2	generate/STIM_003.jpg
970.567	1.907	correct	generate	Run2	generate/STIM_003.jpg
976.129	1.412	correct	generate	Run2	generate/STIM_003.jpg
980.909	2.102	correct	generate	Run2	generate/STIM_004.jpg
985.44	2.313	correct	generate	Run2	generate/STIM_004.jpg
990.265	2.3	correct	generate	Run2	generate/STIM_004.jpg
995.675	1.209	correct	generate	Run2	generate/STIM_004.jpg
1000.063	1.443	incorrect	generate	Run2	generate/STIM_004.jpg
1003.445	1.42	incorrect	generate	Run2	generate/STIM_005.jpg
1008.677	1.88	correct	generate	Run2	generate/STIM_005.jpg
1014.401	2.01	correct	generate	Run2	generate/STIM_005.jpg
1020.287	1.523	correct	generate	Run2	generate/STIM_005.jpg
1024.022	1.632	correct	generate	Run2	generate/STIM_005.jpg
1029.094	1.104	correct	generate	Run2	generate/STIM_006.jpg
1034.021	2.039	correct	generate	Run2	generate/STIM_006.jpg
1038.423	1.366	correct	generate	Run2	generate/STIM_006.jpg
1042.064	1.557	correct	generate	Run2	generate/STIM_006.jpg
1045.698	1.28	correct	generate	Run2	generate/STIM_006.jpg
1050.96	1.486	correct	generate	Run2	generate/STIM_007.jpg
1054.572	1.444	correct	generate	Run2	generate/STIM_007.jpg
1059.001	1.739	correct	generate	Run2	generate/STIM_007.jpg
1064.406	2.228	correct	generate	Run2	generate/STIM_007.jpg
1068.838	1.219	correct	generate	Run2	generate/STIM_007.jpg
1073.002	1.06	incorrect	generate	Run2	generate/STIM_008.jpg
1077.394	2.23	correct	generate	Run2	generate/STIM_008.jpg
1082.691	1.328	correct	generate	Run2	generate/STIM_008.jpg
1087.854	1.267	correct	generate	Run2	generate/STIM_008.jpg
1093.096	1.152	correct	generate	Run2	generate/STIM_008.jpg
1096.785	2.559	correct	generate	Run2	generate/STIM_009.jpg
1101.795	2.292	correct	generate	Run2	generate/STIM_009.jpg
1107.544	0.933	correct	generate	Run2	generate/STIM_009.jpg
1110.845	1.188	correct	generate	Run2	generate/STIM_009.jpg
1115.404	1.253	correct	generate	Run2	generate/STIM_009.jpg
1120.32	2.511	correct	generate	Run2	generate/STIM_010.jpg
1126.626	1.808	correct	generate	Run2	generate/STIM_010.jpg
1130.756	1.929	correct	generate	Run2	generate/STIM_010.jpg
1134.949	1.864	correct	generate	Run2	generate/STIM_010.jpg
1140.002	1.839	incorrect	generate	Run2	generate/STIM_010.jpg
1144.487	1.208	correct	generate	Run2	generate/STIM_011.jpg
1147.777	2.359	correct	generate	Run2	generate/STIM_011.jpg
1152.627	1.705	correct	generate	Run2	generate/STIM_011.jpg
1157.469	1.004	correct	generate	Run2	generate/STIM_011.jpg
1161.654	1.088	correct	generate	Run2	generate/STIM_011.jpg
1165.939	1.217	correct	generate	Run2	generate/STIM_012.jpg
1169.548	1.218	correct	generate	Run2	generate/STIM_012.jpg
1173.412	1.487	correct	generate	Run2	generate/STIM_012.jpg
1177.74	1.112	correct	generate	Run2	generate/STIM_012.jpg
1182.132	0.967	correct	generate	Run2	generate/STIM_012.jpg
1186.338	1.999	correct	generate	Run2	generate/STIM_013.jpg
1191.711	1.17	correct	generate	Run2	generate/STIM_013.jpg
1195.498	1.535	correct	generate	Run2	generate/STIM_013.jpg
1200.865	1.485	correct	generate	Run2	generate/STIM_013.jpg
1205.624	1.103	correct	generate	Run2	generate/STIM_013.jpg
1209.301	2.289	incorrect	generate	Run2	generate/STIM_014.jpg
1214.573	1.344	correct	generate	Run2	generate/STIM_014.jpg
1219.163	1.131	correct	generate	Run2	generate/STIM_014.jpg
1223.357	1.606	incorrect	generate	Run2	generate/STIM_014.jpg
1227.295	1.335	correct	generate	Run2	generate/STIM_014.jpg
1231.853	2.246	incorrect	generate	Run2	generate/STIM_015.jpg
1237.619	1.962	correct	generate	Run2	generate/STIM_015.jpg
1241.754	2.209	correct	generate	Run2	generate/STIM_015.jpg
1247.563	1.367	correct	generate	Run2	generate/STIM_015.jpg
1251.69	1.608	incorrect	generate	Run2	generate/STIM_015.jpg
1257.058	1.637	correct	generate	Run2	generate/STIM_016.jpg
1261.926	1.33	incorrect	generate	Run2	generate/STIM_016.jpg
1266.112	1.306	incorrect	generate	Run2	generate/STIM_016.jpg
1269.527	1.635	incorrect	generate	Run2	generate/STIM_016.jpg
1275.08	1.962	incorrect	generate	Run2	generate/STIM_016.jpg
1279.811	1.448	correct	generate	Run2	generate/STIM_017.jpg
1283.773	2.452	correct	generate	Run2	generate/STIM_017.jpg
1289.216	1.038	correct	generate	Run2	generate/STIM_017.jpg
1293.752	0.97	correct	generate	Run2	generate/STIM_017.jpg
1298.157	1.644	correct	generate	Run2	generate/STIM_017.jpg
1302.999	1.883	correct	generate	Run2	generate/STIM_018.jpg
1306.844	2.258	incorrect	generate	Run2	generate/STIM_018.jpg
1312.773	1.987	correct	generate	Run2	generate/STIM_018.jpg
1317.115	0.991	correct	generate	Run2	generate/STIM_018.jpg
1320.69	1.036	correct	generate	Run2	generate/STIM_018.jpg
1325.559	2.671	correct	generate	Run2	generate/STIM_019.jpg
1331.974	1.531	correct	generate	Run2	generate/STIM_019.jpg
1337.219	1.698	correct	generate	Run2	generate/STIM_019.jpg
1341.799	1.784	correct	generate	Run2	generate/STIM_019.jpg
1346.758	2.0	correct	generate	Run2	generate/STIM_019.jpg
1352.294	1.573	incorrect	generate	Run2	generate/STIM_020.jpg
1356.348	1.894	correct	generate	Run2	generate/STIM_020.jpg
1360.865	2.26	correct	generate	Run2	generate/STIM_020.jpg
1365.539	1.239	correct	generate	Run2	generate/STIM_020.jpg
1370.527	1.284	correct	generate	Run2	generate/STIM_020.jpg
1374.78	1.785	correct	generate	Run2	generate/STIM_021.jpg
1380.146	1.939	correct	generate	Run2	generate/STIM_021.jpg
1385.226	1.433	correct	generate	Run2	generate/STIM_021.jpg
1390.348	1.495	correct	generate	Run2	generate/STIM_021.jpg
1395.062	1.507	correct	generate	Run2	generate/STIM_021.jpg
1400.107	2.113	correct	generate	Run2	generate/STIM_022.jpg
1405.746	1.51	correct	generate	Run2	generate/STIM_022.jpg
1410.849	1.669	correct	generate	Run2	generate/STIM_022.jpg
1414.527	1.064	correct	generate	Run2	generate/STIM_022.jpg
1417.564	1.736	correct	generate	Run2	generate/STIM_022.jpg
1422.442	1.763	correct	generate	Run2	generate/STIM_023.jpg
1426.194	2.435	correct	generate	Run2	generate/STIM_023.jpg
1430.833	2.274	incorrect	generate	Run2	generate/STIM_023.jpg
1436.35	1.837	correct	generate	Run2	generate/STIM_023.jpg
1441.964	1.258	correct	generate	Run2	generate/STIM_023.jpg
1446.386	1.75	correct	generate	Run2	generate/STIM_024.jpg
1451.301	1.435	incorrect	generate	Run2	generate/STIM_024.jpg
1454.959	1.575	correct	generate	Run2	generate/STIM_024.jpg
1459.038	1.853	correct	generate	Run2	generate/STIM_024.jpg
1463.816	1.259	correct	generate	Run2	generate/STIM_024.jpg
1468.916	0.629	correct	repeat	Run2	repeat/STIM_000.jpg
1471.537	0.66	correct	repeat	Run2	repeat/STIM_000.jpg
1475.864	0.664	correct	repeat	Run2	repeat/STIM_000.jpg
1479.86	0.949	correct	repeat	Run2	repeat/STIM_000.jpg
1484.048	0.564	correct	repeat	Run2	repeat/STIM_000.jpg
1488.113	0.692	correct	repeat	Run2	repeat/STIM_001.jpg
1491.575	0.738	correct	repeat	Run2	repeat/STIM_001.jpg
1494.847	0.855	correct	repeat	Run2	repeat/STIM_001.jpg
1498.669	1.024	correct	repeat	Run2	repeat/STIM_001.jpg
1501.94	0.556	correct	repeat	Run2	repeat/STIM_001.jpg
1504.611	1.062	correct	repeat	Run2	repeat/STIM_002.jpg
1508.166	0.642	correct	repeat	Run2	repeat/STIM_002.jpg
1510.849	0.77	correct	repeat	Run2	repeat/STIM_002.jpg
1514.046	0.808	correct	repeat	Run2	repeat/STIM_002.jpg
1516.98	0.933	correct	repeat	Run2	repeat/STIM_002.jpg
1520.362	1.007	correct	repeat	Run2	repeat/STIM_003.jpg
1524.239	0.733	correct	repeat	Run2	repeat/STIM_003.jpg
1527.564	0.834	correct	repeat	Run2	repeat/STIM_003.jpg
1531.861	0.818	correct	repeat	Run2	repeat/STIM_003.jpg
1535.653	0.571	correct	repeat	Run2	repeat/STIM_003.jpg
1538.287	0.645	correct	repeat	Run2	repeat/STIM_004.jpg
1541.967	1.007	correct	repeat	Run2	repeat/STIM_004.jpg
1545.356	0.574	correct	repeat	Run2	repeat/STIM_004.jpg
1548.876	0.644	correct	repeat	Run2	repeat/STIM_004.jpg
1552.036	1.025	correct	repeat	Run2	repeat/STIM_004.jpg
1555.852	1.1	correct	repeat	Run2	repeat/STIM_005.jpg
1560.117	0.919	correct	repeat	Run2	repeat/STIM_005.jpg
1564.41	0.916	incorrect	repeat	Run2	repeat/STIM_005.jpg
1568.905	1.035	correct	repeat	Run2	repeat/STIM_005.jpg
1573.483	0.711	correct	repeat	Run2	repeat/STIM_005.jpg
1577.681	1.011	correct	repeat	Run2	repeat/STIM_006.jpg
1581.408	0.67	correct	repeat	Run2	repeat/STIM_006.jpg
1585.124	0.788	correct	repeat	Run2	repeat/STIM_006.jpg
1588.492	0.906	correct	repeat	Run2	repeat/STIM_006.jpg
1592.702	0.828	correct	repeat	Run2	repeat/STIM_006.jpg
1596.741	0.716	correct	repeat	Run2	repeat/STIM_007.jpg
1601.275	0.885	correct	repeat	Run2	repeat/STIM_007.jpg
1605.497	0.655	incorrect	repeat	Run2	repeat/STIM_007.jpg
1608.506	0.868	correct	repeat	Run2	repeat/STIM_007.jpg
1611.369	0.674	correct	repeat	Run2	repeat/STIM_007.jpg
1615.507	1.026	correct	repeat	Run2	repeat/STIM_008.jpg
1619.385	0.784	correct	repeat	Run2	repeat/STIM_008.jpg
1622.218	0.57	correct	repeat	Run2	repeat/STIM_008.jpg
1624.98	0.709	correct	repeat	Run2	repeat/STIM_008.jpg
1627.966	0.881	correct	repeat	Run2	repeat/STIM_008.jpg
1632.473	1.008	correct	repeat	Run2	repeat/STIM_009.jpg
1635.931	0.793	correct	repeat	Run2	repeat/STIM_009.jpg
1639.507	1.02	correct	repeat	Run2	repeat/STIM_009.jpg
1643.644	0.682	correct	repeat	Run2	repeat/STIM_009.jpg
1647.205	0.863	correct	repeat	Run2	repeat/STIM_009.jpg
1651.171	0.942	correct	repeat	Run2	repeat/STIM_010.jpg
1656.037	0.86	correct	repeat	Run2	repeat/STIM_010.jpg
1660.494	0.777	correct	repeat	Run2	repeat/STIM_010.jpg
1663.812	0.858	correct	repeat	Run2	repeat/STIM_010.jpg
1666.702	0.899	correct	repeat	Run2	repeat/STIM_010.jpg
1669.841	0.962	correct	repeat	Run2	repeat/STIM_011.jpg
1673.961	0.573	correct	repeat	Run2	repeat/STIM_011.jpg
1677.31	0.843	correct	repeat	Run2	repeat/STIM_011.jpg
1682.093	0.505	correct	repeat	Run2	repeat/STIM_011.jpg
1686.139	0.748	correct	repeat	Run2	repeat/STIM_011.jpg
1689.455	0.893	correct	repeat	Run2	repeat/STIM_012.jpg
1693.11	0.827	correct	repeat	Run2	repeat/STIM_012.jpg
1697.079	1.026	correct	repeat	Run2	repeat/STIM_012.jpg
1701.271	0.954	correct	repeat	Run2	repeat/STIM_012.jpg
1704.573	0.8	correct	repeat	Run2	repeat/STIM_012.jpg
1707.617	0.715	correct	repeat	Run2	repeat/STIM_013.jpg
1710.912	0.599	correct	repeat	Run2	repeat/STIM_013.jpg
1715.417	0.648	correct	repeat	Run2	repeat/STIM_013.jpg
1718.223	0.712	correct	repeat	Run2	repeat/STIM_013.jpg
1722.242	0.507	correct	repeat	Run2	repeat/STIM_013.jpg
1725.012	0.608	correct	repeat	Run2	repeat/STIM_014.jpg
1729.031	0.869	correct	repeat	Run2	repeat/STIM_014.jpg
1732.769	0.591	correct	repeat	Run2	repeat/STIM_014.jpg
1736.371	0.967	correct	repeat	Run2	repeat/STIM_014.jpg
1741.167	1.158	correct	repeat	Run2	repeat/STIM_014.jpg
1745.709	2.151	correct	generate	Run3	generate/STIM_000.jpg
1751.575	1.587	correct	generate	Run3	generate/STIM_000.jpg
1757.011	2.037	correct	generate	Run3	generate/STIM_000.jpg
1762.177	1.3	correct	generate	Run3	generate/STIM_000.jpg
1765.534	1.501	correct	generate	Run3	generate/STIM_000.jpg
1770.794	1.376	incorrect	generate	Run3	generate/STIM_001.jpg
1775.249	1.381	correct	generate	Run3	generate/STIM_001.jpg
1780.204	1.67	correct	generate	Run3	generate/STIM_001.jpg
1785.125	1.735	correct	generate	Run3	generate/STIM_001.jpg
1790.183	1.982	correct	generate	Run3	generate/STIM_001.jpg
1795.803	1.12	correct	generate	Run3	generate/STIM_002.jpg
1799.57	0.938	correct	generate	Run3	generate/STIM_002.jpg
1804.154	1.945	correct	generate	Run3	generate/STIM_002.jpg
1809.535	1.098	incorrect	generate	Run3	generate/STIM_002.jpg
1812.963	1.933	correct	generate	Run3	generate/STIM_002.jpg
1817.383	1.646	correct	generate	Run3	generate/STIM_003.jpg
1820.997	1.68	correct	generate	Run3	generate/STIM_003.jpg
1825.496	1.068	correct	generate	Run3	generate/STIM_003.jpg
1829.839	1.006	correct	generate	Run3	generate/STIM_003.jpg
1834.104	2.102	correct	generate	Run3	generate/STIM_003.jpg
1840.092	0.971	correct	generate	Run3	generate/STIM_004.jpg
1843.517	1.484	correct	generate	Run3	generate/STIM_004.jpg
1847.68	1.137	correct	generate	Run3	generate/STIM_004.jpg
1851.603	1.238	correct	generate	Run3	generate/STIM_004.jpg
1856.146	1.131	correct	generate	Run3	generate/STIM_004.jpg
1859.531	0.97	correct	generate	Run3	generate/STIM_005.jpg
1864.292	0.931	correct	generate	Run3	generate/STIM_005.jpg
1868.995	1.349	correct	generate	Run3	generate/STIM_005.jpg
1872.67	1.876	correct	generate	Run3	generate/STIM_005.jpg
1877.179	1.271	correct	generate	Run3	generate/STIM_005.jpg
1880.786	1.55	correct	generate	Run3	generate/STIM_006.jpg
1885.551	1.264	correct	generate	Run3	generate/STIM_006.jpg
1889.342	2.084	correct	generate	Run3	generate/STIM_006.jpg
1893.491	1.805	correct	generate	Run3	generate/STIM_006.jpg
1897.991	1.755	correct	generate	Run3	generate/STIM_006.jpg
1902.153	1.884	correct	generate	Run3	generate/STIM_007.jpg
1906.086	1.74	incorrect	generate	Run3	generate/STIM_007.jpg
1911.619	2.118	correct	generate	Run3	generate/STIM_007.jpg
1916.884	1.399	correct	generate	Run3	generate/STIM_007.jpg
1920.663	2.115	correct	generate	Run3	generate/STIM_007.jpg
1925.275	1.746	correct	generate	Run3	generate/STIM_008.jpg
1929.411	1.357	incorrect	generate	Run3	generate/STIM_008.jpg
1934.666	1.061	correct	generate	Run3	generate/STIM_008.jpg
1939.114	1.535	correct	generate	Run3	generate/STIM_008.jpg
1943.35	1.36	correct	generate	Run3	generate/STIM_008.jpg
1948.288	1.579	correct	generate	Run3	generate/STIM_009.jpg
1952.465	1.758	correct	generate	Run3	generate/STIM_009.jpg
1956.377	1.835	correct	generate	Run3	generate/STIM_009.jpg
1960.674	1.972	correct	generate	Run3	generate/STIM_009.jpg
1964.56	1.504	correct	generate	Run3	generate/STIM_009.jpg
1968.328	1.148	correct	generate	Run3	generate/STIM_010.jpg
1971.948	1.5	correct	generate	Run3	generate/STIM_010.jpg
1976.751	1.352	correct	generate	Run3	generate/STIM_010.jpg
1980.995	2.07	correct	generate	Run3	generate/STIM_010.jpg
1986.618	1.077	correct	generate	Run3	generate/STIM_010.jpg
1989.713	0.982	correct	generate	Run3	generate/STIM_011.jpg
1994.595	1.339	correct	generate	Run3	generate/STIM_011.jpg
1998.8	0.972	correct	generate	Run3	generate/STIM_011.jpg
2001.874	1.336	correct	generate	Run3	generate/STIM_011.jpg
2006.119	1.476	correct	generate	Run3	generate/STIM_011.jpg
2009.952	1.877	correct	generate	Run3	generate/STIM_012.jpg
2014.822	1.458	correct	generate	Run3	generate/STIM_012.jpg
2019.556	1.954	correct	generate	Run3	generate/STIM_012.jpg
2025.07	1.354	incorrect	generate	Run3	generate/STIM_012.jpg
2029.363	1.164	correct	generate	Run3	generate/STIM_012.jpg
2033.433	1.301	incorrect	generate	Run3	generate/STIM_013.jpg
2036.777	1.472	correct	generate	Run3	generate/STIM_013.jpg
2041.239	1.286	correct	generate	Run3	generate/STIM_013.jpg
2044.968	1.832	correct	generate	Run3	generate/STIM_013.jpg
2050.347	1.145	correct	generate	Run3	generate/STIM_013.jpg
2053.852	1.553	correct	generate	Run3	generate/STIM_014.jpg
2058.915	1.161	correct	generate	Run3	generate/STIM_014.jpg
2062.304	1.541	correct	generate	Run3	generate/STIM_014.jpg
2066.97	1.941	correct	generate	Run3	generate/STIM_014.jpg
2072.75	1.224	correct	generate	Run3	generate/STIM_014.jpg
2077.692	2.007	correct	generate	Run3	generate/STIM_015.jpg
2082.067	2.167	correct	generate	Run3	generate/STIM_015.jpg
2086.305	1.087	correct	generate	Run3	generate/STIM_015.jpg
2089.708	1.902	correct	generate	Run3	generate/STIM_015.jpg
2093.811	0.896	correct	generate	Run3	generate/STIM_015.jpg
2098.02	1.731	incorrect	generate	Run3	generate/STIM_016.jpg
2102.76	1.559	correct	generate	Run3	generate/STIM_016.jpg
2107.156	1.094	correct	generate	Run3	generate/STIM_016.jpg
2111.34	1.145	correct	generate	Run3	generate/STIM_016.jpg
2114.725	2.085	correct	generate	Run3	generate/STIM_016.jpg
2119.323	1.862	correct	generate	Run3	generate/STIM_017.jpg
2123.567	2.183	correct	generate	Run3	generate/STIM_017.jpg
2128.493	1.846	correct	generate	Run3	generate/STIM_017.jpg
2132.864	0.983	correct	generate	Run3	generate/STIM_017.jpg
2136.897	1.578	correct	generate	Run3	generate/STIM_017.jpg
2141.631	2.154	correct	generate	Run3	generate/STIM_018.jpg
2146.507	1.124	correct	generate	Run3	generate/STIM_018.jpg
2150.194	1.587	correct	generate	Run3	generate/STIM_018.jpg
2154.2	1.151	correct	generate	Run3	generate/STIM_018.jpg
2158.919	1.189	correct	generate	Run3	generate/STIM_018.jpg
2162.939	1.687	incorrect	generate	Run3	generate/STIM_019.jpg
2166.663	0.86	correct	generate	Run3	generate/STIM_019.jpg
2170.566	1.46	correct	generate	Run3	generate/STIM_019.jpg
2175.172	1.564	correct	generate	Run3	generate/STIM_019.jpg
2178.817	1.596	correct	generate	Run3	generate/STIM_019.jpg
2183.03	1.941	correct	generate	Run3	generate/STIM_020.jpg
2187.201	1.842	correct	generate	Run3	generate/STIM_020.jpg
2191.896	2.114	correct	generate	Run3	generate/STIM_020.jpg
2196.86	2.133	correct	generate	Run3	generate/STIM_020.jpg
2202.117	1.743	incorrect	generate	Run3	generate/STIM_020.jpg
2206.14	1.288	correct	generate	Run3	generate/STIM_021.jpg
2210.333	1.313	correct	generate	Run3	generate/STIM_021.jpg
2214.757	1.713	correct	generate	Run3	generate/STIM_021.jpg
2220.38	1.655	correct	generate	Run3	generate/STIM_021.jpg
2224.125	1.725	correct	generate	Run3	generate/STIM_021.jpg
2227.962	1.705	correct	generate	Run3	generate/STIM_022.jpg
2233.244	0.846	incorrect	generate	Run3	generate/STIM_022.jpg
2236.736	1.886	correct	generate	Run3	generate/STIM_022.jpg
2241.357	1.954	correct	generate	Run3	generate/STIM_022.jpg
2246.444	1.953	correct	generate	Run3	generate/STIM_022.jpg
2251.942	1.751	correct	generate	Run3	generate/STIM_023.jpg
2255.817	1.267	correct	generate	Run3	generate/STIM_023.jpg
2260.92	2.01	correct	generate	Run3	generate/STIM_023.jpg
2265.248	1.49	correct	generate	Run3	generate/STIM_023.jpg
2270.344	1.748	correct	generate	Run3	generate/STIM_023.jpg
2274.098	1.698	correct	generate	Run3	generate/STIM_024.jpg
2277.808	1.636	correct	generate	Run3	generate/STIM_024.jpg
2281.619	1.485	correct	generate	Run3	generate/STIM_024.jpg
2286.505	1.392	correct	generate	Run3	generate/STIM_024.jpg
2290.638	1.505	correct	generate	Run3	generate/STIM_024.jpg
2294.88	0.626	correct	repeat	Run3	repeat/STIM_000.jpg
2298.909	1.022	correct	repeat	Run3	repeat/STIM_000.jpg
2303.176	0.832	correct	repeat	Run3	repeat/STIM_000.jpg
2306.382	0.614	correct	repeat	Run3	repeat/STIM_000.jpg
2310.577	0.451	correct	repeat	Run3	repeat/STIM_000.jpg
2313.242	0.949	correct	repeat	Run3	repeat/STIM_001.jpg
2317.936	0.888	correct	repeat	Run3	repeat/STIM_001.jpg
2321.06	0.868	correct	repeat	Run3	repeat/STIM_001.jpg
2324.755	0.606	correct	repeat	Run3	repeat/STIM_001.jpg
2329.078	1.065	correct	repeat	Run3	repeat/STIM_001.jpg
2333.629	0.553	correct	repeat	Run3	repeat/STIM_002.jpg
2336.38	0.637	correct	repeat	Run3	repeat/STIM_002.jpg
2340.239	1.022	correct	repeat	Run3	repeat/STIM_002.jpg
2343.482	0.893	correct	repeat	Run3	repeat/STIM_002.jpg
2348.047	0.898	correct	repeat	Run3	repeat/STIM_002.jpg
2350.918	0.874	correct	repeat	Run3	repeat/STIM_003.jpg
2355.516	0.903	correct	repeat	Run3	repeat/STIM_003.jpg
2358.454	0.665	correct	repeat	Run3	repeat/STIM_003.jpg
2361.294	0.586	correct	repeat	Run3	repeat/STIM_003.jpg
2364.431	0.651	correct	repeat	Run3	repeat/STIM_003.jpg
2368.328	0.904	correct	repeat	Run3	repeat/STIM_004.jpg
2371.877	0.807	correct	repeat	Run3	repeat/STIM_004.jpg
2376.213	0.584	correct	repeat	Run3	repeat/STIM_004.jpg
2379.923	0.704	correct	repeat	Run3	repeat/STIM_004.jpg
2383.164	0.871	correct	repeat	Run3	repeat/STIM_004.jpg
2387.402	0.6	correct	repeat	Run3	repeat/STIM_005.jpg
2390.013	0.957	correct	repeat	Run3	repeat/STIM_005.jpg
2394.377	0.795	correct	repeat	Run3	repeat/STIM_005.jpg
2398.936	0.988	correct	repeat	Run3	repeat/STIM_005.jpg
2403.853	0.937	correct	repeat	Run3	repeat/STIM_005.jpg
2407.624	0.69	correct	repeat	Run3	repeat/STIM_006.jpg
2410.556	0.874	correct	repeat	Run3	repeat/STIM_006.jpg
2414.845	0.807	correct	repeat	Run3	repeat/STIM_006.jpg
2419.292	0.876	correct	repeat	Run3	repeat/STIM_006.jpg
2423.262	0.69	correct	repeat	Run3	repeat/STIM_006.jpg
2427.706	0.612	correct	repeat	Run3	repeat/STIM_007.jpg
2431.524	0.827	correct	repeat	Run3	repeat/STIM_007.jpg
2434.54	0.812	correct	repeat	Run3	repeat/STIM_007.jpg
2438.074	0.617	correct	repeat	Run3	repeat/STIM_007.jpg
2442.157	0.729	correct	repeat	Run3	repeat/STIM_007.jpg
2446.387	0.977	correct	repeat	Run3	repeat/STIM_008.jpg
2450.283	0.651	correct	repeat	Run3	repeat/STIM_008.jpg
2454.797	0.563	correct	repeat	Run3	repeat/STIM_008.jpg
2458.157	0.725	correct	repeat	Run3	repeat/STIM_008.jpg
2461.373	0.797	correct	repeat	Run3	repeat/STIM_008.jpg
2465.029	0.924	correct	repeat	Run3	repeat/STIM_009.jpg
2469.633	0.822	correct	repeat	Run3	repeat/STIM_009.jpg
2474.167	1.01	correct	repeat	Run3	repeat/STIM_009.jpg
2478.368	0.942	correct	repeat	Run3	repeat/STIM_009.jpg
2482.846	0.616	correct	repeat	Run3	repeat/STIM_009.jpg
2485.853	0.619	correct	repeat	Run3	repeat/STIM_010.jpg
2489.912	0.631	incorrect	repeat	Run3	repeat/STIM_010.jpg
2493.252	0.652	correct	repeat	Run3	repeat/STIM_010.jpg
2496.515	0.629	correct	repeat	Run3	repeat/STIM_010.jpg
2499.63	0.728	correct	repeat	Run3	repeat/STIM_010.jpg
2503.13	1.054	correct	repeat	Run3	repeat/STIM_011.jpg
2506.096	0.748	incorrect	repeat	Run3	repeat/STIM_011.jpg
2510.379	0.713	correct	repeat	Run3	repeat/STIM_011.jpg
2513.733	0.819	correct	repeat	Run3	repeat/STIM_011.jpg
2516.705	0.675	correct	repeat	Run3	repeat/STIM_011.jpg
2520.899	0.585	correct	repeat	Run3	repeat/STIM_012.jpg
2524.806	0.99	correct	repeat	Run3	repeat/STIM_012.jpg
2529.07	0.505	correct	repeat	Run3	repeat/STIM_012.jpg
2533.269	0.788	correct	repeat	Run3	repeat/STIM_012.jpg
2537.793	0.769	correct	repeat	Run3	repeat/STIM_012.jpg
2541.543	0.841	correct	repeat	Run3	repeat/STIM_013.jpg
2544.625	0.708	correct	repeat	Run3	repeat/STIM_013.jpg
2548.438	0.68	correct	repeat	Run3	repeat/STIM_013.jpg
2552.08	0.656	correct	repeat	Run3	repeat/STIM_013.jpg
2555.86	1.043	correct	repeat	Run3	repeat/STIM_013.jpg
2559.802	0.6	correct	repeat	Run3	repeat/STIM_014.jpg
2562.69	0.691	incorrect	repeat	Run3	repeat/STIM_014.jpg
2566.699	0.574	correct	repeat	Run3	repeat/STIM_014.jpg
2571.126	0.91	correct	repeat	Run3	repeat/STIM_014.jpg
2574.564	0.544	correct	repeat	Run3	repeat/STIM_014.jpg
2578.192	1.45	correct	generate	Run4	generate/STIM_000.jpg
2581.801	1.732	correct	generate	Run4	generate/STIM_000.jpg
2585.709	2.222	correct	generate	Run4	generate/STIM_000.jpg
2590.826	1.918	correct	generate	Run4	generate/STIM_000.jpg
2596.153	0.956	correct	generate	Run4	generate/STIM_000.jpg
2600.756	1.782	correct	generate	Run4	generate/STIM_001.jpg
2606.064	1.506	incorrect	generate	Run4	generate/STIM_001.jpg
2611.045	2.018	correct	generate	Run4	generate/STIM_001.jpg
2615.891	0.935	correct	generate	Run4	generate/STIM_001.jpg
2619.805	2.064	correct	generate	Run4	generate/STIM_001.jpg
2624.265	1.137	correct	generate	Run4	generate/STIM_002.jpg
2627.558	2.016	correct	generate	Run4	generate/STIM_002.jpg
2633.375	1.368	correct	generate	Run4	generate/STIM_002.jpg
2638.528	1.712	correct	generate	Run4	generate/STIM_002.jpg
2642.393	1.69	correct	generate	Run4	generate/STIM_002.jpg
2647.723	1.19	correct	generate	Run4	generate/STIM_003.jpg
2651.188	1.078	correct	generate	Run4	generate/STIM_003.jpg
2654.755	1.152	correct	generate	Run4	generate/STIM_003.jpg
2658.27	1.196	correct	generate	Run4	generate/STIM_003.jpg
2662.408	0.794	correct	generate	Run4	generate/STIM_003.jpg
2665.975	1.716	correct	generate	Run4	generate/STIM_004.jpg
2670.257	1.358	correct	generate	Run4	generate/STIM_004.jpg
2675.5	1.087	correct	generate	Run4	generate/STIM_004.jpg
2679.209	0.995	correct	generate	Run4	generate/STIM_004.jpg
2682.971	2.166	correct	generate	Run4	generate/STIM_004.jpg
2686.977	2.128	correct	generate	Run4	generate/STIM_005.jpg
2691.109	1.933	correct	generate	Run4	generate/STIM_005.jpg
2695.544	1.918	correct	generate	Run4	generate/STIM_005.jpg
2699.589	1.698	correct	generate	Run4	generate/STIM_005.jpg
2704.995	1.419	correct	generate	Run4	generate/STIM_005.jpg
2709.661	1.042	correct	generate	Run4	generate/STIM_006.jpg
2714.025	0.871	incorrect	generate	Run4	generate/STIM_006.jpg
2718.397	1.212	correct	generate	Run4	generate/STIM_006.jpg
2721.901	1.318	correct	generate	Run4	generate/STIM_006.jpg
2725.74	1.05	correct	generate	Run4	generate/STIM_006.jpg
2730.551	1.179	correct	generate	Run4	generate/STIM_007.jpg
2734.474	1.972	correct	generate	Run4	generate/STIM_007.jpg
2739.36	1.461	correct	generate	Run4	generate/STIM_007.jpg
2744.4	1.906	correct	generate	Run4	generate/STIM_007.jpg
2750.002	2.146	correct	generate	Run4	generate/STIM_007.jpg
2754.558	1.919	correct	generate	Run4	generate/STIM_008.jpg
2759.362	1.536	correct	generate	Run4	generate/STIM_008.jpg
2763.821	2.007	correct	generate	Run4	generate/STIM_008.jpg
2769.431	1.01	correct	generate	Run4	generate/STIM_008.jpg
2773.956	1.214	correct	generate	Run4	generate/STIM_008.jpg
2778.504	2.218	correct	generate	Run4	generate/STIM_009.jpg
2783.354	1.788	correct	generate	Run4	generate/STIM_009.jpg
2787.838	1.59	correct	generate	Run4	generate/STIM_009.jpg
2792.848	2.016	correct	generate	Run4	generate/STIM_009.jpg
2797.237	1.813	correct	generate	Run4	generate/STIM_009.jpg
2801.326	1.526	incorrect	generate	Run4	generate/STIM_010.jpg
2806.527	1.438	correct	generate	Run4	generate/STIM_010.jpg
2810.696	1.79	correct	generate	Run4	generate/STIM_010.jpg
2814.871	1.198	correct	generate	Run4	generate/STIM_010.jpg
2818.786	1.339	correct	generate	Run4	generate/STIM_010.jpg
2823.279	1.963	correct	generate	Run4	generate/STIM_011.jpg
2829.007	2.043	correct	generate	Run4	generate/STIM_011.jpg
2834.914	1.738	correct	generate	Run4	generate/STIM_011.jpg
2839.242	1.863	correct	generate	Run4	generate/STIM_011.jpg
2843.415	1.346	correct	generate	Run4	generate/STIM_011.jpg
2848.523	1.26	correct	generate	Run4	generate/STIM_012.jpg
2853.39	1.728	correct	generate	Run4	generate/STIM_012.jpg
2857.835	0.922	correct	generate	Run4	generate/STIM_012.jpg
2862.681	0.878	correct	generate	Run4	generate/STIM_012.jpg
2866.267	0.961	correct	generate	Run4	generate/STIM_012.jpg
2870.385	1.378	correct	generate	Run4	generate/STIM_013.jpg
2875.558	2.304	correct	generate	Run4	generate/STIM_013.jpg
2880.094	2.19	correct	generate	Run4	generate/STIM_013.jpg
2886.135	1.65	correct	generate	Run4	generate/STIM_013.jpg
2890.458	1.443	correct	generate	Run4	generate/STIM_013.jpg
2895.594	1.909	incorrect	generate	Run4	generate/STIM_014.jpg
2899.604	1.224	correct	generate	Run4	generate/STIM_014.jpg
2903.941	0.875	correct	generate	Run4	generate/STIM_014.jpg
2906.946	1.657	correct	generate	Run4	generate/STIM_014.jpg
2911.822	1.207	correct	generate	Run4	generate/STIM_014.jpg
2915.241	1.128	correct	generate	Run4	generate/STIM_015.jpg
2919.797	1.575	correct	generate	Run4	generate/STIM_015.jpg
2924.697	1.855	correct	generate	Run4	generate/STIM_015.jpg
2928.9	2.056	correct	generate	Run4	generate/STIM_015.jpg
2932.891	1.712	correct	generate	Run4	generate/STIM_015.jpg
2937.174	1.016	correct	generate	Run4	generate/STIM_016.jpg
2941.246	1.645	correct	generate	Run4	generate/STIM_016.jpg
2944.851	1.295	correct	generate	Run4	generate/STIM_016.jpg
2949.296	1.741	correct	generate	Run4	generate/STIM_016.jpg
2954.255	1.705	correct	generate	Run4	generate/STIM_016.jpg
2959.286	1.523	correct	generate	Run4	generate/STIM_017.jpg
2963.332	2.104	correct	generate	Run4	generate/STIM_017.jpg
2967.802	1.444	correct	generate	Run4	generate/STIM_017.jpg
2971.936	1.397	correct	generate	Run4	generate/STIM_017.jpg
2976.173	1.564	correct	generate	Run4	generate/STIM_017.jpg
2981.219	1.993	correct	generate	Run4	generate/STIM_018.jpg
2986.11	1.654	correct	generate	Run4	generate/STIM_018.jpg
2991.473	1.76	correct	generate	Run4	generate/STIM_018.jpg
2997.052	1.88	correct	generate	Run4	generate/STIM_018.jpg
3002.45	1.568	correct	generate	Run4	generate/STIM_018.jpg
3007.583	1.106	correct	generate	Run4	generate/STIM_019.jpg
3011.847	1.888	correct	generate	Run4	generate/STIM_019.jpg
3017.583	1.172	correct	generate	Run4	generate/STIM_019.jpg
3021.107	1.021	correct	generate	Run4	generate/STIM_019.jpg
3025.89	1.122	correct	generate	Run4	generate/STIM_019.jpg
3029.249	2.029	correct	generate	Run4	generate/STIM_020.jpg
3034.798	2.187	correct	generate	Run4	generate/STIM_020.jpg
3039.07	1.992	correct	generate	Run4	generate/STIM_020.jpg
3044.003	1.198	correct	generate	Run4	generate/STIM_020.jpg
3048.899	1.679	correct	generate	Run4	generate/STIM_020.jpg
3052.564	1.292	correct	generate	Run4	generate/STIM_021.jpg
3057.503	1.596	correct	generate	Run4	generate/STIM_021.jpg
3062.854	1.724	correct	generate	Run4	generate/STIM_021.jpg
3068.345	1.126	correct	generate	Run4	generate/STIM_021.jpg
3072.487	1.122	correct	generate	Run4	generate/STIM_021.jpg
3077.544	0.974	correct	generate	Run4	generate/STIM_022.jpg
3081.881	0.926	correct	generate	Run4	generate/STIM_022.jpg
3085.533	1.545	correct	generate	Run4	generate/STIM_022.jpg
3089.692	1.182	correct	generate	Run4	generate/STIM_022.jpg
3092.976	2.278	correct	generate	Run4	generate/STIM_022.jpg
3097.239	1.445	correct	generate	Run4	generate/STIM_023.jpg
3102.074	1.644	correct	generate	Run4	generate/STIM_023.jpg
3106.756	1.646	correct	generate	Run4	generate/STIM_023.jpg
3110.757	0.905	correct	generate	Run4	generate/STIM_023.jpg
3115.67	1.83	correct	generate	Run4	generate/STIM_023.jpg
3119.897	1.177	correct	generate	Run4	generate/STIM_024.jpg
3124.576	1.902	correct	generate	Run4	generate/STIM_024.jpg
3128.825	2.179	correct	generate	Run4	generate/STIM_024.jpg
3133.969	2.16	correct	generate	Run4	generate/STIM_024.jpg
3139.726	1.591	correct	generate	Run4	generate/STIM_024.jpg
3143.581	1.049	correct	repeat	Run4	repeat/STIM_000.jpg
3146.652	0.925	correct	repeat	Run4	repeat/STIM_000.jpg
3149.831	0.91	correct	repeat	Run4	repeat/STIM_000.jpg
3153.175	0.84	correct	repeat	Run4	repeat/STIM_000.jpg
3157.492	0.982	correct	repeat	Run4	repeat/STIM_000.jpg
3160.521	0.781	correct	repeat	Run4	repeat/STIM_001.jpg
3164.485	0.834	correct	repeat	Run4	repeat/STIM_001.jpg
3169.161	1.03	incorrect	repeat	Run4	repeat/STIM_001.jpg
3173.286	0.808	correct	repeat	Run4	repeat/STIM_001.jpg
3178.011	1.096	correct	repeat	Run4	repeat/STIM_001.jpg
3182.906	0.746	correct	repeat	Run4	repeat/STIM_002.jpg
3185.597	0.944	correct	repeat	Run4	repeat/STIM_002.jpg
3189.885	0.905	correct	repeat	Run4	repeat/STIM_002.jpg
3193.094	0.628	correct	repeat	Run4	repeat/STIM_002.jpg
3197.647	0.807	correct	repeat	Run4	repeat/STIM_002.jpg
3200.57	0.713	correct	repeat	Run4	repeat/STIM_003.jpg
3204.18	0.884	correct	repeat	Run4	repeat/STIM_003.jpg
3207.712	0.861	incorrect	repeat	Run4	repeat/STIM_003.jpg
3211.527	0.917	correct	repeat	Run4	repeat/STIM_003.jpg
3215.255	1.09	incorrect	repeat	Run4	repeat/STIM_003.jpg
3218.786	0.511	correct	repeat	Run4	repeat/STIM_004.jpg
3221.475	0.988	correct	repeat	Run4	repeat/STIM_004.jpg
3225.057	0.728	correct	repeat	Run4	repeat/STIM_004.jpg
3229.549	0.64	correct	repeat	Run4	repeat/STIM_004.jpg
3232.483	0.818	correct	repeat	Run4	repeat/STIM_004.jpg
3236.127	0.937	correct	repeat	Run4	repeat/STIM_005.jpg
3240.201	0.976	correct	repeat	Run4	repeat/STIM_005.jpg
3244.365	0.946	correct	repeat	Run4	repeat/STIM_005.jpg
3248.219	0.828	correct	repeat	Run4	repeat/STIM_005.jpg
3251.851	0.698	correct	repeat	Run4	repeat/STIM_005.jpg
3254.862	0.969	correct	repeat	Run4	repeat/STIM_006.jpg
3259.802	0.711	correct	repeat	Run4	repeat/STIM_006.jpg
3263.152	0.739	correct	repeat	Run4	repeat/STIM_006.jpg
3267.291	0.9	correct	repeat	Run4	repeat/STIM_006.jpg
3270.162	0.981	correct	repeat	Run4	repeat/STIM_006.jpg
3274.451	0.945	correct	repeat	Run4	repeat/STIM_007.jpg
3279.041	0.91	correct	repeat	Run4	repeat/STIM_007.jpg
3283.395	0.608	correct	repeat	Run4	repeat/STIM_007.jpg
3286.381	0.707	correct	repeat	Run4	repeat/STIM_007.jpg
3290.862	0.598	correct	repeat	Run4	repeat/STIM_007.jpg
3293.833	1.061	correct	repeat	Run4	repeat/STIM_008.jpg
3298.496	0.661	correct	repeat	Run4	repeat/STIM_008.jpg
3301.268	0.52	correct	repeat	Run4	repeat/STIM_008.jpg
3305.619	0.612	correct	repeat	Run4	repeat/STIM_008.jpg
3309.637	0.537	correct	repeat	Run4	repeat/STIM_008.jpg
3312.442	0.738	correct	repeat	Run4	repeat/STIM_009.jpg
3316.412	0.634	correct	repeat	Run4	repeat/STIM_009.jpg
3319.65	0.524	correct	repeat	Run4	repeat/STIM_009.jpg
3322.69	0.428	correct	repeat	Run4	repeat/STIM_009.jpg
3326.795	0.706	correct	repeat	Run4	repeat/STIM_009.jpg
3330.52	0.641	correct	repeat	Run4	repeat/STIM_010.jpg
3333.663	0.927	correct	repeat	Run4	repeat/STIM_010.jpg
3338.464	0.943	correct	repeat	Run4	repeat/STIM_010.jpg
3341.978	0.923	correct	repeat	Run4	repeat/STIM_010.jpg
3346.035	0.711	correct	repeat	Run4	repeat/STIM_010.jpg
3350.268	0.869	incorrect	repeat	Run4	repeat/STIM_011.jpg
3353.72	0.669	correct	repeat	Run4	repeat/STIM_011.jpg
3356.828	0.64	correct	repeat	Run4	repeat/STIM_011.jpg
3361.375	0.85	correct	repeat	Run4	repeat/STIM_011.jpg
3364.79	0.973	correct	repeat	Run4	repeat/STIM_011.jpg
3368.33	0.983	correct	repeat	Run4	repeat/STIM_012.jpg
3371.569	0.755	correct	repeat	Run4	repeat/STIM_012.jpg
3375.377	0.784	correct	repeat	Run4	repeat/STIM_012.jpg
3378.942	1.021	correct	repeat	Run4	repeat/STIM_012.jpg
3383.23	0.892	correct	repeat	Run4	repeat/STIM_012.jpg
3387.982	0.987	correct	repeat	Run4	repeat/STIM_013.jpg
3392.137	0.967	correct	repeat	Run4	repeat/STIM_013.jpg
3396.267	0.913	correct	repeat	Run4	repeat/STIM_013.jpg
3399.769	0.767	correct	repeat	Run4	repeat/STIM_013.jpg
3403.092	0.648	correct	repeat	Run4	repeat/STIM_013.jpg
3406.126	0.714	correct	repeat	Run4	repeat/STIM_014.jpg
3408.943	0.611	correct	repeat	Run4	repeat/STIM_014.jpg
3413.455	0.732	correct	repeat	Run4	repeat/STIM_014.jpg
3417.202	0.762	correct	repeat	Run4	repeat/STIM_014.jpg
3420.128	0.696	correct	repeat	Run4	repeat/STIM_014.jpg
