onset	duration	accuracy_binary	trial_type	learning_stage	stimulus
0.0	2.09	1	generate	Run1	generate/STIM_000.jpg
5.073	1.971	1	generate	Run1	generate/STIM_000.jpg
10.269	1.347	0	generate	Run1	generate/STIM_000.jpg
14.829	1.9	1	generate	Run1	generate/STIM_000.jpg
20.001	1.787	1	generate	Run1	generate/STIM_000.jpg
23.775	1.889	1	generate	Run1	generate/STIM_001.jpg
28.341	1.666	1	generate	Run1	generate/STIM_001.jpg
32.84	2.232	1	generate	Run1	generate/STIM_001.jpg
38.545	1.54	1	generate	Run1	generate/STIM_001.jpg
42.952	1.518	1	generate	Run1	generate/STIM_001.jpg
46.486	1.258	1	generate	Run1	generate/STIM_002.jpg
50.436	2.133	0	generate	Run1	generate/STIM_002.jpg
55.033	2.686	1	generate	Run1	generate/STIM_002.jpg
60.763	1.987	1	generate	Run1	generate/STIM_002.jpg
64.705	1.908	0	generate	Run1	generate/STIM_002.jpg
68.964	2.778	1	generate	Run1	generate/STIM_003.jpg
74.48	2.189	1	generate	Run1	generate/STIM_003.jpg
80.266	2.359	1	generate	Run1	generate/STIM_003.jpg
86.099	2.079	1	generate	Run1	generate/STIM_003.jpg
90.134	2.462	1	generate	Run1	generate/STIM_003.jpg
96.377	2.425	1	generate	Run1	generate/STIM_004.jpg
102.705	1.582	1	generate	Run1	generate/STIM_004.jpg
107.527	2.606	0	generate	Run1	generate/STIM_004.jpg
113.97	2.05	1	generate	Run1	generate/STIM_004.jpg
117.892	1.452	1	generate	Run1	generate/STIM_004.jpg
121.396	2.233	1	generate	Run1	generate/STIM_005.jpg
126.568	1.22	0	generate	Run1	generate/STIM_005.jpg
130.829	2.525	1	generate	Run1	generate/STIM_005.jpg
135.929	2.405	1	generate	Run1	generate/STIM_005.jpg
142.101	1.99	1	generate	Run1	generate/STIM_005.jpg
146.134	2.732	1	generate	Run1	generate/STIM_006.jpg
151.769	2.395	1	generate	Run1	generate/STIM_006.jpg
157.194	1.881	1	generate	Run1	generate/STIM_006.jpg
162.015	1.856	1	generate	Run1	generate/STIM_006.jpg
166.624	1.854	0	generate	Run1	generate/STIM_006.jpg
170.572	2.188	1	generate	Run1	generate/STIM_007.jpg
175.204	2.418	1	generate	Run1	generate/STIM_007.jpg
180.137	2.374	1	generate	Run1	generate/STIM_007.jpg
185.441	1.568	0	generate	Run1	generate/STIM_007.jpg
190.661	2.155	1	generate	Run1	generate/STIM_007.jpg
194.878	1.904	1	generate	Run1	generate/STIM_008.jpg
200.495	2.364	1	generate	Run1	generate/STIM_008.jpg
206.097	1.341	1	generate	Run1	generate/STIM_008.jpg
211.175	2.447	1	generate	Run1	generate/STIM_008.jpg
215.819	2.368	1	generate	Run1	generate/STIM_008.jpg
220.035	2.663	1	generate	Run1	generate/STIM_009.jpg
224.869	1.835	1	generate	Run1	generate/STIM_009.jpg
230.336	2.483	1	generate	Run1	generate/STIM_009.jpg
236.281	2.366	1	generate	Run1	generate/STIM_009.jpg
241.821	1.39	1	generate	Run1	generate/STIM_009.jpg
245.514	1.818	0	generate	Run1	generate/STIM_010.jpg
251.256	2.556	1	generate	Run1	generate/STIM_010.jpg
256.07	2.208	1	generate	Run1	generate/STIM_010.jpg
260.7	1.831	1	generate	Run1	generate/STIM_010.jpg
264.689	1.92	1	generate	Run1	generate/STIM_010.jpg
270.375	2.0	1	generate	Run1	generate/STIM_011.jpg
275.873	1.643	1	generate	Run1	generate/STIM_011.jpg
279.963	1.311	1	generate	Run1	generate/STIM_011.jpg
284.967	2.15	1	generate	Run1	generate/STIM_011.jpg
289.494	2.251	1	generate	Run1	generate/STIM_011.jpg
294.528	1.51	1	generate	Run1	generate/STIM_012.jpg
298.577	2.32	1	generate	Run1	generate/STIM_012.jpg
304.574	2.285	1	generate	Run1	generate/STIM_012.jpg
309.279	1.806	0	generate	Run1	generate/STIM_012.jpg
314.101	2.409	1	generate	Run1	generate/STIM_012.jpg
319.4	2.409	0	generate	Run1	generate/STIM_013.jpg
324.449	2.722	0	generate	Run1	generate/STIM_013.jpg
329.9	1.341	1	generate	Run1	generate/STIM_013.jpg
333.348	1.451	1	generate	Run1	generate/STIM_013.jpg
338.57	2.032	1	generate	Run1	generate/STIM_013.jpg
343.007	2.76	1	generate	Run1	generate/STIM_014.jpg
349.358	1.852	1	generate	Run1	generate/STIM_014.jpg
353.689	1.186	0	generate	Run1	generate/STIM_014.jpg
357.495	1.076	1	generate	Run1	generate/STIM_014.jpg
362.418	1.105	0	generate	Run1	generate/STIM_014.jpg
367.356	2.676	1	generate	Run1	generate/STIM_015.jpg
373.587	2.308	0	generate	Run1	generate/STIM_015.jpg
378.763	2.081	1	generate	Run1	generate/STIM_015.jpg
383.781	1.854	0	generate	Run1	generate/STIM_015.jpg
387.795	2.309	1	generate	Run1	generate/STIM_015.jpg
393.651	2.31	0	generate	Run1	generate/STIM_016.jpg
398.413	2.546	1	generate	Run1	generate/STIM_016.jpg
403.17	2.523	0	generate	Run1	generate/STIM_016.jpg
407.935	1.76	1	generate	Run1	generate/STIM_016.jpg
412.834	1.575	1	generate	Run1	generate/STIM_016.jpg
417.585	1.416	1	generate	Run1	generate/STIM_017.jpg
421.959	2.236	0	generate	Run1	generate/STIM_017.jpg
426.793	1.373	1	generate	Run1	generate/STIM_017.jpg
430.635	1.97	1	generate	Run1	generate/STIM_017.jpg
434.695	1.148	0	generate	Run1	generate/STIM_017.jpg
437.866	3.129	1	generate	Run1	generate/STIM_018.jpg
443.162	1.468	1	generate	Run1	generate/STIM_018.jpg
447.065	1.477	1	generate	Run1	generate/STIM_018.jpg
451.627	1.565	1	generate	Run1	generate/STIM_018.jpg
455.573	1.332	0	generate	Run1	generate/STIM_018.jpg
460.474	2.281	1	generate	Run1	generate/STIM_019.jpg
466.36	2.023	1	generate	Run1	generate/STIM_019.jpg
470.494	2.223	1	generate	Run1	generate/STIM_019.jpg
475.155	1.895	1	generate	Run1	generate/STIM_019.jpg
480.595	1.552	1	generate	Run1	generate/STIM_019.jpg
484.398	1.938	1	generate	Run1	generate/STIM_020.jpg
490.038	3.004	1	generate	Run1	generate/STIM_020.jpg
495.937	2.749	1	generate	Run1	generate/STIM_020.jpg
501.041	1.305	1	generate	Run1	generate/STIM_020.jpg
505.458	0.941	0	generate	Run1	generate/STIM_020.jpg
509.978	2.241	1	generate	Run1	generate/STIM_021.jpg
515.683	1.431	1	generate	Run1	generate/STIM_021.jpg
520.824	1.262	1	generate	Run1	generate/STIM_021.jpg
525.194	2.074	1	generate	Run1	generate/STIM_021.jpg
529.413	2.509	1	generate	Run1	generate/STIM_021.jpg
534.479	3.166	1	generate	Run1	generate/STIM_022.jpg
539.581	1.975	0	generate	Run1	generate/STIM_022.jpg
543.57	1.514	1	generate	Run1	generate/STIM_022.jpg
547.253	2.571	1	generate	Run1	generate/STIM_022.jpg
552.781	1.321	0	generate	Run1	generate/STIM_022.jpg
557.474	2.604	1	generate	Run1	generate/STIM_023.jpg
562.359	2.405	1	generate	Run1	generate/STIM_023.jpg
567.392	2.631	1	generate	Run1	generate/STIM_023.jpg
573.271	1.402	0	generate	Run1	generate/STIM_023.jpg
577.461	1.289	1	generate	Run1	generate/STIM_023.jpg
582.321	1.992	1	generate	Run1	generate/STIM_024.jpg
586.698	2.459	1	generate	Run1	generate/STIM_024.jpg
592.505	2.372	1	generate	Run1	generate/STIM_024.jpg
597.118	1.335	1	generate	Run1	generate/STIM_024.jpg
601.488	1.849	1	generate	Run1	generate/STIM_024.jpg
606.513	0.928	1	repeat	Run1	repeat/STIM_000.jpg
609.776	0.521	1	repeat	Run1	repeat/STIM_000.jpg
613.134	0.926	1	repeat	Run1	repeat/STIM_000.jpg
617.177	0.722	1	repeat	Run1	repeat/STIM_000.jpg
621.807	0.861	1	repeat	Run1	repeat/STIM_000.jpg
625.503	0.808	1	repeat	Run1	repeat/STIM_001.jpg
629.135	0.892	1	repeat	Run1	repeat/STIM_001.jpg
632.689	0.811	1	repeat	Run1	repeat/STIM_001.jpg
636.566	0.781	1	repeat	Run1	repeat/STIM_001.jpg
639.976	0.609	1	repeat	Run1	repeat/STIM_001.jpg
643.044	0.935	1	repeat	Run1	repeat/STIM_002.jpg
646.907	0.705	1	repeat	Run1	repeat/STIM_002.jpg
649.635	0.641	1	repeat	Run1	repeat/STIM_002.jpg
652.779	0.851	1	repeat	Run1	repeat/STIM_002.jpg
656.252	0.964	1	repeat	Run1	repeat/STIM_002.jpg
659.98	0.87	1	repeat	Run1	repeat/STIM_003.jpg
662.969	0.807	1	repeat	Run1	repeat/STIM_003.jpg
667.124	0.823	1	repeat	Run1	repeat/STIM_003.jpg
669.91	0.699	1	repeat	Run1	repeat/STIM_003.jpg
672.997	0.92	0	repeat	Run1	repeat/STIM_003.jpg
676.079	0.817	1	repeat	Run1	repeat/STIM_004.jpg
680.107	0.823	1	repeat	Run1	repeat/STIM_004.jpg
684.708	0.586	1	repeat	Run1	repeat/STIM_004.jpg
687.818	0.777	1	repeat	Run1	repeat/STIM_004.jpg
691.888	0.746	1	repeat	Run1	repeat/STIM_004.jpg
694.802	0.847	1	repeat	Run1	repeat/STIM_005.jpg
698.883	0.976	1	repeat	Run1	repeat/STIM_005.jpg
702.533	0.804	1	repeat	Run1	repeat/STIM_005.jpg
706.836	0.898	1	repeat	Run1	repeat/STIM_005.jpg
710.706	0.51	1	repeat	Run1	repeat/STIM_005.jpg
713.25	0.902	1	repeat	Run1	repeat/STIM_006.jpg
716.958	0.634	1	repeat	Run1	repeat/STIM_006.jpg
721.48	0.731	1	repeat	Run1	repeat/STIM_006.jpg
725.464	0.726	1	repeat	Run1	repeat/STIM_006.jpg
729.792	0.86	1	repeat	Run1	repeat/STIM_006.jpg
734.245	0.979	0	repeat	Run1	repeat/STIM_007.jpg
737.945	0.963	1	repeat	Run1	repeat/STIM_007.jpg
742.393	0.929	1	repeat	Run1	repeat/STIM_007.jpg
746.977	0.848	1	repeat	Run1	repeat/STIM_007.jpg
750.42	0.595	1	repeat	Run1	repeat/STIM_007.jpg
753.696	0.627	1	repeat	Run1	repeat/STIM_008.jpg
757.954	0.851	1	repeat	Run1	repeat/STIM_008.jpg
761.249	0.748	1	repeat	Run1	repeat/STIM_008.jpg
765.166	0.867	1	repeat	Run1	repeat/STIM_008.jpg
768.538	0.996	1	repeat	Run1	repeat/STIM_008.jpg
772.546	0.926	1	repeat	Run1	repeat/STIM_009.jpg
775.559	0.85	0	repeat	Run1	repeat/STIM_009.jpg
779.754	0.712	1	repeat	Run1	repeat/STIM_009.jpg
782.803	0.665	1	repeat	Run1	repeat/STIM_009.jpg
785.863	1.008	1	repeat	Run1	repeat/STIM_009.jpg
790.768	0.637	1	repeat	Run1	repeat/STIM_010.jpg
795.242	0.718	1	repeat	Run1	repeat/STIM_010.jpg
798.042	0.568	1	repeat	Run1	repeat/STIM_010.jpg
802.277	0.575	1	repeat	Run1	repeat/STIM_010.jpg
805.726	0.619	0	repeat	Run1	repeat/STIM_010.jpg
808.866	0.99	1	repeat	Run1	repeat/STIM_011.jpg
811.827	1.056	1	repeat	Run1	repeat/STIM_011.jpg
815.223	0.894	1	repeat	Run1	repeat/STIM_011.jpg
818.419	0.968	1	repeat	Run1	repeat/STIM_011.jpg
821.646	0.94	1	repeat	Run1	repeat/STIM_011.jpg
825.654	0.844	1	repeat	Run1	repeat/STIM_012.jpg
828.734	0.528	1	repeat	Run1	repeat/STIM_012.jpg
831.587	0.619	1	repeat	Run1	repeat/STIM_012.jpg
835.858	0.826	1	repeat	Run1	repeat/STIM_012.jpg
840.355	0.509	1	repeat	Run1	repeat/STIM_012.jpg
843.35	0.95	0	repeat	Run1	repeat/STIM_013.jpg
846.768	0.708	1	repeat	Run1	repeat/STIM_013.jpg
849.736	0.719	1	repeat	Run1	repeat/STIM_013.jpg
853.08	0.795	1	repeat	Run1	repeat/STIM_013.jpg
857.734	1.057	1	repeat	Run1	repeat/STIM_013.jpg
861.547	0.775	1	repeat	Run1	repeat/STIM_014.jpg
865.888	0.768	1	repeat	Run1	repeat/STIM_014.jpg
870.31	0.653	1	repeat	Run1	repeat/STIM_014.jpg
874.207	0.718	1	repeat	Run1	repeat/STIM_014.jpg
878.219	0.564	1	repeat	Run1	repeat/STIM_014.jpg
881.102	1.927	1	generate	Run2	generate/STIM_000.jpg
885.901	1.696	1	generate	Run2	generate/STIM_000.jpg
890.92	1.293	1	generate	Run2	generate/STIM_000.jpg
895.055	1.929	1	generate	Run2	generate/STIM_000.jpg
898.906	1.656	1	generate	Run2	generate/STIM_000.jpg
903.739	2.416	1	generate	Run2	generate/STIM_001.jpg
909.947	2.399	1	generate	Run2	generate/STIM_001.jpg
916.169	1.68	1	generate	Run2	generate/STIM_001.jpg
920.208	1.802	1	generate	Run2	generate/STIM_001.jpg
925.874	1.641	1	generate	Run2	generate/STIM_001.jpg
931.202	2.345	0	generate	Run2	generate/STIM_002.jpg
937.175	2.336	1	generate	Run2	generate/STIM_002.jpg
942.916	2.229	1	generate	Run2	generate/STIM_002.jpg
948.532	1.074	1	generate	Run2	generate/STIM_002.jpg
952.49	1.3	1	generate	Run2	generate/STIM_002.jpg
956.143	1.995	1	generate	Run2	generate/STIM_003.jpg
960.939	2.144	1	generate	Run2	generate/STIM_003.jpg
966.656	1.573	1	generate	Run2	generate/STIM_003.jpg
970.567	1.907	1	generate	Run2	generate/STIM_003.jpg
976.129	1.412	1	generate	Run2	generate/STIM_003.jpg
980.909	2.102	1	generate	Run2	generate/STIM_004.jpg
985.44	2.313	1	generate	Run2	generate/STIM_004.jpg
990.265	2.3	1	generate	Run2	generate/STIM_004.jpg
995.675	1.209	1	generate	Run2	generate/STIM_004.jpg
1000.063	1.443	0	generate	Run2	generate/STIM_004.jpg
1003.445	1.42	0	generate	Run2	generate/STIM_005.jpg
1008.677	1.88	1	generate	Run2	generate/STIM_005.jpg
1014.401	2.01	1	generate	Run2	generate/STIM_005.jpg
1020.287	1.523	1	generate	Run2	generate/STIM_005.jpg
1024.022	1.632	1	generate	Run2	generate/STIM_005.jpg
1029.094	1.104	1	generate	Run2	generate/STIM_006.jpg
1034.021	2.039	1	generate	Run2	generate/STIM_006.jpg
1038.423	1.366	1	generate	Run2	generate/STIM_006.jpg
1042.064	1.557	1	generate	Run2	generate/STIM_006.jpg
1045.698	1.28	1	generate	Run2	generate/STIM_006.jpg
1050.96	1.486	1	generate	Run2	generate/STIM_007.jpg
1054.572	1.444	1	generate	Run2	generate/STIM_007.jpg
1059.001	1.739	1	generate	Run2	generate/STIM_007.jpg
1064.406	2.228	1	generate	Run2	generate/STIM_007.jpg
1068.838	1.219	1	generate	Run2	generate/STIM_007.jpg
1073.002	1.06	0	generate	Run2	generate/STIM_008.jpg
1077.394	2.23	1	generate	Run2	generate/STIM_008.jpg
1082.691	1.328	1	generate	Run2	generate/STIM_008.jpg
1087.854	1.267	1	generate	Run2	generate/STIM_008.jpg
1093.096	1.152	1	generate	Run2	generate/STIM_008.jpg
1096.785	2.559	1	generate	Run2	generate/STIM_009.jpg
1101.795	2.292	1	generate	Run2	generate/STIM_009.jpg
1107.544	0.933	1	generate	Run2	generate/STIM_009.jpg
1110.845	1.188	1	generate	Run2	generate/STIM_009.jpg
1115.404	1.253	1	generate	Run2	generate/STIM_009.jpg
1120.32	2.511	1	generate	Run2	generate/STIM_010.jpg
1126.626	1.808	1	generate	Run2	generate/STIM_010.jpg
1130.756	1.929	1	generate	Run2	generate/STIM_010.jpg
1134.949	1.864	1	generate	Run2	generate/STIM_010.jpg
1140.002	1.839	0	generate	Run2	generate/STIM_010.jpg
1144.487	1.208	1	generate	Run2	generate/STIM_011.jpg
1147.777	2.359	1	generate	Run2	generate/STIM_011.jpg
1152.627	1.705	1	generate	Run2	generate/STIM_011.jpg
1157.469	1.004	1	generate	Run2	generate/STIM_011.jpg
1161.654	1.088	1	generate	Run2	generate/STIM_011.jpg
1165.939	1.217	1	generate	Run2	generate/STIM_012.jpg
1169.548	1.218	1	generate	Run2	generate/STIM_012.jpg
1173.412	1.487	1	generate	Run2	generate/STIM_012.jpg
1177.74	1.112	1	generate	Run2	generate/STIM_012.jpg
1182.132	0.967	1	generate	Run2	generate/STIM_012.jpg
1186.338	1.999	1	generate	Run2	generate/STIM_013.jpg
1191.711	1.17	1	generate	Run2	generate/STIM_013.jpg
1195.498	1.535	1	generate	Run2	generate/STIM_013.jpg
1200.865	1.485	1	generate	Run2	generate/STIM_013.jpg
1205.624	1.103	1	generate	Run2	generate/STIM_013.jpg
1209.301	2.289	0	generate	Run2	generate/STIM_014.jpg
1214.573	1.344	1	generate	Run2	generate/STIM_014.jpg
1219.163	1.131	1	generate	Run2	generate/STIM_014.jpg
1223.357	1.606	0	generate	Run2	generate/STIM_014.jpg
1227.295	1.335	1	generate	Run2	generate/STIM_014.jpg
1231.853	2.246	0	generate	Run2	generate/STIM_015.jpg
1237.619	1.962	1	generate	Run2	generate/STIM_015.jpg
1241.754	2.209	1	generate	Run2	generate/STIM_015.jpg
1247.563	1.367	1	generate	Run2	generate/STIM_015.jpg
1251.69	1.608	0	generate	Run2	generate/STIM_015.jpg
1257.058	1.637	1	generate	Run2	generate/STIM_016.jpg
1261.926	1.33	0	generate	Run2	generate/STIM_016.jpg
1266.112	1.306	0	generate	Run2	generate/STIM_016.jpg
1269.527	1.635	0	generate	Run2	generate/STIM_016.jpg
1275.08	1.962	0	generate	Run2	generate/STIM_016.jpg
1279.811	1.448	1	generate	Run2	generate/STIM_017.jpg
1283.773	2.452	1	generate	Run2	generate/STIM_017.jpg
1289.216	1.038	1	generate	Run2	generate/STIM_017.jpg
1293.752	0.97	1	generate	Run2	generate/STIM_017.jpg
1298.157	1.644	1	generate	Run2	generate/STIM_017.jpg
1302.999	1.883	1	generate	Run2	generate/STIM_018.jpg
1306.844	2.258	0	generate	Run2	generate/STIM_018.jpg
1312.773	1.987	1	generate	Run2	generate/STIM_018.jpg
1317.115	0.991	1	generate	Run2	generate/STIM_018.jpg
1320.69	1.036	1	generate	Run2	generate/STIM_018.jpg
1325.559	2.671	1	generate	Run2	generate/STIM_019.jpg
1331.974	1.531	1	generate	Run2	generate/STIM_019.jpg
1337.219	1.698	1	generate	Run2	generate/STIM_019.jpg
1341.799	1.784	1	generate	Run2	generate/STIM_019.jpg
1346.758	2.0	1	generate	Run2	generate/STIM_019.jpg
1352.294	1.573	0	generate	Run2	generate/STIM_020.jpg
1356.348	1.894	1	generate	Run2	generate/STIM_020.jpg
1360.865	2.26	1	generate	Run2	generate/STIM_020.jpg
1365.539	1.239	1	generate	Run2	generate/STIM_020.jpg
1370.527	1.284	1	generate	Run2	generate/STIM_020.jpg
1374.78	1.785	1	generate	Run2	generate/STIM_021.jpg
1380.146	1.939	1	generate	Run2	generate/STIM_021.jpg
1385.226	1.433	1	generate	Run2	generate/STIM_021.jpg
1390.348	1.495	1	generate	Run2	generate/STIM_021.jpg
1395.062	1.507	1	generate	Run2	generate/STIM_021.jpg
1400.107	2.113	1	generate	Run2	generate/STIM_022.jpg
1405.746	1.51	1	generate	Run2	generate/STIM_022.jpg
1410.849	1.669	1	generate	Run2	generate/STIM_022.jpg
1414.527	1.064	1	generate	Run2	generate/STIM_022.jpg
1417.564	1.736	1	generate	Run2	generate/STIM_022.jpg
1422.442	1.763	1	generate	Run2	generate/STIM_023.jpg
1426.194	2.435	1	generate	Run2	generate/STIM_023.jpg
1430.833	2.274	0	generate	Run2	generate/STIM_023.jpg
1436.35	1.837	1	generate	Run2	generate/STIM_023.jpg
1441.964	1.258	1	generate	Run2	generate/STIM_023.jpg
1446.386	1.75	1	generate	Run2	generate/STIM_024.jpg
1451.301	1.435	0	generate	Run2	generate/STIM_024.jpg
1454.959	1.575	1	generate	Run2	generate/STIM_024.jpg
1459.038	1.853	1	generate	Run2	generate/STIM_024.jpg
1463.816	1.259	1	generate	Run2	generate/STIM_024.jpg
1468.916	0.629	1	repeat	Run2	repeat/STIM_000.jpg
1471.537	0.66	1	repeat	Run2	repeat/STIM_000.jpg
1475.864	0.664	1	repeat	Run2	repeat/STIM_000.jpg
1479.86	0.949	1	repeat	Run2	repeat/STIM_000.jpg
1484.048	0.564	1	repeat	Run2	repeat/STIM_000.jpg
1488.113	0.692	1	repeat	Run2	repeat/STIM_001.jpg
1491.575	0.738	1	repeat	Run2	repeat/STIM_001.jpg
1494.847	0.855	1	repeat	Run2	repeat/STIM_001.jpg
1498.669	1.024	1	repeat	Run2	repeat/STIM_001.jpg
1501.94	0.556	1	repeat	Run2	repeat/STIM_001.jpg
1504.611	1.062	1	repeat	Run2	repeat/STIM_002.jpg
1508.166	0.642	1	repeat	Run2	repeat/STIM_002.jpg
1510.849	0.77	1	repeat	Run2	repeat/STIM_002.jpg
1514.046	0.808	1	repeat	Run2	repeat/STIM_002.jpg
1516.98	0.933	1	repeat	Run2	repeat/STIM_002.jpg
1520.362	1.007	1	repeat	Run2	repeat/STIM_003.jpg
1524.239	0.733	1	repeat	Run2	repeat/STIM_003.jpg
1527.564	0.834	1	repeat	Run2	repeat/STIM_003.jpg
1531.861	0.818	1	repeat	Run2	repeat/STIM_003.jpg
1535.653	0.571	1	repeat	Run2	repeat/STIM_003.jpg
1538.287	0.645	1	repeat	Run2	repeat/STIM_004.jpg
1541.967	1.007	1	repeat	Run2	repeat/STIM_004.jpg
1545.356	0.574	1	repeat	Run2	repeat/STIM_004.jpg
1548.876	0.644	1	repeat	Run2	repeat/STIM_004.jpg
1552.036	1.025	1	repeat	Run2	repeat/STIM_004.jpg
1555.852	1.1	1	repeat	Run2	repeat/STIM_005.jpg
1560.117	0.919	1	repeat	Run2	repeat/STIM_005.jpg
1564.41	0.916	0	repeat	Run2	repeat/STIM_005.jpg
1568.905	1.035	1	repeat	Run2	repeat/STIM_005.jpg
1573.483	0.711	1	repeat	Run2	repeat/STIM_005.jpg
1577.681	1.011	1	repeat	Run2	repeat/STIM_006.jpg
1581.408	0.67	1	repeat	Run2	repeat/STIM_006.jpg
1585.124	0.788	1	repeat	Run2	repeat/STIM_006.jpg
1588.492	0.906	1	repeat	Run2	repeat/STIM_006.jpg
1592.702	0.828	1	repeat	Run2	repeat/STIM_006.jpg
1596.741	0.716	1	repeat	Run2	repeat/STIM_007.jpg
1601.275	0.885	1	repeat	Run2	repeat/STIM_007.jpg
1605.497	0.655	0	repeat	Run2	repeat/STIM_007.jpg
1608.506	0.868	1	repeat	Run2	repeat/STIM_007.jpg
1611.369	0.674	1	repeat	Run2	repeat/STIM_007.jpg
1615.507	1.026	1	repeat	Run2	repeat/STIM_008.jpg
1619.385	0.784	1	repeat	Run2	repeat/STIM_008.jpg
1622.218	0.57	1	repeat	Run2	repeat/STIM_008.jpg
1624.98	0.709	1	repeat	Run2	repeat/STIM_008.jpg
1627.966	0.881	1	repeat	Run2	repeat/STIM_008.jpg
1632.473	1.008	1	repeat	Run2	repeat/STIM_009.jpg
1635.931	0.793	1	repeat	Run2	repeat/STIM_009.jpg
1639.507	1.02	1	repeat	Run2	repeat/STIM_009.jpg
1643.644	0.682	1	repeat	Run2	repeat/STIM_009.jpg
1647.205	0.863	1	repeat	Run2	repeat/STIM_009.jpg
1651.171	0.942	1	repeat	Run2	repeat/STIM_010.jpg
1656.037	0.86	1	repeat	Run2	repeat/STIM_010.jpg
1660.494	0.777	1	repeat	Run2	repeat/STIM_010.jpg
1663.812	0.858	1	repeat	Run2	repeat/STIM_010.jpg
1666.702	0.899	1	repeat	Run2	repeat/STIM_010.jpg
1669.841	0.962	1	repeat	Run2	repeat/STIM_011.jpg
1673.961	0.573	1	repeat	Run2	repeat/STIM_011.jpg
1677.31	0.843	1	repeat	Run2	repeat/STIM_011.jpg
1682.093	0.505	1	repeat	Run2	repeat/STIM_011.jpg
1686.139	0.748	1	repeat	Run2	repeat/STIM_011.jpg
1689.455	0.893	1	repeat	Run2	repeat/STIM_012.jpg
1693.11	0.827	1	repeat	Run2	repeat/STIM_012.jpg
1697.079	1.026	1	repeat	Run2	repeat/STIM_012.jpg
1701.271	0.954	1	repeat	Run2	repeat/STIM_012.jpg
1704.573	0.8	1	repeat	Run2	repeat/STIM_012.jpg
1707.617	0.715	1	repeat	Run2	repeat/STIM_013.jpg
1710.912	0.599	1	repeat	Run2	repeat/STIM_013.jpg
1715.417	0.648	1	repeat	Run2	repeat/STIM_013.jpg
1718.223	0.712	1	repeat	Run2	repeat/STIM_013.jpg
1722.242	0.507	1	repeat	Run2	repeat/STIM_013.jpg
1725.012	0.608	1	repeat	Run2	repeat/STIM_014.jpg
1729.031	0.869	1	repeat	Run2	repeat/STIM_014.jpg
1732.769	0.591	1	repeat	Run2	repeat/STIM_014.jpg
1736.371	0.967	1	repeat	Run2	repeat/STIM_014.jpg
1741.167	1.158	1	repeat	Run2	repeat/STIM_014.jpg
1745.709	2.151	1	generate	Run3	generate/STIM_000.jpg
1751.575	1.587	1	generate	Run3	generate/STIM_000.jpg
1757.011	2.037	1	generate	Run3	generate/STIM_000.jpg
1762.177	1.3	1	generate	Run3	generate/STIM_000.jpg
1765.534	1.501	1	generate	Run3	generate/STIM_000.jpg
1770.794	1.376	0	generate	Run3	generate/STIM_001.jpg
1775.249	1.381	1	generate	Run3	generate/STIM_001.jpg
1780.204	1.67	1	generate	Run3	generate/STIM_001.jpg
1785.125	1.735	1	generate	Run3	generate/STIM_001.jpg
1790.183	1.982	1	generate	Run3	generate/STIM_001.jpg
1795.803	1.12	1	generate	Run3	generate/STIM_002.jpg
1799.57	0.938	1	generate	Run3	generate/STIM_002.jpg
1804.154	1.945	1	generate	Run3	generate/STIM_002.jpg
1809.535	1.098	0	generate	Run3	generate/STIM_002.jpg
1812.963	1.933	1	generate	Run3	generate/STIM_002.jpg
1817.383	1.646	1	generate	Run3	generate/STIM_003.jpg
1820.997	1.68	1	generate	Run3	generate/STIM_003.jpg
1825.496	1.068	1	generate	Run3	generate/STIM_003.jpg
1829.839	1.006	1	generate	Run3	generate/STIM_003.jpg
1834.104	2.102	1	generate	Run3	generate/STIM_003.jpg
1840.092	0.971	1	generate	Run3	generate/STIM_004.jpg
1843.517	1.484	1	generate	Run3	generate/STIM_004.jpg
1847.68	1.137	1	generate	Run3	generate/STIM_004.jpg
1851.603	1.238	1	generate	Run3	generate/STIM_004.jpg
1856.146	1.131	1	generate	Run3	generate/STIM_004.jpg
1859.531	0.97	1	generate	Run3	generate/STIM_005.jpg
1864.292	0.931	1	generate	Run3	generate/STIM_005.jpg
1868.995	1.349	1	generate	Run3	generate/STIM_005.jpg
1872.67	1.876	1	generate	Run3	generate/STIM_005.jpg
1877.179	1.271	1	generate	Run3	generate/STIM_005.jpg
1880.786	1.55	1	generate	Run3	generate/STIM_006.jpg
1885.551	1.264	1	generate	Run3	generate/STIM_006.jpg
1889.342	2.084	1	generate	Run3	generate/STIM_006.jpg
1893.491	1.805	1	generate	Run3	generate/STIM_006.jpg
1897.991	1.755	1	generate	Run3	generate/STIM_006.jpg
1902.153	1.884	1	generate	Run3	generate/STIM_007.jpg
1906.086	1.74	0	generate	Run3	generate/STIM_007.jpg
1911.619	2.118	1	generate	Run3	generate/STIM_007.jpg
1916.884	1.399	1	generate	Run3	generate/STIM_007.jpg
1920.663	2.115	1	generate	Run3	generate/STIM_007.jpg
1925.275	1.746	1	generate	Run3	generate/STIM_008.jpg
1929.411	1.357	0	generate	Run3	generate/STIM_008.jpg
1934.666	1.061	1	generate	Run3	generate/STIM_008.jpg
1939.114	1.535	1	generate	Run3	generate/STIM_008.jpg
1943.35	1.36	1	generate	Run3	generate/STIM_008.jpg
1948.288	1.579	1	generate	Run3	generate/STIM_009.jpg
1952.465	1.758	1	generate	Run3	generate/STIM_009.jpg
1956.377	1.835	1	generate	Run3	generate/STIM_009.jpg
1960.674	1.972	1	generate	Run3	generate/STIM_009.jpg
1964.56	1.504	1	generate	Run3	generate/STIM_009.jpg
1968.328	1.148	1	generate	Run3	generate/STIM_010.jpg
1971.948	1.5	1	generate	Run3	generate/STIM_010.jpg
1976.751	1.352	1	generate	Run3	generate/STIM_010.jpg
1980.995	2.07	1	generate	Run3	generate/STIM_010.jpg
1986.618	1.077	1	generate	Run3	generate/STIM_010.jpg
1989.713	0.982	1	generate	Run3	generate/STIM_011.jpg
1994.595	1.339	1	generate	Run3	generate/STIM_011.jpg
1998.8	0.972	1	generate	Run3	generate/STIM_011.jpg
2001.874	1.336	1	generate	Run3	generate/STIM_011.jpg
2006.119	1.476	1	generate	Run3	generate/STIM_011.jpg
2009.952	1.877	1	generate	Run3	generate/STIM_012.jpg
2014.822	1.458	1	generate	Run3	generate/STIM_012.jpg
2019.556	1.954	1	generate	Run3	generate/STIM_012.jpg
2025.07	1.354	0	generate	Run3	generate/STIM_012.jpg
2029.363	1.164	1	generate	Run3	generate/STIM_012.jpg
2033.433	1.301	0	generate	Run3	generate/STIM_013.jpg
2036.777	1.472	1	generate	Run3	generate/STIM_013.jpg
2041.239	1.286	1	generate	Run3	generate/STIM_013.jpg
2044.968	1.832	1	generate	Run3	generate/STIM_013.jpg
2050.347	1.145	1	generate	Run3	generate/STIM_013.jpg
2053.852	1.553	1	generate	Run3	generate/STIM_014.jpg
2058.915	1.161	1	generate	Run3	generate/STIM_014.jpg
2062.304	1.541	1	generate	Run3	generate/STIM_014.jpg
2066.97	1.941	1	generate	Run3	generate/STIM_014.jpg
2072.75	1.224	1	generate	Run3	generate/STIM_014.jpg
2077.692	2.007	1	generate	Run3	generate/STIM_015.jpg
2082.067	2.167	1	generate	Run3	generate/STIM_015.jpg
2086.305	1.087	1	generate	Run3	generate/STIM_015.jpg
2089.708	1.902	1	generate	Run3	generate/STIM_015.jpg
2093.811	0.896	1	generate	Run3	generate/STIM_015.jpg
2098.02	1.731	0	generate	Run3	generate/STIM_016.jpg
2102.76	1.559	1	generate	Run3	generate/STIM_016.jpg
2107.156	1.094	1	generate	Run3	generate/STIM_016.jpg
2111.34	1.145	1	generate	Run3	generate/STIM_016.jpg
2114.725	2.085	1	generate	Run3	generate/STIM_016.jpg
2119.323	1.862	1	generate	Run3	generate/STIM_017.jpg
2123.567	2.183	1	generate	Run3	generate/STIM_017.jpg
2128.493	1.846	1	generate	Run3	generate/STIM_017.jpg
2132.864	0.983	1	generate	Run3	generate/STIM_017.jpg
2136.897	1.578	1	generate	Run3	generate/STIM_017.jpg
2141.631	2.154	1	generate	Run3	generate/STIM_018.jpg
2146.507	1.124	1	generate	Run3	generate/STIM_018.jpg
2150.194	1.587	1	generate	Run3	generate/STIM_018.jpg
2154.2	1.151	1	generate	Run3	generate/STIM_018.jpg
2158.919	1.189	1	generate	Run3	generate/STIM_018.jpg
2162.939	1.687	0	generate	Run3	generate/STIM_019.jpg
2166.663	0.86	1	generate	Run3	generate/STIM_019.jpg
2170.566	1.46	1	generate	Run3	generate/STIM_019.jpg
2175.172	1.564	1	generate	Run3	generate/STIM_019.jpg
2178.817	1.596	1	generate	Run3	generate/STIM_019.jpg
2183.03	1.941	1	generate	Run3	generate/STIM_020.jpg
2187.201	1.842	1	generate	Run3	generate/STIM_020.jpg
2191.896	2.114	1	generate	Run3	generate/STIM_020.jpg
2196.86	2.133	1	generate	Run3	generate/STIM_020.jpg
2202.117	1.743	0	generate	Run3	generate/STIM_020.jpg
2206.14	1.288	1	generate	Run3	generate/STIM_021.jpg
2210.333	1.313	1	generate	Run3	generate/STIM_021.jpg
2214.757	1.713	1	generate	Run3	generate/STIM_021.jpg
2220.38	1.655	1	generate	Run3	generate/STIM_021.jpg
2224.125	1.725	1	generate	Run3	generate/STIM_021.jpg
2227.962	1.705	1	generate	Run3	generate/STIM_022.jpg
2233.244	0.846	0	generate	Run3	generate/STIM_022.jpg
2236.736	1.886	1	generate	Run3	generate/STIM_022.jpg
2241.357	1.954	1	generate	Run3	generate/STIM_022.jpg
2246.444	1.953	1	generate	Run3	generate/STIM_022.jpg
2251.942	1.751	1	generate	Run3	generate/STIM_023.jpg
2255.817	1.267	1	generate	Run3	generate/STIM_023.jpg
2260.92	2.01	1	generate	Run3	generate/STIM_023.jpg
2265.248	1.49	1	generate	Run3	generate/STIM_023.jpg
2270.344	1.748	1	generate	Run3	generate/STIM_023.jpg
2274.098	1.698	1	generate	Run3	generate/STIM_024.jpg
2277.808	1.636	1	generate	Run3	generate/STIM_024.jpg
2281.619	1.485	1	generate	Run3	generate/STIM_024.jpg
2286.505	1.392	1	generate	Run3	generate/STIM_024.jpg
2290.638	1.505	1	generate	Run3	generate/STIM_024.jpg
2294.88	0.626	1	repeat	Run3	repeat/STIM_000.jpg
2298.909	1.022	1	repeat	Run3	repeat/STIM_000.jpg
2303.176	0.832	1	repeat	Run3	repeat/STIM_000.jpg
2306.382	0.614	1	repeat	Run3	repeat/STIM_000.jpg
2310.577	0.451	1	repeat	Run3	repeat/STIM_000.jpg
2313.242	0.949	1	repeat	Run3	repeat/STIM_001.jpg
2317.936	0.888	1	repeat	Run3	repeat/STIM_001.jpg
2321.06	0.868	1	repeat	Run3	repeat/STIM_001.jpg
2324.755	0.606	1	repeat	Run3	repeat/STIM_001.jpg
2329.078	1.065	1	repeat	Run3	repeat/STIM_001.jpg
2333.629	0.553	1	repeat	Run3	repeat/STIM_002.jpg
2336.38	0.637	1	repeat	Run3	repeat/STIM_002.jpg
2340.239	1.022	1	repeat	Run3	repeat/STIM_002.jpg
2343.482	0.893	1	repeat	Run3	repeat/STIM_002.jpg
2348.047	0.898	1	repeat	Run3	repeat/STIM_002.jpg
2350.918	0.874	1	repeat	Run3	repeat/STIM_003.jpg
2355.516	0.903	1	repeat	Run3	repeat/STIM_003.jpg
2358.454	0.665	1	repeat	Run3	repeat/STIM_003.jpg
2361.294	0.586	1	repeat	Run3	repeat/STIM_003.jpg
2364.431	0.651	1	repeat	Run3	repeat/STIM_003.jpg
2368.328	0.904	1	repeat	Run3	repeat/STIM_004.jpg
2371.877	0.807	1	repeat	Run3	repeat/STIM_004.jpg
2376.213	0.584	1	repeat	Run3	repeat/STIM_004.jpg
2379.923	0.704	1	repeat	Run3	repeat/STIM_004.jpg
2383.164	0.871	1	repeat	Run3	repeat/STIM_004.jpg
2387.402	0.6	1	repeat	Run3	repeat/STIM_005.jpg
2390.013	0.957	1	repeat	Run3	repeat/STIM_005.jpg
2394.377	0.795	1	repeat	Run3	repeat/STIM_005.jpg
2398.936	0.988	1	repeat	Run3	repeat/STIM_005.jpg
2403.853	0.937	1	repeat	Run3	repeat/STIM_005.jpg
2407.624	0.69	1	repeat	Run3	repeat/STIM_006.jpg
2410.556	0.874	1	repeat	Run3	repeat/STIM_006.jpg
2414.845	0.807	1	repeat	Run3	repeat/STIM_006.jpg
2419.292	0.876	1	repeat	Run3	repeat/STIM_006.jpg
2423.262	0.69	1	repeat	Run3	repeat/STIM_006.jpg
2427.706	0.612	1	repeat	Run3	repeat/STIM_007.jpg
2431.524	0.827	1	repeat	Run3	repeat/STIM_007.jpg
2434.54	0.812	1	repeat	Run3	repeat/STIM_007.jpg
2438.074	0.617	1	repeat	Run3	repeat/STIM_007.jpg
2442.157	0.729	1	repeat	Run3	repeat/STIM_007.jpg
2446.387	0.977	1	repeat	Run3	repeat/STIM_008.jpg
2450.283	0.651	1	repeat	Run3	repeat/STIM_008.jpg
2454.797	0.563	1	repeat	Run3	repeat/STIM_008.jpg
2458.157	0.725	1	repeat	Run3	repeat/STIM_008.jpg
2461.373	0.797	1	repeat	Run3	repeat/STIM_008.jpg
2465.029	0.924	1	repeat	Run3	repeat/STIM_009.jpg
2469.633	0.822	1	repeat	Run3	repeat/STIM_009.jpg
2474.167	1.01	1	repeat	Run3	repeat/STIM_009.jpg
2478.368	0.942	1	repeat	Run3	repeat/STIM_009.jpg
2482.846	0.616	1	repeat	Run3	repeat/STIM_009.jpg
2485.853	0.619	1	repeat	Run3	repeat/STIM_010.jpg
2489.912	0.631	0	repeat	Run3	repeat/STIM_010.jpg
2493.252	0.652	1	repeat	Run3	repeat/STIM_010.jpg
2496.515	0.629	1	repeat	Run3	repeat/STIM_010.jpg
2499.63	0.728	1	repeat	Run3	repeat/STIM_010.jpg
2503.13	1.054	1	repeat	Run3	repeat/STIM_011.jpg
2506.096	0.748	0	repeat	Run3	repeat/STIM_011.jpg
2510.379	0.713	1	repeat	Run3	repeat/STIM_011.jpg
2513.733	0.819	1	repeat	Run3	repeat/STIM_011.jpg
2516.705	0.675	1	repeat	Run3	repeat/STIM_011.jpg
2520.899	0.585	1	repeat	Run3	repeat/STIM_012.jpg
2524.806	0.99	1	repeat	Run3	repeat/STIM_012.jpg
2529.07	0.505	1	repeat	Run3	repeat/STIM_012.jpg
2533.269	0.788	1	repeat	Run3	repeat/STIM_012.jpg
2537.793	0.769	1	repeat	Run3	repeat/STIM_012.jpg
2541.543	0.841	1	repeat	Run3	repeat/STIM_013.jpg
2544.625	0.708	1	repeat	Run3	repeat/STIM_013.jpg
2548.438	0.68	1	repeat	Run3	repeat/STIM_013.jpg
2552.08	0.656	1	repeat	Run3	repeat/STIM_013.jpg
2555.86	1.043	1	repeat	Run3	repeat/STIM_013.jpg
2559.802	0.6	1	repeat	Run3	repeat/STIM_014.jpg
2562.69	0.691	0	repeat	Run3	repeat/STIM_014.jpg
2566.699	0.574	1	repeat	Run3	repeat/STIM_014.jpg
2571.126	0.91	1	repeat	Run3	repeat/STIM_014.jpg
2574.564	0.544	1	repeat	Run3	repeat/STIM_014.jpg
2578.192	1.45	1	generate	Run4	generate/STIM_000.jpg
2581.801	1.732	1	generate	Run4	generate/STIM_000.jpg
2585.709	2.222	1	generate	Run4	generate/STIM_000.jpg
2590.826	1.918	1	generate	Run4	generate/STIM_000.jpg
2596.153	0.956	1	generate	Run4	generate/STIM_000.jpg
2600.756	1.782	1	generate	Run4	generate/STIM_001.jpg
2606.064	1.506	0	generate	Run4	generate/STIM_001.jpg
2611.045	2.018	1	generate	Run4	generate/STIM_001.jpg
2615.891	0.935	1	generate	Run4	generate/STIM_001.jpg
2619.805	2.064	1	generate	Run4	generate/STIM_001.jpg
2624.265	1.137	1	generate	Run4	generate/STIM_002.jpg
2627.558	2.016	1	generate	Run4	generate/STIM_002.jpg
2633.375	1.368	1	generate	Run4	generate/STIM_002.jpg
2638.528	1.712	1	generate	Run4	generate/STIM_002.jpg
2642.393	1.69	1	generate	Run4	generate/STIM_002.jpg
2647.723	1.19	1	generate	Run4	generate/STIM_003.jpg
2651.188	1.078	1	generate	Run4	generate/STIM_003.jpg
2654.755	1.152	1	generate	Run4	generate/STIM_003.jpg
2658.27	1.196	1	generate	Run4	generate/STIM_003.jpg
2662.408	0.794	1	generate	Run4	generate/STIM_003.jpg
2665.975	1.716	1	generate	Run4	generate/STIM_004.jpg
2670.257	1.358	1	generate	Run4	generate/STIM_004.jpg
2675.5	1.087	1	generate	Run4	generate/STIM_004.jpg
2679.209	0.995	1	generate	Run4	generate/STIM_004.jpg
2682.971	2.166	1	generate	Run4	generate/STIM_004.jpg
2686.977	2.128	1	generate	Run4	generate/STIM_005.jpg
2691.109	1.933	1	generate	Run4	generate/STIM_005.jpg
2695.544	1.918	1	generate	Run4	generate/STIM_005.jpg
2699.589	1.698	1	generate	Run4	generate/STIM_005.jpg
2704.995	1.419	1	generate	Run4	generate/STIM_005.jpg
2709.661	1.042	1	generate	Run4	generate/STIM_006.jpg
2714.025	0.871	0	generate	Run4	generate/STIM_006.jpg
2718.397	1.212	1	generate	Run4	generate/STIM_006.jpg
2721.901	1.318	1	generate	Run4	generate/STIM_006.jpg
2725.74	1.05	1	generate	Run4	generate/STIM_006.jpg
2730.551	1.179	1	generate	Run4	generate/STIM_007.jpg
2734.474	1.972	1	generate	Run4	generate/STIM_007.jpg
2739.36	1.461	1	generate	Run4	generate/STIM_007.jpg
2744.4	1.906	1	generate	Run4	generate/STIM_007.jpg
2750.002	2.146	1	generate	Run4	generate/STIM_007.jpg
2754.558	1.919	1	generate	Run4	generate/STIM_008.jpg
2759.362	1.536	1	generate	Run4	generate/STIM_008.jpg
2763.821	2.007	1	generate	Run4	generate/STIM_008.jpg
2769.431	1.01	1	generate	Run4	generate/STIM_008.jpg
2773.956	1.214	1	generate	Run4	generate/STIM_008.jpg
2778.504	2.218	1	generate	Run4	generate/STIM_009.jpg
2783.354	1.788	1	generate	Run4	generate/STIM_009.jpg
2787.838	1.59	1	generate	Run4	generate/STIM_009.jpg
2792.848	2.016	1	generate	Run4	generate/STIM_009.jpg
2797.237	1.813	1	generate	Run4	generate/STIM_009.jpg
2801.326	1.526	0	generate	Run4	generate/STIM_010.jpg
2806.527	1.438	1	generate	Run4	generate/STIM_010.jpg
2810.696	1.79	1	generate	Run4	generate/STIM_010.jpg
2814.871	1.198	1	generate	Run4	generate/STIM_010.jpg
2818.786	1.339	1	generate	Run4	generate/STIM_010.jpg
2823.279	1.963	1	generate	Run4	generate/STIM_011.jpg
2829.007	2.043	1	generate	Run4	generate/STIM_011.jpg
2834.914	1.738	1	generate	Run4	generate/STIM_011.jpg
2839.242	1.863	1	generate	Run4	generate/STIM_011.jpg
2843.415	1.346	1	generate	Run4	generate/STIM_011.jpg
2848.523	1.26	1	generate	Run4	generate/STIM_012.jpg
2853.39	1.728	1	generate	Run4	generate/STIM_012.jpg
2857.835	0.922	1	generate	Run4	generate/STIM_012.jpg
2862.681	0.878	1	generate	Run4	generate/STIM_012.jpg
2866.267	0.961	1	generate	Run4	generate/STIM_012.jpg
2870.385	1.378	1	generate	Run4	generate/STIM_013.jpg
2875.558	2.304	1	generate	Run4	generate/STIM_013.jpg
2880.094	2.19	1	generate	Run4	generate/STIM_013.jpg
2886.135	1.65	1	generate	Run4	generate/STIM_013.jpg
2890.458	1.443	1	generate	Run4	generate/STIM_013.jpg
2895.594	1.909	0	generate	Run4	generate/STIM_014.jpg
2899.604	1.224	1	generate	Run4	generate/STIM_014.jpg
2903.941	0.875	1	generate	Run4	generate/STIM_014.jpg
2906.946	1.657	1	generate	Run4	generate/STIM_014.jpg
2911.822	1.207	1	generate	Run4	generate/STIM_014.jpg
2915.241	1.128	1	generate	Run4	generate/STIM_015.jpg
2919.797	1.575	1	generate	Run4	generate/STIM_015.jpg
2924.697	1.855	1	generate	Run4	generate/STIM_015.jpg
2928.9	2.056	1	generate	Run4	generate/STIM_015.jpg
2932.891	1.712	1	generate	Run4	generate/STIM_015.jpg
2937.174	1.016	1	generate	Run4	generate/STIM_016.jpg
2941.246	1.645	1	generate	Run4	generate/STIM_016.jpg
2944.851	1.295	1	generate	Run4	generate/STIM_016.jpg
2949.296	1.741	1	generate	Run4	generate/STIM_016.jpg
2954.255	1.705	1	generate	Run4	generate/STIM_016.jpg
2959.286	1.523	1	generate	Run4	generate/STIM_017.jpg
2963.332	2.104	1	generate	Run4	generate/STIM_017.jpg
2967.802	1.444	1	generate	Run4	generate/STIM_017.jpg
2971.936	1.397	1	generate	Run4	generate/STIM_017.jpg
2976.173	1.564	1	generate	Run4	generate/STIM_017.jpg
2981.219	1.993	1	generate	Run4	generate/STIM_018.jpg
2986.11	1.654	1	generate	Run4	generate/STIM_018.jpg
2991.473	1.76	1	generate	Run4	generate/STIM_018.jpg
2997.052	1.88	1	generate	Run4	generate/STIM_018.jpg
3002.45	1.568	1	generate	Run4	generate/STIM_018.jpg
3007.583	1.106	1	generate	Run4	generate/STIM_019.jpg
3011.847	1.888	1	generate	Run4	generate/STIM_019.jpg
3017.583	1.172	1	generate	Run4	generate/STIM_019.jpg
3021.107	1.021	1	generate	Run4	generate/STIM_019.jpg
3025.89	1.122	1	generate	Run4	generate/STIM_019.jpg
3029.249	2.029	1	generate	Run4	generate/STIM_020.jpg
3034.798	2.187	1	generate	Run4	generate/STIM_020.jpg
3039.07	1.992	1	generate	Run4	generate/STIM_020.jpg
3044.003	1.198	1	generate	Run4	generate/STIM_020.jpg
3048.899	1.679	1	generate	Run4	generate/STIM_020.jpg
3052.564	1.292	1	generate	Run4	generate/STIM_021.jpg
3057.503	1.596	1	generate	Run4	generate/STIM_021.jpg
3062.854	1.724	1	generate	Run4	generate/STIM_021.jpg
3068.345	1.126	1	generate	Run4	generate/STIM_021.jpg
3072.487	1.122	1	generate	Run4	generate/STIM_021.jpg
3077.544	0.974	1	generate	Run4	generate/STIM_022.jpg
3081.881	0.926	1	generate	Run4	generate/STIM_022.jpg
3085.533	1.545	1	generate	Run4	generate/STIM_022.jpg
3089.692	1.182	1	generate	Run4	generate/STIM_022.jpg
3092.976	2.278	1	generate	Run4	generate/STIM_022.jpg
3097.239	1.445	1	generate	Run4	generate/STIM_023.jpg
3102.074	1.644	1	generate	Run4	generate/STIM_023.jpg
3106.756	1.646	1	generate	Run4	generate/STIM_023.jpg
3110.757	0.905	1	generate	Run4	generate/STIM_023.jpg
3115.67	1.83	1	generate	Run4	generate/STIM_023.jpg
3119.897	1.177	1	generate	Run4	generate/STIM_024.jpg
3124.576	1.902	1	generate	Run4	generate/STIM_024.jpg
3128.825	2.179	1	generate	Run4	generate/STIM_024.jpg
3133.969	2.16	1	generate	Run4	generate/STIM_024.jpg
3139.726	1.591	1	generate	Run4	generate/STIM_024.jpg
3143.581	1.049	1	repeat	Run4	repeat/STIM_000.jpg
3146.652	0.925	1	repeat	Run4	repeat/STIM_000.jpg
3149.831	0.91	1	repeat	Run4	repeat/STIM_000.jpg
3153.175	0.84	1	repeat	Run4	repeat/STIM_000.jpg
3157.492	0.982	1	repeat	Run4	repeat/STIM_000.jpg
3160.521	0.781	1	repeat	Run4	repeat/STIM_001.jpg
3164.485	0.834	1	repeat	Run4	repeat/STIM_001.jpg
3169.161	1.03	0	repeat	Run4	repeat/STIM_001.jpg
3173.286	0.808	1	repeat	Run4	repeat/STIM_001.jpg
3178.011	1.096	1	repeat	Run4	repeat/STIM_001.jpg
3182.906	0.746	1	repeat	Run4	repeat/STIM_002.jpg
3185.597	0.944	1	repeat	Run4	repeat/STIM_002.jpg
3189.885	0.905	1	repeat	Run4	repeat/STIM_002.jpg
3193.094	0.628	1	repeat	Run4	repeat/STIM_002.jpg
3197.647	0.807	1	repeat	Run4	repeat/STIM_002.jpg
3200.57	0.713	1	repeat	Run4	repeat/STIM_003.jpg
3204.18	0.884	1	repeat	Run4	repeat/STIM_003.jpg
3207.712	0.861	0	repeat	Run4	repeat/STIM_003.jpg
3211.527	0.917	1	repeat	Run4	repeat/STIM_003.jpg
3215.255	1.09	0	repeat	Run4	repeat/STIM_003.jpg
3218.786	0.511	1	repeat	Run4	repeat/STIM_004.jpg
3221.475	0.988	1	repeat	Run4	repeat/STIM_004.jpg
3225.057	0.728	1	repeat	Run4	repeat/STIM_004.jpg
3229.549	0.64	1	repeat	Run4	repeat/STIM_004.jpg
3232.483	0.818	1	repeat	Run4	repeat/STIM_004.jpg
3236.127	0.937	1	repeat	Run4	repeat/STIM_005.jpg
3240.201	0.976	1	repeat	Run4	repeat/STIM_005.jpg
3244.365	0.946	1	repeat	Run4	repeat/STIM_005.jpg
3248.219	0.828	1	repeat	Run4	repeat/STIM_005.jpg
3251.851	0.698	1	repeat	Run4	repeat/STIM_005.jpg
3254.862	0.969	1	repeat	Run4	repeat/STIM_006.jpg
3259.802	0.711	1	repeat	Run4	repeat/STIM_006.jpg
3263.152	0.739	1	repeat	Run4	repeat/STIM_006.jpg
3267.291	0.9	1	repeat	Run4	repeat/STIM_006.jpg
3270.162	0.981	1	repeat	Run4	repeat/STIM_006.jpg
3274.451	0.945	1	repeat	Run4	repeat/STIM_007.jpg
3279.041	0.91	1	repeat	Run4	repeat/STIM_007.jpg
3283.395	0.608	1	repeat	Run4	repeat/STIM_007.jpg
3286.381	0.707	1	repeat	Run4	repeat/STIM_007.jpg
3290.862	0.598	1	repeat	Run4	repeat/STIM_007.jpg
3293.833	1.061	1	repeat	Run4	repeat/STIM_008.jpg
3298.496	0.661	1	repeat	Run4	repeat/STIM_008.jpg
3301.268	0.52	1	repeat	Run4	repeat/STIM_008.jpg
3305.619	0.612	1	repeat	Run4	repeat/STIM_008.jpg
3309.637	0.537	1	repeat	Run4	repeat/STIM_008.jpg
3312.442	0.738	1	repeat	Run4	repeat/STIM_009.jpg
3316.412	0.634	1	repeat	Run4	repeat/STIM_009.jpg
3319.65	0.524	1	repeat	Run4	repeat/STIM_009.jpg
3322.69	0.428	1	repeat	Run4	repeat/STIM_009.jpg
3326.795	0.706	1	repeat	Run4	repeat/STIM_009.jpg
3330.52	0.641	1	repeat	Run4	repeat/STIM_010.jpg
3333.663	0.927	1	repeat	Run4	repeat/STIM_010.jpg
3338.464	0.943	1	repeat	Run4	repeat/STIM_010.jpg
3341.978	0.923	1	repeat	Run4	repeat/STIM_010.jpg
3346.035	0.711	1	repeat	Run4	repeat/STIM_010.jpg
3350.268	0.869	0	repeat	Run4	repeat/STIM_011.jpg
3353.72	0.669	1	repeat	Run4	repeat/STIM_011.jpg
3356.828	0.64	1	repeat	Run4	repeat/STIM_011.jpg
3361.375	0.85	1	repeat	Run4	repeat/STIM_011.jpg
3364.79	0.973	1	repeat	Run4	repeat/STIM_011.jpg
3368.33	0.983	1	repeat	Run4	repeat/STIM_012.jpg
3371.569	0.755	1	repeat	Run4	repeat/STIM_012.jpg
3375.377	0.784	1	repeat	Run4	repeat/STIM_012.jpg
3378.942	1.021	1	repeat	Run4	repeat/STIM_012.jpg
3383.23	0.892	1	repeat	Run4	repeat/STIM_012.jpg
3387.982	0.987	1	repeat	Run4	repeat/STIM_013.jpg
3392.137	0.967	1	repeat	Run4	repeat/STIM_013.jpg
3396.267	0.913	1	repeat	Run4	repeat/STIM_013.jpg
3399.769	0.767	1	repeat	Run4	repeat/STIM_013.jpg
3403.092	0.648	1	repeat	Run4	repeat/STIM_013.jpg
3406.126	0.714	1	repeat	Run4	repeat/STIM_014.jpg
3408.943	0.611	1	repeat	Run4	repeat/STIM_014.jpg
3413.455	0.732	1	repeat	Run4	repeat/STIM_014.jpg
3417.202	0.762	1	repeat	Run4	repeat/STIM_014.jpg
3420.128	0.696	1	repeat	Run4	repeat/STIM_014.jpg
