onset	duration	accuracy	trial_type	learning_stage	stimulus
0.0	3.604	incorrect	navigation	Trial1	navigation/STIM_000.jpg
7.092	5.2	correct	navigation	Trial1	navigation/STIM_000.jpg
16.115	3.058	correct	navigation	Trial1	navigation/STIM_000.jpg
21.342	3.84	correct	navigation	Trial1	navigation/STIM_000.jpg
28.696	3.08	correct	navigation	Trial1	navigation/STIM_000.jpg
34.491	1.807	correct	navigation	Trial1	navigation/STIM_000.jpg
38.549	2.601	correct	navigation	Trial1	navigation/STIM_001.jpg
44.682	2.842	incorrect	navigation	Trial1	navigation/STIM_001.jpg
50.349	3.859	correct	navigation	Trial1	navigation/STIM_001.jpg
57.216	4.587	correct	navigation	Trial1	navigation/STIM_001.jpg
64.239	2.372	incorrect	navigation	Trial1	navigation/STIM_001.jpg
69.836	3.954	incorrect	navigation	Trial1	navigation/STIM_001.jpg
77.227	4.538	correct	navigation	Trial1	navigation/STIM_002.jpg
84.39	3.299	incorrect	navigation	Trial1	navigation/STIM_002.jpg
90.728	2.363	incorrect	navigation	Trial1	navigation/STIM_002.jpg
95.508	2.442	incorrect	navigation	Trial1	navigation/STIM_002.jpg
100.781	4.478	correct	navigation	Trial1	navigation/STIM_002.jpg
108.122	3.324	incorrect	navigation	Trial1	navigation/STIM_002.jpg
114.272	4.737	incorrect	navigation	Trial1	navigation/STIM_003.jpg
122.154	3.427	correct	navigation	Trial1	navigation/STIM_003.jpg
129.124	2.89	incorrect	navigation	Trial1	navigation/STIM_003.jpg
135.018	2.864	correct	navigation	Trial1	navigation/STIM_003.jpg
140.341	2.032	incorrect	navigation	Trial1	navigation/STIM_003.jpg
145.022	2.954	incorrect	navigation	Trial1	navigation/STIM_003.jpg
150.737	4.689	incorrect	navigation	Trial1	navigation/STIM_004.jpg
157.554	3.993	incorrect	navigation	Trial1	navigation/STIM_004.jpg
164.281	4.552	incorrect	navigation	Trial1	navigation/STIM_004.jpg
172.663	2.886	incorrect	navigation	Trial1	navigation/STIM_004.jpg
178.801	2.272	correct	navigation	Trial1	navigation/STIM_004.jpg
184.101	2.723	correct	navigation	Trial1	navigation/STIM_004.jpg
188.94	5.22	correct	navigation	Trial1	navigation/STIM_005.jpg
196.298	4.125	correct	navigation	Trial1	navigation/STIM_005.jpg
203.704	4.884	incorrect	navigation	Trial1	navigation/STIM_005.jpg
211.792	2.352	correct	navigation	Trial1	navigation/STIM_005.jpg
216.463	2.89	incorrect	navigation	Trial1	navigation/STIM_005.jpg
221.417	3.553	correct	navigation	Trial1	navigation/STIM_005.jpg
227.8	2.941	correct	navigation	Trial1	navigation/STIM_006.jpg
233.167	5.382	correct	navigation	Trial1	navigation/STIM_006.jpg
242.208	2.052	correct	navigation	Trial1	navigation/STIM_006.jpg
246.45	3.133	correct	navigation	Trial1	navigation/STIM_006.jpg
252.811	2.588	incorrect	navigation	Trial1	navigation/STIM_006.jpg
258.257	2.993	correct	navigation	Trial1	navigation/STIM_006.jpg
264.959	2.81	incorrect	navigation	Trial1	navigation/STIM_007.jpg
269.796	3.397	incorrect	navigation	Trial1	navigation/STIM_007.jpg
275.486	2.539	incorrect	navigation	Trial1	navigation/STIM_007.jpg
280.729	4.15	incorrect	navigation	Trial1	navigation/STIM_007.jpg
287.665	2.921	correct	navigation	Trial1	navigation/STIM_007.jpg
293.571	4.227	correct	navigation	Trial1	navigation/STIM_007.jpg
299.798	4.092	incorrect	navigation	Trial1	navigation/STIM_008.jpg
306.807	2.979	correct	navigation	Trial1	navigation/STIM_008.jpg
313.117	3.045	correct	navigation	Trial1	navigation/STIM_008.jpg
319.765	1.939	correct	navigation	Trial1	navigation/STIM_008.jpg
324.477	3.137	correct	navigation	Trial1	navigation/STIM_008.jpg
330.2	2.853	incorrect	navigation	Trial1	navigation/STIM_008.jpg
336.584	3.082	incorrect	navigation	Trial1	navigation/STIM_009.jpg
341.686	3.72	incorrect	navigation	Trial1	navigation/STIM_009.jpg
348.833	4.526	correct	navigation	Trial1	navigation/STIM_009.jpg
357.276	3.749	incorrect	navigation	Trial1	navigation/STIM_009.jpg
363.568	3.969	correct	navigation	Trial1	navigation/STIM_009.jpg
371.142	3.32	correct	navigation	Trial1	navigation/STIM_009.jpg
376.982	2.691	correct	navigation	Trial1	navigation/STIM_010.jpg
381.705	3.855	incorrect	navigation	Trial1	navigation/STIM_010.jpg
388.833	2.17	incorrect	navigation	Trial1	navigation/STIM_010.jpg
394.433	3.673	incorrect	navigation	Trial1	navigation/STIM_010.jpg
400.539	3.014	correct	navigation	Trial1	navigation/STIM_010.jpg
406.74	3.02	incorrect	navigation	Trial1	navigation/STIM_010.jpg
412.249	4.123	correct	navigation	Trial1	navigation/STIM_011.jpg
419.335	4.164	incorrect	navigation	Trial1	navigation/STIM_011.jpg
425.667	2.182	correct	navigation	Trial1	navigation/STIM_011.jpg
430.223	3.515	incorrect	navigation	Trial1	navigation/STIM_011.jpg
437.059	3.669	correct	navigation	Trial1	navigation/STIM_011.jpg
444.193	2.107	incorrect	navigation	Trial1	navigation/STIM_011.jpg
448.963	1.454	correct	pointing	Trial1	pointing/STIM_000.jpg
452.934	1.51	correct	pointing	Trial1	pointing/STIM_000.jpg
457.02	1.144	correct	pointing	Trial1	pointing/STIM_000.jpg
461.102	1.672	correct	pointing	Trial1	pointing/STIM_000.jpg
466.637	1.419	correct	pointing	Trial1	pointing/STIM_000.jpg
471.831	0.953	correct	pointing	Trial1	pointing/STIM_000.jpg
476.559	1.052	correct	pointing	Trial1	pointing/STIM_001.jpg
480.834	1.226	correct	pointing	Trial1	pointing/STIM_001.jpg
484.824	1.277	correct	pointing	Trial1	pointing/STIM_001.jpg
489.55	0.991	correct	pointing	Trial1	pointing/STIM_001.jpg
493.384	1.548	correct	pointing	Trial1	pointing/STIM_001.jpg
497.591	0.97	correct	pointing	Trial1	pointing/STIM_001.jpg
502.262	1.404	incorrect	pointing	Trial1	pointing/STIM_002.jpg
506.016	1.256	correct	pointing	Trial1	pointing/STIM_002.jpg
509.506	1.103	incorrect	pointing	Trial1	pointing/STIM_002.jpg
513.766	1.232	incorrect	pointing	Trial1	pointing/STIM_002.jpg
517.017	0.99	correct	pointing	Trial1	pointing/STIM_002.jpg
521.544	1.152	correct	pointing	Trial1	pointing/STIM_002.jpg
526.589	1.487	correct	pointing	Trial1	pointing/STIM_003.jpg
531.541	1.128	correct	pointing	Trial1	pointing/STIM_003.jpg
535.66	1.149	correct	pointing	Trial1	pointing/STIM_003.jpg
539.783	1.29	correct	pointing	Trial1	pointing/STIM_003.jpg
544.461	1.607	correct	pointing	Trial1	pointing/STIM_003.jpg
549.545	0.954	correct	pointing	Trial1	pointing/STIM_003.jpg
552.811	1.192	incorrect	pointing	Trial1	pointing/STIM_004.jpg
557.673	0.919	correct	pointing	Trial1	pointing/STIM_004.jpg
561.861	0.946	correct	pointing	Trial1	pointing/STIM_004.jpg
566.046	0.945	correct	pointing	Trial1	pointing/STIM_004.jpg
569.021	1.037	correct	pointing	Trial1	pointing/STIM_004.jpg
572.483	1.474	correct	pointing	Trial1	pointing/STIM_004.jpg
576.26	1.697	correct	pointing	Trial1	pointing/STIM_005.jpg
580.627	1.682	correct	pointing	Trial1	pointing/STIM_005.jpg
586.173	1.645	correct	pointing	Trial1	pointing/STIM_005.jpg
590.358	0.955	correct	pointing	Trial1	pointing/STIM_005.jpg
594.842	1.353	correct	pointing	Trial1	pointing/STIM_005.jpg
599.831	1.54	correct	pointing	Trial1	pointing/STIM_005.jpg
604.424	1.576	correct	pointing	Trial1	pointing/STIM_006.jpg
608.713	1.682	correct	pointing	Trial1	pointing/STIM_006.jpg
613.97	1.352	incorrect	pointing	Trial1	pointing/STIM_006.jpg
617.356	1.497	correct	pointing	Trial1	pointing/STIM_006.jpg
621.648	1.208	incorrect	pointing	Trial1	pointing/STIM_006.jpg
626.347	1.11	incorrect	pointing	Trial1	pointing/STIM_006.jpg
629.668	1.22	correct	pointing	Trial1	pointing/STIM_007.jpg
634.229	1.132	correct	pointing	Trial1	pointing/STIM_007.jpg
639.319	1.009	incorrect	pointing	Trial1	pointing/STIM_007.jpg
643.281	1.349	correct	pointing	Trial1	pointing/STIM_007.jpg
647.891	1.26	correct	pointing	Trial1	pointing/STIM_007.jpg
653.011	1.281	incorrect	pointing	Trial1	pointing/STIM_007.jpg
656.994	1.646	incorrect	pointing	Trial1	pointing/STIM_008.jpg
661.679	1.563	incorrect	pointing	Trial1	pointing/STIM_008.jpg
665.435	1.61	incorrect	pointing	Trial1	pointing/STIM_008.jpg
670.5	1.474	correct	pointing	Trial1	pointing/STIM_008.jpg
673.989	1.547	correct	pointing	Trial1	pointing/STIM_008.jpg
679.049	1.07	correct	pointing	Trial1	pointing/STIM_008.jpg
682.526	1.25	incorrect	pointing	Trial1	pointing/STIM_009.jpg
687.359	1.36	correct	pointing	Trial1	pointing/STIM_009.jpg
690.738	1.565	correct	pointing	Trial1	pointing/STIM_009.jpg
694.81	1.008	correct	pointing	Trial1	pointing/STIM_009.jpg
698.291	1.52	incorrect	pointing	Trial1	pointing/STIM_009.jpg
702.001	1.232	incorrect	pointing	Trial1	pointing/STIM_009.jpg
706.185	1.309	incorrect	pointing	Trial1	pointing/STIM_010.jpg
710.568	1.583	correct	pointing	Trial1	pointing/STIM_010.jpg
715.262	1.151	correct	pointing	Trial1	pointing/STIM_010.jpg
718.572	1.589	correct	pointing	Trial1	pointing/STIM_010.jpg
723.106	1.205	correct	pointing	Trial1	pointing/STIM_010.jpg
727.582	1.474	incorrect	pointing	Trial1	pointing/STIM_010.jpg
732.816	0.948	correct	pointing	Trial1	pointing/STIM_011.jpg
736.066	1.104	correct	pointing	Trial1	pointing/STIM_011.jpg
739.231	0.931	correct	pointing	Trial1	pointing/STIM_011.jpg
742.637	1.067	correct	pointing	Trial1	pointing/STIM_011.jpg
746.985	1.045	correct	pointing	Trial1	pointing/STIM_011.jpg
751.467	1.518	correct	pointing	Trial1	pointing/STIM_011.jpg
755.176	3.301	correct	navigation	Trial2	navigation/STIM_000.jpg
762.417	4.556	incorrect	navigation	Trial2	navigation/STIM_000.jpg
769.846	2.694	incorrect	navigation	Trial2	navigation/STIM_000.jpg
775.697	3.432	correct	navigation	Trial2	navigation/STIM_000.jpg
781.747	3.295	correct	navigation	Trial2	navigation/STIM_000.jpg
787.272	2.571	correct	navigation	Trial2	navigation/STIM_000.jpg
793.29	4.664	incorrect	navigation	Trial2	navigation/STIM_001.jpg
800.422	3.135	correct	navigation	Trial2	navigation/STIM_001.jpg
805.93	2.208	incorrect	navigation	Trial2	navigation/STIM_001.jpg
811.38	3.207	incorrect	navigation	Trial2	navigation/STIM_001.jpg
817.771	3.48	incorrect	navigation	Trial2	navigation/STIM_001.jpg
823.258	3.235	correct	navigation	Trial2	navigation/STIM_001.jpg
829.407	4.747	incorrect	navigation	Trial2	navigation/STIM_002.jpg
837.11	3.33	correct	navigation	Trial2	navigation/STIM_002.jpg
843.448	2.411	incorrect	navigation	Trial2	navigation/STIM_002.jpg
849.456	2.695	incorrect	navigation	Trial2	navigation/STIM_002.jpg
854.578	2.996	incorrect	navigation	Trial2	navigation/STIM_002.jpg
859.736	1.923	correct	navigation	Trial2	navigation/STIM_002.jpg
864.374	4.667	incorrect	navigation	Trial2	navigation/STIM_003.jpg
871.491	2.55	correct	navigation	Trial2	navigation/STIM_003.jpg
877.972	2.95	incorrect	navigation	Trial2	navigation/STIM_003.jpg
884.807	3.176	correct	navigation	Trial2	navigation/STIM_003.jpg
890.776	3.584	correct	navigation	Trial2	navigation/STIM_003.jpg
897.104	2.922	incorrect	navigation	Trial2	navigation/STIM_003.jpg
902.385	3.863	incorrect	navigation	Trial2	navigation/STIM_004.jpg
908.626	3.916	correct	navigation	Trial2	navigation/STIM_004.jpg
915.289	2.959	incorrect	navigation	Trial2	navigation/STIM_004.jpg
920.278	3.365	incorrect	navigation	Trial2	navigation/STIM_004.jpg
926.891	3.245	incorrect	navigation	Trial2	navigation/STIM_004.jpg
932.444	3.008	correct	navigation	Trial2	navigation/STIM_004.jpg
938.961	3.378	correct	navigation	Trial2	navigation/STIM_005.jpg
944.789	2.769	incorrect	navigation	Trial2	navigation/STIM_005.jpg
949.991	3.564	incorrect	navigation	Trial2	navigation/STIM_005.jpg
956.363	1.856	correct	navigation	Trial2	navigation/STIM_005.jpg
960.784	1.984	incorrect	navigation	Trial2	navigation/STIM_005.jpg
966.072	1.843	incorrect	navigation	Trial2	navigation/STIM_005.jpg
970.653	3.728	correct	navigation	Trial2	navigation/STIM_006.jpg
978.082	3.797	correct	navigation	Trial2	navigation/STIM_006.jpg
984.299	3.881	correct	navigation	Trial2	navigation/STIM_006.jpg
990.399	2.292	correct	navigation	Trial2	navigation/STIM_006.jpg
995.955	3.358	correct	navigation	Trial2	navigation/STIM_006.jpg
1001.981	3.696	correct	navigation	Trial2	navigation/STIM_006.jpg
1009.367	3.671	correct	navigation	Trial2	navigation/STIM_007.jpg
1015.292	3.538	incorrect	navigation	Trial2	navigation/STIM_007.jpg
1021.835	4.212	incorrect	navigation	Trial2	navigation/STIM_007.jpg
1029.583	3.964	correct	navigation	Trial2	navigation/STIM_007.jpg
1036.252	1.958	correct	navigation	Trial2	navigation/STIM_007.jpg
1041.959	1.599	correct	navigation	Trial2	navigation/STIM_007.jpg
1046.854	3.776	correct	navigation	Trial2	navigation/STIM_008.jpg
1053.22	2.571	incorrect	navigation	Trial2	navigation/STIM_008.jpg
1058.194	1.896	correct	navigation	Trial2	navigation/STIM_008.jpg
1063.856	3.223	correct	navigation	Trial2	navigation/STIM_008.jpg
1069.289	1.618	correct	navigation	Trial2	navigation/STIM_008.jpg
1074.595	2.547	correct	navigation	Trial2	navigation/STIM_008.jpg
1079.689	3.972	correct	navigation	Trial2	navigation/STIM_009.jpg
1087.257	4.24	incorrect	navigation	Trial2	navigation/STIM_009.jpg
1093.675	1.954	incorrect	navigation	Trial2	navigation/STIM_009.jpg
1099.584	1.877	incorrect	navigation	Trial2	navigation/STIM_009.jpg
1103.797	3.636	correct	navigation	Trial2	navigation/STIM_009.jpg
1110.622	2.278	incorrect	navigation	Trial2	navigation/STIM_009.jpg
1116.715	1.951	correct	navigation	Trial2	navigation/STIM_010.jpg
1122.163	4.209	incorrect	navigation	Trial2	navigation/STIM_010.jpg
1129.237	3.98	incorrect	navigation	Trial2	navigation/STIM_010.jpg
1136.813	3.212	incorrect	navigation	Trial2	navigation/STIM_010.jpg
1142.097	2.84	incorrect	navigation	Trial2	navigation/STIM_010.jpg
1148.439	3.412	correct	navigation	Trial2	navigation/STIM_010.jpg
1155.183	3.06	incorrect	navigation	Trial2	navigation/STIM_011.jpg
1161.848	4.105	incorrect	navigation	Trial2	navigation/STIM_011.jpg
1168.554	3.986	incorrect	navigation	Trial2	navigation/STIM_011.jpg
1176.082	3.388	correct	navigation	Trial2	navigation/STIM_011.jpg
1183.051	1.655	correct	navigation	Trial2	navigation/STIM_011.jpg
1188.502	3.219	correct	navigation	Trial2	navigation/STIM_011.jpg
1193.85	1.538	correct	pointing	Trial2	pointing/STIM_000.jpg
1198.341	1.338	correct	pointing	Trial2	pointing/STIM_000.jpg
1201.689	1.696	incorrect	pointing	Trial2	pointing/STIM_000.jpg
1206.247	1.02	correct	pointing	Trial2	pointing/STIM_000.jpg
1210.56	1.429	correct	pointing	Trial2	pointing/STIM_000.jpg
1215.025	0.976	incorrect	pointing	Trial2	pointing/STIM_000.jpg
1219.325	1.486	correct	pointing	Trial2	pointing/STIM_001.jpg
1222.953	1.707	correct	pointing	Trial2	pointing/STIM_001.jpg
1228.067	1.211	correct	pointing	Trial2	pointing/STIM_001.jpg
1231.725	1.65	correct	pointing	Trial2	pointing/STIM_001.jpg
1236.175	1.217	correct	pointing	Trial2	pointing/STIM_001.jpg
1239.651	0.913	incorrect	pointing	Trial2	pointing/STIM_001.jpg
1244.539	1.018	incorrect	pointing	Trial2	pointing/STIM_002.jpg
1248.731	1.227	correct	pointing	Trial2	pointing/STIM_002.jpg
1252.288	1.022	correct	pointing	Trial2	pointing/STIM_002.jpg
1256.027	1.447	correct	pointing	Trial2	pointing/STIM_002.jpg
1259.912	0.929	correct	pointing	Trial2	pointing/STIM_002.jpg
1264.043	1.384	correct	pointing	Trial2	pointing/STIM_002.jpg
1269.294	1.234	incorrect	pointing	Trial2	pointing/STIM_003.jpg
1272.956	1.689	incorrect	pointing	Trial2	pointing/STIM_003.jpg
1277.486	1.375	correct	pointing	Trial2	pointing/STIM_003.jpg
1281.369	1.526	correct	pointing	Trial2	pointing/STIM_003.jpg
1286.522	1.1	correct	pointing	Trial2	pointing/STIM_003.jpg
1290.814	1.326	correct	pointing	Trial2	pointing/STIM_003.jpg
1294.667	1.67	incorrect	pointing	Trial2	pointing/STIM_004.jpg
1299.03	1.098	correct	pointing	Trial2	pointing/STIM_004.jpg
1303.392	1.319	correct	pointing	Trial2	pointing/STIM_004.jpg
1308.068	1.447	correct	pointing	Trial2	pointing/STIM_004.jpg
1312.429	1.243	correct	pointing	Trial2	pointing/STIM_004.jpg
1317.247	1.395	correct	pointing	Trial2	pointing/STIM_004.jpg
1321.79	1.434	correct	pointing	Trial2	pointing/STIM_005.jpg
1326.416	1.623	correct	pointing	Trial2	pointing/STIM_005.jpg
1330.216	1.638	correct	pointing	Trial2	pointing/STIM_005.jpg
1334.846	1.331	incorrect	pointing	Trial2	pointing/STIM_005.jpg
1338.918	1.33	correct	pointing	Trial2	pointing/STIM_005.jpg
1342.818	1.614	correct	pointing	Trial2	pointing/STIM_005.jpg
1348.224	1.314	correct	pointing	Trial2	pointing/STIM_006.jpg
1351.794	1.612	correct	pointing	Trial2	pointing/STIM_006.jpg
1356.824	1.374	correct	pointing	Trial2	pointing/STIM_006.jpg
1361.66	1.588	incorrect	pointing	Trial2	pointing/STIM_006.jpg
1365.495	1.503	correct	pointing	Trial2	pointing/STIM_006.jpg
1369.236	1.482	incorrect	pointing	Trial2	pointing/STIM_006.jpg
1373.24	1.45	incorrect	pointing	Trial2	pointing/STIM_007.jpg
1377.969	1.462	incorrect	pointing	Trial2	pointing/STIM_007.jpg
1382.275	1.318	incorrect	pointing	Trial2	pointing/STIM_007.jpg
1385.65	0.99	correct	pointing	Trial2	pointing/STIM_007.jpg
1389.858	1.297	correct	pointing	Trial2	pointing/STIM_007.jpg
1394.192	1.123	correct	pointing	Trial2	pointing/STIM_007.jpg
1398.706	1.034	correct	pointing	Trial2	pointing/STIM_008.jpg
1401.987	1.02	correct	pointing	Trial2	pointing/STIM_008.jpg
1405.769	1.387	correct	pointing	Trial2	pointing/STIM_008.jpg
1410.361	1.157	correct	pointing	Trial2	pointing/STIM_008.jpg
1414.044	1.008	correct	pointing	Trial2	pointing/STIM_008.jpg
1419.031	1.184	correct	pointing	Trial2	pointing/STIM_008.jpg
1423.912	1.145	correct	pointing	Trial2	pointing/STIM_009.jpg
1429.01	0.938	correct	pointing	Trial2	pointing/STIM_009.jpg
1432.368	0.92	incorrect	pointing	Trial2	pointing/STIM_009.jpg
1435.333	1.119	correct	pointing	Trial2	pointing/STIM_009.jpg
1440.151	1.412	incorrect	pointing	Trial2	pointing/STIM_009.jpg
1445.264	1.407	correct	pointing	Trial2	pointing/STIM_009.jpg
1449.019	1.555	correct	pointing	Trial2	pointing/STIM_010.jpg
1454.523	1.158	correct	pointing	Trial2	pointing/STIM_010.jpg
1458.774	1.039	correct	pointing	Trial2	pointing/STIM_010.jpg
1462.814	0.96	correct	pointing	Trial2	pointing/STIM_010.jpg
1467.572	1.138	correct	pointing	Trial2	pointing/STIM_010.jpg
1471.473	1.151	incorrect	pointing	Trial2	pointing/STIM_010.jpg
1476.045	1.531	correct	pointing	Trial2	pointing/STIM_011.jpg
1479.618	1.291	incorrect	pointing	Trial2	pointing/STIM_011.jpg
1484.753	0.937	correct	pointing	Trial2	pointing/STIM_011.jpg
1489.363	1.482	correct	pointing	Trial2	pointing/STIM_011.jpg
1494.539	1.172	correct	pointing	Trial2	pointing/STIM_011.jpg
1499.445	0.994	incorrect	pointing	Trial2	pointing/STIM_011.jpg
1502.712	3.102	incorrect	navigation	Trial3	navigation/STIM_000.jpg
1508.777	2.874	correct	navigation	Trial3	navigation/STIM_000.jpg
1514.261	1.978	correct	navigation	Trial3	navigation/STIM_000.jpg
1518.742	3.701	correct	navigation	Trial3	navigation/STIM_000.jpg
1525.36	1.941	correct	navigation	Trial3	navigation/STIM_000.jpg
1531.165	3.386	correct	navigation	Trial3	navigation/STIM_000.jpg
1537.779	2.507	correct	navigation	Trial3	navigation/STIM_001.jpg
1544.152	2.611	incorrect	navigation	Trial3	navigation/STIM_001.jpg
1550.725	1.746	correct	navigation	Trial3	navigation/STIM_001.jpg
1556.408	3.402	correct	navigation	Trial3	navigation/STIM_001.jpg
1562.922	1.885	incorrect	navigation	Trial3	navigation/STIM_001.jpg
1568.522	2.116	correct	navigation	Trial3	navigation/STIM_001.jpg
1574.404	3.506	incorrect	navigation	Trial3	navigation/STIM_002.jpg
1581.831	2.087	correct	navigation	Trial3	navigation/STIM_002.jpg
1586.017	2.961	correct	navigation	Trial3	navigation/STIM_002.jpg
1592.803	3.522	incorrect	navigation	Trial3	navigation/STIM_002.jpg
1599.231	2.55	correct	navigation	Trial3	navigation/STIM_002.jpg
1605.307	2.741	incorrect	navigation	Trial3	navigation/STIM_002.jpg
1612.028	1.621	correct	navigation	Trial3	navigation/STIM_003.jpg
1616.307	1.965	incorrect	navigation	Trial3	navigation/STIM_003.jpg
1621.541	2.754	correct	navigation	Trial3	navigation/STIM_003.jpg
1628.039	2.195	correct	navigation	Trial3	navigation/STIM_003.jpg
1633.969	2.174	correct	navigation	Trial3	navigation/STIM_003.jpg
1638.98	2.452	correct	navigation	Trial3	navigation/STIM_003.jpg
1644.642	3.428	correct	navigation	Trial3	navigation/STIM_004.jpg
1651.157	3.119	correct	navigation	Trial3	navigation/STIM_004.jpg
1656.389	2.156	correct	navigation	Trial3	navigation/STIM_004.jpg
1660.835	2.528	correct	navigation	Trial3	navigation/STIM_004.jpg
1666.557	3.131	correct	navigation	Trial3	navigation/STIM_004.jpg
1672.055	3.166	correct	navigation	Trial3	navigation/STIM_004.jpg
1678.417	2.825	correct	navigation	Trial3	navigation/STIM_005.jpg
1685.002	1.801	correct	navigation	Trial3	navigation/STIM_005.jpg
1689.357	2.161	correct	navigation	Trial3	navigation/STIM_005.jpg
1695.102	1.768	correct	navigation	Trial3	navigation/STIM_005.jpg
1700.853	2.199	correct	navigation	Trial3	navigation/STIM_005.jpg
1705.615	2.162	incorrect	navigation	Trial3	navigation/STIM_005.jpg
1710.191	2.734	correct	navigation	Trial3	navigation/STIM_006.jpg
1715.044	3.084	correct	navigation	Trial3	navigation/STIM_006.jpg
1721.443	3.871	correct	navigation	Trial3	navigation/STIM_006.jpg
1727.518	2.027	correct	navigation	Trial3	navigation/STIM_006.jpg
1732.445	3.788	incorrect	navigation	Trial3	navigation/STIM_006.jpg
1738.804	2.799	correct	navigation	Trial3	navigation/STIM_006.jpg
1743.77	3.884	correct	navigation	Trial3	navigation/STIM_007.jpg
1750.48	3.575	incorrect	navigation	Trial3	navigation/STIM_007.jpg
1756.803	2.993	correct	navigation	Trial3	navigation/STIM_007.jpg
1762.862	2.358	correct	navigation	Trial3	navigation/STIM_007.jpg
1768.318	3.177	correct	navigation	Trial3	navigation/STIM_007.jpg
1774.788	2.176	correct	navigation	Trial3	navigation/STIM_007.jpg
1780.708	1.713	correct	navigation	Trial3	navigation/STIM_008.jpg
1786.115	2.762	correct	navigation	Trial3	navigation/STIM_008.jpg
1791.353	2.194	incorrect	navigation	Trial3	navigation/STIM_008.jpg
1796.277	3.336	incorrect	navigation	Trial3	navigation/STIM_008.jpg
1803.205	2.597	incorrect	navigation	Trial3	navigation/STIM_008.jpg
1809.452	3.851	correct	navigation	Trial3	navigation/STIM_008.jpg
1816.836	1.664	incorrect	navigation	Trial3	navigation/STIM_009.jpg
1822.053	2.213	incorrect	navigation	Trial3	navigation/STIM_009.jpg
1826.482	3.022	correct	navigation	Trial3	navigation/STIM_009.jpg
1832.308	3.017	correct	navigation	Trial3	navigation/STIM_009.jpg
1838.424	2.211	correct	navigation	Trial3	navigation/STIM_009.jpg
1843.36	2.694	correct	navigation	Trial3	navigation/STIM_009.jpg
1848.501	2.391	correct	navigation	Trial3	navigation/STIM_010.jpg
1854.628	2.1	correct	navigation	Trial3	navigation/STIM_010.jpg
1859.65	3.365	correct	navigation	Trial3	navigation/STIM_010.jpg
1865.342	3.244	correct	navigation	Trial3	navigation/STIM_010.jpg
1871.894	3.439	correct	navigation	Trial3	navigation/STIM_010.jpg
1877.558	3.448	correct	navigation	Trial3	navigation/STIM_010.jpg
1883.14	2.9	incorrect	navigation	Trial3	navigation/STIM_011.jpg
1888.52	1.629	correct	navigation	Trial3	navigation/STIM_011.jpg
1893.426	3.075	correct	navigation	Trial3	navigation/STIM_011.jpg
1898.803	2.664	correct	navigation	Trial3	navigation/STIM_011.jpg
1905.184	1.882	incorrect	navigation	Trial3	navigation/STIM_011.jpg
1909.238	3.279	correct	navigation	Trial3	navigation/STIM_011.jpg
1915.172	0.982	correct	pointing	Trial3	pointing/STIM_000.jpg
1918.456	1.438	incorrect	pointing	Trial3	pointing/STIM_000.jpg
1923.264	1.132	correct	pointing	Trial3	pointing/STIM_000.jpg
1927.805	1.034	correct	pointing	Trial3	pointing/STIM_000.jpg
1931.503	1.432	correct	pointing	Trial3	pointing/STIM_000.jpg
1936.738	0.995	correct	pointing	Trial3	pointing/STIM_000.jpg
1941.558	1.141	incorrect	pointing	Trial3	pointing/STIM_001.jpg
1946.382	0.913	correct	pointing	Trial3	pointing/STIM_001.jpg
1950.973	0.981	correct	pointing	Trial3	pointing/STIM_001.jpg
1954.698	1.09	correct	pointing	Trial3	pointing/STIM_001.jpg
1959.681	1.641	incorrect	pointing	Trial3	pointing/STIM_001.jpg
1964.58	1.652	incorrect	pointing	Trial3	pointing/STIM_001.jpg
1969.374	1.409	correct	pointing	Trial3	pointing/STIM_002.jpg
1974.612	0.978	incorrect	pointing	Trial3	pointing/STIM_002.jpg
1978.532	1.04	correct	pointing	Trial3	pointing/STIM_002.jpg
1982.441	1.271	correct	pointing	Trial3	pointing/STIM_002.jpg
1986.132	1.11	correct	pointing	Trial3	pointing/STIM_002.jpg
1989.389	0.965	correct	pointing	Trial3	pointing/STIM_002.jpg
1993.569	1.278	incorrect	pointing	Trial3	pointing/STIM_003.jpg
1998.373	1.301	correct	pointing	Trial3	pointing/STIM_003.jpg
2003.357	1.052	correct	pointing	Trial3	pointing/STIM_003.jpg
2008.185	1.355	correct	pointing	Trial3	pointing/STIM_003.jpg
2013.433	1.677	incorrect	pointing	Trial3	pointing/STIM_003.jpg
2017.914	1.167	correct	pointing	Trial3	pointing/STIM_003.jpg
2022.997	1.255	incorrect	pointing	Trial3	pointing/STIM_004.jpg
2028.078	1.698	correct	pointing	Trial3	pointing/STIM_004.jpg
2033.673	1.546	correct	pointing	Trial3	pointing/STIM_004.jpg
2037.224	1.246	correct	pointing	Trial3	pointing/STIM_004.jpg
2041.312	0.983	correct	pointing	Trial3	pointing/STIM_004.jpg
2044.829	1.626	incorrect	pointing	Trial3	pointing/STIM_004.jpg
2049.115	1.121	correct	pointing	Trial3	pointing/STIM_005.jpg
2053.811	1.145	correct	pointing	Trial3	pointing/STIM_005.jpg
2057.406	1.35	correct	pointing	Trial3	pointing/STIM_005.jpg
2061.955	1.222	correct	pointing	Trial3	pointing/STIM_005.jpg
2066.286	1.266	incorrect	pointing	Trial3	pointing/STIM_005.jpg
2069.651	1.336	correct	pointing	Trial3	pointing/STIM_005.jpg
2074.235	1.602	incorrect	pointing	Trial3	pointing/STIM_006.jpg
2078.562	1.463	correct	pointing	Trial3	pointing/STIM_006.jpg
2083.011	1.242	correct	pointing	Trial3	pointing/STIM_006.jpg
2087.381	1.5	correct	pointing	Trial3	pointing/STIM_006.jpg
2092.172	1.024	incorrect	pointing	Trial3	pointing/STIM_006.jpg
2095.446	1.469	correct	pointing	Trial3	pointing/STIM_006.jpg
2100.555	1.027	incorrect	pointing	Trial3	pointing/STIM_007.jpg
2105.379	1.633	correct	pointing	Trial3	pointing/STIM_007.jpg
2110.797	0.974	correct	pointing	Trial3	pointing/STIM_007.jpg
2115.582	1.664	correct	pointing	Trial3	pointing/STIM_007.jpg
2120.29	1.328	correct	pointing	Trial3	pointing/STIM_007.jpg
2125.499	1.478	correct	pointing	Trial3	pointing/STIM_007.jpg
2130.456	1.364	correct	pointing	Trial3	pointing/STIM_008.jpg
2135.567	1.548	correct	pointing	Trial3	pointing/STIM_008.jpg
2141.005	1.121	correct	pointing	Trial3	pointing/STIM_008.jpg
2145.39	0.961	correct	pointing	Trial3	pointing/STIM_008.jpg
2149.556	1.505	correct	pointing	Trial3	pointing/STIM_008.jpg
2153.236	1.572	incorrect	pointing	Trial3	pointing/STIM_008.jpg
2158.42	1.487	correct	pointing	Trial3	pointing/STIM_009.jpg
2162.35	1.7	correct	pointing	Trial3	pointing/STIM_009.jpg
2166.409	1.507	incorrect	pointing	Trial3	pointing/STIM_009.jpg
2171.091	1.669	correct	pointing	Trial3	pointing/STIM_009.jpg
2176.49	1.316	correct	pointing	Trial3	pointing/STIM_009.jpg
2181.411	1.618	incorrect	pointing	Trial3	pointing/STIM_009.jpg
2186.584	1.272	correct	pointing	Trial3	pointing/STIM_010.jpg
2191.837	1.041	correct	pointing	Trial3	pointing/STIM_010.jpg
2195.551	1.471	incorrect	pointing	Trial3	pointing/STIM_010.jpg
2200.615	0.92	incorrect	pointing	Trial3	pointing/STIM_010.jpg
2204.871	1.109	correct	pointing	Trial3	pointing/STIM_010.jpg
2209.432	1.111	correct	pointing	Trial3	pointing/STIM_010.jpg
2213.43	1.104	correct	pointing	Trial3	pointing/STIM_011.jpg
2217.173	0.917	correct	pointing	Trial3	pointing/STIM_011.jpg
2221.796	1.502	incorrect	pointing	Trial3	pointing/STIM_011.jpg
2226.598	1.206	correct	pointing	Trial3	pointing/STIM_011.jpg
2230.039	1.353	correct	pointing	Trial3	pointing/STIM_011.jpg
2234.509	1.616	incorrect	pointing	Trial3	pointing/STIM_011.jpg
