onset	duration	response_time_ms	trial_type	learning_stage	stimulus	response_port
0.0	3.604	3604.1	navigation	Trial1	navigation/STIM_000.jpg	99
7.092	5.2	5199.8	navigation	Trial1	navigation/STIM_000.jpg	99
16.115	3.058	3058.1	navigation	Trial1	navigation/STIM_000.jpg	100
21.342	3.84	3840.4	navigation	Trial1	navigation/STIM_000.jpg	100
28.696	3.08	3080.4	navigation	Trial1	navigation/STIM_000.jpg	100
34.491	1.807	1807.0	navigation	Trial1	navigation/STIM_000.jpg	99
38.549	2.601	2601.2	navigation	Trial1	navigation/STIM_001.jpg	99
44.682	2.842	2841.9	navigation	Trial1	navigation/STIM_001.jpg	100
50.349	3.859	3858.6	navigation	Trial1	navigation/STIM_001.jpg	99
57.216	4.587	4587.0	navigation	Trial1	navigation/STIM_001.jpg	99
64.239	2.372	2371.6	navigation	Trial1	navigation/STIM_001.jpg	100
69.836	3.954	3954.4	navigation	Trial1	navigation/STIM_001.jpg	99
77.227	4.538	4537.7	navigation	Trial1	navigation/STIM_002.jpg	99
84.39	3.299	3298.8	navigation	Trial1	navigation/STIM_002.jpg	99
90.728	2.363	2362.9	navigation	Trial1	navigation/STIM_002.jpg	99
95.508	2.442	2441.5	navigation	Trial1	navigation/STIM_002.jpg	99
100.781	4.478	4477.6	navigation	Trial1	navigation/STIM_002.jpg	99
108.122	3.324	3324.0	navigation	Trial1	navigation/STIM_002.jpg	99
114.272	4.737	4737.4	navigation	Trial1	navigation/STIM_003.jpg	99
122.154	3.427	3427.2	navigation	Trial1	navigation/STIM_003.jpg	99
129.124	2.89	2889.9	navigation	Trial1	navigation/STIM_003.jpg	99
135.018	2.864	2864.2	navigation	Trial1	navigation/STIM_003.jpg	99
140.341	2.032	2031.7	navigation	Trial1	navigation/STIM_003.jpg	99
145.022	2.954	2954.3	navigation	Trial1	navigation/STIM_003.jpg	100
150.737	4.689	4689.1	navigation	Trial1	navigation/STIM_004.jpg	100
157.554	3.993	3992.9	navigation	Trial1	navigation/STIM_004.jpg	99
164.281	4.552	4551.8	navigation	Trial1	navigation/STIM_004.jpg	99
172.663	2.886	2885.5	navigation	Trial1	navigation/STIM_004.jpg	99
178.801	2.272	2272.0	navigation	Trial1	navigation/STIM_004.jpg	99
184.101	2.723	2722.8	navigation	Trial1	navigation/STIM_004.jpg	99
188.94	5.22	5220.3	navigation	Trial1	navigation/STIM_005.jpg	99
196.298	4.125	4124.6	navigation	Trial1	navigation/STIM_005.jpg	99
203.704	4.884	4884.5	navigation	Trial1	navigation/STIM_005.jpg	100
211.792	2.352	2351.9	navigation	Trial1	navigation/STIM_005.jpg	99
216.463	2.89	2889.8	navigation	Trial1	navigation/STIM_005.jpg	100
221.417	3.553	3553.1	navigation	Trial1	navigation/STIM_005.jpg	99
227.8	2.941	2940.8	navigation	Trial1	navigation/STIM_006.jpg	99
233.167	5.382	5381.6	navigation	Trial1	navigation/STIM_006.jpg	100
242.208	2.052	2051.8	navigation	Trial1	navigation/STIM_006.jpg	99
246.45	3.133	3133.3	navigation	Trial1	navigation/STIM_006.jpg	100
252.811	2.588	2587.7	navigation	Trial1	navigation/STIM_006.jpg	99
258.257	2.993	2993.4	navigation	Trial1	navigation/STIM_006.jpg	100
264.959	2.81	2809.7	navigation	Trial1	navigation/STIM_007.jpg	99
269.796	3.397	3397.3	navigation	Trial1	navigation/STIM_007.jpg	100
275.486	2.539	2538.6	navigation	Trial1	navigation/STIM_007.jpg	99
280.729	4.15	4149.8	navigation	Trial1	navigation/STIM_007.jpg	100
287.665	2.921	2921.2	navigation	Trial1	navigation/STIM_007.jpg	100
293.571	4.227	4226.9	navigation	Trial1	navigation/STIM_007.jpg	100
299.798	4.092	4091.7	navigation	Trial1	navigation/STIM_008.jpg	100
306.807	2.979	2979.4	navigation	Trial1	navigation/STIM_008.jpg	100
313.117	3.045	3045.3	navigation	Trial1	navigation/STIM_008.jpg	99
319.765	1.939	1938.8	navigation	Trial1	navigation/STIM_008.jpg	99
324.477	3.137	3136.9	navigation	Trial1	navigation/STIM_008.jpg	99
330.2	2.853	2852.9	navigation	Trial1	navigation/STIM_008.jpg	99
336.584	3.082	3081.7	navigation	Trial1	navigation/STIM_009.jpg	100
341.686	3.72	3719.6	navigation	Trial1	navigation/STIM_009.jpg	100
348.833	4.526	4526.0	navigation	Trial1	navigation/STIM_009.jpg	100
357.276	3.749	3748.7	navigation	Trial1	navigation/STIM_009.jpg	99
363.568	3.969	3968.7	navigation	Trial1	navigation/STIM_009.jpg	100
371.142	3.32	3319.9	navigation	Trial1	navigation/STIM_009.jpg	100
376.982	2.691	2691.2	navigation	Trial1	navigation/STIM_010.jpg	99
381.705	3.855	3855.1	navigation	Trial1	navigation/STIM_010.jpg	100
388.833	2.17	2169.5	navigation	Trial1	navigation/STIM_010.jpg	100
394.433	3.673	3673.2	navigation	Trial1	navigation/STIM_010.jpg	99
400.539	3.014	3014.1	navigation	Trial1	navigation/STIM_010.jpg	99
406.74	3.02	3019.6	navigation	Trial1	navigation/STIM_010.jpg	99
412.249	4.123	4122.9	navigation	Trial1	navigation/STIM_011.jpg	100
419.335	4.164	4163.8	navigation	Trial1	navigation/STIM_011.jpg	99
425.667	2.182	2181.5	navigation	Trial1	navigation/STIM_011.jpg	99
430.223	3.515	3515.0	navigation	Trial1	navigation/STIM_011.jpg	99
437.059	3.669	3668.8	navigation	Trial1	navigation/STIM_011.jpg	99
444.193	2.107	2106.8	navigation	Trial1	navigation/STIM_011.jpg	100
448.963	1.454	1453.7	pointing	Trial1	pointing/STIM_000.jpg	100
452.934	1.51	1509.5	pointing	Trial1	pointing/STIM_000.jpg	100
457.02	1.144	1143.8	pointing	Trial1	pointing/STIM_000.jpg	99
461.102	1.672	1671.8	pointing	Trial1	pointing/STIM_000.jpg	99
466.637	1.419	1419.1	pointing	Trial1	pointing/STIM_000.jpg	100
471.831	0.953	952.8	pointing	Trial1	pointing/STIM_000.jpg	99
476.559	1.052	1051.7	pointing	Trial1	pointing/STIM_001.jpg	100
480.834	1.226	1225.7	pointing	Trial1	pointing/STIM_001.jpg	100
484.824	1.277	1276.7	pointing	Trial1	pointing/STIM_001.jpg	100
489.55	0.991	991.3	pointing	Trial1	pointing/STIM_001.jpg	99
493.384	1.548	1548.0	pointing	Trial1	pointing/STIM_001.jpg	99
497.591	0.97	969.7	pointing	Trial1	pointing/STIM_001.jpg	100
502.262	1.404	1404.4	pointing	Trial1	pointing/STIM_002.jpg	99
506.016	1.256	1256.1	pointing	Trial1	pointing/STIM_002.jpg	100
509.506	1.103	1103.3	pointing	Trial1	pointing/STIM_002.jpg	100
513.766	1.232	1232.0	pointing	Trial1	pointing/STIM_002.jpg	99
517.017	0.99	990.4	pointing	Trial1	pointing/STIM_002.jpg	100
521.544	1.152	1152.1	pointing	Trial1	pointing/STIM_002.jpg	100
526.589	1.487	1486.6	pointing	Trial1	pointing/STIM_003.jpg	99
531.541	1.128	1127.9	pointing	Trial1	pointing/STIM_003.jpg	99
535.66	1.149	1148.7	pointing	Trial1	pointing/STIM_003.jpg	100
539.783	1.29	1290.3	pointing	Trial1	pointing/STIM_003.jpg	99
544.461	1.607	1607.4	pointing	Trial1	pointing/STIM_003.jpg	100
549.545	0.954	954.5	pointing	Trial1	pointing/STIM_003.jpg	99
552.811	1.192	1192.3	pointing	Trial1	pointing/STIM_004.jpg	99
557.673	0.919	918.6	pointing	Trial1	pointing/STIM_004.jpg	100
561.861	0.946	946.5	pointing	Trial1	pointing/STIM_004.jpg	100
566.046	0.945	945.3	pointing	Trial1	pointing/STIM_004.jpg	99
569.021	1.037	1036.7	pointing	Trial1	pointing/STIM_004.jpg	100
572.483	1.474	1473.6	pointing	Trial1	pointing/STIM_004.jpg	100
576.26	1.697	1697.2	pointing	Trial1	pointing/STIM_005.jpg	99
580.627	1.682	1681.7	pointing	Trial1	pointing/STIM_005.jpg	99
586.173	1.645	1644.7	pointing	Trial1	pointing/STIM_005.jpg	99
590.358	0.955	955.1	pointing	Trial1	pointing/STIM_005.jpg	99
594.842	1.353	1352.9	pointing	Trial1	pointing/STIM_005.jpg	100
599.831	1.54	1540.5	pointing	Trial1	pointing/STIM_005.jpg	99
604.424	1.576	1575.7	pointing	Trial1	pointing/STIM_006.jpg	99
608.713	1.682	1681.8	pointing	Trial1	pointing/STIM_006.jpg	99
613.97	1.352	1352.0	pointing	Trial1	pointing/STIM_006.jpg	100
617.356	1.497	1496.9	pointing	Trial1	pointing/STIM_006.jpg	99
621.648	1.208	1208.0	pointing	Trial1	pointing/STIM_006.jpg	99
626.347	1.11	1110.2	pointing	Trial1	pointing/STIM_006.jpg	99
629.668	1.22	1220.2	pointing	Trial1	pointing/STIM_007.jpg	100
634.229	1.132	1131.5	pointing	Trial1	pointing/STIM_007.jpg	99
639.319	1.009	1008.7	pointing	Trial1	pointing/STIM_007.jpg	99
643.281	1.349	1349.3	pointing	Trial1	pointing/STIM_007.jpg	100
647.891	1.26	1260.5	pointing	Trial1	pointing/STIM_007.jpg	99
653.011	1.281	1281.2	pointing	Trial1	pointing/STIM_007.jpg	100
656.994	1.646	1646.5	pointing	Trial1	pointing/STIM_008.jpg	99
661.679	1.563	1563.0	pointing	Trial1	pointing/STIM_008.jpg	99
665.435	1.61	1610.3	pointing	Trial1	pointing/STIM_008.jpg	100
670.5	1.474	1474.3	pointing	Trial1	pointing/STIM_008.jpg	99
673.989	1.547	1546.6	pointing	Trial1	pointing/STIM_008.jpg	100
679.049	1.07	1070.0	pointing	Trial1	pointing/STIM_008.jpg	99
682.526	1.25	1250.1	pointing	Trial1	pointing/STIM_009.jpg	100
687.359	1.36	1360.1	pointing	Trial1	pointing/STIM_009.jpg	100
690.738	1.565	1565.2	pointing	Trial1	pointing/STIM_009.jpg	99
694.81	1.008	1008.2	pointing	Trial1	pointing/STIM_009.jpg	100
698.291	1.52	1519.7	pointing	Trial1	pointing/STIM_009.jpg	99
702.001	1.232	1231.6	pointing	Trial1	pointing/STIM_009.jpg	99
706.185	1.309	1309.2	pointing	Trial1	pointing/STIM_010.jpg	99
710.568	1.583	1583.0	pointing	Trial1	pointing/STIM_010.jpg	99
715.262	1.151	1151.3	pointing	Trial1	pointing/STIM_010.jpg	100
718.572	1.589	1588.6	pointing	Trial1	pointing/STIM_010.jpg	99
723.106	1.205	1205.3	pointing	Trial1	pointing/STIM_010.jpg	100
727.582	1.474	1473.7	pointing	Trial1	pointing/STIM_010.jpg	100
732.816	0.948	948.3	pointing	Trial1	pointing/STIM_011.jpg	100
736.066	1.104	1104.4	pointing	Trial1	pointing/STIM_011.jpg	99
739.231	0.931	930.9	pointing	Trial1	pointing/STIM_011.jpg	99
742.637	1.067	1066.9	pointing	Trial1	pointing/STIM_011.jpg	100
746.985	1.045	1045.1	pointing	Trial1	pointing/STIM_011.jpg	99
751.467	1.518	1517.5	pointing	Trial1	pointing/STIM_011.jpg	99
755.176	3.301	3301.0	navigation	Trial2	navigation/STIM_000.jpg	99
762.417	4.556	4556.1	navigation	Trial2	navigation/STIM_000.jpg	100
769.846	2.694	2694.2	navigation	Trial2	navigation/STIM_000.jpg	99
775.697	3.432	3431.6	navigation	Trial2	navigation/STIM_000.jpg	99
781.747	3.295	3294.9	navigation	Trial2	navigation/STIM_000.jpg	99
787.272	2.571	2570.7	navigation	Trial2	navigation/STIM_000.jpg	99
793.29	4.664	4664.1	navigation	Trial2	navigation/STIM_001.jpg	100
800.422	3.135	3135.4	navigation	Trial2	navigation/STIM_001.jpg	100
805.93	2.208	2208.0	navigation	Trial2	navigation/STIM_001.jpg	100
811.38	3.207	3206.8	navigation	Trial2	navigation/STIM_001.jpg	100
817.771	3.48	3480.0	navigation	Trial2	navigation/STIM_001.jpg	99
823.258	3.235	3235.4	navigation	Trial2	navigation/STIM_001.jpg	99
829.407	4.747	4747.0	navigation	Trial2	navigation/STIM_002.jpg	99
837.11	3.33	3329.7	navigation	Trial2	navigation/STIM_002.jpg	99
843.448	2.411	2411.1	navigation	Trial2	navigation/STIM_002.jpg	99
849.456	2.695	2695.3	navigation	Trial2	navigation/STIM_002.jpg	100
854.578	2.996	2996.2	navigation	Trial2	navigation/STIM_002.jpg	100
859.736	1.923	1923.2	navigation	Trial2	navigation/STIM_002.jpg	100
864.374	4.667	4666.8	navigation	Trial2	navigation/STIM_003.jpg	100
871.491	2.55	2550.4	navigation	Trial2	navigation/STIM_003.jpg	99
877.972	2.95	2950.2	navigation	Trial2	navigation/STIM_003.jpg	99
884.807	3.176	3176.0	navigation	Trial2	navigation/STIM_003.jpg	100
890.776	3.584	3584.2	navigation	Trial2	navigation/STIM_003.jpg	100
897.104	2.922	2921.6	navigation	Trial2	navigation/STIM_003.jpg	99
902.385	3.863	3862.8	navigation	Trial2	navigation/STIM_004.jpg	99
908.626	3.916	3916.0	navigation	Trial2	navigation/STIM_004.jpg	99
915.289	2.959	2959.0	navigation	Trial2	navigation/STIM_004.jpg	99
920.278	3.365	3365.0	navigation	Trial2	navigation/STIM_004.jpg	99
926.891	3.245	3244.6	navigation	Trial2	navigation/STIM_004.jpg	100
932.444	3.008	3008.3	navigation	Trial2	navigation/STIM_004.jpg	100
938.961	3.378	3378.1	navigation	Trial2	navigation/STIM_005.jpg	100
944.789	2.769	2768.6	navigation	Trial2	navigation/STIM_005.jpg	99
949.991	3.564	3564.4	navigation	Trial2	navigation/STIM_005.jpg	100
956.363	1.856	1855.6	navigation	Trial2	navigation/STIM_005.jpg	100
960.784	1.984	1983.8	navigation	Trial2	navigation/STIM_005.jpg	100
966.072	1.843	1843.1	navigation	Trial2	navigation/STIM_005.jpg	99
970.653	3.728	3727.6	navigation	Trial2	navigation/STIM_006.jpg	100
978.082	3.797	3796.8	navigation	Trial2	navigation/STIM_006.jpg	100
984.299	3.881	3880.8	navigation	Trial2	navigation/STIM_006.jpg	100
990.399	2.292	2291.5	navigation	Trial2	navigation/STIM_006.jpg	100
995.955	3.358	3358.4	navigation	Trial2	navigation/STIM_006.jpg	99
1001.981	3.696	3695.6	navigation	Trial2	navigation/STIM_006.jpg	100
1009.367	3.671	3671.4	navigation	Trial2	navigation/STIM_007.jpg	99
1015.292	3.538	3538.4	navigation	Trial2	navigation/STIM_007.jpg	99
1021.835	4.212	4212.0	navigation	Trial2	navigation/STIM_007.jpg	99
1029.583	3.964	3963.8	navigation	Trial2	navigation/STIM_007.jpg	99
1036.252	1.958	1958.4	navigation	Trial2	navigation/STIM_007.jpg	99
1041.959	1.599	1599.0	navigation	Trial2	navigation/STIM_007.jpg	100
1046.854	3.776	3776.0	navigation	Trial2	navigation/STIM_008.jpg	100
1053.22	2.571	2571.1	navigation	Trial2	navigation/STIM_008.jpg	99
1058.194	1.896	1896.3	navigation	Trial2	navigation/STIM_008.jpg	99
1063.856	3.223	3222.6	navigation	Trial2	navigation/STIM_008.jpg	99
1069.289	1.618	1618.4	navigation	Trial2	navigation/STIM_008.jpg	100
1074.595	2.547	2546.8	navigation	Trial2	navigation/STIM_008.jpg	99
1079.689	3.972	3972.2	navigation	Trial2	navigation/STIM_009.jpg	99
1087.257	4.24	4239.6	navigation	Trial2	navigation/STIM_009.jpg	100
1093.675	1.954	1953.5	navigation	Trial2	navigation/STIM_009.jpg	100
1099.584	1.877	1876.9	navigation	Trial2	navigation/STIM_009.jpg	99
1103.797	3.636	3635.8	navigation	Trial2	navigation/STIM_009.jpg	100
1110.622	2.278	2278.5	navigation	Trial2	navigation/STIM_009.jpg	100
1116.715	1.951	1951.3	navigation	Trial2	navigation/STIM_010.jpg	99
1122.163	4.209	4209.3	navigation	Trial2	navigation/STIM_010.jpg	100
1129.237	3.98	3979.5	navigation	Trial2	navigation/STIM_010.jpg	99
1136.813	3.212	3211.9	navigation	Trial2	navigation/STIM_010.jpg	100
1142.097	2.84	2839.8	navigation	Trial2	navigation/STIM_010.jpg	99
1148.439	3.412	3412.4	navigation	Trial2	navigation/STIM_010.jpg	99
1155.183	3.06	3059.7	navigation	Trial2	navigation/STIM_011.jpg	100
1161.848	4.105	4105.2	navigation	Trial2	navigation/STIM_011.jpg	99
1168.554	3.986	3986.1	navigation	Trial2	navigation/STIM_011.jpg	99
1176.082	3.388	3388.2	navigation	Trial2	navigation/STIM_011.jpg	100
1183.051	1.655	1655.1	navigation	Trial2	navigation/STIM_011.jpg	99
1188.502	3.219	3219.4	navigation	Trial2	navigation/STIM_011.jpg	99
1193.85	1.538	1537.6	pointing	Trial2	pointing/STIM_000.jpg	100
1198.341	1.338	1337.9	pointing	Trial2	pointing/STIM_000.jpg	99
1201.689	1.696	1695.6	pointing	Trial2	pointing/STIM_000.jpg	99
1206.247	1.02	1019.7	pointing	Trial2	pointing/STIM_000.jpg	99
1210.56	1.429	1429.2	pointing	Trial2	pointing/STIM_000.jpg	100
1215.025	0.976	975.6	pointing	Trial2	pointing/STIM_000.jpg	99
1219.325	1.486	1485.6	pointing	Trial2	pointing/STIM_001.jpg	99
1222.953	1.707	1706.8	pointing	Trial2	pointing/STIM_001.jpg	99
1228.067	1.211	1210.8	pointing	Trial2	pointing/STIM_001.jpg	100
1231.725	1.65	1649.8	pointing	Trial2	pointing/STIM_001.jpg	99
1236.175	1.217	1217.1	pointing	Trial2	pointing/STIM_001.jpg	99
1239.651	0.913	913.3	pointing	Trial2	pointing/STIM_001.jpg	100
1244.539	1.018	1017.7	pointing	Trial2	pointing/STIM_002.jpg	99
1248.731	1.227	1226.8	pointing	Trial2	pointing/STIM_002.jpg	99
1252.288	1.022	1022.2	pointing	Trial2	pointing/STIM_002.jpg	99
1256.027	1.447	1447.3	pointing	Trial2	pointing/STIM_002.jpg	99
1259.912	0.929	928.7	pointing	Trial2	pointing/STIM_002.jpg	100
1264.043	1.384	1384.2	pointing	Trial2	pointing/STIM_002.jpg	99
1269.294	1.234	1233.7	pointing	Trial2	pointing/STIM_003.jpg	99
1272.956	1.689	1689.1	pointing	Trial2	pointing/STIM_003.jpg	99
1277.486	1.375	1375.1	pointing	Trial2	pointing/STIM_003.jpg	100
1281.369	1.526	1525.5	pointing	Trial2	pointing/STIM_003.jpg	100
1286.522	1.1	1100.5	pointing	Trial2	pointing/STIM_003.jpg	100
1290.814	1.326	1326.3	pointing	Trial2	pointing/STIM_003.jpg	100
1294.667	1.67	1670.4	pointing	Trial2	pointing/STIM_004.jpg	99
1299.03	1.098	1098.3	pointing	Trial2	pointing/STIM_004.jpg	99
1303.392	1.319	1319.1	pointing	Trial2	pointing/STIM_004.jpg	100
1308.068	1.447	1447.4	pointing	Trial2	pointing/STIM_004.jpg	99
1312.429	1.243	1243.1	pointing	Trial2	pointing/STIM_004.jpg	100
1317.247	1.395	1395.3	pointing	Trial2	pointing/STIM_004.jpg	100
1321.79	1.434	1433.6	pointing	Trial2	pointing/STIM_005.jpg	100
1326.416	1.623	1622.8	pointing	Trial2	pointing/STIM_005.jpg	99
1330.216	1.638	1637.6	pointing	Trial2	pointing/STIM_005.jpg	100
1334.846	1.331	1331.4	pointing	Trial2	pointing/STIM_005.jpg	99
1338.918	1.33	1330.3	pointing	Trial2	pointing/STIM_005.jpg	99
1342.818	1.614	1613.5	pointing	Trial2	pointing/STIM_005.jpg	99
1348.224	1.314	1314.2	pointing	Trial2	pointing/STIM_006.jpg	99
1351.794	1.612	1612.0	pointing	Trial2	pointing/STIM_006.jpg	99
1356.824	1.374	1374.2	pointing	Trial2	pointing/STIM_006.jpg	99
1361.66	1.588	1588.3	pointing	Trial2	pointing/STIM_006.jpg	99
1365.495	1.503	1502.7	pointing	Trial2	pointing/STIM_006.jpg	99
1369.236	1.482	1482.2	pointing	Trial2	pointing/STIM_006.jpg	99
1373.24	1.45	1450.3	pointing	Trial2	pointing/STIM_007.jpg	99
1377.969	1.462	1461.6	pointing	Trial2	pointing/STIM_007.jpg	99
1382.275	1.318	1318.0	pointing	Trial2	pointing/STIM_007.jpg	100
1385.65	0.99	989.9	pointing	Trial2	pointing/STIM_007.jpg	100
1389.858	1.297	1297.1	pointing	Trial2	pointing/STIM_007.jpg	99
1394.192	1.123	1123.1	pointing	Trial2	pointing/STIM_007.jpg	100
1398.706	1.034	1034.4	pointing	Trial2	pointing/STIM_008.jpg	100
1401.987	1.02	1020.2	pointing	Trial2	pointing/STIM_008.jpg	99
1405.769	1.387	1387.3	pointing	Trial2	pointing/STIM_008.jpg	100
1410.361	1.157	1157.4	pointing	Trial2	pointing/STIM_008.jpg	100
1414.044	1.008	1008.5	pointing	Trial2	pointing/STIM_008.jpg	99
1419.031	1.184	1184.1	pointing	Trial2	pointing/STIM_008.jpg	100
1423.912	1.145	1144.7	pointing	Trial2	pointing/STIM_009.jpg	99
1429.01	0.938	937.9	pointing	Trial2	pointing/STIM_009.jpg	99
1432.368	0.92	919.7	pointing	Trial2	pointing/STIM_009.jpg	99
1435.333	1.119	1119.4	pointing	Trial2	pointing/STIM_009.jpg	99
1440.151	1.412	1412.3	pointing	Trial2	pointing/STIM_009.jpg	99
1445.264	1.407	1407.3	pointing	Trial2	pointing/STIM_009.jpg	99
1449.019	1.555	1555.3	pointing	Trial2	pointing/STIM_010.jpg	99
1454.523	1.158	1158.5	pointing	Trial2	pointing/STIM_010.jpg	100
1458.774	1.039	1039.3	pointing	Trial2	pointing/STIM_010.jpg	100
1462.814	0.96	960.2	pointing	Trial2	pointing/STIM_010.jpg	100
1467.572	1.138	1137.5	pointing	Trial2	pointing/STIM_010.jpg	99
1471.473	1.151	1150.8	pointing	Trial2	pointing/STIM_010.jpg	99
1476.045	1.531	1530.6	pointing	Trial2	pointing/STIM_011.jpg	99
1479.618	1.291	1291.3	pointing	Trial2	pointing/STIM_011.jpg	100
1484.753	0.937	936.9	pointing	Trial2	pointing/STIM_011.jpg	99
1489.363	1.482	1482.5	pointing	Trial2	pointing/STIM_011.jpg	100
1494.539	1.172	1172.0	pointing	Trial2	pointing/STIM_011.jpg	99
1499.445	0.994	994.1	pointing	Trial2	pointing/STIM_011.jpg	99
1502.712	3.102	3101.8	navigation	Trial3	navigation/STIM_000.jpg	100
1508.777	2.874	2874.5	navigation	Trial3	navigation/STIM_000.jpg	100
1514.261	1.978	1977.8	navigation	Trial3	navigation/STIM_000.jpg	100
1518.742	3.701	3701.3	navigation	Trial3	navigation/STIM_000.jpg	100
1525.36	1.941	1941.2	navigation	Trial3	navigation/STIM_000.jpg	99
1531.165	3.386	3386.3	navigation	Trial3	navigation/STIM_000.jpg	99
1537.779	2.507	2507.3	navigation	Trial3	navigation/STIM_001.jpg	100
1544.152	2.611	2610.7	navigation	Trial3	navigation/STIM_001.jpg	99
1550.725	1.746	1746.3	navigation	Trial3	navigation/STIM_001.jpg	100
1556.408	3.402	3402.1	navigation	Trial3	navigation/STIM_001.jpg	100
1562.922	1.885	1885.4	navigation	Trial3	navigation/STIM_001.jpg	100
1568.522	2.116	2115.5	navigation	Trial3	navigation/STIM_001.jpg	99
1574.404	3.506	3505.9	navigation	Trial3	navigation/STIM_002.jpg	99
1581.831	2.087	2087.0	navigation	Trial3	navigation/STIM_002.jpg	100
1586.017	2.961	2961.4	navigation	Trial3	navigation/STIM_002.jpg	99
1592.803	3.522	3522.0	navigation	Trial3	navigation/STIM_002.jpg	100
1599.231	2.55	2549.6	navigation	Trial3	navigation/STIM_002.jpg	99
1605.307	2.741	2741.3	navigation	Trial3	navigation/STIM_002.jpg	99
1612.028	1.621	1620.7	navigation	Trial3	navigation/STIM_003.jpg	99
1616.307	1.965	1965.1	navigation	Trial3	navigation/STIM_003.jpg	100
1621.541	2.754	2753.6	navigation	Trial3	navigation/STIM_003.jpg	100
1628.039	2.195	2194.9	navigation	Trial3	navigation/STIM_003.jpg	100
1633.969	2.174	2173.5	navigation	Trial3	navigation/STIM_003.jpg	100
1638.98	2.452	2451.8	navigation	Trial3	navigation/STIM_003.jpg	99
1644.642	3.428	3427.8	navigation	Trial3	navigation/STIM_004.jpg	99
1651.157	3.119	3119.0	navigation	Trial3	navigation/STIM_004.jpg	99
1656.389	2.156	2155.7	navigation	Trial3	navigation/STIM_004.jpg	100
1660.835	2.528	2527.7	navigation	Trial3	navigation/STIM_004.jpg	100
1666.557	3.131	3131.2	navigation	Trial3	navigation/STIM_004.jpg	99
1672.055	3.166	3165.6	navigation	Trial3	navigation/STIM_004.jpg	100
1678.417	2.825	2825.0	navigation	Trial3	navigation/STIM_005.jpg	100
1685.002	1.801	1801.4	navigation	Trial3	navigation/STIM_005.jpg	99
1689.357	2.161	2161.0	navigation	Trial3	navigation/STIM_005.jpg	100
1695.102	1.768	1768.1	navigation	Trial3	navigation/STIM_005.jpg	100
1700.853	2.199	2199.0	navigation	Trial3	navigation/STIM_005.jpg	99
1705.615	2.162	2161.6	navigation	Trial3	navigation/STIM_005.jpg	99
1710.191	2.734	2733.7	navigation	Trial3	navigation/STIM_006.jpg	100
1715.044	3.084	3083.5	navigation	Trial3	navigation/STIM_006.jpg	99
1721.443	3.871	3870.6	navigation	Trial3	navigation/STIM_006.jpg	100
1727.518	2.027	2027.3	navigation	Trial3	navigation/STIM_006.jpg	99
1732.445	3.788	3788.2	navigation	Trial3	navigation/STIM_006.jpg	100
1738.804	2.799	2799.1	navigation	Trial3	navigation/STIM_006.jpg	100
1743.77	3.884	3884.2	navigation	Trial3	navigation/STIM_007.jpg	99
1750.48	3.575	3574.6	navigation	Trial3	navigation/STIM_007.jpg	100
1756.803	2.993	2993.4	navigation	Trial3	navigation/STIM_007.jpg	99
1762.862	2.358	2357.8	navigation	Trial3	navigation/STIM_007.jpg	99
1768.318	3.177	3176.6	navigation	Trial3	navigation/STIM_007.jpg	99
1774.788	2.176	2175.7	navigation	Trial3	navigation/STIM_007.jpg	99
1780.708	1.713	1713.2	navigation	Trial3	navigation/STIM_008.jpg	100
1786.115	2.762	2762.0	navigation	Trial3	navigation/STIM_008.jpg	100
1791.353	2.194	2194.2	navigation	Trial3	navigation/STIM_008.jpg	100
1796.277	3.336	3336.5	navigation	Trial3	navigation/STIM_008.jpg	99
1803.205	2.597	2596.6	navigation	Trial3	navigation/STIM_008.jpg	99
1809.452	3.851	3851.3	navigation	Trial3	navigation/STIM_008.jpg	100
1816.836	1.664	1663.6	navigation	Trial3	navigation/STIM_009.jpg	100
1822.053	2.213	2212.6	navigation	Trial3	navigation/STIM_009.jpg	99
1826.482	3.022	3021.5	navigation	Trial3	navigation/STIM_009.jpg	100
1832.308	3.017	3017.4	navigation	Trial3	navigation/STIM_009.jpg	100
1838.424	2.211	2211.4	navigation	Trial3	navigation/STIM_009.jpg	99
1843.36	2.694	2693.6	navigation	Trial3	navigation/STIM_009.jpg	100
1848.501	2.391	2390.8	navigation	Trial3	navigation/STIM_010.jpg	100
1854.628	2.1	2100.5	navigation	Trial3	navigation/STIM_010.jpg	99
1859.65	3.365	3365.4	navigation	Trial3	navigation/STIM_010.jpg	100
1865.342	3.244	3243.5	navigation	Trial3	navigation/STIM_010.jpg	99
1871.894	3.439	3438.8	navigation	Trial3	navigation/STIM_010.jpg	100
1877.558	3.448	3448.2	navigation	Trial3	navigation/STIM_010.jpg	100
1883.14	2.9	2899.6	navigation	Trial3	navigation/STIM_011.jpg	99
1888.52	1.629	1629.0	navigation	Trial3	navigation/STIM_011.jpg	99
1893.426	3.075	3075.2	navigation	Trial3	navigation/STIM_011.jpg	99
1898.803	2.664	2664.3	navigation	Trial3	navigation/STIM_011.jpg	100
1905.184	1.882	1882.0	navigation	Trial3	navigation/STIM_011.jpg	100
1909.238	3.279	3278.6	navigation	Trial3	navigation/STIM_011.jpg	100
1915.172	0.982	982.0	pointing	Trial3	pointing/STIM_000.jpg	99
1918.456	1.438	1438.3	pointing	Trial3	pointing/STIM_000.jpg	100
1923.264	1.132	1132.1	pointing	Trial3	pointing/STIM_000.jpg	99
1927.805	1.034	1033.9	pointing	Trial3	pointing/STIM_000.jpg	99
1931.503	1.432	1431.9	pointing	Trial3	pointing/STIM_000.jpg	100
1936.738	0.995	995.1	pointing	Trial3	pointing/STIM_000.jpg	99
1941.558	1.141	1141.3	pointing	Trial3	pointing/STIM_001.jpg	99
1946.382	0.913	913.4	pointing	Trial3	pointing/STIM_001.jpg	99
1950.973	0.981	980.7	pointing	Trial3	pointing/STIM_001.jpg	100
1954.698	1.09	1090.2	pointing	Trial3	pointing/STIM_001.jpg	99
1959.681	1.641	1640.8	pointing	Trial3	pointing/STIM_001.jpg	99
1964.58	1.652	1651.8	pointing	Trial3	pointing/STIM_001.jpg	100
1969.374	1.409	1409.1	pointing	Trial3	pointing/STIM_002.jpg	99
1974.612	0.978	977.6	pointing	Trial3	pointing/STIM_002.jpg	99
1978.532	1.04	1039.8	pointing	Trial3	pointing/STIM_002.jpg	100
1982.441	1.271	1271.3	pointing	Trial3	pointing/STIM_002.jpg	100
1986.132	1.11	1110.1	pointing	Trial3	pointing/STIM_002.jpg	100
1989.389	0.965	965.1	pointing	Trial3	pointing/STIM_002.jpg	100
1993.569	1.278	1278.2	pointing	Trial3	pointing/STIM_003.jpg	100
1998.373	1.301	1301.2	pointing	Trial3	pointing/STIM_003.jpg	100
2003.357	1.052	1052.4	pointing	Trial3	pointing/STIM_003.jpg	100
2008.185	1.355	1354.9	pointing	Trial3	pointing/STIM_003.jpg	99
2013.433	1.677	1676.6	pointing	Trial3	pointing/STIM_003.jpg	99
2017.914	1.167	1166.6	pointing	Trial3	pointing/STIM_003.jpg	100
2022.997	1.255	1254.7	pointing	Trial3	pointing/STIM_004.jpg	99
2028.078	1.698	1697.7	pointing	Trial3	pointing/STIM_004.jpg	100
2033.673	1.546	1545.6	pointing	Trial3	pointing/STIM_004.jpg	100
2037.224	1.246	1246.3	pointing	Trial3	pointing/STIM_004.jpg	100
2041.312	0.983	982.7	pointing	Trial3	pointing/STIM_004.jpg	99
2044.829	1.626	1625.5	pointing	Trial3	pointing/STIM_004.jpg	99
2049.115	1.121	1120.6	pointing	Trial3	pointing/STIM_005.jpg	100
2053.811	1.145	1145.0	pointing	Trial3	pointing/STIM_005.jpg	100
2057.406	1.35	1350.4	pointing	Trial3	pointing/STIM_005.jpg	100
2061.955	1.222	1221.5	pointing	Trial3	pointing/STIM_005.jpg	99
2066.286	1.266	1266.4	pointing	Trial3	pointing/STIM_005.jpg	100
2069.651	1.336	1335.5	pointing	Trial3	pointing/STIM_005.jpg	99
2074.235	1.602	1602.1	pointing	Trial3	pointing/STIM_006.jpg	99
2078.562	1.463	1463.2	pointing	Trial3	pointing/STIM_006.jpg	100
2083.011	1.242	1242.4	pointing	Trial3	pointing/STIM_006.jpg	99
2087.381	1.5	1500.3	pointing	Trial3	pointing/STIM_006.jpg	100
2092.172	1.024	1024.4	pointing	Trial3	pointing/STIM_006.jpg	99
2095.446	1.469	1469.2	pointing	Trial3	pointing/STIM_006.jpg	100
2100.555	1.027	1027.0	pointing	Trial3	pointing/STIM_007.jpg	99
2105.379	1.633	1632.8	pointing	Trial3	pointing/STIM_007.jpg	100
2110.797	0.974	974.1	pointing	Trial3	pointing/STIM_007.jpg	99
2115.582	1.664	1664.3	pointing	Trial3	pointing/STIM_007.jpg	100
2120.29	1.328	1327.8	pointing	Trial3	pointing/STIM_007.jpg	99
2125.499	1.478	1477.8	pointing	Trial3	pointing/STIM_007.jpg	99
2130.456	1.364	1363.7	pointing	Trial3	pointing/STIM_008.jpg	100
2135.567	1.548	1547.6	pointing	Trial3	pointing/STIM_008.jpg	99
2141.005	1.121	1120.6	pointing	Trial3	pointing/STIM_008.jpg	100
2145.39	0.961	960.6	pointing	Trial3	pointing/STIM_008.jpg	99
2149.556	1.505	1504.8	pointing	Trial3	pointing/STIM_008.jpg	100
2153.236	1.572	1572.3	pointing	Trial3	pointing/STIM_008.jpg	99
2158.42	1.487	1487.0	pointing	Trial3	pointing/STIM_009.jpg	99
2162.35	1.7	1699.5	pointing	Trial3	pointing/STIM_009.jpg	100
2166.409	1.507	1506.9	pointing	Trial3	pointing/STIM_009.jpg	99
2171.091	1.669	1669.0	pointing	Trial3	pointing/STIM_009.jpg	100
2176.49	1.316	1315.8	pointing	Trial3	pointing/STIM_009.jpg	100
2181.411	1.618	1618.4	pointing	Trial3	pointing/STIM_009.jpg	99
2186.584	1.272	1271.7	pointing	Trial3	pointing/STIM_010.jpg	99
2191.837	1.041	1041.3	pointing	Trial3	pointing/STIM_010.jpg	99
2195.551	1.471	1471.4	pointing	Trial3	pointing/STIM_010.jpg	99
2200.615	0.92	920.2	pointing	Trial3	pointing/STIM_010.jpg	99
2204.871	1.109	1109.3	pointing	Trial3	pointing/STIM_010.jpg	99
2209.432	1.111	1110.9	pointing	Trial3	pointing/STIM_010.jpg	99
2213.43	1.104	1103.8	pointing	Trial3	pointing/STIM_011.jpg	100
2217.173	0.917	916.8	pointing	Trial3	pointing/STIM_011.jpg	99
2221.796	1.502	1502.5	pointing	Trial3	pointing/STIM_011.jpg	99
2226.598	1.206	1206.1	pointing	Trial3	pointing/STIM_011.jpg	100
2230.039	1.353	1353.1	pointing	Trial3	pointing/STIM_011.jpg	100
2234.509	1.616	1616.1	pointing	Trial3	pointing/STIM_011.jpg	99
