onset	duration	accuracy	trial_type	learning_stage	stimulus
0.0	2.342	incorrect	navigation	Trial1	navigation/STIM_000.jpg
6.146	3.247	correct	navigation	Trial1	navigation/STIM_000.jpg
12.293	2.36	correct	navigation	Trial1	navigation/STIM_000.jpg
17.456	3.521	correct	navigation	Trial1	navigation/STIM_000.jpg
24.493	3.376	correct	navigation	Trial1	navigation/STIM_000.jpg
30.365	2.612	correct	navigation	Trial1	navigation/STIM_000.jpg
36.889	4.536	correct	navigation	Trial1	navigation/STIM_001.jpg
43.675	4.303	correct	navigation	Trial1	navigation/STIM_001.jpg
51.918	2.404	correct	navigation	Trial1	navigation/STIM_001.jpg
57.113	2.927	correct	navigation	Trial1	navigation/STIM_001.jpg
63.009	2.683	incorrect	navigation	Trial1	navigation/STIM_001.jpg
68.264	1.572	correct	navigation	Trial1	navigation/STIM_001.jpg
72.398	3.608	correct	navigation	Trial1	navigation/STIM_002.jpg
79.134	4.595	incorrect	navigation	Trial1	navigation/STIM_002.jpg
85.872	4.273	incorrect	navigation	Trial1	navigation/STIM_002.jpg
94.034	3.945	correct	navigation	Trial1	navigation/STIM_002.jpg
100.246	1.571	correct	navigation	Trial1	navigation/STIM_002.jpg
103.904	2.624	incorrect	navigation	Trial1	navigation/STIM_002.jpg
109.458	2.758	incorrect	navigation	Trial1	navigation/STIM_003.jpg
116.093	3.523	correct	navigation	Trial1	navigation/STIM_003.jpg
123.423	3.132	correct	navigation	Trial1	navigation/STIM_003.jpg
129.565	2.722	correct	navigation	Trial1	navigation/STIM_003.jpg
135.601	3.504	incorrect	navigation	Trial1	navigation/STIM_003.jpg
142.286	2.46	correct	navigation	Trial1	navigation/STIM_003.jpg
147.112	2.771	incorrect	navigation	Trial1	navigation/STIM_004.jpg
153.273	3.973	incorrect	navigation	Trial1	navigation/STIM_004.jpg
160.924	2.192	correct	navigation	Trial1	navigation/STIM_004.jpg
165.923	2.416	correct	navigation	Trial1	navigation/STIM_004.jpg
171.595	3.383	correct	navigation	Trial1	navigation/STIM_004.jpg
177.969	3.139	correct	navigation	Trial1	navigation/STIM_004.jpg
184.971	3.084	correct	navigation	Trial1	navigation/STIM_005.jpg
192.011	2.388	correct	navigation	Trial1	navigation/STIM_005.jpg
197.012	3.295	incorrect	navigation	Trial1	navigation/STIM_005.jpg
203.517	3.717	correct	navigation	Trial1	navigation/STIM_005.jpg
209.983	3.055	incorrect	navigation	Trial1	navigation/STIM_005.jpg
215.369	3.178	correct	navigation	Trial1	navigation/STIM_005.jpg
221.181	4.305	correct	navigation	Trial1	navigation/STIM_006.jpg
227.904	2.621	correct	navigation	Trial1	navigation/STIM_006.jpg
232.838	2.149	correct	navigation	Trial1	navigation/STIM_006.jpg
238.952	2.303	correct	navigation	Trial1	navigation/STIM_006.jpg
244.978	3.822	correct	navigation	Trial1	navigation/STIM_006.jpg
252.81	1.682	correct	navigation	Trial1	navigation/STIM_006.jpg
256.817	2.391	correct	navigation	Trial1	navigation/STIM_007.jpg
262.459	2.906	correct	navigation	Trial1	navigation/STIM_007.jpg
269.099	1.831	incorrect	navigation	Trial1	navigation/STIM_007.jpg
273.783	3.04	incorrect	navigation	Trial1	navigation/STIM_007.jpg
280.258	2.854	correct	navigation	Trial1	navigation/STIM_007.jpg
287.135	3.553	correct	navigation	Trial1	navigation/STIM_007.jpg
293.746	3.7	incorrect	navigation	Trial1	navigation/STIM_008.jpg
300.346	3.7	correct	navigation	Trial1	navigation/STIM_008.jpg
306.981	3.659	correct	navigation	Trial1	navigation/STIM_008.jpg
313.071	2.711	correct	navigation	Trial1	navigation/STIM_008.jpg
318.506	2.544	correct	navigation	Trial1	navigation/STIM_008.jpg
325.062	2.778	correct	navigation	Trial1	navigation/STIM_008.jpg
330.8	2.332	incorrect	navigation	Trial1	navigation/STIM_009.jpg
335.73	4.103	incorrect	navigation	Trial1	navigation/STIM_009.jpg
342.286	3.301	correct	navigation	Trial1	navigation/STIM_009.jpg
349.447	3.058	correct	navigation	Trial1	navigation/STIM_009.jpg
356.236	2.24	correct	navigation	Trial1	navigation/STIM_009.jpg
361.754	1.663	correct	navigation	Trial1	navigation/STIM_009.jpg
366.328	3.563	correct	navigation	Trial1	navigation/STIM_010.jpg
372.653	4.63	incorrect	navigation	Trial1	navigation/STIM_010.jpg
379.739	3.568	correct	navigation	Trial1	navigation/STIM_010.jpg
386.989	2.237	incorrect	navigation	Trial1	navigation/STIM_010.jpg
393.176	3.04	correct	navigation	Trial1	navigation/STIM_010.jpg
398.613	2.206	incorrect	navigation	Trial1	navigation/STIM_010.jpg
403.775	4.757	correct	navigation	Trial1	navigation/STIM_011.jpg
411.218	4.282	correct	navigation	Trial1	navigation/STIM_011.jpg
418.484	3.044	correct	navigation	Trial1	navigation/STIM_011.jpg
423.659	3.483	correct	navigation	Trial1	navigation/STIM_011.jpg
431.007	3.63	correct	navigation	Trial1	navigation/STIM_011.jpg
436.807	2.425	correct	navigation	Trial1	navigation/STIM_011.jpg
442.246	1.19	correct	pointing	Trial1	pointing/STIM_000.jpg
445.815	1.199	correct	pointing	Trial1	pointing/STIM_000.jpg
450.738	0.897	correct	pointing	Trial1	pointing/STIM_000.jpg
453.749	1.171	correct	pointing	Trial1	pointing/STIM_000.jpg
457.614	1.168	correct	pointing	Trial1	pointing/STIM_000.jpg
461.113	0.847	correct	pointing	Trial1	pointing/STIM_000.jpg
465.844	1.325	correct	pointing	Trial1	pointing/STIM_001.jpg
469.793	1.09	correct	pointing	Trial1	pointing/STIM_001.jpg
473.266	1.068	correct	pointing	Trial1	pointing/STIM_001.jpg
478.125	1.25	correct	pointing	Trial1	pointing/STIM_001.jpg
483.017	1.216	correct	pointing	Trial1	pointing/STIM_001.jpg
487.331	1.433	correct	pointing	Trial1	pointing/STIM_001.jpg
492.539	1.05	incorrect	pointing	Trial1	pointing/STIM_002.jpg
497.329	1.254	correct	pointing	Trial1	pointing/STIM_002.jpg
502.564	0.805	correct	pointing	Trial1	pointing/STIM_002.jpg
505.973	0.854	correct	pointing	Trial1	pointing/STIM_002.jpg
509.04	1.317	correct	pointing	Trial1	pointing/STIM_002.jpg
512.743	1.292	correct	pointing	Trial1	pointing/STIM_002.jpg
516.489	1.426	correct	pointing	Trial1	pointing/STIM_003.jpg
521.864	1.1	correct	pointing	Trial1	pointing/STIM_003.jpg
526.591	0.786	correct	pointing	Trial1	pointing/STIM_003.jpg
530.874	1.188	correct	pointing	Trial1	pointing/STIM_003.jpg
535.45	1.254	correct	pointing	Trial1	pointing/STIM_003.jpg
539.588	1.368	correct	pointing	Trial1	pointing/STIM_003.jpg
543.012	0.957	correct	pointing	Trial1	pointing/STIM_004.jpg
547.851	1.259	correct	pointing	Trial1	pointing/STIM_004.jpg
551.538	1.125	correct	pointing	Trial1	pointing/STIM_004.jpg
555.377	0.809	correct	pointing	Trial1	pointing/STIM_004.jpg
558.213	0.996	correct	pointing	Trial1	pointing/STIM_004.jpg
562.262	1.084	correct	pointing	Trial1	pointing/STIM_004.jpg
565.37	1.028	correct	pointing	Trial1	pointing/STIM_005.jpg
568.734	1.126	correct	pointing	Trial1	pointing/STIM_005.jpg
572.063	0.825	correct	pointing	Trial1	pointing/STIM_005.jpg
576.427	0.871	correct	pointing	Trial1	pointing/STIM_005.jpg
580.484	0.952	correct	pointing	Trial1	pointing/STIM_005.jpg
583.643	1.122	correct	pointing	Trial1	pointing/STIM_005.jpg
587.027	1.405	correct	pointing	Trial1	pointing/STIM_006.jpg
590.519	1.211	correct	pointing	Trial1	pointing/STIM_006.jpg
595.274	1.419	correct	pointing	Trial1	pointing/STIM_006.jpg
599.267	1.142	correct	pointing	Trial1	pointing/STIM_006.jpg
602.883	1.311	correct	pointing	Trial1	pointing/STIM_006.jpg
607.057	1.329	correct	pointing	Trial1	pointing/STIM_006.jpg
612.226	1.356	correct	pointing	Trial1	pointing/STIM_007.jpg
616.17	1.054	correct	pointing	Trial1	pointing/STIM_007.jpg
619.857	1.295	correct	pointing	Trial1	pointing/STIM_007.jpg
624.673	1.186	correct	pointing	Trial1	pointing/STIM_007.jpg
629.76	0.906	correct	pointing	Trial1	pointing/STIM_007.jpg
634.463	1.065	correct	pointing	Trial1	pointing/STIM_007.jpg
639.105	0.791	correct	pointing	Trial1	pointing/STIM_008.jpg
643.43	1.12	correct	pointing	Trial1	pointing/STIM_008.jpg
647.514	0.973	incorrect	pointing	Trial1	pointing/STIM_008.jpg
651.856	1.38	correct	pointing	Trial1	pointing/STIM_008.jpg
655.429	1.277	correct	pointing	Trial1	pointing/STIM_008.jpg
659.946	1.19	correct	pointing	Trial1	pointing/STIM_008.jpg
664.932	1.405	incorrect	pointing	Trial1	pointing/STIM_009.jpg
668.458	1.297	correct	pointing	Trial1	pointing/STIM_009.jpg
671.965	1.322	correct	pointing	Trial1	pointing/STIM_009.jpg
676.203	1.368	correct	pointing	Trial1	pointing/STIM_009.jpg
680.224	0.818	correct	pointing	Trial1	pointing/STIM_009.jpg
684.575	0.864	correct	pointing	Trial1	pointing/STIM_009.jpg
689.018	0.967	incorrect	pointing	Trial1	pointing/STIM_010.jpg
693.948	1.127	correct	pointing	Trial1	pointing/STIM_010.jpg
697.47	1.171	correct	pointing	Trial1	pointing/STIM_010.jpg
701.981	0.98	correct	pointing	Trial1	pointing/STIM_010.jpg
706.655	0.798	correct	pointing	Trial1	pointing/STIM_010.jpg
709.81	1.126	correct	pointing	Trial1	pointing/STIM_010.jpg
714.336	1.356	correct	pointing	Trial1	pointing/STIM_011.jpg
718.517	1.394	correct	pointing	Trial1	pointing/STIM_011.jpg
722.907	1.07	correct	pointing	Trial1	pointing/STIM_011.jpg
727.686	1.054	correct	pointing	Trial1	pointing/STIM_011.jpg
732.69	1.192	correct	pointing	Trial1	pointing/STIM_011.jpg
736.926	0.849	correct	pointing	Trial1	pointing/STIM_011.jpg
741.018	3.789	correct	navigation	Trial2	navigation/STIM_000.jpg
748.084	1.872	incorrect	navigation	Trial2	navigation/STIM_000.jpg
753.194	3.342	incorrect	navigation	Trial2	navigation/STIM_000.jpg
760.555	2.981	correct	navigation	Trial2	navigation/STIM_000.jpg
766.861	3.358	correct	navigation	Trial2	navigation/STIM_000.jpg
772.906	2.819	correct	navigation	Trial2	navigation/STIM_000.jpg
778.61	3.911	correct	navigation	Trial2	navigation/STIM_001.jpg
785.72	3.226	correct	navigation	Trial2	navigation/STIM_001.jpg
791.055	1.764	correct	navigation	Trial2	navigation/STIM_001.jpg
796.031	1.459	correct	navigation	Trial2	navigation/STIM_001.jpg
800.785	3.057	incorrect	navigation	Trial2	navigation/STIM_001.jpg
806.617	3.154	correct	navigation	Trial2	navigation/STIM_001.jpg
813.79	2.738	correct	navigation	Trial2	navigation/STIM_002.jpg
818.599	2.456	correct	navigation	Trial2	navigation/STIM_002.jpg
824.374	1.509	incorrect	navigation	Trial2	navigation/STIM_002.jpg
828.772	2.544	incorrect	navigation	Trial2	navigation/STIM_002.jpg
834.349	2.679	correct	navigation	Trial2	navigation/STIM_002.jpg
839.589	2.73	correct	navigation	Trial2	navigation/STIM_002.jpg
845.738	1.863	incorrect	navigation	Trial2	navigation/STIM_003.jpg
849.718	2.904	correct	navigation	Trial2	navigation/STIM_003.jpg
854.992	2.209	incorrect	navigation	Trial2	navigation/STIM_003.jpg
859.537	3.253	correct	navigation	Trial2	navigation/STIM_003.jpg
865.557	2.296	correct	navigation	Trial2	navigation/STIM_003.jpg
870.248	1.501	correct	navigation	Trial2	navigation/STIM_003.jpg
875.03	3.61	correct	navigation	Trial2	navigation/STIM_004.jpg
882.665	3.456	correct	navigation	Trial2	navigation/STIM_004.jpg
889.423	2.494	correct	navigation	Trial2	navigation/STIM_004.jpg
894.497	3.063	correct	navigation	Trial2	navigation/STIM_004.jpg
899.681	3.421	correct	navigation	Trial2	navigation/STIM_004.jpg
905.262	1.374	correct	navigation	Trial2	navigation/STIM_004.jpg
909.366	3.084	correct	navigation	Trial2	navigation/STIM_005.jpg
915.016	2.446	incorrect	navigation	Trial2	navigation/STIM_005.jpg
920.237	2.685	incorrect	navigation	Trial2	navigation/STIM_005.jpg
925.93	3.319	correct	navigation	Trial2	navigation/STIM_005.jpg
931.919	2.763	incorrect	navigation	Trial2	navigation/STIM_005.jpg
938.385	3.009	correct	navigation	Trial2	navigation/STIM_005.jpg
945.058	4.143	correct	navigation	Trial2	navigation/STIM_006.jpg
952.947	3.691	correct	navigation	Trial2	navigation/STIM_006.jpg
960.179	2.432	correct	navigation	Trial2	navigation/STIM_006.jpg
964.931	2.362	correct	navigation	Trial2	navigation/STIM_006.jpg
971.308	1.997	correct	navigation	Trial2	navigation/STIM_006.jpg
976.595	2.138	correct	navigation	Trial2	navigation/STIM_006.jpg
981.461	2.022	correct	navigation	Trial2	navigation/STIM_007.jpg
985.95	3.81	correct	navigation	Trial2	navigation/STIM_007.jpg
992.01	2.564	correct	navigation	Trial2	navigation/STIM_007.jpg
997.515	1.985	correct	navigation	Trial2	navigation/STIM_007.jpg
1001.547	3.245	correct	navigation	Trial2	navigation/STIM_007.jpg
1007.767	2.465	correct	navigation	Trial2	navigation/STIM_007.jpg
1013.379	3.159	correct	navigation	Trial2	navigation/STIM_008.jpg
1020.039	3.108	incorrect	navigation	Trial2	navigation/STIM_008.jpg
1026.98	2.641	correct	navigation	Trial2	navigation/STIM_008.jpg
1033.066	3.422	correct	navigation	Trial2	navigation/STIM_008.jpg
1039.555	3.375	correct	navigation	Trial2	navigation/STIM_008.jpg
1046.785	2.261	correct	navigation	Trial2	navigation/STIM_008.jpg
1051.736	3.668	correct	navigation	Trial2	navigation/STIM_009.jpg
1058.913	2.606	correct	navigation	Trial2	navigation/STIM_009.jpg
1065.314	3.128	incorrect	navigation	Trial2	navigation/STIM_009.jpg
1070.886	1.66	incorrect	navigation	Trial2	navigation/STIM_009.jpg
1075.698	2.203	correct	navigation	Trial2	navigation/STIM_009.jpg
1081.792	1.703	correct	navigation	Trial2	navigation/STIM_009.jpg
1087.083	2.145	correct	navigation	Trial2	navigation/STIM_010.jpg
1091.919	3.553	correct	navigation	Trial2	navigation/STIM_010.jpg
1099.136	3.171	correct	navigation	Trial2	navigation/STIM_010.jpg
1106.223	3.42	incorrect	navigation	Trial2	navigation/STIM_010.jpg
1113.107	1.943	correct	navigation	Trial2	navigation/STIM_010.jpg
1117.698	1.426	correct	navigation	Trial2	navigation/STIM_010.jpg
1122.908	2.364	correct	navigation	Trial2	navigation/STIM_011.jpg
1128.405	3.22	incorrect	navigation	Trial2	navigation/STIM_011.jpg
1134.413	2.713	incorrect	navigation	Trial2	navigation/STIM_011.jpg
1140.106	2.121	correct	navigation	Trial2	navigation/STIM_011.jpg
1145.664	1.708	correct	navigation	Trial2	navigation/STIM_011.jpg
1150.332	2.907	correct	navigation	Trial2	navigation/STIM_011.jpg
1155.783	0.92	correct	pointing	Trial2	pointing/STIM_000.jpg
1158.809	1.128	correct	pointing	Trial2	pointing/STIM_000.jpg
1162.611	1.108	correct	pointing	Trial2	pointing/STIM_000.jpg
1166.792	1.27	correct	pointing	Trial2	pointing/STIM_000.jpg
1170.999	1.43	correct	pointing	Trial2	pointing/STIM_000.jpg
1175.35	1.258	correct	pointing	Trial2	pointing/STIM_000.jpg
1179.311	1.269	correct	pointing	Trial2	pointing/STIM_001.jpg
1183.55	1.317	correct	pointing	Trial2	pointing/STIM_001.jpg
1188.202	1.325	correct	pointing	Trial2	pointing/STIM_001.jpg
1192.316	1.225	correct	pointing	Trial2	pointing/STIM_001.jpg
1197.502	1.364	correct	pointing	Trial2	pointing/STIM_001.jpg
1201.807	0.798	correct	pointing	Trial2	pointing/STIM_001.jpg
1206.402	1.146	correct	pointing	Trial2	pointing/STIM_002.jpg
1210.636	1.336	correct	pointing	Trial2	pointing/STIM_002.jpg
1215.702	0.795	correct	pointing	Trial2	pointing/STIM_002.jpg
1220.437	1.039	correct	pointing	Trial2	pointing/STIM_002.jpg
1225.313	1.132	correct	pointing	Trial2	pointing/STIM_002.jpg
1228.653	1.361	correct	pointing	Trial2	pointing/STIM_002.jpg
1232.251	1.075	incorrect	pointing	Trial2	pointing/STIM_003.jpg
1236.06	0.85	correct	pointing	Trial2	pointing/STIM_003.jpg
1239.976	1.457	correct	pointing	Trial2	pointing/STIM_003.jpg
1244.461	1.069	correct	pointing	Trial2	pointing/STIM_003.jpg
1248.41	1.237	correct	pointing	Trial2	pointing/STIM_003.jpg
1253.227	1.02	correct	pointing	Trial2	pointing/STIM_003.jpg
1256.945	1.352	correct	pointing	Trial2	pointing/STIM_004.jpg
1260.741	1.221	correct	pointing	Trial2	pointing/STIM_004.jpg
1265.09	0.918	correct	pointing	Trial2	pointing/STIM_004.jpg
1269.049	1.451	correct	pointing	Trial2	pointing/STIM_004.jpg
1273.669	1.464	correct	pointing	Trial2	pointing/STIM_004.jpg
1278.299	1.052	correct	pointing	Trial2	pointing/STIM_004.jpg
1283.348	0.904	correct	pointing	Trial2	pointing/STIM_005.jpg
1286.855	0.953	correct	pointing	Trial2	pointing/STIM_005.jpg
1289.975	0.802	correct	pointing	Trial2	pointing/STIM_005.jpg
1293.548	1.062	correct	pointing	Trial2	pointing/STIM_005.jpg
1297.275	1.445	correct	pointing	Trial2	pointing/STIM_005.jpg
1301.046	0.838	correct	pointing	Trial2	pointing/STIM_005.jpg
1305.576	1.325	correct	pointing	Trial2	pointing/STIM_006.jpg
1310.808	1.46	correct	pointing	Trial2	pointing/STIM_006.jpg
1315.975	1.342	correct	pointing	Trial2	pointing/STIM_006.jpg
1320.63	1.4	correct	pointing	Trial2	pointing/STIM_006.jpg
1324.707	1.224	correct	pointing	Trial2	pointing/STIM_006.jpg
1329.465	1.462	correct	pointing	Trial2	pointing/STIM_006.jpg
1334.098	0.798	incorrect	pointing	Trial2	pointing/STIM_007.jpg
1337.016	1.227	incorrect	pointing	Trial2	pointing/STIM_007.jpg
1340.419	1.086	correct	pointing	Trial2	pointing/STIM_007.jpg
1344.297	1.157	correct	pointing	Trial2	pointing/STIM_007.jpg
1347.641	1.214	correct	pointing	Trial2	pointing/STIM_007.jpg
1352.694	1.373	correct	pointing	Trial2	pointing/STIM_007.jpg
1357.658	0.848	correct	pointing	Trial2	pointing/STIM_008.jpg
1360.977	0.938	correct	pointing	Trial2	pointing/STIM_008.jpg
1364.16	1.093	correct	pointing	Trial2	pointing/STIM_008.jpg
1368.472	1.309	correct	pointing	Trial2	pointing/STIM_008.jpg
1373.431	0.86	correct	pointing	Trial2	pointing/STIM_008.jpg
1377.42	1.231	correct	pointing	Trial2	pointing/STIM_008.jpg
1381.333	1.289	correct	pointing	Trial2	pointing/STIM_009.jpg
1385.919	1.382	correct	pointing	Trial2	pointing/STIM_009.jpg
1391.001	1.136	incorrect	pointing	Trial2	pointing/STIM_009.jpg
1396.056	1.11	correct	pointing	Trial2	pointing/STIM_009.jpg
1399.393	0.985	incorrect	pointing	Trial2	pointing/STIM_009.jpg
1404.34	1.068	correct	pointing	Trial2	pointing/STIM_009.jpg
1409.358	0.81	correct	pointing	Trial2	pointing/STIM_010.jpg
1414.06	0.965	correct	pointing	Trial2	pointing/STIM_010.jpg
1417.535	0.984	correct	pointing	Trial2	pointing/STIM_010.jpg
1422.012	1.289	correct	pointing	Trial2	pointing/STIM_010.jpg
1425.357	1.084	correct	pointing	Trial2	pointing/STIM_010.jpg
1430.164	1.038	correct	pointing	Trial2	pointing/STIM_010.jpg
1433.856	1.337	correct	pointing	Trial2	pointing/STIM_011.jpg
1437.377	1.175	incorrect	pointing	Trial2	pointing/STIM_011.jpg
1441.911	1.323	correct	pointing	Trial2	pointing/STIM_011.jpg
1446.187	1.371	correct	pointing	Trial2	pointing/STIM_011.jpg
1450.143	0.795	correct	pointing	Trial2	pointing/STIM_011.jpg
1454.745	1.244	correct	pointing	Trial2	pointing/STIM_011.jpg
1458.232	1.39	correct	navigation	Trial3	navigation/STIM_000.jpg
1462.885	2.913	correct	navigation	Trial3	navigation/STIM_000.jpg
1468.382	2.959	correct	navigation	Trial3	navigation/STIM_000.jpg
1474.271	1.596	correct	navigation	Trial3	navigation/STIM_000.jpg
1479.769	2.573	correct	navigation	Trial3	navigation/STIM_000.jpg
1486.016	1.765	correct	navigation	Trial3	navigation/STIM_000.jpg
1490.413	2.945	correct	navigation	Trial3	navigation/STIM_001.jpg
1496.693	1.486	correct	navigation	Trial3	navigation/STIM_001.jpg
1501.25	2.528	correct	navigation	Trial3	navigation/STIM_001.jpg
1507.531	1.632	correct	navigation	Trial3	navigation/STIM_001.jpg
1511.849	3.405	incorrect	navigation	Trial3	navigation/STIM_001.jpg
1518.787	2.336	correct	navigation	Trial3	navigation/STIM_001.jpg
1524.15	2.702	incorrect	navigation	Trial3	navigation/STIM_002.jpg
1530.245	2.805	correct	navigation	Trial3	navigation/STIM_002.jpg
1535.527	2.481	correct	navigation	Trial3	navigation/STIM_002.jpg
1540.525	2.768	incorrect	navigation	Trial3	navigation/STIM_002.jpg
1546.394	1.815	correct	navigation	Trial3	navigation/STIM_002.jpg
1552.075	2.615	correct	navigation	Trial3	navigation/STIM_002.jpg
1558.444	3.152	correct	navigation	Trial3	navigation/STIM_003.jpg
1565.572	1.459	correct	navigation	Trial3	navigation/STIM_003.jpg
1570.532	1.375	correct	navigation	Trial3	navigation/STIM_003.jpg
1574.088	1.458	correct	navigation	Trial3	navigation/STIM_003.jpg
1578.755	1.902	correct	navigation	Trial3	navigation/STIM_003.jpg
1583.146	1.883	correct	navigation	Trial3	navigation/STIM_003.jpg
1588.602	2.262	correct	navigation	Trial3	navigation/STIM_004.jpg
1593.313	2.628	correct	navigation	Trial3	navigation/STIM_004.jpg
1599.287	2.228	correct	navigation	Trial3	navigation/STIM_004.jpg
1604.772	3.003	correct	navigation	Trial3	navigation/STIM_004.jpg
1610.404	3.426	correct	navigation	Trial3	navigation/STIM_004.jpg
1616.681	3.401	correct	navigation	Trial3	navigation/STIM_004.jpg
1622.695	2.963	correct	navigation	Trial3	navigation/STIM_005.jpg
1628.732	2.342	correct	navigation	Trial3	navigation/STIM_005.jpg
1634.717	3.301	correct	navigation	Trial3	navigation/STIM_005.jpg
1641.865	2.903	correct	navigation	Trial3	navigation/STIM_005.jpg
1648.361	1.386	correct	navigation	Trial3	navigation/STIM_005.jpg
1653.63	2.538	correct	navigation	Trial3	navigation/STIM_005.jpg
1659.82	1.54	correct	navigation	Trial3	navigation/STIM_006.jpg
1663.656	2.517	correct	navigation	Trial3	navigation/STIM_006.jpg
1668.275	3.22	correct	navigation	Trial3	navigation/STIM_006.jpg
1675.428	1.617	correct	navigation	Trial3	navigation/STIM_006.jpg
1680.572	1.961	correct	navigation	Trial3	navigation/STIM_006.jpg
1685.409	1.658	correct	navigation	Trial3	navigation/STIM_006.jpg
1690.501	2.417	correct	navigation	Trial3	navigation/STIM_007.jpg
1696.016	2.486	correct	navigation	Trial3	navigation/STIM_007.jpg
1702.235	2.576	correct	navigation	Trial3	navigation/STIM_007.jpg
1708.212	3.059	correct	navigation	Trial3	navigation/STIM_007.jpg
1713.874	2.412	correct	navigation	Trial3	navigation/STIM_007.jpg
1719.009	2.791	correct	navigation	Trial3	navigation/STIM_007.jpg
1724.678	3.395	correct	navigation	Trial3	navigation/STIM_008.jpg
1731.206	2.609	correct	navigation	Trial3	navigation/STIM_008.jpg
1737.175	1.793	incorrect	navigation	Trial3	navigation/STIM_008.jpg
1741.915	3.194	incorrect	navigation	Trial3	navigation/STIM_008.jpg
1748.794	3.125	incorrect	navigation	Trial3	navigation/STIM_008.jpg
1755.253	3.426	correct	navigation	Trial3	navigation/STIM_008.jpg
1761.684	1.521	correct	navigation	Trial3	navigation/STIM_009.jpg
1766.544	3.362	correct	navigation	Trial3	navigation/STIM_009.jpg
1773.362	3.069	correct	navigation	Trial3	navigation/STIM_009.jpg
1779.501	2.863	correct	navigation	Trial3	navigation/STIM_009.jpg
1784.453	2.576	correct	navigation	Trial3	navigation/STIM_009.jpg
1789.81	2.409	correct	navigation	Trial3	navigation/STIM_009.jpg
1794.882	3.135	correct	navigation	Trial3	navigation/STIM_010.jpg
1802.031	1.752	correct	navigation	Trial3	navigation/STIM_010.jpg
1806.418	1.55	correct	navigation	Trial3	navigation/STIM_010.jpg
1810.087	3.235	correct	navigation	Trial3	navigation/STIM_010.jpg
1815.502	1.535	correct	navigation	Trial3	navigation/STIM_010.jpg
1819.267	1.438	correct	navigation	Trial3	navigation/STIM_010.jpg
1823.325	3.319	correct	navigation	Trial3	navigation/STIM_011.jpg
1829.331	2.528	correct	navigation	Trial3	navigation/STIM_011.jpg
1834.382	1.935	correct	navigation	Trial3	navigation/STIM_011.jpg
1839.356	2.972	correct	navigation	Trial3	navigation/STIM_011.jpg
1844.486	2.317	correct	navigation	Trial3	navigation/STIM_011.jpg
1850.696	3.111	correct	navigation	Trial3	navigation/STIM_011.jpg
1856.06	0.887	correct	pointing	Trial3	pointing/STIM_000.jpg
1859.943	0.943	correct	pointing	Trial3	pointing/STIM_000.jpg
1863.834	1.35	correct	pointing	Trial3	pointing/STIM_000.jpg
1867.278	1.341	correct	pointing	Trial3	pointing/STIM_000.jpg
1870.802	0.9	correct	pointing	Trial3	pointing/STIM_000.jpg
1875.298	1.243	correct	pointing	Trial3	pointing/STIM_000.jpg
1879.647	1.431	correct	pointing	Trial3	pointing/STIM_001.jpg
1883.55	1.337	correct	pointing	Trial3	pointing/STIM_001.jpg
1887.867	1.19	correct	pointing	Trial3	pointing/STIM_001.jpg
1891.303	1.208	correct	pointing	Trial3	pointing/STIM_001.jpg
1896.212	1.375	correct	pointing	Trial3	pointing/STIM_001.jpg
1900.688	1.098	correct	pointing	Trial3	pointing/STIM_001.jpg
1904.758	0.957	correct	pointing	Trial3	pointing/STIM_002.jpg
1907.782	1.44	correct	pointing	Trial3	pointing/STIM_002.jpg
1911.639	1.339	correct	pointing	Trial3	pointing/STIM_002.jpg
1915.687	1.175	correct	pointing	Trial3	pointing/STIM_002.jpg
1920.881	1.262	correct	pointing	Trial3	pointing/STIM_002.jpg
1924.779	1.016	correct	pointing	Trial3	pointing/STIM_002.jpg
1928.118	1.459	correct	pointing	Trial3	pointing/STIM_003.jpg
1932.776	1.443	correct	pointing	Trial3	pointing/STIM_003.jpg
1936.986	1.214	correct	pointing	Trial3	pointing/STIM_003.jpg
1941.868	1.31	correct	pointing	Trial3	pointing/STIM_003.jpg
1945.984	1.232	incorrect	pointing	Trial3	pointing/STIM_003.jpg
1949.331	1.372	correct	pointing	Trial3	pointing/STIM_003.jpg
1954.529	1.055	incorrect	pointing	Trial3	pointing/STIM_004.jpg
1959.023	1.262	correct	pointing	Trial3	pointing/STIM_004.jpg
1964.151	1.097	correct	pointing	Trial3	pointing/STIM_004.jpg
1967.604	1.284	correct	pointing	Trial3	pointing/STIM_004.jpg
1972.48	1.048	correct	pointing	Trial3	pointing/STIM_004.jpg
1976.712	0.989	correct	pointing	Trial3	pointing/STIM_004.jpg
1979.86	1.25	correct	pointing	Trial3	pointing/STIM_005.jpg
1984.308	1.401	correct	pointing	Trial3	pointing/STIM_005.jpg
1989.072	1.305	correct	pointing	Trial3	pointing/STIM_005.jpg
1993.966	1.18	correct	pointing	Trial3	pointing/STIM_005.jpg
1998.722	1.314	correct	pointing	Trial3	pointing/STIM_005.jpg
2002.963	1.12	correct	pointing	Trial3	pointing/STIM_005.jpg
2006.584	0.982	correct	pointing	Trial3	pointing/STIM_006.jpg
2010.185	1.253	correct	pointing	Trial3	pointing/STIM_006.jpg
2014.158	1.048	correct	pointing	Trial3	pointing/STIM_006.jpg
2018.176	0.949	correct	pointing	Trial3	pointing/STIM_006.jpg
2022.199	1.292	correct	pointing	Trial3	pointing/STIM_006.jpg
2026.895	1.257	correct	pointing	Trial3	pointing/STIM_006.jpg
2031.181	1.431	correct	pointing	Trial3	pointing/STIM_007.jpg
2036.614	1.28	correct	pointing	Trial3	pointing/STIM_007.jpg
2041.883	0.865	correct	pointing	Trial3	pointing/STIM_007.jpg
2045.676	1.269	correct	pointing	Trial3	pointing/STIM_007.jpg
2049.071	0.962	correct	pointing	Trial3	pointing/STIM_007.jpg
2053.805	1.229	correct	pointing	Trial3	pointing/STIM_007.jpg
2058.232	1.072	correct	pointing	Trial3	pointing/STIM_008.jpg
2063.035	1.091	correct	pointing	Trial3	pointing/STIM_008.jpg
2066.277	1.359	correct	pointing	Trial3	pointing/STIM_008.jpg
2070.324	0.969	correct	pointing	Trial3	pointing/STIM_008.jpg
2073.718	1.1	correct	pointing	Trial3	pointing/STIM_008.jpg
2077.627	1.01	incorrect	pointing	Trial3	pointing/STIM_008.jpg
2081.628	1.031	correct	pointing	Trial3	pointing/STIM_009.jpg
2085.582	1.16	correct	pointing	Trial3	pointing/STIM_009.jpg
2089.596	1.0	incorrect	pointing	Trial3	pointing/STIM_009.jpg
2093.127	1.34	correct	pointing	Trial3	pointing/STIM_009.jpg
2097.233	1.373	correct	pointing	Trial3	pointing/STIM_009.jpg
2102.356	1.027	correct	pointing	Trial3	pointing/STIM_009.jpg
2107.249	1.269	correct	pointing	Trial3	pointing/STIM_010.jpg
2111.316	1.418	correct	pointing	Trial3	pointing/STIM_010.jpg
2116.309	1.44	correct	pointing	Trial3	pointing/STIM_010.jpg
2121.044	0.99	correct	pointing	Trial3	pointing/STIM_010.jpg
2125.029	1.449	correct	pointing	Trial3	pointing/STIM_010.jpg
2129.983	0.826	correct	pointing	Trial3	pointing/STIM_010.jpg
2132.854	1.444	correct	pointing	Trial3	pointing/STIM_011.jpg
2136.988	1.008	correct	pointing	Trial3	pointing/STIM_011.jpg
2141.356	0.831	correct	pointing	Trial3	pointing/STIM_011.jpg
2144.382	1.157	correct	pointing	Trial3	pointing/STIM_011.jpg
2148.894	0.938	correct	pointing	Trial3	pointing/STIM_011.jpg
2152.674	1.15	incorrect	pointing	Trial3	pointing/STIM_011.jpg
