onset	duration	accuracy_binary	trial_type	learning_stage	stimulus
0.0	1.195	1	2back	Block1	2back/STIM_000.jpg
4.659	1.158	1	2back	Block1	2back/STIM_000.jpg
8.936	0.646	0	2back	Block1	2back/STIM_000.jpg
12.002	0.658	1	2back	Block1	2back/STIM_001.jpg
14.86	1.158	1	2back	Block1	2back/STIM_001.jpg
19.499	0.941	1	2back	Block1	2back/STIM_001.jpg
22.87	1.256	1	2back	Block1	2back/STIM_002.jpg
28.067	1.188	1	2back	Block1	2back/STIM_002.jpg
32.445	0.938	1	2back	Block1	2back/STIM_002.jpg
37.28	1.397	1	2back	Block1	2back/STIM_003.jpg
41.985	1.292	1	2back	Block1	2back/STIM_003.jpg
46.323	0.652	1	2back	Block1	2back/STIM_003.jpg
49.232	0.915	0	2back	Block1	2back/STIM_004.jpg
53.014	1.07	1	2back	Block1	2back/STIM_004.jpg
56.822	0.642	1	2back	Block1	2back/STIM_004.jpg
60.816	1.029	1	2back	Block1	2back/STIM_005.jpg
64.277	1.068	1	2back	Block1	2back/STIM_005.jpg
68.411	0.607	1	2back	Block1	2back/STIM_005.jpg
72.982	1.301	1	2back	Block1	2back/STIM_006.jpg
77.739	1.141	0	2back	Block1	2back/STIM_006.jpg
82.373	1.197	0	2back	Block1	2back/STIM_006.jpg
85.645	0.826	1	2back	Block1	2back/STIM_007.jpg
90.431	0.792	1	2back	Block1	2back/STIM_007.jpg
94.072	1.17	1	2back	Block1	2back/STIM_007.jpg
97.614	1.106	1	2back	Block1	2back/STIM_008.jpg
101.258	1.219	0	2back	Block1	2back/STIM_008.jpg
105.947	0.612	1	2back	Block1	2back/STIM_008.jpg
109.075	1.326	1	2back	Block1	2back/STIM_009.jpg
113.386	1.241	1	2back	Block1	2back/STIM_009.jpg
116.753	0.902	1	2back	Block1	2back/STIM_009.jpg
120.446	1.151	1	2back	Block1	2back/STIM_010.jpg
124.853	0.822	1	2back	Block1	2back/STIM_010.jpg
128.128	1.19	1	2back	Block1	2back/STIM_010.jpg
131.654	1.299	0	2back	Block1	2back/STIM_011.jpg
136.484	1.173	1	2back	Block1	2back/STIM_011.jpg
141.043	0.737	1	2back	Block1	2back/STIM_011.jpg
144.872	0.655	1	2back	Block1	2back/STIM_012.jpg
148.295	1.248	0	2back	Block1	2back/STIM_012.jpg
151.816	0.902	1	2back	Block1	2back/STIM_012.jpg
154.928	1.0	1	2back	Block1	2back/STIM_013.jpg
158.04	0.77	1	2back	Block1	2back/STIM_013.jpg
161.611	1.201	1	2back	Block1	2back/STIM_013.jpg
166.219	1.393	1	2back	Block1	2back/STIM_014.jpg
170.781	0.887	1	2back	Block1	2back/STIM_014.jpg
174.762	0.732	0	2back	Block1	2back/STIM_014.jpg
177.843	0.781	1	2back	Block1	2back/STIM_015.jpg
180.715	0.827	1	2back	Block1	2back/STIM_015.jpg
185.086	0.657	1	2back	Block1	2back/STIM_015.jpg
189.567	1.002	1	2back	Block1	2back/STIM_016.jpg
192.625	0.619	1	2back	Block1	2back/STIM_016.jpg
196.58	1.156	1	2back	Block1	2back/STIM_016.jpg
199.919	1.025	1	2back	Block1	2back/STIM_017.jpg
203.637	1.189	1	2back	Block1	2back/STIM_017.jpg
208.707	1.193	0	2back	Block1	2back/STIM_017.jpg
212.877	1.417	1	2back	Block1	2back/STIM_018.jpg
218.251	1.352	1	2back	Block1	2back/STIM_018.jpg
222.422	0.88	1	2back	Block1	2back/STIM_018.jpg
225.494	1.323	1	2back	Block1	2back/STIM_019.jpg
229.786	0.596	1	2back	Block1	2back/STIM_019.jpg
233.369	0.706	0	2back	Block1	2back/STIM_019.jpg
236.828	0.665	0	2back	Block1	2back/STIM_020.jpg
240.668	1.368	1	2back	Block1	2back/STIM_020.jpg
245.091	0.922	0	2back	Block1	2back/STIM_020.jpg
248.069	0.775	1	2back	Block1	2back/STIM_021.jpg
251.098	0.641	1	2back	Block1	2back/STIM_021.jpg
255.266	0.568	1	2back	Block1	2back/STIM_021.jpg
258.715	1.285	1	2back	Block1	2back/STIM_022.jpg
263.811	1.15	1	2back	Block1	2back/STIM_022.jpg
267.176	1.067	1	2back	Block1	2back/STIM_022.jpg
271.592	0.865	1	2back	Block1	2back/STIM_023.jpg
276.006	0.698	1	2back	Block1	2back/STIM_023.jpg
280.414	0.741	1	2back	Block1	2back/STIM_023.jpg
284.589	0.843	1	2back	Block1	2back/STIM_024.jpg
288.918	1.298	0	2back	Block1	2back/STIM_024.jpg
293.584	1.169	0	2back	Block1	2back/STIM_024.jpg
297.815	1.424	1	2back	Block1	2back/STIM_025.jpg
302.667	1.145	1	2back	Block1	2back/STIM_025.jpg
306.183	0.977	1	2back	Block1	2back/STIM_025.jpg
310.673	1.24	1	2back	Block1	2back/STIM_026.jpg
314.544	0.741	1	2back	Block1	2back/STIM_026.jpg
317.706	1.034	0	2back	Block1	2back/STIM_026.jpg
321.24	0.877	1	2back	Block1	2back/STIM_027.jpg
324.894	1.113	1	2back	Block1	2back/STIM_027.jpg
329.271	0.605	1	2back	Block1	2back/STIM_027.jpg
332.597	1.33	1	2back	Block1	2back/STIM_028.jpg
336.216	0.645	1	2back	Block1	2back/STIM_028.jpg
339.885	1.062	1	2back	Block1	2back/STIM_028.jpg
344.729	0.879	1	2back	Block1	2back/STIM_029.jpg
348.588	0.796	1	2back	Block1	2back/STIM_029.jpg
351.515	1.058	1	2back	Block1	2back/STIM_029.jpg
355.685	1.24	1	2back	Block1	2back/STIM_030.jpg
359.996	0.784	1	2back	Block1	2back/STIM_030.jpg
364.144	1.006	1	2back	Block1	2back/STIM_030.jpg
367.981	1.214	1	2back	Block1	2back/STIM_031.jpg
372.251	0.638	1	2back	Block1	2back/STIM_031.jpg
376.259	1.132	1	2back	Block1	2back/STIM_031.jpg
380.23	1.24	1	2back	Block1	2back/STIM_032.jpg
384.006	1.186	1	2back	Block1	2back/STIM_032.jpg
389.106	1.091	0	2back	Block1	2back/STIM_032.jpg
392.2	1.114	1	2back	Block1	2back/STIM_033.jpg
395.809	1.256	1	2back	Block1	2back/STIM_033.jpg
400.331	1.226	1	2back	Block1	2back/STIM_033.jpg
404.469	0.924	1	2back	Block1	2back/STIM_034.jpg
407.58	1.192	1	2back	Block1	2back/STIM_034.jpg
412.615	1.068	0	2back	Block1	2back/STIM_034.jpg
417.575	0.776	1	2back	Block1	2back/STIM_035.jpg
420.599	1.229	0	2back	Block1	2back/STIM_035.jpg
424.613	0.914	1	2back	Block1	2back/STIM_035.jpg
428.131	0.692	0	2back	Block1	2back/STIM_036.jpg
432.661	0.933	1	2back	Block1	2back/STIM_036.jpg
437.179	0.94	0	2back	Block1	2back/STIM_036.jpg
441.005	1.117	0	2back	Block1	2back/STIM_037.jpg
445.648	1.333	1	2back	Block1	2back/STIM_037.jpg
449.462	1.124	1	2back	Block1	2back/STIM_037.jpg
454.116	0.977	1	2back	Block1	2back/STIM_038.jpg
457.583	1.014	1	2back	Block1	2back/STIM_038.jpg
461.873	0.839	0	2back	Block1	2back/STIM_038.jpg
464.89	1.061	1	2back	Block1	2back/STIM_039.jpg
468.883	0.596	1	2back	Block1	2back/STIM_039.jpg
471.809	0.814	1	2back	Block1	2back/STIM_039.jpg
474.884	0.687	1	0back	Block1	0back/STIM_000.jpg
478.169	0.816	1	0back	Block1	0back/STIM_000.jpg
481.354	0.746	1	0back	Block1	0back/STIM_000.jpg
485.536	0.549	1	0back	Block1	0back/STIM_001.jpg
489.872	0.512	1	0back	Block1	0back/STIM_001.jpg
494.336	0.784	1	0back	Block1	0back/STIM_001.jpg
498.055	0.689	1	0back	Block1	0back/STIM_002.jpg
501.48	0.509	1	0back	Block1	0back/STIM_002.jpg
505.001	0.582	1	0back	Block1	0back/STIM_002.jpg
509.402	0.639	1	0back	Block1	0back/STIM_003.jpg
513.934	0.531	1	0back	Block1	0back/STIM_003.jpg
517.589	0.741	1	0back	Block1	0back/STIM_003.jpg
521.113	0.725	1	0back	Block1	0back/STIM_004.jpg
524.315	0.712	1	0back	Block1	0back/STIM_004.jpg
527.875	0.663	1	0back	Block1	0back/STIM_004.jpg
531.233	0.734	1	0back	Block1	0back/STIM_005.jpg
534.194	0.451	1	0back	Block1	0back/STIM_005.jpg
537.927	0.802	1	0back	Block1	0back/STIM_005.jpg
540.942	0.562	1	0back	Block1	0back/STIM_006.jpg
544.484	0.798	1	0back	Block1	0back/STIM_006.jpg
548.627	0.582	1	0back	Block1	0back/STIM_006.jpg
552.805	0.76	1	0back	Block1	0back/STIM_007.jpg
556.737	0.459	1	0back	Block1	0back/STIM_007.jpg
560.092	0.434	1	0back	Block1	0back/STIM_007.jpg
563.747	0.75	1	0back	Block1	0back/STIM_008.jpg
566.784	0.567	1	0back	Block1	0back/STIM_008.jpg
570.165	0.439	1	0back	Block1	0back/STIM_008.jpg
573.045	0.619	1	0back	Block1	0back/STIM_009.jpg
576.577	0.685	1	0back	Block1	0back/STIM_009.jpg
579.516	0.751	1	0back	Block1	0back/STIM_009.jpg
583.555	0.655	1	0back	Block1	0back/STIM_010.jpg
587.127	0.765	1	0back	Block1	0back/STIM_010.jpg
590.224	0.62	1	0back	Block1	0back/STIM_010.jpg
594.457	0.58	1	0back	Block1	0back/STIM_011.jpg
597.832	0.774	1	0back	Block1	0back/STIM_011.jpg
601.651	0.541	1	0back	Block1	0back/STIM_011.jpg
604.917	0.717	1	0back	Block1	0back/STIM_012.jpg
608.881	0.769	1	0back	Block1	0back/STIM_012.jpg
612.816	0.437	0	0back	Block1	0back/STIM_012.jpg
615.407	0.683	1	0back	Block1	0back/STIM_013.jpg
618.89	0.695	1	0back	Block1	0back/STIM_013.jpg
621.869	0.467	1	0back	Block1	0back/STIM_013.jpg
625.428	0.483	1	0back	Block1	0back/STIM_014.jpg
628.909	0.752	1	0back	Block1	0back/STIM_014.jpg
633.101	0.625	1	0back	Block1	0back/STIM_014.jpg
637.164	0.753	1	0back	Block1	0back/STIM_015.jpg
640.76	0.583	1	0back	Block1	0back/STIM_015.jpg
645.2	0.66	1	0back	Block1	0back/STIM_015.jpg
648.543	0.782	0	0back	Block1	0back/STIM_016.jpg
653.301	0.683	1	0back	Block1	0back/STIM_016.jpg
656.391	0.725	1	0back	Block1	0back/STIM_016.jpg
659.625	0.642	1	0back	Block1	0back/STIM_017.jpg
663.318	0.547	1	0back	Block1	0back/STIM_017.jpg
666.776	0.603	1	0back	Block1	0back/STIM_017.jpg
670.267	0.798	1	0back	Block1	0back/STIM_018.jpg
674.307	0.646	1	0back	Block1	0back/STIM_018.jpg
678.888	0.465	1	0back	Block1	0back/STIM_018.jpg
682.131	0.513	1	0back	Block1	0back/STIM_019.jpg
686.517	0.724	1	0back	Block1	0back/STIM_019.jpg
690.4	0.762	1	0back	Block1	0back/STIM_019.jpg
694.408	1.009	1	2back	Block2	2back/STIM_000.jpg
698.936	0.663	1	2back	Block2	2back/STIM_000.jpg
702.86	1.045	1	2back	Block2	2back/STIM_000.jpg
707.616	1.19	1	2back	Block2	2back/STIM_001.jpg
711.78	0.916	1	2back	Block2	2back/STIM_001.jpg
714.823	0.916	1	2back	Block2	2back/STIM_001.jpg
718.241	0.898	1	2back	Block2	2back/STIM_002.jpg
721.533	0.729	1	2back	Block2	2back/STIM_002.jpg
725.759	0.764	1	2back	Block2	2back/STIM_002.jpg
729.543	0.924	1	2back	Block2	2back/STIM_003.jpg
734.021	0.78	1	2back	Block2	2back/STIM_003.jpg
736.953	0.766	1	2back	Block2	2back/STIM_003.jpg
741.219	0.679	0	2back	Block2	2back/STIM_004.jpg
745.731	0.868	1	2back	Block2	2back/STIM_004.jpg
749.819	0.979	0	2back	Block2	2back/STIM_004.jpg
752.804	1.014	1	2back	Block2	2back/STIM_005.jpg
756.832	0.808	1	2back	Block2	2back/STIM_005.jpg
761.266	0.473	1	2back	Block2	2back/STIM_005.jpg
763.802	1.108	1	2back	Block2	2back/STIM_006.jpg
768.285	0.639	1	2back	Block2	2back/STIM_006.jpg
771.998	0.694	1	2back	Block2	2back/STIM_006.jpg
775.536	1.223	0	2back	Block2	2back/STIM_007.jpg
780.433	0.894	1	2back	Block2	2back/STIM_007.jpg
784.127	0.998	1	2back	Block2	2back/STIM_007.jpg
787.242	1.077	1	2back	Block2	2back/STIM_008.jpg
791.679	0.798	1	2back	Block2	2back/STIM_008.jpg
794.816	0.64	1	2back	Block2	2back/STIM_008.jpg
799.39	0.769	1	2back	Block2	2back/STIM_009.jpg
803.158	0.733	1	2back	Block2	2back/STIM_009.jpg
806.516	0.708	0	2back	Block2	2back/STIM_009.jpg
809.342	0.725	1	2back	Block2	2back/STIM_010.jpg
812.65	0.982	1	2back	Block2	2back/STIM_010.jpg
816.183	0.698	1	2back	Block2	2back/STIM_010.jpg
820.058	0.646	0	2back	Block2	2back/STIM_011.jpg
824.177	0.931	1	2back	Block2	2back/STIM_011.jpg
827.338	0.517	0	2back	Block2	2back/STIM_011.jpg
831.839	0.693	1	2back	Block2	2back/STIM_012.jpg
835.21	0.717	0	2back	Block2	2back/STIM_012.jpg
839.371	0.85	1	2back	Block2	2back/STIM_012.jpg
843.019	0.764	1	2back	Block2	2back/STIM_013.jpg
846.05	1.148	1	2back	Block2	2back/STIM_013.jpg
850.969	0.588	1	2back	Block2	2back/STIM_013.jpg
855.526	0.948	1	2back	Block2	2back/STIM_014.jpg
859.441	0.698	1	2back	Block2	2back/STIM_014.jpg
864.011	0.85	0	2back	Block2	2back/STIM_014.jpg
866.875	1.043	1	2back	Block2	2back/STIM_015.jpg
870.983	0.718	1	2back	Block2	2back/STIM_015.jpg
875.593	0.83	1	2back	Block2	2back/STIM_015.jpg
879.943	1.181	1	2back	Block2	2back/STIM_016.jpg
883.414	0.694	1	2back	Block2	2back/STIM_016.jpg
887.829	1.001	1	2back	Block2	2back/STIM_016.jpg
892.298	0.792	1	2back	Block2	2back/STIM_017.jpg
896.906	0.575	1	2back	Block2	2back/STIM_017.jpg
899.908	0.815	1	2back	Block2	2back/STIM_017.jpg
902.785	1.03	1	2back	Block2	2back/STIM_018.jpg
906.391	0.617	0	2back	Block2	2back/STIM_018.jpg
909.737	0.515	1	2back	Block2	2back/STIM_018.jpg
912.299	1.034	1	2back	Block2	2back/STIM_019.jpg
916.396	0.671	1	2back	Block2	2back/STIM_019.jpg
920.647	0.94	1	2back	Block2	2back/STIM_019.jpg
925.09	1.22	0	2back	Block2	2back/STIM_020.jpg
929.157	0.762	1	2back	Block2	2back/STIM_020.jpg
933.174	0.671	1	2back	Block2	2back/STIM_020.jpg
936.948	1.195	1	2back	Block2	2back/STIM_021.jpg
940.121	0.799	1	2back	Block2	2back/STIM_021.jpg
943.21	0.928	1	2back	Block2	2back/STIM_021.jpg
947.855	1.076	1	2back	Block2	2back/STIM_022.jpg
951.604	1.076	1	2back	Block2	2back/STIM_022.jpg
955.626	1.057	0	2back	Block2	2back/STIM_022.jpg
959.759	1.023	1	2back	Block2	2back/STIM_023.jpg
963.052	0.584	1	2back	Block2	2back/STIM_023.jpg
966.159	0.487	1	2back	Block2	2back/STIM_023.jpg
970.262	0.834	1	2back	Block2	2back/STIM_024.jpg
974.673	1.056	1	2back	Block2	2back/STIM_024.jpg
979.492	1.026	1	2back	Block2	2back/STIM_024.jpg
983.972	0.83	0	2back	Block2	2back/STIM_025.jpg
988.151	1.108	1	2back	Block2	2back/STIM_025.jpg
993.03	0.993	1	2back	Block2	2back/STIM_025.jpg
997.08	0.646	1	2back	Block2	2back/STIM_026.jpg
1000.334	0.842	1	2back	Block2	2back/STIM_026.jpg
1003.947	0.888	1	2back	Block2	2back/STIM_026.jpg
1007.599	0.715	1	2back	Block2	2back/STIM_027.jpg
1010.76	0.735	1	2back	Block2	2back/STIM_027.jpg
1013.832	0.522	1	2back	Block2	2back/STIM_027.jpg
1017.157	0.684	1	2back	Block2	2back/STIM_028.jpg
1020.214	0.744	1	2back	Block2	2back/STIM_028.jpg
1024.207	0.73	1	2back	Block2	2back/STIM_028.jpg
1028.817	1.061	1	2back	Block2	2back/STIM_029.jpg
1033.354	0.561	1	2back	Block2	2back/STIM_029.jpg
1037.077	0.911	1	2back	Block2	2back/STIM_029.jpg
1040.274	1.052	0	2back	Block2	2back/STIM_030.jpg
1044.654	0.562	0	2back	Block2	2back/STIM_030.jpg
1047.872	0.482	1	2back	Block2	2back/STIM_030.jpg
1051.106	0.954	0	2back	Block2	2back/STIM_031.jpg
1055.808	0.694	1	2back	Block2	2back/STIM_031.jpg
1059.33	0.466	1	2back	Block2	2back/STIM_031.jpg
1062.124	0.644	1	2back	Block2	2back/STIM_032.jpg
1065.238	0.924	1	2back	Block2	2back/STIM_032.jpg
1069.543	0.579	1	2back	Block2	2back/STIM_032.jpg
1072.749	1.212	1	2back	Block2	2back/STIM_033.jpg
1077.265	0.519	1	2back	Block2	2back/STIM_033.jpg
1081.261	0.779	1	2back	Block2	2back/STIM_033.jpg
1085.455	0.832	1	2back	Block2	2back/STIM_034.jpg
1090.045	1.0	1	2back	Block2	2back/STIM_034.jpg
1093.588	1.066	1	2back	Block2	2back/STIM_034.jpg
1098.36	0.893	1	2back	Block2	2back/STIM_035.jpg
1103.091	0.725	1	2back	Block2	2back/STIM_035.jpg
1106.346	1.069	1	2back	Block2	2back/STIM_035.jpg
1109.967	0.73	1	2back	Block2	2back/STIM_036.jpg
1113.763	1.139	1	2back	Block2	2back/STIM_036.jpg
1117.326	0.752	1	2back	Block2	2back/STIM_036.jpg
1120.081	1.072	1	2back	Block2	2back/STIM_037.jpg
1123.46	1.01	1	2back	Block2	2back/STIM_037.jpg
1126.445	0.734	1	2back	Block2	2back/STIM_037.jpg
1130.608	0.884	1	2back	Block2	2back/STIM_038.jpg
1134.293	0.795	1	2back	Block2	2back/STIM_038.jpg
1138.077	0.587	1	2back	Block2	2back/STIM_038.jpg
1141.925	0.935	1	2back	Block2	2back/STIM_039.jpg
1145.119	0.907	1	2back	Block2	2back/STIM_039.jpg
1148.217	0.812	1	2back	Block2	2back/STIM_039.jpg
1151.187	0.498	1	0back	Block2	0back/STIM_000.jpg
1153.848	0.679	1	0back	Block2	0back/STIM_000.jpg
1156.949	0.704	1	0back	Block2	0back/STIM_000.jpg
1161.171	0.605	1	0back	Block2	0back/STIM_001.jpg
1164.409	0.559	1	0back	Block2	0back/STIM_001.jpg
1167.768	0.755	1	0back	Block2	0back/STIM_001.jpg
1170.934	0.716	1	0back	Block2	0back/STIM_002.jpg
1175.468	0.745	1	0back	Block2	0back/STIM_002.jpg
1179.398	0.54	1	0back	Block2	0back/STIM_002.jpg
1182.368	0.529	1	0back	Block2	0back/STIM_003.jpg
1186.752	0.625	1	0back	Block2	0back/STIM_003.jpg
1190.183	0.556	1	0back	Block2	0back/STIM_003.jpg
1194.25	0.505	0	0back	Block2	0back/STIM_004.jpg
1197.5	0.76	1	0back	Block2	0back/STIM_004.jpg
1201.574	0.776	1	0back	Block2	0back/STIM_004.jpg
1204.967	0.637	1	0back	Block2	0back/STIM_005.jpg
1209.042	0.772	1	0back	Block2	0back/STIM_005.jpg
1213.261	0.714	1	0back	Block2	0back/STIM_005.jpg
1217.597	0.706	1	0back	Block2	0back/STIM_006.jpg
1222.139	0.548	1	0back	Block2	0back/STIM_006.jpg
1225.879	0.719	1	0back	Block2	0back/STIM_006.jpg
1229.757	0.619	1	0back	Block2	0back/STIM_007.jpg
1232.515	0.49	1	0back	Block2	0back/STIM_007.jpg
1235.052	0.59	1	0back	Block2	0back/STIM_007.jpg
1238.205	0.619	1	0back	Block2	0back/STIM_008.jpg
1241.822	0.518	1	0back	Block2	0back/STIM_008.jpg
1245.398	0.821	1	0back	Block2	0back/STIM_008.jpg
1248.23	0.51	1	0back	Block2	0back/STIM_009.jpg
1252.296	0.551	1	0back	Block2	0back/STIM_009.jpg
1255.649	0.688	1	0back	Block2	0back/STIM_009.jpg
1258.782	0.469	1	0back	Block2	0back/STIM_010.jpg
1262.392	0.474	1	0back	Block2	0back/STIM_010.jpg
1266.692	0.461	1	0back	Block2	0back/STIM_010.jpg
1270.732	0.758	1	0back	Block2	0back/STIM_011.jpg
1274.333	0.458	1	0back	Block2	0back/STIM_011.jpg
1278.655	0.565	0	0back	Block2	0back/STIM_011.jpg
1281.761	0.719	1	0back	Block2	0back/STIM_012.jpg
1284.659	0.585	1	0back	Block2	0back/STIM_012.jpg
1288.767	0.532	1	0back	Block2	0back/STIM_012.jpg
1291.461	0.551	1	0back	Block2	0back/STIM_013.jpg
1294.53	0.454	1	0back	Block2	0back/STIM_013.jpg
1298.813	0.429	1	0back	Block2	0back/STIM_013.jpg
1301.674	0.522	1	0back	Block2	0back/STIM_014.jpg
1304.932	0.416	1	0back	Block2	0back/STIM_014.jpg
1307.806	0.419	1	0back	Block2	0back/STIM_014.jpg
1311.901	0.524	1	0back	Block2	0back/STIM_015.jpg
1316.197	0.745	1	0back	Block2	0back/STIM_015.jpg
1319.974	0.421	1	0back	Block2	0back/STIM_015.jpg
1322.388	0.533	1	0back	Block2	0back/STIM_016.jpg
1325.492	0.703	1	0back	Block2	0back/STIM_016.jpg
1329.809	0.765	1	0back	Block2	0back/STIM_016.jpg
1334.338	0.46	1	0back	Block2	0back/STIM_017.jpg
1338.335	0.673	1	0back	Block2	0back/STIM_017.jpg
1341.084	0.52	1	0back	Block2	0back/STIM_017.jpg
1344.333	0.442	1	0back	Block2	0back/STIM_018.jpg
1347.405	0.766	1	0back	Block2	0back/STIM_018.jpg
1351.93	0.451	1	0back	Block2	0back/STIM_018.jpg
1356.055	0.729	1	0back	Block2	0back/STIM_019.jpg
1359.351	0.792	1	0back	Block2	0back/STIM_019.jpg
1363.243	0.667	1	0back	Block2	0back/STIM_019.jpg
1366.185	0.726	1	2back	Block3	2back/STIM_000.jpg
1369.889	0.685	1	2back	Block3	2back/STIM_000.jpg
1373.167	0.998	1	2back	Block3	2back/STIM_000.jpg
1376.482	0.843	1	2back	Block3	2back/STIM_001.jpg
1380.669	0.962	1	2back	Block3	2back/STIM_001.jpg
1384.955	0.512	1	2back	Block3	2back/STIM_001.jpg
1387.95	0.83	0	2back	Block3	2back/STIM_002.jpg
1391.006	1.006	1	2back	Block3	2back/STIM_002.jpg
1394.797	0.804	1	2back	Block3	2back/STIM_002.jpg
1397.86	0.484	1	2back	Block3	2back/STIM_003.jpg
1401.472	0.735	1	2back	Block3	2back/STIM_003.jpg
1404.824	0.503	1	2back	Block3	2back/STIM_003.jpg
1409.112	0.624	1	2back	Block3	2back/STIM_004.jpg
1413.354	0.62	1	2back	Block3	2back/STIM_004.jpg
1416.887	0.854	1	2back	Block3	2back/STIM_004.jpg
1421.111	0.538	1	2back	Block3	2back/STIM_005.jpg
1425.526	0.824	1	2back	Block3	2back/STIM_005.jpg
1429.554	0.834	1	2back	Block3	2back/STIM_005.jpg
1433.294	0.851	1	2back	Block3	2back/STIM_006.jpg
1436.765	0.683	1	2back	Block3	2back/STIM_006.jpg
1439.576	0.527	1	2back	Block3	2back/STIM_006.jpg
1442.543	0.808	1	2back	Block3	2back/STIM_007.jpg
1447.113	0.447	0	2back	Block3	2back/STIM_007.jpg
1450.215	0.808	1	2back	Block3	2back/STIM_007.jpg
1453.874	0.699	1	2back	Block3	2back/STIM_008.jpg
1456.677	0.511	1	2back	Block3	2back/STIM_008.jpg
1460.059	1.007	1	2back	Block3	2back/STIM_008.jpg
1463.519	0.94	1	2back	Block3	2back/STIM_009.jpg
1467.006	0.702	1	2back	Block3	2back/STIM_009.jpg
1470.152	0.443	1	2back	Block3	2back/STIM_009.jpg
1473.441	0.456	1	2back	Block3	2back/STIM_010.jpg
1477.281	0.692	1	2back	Block3	2back/STIM_010.jpg
1480.571	0.948	1	2back	Block3	2back/STIM_010.jpg
1484.746	0.976	1	2back	Block3	2back/STIM_011.jpg
1488.166	0.527	0	2back	Block3	2back/STIM_011.jpg
1492.207	0.699	1	2back	Block3	2back/STIM_011.jpg
1496.521	0.86	1	2back	Block3	2back/STIM_012.jpg
1500.301	0.99	1	2back	Block3	2back/STIM_012.jpg
1504.804	0.797	1	2back	Block3	2back/STIM_012.jpg
1508.243	0.679	1	2back	Block3	2back/STIM_013.jpg
1511.809	0.881	1	2back	Block3	2back/STIM_013.jpg
1515.755	0.957	1	2back	Block3	2back/STIM_013.jpg
1520.674	0.446	1	2back	Block3	2back/STIM_014.jpg
1524.938	0.823	1	2back	Block3	2back/STIM_014.jpg
1528.4	0.525	1	2back	Block3	2back/STIM_014.jpg
1530.937	0.876	1	2back	Block3	2back/STIM_015.jpg
1533.835	0.666	1	2back	Block3	2back/STIM_015.jpg
1536.586	0.509	1	2back	Block3	2back/STIM_015.jpg
1540.385	0.658	1	2back	Block3	2back/STIM_016.jpg
1544.015	0.922	1	2back	Block3	2back/STIM_016.jpg
1548.519	0.697	1	2back	Block3	2back/STIM_016.jpg
1552.712	0.938	1	2back	Block3	2back/STIM_017.jpg
1556.809	0.85	1	2back	Block3	2back/STIM_017.jpg
1560.24	0.873	1	2back	Block3	2back/STIM_017.jpg
1564.038	0.783	1	2back	Block3	2back/STIM_018.jpg
1567.705	0.918	1	2back	Block3	2back/STIM_018.jpg
1571.106	0.922	1	2back	Block3	2back/STIM_018.jpg
1574.344	0.84	1	2back	Block3	2back/STIM_019.jpg
1577.302	0.803	1	2back	Block3	2back/STIM_019.jpg
1580.269	0.908	1	2back	Block3	2back/STIM_019.jpg
1583.414	0.907	1	2back	Block3	2back/STIM_020.jpg
1588.195	0.74	1	2back	Block3	2back/STIM_020.jpg
1591.783	0.457	1	2back	Block3	2back/STIM_020.jpg
1594.907	0.618	0	2back	Block3	2back/STIM_021.jpg
1597.615	0.977	1	2back	Block3	2back/STIM_021.jpg
1602.261	0.954	0	2back	Block3	2back/STIM_021.jpg
1605.86	0.572	1	2back	Block3	2back/STIM_022.jpg
1608.745	0.864	1	2back	Block3	2back/STIM_022.jpg
1613.139	1.003	1	2back	Block3	2back/STIM_022.jpg
1617.139	0.58	1	2back	Block3	2back/STIM_023.jpg
1620.009	0.958	1	2back	Block3	2back/STIM_023.jpg
1623.357	0.773	1	2back	Block3	2back/STIM_023.jpg
1626.544	0.978	1	2back	Block3	2back/STIM_024.jpg
1629.51	0.691	1	2back	Block3	2back/STIM_024.jpg
1634.13	0.516	1	2back	Block3	2back/STIM_024.jpg
1636.88	0.457	1	2back	Block3	2back/STIM_025.jpg
1640.781	0.846	0	2back	Block3	2back/STIM_025.jpg
1645.024	0.801	1	2back	Block3	2back/STIM_025.jpg
1648.012	0.826	1	2back	Block3	2back/STIM_026.jpg
1651.81	0.86	0	2back	Block3	2back/STIM_026.jpg
1654.662	0.727	0	2back	Block3	2back/STIM_026.jpg
1658.308	0.526	1	2back	Block3	2back/STIM_027.jpg
1661.382	0.726	0	2back	Block3	2back/STIM_027.jpg
1664.2	0.803	1	2back	Block3	2back/STIM_027.jpg
1667.214	0.985	1	2back	Block3	2back/STIM_028.jpg
1670.831	0.968	1	2back	Block3	2back/STIM_028.jpg
1675.101	0.601	1	2back	Block3	2back/STIM_028.jpg
1677.906	0.448	1	2back	Block3	2back/STIM_029.jpg
1680.951	0.487	1	2back	Block3	2back/STIM_029.jpg
1683.574	0.941	1	2back	Block3	2back/STIM_029.jpg
1688.422	0.915	1	2back	Block3	2back/STIM_030.jpg
1692.683	0.781	1	2back	Block3	2back/STIM_030.jpg
1695.562	0.562	1	2back	Block3	2back/STIM_030.jpg
1698.109	0.784	1	2back	Block3	2back/STIM_031.jpg
1701.071	0.864	1	2back	Block3	2back/STIM_031.jpg
1705.687	0.857	1	2back	Block3	2back/STIM_031.jpg
1709.481	0.863	0	2back	Block3	2back/STIM_032.jpg
1713.042	0.683	1	2back	Block3	2back/STIM_032.jpg
1716.169	0.632	1	2back	Block3	2back/STIM_032.jpg
1720.33	0.922	1	2back	Block3	2back/STIM_033.jpg
1724.891	0.528	1	2back	Block3	2back/STIM_033.jpg
1727.587	1.009	1	2back	Block3	2back/STIM_033.jpg
1731.739	0.606	1	2back	Block3	2back/STIM_034.jpg
1735.296	0.866	1	2back	Block3	2back/STIM_034.jpg
1739.979	0.707	1	2back	Block3	2back/STIM_034.jpg
1742.829	0.446	1	2back	Block3	2back/STIM_035.jpg
1746.755	0.844	1	2back	Block3	2back/STIM_035.jpg
1750.144	0.563	1	2back	Block3	2back/STIM_035.jpg
1754.53	0.905	1	2back	Block3	2back/STIM_036.jpg
1757.633	0.77	1	2back	Block3	2back/STIM_036.jpg
1761.019	0.803	1	2back	Block3	2back/STIM_036.jpg
1764.318	0.62	1	2back	Block3	2back/STIM_037.jpg
1768.46	0.614	1	2back	Block3	2back/STIM_037.jpg
1773.054	0.626	1	2back	Block3	2back/STIM_037.jpg
1776.397	0.856	1	2back	Block3	2back/STIM_038.jpg
1779.534	0.592	1	2back	Block3	2back/STIM_038.jpg
1782.244	0.558	1	2back	Block3	2back/STIM_038.jpg
1785.899	0.818	1	2back	Block3	2back/STIM_039.jpg
1789.727	0.741	1	2back	Block3	2back/STIM_039.jpg
1794.435	0.807	1	2back	Block3	2back/STIM_039.jpg
1798.048	0.685	0	0back	Block3	0back/STIM_000.jpg
1801.45	0.54	1	0back	Block3	0back/STIM_000.jpg
1805.76	0.584	1	0back	Block3	0back/STIM_000.jpg
1809.601	0.723	1	0back	Block3	0back/STIM_001.jpg
1814.035	0.603	1	0back	Block3	0back/STIM_001.jpg
1817.336	0.649	1	0back	Block3	0back/STIM_001.jpg
1821.438	0.627	1	0back	Block3	0back/STIM_002.jpg
1825.162	0.592	1	0back	Block3	0back/STIM_002.jpg
1829.323	0.64	1	0back	Block3	0back/STIM_002.jpg
1833.069	0.472	1	0back	Block3	0back/STIM_003.jpg
1836.445	0.709	1	0back	Block3	0back/STIM_003.jpg
1839.683	0.767	1	0back	Block3	0back/STIM_003.jpg
1842.954	0.534	1	0back	Block3	0back/STIM_004.jpg
1845.721	0.622	1	0back	Block3	0back/STIM_004.jpg
1849.132	0.782	1	0back	Block3	0back/STIM_004.jpg
1852.057	0.447	1	0back	Block3	0back/STIM_005.jpg
1854.735	0.42	1	0back	Block3	0back/STIM_005.jpg
1857.206	0.815	1	0back	Block3	0back/STIM_005.jpg
1860.609	0.661	1	0back	Block3	0back/STIM_006.jpg
1864.021	0.471	1	0back	Block3	0back/STIM_006.jpg
1866.519	0.72	1	0back	Block3	0back/STIM_006.jpg
1869.829	0.771	1	0back	Block3	0back/STIM_007.jpg
1874.318	0.809	1	0back	Block3	0back/STIM_007.jpg
1878.255	0.777	1	0back	Block3	0back/STIM_007.jpg
1881.973	0.628	0	0back	Block3	0back/STIM_008.jpg
1884.935	0.539	0	0back	Block3	0back/STIM_008.jpg
1888.106	0.516	0	0back	Block3	0back/STIM_008.jpg
1890.924	0.693	1	0back	Block3	0back/STIM_009.jpg
1895.134	0.812	1	0back	Block3	0back/STIM_009.jpg
1898.285	0.502	1	0back	Block3	0back/STIM_009.jpg
1901.689	0.665	1	0back	Block3	0back/STIM_010.jpg
1905.95	0.722	1	0back	Block3	0back/STIM_010.jpg
1908.75	0.742	1	0back	Block3	0back/STIM_010.jpg
1913.04	0.555	1	0back	Block3	0back/STIM_011.jpg
1916.679	0.59	1	0back	Block3	0back/STIM_011.jpg
1919.64	0.542	1	0back	Block3	0back/STIM_011.jpg
1922.627	0.546	1	0back	Block3	0back/STIM_012.jpg
1927.019	0.497	1	0back	Block3	0back/STIM_012.jpg
1930.346	0.739	1	0back	Block3	0back/STIM_012.jpg
1934.117	0.417	1	0back	Block3	0back/STIM_013.jpg
1937.126	0.487	1	0back	Block3	0back/STIM_013.jpg
1940.887	0.538	1	0back	Block3	0back/STIM_013.jpg
1943.809	0.418	1	0back	Block3	0back/STIM_014.jpg
1946.631	0.819	1	0back	Block3	0back/STIM_014.jpg
1950.864	0.598	1	0back	Block3	0back/STIM_014.jpg
1954.95	0.485	1	0back	Block3	0back/STIM_015.jpg
1959.168	0.615	1	0back	Block3	0back/STIM_015.jpg
1962.616	0.486	1	0back	Block3	0back/STIM_015.jpg
1965.103	0.453	1	0back	Block3	0back/STIM_016.jpg
1968.158	0.685	1	0back	Block3	0back/STIM_016.jpg
1971.946	0.557	1	0back	Block3	0back/STIM_016.jpg
1975.074	0.442	1	0back	Block3	0back/STIM_017.jpg
1978.618	0.506	1	0back	Block3	0back/STIM_017.jpg
1981.747	0.686	1	0back	Block3	0back/STIM_017.jpg
1985.598	0.419	1	0back	Block3	0back/STIM_018.jpg
1988.621	0.689	1	0back	Block3	0back/STIM_018.jpg
1991.4	0.498	1	0back	Block3	0back/STIM_018.jpg
1995.745	0.682	1	0back	Block3	0back/STIM_019.jpg
1999.921	0.718	0	0back	Block3	0back/STIM_019.jpg
2003.644	0.803	1	0back	Block3	0back/STIM_019.jpg
2007.452	0.605	1	2back	Block4	2back/STIM_000.jpg
2011.495	0.665	1	2back	Block4	2back/STIM_000.jpg
2015.593	0.861	1	2back	Block4	2back/STIM_000.jpg
2018.837	0.466	1	2back	Block4	2back/STIM_001.jpg
2022.045	0.921	1	2back	Block4	2back/STIM_001.jpg
2025.088	0.585	1	2back	Block4	2back/STIM_001.jpg
2028.388	0.993	1	2back	Block4	2back/STIM_002.jpg
2031.652	0.592	1	2back	Block4	2back/STIM_002.jpg
2035.993	0.626	1	2back	Block4	2back/STIM_002.jpg
2038.864	0.949	1	2back	Block4	2back/STIM_003.jpg
2042.031	0.636	1	2back	Block4	2back/STIM_003.jpg
2045.988	0.666	1	2back	Block4	2back/STIM_003.jpg
2049.28	0.73	1	2back	Block4	2back/STIM_004.jpg
2052.576	0.942	1	2back	Block4	2back/STIM_004.jpg
2056.117	0.925	1	2back	Block4	2back/STIM_004.jpg
2060.334	0.645	1	2back	Block4	2back/STIM_005.jpg
2063.196	0.84	1	2back	Block4	2back/STIM_005.jpg
2066.44	0.9	1	2back	Block4	2back/STIM_005.jpg
2071.186	0.666	1	2back	Block4	2back/STIM_006.jpg
2075.621	1.001	1	2back	Block4	2back/STIM_006.jpg
2079.082	0.502	1	2back	Block4	2back/STIM_006.jpg
2082.528	0.514	1	2back	Block4	2back/STIM_007.jpg
2086.253	0.583	1	2back	Block4	2back/STIM_007.jpg
2090.029	0.781	1	2back	Block4	2back/STIM_007.jpg
2093.661	0.927	1	2back	Block4	2back/STIM_008.jpg
2097.095	0.895	1	2back	Block4	2back/STIM_008.jpg
2101.641	0.507	1	2back	Block4	2back/STIM_008.jpg
2105.805	0.536	1	2back	Block4	2back/STIM_009.jpg
2109.231	0.563	1	2back	Block4	2back/STIM_009.jpg
2113.137	1.004	0	2back	Block4	2back/STIM_009.jpg
2116.887	0.832	1	2back	Block4	2back/STIM_010.jpg
2121.137	0.881	1	2back	Block4	2back/STIM_010.jpg
2124.05	0.792	1	2back	Block4	2back/STIM_010.jpg
2127.975	0.597	1	2back	Block4	2back/STIM_011.jpg
2131.043	0.754	1	2back	Block4	2back/STIM_011.jpg
2135.357	0.504	1	2back	Block4	2back/STIM_011.jpg
2139.303	0.902	1	2back	Block4	2back/STIM_012.jpg
2143.248	0.838	1	2back	Block4	2back/STIM_012.jpg
2146.798	0.815	1	2back	Block4	2back/STIM_012.jpg
2150.98	0.81	1	2back	Block4	2back/STIM_013.jpg
2154.034	0.964	1	2back	Block4	2back/STIM_013.jpg
2158.256	0.986	1	2back	Block4	2back/STIM_013.jpg
2163.156	0.648	1	2back	Block4	2back/STIM_014.jpg
2166.494	0.79	1	2back	Block4	2back/STIM_014.jpg
2170.946	0.702	1	2back	Block4	2back/STIM_014.jpg
2175.445	0.895	1	2back	Block4	2back/STIM_015.jpg
2178.945	0.955	1	2back	Block4	2back/STIM_015.jpg
2182.79	0.573	1	2back	Block4	2back/STIM_015.jpg
2185.752	0.536	1	2back	Block4	2back/STIM_016.jpg
2189.995	0.936	1	2back	Block4	2back/STIM_016.jpg
2194.228	0.794	1	2back	Block4	2back/STIM_016.jpg
2197.102	0.45	1	2back	Block4	2back/STIM_017.jpg
2199.828	0.465	1	2back	Block4	2back/STIM_017.jpg
2202.951	0.837	1	2back	Block4	2back/STIM_017.jpg
2205.851	0.715	1	2back	Block4	2back/STIM_018.jpg
2208.721	0.842	1	2back	Block4	2back/STIM_018.jpg
2212.936	0.968	1	2back	Block4	2back/STIM_018.jpg
2216.751	0.861	1	2back	Block4	2back/STIM_019.jpg
2220.042	0.7	1	2back	Block4	2back/STIM_019.jpg
2222.955	0.697	1	2back	Block4	2back/STIM_019.jpg
2227.482	0.619	1	2back	Block4	2back/STIM_020.jpg
2231.422	0.807	1	2back	Block4	2back/STIM_020.jpg
2234.838	0.602	1	2back	Block4	2back/STIM_020.jpg
2237.457	0.962	1	2back	Block4	2back/STIM_021.jpg
2240.961	0.452	1	2back	Block4	2back/STIM_021.jpg
2244.878	0.675	1	2back	Block4	2back/STIM_021.jpg
2249.252	0.645	1	2back	Block4	2back/STIM_022.jpg
2253.392	0.953	1	2back	Block4	2back/STIM_022.jpg
2256.44	0.929	1	2back	Block4	2back/STIM_022.jpg
2260.081	0.44	1	2back	Block4	2back/STIM_023.jpg
2264.428	0.443	1	2back	Block4	2back/STIM_023.jpg
2267.754	0.878	1	2back	Block4	2back/STIM_023.jpg
2270.688	0.761	1	2back	Block4	2back/STIM_024.jpg
2273.81	0.758	1	2back	Block4	2back/STIM_024.jpg
2277.794	0.843	1	2back	Block4	2back/STIM_024.jpg
2281.288	0.733	1	2back	Block4	2back/STIM_025.jpg
2284.017	0.531	1	2back	Block4	2back/STIM_025.jpg
2287.677	0.67	1	2back	Block4	2back/STIM_025.jpg
2290.558	0.628	1	2back	Block4	2back/STIM_026.jpg
2293.326	0.635	1	2back	Block4	2back/STIM_026.jpg
2297.501	0.843	1	2back	Block4	2back/STIM_026.jpg
2300.824	0.482	0	2back	Block4	2back/STIM_027.jpg
2304.632	0.67	1	2back	Block4	2back/STIM_027.jpg
2308.732	0.734	1	2back	Block4	2back/STIM_027.jpg
2312.733	0.74	1	2back	Block4	2back/STIM_028.jpg
2316.427	0.695	1	2back	Block4	2back/STIM_028.jpg
2319.795	0.474	1	2back	Block4	2back/STIM_028.jpg
2323.803	0.603	1	2back	Block4	2back/STIM_029.jpg
2327.369	0.89	1	2back	Block4	2back/STIM_029.jpg
2330.943	0.494	1	2back	Block4	2back/STIM_029.jpg
2334.205	0.64	1	2back	Block4	2back/STIM_030.jpg
2337.597	0.567	1	2back	Block4	2back/STIM_030.jpg
2341.448	0.834	1	2back	Block4	2back/STIM_030.jpg
2346.018	0.795	1	2back	Block4	2back/STIM_031.jpg
2349.562	0.756	1	2back	Block4	2back/STIM_031.jpg
2354.264	0.477	1	2back	Block4	2back/STIM_031.jpg
2358.248	0.532	1	2back	Block4	2back/STIM_032.jpg
2360.874	0.919	1	2back	Block4	2back/STIM_032.jpg
2363.788	0.803	1	2back	Block4	2back/STIM_032.jpg
2367.693	0.795	1	2back	Block4	2back/STIM_033.jpg
2371.221	0.471	1	2back	Block4	2back/STIM_033.jpg
2375.026	0.881	1	2back	Block4	2back/STIM_033.jpg
2379.643	0.657	1	2back	Block4	2back/STIM_034.jpg
2383.734	0.539	1	2back	Block4	2back/STIM_034.jpg
2387.609	0.824	1	2back	Block4	2back/STIM_034.jpg
2390.456	0.528	1	2back	Block4	2back/STIM_035.jpg
2393.448	0.697	1	2back	Block4	2back/STIM_035.jpg
2397.043	0.529	0	2back	Block4	2back/STIM_035.jpg
2399.814	0.61	1	2back	Block4	2back/STIM_036.jpg
2404.398	0.712	1	2back	Block4	2back/STIM_036.jpg
2408.485	0.576	1	2back	Block4	2back/STIM_036.jpg
2411.1	0.696	1	2back	Block4	2back/STIM_037.jpg
2415.563	0.846	1	2back	Block4	2back/STIM_037.jpg
2418.967	0.903	1	2back	Block4	2back/STIM_037.jpg
2422.097	0.643	1	2back	Block4	2back/STIM_038.jpg
2424.776	0.581	1	2back	Block4	2back/STIM_038.jpg
2428.813	0.843	1	2back	Block4	2back/STIM_038.jpg
2432.289	0.92	1	2back	Block4	2back/STIM_039.jpg
2436.803	0.521	1	2back	Block4	2back/STIM_039.jpg
2439.792	0.8	1	2back	Block4	2back/STIM_039.jpg
2442.743	0.72	1	0back	Block4	0back/STIM_000.jpg
2446.767	0.794	1	0back	Block4	0back/STIM_000.jpg
2449.653	0.779	1	0back	Block4	0back/STIM_000.jpg
2454.387	0.434	1	0back	Block4	0back/STIM_001.jpg
2458.107	0.572	1	0back	Block4	0back/STIM_001.jpg
2460.947	0.809	1	0back	Block4	0back/STIM_001.jpg
2463.827	0.566	1	0back	Block4	0back/STIM_002.jpg
2467.408	0.52	1	0back	Block4	0back/STIM_002.jpg
2470.158	0.656	1	0back	Block4	0back/STIM_002.jpg
2472.939	0.582	1	0back	Block4	0back/STIM_003.jpg
2476.956	0.699	1	0back	Block4	0back/STIM_003.jpg
2479.867	0.646	1	0back	Block4	0back/STIM_003.jpg
2483.985	0.437	1	0back	Block4	0back/STIM_004.jpg
2487.563	0.651	1	0back	Block4	0back/STIM_004.jpg
2491.192	0.676	1	0back	Block4	0back/STIM_004.jpg
2495.166	0.707	1	0back	Block4	0back/STIM_005.jpg
2498.158	0.636	1	0back	Block4	0back/STIM_005.jpg
2502.393	0.662	1	0back	Block4	0back/STIM_005.jpg
2507.001	0.534	1	0back	Block4	0back/STIM_006.jpg
2511.065	0.498	1	0back	Block4	0back/STIM_006.jpg
2514.314	0.822	1	0back	Block4	0back/STIM_006.jpg
2517.305	0.423	1	0back	Block4	0back/STIM_007.jpg
2519.805	0.798	1	0back	Block4	0back/STIM_007.jpg
2522.636	0.707	1	0back	Block4	0back/STIM_007.jpg
2525.487	0.458	1	0back	Block4	0back/STIM_008.jpg
2529.542	0.748	1	0back	Block4	0back/STIM_008.jpg
2534.007	0.544	1	0back	Block4	0back/STIM_008.jpg
2536.897	0.658	1	0back	Block4	0back/STIM_009.jpg
2539.997	0.532	1	0back	Block4	0back/STIM_009.jpg
2543.645	0.718	1	0back	Block4	0back/STIM_009.jpg
2546.6	0.444	1	0back	Block4	0back/STIM_010.jpg
2549.353	0.728	1	0back	Block4	0back/STIM_010.jpg
2553.572	0.574	1	0back	Block4	0back/STIM_010.jpg
2556.288	0.472	1	0back	Block4	0back/STIM_011.jpg
2559.437	0.582	1	0back	Block4	0back/STIM_011.jpg
2562.317	0.819	1	0back	Block4	0back/STIM_011.jpg
2565.575	0.44	1	0back	Block4	0back/STIM_012.jpg
2569.987	0.541	1	0back	Block4	0back/STIM_012.jpg
2572.856	0.435	1	0back	Block4	0back/STIM_012.jpg
2577.132	0.459	1	0back	Block4	0back/STIM_013.jpg
2580.718	0.513	1	0back	Block4	0back/STIM_013.jpg
2583.236	0.431	1	0back	Block4	0back/STIM_013.jpg
2587.326	0.752	1	0back	Block4	0back/STIM_014.jpg
2590.702	0.613	1	0back	Block4	0back/STIM_014.jpg
2595.055	0.498	1	0back	Block4	0back/STIM_014.jpg
2598.995	0.518	1	0back	Block4	0back/STIM_015.jpg
2603.425	0.694	1	0back	Block4	0back/STIM_015.jpg
2607.059	0.488	1	0back	Block4	0back/STIM_015.jpg
2609.731	0.413	1	0back	Block4	0back/STIM_016.jpg
2612.554	0.585	1	0back	Block4	0back/STIM_016.jpg
2615.85	0.687	1	0back	Block4	0back/STIM_016.jpg
2620.296	0.494	1	0back	Block4	0back/STIM_017.jpg
2623.006	0.718	1	0back	Block4	0back/STIM_017.jpg
2627.175	0.494	1	0back	Block4	0back/STIM_017.jpg
2629.924	0.456	1	0back	Block4	0back/STIM_018.jpg
2632.392	0.785	1	0back	Block4	0back/STIM_018.jpg
2636.562	0.569	1	0back	Block4	0back/STIM_018.jpg
2639.118	0.751	1	0back	Block4	0back/STIM_019.jpg
2642.575	0.532	1	0back	Block4	0back/STIM_019.jpg
2646.75	0.51	1	0back	Block4	0back/STIM_019.jpg
