onset	duration	response_time_ms	trial_type	learning_stage	stimulus	response_port
0.0	0.862	862.4	2back	Block1	2back/STIM_000.jpg	99
3.315	0.644	644.4	2back	Block1	2back/STIM_000.jpg	100
6.795	0.54	540.3	2back	Block1	2back/STIM_000.jpg	100
11.095	1.042	1042.2	2back	Block1	2back/STIM_001.jpg	99
14.263	1.014	1013.6	2back	Block1	2back/STIM_001.jpg	99
19.158	0.666	665.9	2back	Block1	2back/STIM_001.jpg	100
22.461	1.246	1246.5	2back	Block1	2back/STIM_002.jpg	99
26.091	0.737	737.2	2back	Block1	2back/STIM_002.jpg	99
30.141	0.65	650.1	2back	Block1	2back/STIM_002.jpg	99
33.545	0.608	608.5	2back	Block1	2back/STIM_003.jpg	99
36.237	0.595	595.3	2back	Block1	2back/STIM_003.jpg	100
40.249	0.758	757.6	2back	Block1	2back/STIM_003.jpg	99
44.64	0.845	844.9	2back	Block1	2back/STIM_004.jpg	99
48.787	0.847	847.0	2back	Block1	2back/STIM_004.jpg	100
53.185	0.561	560.9	2back	Block1	2back/STIM_004.jpg	99
57.373	1.033	1033.0	2back	Block1	2back/STIM_005.jpg	99
62.077	0.875	874.8	2back	Block1	2back/STIM_005.jpg	99
66.367	1.025	1024.8	2back	Block1	2back/STIM_005.jpg	100
69.829	0.823	822.6	2back	Block1	2back/STIM_006.jpg	99
72.667	0.87	869.9	2back	Block1	2back/STIM_006.jpg	100
77.32	0.991	990.7	2back	Block1	2back/STIM_006.jpg	100
81.333	1.217	1216.6	2back	Block1	2back/STIM_007.jpg	99
85.404	1.224	1224.5	2back	Block1	2back/STIM_007.jpg	100
88.931	0.643	642.8	2back	Block1	2back/STIM_007.jpg	100
93.498	1.216	1216.2	2back	Block1	2back/STIM_008.jpg	100
97.179	0.87	869.8	2back	Block1	2back/STIM_008.jpg	100
100.963	0.864	864.5	2back	Block1	2back/STIM_008.jpg	100
104.175	1.008	1007.7	2back	Block1	2back/STIM_009.jpg	99
107.231	1.1	1100.2	2back	Block1	2back/STIM_009.jpg	100
112.102	0.61	610.2	2back	Block1	2back/STIM_009.jpg	99
116.102	1.065	1065.4	2back	Block1	2back/STIM_010.jpg	99
119.975	0.735	735.2	2back	Block1	2back/STIM_010.jpg	100
123.761	1.11	1109.7	2back	Block1	2back/STIM_010.jpg	99
127.88	0.597	597.2	2back	Block1	2back/STIM_011.jpg	100
131.43	0.921	921.4	2back	Block1	2back/STIM_011.jpg	100
135.5	1.118	1117.5	2back	Block1	2back/STIM_011.jpg	100
139.112	0.694	693.5	2back	Block1	2back/STIM_012.jpg	100
142.371	1.272	1272.1	2back	Block1	2back/STIM_012.jpg	99
146.019	0.606	605.8	2back	Block1	2back/STIM_012.jpg	99
149.424	0.935	935.1	2back	Block1	2back/STIM_013.jpg	100
152.667	0.564	564.5	2back	Block1	2back/STIM_013.jpg	99
157.069	1.096	1096.3	2back	Block1	2back/STIM_013.jpg	99
161.665	0.995	995.0	2back	Block1	2back/STIM_014.jpg	100
164.941	0.844	843.6	2back	Block1	2back/STIM_014.jpg	99
169.534	0.867	867.0	2back	Block1	2back/STIM_014.jpg	99
172.43	1.237	1237.4	2back	Block1	2back/STIM_015.jpg	99
176.89	1.21	1209.6	2back	Block1	2back/STIM_015.jpg	99
182.05	0.882	881.6	2back	Block1	2back/STIM_015.jpg	99
185.51	1.113	1112.7	2back	Block1	2back/STIM_016.jpg	99
189.741	0.934	934.4	2back	Block1	2back/STIM_016.jpg	100
194.552	0.719	719.4	2back	Block1	2back/STIM_016.jpg	99
197.701	1.242	1241.8	2back	Block1	2back/STIM_017.jpg	99
202.491	0.763	763.2	2back	Block1	2back/STIM_017.jpg	99
205.323	0.821	820.9	2back	Block1	2back/STIM_017.jpg	100
209.177	1.133	1133.3	2back	Block1	2back/STIM_018.jpg	100
212.43	1.234	1234.3	2back	Block1	2back/STIM_018.jpg	99
216.082	0.917	916.8	2back	Block1	2back/STIM_018.jpg	99
219.446	0.777	777.4	2back	Block1	2back/STIM_019.jpg	99
222.777	1.289	1288.6	2back	Block1	2back/STIM_019.jpg	100
227.614	0.843	843.0	2back	Block1	2back/STIM_019.jpg	99
232.041	0.966	966.0	2back	Block1	2back/STIM_020.jpg	100
235.252	0.928	927.8	2back	Block1	2back/STIM_020.jpg	99
239.679	1.085	1084.6	2back	Block1	2back/STIM_020.jpg	99
243.314	1.323	1323.4	2back	Block1	2back/STIM_021.jpg	99
247.848	1.079	1079.4	2back	Block1	2back/STIM_021.jpg	99
251.307	1.057	1056.8	2back	Block1	2back/STIM_021.jpg	100
255.39	0.603	603.0	2back	Block1	2back/STIM_022.jpg	99
259.495	1.185	1185.4	2back	Block1	2back/STIM_022.jpg	100
264.511	0.922	922.0	2back	Block1	2back/STIM_022.jpg	99
268.924	0.84	840.0	2back	Block1	2back/STIM_023.jpg	100
272.616	0.988	988.5	2back	Block1	2back/STIM_023.jpg	99
276.112	0.832	831.6	2back	Block1	2back/STIM_023.jpg	99
279.213	1.015	1015.4	2back	Block1	2back/STIM_024.jpg	100
283.621	0.696	696.2	2back	Block1	2back/STIM_024.jpg	99
286.513	0.862	862.4	2back	Block1	2back/STIM_024.jpg	100
290.7	1.309	1309.4	2back	Block1	2back/STIM_025.jpg	99
294.366	1.02	1020.4	2back	Block1	2back/STIM_025.jpg	100
298.149	0.878	878.4	2back	Block1	2back/STIM_025.jpg	100
302.534	1.129	1129.3	2back	Block1	2back/STIM_026.jpg	99
307.283	0.728	728.2	2back	Block1	2back/STIM_026.jpg	99
310.71	0.945	944.9	2back	Block1	2back/STIM_026.jpg	100
314.188	0.951	950.9	2back	Block1	2back/STIM_027.jpg	99
318.172	1.202	1201.7	2back	Block1	2back/STIM_027.jpg	100
323.265	0.692	691.5	2back	Block1	2back/STIM_027.jpg	99
326.196	0.791	791.2	2back	Block1	2back/STIM_028.jpg	100
330.485	0.757	757.4	2back	Block1	2back/STIM_028.jpg	99
333.412	0.735	734.7	2back	Block1	2back/STIM_028.jpg	100
337.454	0.864	864.1	2back	Block1	2back/STIM_029.jpg	100
341.61	0.589	588.9	2back	Block1	2back/STIM_029.jpg	99
345.02	1.116	1115.6	2back	Block1	2back/STIM_029.jpg	99
348.215	0.972	972.0	2back	Block1	2back/STIM_030.jpg	100
351.654	0.636	636.0	2back	Block1	2back/STIM_030.jpg	100
354.668	0.536	536.0	2back	Block1	2back/STIM_030.jpg	100
358.469	1.286	1286.4	2back	Block1	2back/STIM_031.jpg	99
362.686	1.154	1154.2	2back	Block1	2back/STIM_031.jpg	99
367.416	1.177	1176.8	2back	Block1	2back/STIM_031.jpg	100
370.683	1.316	1316.1	2back	Block1	2back/STIM_032.jpg	99
374.694	1.197	1197.0	2back	Block1	2back/STIM_032.jpg	99
378.345	0.671	671.4	2back	Block1	2back/STIM_032.jpg	100
382.107	1.206	1205.7	2back	Block1	2back/STIM_033.jpg	99
385.743	0.777	777.3	2back	Block1	2back/STIM_033.jpg	99
390.368	1.198	1197.6	2back	Block1	2back/STIM_033.jpg	100
394.913	1.262	1262.4	2back	Block1	2back/STIM_034.jpg	100
399.872	1.038	1037.8	2back	Block1	2back/STIM_034.jpg	99
403.13	1.108	1107.5	2back	Block1	2back/STIM_034.jpg	100
408.182	0.833	833.1	2back	Block1	2back/STIM_035.jpg	100
412.533	0.676	676.1	2back	Block1	2back/STIM_035.jpg	99
416.168	1.028	1028.4	2back	Block1	2back/STIM_035.jpg	99
420.484	0.631	630.7	2back	Block1	2back/STIM_036.jpg	99
423.79	0.817	816.8	2back	Block1	2back/STIM_036.jpg	100
427.183	0.895	895.1	2back	Block1	2back/STIM_036.jpg	99
431.305	0.594	593.6	2back	Block1	2back/STIM_037.jpg	100
434.969	1.179	1178.9	2back	Block1	2back/STIM_037.jpg	100
439.57	0.612	612.5	2back	Block1	2back/STIM_037.jpg	100
442.917	0.832	832.0	2back	Block1	2back/STIM_038.jpg	100
446.378	0.59	589.9	2back	Block1	2back/STIM_038.jpg	100
450.159	0.628	628.1	2back	Block1	2back/STIM_038.jpg	100
453.449	1.272	1272.4	2back	Block1	2back/STIM_039.jpg	99
458.651	0.997	996.9	2back	Block1	2back/STIM_039.jpg	100
463.118	0.824	824.5	2back	Block1	2back/STIM_039.jpg	100
467.353	0.663	662.6	0back	Block1	0back/STIM_000.jpg	99
471.258	0.481	480.9	0back	Block1	0back/STIM_000.jpg	99
475.118	0.569	568.7	0back	Block1	0back/STIM_000.jpg	99
478.466	0.608	607.8	0back	Block1	0back/STIM_001.jpg	100
481.528	0.535	534.9	0back	Block1	0back/STIM_001.jpg	99
485.827	0.72	720.1	0back	Block1	0back/STIM_001.jpg	100
488.6	0.429	429.0	0back	Block1	0back/STIM_002.jpg	99
492.162	0.685	685.2	0back	Block1	0back/STIM_002.jpg	99
496.719	0.527	526.6	0back	Block1	0back/STIM_002.jpg	99
500.674	0.454	453.7	0back	Block1	0back/STIM_003.jpg	100
503.323	0.546	545.7	0back	Block1	0back/STIM_003.jpg	100
507.221	0.726	725.6	0back	Block1	0back/STIM_003.jpg	100
511.422	0.692	692.0	0back	Block1	0back/STIM_004.jpg	100
515.882	0.572	571.5	0back	Block1	0back/STIM_004.jpg	99
519.993	0.648	648.5	0back	Block1	0back/STIM_004.jpg	99
523.968	0.765	764.7	0back	Block1	0back/STIM_005.jpg	100
527.268	0.518	518.2	0back	Block1	0back/STIM_005.jpg	99
530.945	0.644	644.2	0back	Block1	0back/STIM_005.jpg	100
534.66	0.455	455.2	0back	Block1	0back/STIM_006.jpg	99
537.448	0.395	395.4	0back	Block1	0back/STIM_006.jpg	100
540.486	0.518	517.5	0back	Block1	0back/STIM_006.jpg	100
544.275	0.46	460.4	0back	Block1	0back/STIM_007.jpg	99
546.81	0.501	500.8	0back	Block1	0back/STIM_007.jpg	100
550.996	0.456	455.7	0back	Block1	0back/STIM_007.jpg	99
554.32	0.449	448.6	0back	Block1	0back/STIM_008.jpg	99
557.057	0.501	500.9	0back	Block1	0back/STIM_008.jpg	99
559.708	0.61	610.2	0back	Block1	0back/STIM_008.jpg	99
563.74	0.62	620.1	0back	Block1	0back/STIM_009.jpg	100
568.295	0.563	562.6	0back	Block1	0back/STIM_009.jpg	99
570.957	0.632	631.6	0back	Block1	0back/STIM_009.jpg	100
573.991	0.471	471.1	0back	Block1	0back/STIM_010.jpg	100
577.066	0.614	614.5	0back	Block1	0back/STIM_010.jpg	99
579.707	0.631	631.4	0back	Block1	0back/STIM_010.jpg	99
583.687	0.643	642.7	0back	Block1	0back/STIM_011.jpg	100
587.099	0.419	419.1	0back	Block1	0back/STIM_011.jpg	100
589.624	0.394	393.6	0back	Block1	0back/STIM_011.jpg	100
592.727	0.389	389.3	0back	Block1	0back/STIM_012.jpg	100
597.101	0.576	575.7	0back	Block1	0back/STIM_012.jpg	100
600.409	0.462	461.8	0back	Block1	0back/STIM_012.jpg	100
603.515	0.628	628.4	0back	Block1	0back/STIM_013.jpg	99
606.586	0.656	656.1	0back	Block1	0back/STIM_013.jpg	99
609.989	0.417	416.8	0back	Block1	0back/STIM_013.jpg	99
612.919	0.651	650.8	0back	Block1	0back/STIM_014.jpg	100
615.822	0.45	450.2	0back	Block1	0back/STIM_014.jpg	99
619.997	0.569	569.3	0back	Block1	0back/STIM_014.jpg	99
624.312	0.416	416.4	0back	Block1	0back/STIM_015.jpg	99
627.324	0.597	596.9	0back	Block1	0back/STIM_015.jpg	99
630.793	0.595	594.9	0back	Block1	0back/STIM_015.jpg	99
634.104	0.761	761.3	0back	Block1	0back/STIM_016.jpg	99
638.123	0.62	620.0	0back	Block1	0back/STIM_016.jpg	99
641.801	0.599	598.6	0back	Block1	0back/STIM_016.jpg	100
644.623	0.493	492.8	0back	Block1	0back/STIM_017.jpg	100
648.869	0.731	730.8	0back	Block1	0back/STIM_017.jpg	100
652.883	0.571	570.7	0back	Block1	0back/STIM_017.jpg	100
656.162	0.699	699.2	0back	Block1	0back/STIM_018.jpg	100
660.656	0.52	520.0	0back	Block1	0back/STIM_018.jpg	99
663.55	0.446	446.5	0back	Block1	0back/STIM_018.jpg	99
666.464	0.756	756.0	0back	Block1	0back/STIM_019.jpg	99
669.685	0.403	403.1	0back	Block1	0back/STIM_019.jpg	99
673.139	0.46	459.7	0back	Block1	0back/STIM_019.jpg	99
677.584	0.98	980.5	2back	Block2	2back/STIM_000.jpg	100
682.279	1.063	1063.4	2back	Block2	2back/STIM_000.jpg	100
685.612	0.482	481.7	2back	Block2	2back/STIM_000.jpg	99
689.257	1.103	1103.1	2back	Block2	2back/STIM_001.jpg	99
693.875	1.084	1084.0	2back	Block2	2back/STIM_001.jpg	100
698.694	0.853	852.8	2back	Block2	2back/STIM_001.jpg	100
702.983	0.991	991.2	2back	Block2	2back/STIM_002.jpg	99
706.22	0.856	856.5	2back	Block2	2back/STIM_002.jpg	100
709.307	0.459	459.2	2back	Block2	2back/STIM_002.jpg	100
712.393	1.133	1133.2	2back	Block2	2back/STIM_003.jpg	99
716.815	0.777	776.8	2back	Block2	2back/STIM_003.jpg	99
720.392	0.77	769.6	2back	Block2	2back/STIM_003.jpg	100
723.944	0.568	568.5	2back	Block2	2back/STIM_004.jpg	99
728.171	0.502	502.2	2back	Block2	2back/STIM_004.jpg	99
730.994	0.95	949.7	2back	Block2	2back/STIM_004.jpg	99
735.825	0.72	719.5	2back	Block2	2back/STIM_005.jpg	99
740.213	0.993	993.2	2back	Block2	2back/STIM_005.jpg	99
745.148	0.513	512.6	2back	Block2	2back/STIM_005.jpg	100
749.001	0.722	721.8	2back	Block2	2back/STIM_006.jpg	100
753.124	1.011	1011.3	2back	Block2	2back/STIM_006.jpg	100
756.534	0.751	751.0	2back	Block2	2back/STIM_006.jpg	99
760.368	1.04	1039.8	2back	Block2	2back/STIM_007.jpg	99
764.683	0.946	945.9	2back	Block2	2back/STIM_007.jpg	100
768.056	0.471	470.8	2back	Block2	2back/STIM_007.jpg	100
771.788	0.748	748.0	2back	Block2	2back/STIM_008.jpg	99
775.183	0.859	859.1	2back	Block2	2back/STIM_008.jpg	99
779.579	0.988	987.7	2back	Block2	2back/STIM_008.jpg	99
784.419	1.112	1111.9	2back	Block2	2back/STIM_009.jpg	99
787.846	1.059	1058.9	2back	Block2	2back/STIM_009.jpg	100
790.979	0.942	941.8	2back	Block2	2back/STIM_009.jpg	100
794.08	1.124	1124.5	2back	Block2	2back/STIM_010.jpg	99
797.905	0.467	467.3	2back	Block2	2back/STIM_010.jpg	99
801.694	0.474	474.4	2back	Block2	2back/STIM_010.jpg	99
805.874	0.517	516.6	2back	Block2	2back/STIM_011.jpg	100
808.569	0.919	919.4	2back	Block2	2back/STIM_011.jpg	99
812.262	0.837	836.9	2back	Block2	2back/STIM_011.jpg	100
815.914	0.528	527.9	2back	Block2	2back/STIM_012.jpg	99
818.605	0.923	923.0	2back	Block2	2back/STIM_012.jpg	100
822.628	0.45	449.5	2back	Block2	2back/STIM_012.jpg	99
826.723	0.973	973.1	2back	Block2	2back/STIM_013.jpg	99
831.176	0.583	582.9	2back	Block2	2back/STIM_013.jpg	100
834.023	0.514	514.4	2back	Block2	2back/STIM_013.jpg	99
838.122	0.744	744.0	2back	Block2	2back/STIM_014.jpg	99
842.644	0.867	866.7	2back	Block2	2back/STIM_014.jpg	99
845.899	0.753	752.9	2back	Block2	2back/STIM_014.jpg	100
849.068	0.772	772.3	2back	Block2	2back/STIM_015.jpg	99
852.788	0.557	556.9	2back	Block2	2back/STIM_015.jpg	100
855.687	0.949	949.1	2back	Block2	2back/STIM_015.jpg	99
858.673	0.974	973.8	2back	Block2	2back/STIM_016.jpg	100
861.993	0.796	795.7	2back	Block2	2back/STIM_016.jpg	100
866.077	0.794	793.5	2back	Block2	2back/STIM_016.jpg	99
870.427	1.085	1084.6	2back	Block2	2back/STIM_017.jpg	99
873.908	0.562	562.0	2back	Block2	2back/STIM_017.jpg	99
877.782	0.977	976.7	2back	Block2	2back/STIM_017.jpg	100
881.739	1.121	1121.2	2back	Block2	2back/STIM_018.jpg	99
886.44	0.89	890.0	2back	Block2	2back/STIM_018.jpg	99
889.685	0.918	918.1	2back	Block2	2back/STIM_018.jpg	100
893.608	1.081	1081.3	2back	Block2	2back/STIM_019.jpg	100
896.818	0.639	638.7	2back	Block2	2back/STIM_019.jpg	100
901.098	0.455	454.6	2back	Block2	2back/STIM_019.jpg	99
903.66	0.979	979.3	2back	Block2	2back/STIM_020.jpg	99
907.779	0.859	859.4	2back	Block2	2back/STIM_020.jpg	99
910.93	0.777	777.1	2back	Block2	2back/STIM_020.jpg	99
915.292	0.66	660.4	2back	Block2	2back/STIM_021.jpg	99
917.958	0.602	601.5	2back	Block2	2back/STIM_021.jpg	99
921.998	0.73	730.2	2back	Block2	2back/STIM_021.jpg	99
926.318	1.014	1014.4	2back	Block2	2back/STIM_022.jpg	100
930.263	1.022	1021.8	2back	Block2	2back/STIM_022.jpg	100
935.282	0.713	712.9	2back	Block2	2back/STIM_022.jpg	99
939.585	0.641	641.4	2back	Block2	2back/STIM_023.jpg	100
942.299	0.558	557.8	2back	Block2	2back/STIM_023.jpg	99
946.448	0.683	683.1	2back	Block2	2back/STIM_023.jpg	100
950.952	0.883	882.6	2back	Block2	2back/STIM_024.jpg	100
954.307	0.504	504.3	2back	Block2	2back/STIM_024.jpg	99
956.939	0.677	677.2	2back	Block2	2back/STIM_024.jpg	99
960.746	0.801	800.7	2back	Block2	2back/STIM_025.jpg	99
963.868	1.087	1086.8	2back	Block2	2back/STIM_025.jpg	100
968.007	0.569	568.9	2back	Block2	2back/STIM_025.jpg	99
971.983	0.516	515.6	2back	Block2	2back/STIM_026.jpg	99
976.403	0.78	779.9	2back	Block2	2back/STIM_026.jpg	100
979.79	0.657	656.8	2back	Block2	2back/STIM_026.jpg	100
983.733	0.975	975.3	2back	Block2	2back/STIM_027.jpg	99
987.725	0.84	839.7	2back	Block2	2back/STIM_027.jpg	99
991.352	0.577	577.0	2back	Block2	2back/STIM_027.jpg	99
995.482	0.926	926.4	2back	Block2	2back/STIM_028.jpg	100
999.304	0.763	763.1	2back	Block2	2back/STIM_028.jpg	100
1002.87	0.606	605.8	2back	Block2	2back/STIM_028.jpg	100
1006.075	0.762	761.5	2back	Block2	2back/STIM_029.jpg	100
1009.799	0.776	776.3	2back	Block2	2back/STIM_029.jpg	99
1012.617	0.613	613.3	2back	Block2	2back/STIM_029.jpg	100
1016.603	1.074	1073.9	2back	Block2	2back/STIM_030.jpg	99
1020.079	0.732	731.6	2back	Block2	2back/STIM_030.jpg	100
1023.47	0.5	500.3	2back	Block2	2back/STIM_030.jpg	99
1027.759	0.572	571.9	2back	Block2	2back/STIM_031.jpg	100
1032.262	0.675	675.4	2back	Block2	2back/STIM_031.jpg	99
1036.487	0.443	442.8	2back	Block2	2back/STIM_031.jpg	99
1039.356	0.976	976.5	2back	Block2	2back/STIM_032.jpg	100
1042.935	0.79	789.5	2back	Block2	2back/STIM_032.jpg	100
1047.348	0.781	781.1	2back	Block2	2back/STIM_032.jpg	99
1051.145	0.762	761.5	2back	Block2	2back/STIM_033.jpg	99
1055.616	1.053	1053.0	2back	Block2	2back/STIM_033.jpg	100
1059.856	0.587	587.0	2back	Block2	2back/STIM_033.jpg	100
1064.106	0.747	747.3	2back	Block2	2back/STIM_034.jpg	100
1068.137	0.618	618.5	2back	Block2	2back/STIM_034.jpg	100
1071.862	0.538	538.5	2back	Block2	2back/STIM_034.jpg	100
1075.254	1.094	1094.3	2back	Block2	2back/STIM_035.jpg	99
1079.645	0.554	554.0	2back	Block2	2back/STIM_035.jpg	100
1084.017	0.686	685.5	2back	Block2	2back/STIM_035.jpg	100
1088.619	1.045	1044.8	2back	Block2	2back/STIM_036.jpg	100
1092.221	1.029	1028.8	2back	Block2	2back/STIM_036.jpg	99
1097.023	0.474	473.5	2back	Block2	2back/STIM_036.jpg	99
1100.884	0.885	885.1	2back	Block2	2back/STIM_037.jpg	100
1104.855	0.685	685.1	2back	Block2	2back/STIM_037.jpg	99
1107.885	0.737	736.7	2back	Block2	2back/STIM_037.jpg	99
1110.833	0.6	599.7	2back	Block2	2back/STIM_038.jpg	100
1114.904	0.827	827.2	2back	Block2	2back/STIM_038.jpg	99
1119.256	0.633	633.0	2back	Block2	2back/STIM_038.jpg	100
1123.815	0.73	729.9	2back	Block2	2back/STIM_039.jpg	100
1128.047	1.029	1028.7	2back	Block2	2back/STIM_039.jpg	100
1131.387	0.617	617.4	2back	Block2	2back/STIM_039.jpg	99
1135.747	0.655	654.6	0back	Block2	0back/STIM_000.jpg	99
1139.482	0.475	475.2	0back	Block2	0back/STIM_000.jpg	99
1142.649	0.52	520.1	0back	Block2	0back/STIM_000.jpg	99
1145.487	0.69	690.2	0back	Block2	0back/STIM_001.jpg	99
1149.61	0.596	595.6	0back	Block2	0back/STIM_001.jpg	99
1153.998	0.4	400.0	0back	Block2	0back/STIM_001.jpg	99
1156.979	0.5	500.1	0back	Block2	0back/STIM_002.jpg	99
1160.88	0.582	582.0	0back	Block2	0back/STIM_002.jpg	100
1164.665	0.496	495.8	0back	Block2	0back/STIM_002.jpg	100
1167.462	0.73	730.5	0back	Block2	0back/STIM_003.jpg	99
1170.236	0.509	508.8	0back	Block2	0back/STIM_003.jpg	99
1173.387	0.645	644.8	0back	Block2	0back/STIM_003.jpg	100
1176.724	0.512	511.7	0back	Block2	0back/STIM_004.jpg	100
1180.264	0.596	595.8	0back	Block2	0back/STIM_004.jpg	99
1182.996	0.532	531.5	0back	Block2	0back/STIM_004.jpg	100
1185.829	0.447	447.0	0back	Block2	0back/STIM_005.jpg	100
1189.316	0.759	759.1	0back	Block2	0back/STIM_005.jpg	100
1193.614	0.519	519.3	0back	Block2	0back/STIM_005.jpg	99
1197.369	0.508	508.1	0back	Block2	0back/STIM_006.jpg	99
1200.02	0.549	548.7	0back	Block2	0back/STIM_006.jpg	100
1204.516	0.393	392.8	0back	Block2	0back/STIM_006.jpg	100
1208.247	0.56	559.9	0back	Block2	0back/STIM_007.jpg	100
1211.071	0.624	624.0	0back	Block2	0back/STIM_007.jpg	100
1215.038	0.448	448.1	0back	Block2	0back/STIM_007.jpg	100
1217.578	0.776	776.3	0back	Block2	0back/STIM_008.jpg	100
1221.59	0.544	543.8	0back	Block2	0back/STIM_008.jpg	99
1224.511	0.424	424.4	0back	Block2	0back/STIM_008.jpg	99
1227.984	0.443	443.2	0back	Block2	0back/STIM_009.jpg	99
1232.352	0.675	675.1	0back	Block2	0back/STIM_009.jpg	99
1236.37	0.628	628.0	0back	Block2	0back/STIM_009.jpg	99
1239.324	0.512	512.2	0back	Block2	0back/STIM_010.jpg	99
1243.386	0.682	682.2	0back	Block2	0back/STIM_010.jpg	100
1246.777	0.638	638.2	0back	Block2	0back/STIM_010.jpg	100
1250.017	0.396	395.6	0back	Block2	0back/STIM_011.jpg	100
1252.463	0.424	423.5	0back	Block2	0back/STIM_011.jpg	100
1256.588	0.509	509.0	0back	Block2	0back/STIM_011.jpg	100
1260.988	0.481	481.0	0back	Block2	0back/STIM_012.jpg	99
1265.241	0.602	602.4	0back	Block2	0back/STIM_012.jpg	99
1268.711	0.53	530.4	0back	Block2	0back/STIM_012.jpg	100
1271.52	0.483	483.3	0back	Block2	0back/STIM_013.jpg	100
1275.094	0.506	505.9	0back	Block2	0back/STIM_013.jpg	100
1279.337	0.646	646.3	0back	Block2	0back/STIM_013.jpg	99
1283.945	0.44	439.5	0back	Block2	0back/STIM_014.jpg	99
1287.558	0.487	487.0	0back	Block2	0back/STIM_014.jpg	100
1290.992	0.724	724.0	0back	Block2	0back/STIM_014.jpg	99
1293.763	0.52	519.6	0back	Block2	0back/STIM_015.jpg	99
1296.914	0.768	767.6	0back	Block2	0back/STIM_015.jpg	99
1300.084	0.748	748.5	0back	Block2	0back/STIM_015.jpg	100
1303.911	0.577	576.6	0back	Block2	0back/STIM_016.jpg	100
1307.784	0.49	489.7	0back	Block2	0back/STIM_016.jpg	99
1310.754	0.551	551.4	0back	Block2	0back/STIM_016.jpg	99
1314.935	0.614	614.4	0back	Block2	0back/STIM_017.jpg	100
1319.302	0.462	461.6	0back	Block2	0back/STIM_017.jpg	99
1323.616	0.626	625.7	0back	Block2	0back/STIM_017.jpg	100
1327.083	0.451	451.4	0back	Block2	0back/STIM_018.jpg	99
1330.015	0.61	610.4	0back	Block2	0back/STIM_018.jpg	100
1333.005	0.505	505.3	0back	Block2	0back/STIM_018.jpg	99
1336.591	0.465	464.9	0back	Block2	0back/STIM_019.jpg	100
1340.909	0.5	500.0	0back	Block2	0back/STIM_019.jpg	99
1343.685	0.616	616.4	0back	Block2	0back/STIM_019.jpg	99
1347.169	0.821	821.2	2back	Block3	2back/STIM_000.jpg	100
1351.246	0.566	566.4	2back	Block3	2back/STIM_000.jpg	99
1354.475	0.614	613.6	2back	Block3	2back/STIM_000.jpg	99
1357.221	0.425	424.7	2back	Block3	2back/STIM_001.jpg	99
1359.811	0.848	847.5	2back	Block3	2back/STIM_001.jpg	99
1363.099	0.881	881.1	2back	Block3	2back/STIM_001.jpg	99
1366.118	0.434	434.4	2back	Block3	2back/STIM_002.jpg	99
1370.212	0.76	759.6	2back	Block3	2back/STIM_002.jpg	100
1373.255	0.815	815.4	2back	Block3	2back/STIM_002.jpg	100
1377.823	0.427	426.9	2back	Block3	2back/STIM_003.jpg	99
1381.533	0.827	826.6	2back	Block3	2back/STIM_003.jpg	99
1385.453	0.605	604.6	2back	Block3	2back/STIM_003.jpg	99
1389.14	0.468	468.4	2back	Block3	2back/STIM_004.jpg	99
1393.283	0.73	730.2	2back	Block3	2back/STIM_004.jpg	100
1397.459	0.591	590.6	2back	Block3	2back/STIM_004.jpg	100
1400.871	0.926	925.6	2back	Block3	2back/STIM_005.jpg	99
1404.7	0.706	706.4	2back	Block3	2back/STIM_005.jpg	99
1408.126	0.46	460.1	2back	Block3	2back/STIM_005.jpg	100
1412.162	0.677	677.1	2back	Block3	2back/STIM_006.jpg	99
1416.677	0.881	881.2	2back	Block3	2back/STIM_006.jpg	99
1420.609	0.62	619.7	2back	Block3	2back/STIM_006.jpg	100
1423.463	0.575	574.7	2back	Block3	2back/STIM_007.jpg	100
1426.353	0.88	880.4	2back	Block3	2back/STIM_007.jpg	99
1430.028	0.646	645.9	2back	Block3	2back/STIM_007.jpg	99
1432.801	0.782	782.0	2back	Block3	2back/STIM_008.jpg	100
1436.113	0.447	446.7	2back	Block3	2back/STIM_008.jpg	100
1439.379	0.546	545.6	2back	Block3	2back/STIM_008.jpg	99
1443.27	0.819	819.1	2back	Block3	2back/STIM_009.jpg	99
1446.27	0.736	735.8	2back	Block3	2back/STIM_009.jpg	100
1449.753	0.604	603.5	2back	Block3	2back/STIM_009.jpg	99
1452.388	0.6	599.8	2back	Block3	2back/STIM_010.jpg	100
1456.462	0.547	546.8	2back	Block3	2back/STIM_010.jpg	99
1459.774	0.947	947.3	2back	Block3	2back/STIM_010.jpg	99
1464.066	0.544	544.1	2back	Block3	2back/STIM_011.jpg	100
1466.837	0.738	738.0	2back	Block3	2back/STIM_011.jpg	99
1470.574	0.623	623.1	2back	Block3	2back/STIM_011.jpg	99
1473.511	0.586	585.8	2back	Block3	2back/STIM_012.jpg	100
1477.458	0.421	420.6	2back	Block3	2back/STIM_012.jpg	99
1480.265	0.86	860.2	2back	Block3	2back/STIM_012.jpg	100
1484.901	0.917	917.3	2back	Block3	2back/STIM_013.jpg	100
1488.846	0.576	576.2	2back	Block3	2back/STIM_013.jpg	99
1493.299	0.504	504.0	2back	Block3	2back/STIM_013.jpg	99
1495.994	0.498	498.5	2back	Block3	2back/STIM_014.jpg	100
1500.001	0.621	621.1	2back	Block3	2back/STIM_014.jpg	99
1503.554	0.749	748.9	2back	Block3	2back/STIM_014.jpg	99
1506.455	0.467	466.7	2back	Block3	2back/STIM_015.jpg	99
1509.656	0.58	579.6	2back	Block3	2back/STIM_015.jpg	100
1512.711	0.838	838.0	2back	Block3	2back/STIM_015.jpg	99
1516.017	0.927	926.6	2back	Block3	2back/STIM_016.jpg	100
1520.029	0.513	512.6	2back	Block3	2back/STIM_016.jpg	99
1523.901	0.842	842.2	2back	Block3	2back/STIM_016.jpg	100
1526.951	0.485	485.3	2back	Block3	2back/STIM_017.jpg	99
1529.502	0.673	673.3	2back	Block3	2back/STIM_017.jpg	100
1533.644	0.666	665.8	2back	Block3	2back/STIM_017.jpg	100
1536.406	0.63	629.7	2back	Block3	2back/STIM_018.jpg	100
1539.459	0.889	889.4	2back	Block3	2back/STIM_018.jpg	100
1544.172	0.673	672.8	2back	Block3	2back/STIM_018.jpg	100
1547.292	0.699	698.9	2back	Block3	2back/STIM_019.jpg	100
1551.014	0.616	615.8	2back	Block3	2back/STIM_019.jpg	100
1555.29	0.652	651.5	2back	Block3	2back/STIM_019.jpg	99
1558.895	0.452	452.2	2back	Block3	2back/STIM_020.jpg	100
1562.273	0.848	847.6	2back	Block3	2back/STIM_020.jpg	99
1566.627	0.479	479.1	2back	Block3	2back/STIM_020.jpg	100
1569.113	0.482	482.1	2back	Block3	2back/STIM_021.jpg	100
1573.531	0.682	681.9	2back	Block3	2back/STIM_021.jpg	99
1576.431	0.535	534.8	2back	Block3	2back/STIM_021.jpg	100
1579.411	0.941	941.3	2back	Block3	2back/STIM_022.jpg	99
1583.83	0.759	758.7	2back	Block3	2back/STIM_022.jpg	99
1587.209	0.437	436.6	2back	Block3	2back/STIM_022.jpg	99
1590.149	0.825	825.3	2back	Block3	2back/STIM_023.jpg	99
1593.005	0.835	834.6	2back	Block3	2back/STIM_023.jpg	99
1597.45	0.694	694.0	2back	Block3	2back/STIM_023.jpg	100
1600.992	0.835	834.9	2back	Block3	2back/STIM_024.jpg	100
1605.665	0.496	496.3	2back	Block3	2back/STIM_024.jpg	99
1608.326	0.45	450.1	2back	Block3	2back/STIM_024.jpg	100
1610.992	0.631	630.9	2back	Block3	2back/STIM_025.jpg	99
1614.363	0.52	520.3	2back	Block3	2back/STIM_025.jpg	100
1616.945	0.862	861.9	2back	Block3	2back/STIM_025.jpg	99
1620.663	0.458	458.3	2back	Block3	2back/STIM_026.jpg	100
1623.87	0.738	738.0	2back	Block3	2back/STIM_026.jpg	99
1627.9	0.764	764.3	2back	Block3	2back/STIM_026.jpg	100
1632.537	0.515	515.3	2back	Block3	2back/STIM_027.jpg	99
1635.598	0.538	537.8	2back	Block3	2back/STIM_027.jpg	99
1638.955	0.669	669.3	2back	Block3	2back/STIM_027.jpg	100
1642.662	0.508	508.0	2back	Block3	2back/STIM_028.jpg	99
1645.426	0.674	674.4	2back	Block3	2back/STIM_028.jpg	100
1649.208	0.777	777.1	2back	Block3	2back/STIM_028.jpg	99
1652.883	0.672	671.8	2back	Block3	2back/STIM_029.jpg	100
1656.899	0.779	778.7	2back	Block3	2back/STIM_029.jpg	100
1659.79	0.517	516.8	2back	Block3	2back/STIM_029.jpg	99
1663.041	0.68	679.7	2back	Block3	2back/STIM_030.jpg	99
1665.765	0.921	921.1	2back	Block3	2back/STIM_030.jpg	99
1669.281	0.939	938.9	2back	Block3	2back/STIM_030.jpg	100
1673.433	0.566	565.5	2back	Block3	2back/STIM_031.jpg	100
1676.99	0.935	934.9	2back	Block3	2back/STIM_031.jpg	100
1681.547	0.73	730.3	2back	Block3	2back/STIM_031.jpg	99
1684.354	0.81	810.3	2back	Block3	2back/STIM_032.jpg	100
1687.922	0.42	420.0	2back	Block3	2back/STIM_032.jpg	100
1692.105	0.622	622.2	2back	Block3	2back/STIM_032.jpg	99
1696.283	0.585	584.8	2back	Block3	2back/STIM_033.jpg	99
1699.422	0.558	557.8	2back	Block3	2back/STIM_033.jpg	99
1702.018	0.614	614.5	2back	Block3	2back/STIM_033.jpg	100
1705.747	0.747	746.8	2back	Block3	2back/STIM_034.jpg	99
1708.858	0.422	422.4	2back	Block3	2back/STIM_034.jpg	100
1712.101	0.48	480.5	2back	Block3	2back/STIM_034.jpg	99
1716.14	0.526	526.4	2back	Block3	2back/STIM_035.jpg	100
1719.302	0.684	684.3	2back	Block3	2back/STIM_035.jpg	100
1723.419	0.781	781.3	2back	Block3	2back/STIM_035.jpg	100
1727.872	0.753	753.2	2back	Block3	2back/STIM_036.jpg	100
1732.417	0.837	837.4	2back	Block3	2back/STIM_036.jpg	99
1735.566	0.57	569.9	2back	Block3	2back/STIM_036.jpg	100
1739.294	0.415	415.4	2back	Block3	2back/STIM_037.jpg	99
1743.066	0.645	645.4	2back	Block3	2back/STIM_037.jpg	99
1747.371	0.551	550.8	2back	Block3	2back/STIM_037.jpg	99
1750.677	0.419	418.9	2back	Block3	2back/STIM_038.jpg	100
1753.125	0.909	909.1	2back	Block3	2back/STIM_038.jpg	100
1757.359	0.463	462.8	2back	Block3	2back/STIM_038.jpg	100
1760.44	0.861	860.9	2back	Block3	2back/STIM_039.jpg	100
1764.917	0.618	617.5	2back	Block3	2back/STIM_039.jpg	99
1768.033	0.746	745.8	2back	Block3	2back/STIM_039.jpg	100
1772.254	0.52	520.4	0back	Block3	0back/STIM_000.jpg	100
1775.703	0.541	541.3	0back	Block3	0back/STIM_000.jpg	100
1779.782	0.484	484.3	0back	Block3	0back/STIM_000.jpg	99
1782.889	0.643	642.8	0back	Block3	0back/STIM_001.jpg	100
1785.778	0.446	445.7	0back	Block3	0back/STIM_001.jpg	99
1788.37	0.608	608.5	0back	Block3	0back/STIM_001.jpg	99
1792.059	0.729	729.0	0back	Block3	0back/STIM_002.jpg	100
1795.693	0.484	484.2	0back	Block3	0back/STIM_002.jpg	100
1800.019	0.676	676.4	0back	Block3	0back/STIM_002.jpg	99
1802.728	0.561	560.6	0back	Block3	0back/STIM_003.jpg	100
1805.641	0.493	492.8	0back	Block3	0back/STIM_003.jpg	100
1808.299	0.76	759.8	0back	Block3	0back/STIM_003.jpg	99
1811.492	0.728	728.2	0back	Block3	0back/STIM_004.jpg	100
1814.436	0.448	448.5	0back	Block3	0back/STIM_004.jpg	99
1818.48	0.686	685.7	0back	Block3	0back/STIM_004.jpg	99
1822.15	0.728	727.7	0back	Block3	0back/STIM_005.jpg	99
1825.081	0.468	467.7	0back	Block3	0back/STIM_005.jpg	100
1828.159	0.724	724.4	0back	Block3	0back/STIM_005.jpg	100
1831.441	0.634	634.5	0back	Block3	0back/STIM_006.jpg	99
1835.741	0.558	557.7	0back	Block3	0back/STIM_006.jpg	99
1839.847	0.5	499.8	0back	Block3	0back/STIM_006.jpg	99
1842.546	0.615	614.9	0back	Block3	0back/STIM_007.jpg	99
1845.69	0.467	467.4	0back	Block3	0back/STIM_007.jpg	99
1849.766	0.569	568.8	0back	Block3	0back/STIM_007.jpg	99
1853.112	0.393	393.1	0back	Block3	0back/STIM_008.jpg	100
1857.25	0.555	555.3	0back	Block3	0back/STIM_008.jpg	100
1861.263	0.746	746.3	0back	Block3	0back/STIM_008.jpg	99
1865.884	0.526	525.8	0back	Block3	0back/STIM_009.jpg	99
1868.862	0.664	663.8	0back	Block3	0back/STIM_009.jpg	100
1873.261	0.413	412.6	0back	Block3	0back/STIM_009.jpg	100
1876.733	0.726	725.9	0back	Block3	0back/STIM_010.jpg	100
1879.631	0.466	466.0	0back	Block3	0back/STIM_010.jpg	99
1882.782	0.487	487.0	0back	Block3	0back/STIM_010.jpg	100
1886.117	0.638	637.7	0back	Block3	0back/STIM_011.jpg	100
1889.005	0.639	639.2	0back	Block3	0back/STIM_011.jpg	99
1891.652	0.525	524.6	0back	Block3	0back/STIM_011.jpg	100
1894.404	0.75	750.5	0back	Block3	0back/STIM_012.jpg	99
1898.095	0.512	512.5	0back	Block3	0back/STIM_012.jpg	100
1902.152	0.734	734.4	0back	Block3	0back/STIM_012.jpg	100
1905.053	0.469	468.8	0back	Block3	0back/STIM_013.jpg	100
1908.625	0.703	703.2	0back	Block3	0back/STIM_013.jpg	99
1911.639	0.747	747.0	0back	Block3	0back/STIM_013.jpg	99
1916.082	0.543	543.0	0back	Block3	0back/STIM_014.jpg	99
1920.373	0.661	661.2	0back	Block3	0back/STIM_014.jpg	99
1924.7	0.4	399.5	0back	Block3	0back/STIM_014.jpg	100
1927.729	0.521	521.3	0back	Block3	0back/STIM_015.jpg	99
1931.418	0.673	673.2	0back	Block3	0back/STIM_015.jpg	99
1935.798	0.626	625.9	0back	Block3	0back/STIM_015.jpg	99
1939.39	0.619	619.0	0back	Block3	0back/STIM_016.jpg	99
1942.485	0.599	599.0	0back	Block3	0back/STIM_016.jpg	100
1946.296	0.527	526.8	0back	Block3	0back/STIM_016.jpg	100
1949.64	0.767	767.4	0back	Block3	0back/STIM_017.jpg	99
1953.608	0.419	418.6	0back	Block3	0back/STIM_017.jpg	100
1957.276	0.696	695.7	0back	Block3	0back/STIM_017.jpg	100
1960.966	0.717	717.1	0back	Block3	0back/STIM_018.jpg	100
1963.958	0.424	424.0	0back	Block3	0back/STIM_018.jpg	100
1967.931	0.742	741.9	0back	Block3	0back/STIM_018.jpg	100
1971.429	0.767	766.6	0back	Block3	0back/STIM_019.jpg	100
1975.939	0.71	709.6	0back	Block3	0back/STIM_019.jpg	99
1980.341	0.418	417.7	0back	Block3	0back/STIM_019.jpg	99
1983.96	0.546	545.8	2back	Block4	2back/STIM_000.jpg	100
1988.197	0.513	512.7	2back	Block4	2back/STIM_000.jpg	100
1990.875	0.621	620.7	2back	Block4	2back/STIM_000.jpg	100
1994.669	0.841	841.4	2back	Block4	2back/STIM_001.jpg	100
1997.522	0.801	801.1	2back	Block4	2back/STIM_001.jpg	100
2001.976	0.536	536.3	2back	Block4	2back/STIM_001.jpg	99
2006.162	0.79	789.9	2back	Block4	2back/STIM_002.jpg	99
2009.222	0.42	420.0	2back	Block4	2back/STIM_002.jpg	100
2012.835	0.585	584.9	2back	Block4	2back/STIM_002.jpg	99
2017.404	0.878	878.4	2back	Block4	2back/STIM_003.jpg	100
2022.125	0.594	594.1	2back	Block4	2back/STIM_003.jpg	99
2025.339	0.898	897.7	2back	Block4	2back/STIM_003.jpg	100
2029.767	0.867	866.9	2back	Block4	2back/STIM_004.jpg	99
2032.783	0.795	794.8	2back	Block4	2back/STIM_004.jpg	100
2036.396	0.892	892.5	2back	Block4	2back/STIM_004.jpg	99
2039.551	0.848	848.4	2back	Block4	2back/STIM_005.jpg	100
2043.363	0.805	805.0	2back	Block4	2back/STIM_005.jpg	99
2046.59	0.595	594.8	2back	Block4	2back/STIM_005.jpg	100
2050.097	0.696	695.6	2back	Block4	2back/STIM_006.jpg	99
2053.662	0.851	851.0	2back	Block4	2back/STIM_006.jpg	99
2058.171	0.466	466.2	2back	Block4	2back/STIM_006.jpg	100
2060.68	0.895	895.1	2back	Block4	2back/STIM_007.jpg	100
2065.343	0.685	685.3	2back	Block4	2back/STIM_007.jpg	100
2068.949	0.916	916.2	2back	Block4	2back/STIM_007.jpg	100
2072.109	0.427	426.6	2back	Block4	2back/STIM_008.jpg	99
2076.278	0.661	661.4	2back	Block4	2back/STIM_008.jpg	100
2079.98	0.822	822.3	2back	Block4	2back/STIM_008.jpg	99
2082.84	0.888	888.0	2back	Block4	2back/STIM_009.jpg	100
2086.608	0.581	581.1	2back	Block4	2back/STIM_009.jpg	99
2089.449	0.458	458.2	2back	Block4	2back/STIM_009.jpg	100
2092.26	0.934	934.1	2back	Block4	2back/STIM_010.jpg	99
2096.384	0.663	663.4	2back	Block4	2back/STIM_010.jpg	100
2100.946	0.623	622.6	2back	Block4	2back/STIM_010.jpg	99
2104.579	0.705	704.6	2back	Block4	2back/STIM_011.jpg	99
2108.57	0.44	440.5	2back	Block4	2back/STIM_011.jpg	99
2112.813	0.526	526.4	2back	Block4	2back/STIM_011.jpg	100
2116.56	0.844	843.6	2back	Block4	2back/STIM_012.jpg	100
2120.125	0.715	715.2	2back	Block4	2back/STIM_012.jpg	100
2124.563	0.751	750.6	2back	Block4	2back/STIM_012.jpg	99
2128.615	0.556	555.6	2back	Block4	2back/STIM_013.jpg	100
2133.005	0.408	408.5	2back	Block4	2back/STIM_013.jpg	99
2136.123	0.633	633.2	2back	Block4	2back/STIM_013.jpg	99
2139.852	0.662	661.7	2back	Block4	2back/STIM_014.jpg	99
2144.502	0.519	519.4	2back	Block4	2back/STIM_014.jpg	100
2148.317	0.741	740.6	2back	Block4	2back/STIM_014.jpg	100
2151.332	0.603	603.1	2back	Block4	2back/STIM_015.jpg	100
2155.493	0.878	877.9	2back	Block4	2back/STIM_015.jpg	100
2158.993	0.636	635.9	2back	Block4	2back/STIM_015.jpg	99
2163.081	0.851	851.2	2back	Block4	2back/STIM_016.jpg	100
2166.078	0.557	556.9	2back	Block4	2back/STIM_016.jpg	99
2169.4	0.737	737.3	2back	Block4	2back/STIM_016.jpg	100
2173.59	0.72	720.1	2back	Block4	2back/STIM_017.jpg	99
2178.05	0.911	911.3	2back	Block4	2back/STIM_017.jpg	99
2181.958	0.433	432.9	2back	Block4	2back/STIM_017.jpg	99
2185.013	0.532	532.2	2back	Block4	2back/STIM_018.jpg	99
2187.811	0.603	602.6	2back	Block4	2back/STIM_018.jpg	99
2191.061	0.922	922.3	2back	Block4	2back/STIM_018.jpg	99
2195.07	0.95	950.0	2back	Block4	2back/STIM_019.jpg	100
2199.366	0.413	413.2	2back	Block4	2back/STIM_019.jpg	100
2203.253	0.433	433.4	2back	Block4	2back/STIM_019.jpg	100
2207.071	0.743	743.2	2back	Block4	2back/STIM_020.jpg	100
2210.864	0.459	458.7	2back	Block4	2back/STIM_020.jpg	100
2214.025	0.68	679.6	2back	Block4	2back/STIM_020.jpg	100
2217.738	0.409	408.8	2back	Block4	2back/STIM_021.jpg	99
2221.403	0.803	803.2	2back	Block4	2back/STIM_021.jpg	100
2226.038	0.483	483.1	2back	Block4	2back/STIM_021.jpg	99
2229.767	0.492	492.1	2back	Block4	2back/STIM_022.jpg	100
2232.317	0.81	810.3	2back	Block4	2back/STIM_022.jpg	100
2235.507	0.506	506.5	2back	Block4	2back/STIM_022.jpg	99
2239.527	0.583	583.0	2back	Block4	2back/STIM_023.jpg	99
2242.398	0.54	539.9	2back	Block4	2back/STIM_023.jpg	100
2246.488	0.69	690.4	2back	Block4	2back/STIM_023.jpg	100
2250.426	0.639	639.3	2back	Block4	2back/STIM_024.jpg	99
2254.922	0.418	418.2	2back	Block4	2back/STIM_024.jpg	100
2259.041	0.7	700.0	2back	Block4	2back/STIM_024.jpg	100
2262.887	0.748	748.2	2back	Block4	2back/STIM_025.jpg	99
2267.584	0.67	670.3	2back	Block4	2back/STIM_025.jpg	100
2270.329	0.796	796.1	2back	Block4	2back/STIM_025.jpg	99
2274.195	0.777	776.7	2back	Block4	2back/STIM_026.jpg	100
2278.421	0.647	647.1	2back	Block4	2back/STIM_026.jpg	99
2282.203	0.51	510.0	2back	Block4	2back/STIM_026.jpg	100
2284.891	0.8	799.7	2back	Block4	2back/STIM_027.jpg	100
2288.332	0.631	630.9	2back	Block4	2back/STIM_027.jpg	100
2291.207	0.874	873.6	2back	Block4	2back/STIM_027.jpg	100
2294.492	0.922	922.2	2back	Block4	2back/STIM_028.jpg	99
2297.729	0.593	592.8	2back	Block4	2back/STIM_028.jpg	99
2301.223	0.48	480.5	2back	Block4	2back/STIM_028.jpg	99
2304.489	0.411	410.7	2back	Block4	2back/STIM_029.jpg	99
2308.319	0.438	438.1	2back	Block4	2back/STIM_029.jpg	99
2311.52	0.469	468.9	2back	Block4	2back/STIM_029.jpg	100
2314.595	0.895	895.4	2back	Block4	2back/STIM_030.jpg	100
2318.168	0.421	421.0	2back	Block4	2back/STIM_030.jpg	100
2322.013	0.547	546.9	2back	Block4	2back/STIM_030.jpg	100
2325.953	0.723	723.4	2back	Block4	2back/STIM_031.jpg	100
2328.822	0.49	490.5	2back	Block4	2back/STIM_031.jpg	100
2332.968	0.435	435.1	2back	Block4	2back/STIM_031.jpg	99
2337.225	0.886	886.1	2back	Block4	2back/STIM_032.jpg	99
2340.714	0.725	724.8	2back	Block4	2back/STIM_032.jpg	100
2344.352	0.83	829.9	2back	Block4	2back/STIM_032.jpg	100
2347.362	0.896	895.9	2back	Block4	2back/STIM_033.jpg	100
2351.316	0.778	778.4	2back	Block4	2back/STIM_033.jpg	99
2354.374	0.696	696.3	2back	Block4	2back/STIM_033.jpg	100
2359.062	0.442	441.5	2back	Block4	2back/STIM_034.jpg	99
2362.302	0.477	477.3	2back	Block4	2back/STIM_034.jpg	100
2366.266	0.449	448.6	2back	Block4	2back/STIM_034.jpg	100
2369.027	0.454	454.1	2back	Block4	2back/STIM_035.jpg	99
2373.12	0.916	916.1	2back	Block4	2back/STIM_035.jpg	99
2377.093	0.457	457.3	2back	Block4	2back/STIM_035.jpg	100
2379.714	0.864	864.4	2back	Block4	2back/STIM_036.jpg	99
2384.561	0.558	558.4	2back	Block4	2back/STIM_036.jpg	100
2389.099	0.852	852.1	2back	Block4	2back/STIM_036.jpg	99
2392.174	0.939	938.8	2back	Block4	2back/STIM_037.jpg	99
2396.425	0.79	789.7	2back	Block4	2back/STIM_037.jpg	100
2399.814	0.844	843.7	2back	Block4	2back/STIM_037.jpg	99
2403.687	0.485	485.4	2back	Block4	2back/STIM_038.jpg	100
2407.432	0.786	786.0	2back	Block4	2back/STIM_038.jpg	99
2410.335	0.602	602.3	2back	Block4	2back/STIM_038.jpg	100
2413.19	0.523	523.3	2back	Block4	2back/STIM_039.jpg	100
2417.313	0.826	826.0	2back	Block4	2back/STIM_039.jpg	99
2420.714	0.706	706.5	2back	Block4	2back/STIM_039.jpg	99
2423.921	0.531	531.2	0back	Block4	0back/STIM_000.jpg	100
2427.022	0.495	495.3	0back	Block4	0back/STIM_000.jpg	99
2429.852	0.707	706.6	0back	Block4	0back/STIM_000.jpg	99
2434.453	0.431	431.4	0back	Block4	0back/STIM_001.jpg	100
2437.468	0.534	533.5	0back	Block4	0back/STIM_001.jpg	99
2441.551	0.454	453.5	0back	Block4	0back/STIM_001.jpg	100
2445.05	0.608	608.0	0back	Block4	0back/STIM_002.jpg	99
2448.684	0.494	493.9	0back	Block4	0back/STIM_002.jpg	100
2451.334	0.546	546.1	0back	Block4	0back/STIM_002.jpg	99
2454.953	0.508	507.8	0back	Block4	0back/STIM_003.jpg	99
2459.006	0.776	775.7	0back	Block4	0back/STIM_003.jpg	99
2462.993	0.716	715.6	0back	Block4	0back/STIM_003.jpg	100
2467.661	0.724	724.0	0back	Block4	0back/STIM_004.jpg	99
2472.12	0.753	753.4	0back	Block4	0back/STIM_004.jpg	100
2475.354	0.637	636.6	0back	Block4	0back/STIM_004.jpg	99
2479.653	0.421	421.2	0back	Block4	0back/STIM_005.jpg	99
2483.086	0.75	749.6	0back	Block4	0back/STIM_005.jpg	100
2486.21	0.628	628.2	0back	Block4	0back/STIM_005.jpg	100
2489.222	0.751	751.2	0back	Block4	0back/STIM_006.jpg	100
2492.939	0.761	760.6	0back	Block4	0back/STIM_006.jpg	100
2496.999	0.723	722.7	0back	Block4	0back/STIM_006.jpg	100
2501.532	0.623	622.7	0back	Block4	0back/STIM_007.jpg	99
2505.178	0.564	564.4	0back	Block4	0back/STIM_007.jpg	100
2509.273	0.581	580.8	0back	Block4	0back/STIM_007.jpg	100
2512.895	0.577	577.4	0back	Block4	0back/STIM_008.jpg	99
2517.26	0.538	538.5	0back	Block4	0back/STIM_008.jpg	100
2521.773	0.564	564.1	0back	Block4	0back/STIM_008.jpg	100
2525.723	0.507	506.7	0back	Block4	0back/STIM_009.jpg	99
2529.45	0.412	412.1	0back	Block4	0back/STIM_009.jpg	99
2533.61	0.426	425.7	0back	Block4	0back/STIM_009.jpg	99
2537.688	0.426	426.5	0back	Block4	0back/STIM_010.jpg	99
2541.98	0.592	592.0	0back	Block4	0back/STIM_010.jpg	99
2546.515	0.707	707.2	0back	Block4	0back/STIM_010.jpg	100
2550.073	0.441	441.4	0back	Block4	0back/STIM_011.jpg	99
2552.876	0.462	461.8	0back	Block4	0back/STIM_011.jpg	99
2557.017	0.393	393.0	0back	Block4	0back/STIM_011.jpg	99
2561.141	0.757	757.0	0back	Block4	0back/STIM_012.jpg	99
2564.106	0.428	427.9	0back	Block4	0back/STIM_012.jpg	100
2568.076	0.576	575.8	0back	Block4	0back/STIM_012.jpg	99
2572.254	0.626	626.2	0back	Block4	0back/STIM_013.jpg	99
2575.765	0.423	423.3	0back	Block4	0back/STIM_013.jpg	99
2579.782	0.637	637.4	0back	Block4	0back/STIM_013.jpg	99
2582.486	0.445	444.7	0back	Block4	0back/STIM_014.jpg	99
2585.645	0.662	662.3	0back	Block4	0back/STIM_014.jpg	99
2588.53	0.674	674.3	0back	Block4	0back/STIM_014.jpg	100
2591.907	0.756	755.5	0back	Block4	0back/STIM_015.jpg	100
2595.125	0.403	403.1	0back	Block4	0back/STIM_015.jpg	100
2598.347	0.616	615.7	0back	Block4	0back/STIM_015.jpg	100
2602.592	0.673	672.6	0back	Block4	0back/STIM_016.jpg	99
2606.288	0.675	675.4	0back	Block4	0back/STIM_016.jpg	100
2609.588	0.543	543.3	0back	Block4	0back/STIM_016.jpg	100
2613.587	0.7	699.7	0back	Block4	0back/STIM_017.jpg	100
2617.55	0.623	622.6	0back	Block4	0back/STIM_017.jpg	100
2620.455	0.536	536.2	0back	Block4	0back/STIM_017.jpg	100
2623.891	0.541	541.1	0back	Block4	0back/STIM_018.jpg	99
2626.589	0.743	742.7	0back	Block4	0back/STIM_018.jpg	99
2630.212	0.512	511.7	0back	Block4	0back/STIM_018.jpg	99
2633.464	0.772	771.8	0back	Block4	0back/STIM_019.jpg	99
2636.649	0.613	612.7	0back	Block4	0back/STIM_019.jpg	99
2640.292	0.665	665.3	0back	Block4	0back/STIM_019.jpg	99
