onset	duration	response_time_ms	trial_type	learning_stage	stimulus	response_port
0.0	1.195	1194.6	2back	Block1	2back/STIM_000.jpg	99
4.659	1.158	1158.0	2back	Block1	2back/STIM_000.jpg	100
8.936	0.646	646.4	2back	Block1	2back/STIM_000.jpg	100
12.002	0.658	657.8	2back	Block1	2back/STIM_001.jpg	99
14.86	1.158	1157.5	2back	Block1	2back/STIM_001.jpg	99
19.499	0.941	941.3	2back	Block1	2back/STIM_001.jpg	100
22.87	1.256	1255.5	2back	Block1	2back/STIM_002.jpg	99
28.067	1.188	1187.6	2back	Block1	2back/STIM_002.jpg	99
32.445	0.938	938.5	2back	Block1	2back/STIM_002.jpg	99
37.28	1.397	1396.9	2back	Block1	2back/STIM_003.jpg	99
41.985	1.292	1292.1	2back	Block1	2back/STIM_003.jpg	100
46.323	0.652	652.4	2back	Block1	2back/STIM_003.jpg	99
49.232	0.915	914.6	2back	Block1	2back/STIM_004.jpg	99
53.014	1.07	1070.0	2back	Block1	2back/STIM_004.jpg	100
56.822	0.642	642.0	2back	Block1	2back/STIM_004.jpg	99
60.816	1.029	1028.6	2back	Block1	2back/STIM_005.jpg	99
64.277	1.068	1068.0	2back	Block1	2back/STIM_005.jpg	99
68.411	0.607	606.9	2back	Block1	2back/STIM_005.jpg	100
72.982	1.301	1301.2	2back	Block1	2back/STIM_006.jpg	99
77.739	1.141	1140.8	2back	Block1	2back/STIM_006.jpg	100
82.373	1.197	1196.9	2back	Block1	2back/STIM_006.jpg	100
85.645	0.826	825.9	2back	Block1	2back/STIM_007.jpg	99
90.431	0.792	791.9	2back	Block1	2back/STIM_007.jpg	100
94.072	1.17	1170.3	2back	Block1	2back/STIM_007.jpg	100
97.614	1.106	1106.0	2back	Block1	2back/STIM_008.jpg	100
101.258	1.219	1218.6	2back	Block1	2back/STIM_008.jpg	100
105.947	0.612	611.7	2back	Block1	2back/STIM_008.jpg	100
109.075	1.326	1326.3	2back	Block1	2back/STIM_009.jpg	99
113.386	1.241	1241.4	2back	Block1	2back/STIM_009.jpg	100
116.753	0.902	902.3	2back	Block1	2back/STIM_009.jpg	99
120.446	1.151	1150.6	2back	Block1	2back/STIM_010.jpg	99
124.853	0.822	822.0	2back	Block1	2back/STIM_010.jpg	100
128.128	1.19	1189.8	2back	Block1	2back/STIM_010.jpg	99
131.654	1.299	1299.0	2back	Block1	2back/STIM_011.jpg	100
136.484	1.173	1172.6	2back	Block1	2back/STIM_011.jpg	100
141.043	0.737	737.0	2back	Block1	2back/STIM_011.jpg	100
144.872	0.655	655.2	2back	Block1	2back/STIM_012.jpg	100
148.295	1.248	1247.9	2back	Block1	2back/STIM_012.jpg	99
151.816	0.902	902.2	2back	Block1	2back/STIM_012.jpg	99
154.928	1.0	1000.3	2back	Block1	2back/STIM_013.jpg	100
158.04	0.77	769.9	2back	Block1	2back/STIM_013.jpg	99
161.611	1.201	1200.6	2back	Block1	2back/STIM_013.jpg	99
166.219	1.393	1392.7	2back	Block1	2back/STIM_014.jpg	100
170.781	0.887	887.0	2back	Block1	2back/STIM_014.jpg	99
174.762	0.732	732.1	2back	Block1	2back/STIM_014.jpg	99
177.843	0.781	780.6	2back	Block1	2back/STIM_015.jpg	99
180.715	0.827	827.1	2back	Block1	2back/STIM_015.jpg	99
185.086	0.657	657.3	2back	Block1	2back/STIM_015.jpg	99
189.567	1.002	1002.2	2back	Block1	2back/STIM_016.jpg	99
192.625	0.619	618.6	2back	Block1	2back/STIM_016.jpg	100
196.58	1.156	1156.0	2back	Block1	2back/STIM_016.jpg	99
199.919	1.025	1024.8	2back	Block1	2back/STIM_017.jpg	99
203.637	1.189	1188.7	2back	Block1	2back/STIM_017.jpg	99
208.707	1.193	1193.1	2back	Block1	2back/STIM_017.jpg	100
212.877	1.417	1416.7	2back	Block1	2back/STIM_018.jpg	100
218.251	1.352	1352.1	2back	Block1	2back/STIM_018.jpg	99
222.422	0.88	879.9	2back	Block1	2back/STIM_018.jpg	99
225.494	1.323	1323.2	2back	Block1	2back/STIM_019.jpg	99
229.786	0.596	596.5	2back	Block1	2back/STIM_019.jpg	100
233.369	0.706	705.5	2back	Block1	2back/STIM_019.jpg	99
236.828	0.665	664.6	2back	Block1	2back/STIM_020.jpg	100
240.668	1.368	1368.4	2back	Block1	2back/STIM_020.jpg	99
245.091	0.922	921.9	2back	Block1	2back/STIM_020.jpg	99
248.069	0.775	775.3	2back	Block1	2back/STIM_021.jpg	99
251.098	0.641	640.8	2back	Block1	2back/STIM_021.jpg	99
255.266	0.568	568.3	2back	Block1	2back/STIM_021.jpg	100
258.715	1.285	1285.1	2back	Block1	2back/STIM_022.jpg	99
263.811	1.15	1149.8	2back	Block1	2back/STIM_022.jpg	100
267.176	1.067	1066.9	2back	Block1	2back/STIM_022.jpg	99
271.592	0.865	864.6	2back	Block1	2back/STIM_023.jpg	100
276.006	0.698	697.6	2back	Block1	2back/STIM_023.jpg	99
280.414	0.741	741.2	2back	Block1	2back/STIM_023.jpg	99
284.589	0.843	843.2	2back	Block1	2back/STIM_024.jpg	100
288.918	1.298	1298.4	2back	Block1	2back/STIM_024.jpg	99
293.584	1.169	1169.2	2back	Block1	2back/STIM_024.jpg	100
297.815	1.424	1423.5	2back	Block1	2back/STIM_025.jpg	99
302.667	1.145	1144.6	2back	Block1	2back/STIM_025.jpg	100
306.183	0.977	976.6	2back	Block1	2back/STIM_025.jpg	100
310.673	1.24	1240.1	2back	Block1	2back/STIM_026.jpg	99
314.544	0.741	740.9	2back	Block1	2back/STIM_026.jpg	99
317.706	1.034	1034.4	2back	Block1	2back/STIM_026.jpg	100
321.24	0.877	877.1	2back	Block1	2back/STIM_027.jpg	99
324.894	1.113	1113.0	2back	Block1	2back/STIM_027.jpg	100
329.271	0.605	604.9	2back	Block1	2back/STIM_027.jpg	99
332.597	1.33	1329.6	2back	Block1	2back/STIM_028.jpg	100
336.216	0.645	645.2	2back	Block1	2back/STIM_028.jpg	99
339.885	1.062	1062.3	2back	Block1	2back/STIM_028.jpg	100
344.729	0.879	878.6	2back	Block1	2back/STIM_029.jpg	100
348.588	0.796	796.5	2back	Block1	2back/STIM_029.jpg	99
351.515	1.058	1057.5	2back	Block1	2back/STIM_029.jpg	99
355.685	1.24	1240.0	2back	Block1	2back/STIM_030.jpg	100
359.996	0.784	784.0	2back	Block1	2back/STIM_030.jpg	100
364.144	1.006	1006.5	2back	Block1	2back/STIM_030.jpg	100
367.981	1.214	1213.9	2back	Block1	2back/STIM_031.jpg	99
372.251	0.638	637.9	2back	Block1	2back/STIM_031.jpg	99
376.259	1.132	1132.5	2back	Block1	2back/STIM_031.jpg	100
380.23	1.24	1239.7	2back	Block1	2back/STIM_032.jpg	99
384.006	1.186	1185.7	2back	Block1	2back/STIM_032.jpg	99
389.106	1.091	1090.7	2back	Block1	2back/STIM_032.jpg	100
392.2	1.114	1113.7	2back	Block1	2back/STIM_033.jpg	99
395.809	1.256	1256.4	2back	Block1	2back/STIM_033.jpg	99
400.331	1.226	1226.1	2back	Block1	2back/STIM_033.jpg	100
404.469	0.924	923.7	2back	Block1	2back/STIM_034.jpg	100
407.58	1.192	1191.6	2back	Block1	2back/STIM_034.jpg	99
412.615	1.068	1067.7	2back	Block1	2back/STIM_034.jpg	100
417.575	0.776	775.7	2back	Block1	2back/STIM_035.jpg	100
420.599	1.229	1228.8	2back	Block1	2back/STIM_035.jpg	99
424.613	0.914	913.7	2back	Block1	2back/STIM_035.jpg	99
428.131	0.692	691.8	2back	Block1	2back/STIM_036.jpg	99
432.661	0.933	932.9	2back	Block1	2back/STIM_036.jpg	100
437.179	0.94	939.8	2back	Block1	2back/STIM_036.jpg	99
441.005	1.117	1116.6	2back	Block1	2back/STIM_037.jpg	100
445.648	1.333	1332.7	2back	Block1	2back/STIM_037.jpg	100
449.462	1.124	1124.3	2back	Block1	2back/STIM_037.jpg	100
454.116	0.977	976.6	2back	Block1	2back/STIM_038.jpg	100
457.583	1.014	1014.3	2back	Block1	2back/STIM_038.jpg	100
461.873	0.839	839.1	2back	Block1	2back/STIM_038.jpg	100
464.89	1.061	1061.3	2back	Block1	2back/STIM_039.jpg	99
468.883	0.596	595.8	2back	Block1	2back/STIM_039.jpg	100
471.809	0.814	814.3	2back	Block1	2back/STIM_039.jpg	100
474.884	0.687	686.6	0back	Block1	0back/STIM_000.jpg	99
478.169	0.816	816.1	0back	Block1	0back/STIM_000.jpg	99
481.354	0.746	746.3	0back	Block1	0back/STIM_000.jpg	99
485.536	0.549	548.9	0back	Block1	0back/STIM_001.jpg	100
489.872	0.512	512.2	0back	Block1	0back/STIM_001.jpg	99
494.336	0.784	783.8	0back	Block1	0back/STIM_001.jpg	100
498.055	0.689	689.3	0back	Block1	0back/STIM_002.jpg	99
501.48	0.509	509.0	0back	Block1	0back/STIM_002.jpg	99
505.001	0.582	581.7	0back	Block1	0back/STIM_002.jpg	99
509.402	0.639	639.4	0back	Block1	0back/STIM_003.jpg	100
513.934	0.531	530.6	0back	Block1	0back/STIM_003.jpg	100
517.589	0.741	741.0	0back	Block1	0back/STIM_003.jpg	100
521.113	0.725	725.1	0back	Block1	0back/STIM_004.jpg	100
524.315	0.712	711.7	0back	Block1	0back/STIM_004.jpg	99
527.875	0.663	663.0	0back	Block1	0back/STIM_004.jpg	99
531.233	0.734	734.2	0back	Block1	0back/STIM_005.jpg	100
534.194	0.451	450.6	0back	Block1	0back/STIM_005.jpg	99
537.927	0.802	801.8	0back	Block1	0back/STIM_005.jpg	100
540.942	0.562	562.0	0back	Block1	0back/STIM_006.jpg	99
544.484	0.798	797.7	0back	Block1	0back/STIM_006.jpg	100
548.627	0.582	582.3	0back	Block1	0back/STIM_006.jpg	100
552.805	0.76	760.0	0back	Block1	0back/STIM_007.jpg	99
556.737	0.459	458.9	0back	Block1	0back/STIM_007.jpg	100
560.092	0.434	433.9	0back	Block1	0back/STIM_007.jpg	99
563.747	0.75	749.8	0back	Block1	0back/STIM_008.jpg	99
566.784	0.567	566.9	0back	Block1	0back/STIM_008.jpg	99
570.165	0.439	438.7	0back	Block1	0back/STIM_008.jpg	99
573.045	0.619	619.0	0back	Block1	0back/STIM_009.jpg	100
576.577	0.685	685.2	0back	Block1	0back/STIM_009.jpg	99
579.516	0.751	751.0	0back	Block1	0back/STIM_009.jpg	100
583.555	0.655	654.9	0back	Block1	0back/STIM_010.jpg	100
587.127	0.765	765.4	0back	Block1	0back/STIM_010.jpg	99
590.224	0.62	620.5	0back	Block1	0back/STIM_010.jpg	99
594.457	0.58	579.7	0back	Block1	0back/STIM_011.jpg	100
597.832	0.774	773.8	0back	Block1	0back/STIM_011.jpg	100
601.651	0.541	540.8	0back	Block1	0back/STIM_011.jpg	100
604.917	0.717	716.7	0back	Block1	0back/STIM_012.jpg	100
608.881	0.769	768.9	0back	Block1	0back/STIM_012.jpg	100
612.816	0.437	437.3	0back	Block1	0back/STIM_012.jpg	100
615.407	0.683	683.4	0back	Block1	0back/STIM_013.jpg	99
618.89	0.695	695.1	0back	Block1	0back/STIM_013.jpg	99
621.869	0.467	467.1	0back	Block1	0back/STIM_013.jpg	99
625.428	0.483	483.4	0back	Block1	0back/STIM_014.jpg	100
628.909	0.752	752.1	0back	Block1	0back/STIM_014.jpg	99
633.101	0.625	625.1	0back	Block1	0back/STIM_014.jpg	99
637.164	0.753	753.4	0back	Block1	0back/STIM_015.jpg	99
640.76	0.583	583.1	0back	Block1	0back/STIM_015.jpg	99
645.2	0.66	659.8	0back	Block1	0back/STIM_015.jpg	99
648.543	0.782	781.7	0back	Block1	0back/STIM_016.jpg	99
653.301	0.683	682.8	0back	Block1	0back/STIM_016.jpg	99
656.391	0.725	725.1	0back	Block1	0back/STIM_016.jpg	100
659.625	0.642	642.0	0back	Block1	0back/STIM_017.jpg	100
663.318	0.547	546.6	0back	Block1	0back/STIM_017.jpg	100
666.776	0.603	602.9	0back	Block1	0back/STIM_017.jpg	100
670.267	0.798	798.3	0back	Block1	0back/STIM_018.jpg	100
674.307	0.646	646.3	0back	Block1	0back/STIM_018.jpg	99
678.888	0.465	464.7	0back	Block1	0back/STIM_018.jpg	99
682.131	0.513	513.2	0back	Block1	0back/STIM_019.jpg	99
686.517	0.724	724.4	0back	Block1	0back/STIM_019.jpg	99
690.4	0.762	761.9	0back	Block1	0back/STIM_019.jpg	99
694.408	1.009	1008.7	2back	Block2	2back/STIM_000.jpg	100
698.936	0.663	663.2	2back	Block2	2back/STIM_000.jpg	100
702.86	1.045	1044.6	2back	Block2	2back/STIM_000.jpg	99
707.616	1.19	1190.3	2back	Block2	2back/STIM_001.jpg	99
711.78	0.916	915.9	2back	Block2	2back/STIM_001.jpg	100
714.823	0.916	915.7	2back	Block2	2back/STIM_001.jpg	100
718.241	0.898	898.3	2back	Block2	2back/STIM_002.jpg	99
721.533	0.729	728.6	2back	Block2	2back/STIM_002.jpg	100
725.759	0.764	763.9	2back	Block2	2back/STIM_002.jpg	100
729.543	0.924	924.0	2back	Block2	2back/STIM_003.jpg	99
734.021	0.78	779.9	2back	Block2	2back/STIM_003.jpg	99
736.953	0.766	765.8	2back	Block2	2back/STIM_003.jpg	100
741.219	0.679	678.9	2back	Block2	2back/STIM_004.jpg	99
745.731	0.868	868.0	2back	Block2	2back/STIM_004.jpg	99
749.819	0.979	978.9	2back	Block2	2back/STIM_004.jpg	99
752.804	1.014	1014.2	2back	Block2	2back/STIM_005.jpg	99
756.832	0.808	807.7	2back	Block2	2back/STIM_005.jpg	99
761.266	0.473	473.0	2back	Block2	2back/STIM_005.jpg	100
763.802	1.108	1107.8	2back	Block2	2back/STIM_006.jpg	100
768.285	0.639	638.7	2back	Block2	2back/STIM_006.jpg	100
771.998	0.694	694.2	2back	Block2	2back/STIM_006.jpg	99
775.536	1.223	1222.6	2back	Block2	2back/STIM_007.jpg	99
780.433	0.894	893.6	2back	Block2	2back/STIM_007.jpg	100
784.127	0.998	997.9	2back	Block2	2back/STIM_007.jpg	100
787.242	1.077	1077.1	2back	Block2	2back/STIM_008.jpg	99
791.679	0.798	798.0	2back	Block2	2back/STIM_008.jpg	99
794.816	0.64	640.5	2back	Block2	2back/STIM_008.jpg	99
799.39	0.769	769.0	2back	Block2	2back/STIM_009.jpg	99
803.158	0.733	733.2	2back	Block2	2back/STIM_009.jpg	100
806.516	0.708	707.6	2back	Block2	2back/STIM_009.jpg	100
809.342	0.725	725.2	2back	Block2	2back/STIM_010.jpg	99
812.65	0.982	982.0	2back	Block2	2back/STIM_010.jpg	99
816.183	0.698	697.7	2back	Block2	2back/STIM_010.jpg	99
820.058	0.646	645.9	2back	Block2	2back/STIM_011.jpg	100
824.177	0.931	930.9	2back	Block2	2back/STIM_011.jpg	99
827.338	0.517	517.0	2back	Block2	2back/STIM_011.jpg	100
831.839	0.693	693.4	2back	Block2	2back/STIM_012.jpg	99
835.21	0.717	717.0	2back	Block2	2back/STIM_012.jpg	100
839.371	0.85	849.8	2back	Block2	2back/STIM_012.jpg	99
843.019	0.764	764.3	2back	Block2	2back/STIM_013.jpg	99
846.05	1.148	1148.1	2back	Block2	2back/STIM_013.jpg	100
850.969	0.588	587.6	2back	Block2	2back/STIM_013.jpg	99
855.526	0.948	947.7	2back	Block2	2back/STIM_014.jpg	99
859.441	0.698	697.7	2back	Block2	2back/STIM_014.jpg	99
864.011	0.85	849.6	2back	Block2	2back/STIM_014.jpg	100
866.875	1.043	1043.0	2back	Block2	2back/STIM_015.jpg	99
870.983	0.718	717.9	2back	Block2	2back/STIM_015.jpg	100
875.593	0.83	830.2	2back	Block2	2back/STIM_015.jpg	99
879.943	1.181	1180.9	2back	Block2	2back/STIM_016.jpg	100
883.414	0.694	694.0	2back	Block2	2back/STIM_016.jpg	100
887.829	1.001	1000.8	2back	Block2	2back/STIM_016.jpg	99
892.298	0.792	792.0	2back	Block2	2back/STIM_017.jpg	99
896.906	0.575	574.9	2back	Block2	2back/STIM_017.jpg	99
899.908	0.815	814.9	2back	Block2	2back/STIM_017.jpg	100
902.785	1.03	1029.7	2back	Block2	2back/STIM_018.jpg	99
906.391	0.617	617.3	2back	Block2	2back/STIM_018.jpg	99
909.737	0.515	515.0	2back	Block2	2back/STIM_018.jpg	100
912.299	1.034	1034.4	2back	Block2	2back/STIM_019.jpg	100
916.396	0.671	670.6	2back	Block2	2back/STIM_019.jpg	100
920.647	0.94	939.9	2back	Block2	2back/STIM_019.jpg	99
925.09	1.22	1219.5	2back	Block2	2back/STIM_020.jpg	99
929.157	0.762	761.9	2back	Block2	2back/STIM_020.jpg	99
933.174	0.671	670.7	2back	Block2	2back/STIM_020.jpg	99
936.948	1.195	1195.4	2back	Block2	2back/STIM_021.jpg	99
940.121	0.799	799.1	2back	Block2	2back/STIM_021.jpg	99
943.21	0.928	928.0	2back	Block2	2back/STIM_021.jpg	99
947.855	1.076	1076.5	2back	Block2	2back/STIM_022.jpg	100
951.604	1.076	1075.7	2back	Block2	2back/STIM_022.jpg	100
955.626	1.057	1056.8	2back	Block2	2back/STIM_022.jpg	99
959.759	1.023	1022.7	2back	Block2	2back/STIM_023.jpg	100
963.052	0.584	584.5	2back	Block2	2back/STIM_023.jpg	99
966.159	0.487	487.3	2back	Block2	2back/STIM_023.jpg	100
970.262	0.834	834.0	2back	Block2	2back/STIM_024.jpg	100
974.673	1.056	1056.5	2back	Block2	2back/STIM_024.jpg	99
979.492	1.026	1025.9	2back	Block2	2back/STIM_024.jpg	99
983.972	0.83	830.5	2back	Block2	2back/STIM_025.jpg	99
988.151	1.108	1108.5	2back	Block2	2back/STIM_025.jpg	100
993.03	0.993	993.3	2back	Block2	2back/STIM_025.jpg	99
997.08	0.646	646.4	2back	Block2	2back/STIM_026.jpg	99
1000.334	0.842	842.0	2back	Block2	2back/STIM_026.jpg	100
1003.947	0.888	888.4	2back	Block2	2back/STIM_026.jpg	100
1007.599	0.715	714.6	2back	Block2	2back/STIM_027.jpg	99
1010.76	0.735	734.7	2back	Block2	2back/STIM_027.jpg	99
1013.832	0.522	521.7	2back	Block2	2back/STIM_027.jpg	99
1017.157	0.684	683.8	2back	Block2	2back/STIM_028.jpg	100
1020.214	0.744	744.3	2back	Block2	2back/STIM_028.jpg	100
1024.207	0.73	730.3	2back	Block2	2back/STIM_028.jpg	100
1028.817	1.061	1060.7	2back	Block2	2back/STIM_029.jpg	100
1033.354	0.561	561.1	2back	Block2	2back/STIM_029.jpg	99
1037.077	0.911	911.2	2back	Block2	2back/STIM_029.jpg	100
1040.274	1.052	1052.1	2back	Block2	2back/STIM_030.jpg	99
1044.654	0.562	562.3	2back	Block2	2back/STIM_030.jpg	100
1047.872	0.482	482.1	2back	Block2	2back/STIM_030.jpg	99
1051.106	0.954	953.8	2back	Block2	2back/STIM_031.jpg	100
1055.808	0.694	693.7	2back	Block2	2back/STIM_031.jpg	99
1059.33	0.466	466.5	2back	Block2	2back/STIM_031.jpg	99
1062.124	0.644	644.5	2back	Block2	2back/STIM_032.jpg	100
1065.238	0.924	923.9	2back	Block2	2back/STIM_032.jpg	100
1069.543	0.579	579.2	2back	Block2	2back/STIM_032.jpg	99
1072.749	1.212	1211.8	2back	Block2	2back/STIM_033.jpg	99
1077.265	0.519	519.0	2back	Block2	2back/STIM_033.jpg	100
1081.261	0.779	779.2	2back	Block2	2back/STIM_033.jpg	100
1085.455	0.832	831.9	2back	Block2	2back/STIM_034.jpg	100
1090.045	1.0	999.9	2back	Block2	2back/STIM_034.jpg	100
1093.588	1.066	1066.0	2back	Block2	2back/STIM_034.jpg	100
1098.36	0.893	893.3	2back	Block2	2back/STIM_035.jpg	99
1103.091	0.725	725.4	2back	Block2	2back/STIM_035.jpg	100
1106.346	1.069	1069.1	2back	Block2	2back/STIM_035.jpg	100
1109.967	0.73	730.0	2back	Block2	2back/STIM_036.jpg	100
1113.763	1.139	1139.1	2back	Block2	2back/STIM_036.jpg	99
1117.326	0.752	752.0	2back	Block2	2back/STIM_036.jpg	99
1120.081	1.072	1071.6	2back	Block2	2back/STIM_037.jpg	100
1123.46	1.01	1009.5	2back	Block2	2back/STIM_037.jpg	99
1126.445	0.734	734.3	2back	Block2	2back/STIM_037.jpg	99
1130.608	0.884	883.9	2back	Block2	2back/STIM_038.jpg	100
1134.293	0.795	795.0	2back	Block2	2back/STIM_038.jpg	99
1138.077	0.587	587.1	2back	Block2	2back/STIM_038.jpg	100
1141.925	0.935	935.3	2back	Block2	2back/STIM_039.jpg	100
1145.119	0.907	906.7	2back	Block2	2back/STIM_039.jpg	100
1148.217	0.812	812.5	2back	Block2	2back/STIM_039.jpg	99
1151.187	0.498	498.4	0back	Block2	0back/STIM_000.jpg	99
1153.848	0.679	678.7	0back	Block2	0back/STIM_000.jpg	99
1156.949	0.704	704.4	0back	Block2	0back/STIM_000.jpg	99
1161.171	0.605	605.2	0back	Block2	0back/STIM_001.jpg	99
1164.409	0.559	558.6	0back	Block2	0back/STIM_001.jpg	99
1167.768	0.755	754.8	0back	Block2	0back/STIM_001.jpg	99
1170.934	0.716	716.2	0back	Block2	0back/STIM_002.jpg	99
1175.468	0.745	745.3	0back	Block2	0back/STIM_002.jpg	100
1179.398	0.54	540.2	0back	Block2	0back/STIM_002.jpg	100
1182.368	0.529	529.4	0back	Block2	0back/STIM_003.jpg	99
1186.752	0.625	625.0	0back	Block2	0back/STIM_003.jpg	99
1190.183	0.556	556.2	0back	Block2	0back/STIM_003.jpg	100
1194.25	0.505	505.2	0back	Block2	0back/STIM_004.jpg	100
1197.5	0.76	759.5	0back	Block2	0back/STIM_004.jpg	99
1201.574	0.776	776.5	0back	Block2	0back/STIM_004.jpg	100
1204.967	0.637	636.9	0back	Block2	0back/STIM_005.jpg	100
1209.042	0.772	772.0	0back	Block2	0back/STIM_005.jpg	100
1213.261	0.714	713.9	0back	Block2	0back/STIM_005.jpg	99
1217.597	0.706	706.4	0back	Block2	0back/STIM_006.jpg	99
1222.139	0.548	547.9	0back	Block2	0back/STIM_006.jpg	100
1225.879	0.719	719.4	0back	Block2	0back/STIM_006.jpg	100
1229.757	0.619	618.7	0back	Block2	0back/STIM_007.jpg	100
1232.515	0.49	490.4	0back	Block2	0back/STIM_007.jpg	100
1235.052	0.59	590.5	0back	Block2	0back/STIM_007.jpg	100
1238.205	0.619	618.7	0back	Block2	0back/STIM_008.jpg	100
1241.822	0.518	517.8	0back	Block2	0back/STIM_008.jpg	99
1245.398	0.821	821.1	0back	Block2	0back/STIM_008.jpg	99
1248.23	0.51	509.6	0back	Block2	0back/STIM_009.jpg	99
1252.296	0.551	551.2	0back	Block2	0back/STIM_009.jpg	99
1255.649	0.688	688.2	0back	Block2	0back/STIM_009.jpg	99
1258.782	0.469	469.1	0back	Block2	0back/STIM_010.jpg	99
1262.392	0.474	474.5	0back	Block2	0back/STIM_010.jpg	100
1266.692	0.461	460.7	0back	Block2	0back/STIM_010.jpg	100
1270.732	0.758	758.4	0back	Block2	0back/STIM_011.jpg	100
1274.333	0.458	458.2	0back	Block2	0back/STIM_011.jpg	100
1278.655	0.565	564.9	0back	Block2	0back/STIM_011.jpg	100
1281.761	0.719	719.4	0back	Block2	0back/STIM_012.jpg	99
1284.659	0.585	585.3	0back	Block2	0back/STIM_012.jpg	99
1288.767	0.532	531.5	0back	Block2	0back/STIM_012.jpg	100
1291.461	0.551	551.3	0back	Block2	0back/STIM_013.jpg	100
1294.53	0.454	453.8	0back	Block2	0back/STIM_013.jpg	100
1298.813	0.429	428.8	0back	Block2	0back/STIM_013.jpg	99
1301.674	0.522	522.4	0back	Block2	0back/STIM_014.jpg	99
1304.932	0.416	415.5	0back	Block2	0back/STIM_014.jpg	100
1307.806	0.419	419.1	0back	Block2	0back/STIM_014.jpg	99
1311.901	0.524	524.5	0back	Block2	0back/STIM_015.jpg	99
1316.197	0.745	745.0	0back	Block2	0back/STIM_015.jpg	99
1319.974	0.421	421.3	0back	Block2	0back/STIM_015.jpg	100
1322.388	0.533	533.1	0back	Block2	0back/STIM_016.jpg	100
1325.492	0.703	702.8	0back	Block2	0back/STIM_016.jpg	99
1329.809	0.765	765.2	0back	Block2	0back/STIM_016.jpg	99
1334.338	0.46	460.5	0back	Block2	0back/STIM_017.jpg	100
1338.335	0.673	672.7	0back	Block2	0back/STIM_017.jpg	99
1341.084	0.52	520.1	0back	Block2	0back/STIM_017.jpg	100
1344.333	0.442	442.1	0back	Block2	0back/STIM_018.jpg	99
1347.405	0.766	766.2	0back	Block2	0back/STIM_018.jpg	100
1351.93	0.451	451.3	0back	Block2	0back/STIM_018.jpg	99
1356.055	0.729	728.7	0back	Block2	0back/STIM_019.jpg	100
1359.351	0.792	792.2	0back	Block2	0back/STIM_019.jpg	99
1363.243	0.667	666.7	0back	Block2	0back/STIM_019.jpg	99
1366.185	0.726	725.6	2back	Block3	2back/STIM_000.jpg	100
1369.889	0.685	685.4	2back	Block3	2back/STIM_000.jpg	99
1373.167	0.998	998.5	2back	Block3	2back/STIM_000.jpg	99
1376.482	0.843	843.1	2back	Block3	2back/STIM_001.jpg	99
1380.669	0.962	961.9	2back	Block3	2back/STIM_001.jpg	99
1384.955	0.512	512.2	2back	Block3	2back/STIM_001.jpg	99
1387.95	0.83	830.3	2back	Block3	2back/STIM_002.jpg	99
1391.006	1.006	1005.8	2back	Block3	2back/STIM_002.jpg	100
1394.797	0.804	804.4	2back	Block3	2back/STIM_002.jpg	100
1397.86	0.484	484.1	2back	Block3	2back/STIM_003.jpg	99
1401.472	0.735	734.8	2back	Block3	2back/STIM_003.jpg	99
1404.824	0.503	502.9	2back	Block3	2back/STIM_003.jpg	99
1409.112	0.624	623.9	2back	Block3	2back/STIM_004.jpg	99
1413.354	0.62	620.3	2back	Block3	2back/STIM_004.jpg	100
1416.887	0.854	853.8	2back	Block3	2back/STIM_004.jpg	100
1421.111	0.538	537.9	2back	Block3	2back/STIM_005.jpg	99
1425.526	0.824	824.5	2back	Block3	2back/STIM_005.jpg	99
1429.554	0.834	834.0	2back	Block3	2back/STIM_005.jpg	100
1433.294	0.851	851.1	2back	Block3	2back/STIM_006.jpg	99
1436.765	0.683	683.0	2back	Block3	2back/STIM_006.jpg	99
1439.576	0.527	527.3	2back	Block3	2back/STIM_006.jpg	100
1442.543	0.808	808.0	2back	Block3	2back/STIM_007.jpg	100
1447.113	0.447	446.9	2back	Block3	2back/STIM_007.jpg	99
1450.215	0.808	808.2	2back	Block3	2back/STIM_007.jpg	99
1453.874	0.699	698.7	2back	Block3	2back/STIM_008.jpg	100
1456.677	0.511	511.2	2back	Block3	2back/STIM_008.jpg	100
1460.059	1.007	1006.7	2back	Block3	2back/STIM_008.jpg	99
1463.519	0.94	940.1	2back	Block3	2back/STIM_009.jpg	99
1467.006	0.702	702.5	2back	Block3	2back/STIM_009.jpg	100
1470.152	0.443	443.2	2back	Block3	2back/STIM_009.jpg	99
1473.441	0.456	456.1	2back	Block3	2back/STIM_010.jpg	100
1477.281	0.692	691.8	2back	Block3	2back/STIM_010.jpg	99
1480.571	0.948	947.7	2back	Block3	2back/STIM_010.jpg	99
1484.746	0.976	976.1	2back	Block3	2back/STIM_011.jpg	100
1488.166	0.527	527.2	2back	Block3	2back/STIM_011.jpg	99
1492.207	0.699	698.8	2back	Block3	2back/STIM_011.jpg	99
1496.521	0.86	859.6	2back	Block3	2back/STIM_012.jpg	100
1500.301	0.99	990.0	2back	Block3	2back/STIM_012.jpg	99
1504.804	0.797	797.4	2back	Block3	2back/STIM_012.jpg	100
1508.243	0.679	679.0	2back	Block3	2back/STIM_013.jpg	100
1511.809	0.881	880.6	2back	Block3	2back/STIM_013.jpg	99
1515.755	0.957	957.0	2back	Block3	2back/STIM_013.jpg	99
1520.674	0.446	445.7	2back	Block3	2back/STIM_014.jpg	100
1524.938	0.823	823.3	2back	Block3	2back/STIM_014.jpg	99
1528.4	0.525	525.2	2back	Block3	2back/STIM_014.jpg	99
1530.937	0.876	875.5	2back	Block3	2back/STIM_015.jpg	99
1533.835	0.666	666.3	2back	Block3	2back/STIM_015.jpg	100
1536.586	0.509	509.0	2back	Block3	2back/STIM_015.jpg	99
1540.385	0.658	658.0	2back	Block3	2back/STIM_016.jpg	100
1544.015	0.922	922.5	2back	Block3	2back/STIM_016.jpg	99
1548.519	0.697	697.1	2back	Block3	2back/STIM_016.jpg	100
1552.712	0.938	937.8	2back	Block3	2back/STIM_017.jpg	99
1556.809	0.85	849.9	2back	Block3	2back/STIM_017.jpg	100
1560.24	0.873	872.8	2back	Block3	2back/STIM_017.jpg	100
1564.038	0.783	782.6	2back	Block3	2back/STIM_018.jpg	100
1567.705	0.918	917.5	2back	Block3	2back/STIM_018.jpg	100
1571.106	0.922	921.5	2back	Block3	2back/STIM_018.jpg	100
1574.344	0.84	840.5	2back	Block3	2back/STIM_019.jpg	100
1577.302	0.803	802.9	2back	Block3	2back/STIM_019.jpg	100
1580.269	0.908	908.0	2back	Block3	2back/STIM_019.jpg	99
1583.414	0.907	906.8	2back	Block3	2back/STIM_020.jpg	100
1588.195	0.74	739.6	2back	Block3	2back/STIM_020.jpg	99
1591.783	0.457	456.7	2back	Block3	2back/STIM_020.jpg	100
1594.907	0.618	618.3	2back	Block3	2back/STIM_021.jpg	100
1597.615	0.977	976.7	2back	Block3	2back/STIM_021.jpg	99
1602.261	0.954	953.8	2back	Block3	2back/STIM_021.jpg	100
1605.86	0.572	571.5	2back	Block3	2back/STIM_022.jpg	99
1608.745	0.864	864.1	2back	Block3	2back/STIM_022.jpg	99
1613.139	1.003	1003.0	2back	Block3	2back/STIM_022.jpg	99
1617.139	0.58	579.8	2back	Block3	2back/STIM_023.jpg	99
1620.009	0.958	958.3	2back	Block3	2back/STIM_023.jpg	99
1623.357	0.773	773.2	2back	Block3	2back/STIM_023.jpg	100
1626.544	0.978	977.7	2back	Block3	2back/STIM_024.jpg	100
1629.51	0.691	690.7	2back	Block3	2back/STIM_024.jpg	99
1634.13	0.516	516.3	2back	Block3	2back/STIM_024.jpg	100
1636.88	0.457	457.3	2back	Block3	2back/STIM_025.jpg	99
1640.781	0.846	846.2	2back	Block3	2back/STIM_025.jpg	100
1645.024	0.801	800.8	2back	Block3	2back/STIM_025.jpg	99
1648.012	0.826	826.3	2back	Block3	2back/STIM_026.jpg	100
1651.81	0.86	860.0	2back	Block3	2back/STIM_026.jpg	99
1654.662	0.727	727.4	2back	Block3	2back/STIM_026.jpg	100
1658.308	0.526	526.3	2back	Block3	2back/STIM_027.jpg	99
1661.382	0.726	726.1	2back	Block3	2back/STIM_027.jpg	99
1664.2	0.803	803.0	2back	Block3	2back/STIM_027.jpg	100
1667.214	0.985	985.1	2back	Block3	2back/STIM_028.jpg	99
1670.831	0.968	968.5	2back	Block3	2back/STIM_028.jpg	100
1675.101	0.601	600.6	2back	Block3	2back/STIM_028.jpg	99
1677.906	0.448	448.5	2back	Block3	2back/STIM_029.jpg	100
1680.951	0.487	486.8	2back	Block3	2back/STIM_029.jpg	100
1683.574	0.941	941.3	2back	Block3	2back/STIM_029.jpg	99
1688.422	0.915	914.6	2back	Block3	2back/STIM_030.jpg	99
1692.683	0.781	781.3	2back	Block3	2back/STIM_030.jpg	99
1695.562	0.562	561.9	2back	Block3	2back/STIM_030.jpg	100
1698.109	0.784	784.4	2back	Block3	2back/STIM_031.jpg	100
1701.071	0.864	863.9	2back	Block3	2back/STIM_031.jpg	100
1705.687	0.857	856.7	2back	Block3	2back/STIM_031.jpg	99
1709.481	0.863	863.4	2back	Block3	2back/STIM_032.jpg	100
1713.042	0.683	682.6	2back	Block3	2back/STIM_032.jpg	100
1716.169	0.632	631.9	2back	Block3	2back/STIM_032.jpg	99
1720.33	0.922	921.6	2back	Block3	2back/STIM_033.jpg	99
1724.891	0.528	528.5	2back	Block3	2back/STIM_033.jpg	99
1727.587	1.009	1008.6	2back	Block3	2back/STIM_033.jpg	100
1731.739	0.606	605.7	2back	Block3	2back/STIM_034.jpg	99
1735.296	0.866	866.5	2back	Block3	2back/STIM_034.jpg	100
1739.979	0.707	706.6	2back	Block3	2back/STIM_034.jpg	99
1742.829	0.446	445.7	2back	Block3	2back/STIM_035.jpg	100
1746.755	0.844	844.0	2back	Block3	2back/STIM_035.jpg	100
1750.144	0.563	562.9	2back	Block3	2back/STIM_035.jpg	100
1754.53	0.905	905.4	2back	Block3	2back/STIM_036.jpg	100
1757.633	0.77	770.2	2back	Block3	2back/STIM_036.jpg	99
1761.019	0.803	802.9	2back	Block3	2back/STIM_036.jpg	100
1764.318	0.62	620.4	2back	Block3	2back/STIM_037.jpg	99
1768.46	0.614	613.7	2back	Block3	2back/STIM_037.jpg	99
1773.054	0.626	625.9	2back	Block3	2back/STIM_037.jpg	99
1776.397	0.856	856.1	2back	Block3	2back/STIM_038.jpg	100
1779.534	0.592	592.3	2back	Block3	2back/STIM_038.jpg	100
1782.244	0.558	557.6	2back	Block3	2back/STIM_038.jpg	100
1785.899	0.818	818.4	2back	Block3	2back/STIM_039.jpg	100
1789.727	0.741	741.2	2back	Block3	2back/STIM_039.jpg	99
1794.435	0.807	807.3	2back	Block3	2back/STIM_039.jpg	100
1798.048	0.685	684.6	0back	Block3	0back/STIM_000.jpg	100
1801.45	0.54	540.1	0back	Block3	0back/STIM_000.jpg	100
1805.76	0.584	584.1	0back	Block3	0back/STIM_000.jpg	99
1809.601	0.723	723.3	0back	Block3	0back/STIM_001.jpg	100
1814.035	0.603	603.4	0back	Block3	0back/STIM_001.jpg	99
1817.336	0.649	648.8	0back	Block3	0back/STIM_001.jpg	99
1821.438	0.627	627.2	0back	Block3	0back/STIM_002.jpg	100
1825.162	0.592	592.1	0back	Block3	0back/STIM_002.jpg	100
1829.323	0.64	640.5	0back	Block3	0back/STIM_002.jpg	99
1833.069	0.472	472.5	0back	Block3	0back/STIM_003.jpg	100
1836.445	0.709	708.6	0back	Block3	0back/STIM_003.jpg	100
1839.683	0.767	766.9	0back	Block3	0back/STIM_003.jpg	99
1842.954	0.534	534.1	0back	Block3	0back/STIM_004.jpg	100
1845.721	0.622	621.8	0back	Block3	0back/STIM_004.jpg	99
1849.132	0.782	782.2	0back	Block3	0back/STIM_004.jpg	99
1852.057	0.447	446.6	0back	Block3	0back/STIM_005.jpg	99
1854.735	0.42	419.8	0back	Block3	0back/STIM_005.jpg	100
1857.206	0.815	815.2	0back	Block3	0back/STIM_005.jpg	100
1860.609	0.661	660.6	0back	Block3	0back/STIM_006.jpg	99
1864.021	0.471	471.3	0back	Block3	0back/STIM_006.jpg	99
1866.519	0.72	719.8	0back	Block3	0back/STIM_006.jpg	99
1869.829	0.771	770.8	0back	Block3	0back/STIM_007.jpg	99
1874.318	0.809	809.2	0back	Block3	0back/STIM_007.jpg	99
1878.255	0.777	777.0	0back	Block3	0back/STIM_007.jpg	99
1881.973	0.628	627.7	0back	Block3	0back/STIM_008.jpg	100
1884.935	0.539	538.7	0back	Block3	0back/STIM_008.jpg	100
1888.106	0.516	516.3	0back	Block3	0back/STIM_008.jpg	99
1890.924	0.693	693.1	0back	Block3	0back/STIM_009.jpg	99
1895.134	0.812	811.6	0back	Block3	0back/STIM_009.jpg	100
1898.285	0.502	502.0	0back	Block3	0back/STIM_009.jpg	100
1901.689	0.665	665.0	0back	Block3	0back/STIM_010.jpg	100
1905.95	0.722	722.4	0back	Block3	0back/STIM_010.jpg	99
1908.75	0.742	741.7	0back	Block3	0back/STIM_010.jpg	100
1913.04	0.555	554.9	0back	Block3	0back/STIM_011.jpg	100
1916.679	0.59	589.6	0back	Block3	0back/STIM_011.jpg	99
1919.64	0.542	541.5	0back	Block3	0back/STIM_011.jpg	100
1922.627	0.546	545.9	0back	Block3	0back/STIM_012.jpg	99
1927.019	0.497	497.0	0back	Block3	0back/STIM_012.jpg	100
1930.346	0.739	738.8	0back	Block3	0back/STIM_012.jpg	100
1934.117	0.417	416.9	0back	Block3	0back/STIM_013.jpg	100
1937.126	0.487	486.7	0back	Block3	0back/STIM_013.jpg	99
1940.887	0.538	538.4	0back	Block3	0back/STIM_013.jpg	99
1943.809	0.418	417.6	0back	Block3	0back/STIM_014.jpg	99
1946.631	0.819	819.0	0back	Block3	0back/STIM_014.jpg	99
1950.864	0.598	597.9	0back	Block3	0back/STIM_014.jpg	100
1954.95	0.485	485.0	0back	Block3	0back/STIM_015.jpg	99
1959.168	0.615	615.0	0back	Block3	0back/STIM_015.jpg	99
1962.616	0.486	485.5	0back	Block3	0back/STIM_015.jpg	99
1965.103	0.453	452.7	0back	Block3	0back/STIM_016.jpg	99
1968.158	0.685	684.8	0back	Block3	0back/STIM_016.jpg	100
1971.946	0.557	557.3	0back	Block3	0back/STIM_016.jpg	100
1975.074	0.442	441.7	0back	Block3	0back/STIM_017.jpg	99
1978.618	0.506	506.0	0back	Block3	0back/STIM_017.jpg	100
1981.747	0.686	686.4	0back	Block3	0back/STIM_017.jpg	100
1985.598	0.419	419.3	0back	Block3	0back/STIM_018.jpg	100
1988.621	0.689	688.8	0back	Block3	0back/STIM_018.jpg	100
1991.4	0.498	497.8	0back	Block3	0back/STIM_018.jpg	100
1995.745	0.682	682.1	0back	Block3	0back/STIM_019.jpg	100
1999.921	0.718	718.3	0back	Block3	0back/STIM_019.jpg	99
2003.644	0.803	803.4	0back	Block3	0back/STIM_019.jpg	99
2007.452	0.605	604.8	2back	Block4	2back/STIM_000.jpg	100
2011.495	0.665	664.9	2back	Block4	2back/STIM_000.jpg	100
2015.593	0.861	860.8	2back	Block4	2back/STIM_000.jpg	100
2018.837	0.466	465.6	2back	Block4	2back/STIM_001.jpg	100
2022.045	0.921	921.1	2back	Block4	2back/STIM_001.jpg	100
2025.088	0.585	584.6	2back	Block4	2back/STIM_001.jpg	99
2028.388	0.993	992.6	2back	Block4	2back/STIM_002.jpg	99
2031.652	0.592	591.8	2back	Block4	2back/STIM_002.jpg	100
2035.993	0.626	625.5	2back	Block4	2back/STIM_002.jpg	99
2038.864	0.949	949.2	2back	Block4	2back/STIM_003.jpg	100
2042.031	0.636	636.0	2back	Block4	2back/STIM_003.jpg	99
2045.988	0.666	666.4	2back	Block4	2back/STIM_003.jpg	100
2049.28	0.73	730.4	2back	Block4	2back/STIM_004.jpg	99
2052.576	0.942	942.3	2back	Block4	2back/STIM_004.jpg	100
2056.117	0.925	925.1	2back	Block4	2back/STIM_004.jpg	99
2060.334	0.645	645.1	2back	Block4	2back/STIM_005.jpg	100
2063.196	0.84	840.1	2back	Block4	2back/STIM_005.jpg	99
2066.44	0.9	900.2	2back	Block4	2back/STIM_005.jpg	100
2071.186	0.666	665.6	2back	Block4	2back/STIM_006.jpg	99
2075.621	1.001	1000.6	2back	Block4	2back/STIM_006.jpg	99
2079.082	0.502	502.0	2back	Block4	2back/STIM_006.jpg	100
2082.528	0.514	514.2	2back	Block4	2back/STIM_007.jpg	100
2086.253	0.583	582.6	2back	Block4	2back/STIM_007.jpg	100
2090.029	0.781	780.6	2back	Block4	2back/STIM_007.jpg	100
2093.661	0.927	927.0	2back	Block4	2back/STIM_008.jpg	99
2097.095	0.895	894.6	2back	Block4	2back/STIM_008.jpg	100
2101.641	0.507	507.3	2back	Block4	2back/STIM_008.jpg	99
2105.805	0.536	535.5	2back	Block4	2back/STIM_009.jpg	100
2109.231	0.563	562.8	2back	Block4	2back/STIM_009.jpg	99
2113.137	1.004	1003.8	2back	Block4	2back/STIM_009.jpg	100
2116.887	0.832	832.3	2back	Block4	2back/STIM_010.jpg	99
2121.137	0.881	881.3	2back	Block4	2back/STIM_010.jpg	100
2124.05	0.792	792.3	2back	Block4	2back/STIM_010.jpg	99
2127.975	0.597	597.2	2back	Block4	2back/STIM_011.jpg	99
2131.043	0.754	753.5	2back	Block4	2back/STIM_011.jpg	99
2135.357	0.504	503.6	2back	Block4	2back/STIM_011.jpg	100
2139.303	0.902	902.4	2back	Block4	2back/STIM_012.jpg	100
2143.248	0.838	838.1	2back	Block4	2back/STIM_012.jpg	100
2146.798	0.815	815.2	2back	Block4	2back/STIM_012.jpg	99
2150.98	0.81	809.5	2back	Block4	2back/STIM_013.jpg	100
2154.034	0.964	963.7	2back	Block4	2back/STIM_013.jpg	99
2158.256	0.986	986.0	2back	Block4	2back/STIM_013.jpg	99
2163.156	0.648	647.5	2back	Block4	2back/STIM_014.jpg	99
2166.494	0.79	790.4	2back	Block4	2back/STIM_014.jpg	100
2170.946	0.702	701.6	2back	Block4	2back/STIM_014.jpg	100
2175.445	0.895	895.1	2back	Block4	2back/STIM_015.jpg	100
2178.945	0.955	954.7	2back	Block4	2back/STIM_015.jpg	100
2182.79	0.573	573.3	2back	Block4	2back/STIM_015.jpg	99
2185.752	0.536	536.5	2back	Block4	2back/STIM_016.jpg	100
2189.995	0.936	936.0	2back	Block4	2back/STIM_016.jpg	99
2194.228	0.794	793.6	2back	Block4	2back/STIM_016.jpg	100
2197.102	0.45	450.2	2back	Block4	2back/STIM_017.jpg	99
2199.828	0.465	465.1	2back	Block4	2back/STIM_017.jpg	99
2202.951	0.837	836.8	2back	Block4	2back/STIM_017.jpg	99
2205.851	0.715	714.8	2back	Block4	2back/STIM_018.jpg	99
2208.721	0.842	842.1	2back	Block4	2back/STIM_018.jpg	99
2212.936	0.968	968.3	2back	Block4	2back/STIM_018.jpg	99
2216.751	0.861	861.0	2back	Block4	2back/STIM_019.jpg	100
2220.042	0.7	700.1	2back	Block4	2back/STIM_019.jpg	100
2222.955	0.697	696.9	2back	Block4	2back/STIM_019.jpg	100
2227.482	0.619	619.4	2back	Block4	2back/STIM_020.jpg	100
2231.422	0.807	807.3	2back	Block4	2back/STIM_020.jpg	100
2234.838	0.602	602.0	2back	Block4	2back/STIM_020.jpg	100
2237.457	0.962	962.4	2back	Block4	2back/STIM_021.jpg	99
2240.961	0.452	452.1	2back	Block4	2back/STIM_021.jpg	100
2244.878	0.675	675.3	2back	Block4	2back/STIM_021.jpg	99
2249.252	0.645	644.6	2back	Block4	2back/STIM_022.jpg	100
2253.392	0.953	953.1	2back	Block4	2back/STIM_022.jpg	100
2256.44	0.929	929.1	2back	Block4	2back/STIM_022.jpg	99
2260.081	0.44	439.9	2back	Block4	2back/STIM_023.jpg	99
2264.428	0.443	443.2	2back	Block4	2back/STIM_023.jpg	100
2267.754	0.878	878.2	2back	Block4	2back/STIM_023.jpg	100
2270.688	0.761	760.9	2back	Block4	2back/STIM_024.jpg	99
2273.81	0.758	758.4	2back	Block4	2back/STIM_024.jpg	100
2277.794	0.843	843.0	2back	Block4	2back/STIM_024.jpg	100
2281.288	0.733	732.8	2back	Block4	2back/STIM_025.jpg	99
2284.017	0.531	530.8	2back	Block4	2back/STIM_025.jpg	100
2287.677	0.67	670.4	2back	Block4	2back/STIM_025.jpg	99
2290.558	0.628	628.0	2back	Block4	2back/STIM_026.jpg	100
2293.326	0.635	634.6	2back	Block4	2back/STIM_026.jpg	99
2297.501	0.843	842.7	2back	Block4	2back/STIM_026.jpg	100
2300.824	0.482	481.9	2back	Block4	2back/STIM_027.jpg	100
2304.632	0.67	669.5	2back	Block4	2back/STIM_027.jpg	100
2308.732	0.734	733.9	2back	Block4	2back/STIM_027.jpg	100
2312.733	0.74	739.7	2back	Block4	2back/STIM_028.jpg	99
2316.427	0.695	695.2	2back	Block4	2back/STIM_028.jpg	99
2319.795	0.474	474.3	2back	Block4	2back/STIM_028.jpg	99
2323.803	0.603	602.6	2back	Block4	2back/STIM_029.jpg	99
2327.369	0.89	890.1	2back	Block4	2back/STIM_029.jpg	99
2330.943	0.494	493.8	2back	Block4	2back/STIM_029.jpg	100
2334.205	0.64	639.9	2back	Block4	2back/STIM_030.jpg	100
2337.597	0.567	567.1	2back	Block4	2back/STIM_030.jpg	100
2341.448	0.834	834.5	2back	Block4	2back/STIM_030.jpg	100
2346.018	0.795	795.2	2back	Block4	2back/STIM_031.jpg	100
2349.562	0.756	755.6	2back	Block4	2back/STIM_031.jpg	100
2354.264	0.477	477.1	2back	Block4	2back/STIM_031.jpg	99
2358.248	0.532	531.5	2back	Block4	2back/STIM_032.jpg	99
2360.874	0.919	919.0	2back	Block4	2back/STIM_032.jpg	100
2363.788	0.803	803.4	2back	Block4	2back/STIM_032.jpg	100
2367.693	0.795	795.1	2back	Block4	2back/STIM_033.jpg	100
2371.221	0.471	471.2	2back	Block4	2back/STIM_033.jpg	99
2375.026	0.881	880.7	2back	Block4	2back/STIM_033.jpg	100
2379.643	0.657	656.8	2back	Block4	2back/STIM_034.jpg	99
2383.734	0.539	539.3	2back	Block4	2back/STIM_034.jpg	100
2387.609	0.824	824.1	2back	Block4	2back/STIM_034.jpg	100
2390.456	0.528	528.1	2back	Block4	2back/STIM_035.jpg	99
2393.448	0.697	697.1	2back	Block4	2back/STIM_035.jpg	99
2397.043	0.529	529.3	2back	Block4	2back/STIM_035.jpg	100
2399.814	0.61	609.9	2back	Block4	2back/STIM_036.jpg	99
2404.398	0.712	712.4	2back	Block4	2back/STIM_036.jpg	100
2408.485	0.576	575.8	2back	Block4	2back/STIM_036.jpg	99
2411.1	0.696	696.5	2back	Block4	2back/STIM_037.jpg	99
2415.563	0.846	846.1	2back	Block4	2back/STIM_037.jpg	100
2418.967	0.903	903.2	2back	Block4	2back/STIM_037.jpg	99
2422.097	0.643	642.7	2back	Block4	2back/STIM_038.jpg	100
2424.776	0.581	580.6	2back	Block4	2back/STIM_038.jpg	99
2428.813	0.843	843.3	2back	Block4	2back/STIM_038.jpg	100
2432.289	0.92	920.2	2back	Block4	2back/STIM_039.jpg	100
2436.803	0.521	520.8	2back	Block4	2back/STIM_039.jpg	99
2439.792	0.8	799.9	2back	Block4	2back/STIM_039.jpg	99
2442.743	0.72	720.4	0back	Block4	0back/STIM_000.jpg	100
2446.767	0.794	793.5	0back	Block4	0back/STIM_000.jpg	99
2449.653	0.779	778.9	0back	Block4	0back/STIM_000.jpg	99
2454.387	0.434	434.2	0back	Block4	0back/STIM_001.jpg	100
2458.107	0.572	572.4	0back	Block4	0back/STIM_001.jpg	99
2460.947	0.809	809.3	0back	Block4	0back/STIM_001.jpg	100
2463.827	0.566	565.6	0back	Block4	0back/STIM_002.jpg	99
2467.408	0.52	520.1	0back	Block4	0back/STIM_002.jpg	100
2470.158	0.656	656.3	0back	Block4	0back/STIM_002.jpg	99
2472.939	0.582	582.0	0back	Block4	0back/STIM_003.jpg	99
2476.956	0.699	698.6	0back	Block4	0back/STIM_003.jpg	99
2479.867	0.646	645.5	0back	Block4	0back/STIM_003.jpg	100
2483.985	0.437	436.8	0back	Block4	0back/STIM_004.jpg	99
2487.563	0.651	651.0	0back	Block4	0back/STIM_004.jpg	100
2491.192	0.676	675.9	0back	Block4	0back/STIM_004.jpg	99
2495.166	0.707	706.6	0back	Block4	0back/STIM_005.jpg	99
2498.158	0.636	635.9	0back	Block4	0back/STIM_005.jpg	100
2502.393	0.662	662.4	0back	Block4	0back/STIM_005.jpg	100
2507.001	0.534	533.5	0back	Block4	0back/STIM_006.jpg	100
2511.065	0.498	497.5	0back	Block4	0back/STIM_006.jpg	100
2514.314	0.822	821.5	0back	Block4	0back/STIM_006.jpg	100
2517.305	0.423	423.3	0back	Block4	0back/STIM_007.jpg	99
2519.805	0.798	798.4	0back	Block4	0back/STIM_007.jpg	100
2522.636	0.707	706.7	0back	Block4	0back/STIM_007.jpg	100
2525.487	0.458	457.7	0back	Block4	0back/STIM_008.jpg	99
2529.542	0.748	748.5	0back	Block4	0back/STIM_008.jpg	100
2534.007	0.544	544.4	0back	Block4	0back/STIM_008.jpg	100
2536.897	0.658	657.5	0back	Block4	0back/STIM_009.jpg	99
2539.997	0.532	531.9	0back	Block4	0back/STIM_009.jpg	99
2543.645	0.718	718.0	0back	Block4	0back/STIM_009.jpg	99
2546.6	0.444	443.6	0back	Block4	0back/STIM_010.jpg	99
2549.353	0.728	728.1	0back	Block4	0back/STIM_010.jpg	99
2553.572	0.574	573.7	0back	Block4	0back/STIM_010.jpg	100
2556.288	0.472	471.8	0back	Block4	0back/STIM_011.jpg	99
2559.437	0.582	582.0	0back	Block4	0back/STIM_011.jpg	99
2562.317	0.819	818.8	0back	Block4	0back/STIM_011.jpg	99
2565.575	0.44	439.6	0back	Block4	0back/STIM_012.jpg	99
2569.987	0.541	540.9	0back	Block4	0back/STIM_012.jpg	100
2572.856	0.435	435.1	0back	Block4	0back/STIM_012.jpg	99
2577.132	0.459	459.2	0back	Block4	0back/STIM_013.jpg	99
2580.718	0.513	513.2	0back	Block4	0back/STIM_013.jpg	99
2583.236	0.431	431.2	0back	Block4	0back/STIM_013.jpg	99
2587.326	0.752	752.5	0back	Block4	0back/STIM_014.jpg	99
2590.702	0.613	613.1	0back	Block4	0back/STIM_014.jpg	99
2595.055	0.498	497.8	0back	Block4	0back/STIM_014.jpg	100
2598.995	0.518	517.6	0back	Block4	0back/STIM_015.jpg	100
2603.425	0.694	694.1	0back	Block4	0back/STIM_015.jpg	100
2607.059	0.488	488.4	0back	Block4	0back/STIM_015.jpg	100
2609.731	0.413	412.6	0back	Block4	0back/STIM_016.jpg	99
2612.554	0.585	585.0	0back	Block4	0back/STIM_016.jpg	100
2615.85	0.687	686.8	0back	Block4	0back/STIM_016.jpg	100
2620.296	0.494	494.5	0back	Block4	0back/STIM_017.jpg	100
2623.006	0.718	717.8	0back	Block4	0back/STIM_017.jpg	100
2627.175	0.494	494.3	0back	Block4	0back/STIM_017.jpg	100
2629.924	0.456	456.2	0back	Block4	0back/STIM_018.jpg	99
2632.392	0.785	785.3	0back	Block4	0back/STIM_018.jpg	99
2636.562	0.569	568.6	0back	Block4	0back/STIM_018.jpg	99
2639.118	0.751	751.2	0back	Block4	0back/STIM_019.jpg	99
2642.575	0.532	532.0	0back	Block4	0back/STIM_019.jpg	99
2646.75	0.51	509.7	0back	Block4	0back/STIM_019.jpg	99
