onset	duration	accuracy	trial_type	learning_stage	stimulus
0.0	1.374	correct	study	Phase1	study/STIM_000.jpg
3.593	1.652	correct	study	Phase1	study/STIM_000.jpg
8.756	1.534	correct	study	Phase1	study/STIM_000.jpg
13.684	1.578	correct	study	Phase1	study/STIM_001.jpg
17.549	1.526	incorrect	study	Phase1	study/STIM_001.jpg
22.131	0.997	correct	study	Phase1	study/STIM_001.jpg
25.997	0.998	correct	study	Phase1	study/STIM_002.jpg
29.258	1.551	correct	study	Phase1	study/STIM_002.jpg
33.171	1.063	correct	study	Phase1	study/STIM_002.jpg
36.756	1.665	correct	study	Phase1	study/STIM_003.jpg
41.347	0.814	correct	study	Phase1	study/STIM_003.jpg
44.298	1.59	correct	study	Phase1	study/STIM_003.jpg
48.397	1.332	incorrect	study	Phase1	study/STIM_004.jpg
53.238	1.014	correct	study	Phase1	study/STIM_004.jpg
56.579	1.016	correct	study	Phase1	study/STIM_004.jpg
60.133	1.769	correct	study	Phase1	study/STIM_005.jpg
65.107	1.06	correct	study	Phase1	study/STIM_005.jpg
69.799	1.278	correct	study	Phase1	study/STIM_005.jpg
74.926	1.246	correct	study	Phase1	study/STIM_006.jpg
79.954	1.197	incorrect	study	Phase1	study/STIM_006.jpg
84.217	1.337	correct	study	Phase1	study/STIM_006.jpg
87.646	1.086	correct	study	Phase1	study/STIM_007.jpg
92.006	0.979	correct	study	Phase1	study/STIM_007.jpg
95.768	1.005	correct	study	Phase1	study/STIM_007.jpg
98.995	0.843	correct	study	Phase1	study/STIM_008.jpg
102.355	1.562	correct	study	Phase1	study/STIM_008.jpg
107.318	1.638	correct	study	Phase1	study/STIM_008.jpg
111.111	1.674	correct	study	Phase1	study/STIM_009.jpg
116.729	1.119	correct	study	Phase1	study/STIM_009.jpg
121.532	1.66	correct	study	Phase1	study/STIM_009.jpg
127.12	1.772	correct	study	Phase1	study/STIM_010.jpg
131.717	1.739	incorrect	study	Phase1	study/STIM_010.jpg
137.236	1.449	correct	study	Phase1	study/STIM_010.jpg
142.151	1.222	correct	study	Phase1	study/STIM_011.jpg
146.74	0.872	correct	study	Phase1	study/STIM_011.jpg
149.643	1.008	correct	study	Phase1	study/STIM_011.jpg
154.405	1.615	correct	study	Phase1	study/STIM_012.jpg
159.56	1.413	correct	study	Phase1	study/STIM_012.jpg
164.84	0.871	correct	study	Phase1	study/STIM_012.jpg
168.161	1.713	correct	study	Phase1	study/STIM_013.jpg
172.61	1.064	correct	study	Phase1	study/STIM_013.jpg
177.182	0.898	incorrect	study	Phase1	study/STIM_013.jpg
180.772	1.059	correct	study	Phase1	study/STIM_014.jpg
185.472	1.297	correct	study	Phase1	study/STIM_014.jpg
188.848	0.979	correct	study	Phase1	study/STIM_014.jpg
193.585	1.75	correct	study	Phase1	study/STIM_015.jpg
198.694	0.931	correct	study	Phase1	study/STIM_015.jpg
202.626	1.466	correct	study	Phase1	study/STIM_015.jpg
207.928	0.995	incorrect	study	Phase1	study/STIM_016.jpg
212.242	1.525	correct	study	Phase1	study/STIM_016.jpg
215.831	1.49	correct	study	Phase1	study/STIM_016.jpg
221.055	1.733	correct	study	Phase1	study/STIM_017.jpg
225.561	0.962	correct	study	Phase1	study/STIM_017.jpg
229.909	1.469	incorrect	study	Phase1	study/STIM_017.jpg
234.475	1.437	correct	study	Phase1	study/STIM_018.jpg
238.43	0.953	correct	study	Phase1	study/STIM_018.jpg
241.506	1.052	correct	study	Phase1	study/STIM_018.jpg
244.72	1.412	correct	study	Phase1	study/STIM_019.jpg
248.827	1.08	correct	study	Phase1	study/STIM_019.jpg
252.01	1.182	correct	study	Phase1	study/STIM_019.jpg
257.018	1.061	correct	study	Phase1	study/STIM_020.jpg
260.141	1.611	correct	study	Phase1	study/STIM_020.jpg
263.871	0.816	correct	study	Phase1	study/STIM_020.jpg
266.757	1.558	correct	study	Phase1	study/STIM_021.jpg
271.941	1.263	correct	study	Phase1	study/STIM_021.jpg
275.45	1.229	correct	study	Phase1	study/STIM_021.jpg
279.542	1.692	correct	study	Phase1	study/STIM_022.jpg
283.3	1.728	correct	study	Phase1	study/STIM_022.jpg
287.89	1.182	correct	study	Phase1	study/STIM_022.jpg
292.722	1.119	correct	study	Phase1	study/STIM_023.jpg
296.249	1.532	correct	study	Phase1	study/STIM_023.jpg
300.151	1.16	correct	study	Phase1	study/STIM_023.jpg
304.348	1.676	correct	study	Phase1	study/STIM_024.jpg
308.404	1.378	correct	study	Phase1	study/STIM_024.jpg
312.011	1.062	correct	study	Phase1	study/STIM_024.jpg
315.792	0.87	correct	study	Phase1	study/STIM_025.jpg
320.627	1.646	incorrect	study	Phase1	study/STIM_025.jpg
325.392	1.459	correct	study	Phase1	study/STIM_025.jpg
329.903	1.327	incorrect	study	Phase1	study/STIM_026.jpg
334.098	1.542	correct	study	Phase1	study/STIM_026.jpg
339.427	1.58	incorrect	study	Phase1	study/STIM_026.jpg
343.084	1.455	incorrect	study	Phase1	study/STIM_027.jpg
346.652	1.291	correct	study	Phase1	study/STIM_027.jpg
350.489	1.115	correct	study	Phase1	study/STIM_027.jpg
355.318	0.933	correct	study	Phase1	study/STIM_028.jpg
358.698	1.549	correct	study	Phase1	study/STIM_028.jpg
363.651	1.409	correct	study	Phase1	study/STIM_028.jpg
368.003	0.992	incorrect	study	Phase1	study/STIM_029.jpg
372.457	1.622	correct	study	Phase1	study/STIM_029.jpg
377.343	1.641	correct	study	Phase1	study/STIM_029.jpg
382.266	0.954	correct	test	Phase1	test/STIM_000.jpg
385.786	1.146	incorrect	test	Phase1	test/STIM_000.jpg
389.352	0.853	incorrect	test	Phase1	test/STIM_000.jpg
392.469	0.972	correct	test	Phase1	test/STIM_001.jpg
396.023	1.277	incorrect	test	Phase1	test/STIM_001.jpg
400.297	1.207	correct	test	Phase1	test/STIM_001.jpg
404.191	0.718	incorrect	test	Phase1	test/STIM_002.jpg
407.107	0.842	correct	test	Phase1	test/STIM_002.jpg
411.33	1.232	correct	test	Phase1	test/STIM_002.jpg
415.773	0.98	correct	test	Phase1	test/STIM_003.jpg
419.695	0.707	correct	test	Phase1	test/STIM_003.jpg
423.064	1.24	correct	test	Phase1	test/STIM_003.jpg
426.318	1.052	correct	test	Phase1	test/STIM_004.jpg
430.21	0.664	correct	test	Phase1	test/STIM_004.jpg
433.404	1.263	correct	test	Phase1	test/STIM_004.jpg
437.146	1.203	correct	test	Phase1	test/STIM_005.jpg
442.06	1.2	correct	test	Phase1	test/STIM_005.jpg
445.452	1.057	correct	test	Phase1	test/STIM_005.jpg
450.105	0.754	correct	test	Phase1	test/STIM_006.jpg
454.489	0.633	correct	test	Phase1	test/STIM_006.jpg
458.731	0.947	correct	test	Phase1	test/STIM_006.jpg
463.215	0.686	correct	test	Phase1	test/STIM_007.jpg
465.89	0.962	incorrect	test	Phase1	test/STIM_007.jpg
470.681	0.738	correct	test	Phase1	test/STIM_007.jpg
473.506	1.113	correct	test	Phase1	test/STIM_008.jpg
477.499	0.928	correct	test	Phase1	test/STIM_008.jpg
480.983	0.969	correct	test	Phase1	test/STIM_008.jpg
484.143	1.019	correct	test	Phase1	test/STIM_009.jpg
488.65	0.864	correct	test	Phase1	test/STIM_009.jpg
492.279	1.068	correct	test	Phase1	test/STIM_009.jpg
495.954	0.924	correct	test	Phase1	test/STIM_010.jpg
499.731	0.96	correct	test	Phase1	test/STIM_010.jpg
504.222	0.671	correct	test	Phase1	test/STIM_010.jpg
508.601	0.864	correct	test	Phase1	test/STIM_011.jpg
511.952	0.699	incorrect	test	Phase1	test/STIM_011.jpg
516.072	1.048	correct	test	Phase1	test/STIM_011.jpg
519.156	1.22	correct	test	Phase1	test/STIM_012.jpg
523.238	0.77	correct	test	Phase1	test/STIM_012.jpg
526.738	1.291	correct	test	Phase1	test/STIM_012.jpg
531.756	1.014	correct	test	Phase1	test/STIM_013.jpg
534.985	1.338	correct	test	Phase1	test/STIM_013.jpg
538.465	1.029	correct	test	Phase1	test/STIM_013.jpg
542.218	1.126	correct	test	Phase1	test/STIM_014.jpg
546.899	1.262	correct	test	Phase1	test/STIM_014.jpg
550.718	1.132	correct	test	Phase1	test/STIM_014.jpg
554.056	0.971	correct	test	Phase1	test/STIM_015.jpg
557.576	1.083	correct	test	Phase1	test/STIM_015.jpg
561.805	0.694	correct	test	Phase1	test/STIM_015.jpg
565.788	1.072	incorrect	test	Phase1	test/STIM_016.jpg
570.162	0.92	correct	test	Phase1	test/STIM_016.jpg
574.421	0.888	correct	test	Phase1	test/STIM_016.jpg
577.405	1.149	correct	test	Phase1	test/STIM_017.jpg
582.479	1.004	correct	test	Phase1	test/STIM_017.jpg
585.857	1.258	correct	test	Phase1	test/STIM_017.jpg
590.151	1.236	correct	test	Phase1	test/STIM_018.jpg
593.834	1.285	correct	test	Phase1	test/STIM_018.jpg
598.86	0.883	correct	test	Phase1	test/STIM_018.jpg
602.291	0.864	correct	test	Phase1	test/STIM_019.jpg
606.58	0.895	correct	test	Phase1	test/STIM_019.jpg
610.794	1.022	correct	test	Phase1	test/STIM_019.jpg
614.89	1.141	correct	test	Phase1	test/STIM_020.jpg
619.557	0.837	correct	test	Phase1	test/STIM_020.jpg
623.138	0.63	incorrect	test	Phase1	test/STIM_020.jpg
627.659	1.079	correct	test	Phase1	test/STIM_021.jpg
630.918	0.946	correct	test	Phase1	test/STIM_021.jpg
635.042	1.296	incorrect	test	Phase1	test/STIM_021.jpg
640.138	0.835	correct	test	Phase1	test/STIM_022.jpg
643.561	1.074	correct	test	Phase1	test/STIM_022.jpg
647.917	1.342	correct	test	Phase1	test/STIM_022.jpg
651.453	0.78	correct	test	Phase1	test/STIM_023.jpg
656.015	0.958	correct	test	Phase1	test/STIM_023.jpg
659.287	0.776	correct	test	Phase1	test/STIM_023.jpg
663.402	0.859	correct	test	Phase1	test/STIM_024.jpg
666.34	0.672	correct	test	Phase1	test/STIM_024.jpg
670.397	1.052	correct	test	Phase1	test/STIM_024.jpg
675.351	0.867	correct	test	Phase1	test/STIM_025.jpg
679.931	0.789	correct	test	Phase1	test/STIM_025.jpg
684.66	1.272	correct	test	Phase1	test/STIM_025.jpg
687.91	0.784	correct	test	Phase1	test/STIM_026.jpg
691.388	1.032	incorrect	test	Phase1	test/STIM_026.jpg
695.484	0.724	correct	test	Phase1	test/STIM_026.jpg
699.163	0.992	correct	test	Phase1	test/STIM_027.jpg
704.099	0.699	correct	test	Phase1	test/STIM_027.jpg
708.247	1.096	incorrect	test	Phase1	test/STIM_027.jpg
711.425	0.921	correct	test	Phase1	test/STIM_028.jpg
715.46	1.083	correct	test	Phase1	test/STIM_028.jpg
719.943	0.705	correct	test	Phase1	test/STIM_028.jpg
723.863	0.627	correct	test	Phase1	test/STIM_029.jpg
727.173	0.804	correct	test	Phase1	test/STIM_029.jpg
731.905	0.823	correct	test	Phase1	test/STIM_029.jpg
734.889	1.404	correct	study	Phase2	study/STIM_000.jpg
739.427	0.891	correct	study	Phase2	study/STIM_000.jpg
743.338	0.984	correct	study	Phase2	study/STIM_000.jpg
747.542	1.185	correct	study	Phase2	study/STIM_001.jpg
751.066	0.791	correct	study	Phase2	study/STIM_001.jpg
754.72	0.756	correct	study	Phase2	study/STIM_001.jpg
758.297	1.254	correct	study	Phase2	study/STIM_002.jpg
762.028	1.337	correct	study	Phase2	study/STIM_002.jpg
765.511	0.871	correct	study	Phase2	study/STIM_002.jpg
769.281	0.96	correct	study	Phase2	study/STIM_003.jpg
772.34	1.476	correct	study	Phase2	study/STIM_003.jpg
777.101	0.662	correct	study	Phase2	study/STIM_003.jpg
781.262	1.1	correct	study	Phase2	study/STIM_004.jpg
785.003	1.0	correct	study	Phase2	study/STIM_004.jpg
789.814	1.334	correct	study	Phase2	study/STIM_004.jpg
794.388	1.48	correct	study	Phase2	study/STIM_005.jpg
798.191	1.312	correct	study	Phase2	study/STIM_005.jpg
801.573	1.035	correct	study	Phase2	study/STIM_005.jpg
804.94	0.763	correct	study	Phase2	study/STIM_006.jpg
808.437	1.304	correct	study	Phase2	study/STIM_006.jpg
812.073	0.777	correct	study	Phase2	study/STIM_006.jpg
816.093	0.716	correct	study	Phase2	study/STIM_007.jpg
820.624	1.102	correct	study	Phase2	study/STIM_007.jpg
824.668	0.656	correct	study	Phase2	study/STIM_007.jpg
828.777	0.818	incorrect	study	Phase2	study/STIM_008.jpg
831.966	0.987	correct	study	Phase2	study/STIM_008.jpg
835.465	0.725	correct	study	Phase2	study/STIM_008.jpg
839.109	1.219	correct	study	Phase2	study/STIM_009.jpg
842.495	1.381	correct	study	Phase2	study/STIM_009.jpg
846.047	0.915	correct	study	Phase2	study/STIM_009.jpg
850.34	0.835	correct	study	Phase2	study/STIM_010.jpg
853.197	1.379	correct	study	Phase2	study/STIM_010.jpg
856.572	1.347	correct	study	Phase2	study/STIM_010.jpg
861.372	1.454	correct	study	Phase2	study/STIM_011.jpg
864.921	1.131	correct	study	Phase2	study/STIM_011.jpg
869.532	0.829	correct	study	Phase2	study/STIM_011.jpg
872.739	1.326	correct	study	Phase2	study/STIM_012.jpg
877.995	1.428	correct	study	Phase2	study/STIM_012.jpg
882.779	1.252	correct	study	Phase2	study/STIM_012.jpg
887.617	0.974	correct	study	Phase2	study/STIM_013.jpg
890.807	1.195	correct	study	Phase2	study/STIM_013.jpg
895.599	0.666	correct	study	Phase2	study/STIM_013.jpg
898.561	1.322	correct	study	Phase2	study/STIM_014.jpg
902.316	0.668	correct	study	Phase2	study/STIM_014.jpg
906.169	1.162	correct	study	Phase2	study/STIM_014.jpg
910.423	1.276	incorrect	study	Phase2	study/STIM_015.jpg
915.034	1.424	correct	study	Phase2	study/STIM_015.jpg
919.574	1.077	correct	study	Phase2	study/STIM_015.jpg
922.647	0.873	correct	study	Phase2	study/STIM_016.jpg
925.636	0.959	correct	study	Phase2	study/STIM_016.jpg
929.754	0.828	correct	study	Phase2	study/STIM_016.jpg
933.18	1.163	incorrect	study	Phase2	study/STIM_017.jpg
937.986	1.47	correct	study	Phase2	study/STIM_017.jpg
942.225	0.742	correct	study	Phase2	study/STIM_017.jpg
946.776	1.559	correct	study	Phase2	study/STIM_018.jpg
950.548	1.341	correct	study	Phase2	study/STIM_018.jpg
954.619	0.649	correct	study	Phase2	study/STIM_018.jpg
957.6	1.421	correct	study	Phase2	study/STIM_019.jpg
962.166	1.145	correct	study	Phase2	study/STIM_019.jpg
965.473	1.118	correct	study	Phase2	study/STIM_019.jpg
968.571	1.272	correct	study	Phase2	study/STIM_020.jpg
973.062	0.899	correct	study	Phase2	study/STIM_020.jpg
976.843	1.104	correct	study	Phase2	study/STIM_020.jpg
980.965	1.028	correct	study	Phase2	study/STIM_021.jpg
985.151	0.93	correct	study	Phase2	study/STIM_021.jpg
989.205	1.381	correct	study	Phase2	study/STIM_021.jpg
994.364	1.169	correct	study	Phase2	study/STIM_022.jpg
998.674	1.146	correct	study	Phase2	study/STIM_022.jpg
1003.156	1.004	correct	study	Phase2	study/STIM_022.jpg
1007.971	1.135	incorrect	study	Phase2	study/STIM_023.jpg
1011.968	1.244	correct	study	Phase2	study/STIM_023.jpg
1015.964	0.641	correct	study	Phase2	study/STIM_023.jpg
1020.266	1.375	correct	study	Phase2	study/STIM_024.jpg
1023.808	1.434	correct	study	Phase2	study/STIM_024.jpg
1028.007	1.375	correct	study	Phase2	study/STIM_024.jpg
1033.332	1.037	correct	study	Phase2	study/STIM_025.jpg
1037.637	1.339	correct	study	Phase2	study/STIM_025.jpg
1041.586	0.898	correct	study	Phase2	study/STIM_025.jpg
1045.41	1.212	correct	study	Phase2	study/STIM_026.jpg
1049.857	1.418	correct	study	Phase2	study/STIM_026.jpg
1054.171	0.921	incorrect	study	Phase2	study/STIM_026.jpg
1058.027	1.513	correct	study	Phase2	study/STIM_027.jpg
1061.982	1.147	incorrect	study	Phase2	study/STIM_027.jpg
1066.412	1.215	correct	study	Phase2	study/STIM_027.jpg
1070.3	1.288	correct	study	Phase2	study/STIM_028.jpg
1074.801	1.125	correct	study	Phase2	study/STIM_028.jpg
1077.949	0.909	correct	study	Phase2	study/STIM_028.jpg
1082.427	1.461	correct	study	Phase2	study/STIM_029.jpg
1087.239	0.73	correct	study	Phase2	study/STIM_029.jpg
1090.264	0.985	correct	study	Phase2	study/STIM_029.jpg
1095.098	1.232	correct	test	Phase2	test/STIM_000.jpg
1099.815	1.039	incorrect	test	Phase2	test/STIM_000.jpg
1103.774	0.766	correct	test	Phase2	test/STIM_000.jpg
1107.047	0.761	correct	test	Phase2	test/STIM_001.jpg
1111.073	0.94	correct	test	Phase2	test/STIM_001.jpg
1115.714	0.725	correct	test	Phase2	test/STIM_001.jpg
1118.559	0.965	correct	test	Phase2	test/STIM_002.jpg
1122.832	0.684	correct	test	Phase2	test/STIM_002.jpg
1125.575	0.713	correct	test	Phase2	test/STIM_002.jpg
1129.121	0.886	correct	test	Phase2	test/STIM_003.jpg
1133.499	1.277	correct	test	Phase2	test/STIM_003.jpg
1137.254	0.99	correct	test	Phase2	test/STIM_003.jpg
1140.579	0.922	correct	test	Phase2	test/STIM_004.jpg
1144.762	0.687	correct	test	Phase2	test/STIM_004.jpg
1147.618	1.223	incorrect	test	Phase2	test/STIM_004.jpg
1152.349	1.247	correct	test	Phase2	test/STIM_005.jpg
1157.365	0.832	correct	test	Phase2	test/STIM_005.jpg
1160.921	1.317	correct	test	Phase2	test/STIM_005.jpg
1164.211	0.658	incorrect	test	Phase2	test/STIM_006.jpg
1167.288	0.973	correct	test	Phase2	test/STIM_006.jpg
1171.198	0.945	incorrect	test	Phase2	test/STIM_006.jpg
1174.758	0.854	correct	test	Phase2	test/STIM_007.jpg
1178.379	1.018	incorrect	test	Phase2	test/STIM_007.jpg
1182.813	1.28	correct	test	Phase2	test/STIM_007.jpg
1186.547	0.84	correct	test	Phase2	test/STIM_008.jpg
1190.415	1.216	correct	test	Phase2	test/STIM_008.jpg
1195.362	0.769	correct	test	Phase2	test/STIM_008.jpg
1199.291	0.992	correct	test	Phase2	test/STIM_009.jpg
1204.125	0.78	correct	test	Phase2	test/STIM_009.jpg
1208.352	0.989	correct	test	Phase2	test/STIM_009.jpg
1212.727	0.847	correct	test	Phase2	test/STIM_010.jpg
1217.343	1.234	correct	test	Phase2	test/STIM_010.jpg
1220.98	0.697	correct	test	Phase2	test/STIM_010.jpg
1224.539	1.139	correct	test	Phase2	test/STIM_011.jpg
1229.006	0.841	incorrect	test	Phase2	test/STIM_011.jpg
1232.792	1.252	correct	test	Phase2	test/STIM_011.jpg
1236.773	0.888	correct	test	Phase2	test/STIM_012.jpg
1240.218	1.044	correct	test	Phase2	test/STIM_012.jpg
1244.181	1.193	correct	test	Phase2	test/STIM_012.jpg
1247.632	0.704	correct	test	Phase2	test/STIM_013.jpg
1252.048	1.273	correct	test	Phase2	test/STIM_013.jpg
1256.576	1.12	correct	test	Phase2	test/STIM_013.jpg
1260.964	0.877	incorrect	test	Phase2	test/STIM_014.jpg
1264.804	0.737	correct	test	Phase2	test/STIM_014.jpg
1268.048	0.696	correct	test	Phase2	test/STIM_014.jpg
1272.451	0.655	correct	test	Phase2	test/STIM_015.jpg
1275.225	0.772	correct	test	Phase2	test/STIM_015.jpg
1278.0	0.682	correct	test	Phase2	test/STIM_015.jpg
1280.774	1.16	correct	test	Phase2	test/STIM_016.jpg
1285.471	1.223	correct	test	Phase2	test/STIM_016.jpg
1288.958	0.622	correct	test	Phase2	test/STIM_016.jpg
1292.648	0.992	incorrect	test	Phase2	test/STIM_017.jpg
1296.263	1.34	incorrect	test	Phase2	test/STIM_017.jpg
1299.701	0.746	correct	test	Phase2	test/STIM_017.jpg
1302.732	1.278	correct	test	Phase2	test/STIM_018.jpg
1306.805	1.166	correct	test	Phase2	test/STIM_018.jpg
1310.458	0.655	correct	test	Phase2	test/STIM_018.jpg
1314.811	0.922	correct	test	Phase2	test/STIM_019.jpg
1319.677	0.778	correct	test	Phase2	test/STIM_019.jpg
1324.429	0.722	correct	test	Phase2	test/STIM_019.jpg
1328.795	1.287	correct	test	Phase2	test/STIM_020.jpg
1332.198	0.648	correct	test	Phase2	test/STIM_020.jpg
1335.129	0.884	correct	test	Phase2	test/STIM_020.jpg
1338.449	1.042	correct	test	Phase2	test/STIM_021.jpg
1342.217	0.776	correct	test	Phase2	test/STIM_021.jpg
1346.127	0.66	correct	test	Phase2	test/STIM_021.jpg
1349.927	0.97	correct	test	Phase2	test/STIM_022.jpg
1353.96	0.883	correct	test	Phase2	test/STIM_022.jpg
1358.707	0.848	correct	test	Phase2	test/STIM_022.jpg
1362.285	0.734	correct	test	Phase2	test/STIM_023.jpg
1365.479	0.977	correct	test	Phase2	test/STIM_023.jpg
1369.453	0.621	correct	test	Phase2	test/STIM_023.jpg
1372.834	1.071	correct	test	Phase2	test/STIM_024.jpg
1377.716	0.845	correct	test	Phase2	test/STIM_024.jpg
1381.923	0.887	correct	test	Phase2	test/STIM_024.jpg
1385.768	0.964	correct	test	Phase2	test/STIM_025.jpg
1389.485	0.77	incorrect	test	Phase2	test/STIM_025.jpg
1392.495	0.651	correct	test	Phase2	test/STIM_025.jpg
1395.156	0.879	correct	test	Phase2	test/STIM_026.jpg
1399.605	0.895	correct	test	Phase2	test/STIM_026.jpg
1403.712	0.934	correct	test	Phase2	test/STIM_026.jpg
1407.863	0.94	correct	test	Phase2	test/STIM_027.jpg
1412.501	1.129	correct	test	Phase2	test/STIM_027.jpg
1416.976	1.221	correct	test	Phase2	test/STIM_027.jpg
1420.378	0.894	correct	test	Phase2	test/STIM_028.jpg
1423.515	0.992	correct	test	Phase2	test/STIM_028.jpg
1426.781	1.255	correct	test	Phase2	test/STIM_028.jpg
1431.284	1.034	correct	test	Phase2	test/STIM_029.jpg
1435.809	0.888	correct	test	Phase2	test/STIM_029.jpg
1439.062	1.245	correct	test	Phase2	test/STIM_029.jpg
1443.363	0.601	correct	study	Phase3	study/STIM_000.jpg
1447.662	1.25	correct	study	Phase3	study/STIM_000.jpg
1452.398	0.694	correct	study	Phase3	study/STIM_000.jpg
1455.313	0.638	correct	study	Phase3	study/STIM_001.jpg
1458.379	1.117	correct	study	Phase3	study/STIM_001.jpg
1461.79	0.759	correct	study	Phase3	study/STIM_001.jpg
1466.169	0.781	correct	study	Phase3	study/STIM_002.jpg
1469.773	1.219	correct	study	Phase3	study/STIM_002.jpg
1474.29	1.244	correct	study	Phase3	study/STIM_002.jpg
1478.167	0.619	correct	study	Phase3	study/STIM_003.jpg
1481.528	0.836	correct	study	Phase3	study/STIM_003.jpg
1486.3	1.272	correct	study	Phase3	study/STIM_003.jpg
1490.339	0.847	correct	study	Phase3	study/STIM_004.jpg
1494.897	1.232	correct	study	Phase3	study/STIM_004.jpg
1498.793	1.027	correct	study	Phase3	study/STIM_004.jpg
1502.493	0.913	correct	study	Phase3	study/STIM_005.jpg
1505.593	1.106	correct	study	Phase3	study/STIM_005.jpg
1510.377	0.814	correct	study	Phase3	study/STIM_005.jpg
1514.585	1.138	correct	study	Phase3	study/STIM_006.jpg
1519.489	1.06	incorrect	study	Phase3	study/STIM_006.jpg
1522.803	0.742	correct	study	Phase3	study/STIM_006.jpg
1527.392	1.139	correct	study	Phase3	study/STIM_007.jpg
1530.79	0.963	correct	study	Phase3	study/STIM_007.jpg
1535.398	0.841	correct	study	Phase3	study/STIM_007.jpg
1538.53	0.72	correct	study	Phase3	study/STIM_008.jpg
1541.716	1.146	correct	study	Phase3	study/STIM_008.jpg
1545.048	0.954	correct	study	Phase3	study/STIM_008.jpg
1549.618	0.82	correct	study	Phase3	study/STIM_009.jpg
1554.178	0.87	correct	study	Phase3	study/STIM_009.jpg
1558.75	0.678	correct	study	Phase3	study/STIM_009.jpg
1562.288	1.137	correct	study	Phase3	study/STIM_010.jpg
1566.874	1.019	correct	study	Phase3	study/STIM_010.jpg
1570.727	1.201	correct	study	Phase3	study/STIM_010.jpg
1574.155	1.126	correct	study	Phase3	study/STIM_011.jpg
1577.948	0.655	correct	study	Phase3	study/STIM_011.jpg
1582.295	1.142	correct	study	Phase3	study/STIM_011.jpg
1586.479	1.054	correct	study	Phase3	study/STIM_012.jpg
1589.598	1.018	correct	study	Phase3	study/STIM_012.jpg
1593.303	0.694	correct	study	Phase3	study/STIM_012.jpg
1596.989	0.7	correct	study	Phase3	study/STIM_013.jpg
1601.211	0.788	correct	study	Phase3	study/STIM_013.jpg
1604.098	1.236	correct	study	Phase3	study/STIM_013.jpg
1608.003	0.979	correct	study	Phase3	study/STIM_014.jpg
1611.111	0.769	correct	study	Phase3	study/STIM_014.jpg
1615.4	1.279	correct	study	Phase3	study/STIM_014.jpg
1620.071	0.958	correct	study	Phase3	study/STIM_015.jpg
1624.946	1.276	correct	study	Phase3	study/STIM_015.jpg
1628.81	0.676	correct	study	Phase3	study/STIM_015.jpg
1632.938	0.925	correct	study	Phase3	study/STIM_016.jpg
1635.871	1.275	correct	study	Phase3	study/STIM_016.jpg
1640.673	0.946	correct	study	Phase3	study/STIM_016.jpg
1645.499	1.078	correct	study	Phase3	study/STIM_017.jpg
1650.158	1.202	correct	study	Phase3	study/STIM_017.jpg
1655.233	0.793	correct	study	Phase3	study/STIM_017.jpg
1658.254	0.846	correct	study	Phase3	study/STIM_018.jpg
1662.18	0.634	correct	study	Phase3	study/STIM_018.jpg
1665.417	0.913	correct	study	Phase3	study/STIM_018.jpg
1668.602	1.073	correct	study	Phase3	study/STIM_019.jpg
1672.253	0.87	correct	study	Phase3	study/STIM_019.jpg
1675.229	0.995	correct	study	Phase3	study/STIM_019.jpg
1679.44	0.967	correct	study	Phase3	study/STIM_020.jpg
1683.083	0.886	correct	study	Phase3	study/STIM_020.jpg
1687.1	1.22	correct	study	Phase3	study/STIM_020.jpg
1691.09	1.07	correct	study	Phase3	study/STIM_021.jpg
1695.909	1.127	correct	study	Phase3	study/STIM_021.jpg
1699.415	1.042	correct	study	Phase3	study/STIM_021.jpg
1704.172	0.635	correct	study	Phase3	study/STIM_022.jpg
1708.161	0.972	correct	study	Phase3	study/STIM_022.jpg
1712.833	1.278	correct	study	Phase3	study/STIM_022.jpg
1717.256	0.835	correct	study	Phase3	study/STIM_023.jpg
1721.86	0.884	correct	study	Phase3	study/STIM_023.jpg
1725.361	0.866	correct	study	Phase3	study/STIM_023.jpg
1729.669	0.707	correct	study	Phase3	study/STIM_024.jpg
1733.568	1.152	correct	study	Phase3	study/STIM_024.jpg
1738.208	0.881	correct	study	Phase3	study/STIM_024.jpg
1741.823	1.1	correct	study	Phase3	study/STIM_025.jpg
1745.556	1.178	correct	study	Phase3	study/STIM_025.jpg
1749.494	0.994	correct	study	Phase3	study/STIM_025.jpg
1753.681	0.85	correct	study	Phase3	study/STIM_026.jpg
1756.617	0.987	correct	study	Phase3	study/STIM_026.jpg
1761.117	0.866	correct	study	Phase3	study/STIM_026.jpg
1765.456	1.204	correct	study	Phase3	study/STIM_027.jpg
1768.745	1.027	correct	study	Phase3	study/STIM_027.jpg
1772.086	0.582	correct	study	Phase3	study/STIM_027.jpg
1776.172	1.173	correct	study	Phase3	study/STIM_028.jpg
1780.952	0.732	correct	study	Phase3	study/STIM_028.jpg
1784.834	0.671	correct	study	Phase3	study/STIM_028.jpg
1788.094	1.124	correct	study	Phase3	study/STIM_029.jpg
1791.732	0.654	correct	study	Phase3	study/STIM_029.jpg
1794.743	0.655	correct	study	Phase3	study/STIM_029.jpg
1799.067	0.766	correct	test	Phase3	test/STIM_000.jpg
1803.128	0.652	correct	test	Phase3	test/STIM_000.jpg
1806.369	1.286	correct	test	Phase3	test/STIM_000.jpg
1810.677	1.18	correct	test	Phase3	test/STIM_001.jpg
1814.01	1.166	correct	test	Phase3	test/STIM_001.jpg
1818.894	1.175	correct	test	Phase3	test/STIM_001.jpg
1822.631	0.927	correct	test	Phase3	test/STIM_002.jpg
1825.769	1.191	correct	test	Phase3	test/STIM_002.jpg
1830.731	0.774	incorrect	test	Phase3	test/STIM_002.jpg
1833.904	1.302	correct	test	Phase3	test/STIM_003.jpg
1838.282	1.251	correct	test	Phase3	test/STIM_003.jpg
1841.665	1.326	correct	test	Phase3	test/STIM_003.jpg
1845.453	1.049	correct	test	Phase3	test/STIM_004.jpg
1850.321	0.773	correct	test	Phase3	test/STIM_004.jpg
1853.425	1.025	correct	test	Phase3	test/STIM_004.jpg
1857.012	1.005	correct	test	Phase3	test/STIM_005.jpg
1861.979	1.087	correct	test	Phase3	test/STIM_005.jpg
1865.423	0.715	correct	test	Phase3	test/STIM_005.jpg
1869.743	0.764	correct	test	Phase3	test/STIM_006.jpg
1873.969	1.2	correct	test	Phase3	test/STIM_006.jpg
1877.417	1.225	correct	test	Phase3	test/STIM_006.jpg
1882.466	0.77	correct	test	Phase3	test/STIM_007.jpg
1885.662	0.758	correct	test	Phase3	test/STIM_007.jpg
1888.586	1.208	correct	test	Phase3	test/STIM_007.jpg
1893.588	0.958	correct	test	Phase3	test/STIM_008.jpg
1898.319	0.626	correct	test	Phase3	test/STIM_008.jpg
1902.173	0.737	correct	test	Phase3	test/STIM_008.jpg
1906.067	0.691	correct	test	Phase3	test/STIM_009.jpg
1909.772	0.645	correct	test	Phase3	test/STIM_009.jpg
1913.789	1.292	correct	test	Phase3	test/STIM_009.jpg
1917.166	0.767	correct	test	Phase3	test/STIM_010.jpg
1920.792	1.016	correct	test	Phase3	test/STIM_010.jpg
1924.228	1.283	correct	test	Phase3	test/STIM_010.jpg
1927.529	1.17	incorrect	test	Phase3	test/STIM_011.jpg
1932.148	0.837	correct	test	Phase3	test/STIM_011.jpg
1936.688	0.756	correct	test	Phase3	test/STIM_011.jpg
1941.043	1.325	correct	test	Phase3	test/STIM_012.jpg
1945.326	0.833	correct	test	Phase3	test/STIM_012.jpg
1948.265	1.268	correct	test	Phase3	test/STIM_012.jpg
1953.469	0.939	incorrect	test	Phase3	test/STIM_013.jpg
1957.385	0.722	correct	test	Phase3	test/STIM_013.jpg
1961.699	1.216	correct	test	Phase3	test/STIM_013.jpg
1965.593	1.314	correct	test	Phase3	test/STIM_014.jpg
1970.642	0.808	correct	test	Phase3	test/STIM_014.jpg
1974.772	0.692	correct	test	Phase3	test/STIM_014.jpg
1978.324	1.197	correct	test	Phase3	test/STIM_015.jpg
1982.845	0.895	correct	test	Phase3	test/STIM_015.jpg
1987.323	0.695	correct	test	Phase3	test/STIM_015.jpg
1990.569	0.894	correct	test	Phase3	test/STIM_016.jpg
1995.398	1.137	correct	test	Phase3	test/STIM_016.jpg
1998.689	1.322	incorrect	test	Phase3	test/STIM_016.jpg
2002.004	0.777	incorrect	test	Phase3	test/STIM_017.jpg
2006.25	1.107	correct	test	Phase3	test/STIM_017.jpg
2009.691	0.881	incorrect	test	Phase3	test/STIM_017.jpg
2013.146	1.118	correct	test	Phase3	test/STIM_018.jpg
2017.839	1.037	correct	test	Phase3	test/STIM_018.jpg
2020.918	1.153	correct	test	Phase3	test/STIM_018.jpg
2025.32	0.924	correct	test	Phase3	test/STIM_019.jpg
2028.915	0.705	correct	test	Phase3	test/STIM_019.jpg
2031.832	1.108	correct	test	Phase3	test/STIM_019.jpg
2036.824	1.214	correct	test	Phase3	test/STIM_020.jpg
2041.03	1.189	correct	test	Phase3	test/STIM_020.jpg
2044.545	0.895	correct	test	Phase3	test/STIM_020.jpg
2047.664	0.958	correct	test	Phase3	test/STIM_021.jpg
2052.349	1.297	correct	test	Phase3	test/STIM_021.jpg
2055.877	1.118	correct	test	Phase3	test/STIM_021.jpg
2060.658	0.897	correct	test	Phase3	test/STIM_022.jpg
2065.127	0.767	correct	test	Phase3	test/STIM_022.jpg
2068.906	1.153	incorrect	test	Phase3	test/STIM_022.jpg
2072.048	0.901	correct	test	Phase3	test/STIM_023.jpg
2075.187	1.3	correct	test	Phase3	test/STIM_023.jpg
2079.624	0.701	correct	test	Phase3	test/STIM_023.jpg
2083.349	0.962	correct	test	Phase3	test/STIM_024.jpg
2087.929	1.129	correct	test	Phase3	test/STIM_024.jpg
2092.911	1.267	correct	test	Phase3	test/STIM_024.jpg
2096.765	0.776	correct	test	Phase3	test/STIM_025.jpg
2101.223	1.307	correct	test	Phase3	test/STIM_025.jpg
2106.212	0.867	correct	test	Phase3	test/STIM_025.jpg
2109.596	1.126	correct	test	Phase3	test/STIM_026.jpg
2114.365	0.814	incorrect	test	Phase3	test/STIM_026.jpg
2118.965	0.671	correct	test	Phase3	test/STIM_026.jpg
2121.775	1.164	correct	test	Phase3	test/STIM_027.jpg
2126.792	1.225	correct	test	Phase3	test/STIM_027.jpg
2131.613	0.7	correct	test	Phase3	test/STIM_027.jpg
2135.681	1.318	correct	test	Phase3	test/STIM_028.jpg
2140.459	1.03	correct	test	Phase3	test/STIM_028.jpg
2144.46	1.302	correct	test	Phase3	test/STIM_028.jpg
2148.095	0.894	correct	test	Phase3	test/STIM_029.jpg
2152.272	1.067	correct	test	Phase3	test/STIM_029.jpg
2155.557	0.996	correct	test	Phase3	test/STIM_029.jpg
