onset	duration	response_time_ms	trial_type	learning_stage	stimulus	response_port
0.0	2.96	2959.9	regulate	Run1	regulate/STIM_000.jpg	100
5.512	2.928	2928.3	regulate	Run1	regulate/STIM_000.jpg	99
12.138	1.435	1435.1	regulate	Run1	regulate/STIM_000.jpg	100
16.98	2.268	2268.1	regulate	Run1	regulate/STIM_000.jpg	100
23.091	1.561	1561.2	regulate	Run1	regulate/STIM_001.jpg	99
27.844	2.246	2246.0	regulate	Run1	regulate/STIM_001.jpg	100
32.455	2.623	2623.2	regulate	Run1	regulate/STIM_001.jpg	99
39.173	1.692	1691.8	regulate	Run1	regulate/STIM_001.jpg	100
44.823	1.859	1858.6	regulate	Run1	regulate/STIM_002.jpg	100
50.746	1.628	1627.7	regulate	Run1	regulate/STIM_002.jpg	100
56.119	1.513	1512.8	regulate	Run1	regulate/STIM_002.jpg	100
60.794	1.646	1646.5	regulate	Run1	regulate/STIM_002.jpg	100
66.573	1.635	1634.9	regulate	Run1	regulate/STIM_003.jpg	100
70.9	3.052	3052.0	regulate	Run1	regulate/STIM_003.jpg	99
77.396	2.173	2173.4	regulate	Run1	regulate/STIM_003.jpg	100
83.097	1.224	1223.9	regulate	Run1	regulate/STIM_003.jpg	99
86.6	1.831	1831.2	regulate	Run1	regulate/STIM_004.jpg	99
90.761	2.735	2734.7	regulate	Run1	regulate/STIM_004.jpg	99
97.573	1.933	1932.6	regulate	Run1	regulate/STIM_004.jpg	100
103.572	2.654	2654.1	regulate	Run1	regulate/STIM_004.jpg	99
109.68	2.578	2578.5	regulate	Run1	regulate/STIM_005.jpg	99
114.699	1.875	1874.7	regulate	Run1	regulate/STIM_005.jpg	100
120.211	1.589	1589.1	regulate	Run1	regulate/STIM_005.jpg	100
124.596	2.088	2087.6	regulate	Run1	regulate/STIM_005.jpg	99
130.818	1.465	1465.3	regulate	Run1	regulate/STIM_006.jpg	99
135.155	2.347	2347.3	regulate	Run1	regulate/STIM_006.jpg	99
141.587	2.48	2479.8	regulate	Run1	regulate/STIM_006.jpg	99
146.905	1.229	1229.3	regulate	Run1	regulate/STIM_006.jpg	99
152.309	1.928	1927.5	regulate	Run1	regulate/STIM_007.jpg	99
158.159	1.584	1583.9	regulate	Run1	regulate/STIM_007.jpg	100
162.826	2.446	2446.0	regulate	Run1	regulate/STIM_007.jpg	99
168.297	1.324	1323.8	regulate	Run1	regulate/STIM_007.jpg	100
173.711	2.219	2218.7	regulate	Run1	regulate/STIM_008.jpg	100
179.146	2.982	2981.9	regulate	Run1	regulate/STIM_008.jpg	100
185.205	1.862	1862.0	regulate	Run1	regulate/STIM_008.jpg	99
189.832	1.929	1929.0	regulate	Run1	regulate/STIM_008.jpg	100
195.344	2.662	2662.2	regulate	Run1	regulate/STIM_009.jpg	100
200.39	2.777	2776.7	regulate	Run1	regulate/STIM_009.jpg	100
207.11	2.358	2357.6	regulate	Run1	regulate/STIM_009.jpg	99
213.008	1.204	1204.1	regulate	Run1	regulate/STIM_009.jpg	100
216.728	2.164	2163.9	regulate	Run1	regulate/STIM_010.jpg	99
223.142	1.627	1627.4	regulate	Run1	regulate/STIM_010.jpg	100
227.875	2.569	2569.4	regulate	Run1	regulate/STIM_010.jpg	99
233.969	2.579	2579.0	regulate	Run1	regulate/STIM_010.jpg	100
240.117	1.726	1726.4	regulate	Run1	regulate/STIM_011.jpg	99
244.209	1.372	1371.7	regulate	Run1	regulate/STIM_011.jpg	99
248.24	2.654	2654.1	regulate	Run1	regulate/STIM_011.jpg	99
254.843	2.178	2178.4	regulate	Run1	regulate/STIM_011.jpg	100
260.124	2.243	2243.3	regulate	Run1	regulate/STIM_012.jpg	99
265.33	2.112	2111.6	regulate	Run1	regulate/STIM_012.jpg	99
271.469	2.94	2939.9	regulate	Run1	regulate/STIM_012.jpg	100
278.588	2.088	2088.5	regulate	Run1	regulate/STIM_012.jpg	100
284.804	1.668	1667.8	regulate	Run1	regulate/STIM_013.jpg	100
288.822	2.164	2163.9	regulate	Run1	regulate/STIM_013.jpg	99
295.094	2.433	2432.9	regulate	Run1	regulate/STIM_013.jpg	99
300.949	1.888	1888.0	regulate	Run1	regulate/STIM_013.jpg	100
305.46	2.083	2083.3	regulate	Run1	regulate/STIM_014.jpg	100
310.581	2.165	2165.0	regulate	Run1	regulate/STIM_014.jpg	100
315.568	2.422	2421.6	regulate	Run1	regulate/STIM_014.jpg	99
321.975	2.583	2582.7	regulate	Run1	regulate/STIM_014.jpg	99
328.849	2.38	2379.5	regulate	Run1	regulate/STIM_015.jpg	100
333.414	2.898	2897.9	regulate	Run1	regulate/STIM_015.jpg	100
340.09	1.743	1742.6	regulate	Run1	regulate/STIM_015.jpg	99
345.219	2.171	2171.4	regulate	Run1	regulate/STIM_015.jpg	99
351.363	2.225	2224.6	regulate	Run1	regulate/STIM_016.jpg	99
357.106	2.925	2924.6	regulate	Run1	regulate/STIM_016.jpg	99
362.485	2.407	2407.3	regulate	Run1	regulate/STIM_016.jpg	99
368.292	2.379	2379.1	regulate	Run1	regulate/STIM_016.jpg	100
372.982	2.376	2375.8	regulate	Run1	regulate/STIM_017.jpg	100
379.166	2.614	2614.1	regulate	Run1	regulate/STIM_017.jpg	100
385.954	1.84	1839.5	regulate	Run1	regulate/STIM_017.jpg	99
390.822	1.969	1969.1	regulate	Run1	regulate/STIM_017.jpg	100
395.459	2.041	2040.5	regulate	Run1	regulate/STIM_018.jpg	99
401.662	2.32	2319.5	regulate	Run1	regulate/STIM_018.jpg	99
406.65	2.304	2303.6	regulate	Run1	regulate/STIM_018.jpg	100
412.089	2.018	2017.8	regulate	Run1	regulate/STIM_018.jpg	100
418.272	1.71	1710.4	regulate	Run1	regulate/STIM_019.jpg	100
423.551	2.022	2021.9	regulate	Run1	regulate/STIM_019.jpg	100
429.484	2.388	2387.9	regulate	Run1	regulate/STIM_019.jpg	99
435.96	1.945	1944.7	regulate	Run1	regulate/STIM_019.jpg	100
441.998	1.736	1735.7	regulate	Run1	regulate/STIM_020.jpg	99
447.452	1.627	1626.7	regulate	Run1	regulate/STIM_020.jpg	99
451.918	1.738	1737.7	regulate	Run1	regulate/STIM_020.jpg	100
456.799	2.607	2606.6	regulate	Run1	regulate/STIM_020.jpg	99
463.215	2.803	2803.2	regulate	Run1	regulate/STIM_021.jpg	100
469.248	2.396	2396.2	regulate	Run1	regulate/STIM_021.jpg	99
475.601	1.239	1239.1	regulate	Run1	regulate/STIM_021.jpg	99
479.726	2.244	2243.7	regulate	Run1	regulate/STIM_021.jpg	99
484.621	2.486	2485.9	regulate	Run1	regulate/STIM_022.jpg	99
491.307	1.512	1511.6	regulate	Run1	regulate/STIM_022.jpg	99
495.38	2.682	2681.8	regulate	Run1	regulate/STIM_022.jpg	100
501.945	2.579	2579.0	regulate	Run1	regulate/STIM_022.jpg	99
507.929	2.84	2840.4	regulate	Run1	regulate/STIM_023.jpg	99
514.16	2.761	2761.4	regulate	Run1	regulate/STIM_023.jpg	100
521.234	1.637	1637.2	regulate	Run1	regulate/STIM_023.jpg	100
526.574	1.482	1482.2	regulate	Run1	regulate/STIM_023.jpg	100
530.475	1.884	1884.4	regulate	Run1	regulate/STIM_024.jpg	100
536.217	1.483	1483.1	regulate	Run1	regulate/STIM_024.jpg	99
540.789	1.663	1662.6	regulate	Run1	regulate/STIM_024.jpg	99
546.05	2.14	2139.5	regulate	Run1	regulate/STIM_024.jpg	99
550.703	2.514	2514.2	regulate	Run1	regulate/STIM_025.jpg	100
556.177	2.703	2703.0	regulate	Run1	regulate/STIM_025.jpg	99
561.176	2.409	2409.2	regulate	Run1	regulate/STIM_025.jpg	100
567.031	1.42	1420.1	regulate	Run1	regulate/STIM_025.jpg	99
571.982	1.542	1541.6	regulate	Run1	regulate/STIM_026.jpg	100
577.161	2.687	2687.0	regulate	Run1	regulate/STIM_026.jpg	100
582.884	2.426	2426.0	regulate	Run1	regulate/STIM_026.jpg	99
588.67	2.184	2184.0	regulate	Run1	regulate/STIM_026.jpg	99
594.516	2.846	2846.4	regulate	Run1	regulate/STIM_027.jpg	99
601.093	2.451	2451.1	regulate	Run1	regulate/STIM_027.jpg	100
606.061	1.536	1536.3	regulate	Run1	regulate/STIM_027.jpg	100
610.086	2.088	2088.1	regulate	Run1	regulate/STIM_027.jpg	100
614.815	2.968	2968.1	regulate	Run1	regulate/STIM_028.jpg	99
621.57	2.914	2914.1	regulate	Run1	regulate/STIM_028.jpg	100
626.997	2.233	2232.8	regulate	Run1	regulate/STIM_028.jpg	100
632.88	1.796	1796.5	regulate	Run1	regulate/STIM_028.jpg	100
637.814	3.125	3125.3	regulate	Run1	regulate/STIM_029.jpg	99
643.623	3.045	3045.1	regulate	Run1	regulate/STIM_029.jpg	99
650.651	1.909	1908.6	regulate	Run1	regulate/STIM_029.jpg	100
655.407	2.038	2038.0	regulate	Run1	regulate/STIM_029.jpg	100
661.401	0.939	938.6	observe	Run1	observe/STIM_000.jpg	100
666.156	1.332	1331.7	observe	Run1	observe/STIM_000.jpg	99
671.222	0.859	858.9	observe	Run1	observe/STIM_000.jpg	100
675.572	0.89	889.5	observe	Run1	observe/STIM_000.jpg	100
680.097	1.266	1266.2	observe	Run1	observe/STIM_001.jpg	99
684.98	1.04	1040.0	observe	Run1	observe/STIM_001.jpg	99
688.576	0.924	924.5	observe	Run1	observe/STIM_001.jpg	100
693.415	1.26	1260.2	observe	Run1	observe/STIM_001.jpg	100
698.186	1.32	1319.8	observe	Run1	observe/STIM_002.jpg	100
701.816	1.138	1138.1	observe	Run1	observe/STIM_002.jpg	99
706.372	0.671	671.2	observe	Run1	observe/STIM_002.jpg	100
710.588	1.362	1361.6	observe	Run1	observe/STIM_002.jpg	100
714.931	1.146	1145.9	observe	Run1	observe/STIM_003.jpg	99
719.478	1.334	1334.3	observe	Run1	observe/STIM_003.jpg	99
724.149	0.81	810.2	observe	Run1	observe/STIM_003.jpg	100
727.604	1.066	1066.4	observe	Run1	observe/STIM_003.jpg	99
732.005	1.017	1016.9	observe	Run1	observe/STIM_004.jpg	99
736.557	1.114	1114.1	observe	Run1	observe/STIM_004.jpg	100
741.417	0.934	933.7	observe	Run1	observe/STIM_004.jpg	100
744.935	0.94	940.3	observe	Run1	observe/STIM_004.jpg	99
748.703	1.082	1081.7	observe	Run1	observe/STIM_005.jpg	100
753.034	0.786	786.1	observe	Run1	observe/STIM_005.jpg	99
756.397	1.322	1322.4	observe	Run1	observe/STIM_005.jpg	100
761.718	0.795	795.1	observe	Run1	observe/STIM_005.jpg	100
766.225	1.03	1029.5	observe	Run1	observe/STIM_006.jpg	100
769.865	1.138	1138.5	observe	Run1	observe/STIM_006.jpg	99
773.216	0.95	950.2	observe	Run1	observe/STIM_006.jpg	99
777.163	0.751	751.2	observe	Run1	observe/STIM_006.jpg	100
780.62	0.778	777.5	observe	Run1	observe/STIM_007.jpg	99
784.057	1.199	1199.3	observe	Run1	observe/STIM_007.jpg	99
787.906	1.342	1342.2	observe	Run1	observe/STIM_007.jpg	99
792.18	1.199	1199.0	observe	Run1	observe/STIM_007.jpg	99
796.852	1.461	1461.1	observe	Run1	observe/STIM_008.jpg	100
800.47	0.915	914.8	observe	Run1	observe/STIM_008.jpg	100
805.335	0.862	861.5	observe	Run1	observe/STIM_008.jpg	99
810.084	0.933	932.7	observe	Run1	observe/STIM_008.jpg	99
814.934	1.216	1216.5	observe	Run1	observe/STIM_009.jpg	99
818.954	1.408	1408.3	observe	Run1	observe/STIM_009.jpg	100
823.203	1.119	1119.1	observe	Run1	observe/STIM_009.jpg	99
826.772	1.231	1230.6	observe	Run1	observe/STIM_009.jpg	99
830.407	1.247	1246.9	observe	Run1	observe/STIM_010.jpg	99
835.354	0.958	957.5	observe	Run1	observe/STIM_010.jpg	100
839.366	1.312	1312.3	observe	Run1	observe/STIM_010.jpg	100
843.129	1.355	1354.9	observe	Run1	observe/STIM_010.jpg	99
848.075	1.287	1287.4	observe	Run1	observe/STIM_011.jpg	99
853.238	0.717	716.7	observe	Run1	observe/STIM_011.jpg	100
856.383	0.93	930.4	observe	Run1	observe/STIM_011.jpg	100
860.369	0.948	948.4	observe	Run1	observe/STIM_011.jpg	99
865.185	0.769	769.3	observe	Run1	observe/STIM_012.jpg	100
869.239	1.076	1076.3	observe	Run1	observe/STIM_012.jpg	100
872.961	1.23	1230.5	observe	Run1	observe/STIM_012.jpg	99
877.403	0.77	769.9	observe	Run1	observe/STIM_012.jpg	100
880.614	0.829	829.2	observe	Run1	observe/STIM_013.jpg	100
884.761	1.201	1201.3	observe	Run1	observe/STIM_013.jpg	100
888.392	1.329	1328.8	observe	Run1	observe/STIM_013.jpg	99
893.624	0.756	755.7	observe	Run1	observe/STIM_013.jpg	99
896.519	1.284	1284.0	observe	Run1	observe/STIM_014.jpg	100
900.804	0.838	838.4	observe	Run1	observe/STIM_014.jpg	99
904.101	0.799	798.6	observe	Run1	observe/STIM_014.jpg	100
907.73	1.255	1255.0	observe	Run1	observe/STIM_014.jpg	99
911.741	1.348	1348.1	observe	Run1	observe/STIM_015.jpg	100
916.667	1.187	1187.4	observe	Run1	observe/STIM_015.jpg	100
921.162	0.978	978.1	observe	Run1	observe/STIM_015.jpg	100
925.393	1.171	1171.2	observe	Run1	observe/STIM_015.jpg	100
929.246	1.346	1346.0	observe	Run1	observe/STIM_016.jpg	100
933.981	1.042	1042.2	observe	Run1	observe/STIM_016.jpg	100
938.639	1.307	1307.0	observe	Run1	observe/STIM_016.jpg	100
942.226	0.893	893.4	observe	Run1	observe/STIM_016.jpg	100
946.14	1.496	1496.1	observe	Run1	observe/STIM_017.jpg	99
951.047	0.783	782.7	observe	Run1	observe/STIM_017.jpg	99
954.866	1.342	1342.3	observe	Run1	observe/STIM_017.jpg	99
958.443	1.269	1268.6	observe	Run1	observe/STIM_017.jpg	99
962.64	0.868	867.8	observe	Run1	observe/STIM_018.jpg	100
967.49	1.23	1230.0	observe	Run1	observe/STIM_018.jpg	100
972.432	1.405	1404.7	observe	Run1	observe/STIM_018.jpg	99
976.899	0.963	963.1	observe	Run1	observe/STIM_018.jpg	99
981.13	1.143	1142.9	observe	Run1	observe/STIM_019.jpg	99
985.788	1.019	1019.4	observe	Run1	observe/STIM_019.jpg	100
990.095	1.026	1025.8	observe	Run1	observe/STIM_019.jpg	99
993.494	0.966	966.2	observe	Run1	observe/STIM_019.jpg	100
996.899	2.322	2322.1	regulate	Run2	regulate/STIM_000.jpg	99
1001.476	1.087	1087.0	regulate	Run2	regulate/STIM_000.jpg	99
1004.858	1.131	1131.2	regulate	Run2	regulate/STIM_000.jpg	100
1009.905	1.457	1456.6	regulate	Run2	regulate/STIM_000.jpg	100
1014.099	1.879	1878.8	regulate	Run2	regulate/STIM_001.jpg	99
1019.194	2.438	2437.7	regulate	Run2	regulate/STIM_001.jpg	100
1024.612	1.475	1475.3	regulate	Run2	regulate/STIM_001.jpg	99
1029.51	1.571	1571.4	regulate	Run2	regulate/STIM_001.jpg	100
1035.055	2.307	2307.4	regulate	Run2	regulate/STIM_002.jpg	100
1040.667	2.509	2508.6	regulate	Run2	regulate/STIM_002.jpg	100
1045.841	1.781	1780.7	regulate	Run2	regulate/STIM_002.jpg	100
1050.818	2.095	2095.0	regulate	Run2	regulate/STIM_002.jpg	99
1056.331	1.796	1796.3	regulate	Run2	regulate/STIM_003.jpg	99
1060.639	1.588	1588.2	regulate	Run2	regulate/STIM_003.jpg	99
1066.022	1.458	1457.8	regulate	Run2	regulate/STIM_003.jpg	99
1069.891	1.347	1347.0	regulate	Run2	regulate/STIM_003.jpg	99
1074.327	1.846	1846.1	regulate	Run2	regulate/STIM_004.jpg	99
1079.429	1.841	1841.1	regulate	Run2	regulate/STIM_004.jpg	99
1084.034	2.027	2027.2	regulate	Run2	regulate/STIM_004.jpg	99
1088.384	1.248	1248.4	regulate	Run2	regulate/STIM_004.jpg	99
1092.353	1.743	1743.2	regulate	Run2	regulate/STIM_005.jpg	100
1097.155	2.262	2261.5	regulate	Run2	regulate/STIM_005.jpg	100
1102.664	1.988	1988.2	regulate	Run2	regulate/STIM_005.jpg	99
1108.654	1.962	1962.4	regulate	Run2	regulate/STIM_005.jpg	99
1113.139	2.387	2387.3	regulate	Run2	regulate/STIM_006.jpg	99
1119.619	2.147	2147.3	regulate	Run2	regulate/STIM_006.jpg	99
1125.952	2.268	2267.9	regulate	Run2	regulate/STIM_006.jpg	99
1130.957	1.968	1967.6	regulate	Run2	regulate/STIM_006.jpg	100
1136.434	2.132	2132.0	regulate	Run2	regulate/STIM_007.jpg	99
1141.292	1.26	1259.8	regulate	Run2	regulate/STIM_007.jpg	100
1145.788	1.805	1805.2	regulate	Run2	regulate/STIM_007.jpg	99
1150.894	1.697	1697.3	regulate	Run2	regulate/STIM_007.jpg	100
1154.921	2.024	2023.8	regulate	Run2	regulate/STIM_008.jpg	100
1160.247	1.768	1768.3	regulate	Run2	regulate/STIM_008.jpg	100
1165.02	2.257	2256.6	regulate	Run2	regulate/STIM_008.jpg	99
1171.397	1.254	1254.1	regulate	Run2	regulate/STIM_008.jpg	100
1176.65	2.604	2604.1	regulate	Run2	regulate/STIM_009.jpg	99
1182.403	1.974	1974.3	regulate	Run2	regulate/STIM_009.jpg	100
1187.273	1.124	1124.5	regulate	Run2	regulate/STIM_009.jpg	99
1191.949	1.128	1127.7	regulate	Run2	regulate/STIM_009.jpg	99
1196.678	1.192	1191.8	regulate	Run2	regulate/STIM_010.jpg	100
1201.255	2.266	2266.4	regulate	Run2	regulate/STIM_010.jpg	100
1205.867	2.291	2291.4	regulate	Run2	regulate/STIM_010.jpg	100
1210.55	1.365	1364.8	regulate	Run2	regulate/STIM_010.jpg	99
1215.883	1.906	1905.6	regulate	Run2	regulate/STIM_011.jpg	100
1221.538	1.094	1094.4	regulate	Run2	regulate/STIM_011.jpg	100
1225.091	2.11	2110.3	regulate	Run2	regulate/STIM_011.jpg	100
1230.627	1.118	1118.4	regulate	Run2	regulate/STIM_011.jpg	100
1235.63	1.718	1717.6	regulate	Run2	regulate/STIM_012.jpg	99
1239.883	1.092	1092.1	regulate	Run2	regulate/STIM_012.jpg	100
1243.829	1.122	1121.8	regulate	Run2	regulate/STIM_012.jpg	100
1248.14	1.852	1852.4	regulate	Run2	regulate/STIM_012.jpg	100
1252.995	1.982	1982.3	regulate	Run2	regulate/STIM_013.jpg	99
1257.689	1.296	1295.5	regulate	Run2	regulate/STIM_013.jpg	100
1261.181	1.135	1134.8	regulate	Run2	regulate/STIM_013.jpg	99
1264.453	1.94	1939.8	regulate	Run2	regulate/STIM_013.jpg	100
1269.775	1.265	1265.3	regulate	Run2	regulate/STIM_014.jpg	99
1273.645	1.471	1470.8	regulate	Run2	regulate/STIM_014.jpg	99
1279.175	2.171	2171.3	regulate	Run2	regulate/STIM_014.jpg	99
1284.888	1.284	1283.7	regulate	Run2	regulate/STIM_014.jpg	99
1290.283	1.987	1986.6	regulate	Run2	regulate/STIM_015.jpg	99
1295.126	1.42	1419.7	regulate	Run2	regulate/STIM_015.jpg	100
1298.818	2.347	2346.7	regulate	Run2	regulate/STIM_015.jpg	100
1304.049	1.833	1832.7	regulate	Run2	regulate/STIM_015.jpg	100
1309.241	2.233	2233.3	regulate	Run2	regulate/STIM_016.jpg	99
1314.548	2.499	2499.2	regulate	Run2	regulate/STIM_016.jpg	100
1320.861	1.754	1754.5	regulate	Run2	regulate/STIM_016.jpg	99
1324.96	1.443	1442.6	regulate	Run2	regulate/STIM_016.jpg	99
1329.675	1.319	1318.7	regulate	Run2	regulate/STIM_017.jpg	99
1334.167	1.393	1393.0	regulate	Run2	regulate/STIM_017.jpg	100
1339.04	1.39	1390.3	regulate	Run2	regulate/STIM_017.jpg	100
1342.72	1.917	1916.6	regulate	Run2	regulate/STIM_017.jpg	100
1347.83	2.127	2126.8	regulate	Run2	regulate/STIM_018.jpg	100
1353.072	2.206	2206.1	regulate	Run2	regulate/STIM_018.jpg	100
1357.587	2.347	2347.1	regulate	Run2	regulate/STIM_018.jpg	100
1362.531	1.001	1001.0	regulate	Run2	regulate/STIM_018.jpg	99
1367.525	1.474	1474.3	regulate	Run2	regulate/STIM_019.jpg	99
1372.445	2.368	2368.5	regulate	Run2	regulate/STIM_019.jpg	99
1379.072	1.449	1448.7	regulate	Run2	regulate/STIM_019.jpg	100
1384.07	1.799	1798.8	regulate	Run2	regulate/STIM_019.jpg	99
1388.185	2.614	2613.5	regulate	Run2	regulate/STIM_020.jpg	100
1393.45	1.171	1170.9	regulate	Run2	regulate/STIM_020.jpg	100
1397.492	1.839	1839.4	regulate	Run2	regulate/STIM_020.jpg	99
1402.01	1.233	1233.4	regulate	Run2	regulate/STIM_020.jpg	100
1406.294	1.424	1424.1	regulate	Run2	regulate/STIM_021.jpg	100
1410.694	2.319	2318.9	regulate	Run2	regulate/STIM_021.jpg	100
1416.758	2.024	2023.8	regulate	Run2	regulate/STIM_021.jpg	100
1422.759	1.575	1574.6	regulate	Run2	regulate/STIM_021.jpg	100
1428.456	1.597	1597.3	regulate	Run2	regulate/STIM_022.jpg	100
1432.657	2.033	2033.3	regulate	Run2	regulate/STIM_022.jpg	99
1438.094	2.097	2097.3	regulate	Run2	regulate/STIM_022.jpg	100
1443.885	1.219	1219.3	regulate	Run2	regulate/STIM_022.jpg	100
1448.308	2.214	2213.5	regulate	Run2	regulate/STIM_023.jpg	100
1454.214	1.675	1674.6	regulate	Run2	regulate/STIM_023.jpg	100
1459.596	1.634	1634.4	regulate	Run2	regulate/STIM_023.jpg	99
1464.781	1.804	1803.8	regulate	Run2	regulate/STIM_023.jpg	99
1469.815	2.182	2181.6	regulate	Run2	regulate/STIM_024.jpg	100
1474.508	1.745	1745.0	regulate	Run2	regulate/STIM_024.jpg	99
1479.545	2.179	2178.8	regulate	Run2	regulate/STIM_024.jpg	100
1485.771	1.336	1335.8	regulate	Run2	regulate/STIM_024.jpg	100
1490.873	1.991	1991.1	regulate	Run2	regulate/STIM_025.jpg	100
1496.019	1.324	1324.5	regulate	Run2	regulate/STIM_025.jpg	100
1501.205	1.19	1189.8	regulate	Run2	regulate/STIM_025.jpg	100
1505.259	1.141	1140.7	regulate	Run2	regulate/STIM_025.jpg	100
1509.397	1.782	1781.8	regulate	Run2	regulate/STIM_026.jpg	100
1514.584	1.964	1964.1	regulate	Run2	regulate/STIM_026.jpg	99
1519.7	2.251	2251.3	regulate	Run2	regulate/STIM_026.jpg	99
1525.718	1.9	1899.5	regulate	Run2	regulate/STIM_026.jpg	99
1530.77	1.345	1344.7	regulate	Run2	regulate/STIM_027.jpg	99
1536.094	1.16	1159.5	regulate	Run2	regulate/STIM_027.jpg	100
1540.295	1.147	1146.9	regulate	Run2	regulate/STIM_027.jpg	99
1544.125	1.553	1553.3	regulate	Run2	regulate/STIM_027.jpg	100
1549.273	2.65	2650.1	regulate	Run2	regulate/STIM_028.jpg	100
1554.481	1.477	1477.0	regulate	Run2	regulate/STIM_028.jpg	100
1559.022	2.097	2097.4	regulate	Run2	regulate/STIM_028.jpg	99
1564.272	1.676	1676.0	regulate	Run2	regulate/STIM_028.jpg	99
1569.341	2.306	2306.2	regulate	Run2	regulate/STIM_029.jpg	100
1574.27	2.391	2390.7	regulate	Run2	regulate/STIM_029.jpg	99
1579.157	2.161	2161.2	regulate	Run2	regulate/STIM_029.jpg	99
1585.359	2.071	2070.6	regulate	Run2	regulate/STIM_029.jpg	100
1590.37	1.031	1031.4	observe	Run2	observe/STIM_000.jpg	99
1595.006	1.394	1393.8	observe	Run2	observe/STIM_000.jpg	99
1600.503	1.306	1305.6	observe	Run2	observe/STIM_000.jpg	100
1604.995	0.983	983.1	observe	Run2	observe/STIM_000.jpg	100
1609.448	1.007	1006.8	observe	Run2	observe/STIM_001.jpg	100
1613.573	0.995	995.3	observe	Run2	observe/STIM_001.jpg	99
1617.819	1.0	1000.4	observe	Run2	observe/STIM_001.jpg	100
1620.985	1.323	1323.2	observe	Run2	observe/STIM_001.jpg	100
1624.47	1.08	1079.8	observe	Run2	observe/STIM_002.jpg	100
1628.202	1.367	1366.8	observe	Run2	observe/STIM_002.jpg	100
1631.838	1.555	1555.2	observe	Run2	observe/STIM_002.jpg	100
1637.248	1.248	1247.6	observe	Run2	observe/STIM_002.jpg	99
1642.503	1.16	1160.2	observe	Run2	observe/STIM_003.jpg	100
1646.041	1.456	1456.2	observe	Run2	observe/STIM_003.jpg	99
1651.033	1.199	1199.2	observe	Run2	observe/STIM_003.jpg	100
1655.608	1.236	1235.9	observe	Run2	observe/STIM_003.jpg	99
1659.033	1.215	1214.8	observe	Run2	observe/STIM_004.jpg	99
1662.821	1.042	1042.4	observe	Run2	observe/STIM_004.jpg	99
1667.221	1.402	1401.9	observe	Run2	observe/STIM_004.jpg	99
1672.211	1.137	1136.7	observe	Run2	observe/STIM_004.jpg	100
1675.816	1.112	1112.1	observe	Run2	observe/STIM_005.jpg	100
1679.988	1.174	1173.8	observe	Run2	observe/STIM_005.jpg	100
1685.064	0.841	840.7	observe	Run2	observe/STIM_005.jpg	99
1689.732	1.036	1035.8	observe	Run2	observe/STIM_005.jpg	100
1693.851	0.884	883.7	observe	Run2	observe/STIM_006.jpg	99
1697.173	0.857	857.2	observe	Run2	observe/STIM_006.jpg	100
1700.659	1.505	1505.3	observe	Run2	observe/STIM_006.jpg	99
1705.443	1.431	1431.1	observe	Run2	observe/STIM_006.jpg	100
1709.634	0.942	942.3	observe	Run2	observe/STIM_007.jpg	100
1714.074	0.87	869.6	observe	Run2	observe/STIM_007.jpg	100
1718.253	1.34	1339.9	observe	Run2	observe/STIM_007.jpg	100
1723.726	1.393	1393.4	observe	Run2	observe/STIM_007.jpg	99
1728.788	0.982	981.9	observe	Run2	observe/STIM_008.jpg	99
1733.754	0.789	788.7	observe	Run2	observe/STIM_008.jpg	99
1737.36	0.714	713.5	observe	Run2	observe/STIM_008.jpg	100
1741.76	0.781	781.3	observe	Run2	observe/STIM_008.jpg	100
1745.551	1.111	1111.3	observe	Run2	observe/STIM_009.jpg	99
1748.888	1.067	1066.9	observe	Run2	observe/STIM_009.jpg	99
1753.898	1.364	1363.8	observe	Run2	observe/STIM_009.jpg	100
1759.203	1.369	1369.2	observe	Run2	observe/STIM_009.jpg	100
1763.778	0.853	853.2	observe	Run2	observe/STIM_010.jpg	99
1767.589	1.273	1272.8	observe	Run2	observe/STIM_010.jpg	100
1772.284	0.863	863.2	observe	Run2	observe/STIM_010.jpg	100
1775.25	0.968	968.4	observe	Run2	observe/STIM_010.jpg	100
1778.875	1.453	1452.6	observe	Run2	observe/STIM_011.jpg	100
1783.54	1.169	1168.9	observe	Run2	observe/STIM_011.jpg	100
1787.462	0.857	857.3	observe	Run2	observe/STIM_011.jpg	100
1791.146	1.436	1435.8	observe	Run2	observe/STIM_011.jpg	100
1795.344	0.84	839.7	observe	Run2	observe/STIM_012.jpg	100
1798.384	1.187	1187.2	observe	Run2	observe/STIM_012.jpg	99
1802.77	0.731	730.7	observe	Run2	observe/STIM_012.jpg	100
1807.042	1.035	1034.7	observe	Run2	observe/STIM_012.jpg	100
1811.778	1.066	1065.5	observe	Run2	observe/STIM_013.jpg	100
1816.258	0.917	916.7	observe	Run2	observe/STIM_013.jpg	99
1820.05	0.848	847.9	observe	Run2	observe/STIM_013.jpg	99
1824.346	1.041	1040.7	observe	Run2	observe/STIM_013.jpg	99
1828.965	0.887	886.6	observe	Run2	observe/STIM_014.jpg	99
1832.553	1.381	1381.0	observe	Run2	observe/STIM_014.jpg	100
1836.834	1.407	1407.3	observe	Run2	observe/STIM_014.jpg	99
1841.374	1.304	1303.9	observe	Run2	observe/STIM_014.jpg	99
1845.169	1.439	1438.9	observe	Run2	observe/STIM_015.jpg	100
1849.475	1.172	1172.1	observe	Run2	observe/STIM_015.jpg	100
1852.925	1.189	1189.0	observe	Run2	observe/STIM_015.jpg	99
1856.414	0.884	883.7	observe	Run2	observe/STIM_015.jpg	99
1860.613	0.841	841.4	observe	Run2	observe/STIM_016.jpg	100
1864.487	1.125	1124.9	observe	Run2	observe/STIM_016.jpg	99
1869.205	0.985	985.0	observe	Run2	observe/STIM_016.jpg	99
1873.38	0.858	858.2	observe	Run2	observe/STIM_016.jpg	100
1876.715	0.815	814.6	observe	Run2	observe/STIM_017.jpg	99
1880.548	1.494	1493.8	observe	Run2	observe/STIM_017.jpg	100
1884.491	1.07	1070.5	observe	Run2	observe/STIM_017.jpg	99
1888.89	1.455	1455.2	observe	Run2	observe/STIM_017.jpg	99
1893.526	1.037	1037.0	observe	Run2	observe/STIM_018.jpg	100
1898.315	1.166	1166.2	observe	Run2	observe/STIM_018.jpg	99
1902.863	1.477	1477.3	observe	Run2	observe/STIM_018.jpg	99
1908.45	0.956	955.6	observe	Run2	observe/STIM_018.jpg	99
1911.649	1.473	1473.4	observe	Run2	observe/STIM_019.jpg	100
1916.884	0.678	677.6	observe	Run2	observe/STIM_019.jpg	99
1920.124	1.029	1028.6	observe	Run2	observe/STIM_019.jpg	99
1923.946	0.782	782.5	observe	Run2	observe/STIM_019.jpg	99
1927.798	1.048	1047.6	regulate	Run3	regulate/STIM_000.jpg	99
1932.708	1.683	1682.6	regulate	Run3	regulate/STIM_000.jpg	100
1937.747	1.776	1776.2	regulate	Run3	regulate/STIM_000.jpg	100
1942.804	1.23	1229.5	regulate	Run3	regulate/STIM_000.jpg	100
1947.154	1.101	1101.3	regulate	Run3	regulate/STIM_001.jpg	99
1951.538	2.162	2162.3	regulate	Run3	regulate/STIM_001.jpg	100
1957.696	1.511	1510.6	regulate	Run3	regulate/STIM_001.jpg	99
1961.625	1.36	1359.8	regulate	Run3	regulate/STIM_001.jpg	99
1965.874	1.6	1599.6	regulate	Run3	regulate/STIM_002.jpg	99
1970.325	1.464	1464.0	regulate	Run3	regulate/STIM_002.jpg	100
1974.502	1.098	1098.0	regulate	Run3	regulate/STIM_002.jpg	99
1978.238	1.842	1842.3	regulate	Run3	regulate/STIM_002.jpg	100
1982.55	2.052	2052.4	regulate	Run3	regulate/STIM_003.jpg	99
1988.003	2.053	2053.0	regulate	Run3	regulate/STIM_003.jpg	100
1993.932	1.839	1839.1	regulate	Run3	regulate/STIM_003.jpg	99
1999.634	1.436	1436.2	regulate	Run3	regulate/STIM_003.jpg	99
2003.769	0.976	976.2	regulate	Run3	regulate/STIM_004.jpg	100
2007.466	1.991	1991.0	regulate	Run3	regulate/STIM_004.jpg	99
2013.642	1.338	1337.6	regulate	Run3	regulate/STIM_004.jpg	100
2018.497	1.904	1903.5	regulate	Run3	regulate/STIM_004.jpg	100
2023.737	1.4	1399.9	regulate	Run3	regulate/STIM_005.jpg	100
2027.612	1.856	1856.2	regulate	Run3	regulate/STIM_005.jpg	99
2033.014	1.585	1584.9	regulate	Run3	regulate/STIM_005.jpg	100
2037.055	2.231	2230.6	regulate	Run3	regulate/STIM_005.jpg	100
2041.703	1.278	1277.5	regulate	Run3	regulate/STIM_006.jpg	99
2046.588	1.726	1726.1	regulate	Run3	regulate/STIM_006.jpg	100
2050.57	1.71	1709.7	regulate	Run3	regulate/STIM_006.jpg	100
2055.497	1.007	1006.9	regulate	Run3	regulate/STIM_006.jpg	100
2059.483	1.916	1915.7	regulate	Run3	regulate/STIM_007.jpg	100
2065.348	1.161	1161.1	regulate	Run3	regulate/STIM_007.jpg	99
2069.813	1.231	1231.0	regulate	Run3	regulate/STIM_007.jpg	99
2074.75	1.824	1824.3	regulate	Run3	regulate/STIM_007.jpg	100
2079.011	1.589	1588.7	regulate	Run3	regulate/STIM_008.jpg	100
2083.368	1.634	1633.5	regulate	Run3	regulate/STIM_008.jpg	99
2087.519	2.055	2055.3	regulate	Run3	regulate/STIM_008.jpg	99
2091.825	1.466	1466.2	regulate	Run3	regulate/STIM_008.jpg	100
2097.301	1.434	1433.6	regulate	Run3	regulate/STIM_009.jpg	99
2101.623	1.272	1272.1	regulate	Run3	regulate/STIM_009.jpg	100
2105.954	0.866	865.8	regulate	Run3	regulate/STIM_009.jpg	100
2109.132	1.815	1814.9	regulate	Run3	regulate/STIM_009.jpg	100
2115.086	1.301	1301.2	regulate	Run3	regulate/STIM_010.jpg	100
2118.99	2.251	2251.3	regulate	Run3	regulate/STIM_010.jpg	100
2125.129	2.111	2110.9	regulate	Run3	regulate/STIM_010.jpg	99
2130.322	1.307	1307.3	regulate	Run3	regulate/STIM_010.jpg	99
2135.667	2.085	2084.7	regulate	Run3	regulate/STIM_011.jpg	100
2140.831	1.081	1080.9	regulate	Run3	regulate/STIM_011.jpg	100
2145.244	1.363	1363.4	regulate	Run3	regulate/STIM_011.jpg	100
2150.218	1.119	1119.1	regulate	Run3	regulate/STIM_011.jpg	100
2153.602	1.717	1716.9	regulate	Run3	regulate/STIM_012.jpg	100
2158.491	1.205	1205.0	regulate	Run3	regulate/STIM_012.jpg	99
2163.171	1.486	1485.6	regulate	Run3	regulate/STIM_012.jpg	99
2167.681	1.358	1358.4	regulate	Run3	regulate/STIM_012.jpg	100
2171.978	1.178	1177.6	regulate	Run3	regulate/STIM_013.jpg	99
2177.147	2.124	2123.7	regulate	Run3	regulate/STIM_013.jpg	100
2182.63	1.231	1231.2	regulate	Run3	regulate/STIM_013.jpg	99
2186.639	0.925	925.0	regulate	Run3	regulate/STIM_013.jpg	99
2191.382	2.069	2069.0	regulate	Run3	regulate/STIM_014.jpg	100
2196.734	1.023	1023.2	regulate	Run3	regulate/STIM_014.jpg	99
2200.443	1.461	1460.9	regulate	Run3	regulate/STIM_014.jpg	99
2205.822	1.988	1987.5	regulate	Run3	regulate/STIM_014.jpg	100
2210.911	2.031	2031.3	regulate	Run3	regulate/STIM_015.jpg	99
2216.826	1.824	1824.4	regulate	Run3	regulate/STIM_015.jpg	100
2222.406	2.003	2003.1	regulate	Run3	regulate/STIM_015.jpg	100
2227.324	1.831	1831.1	regulate	Run3	regulate/STIM_015.jpg	100
2232.08	1.499	1499.4	regulate	Run3	regulate/STIM_016.jpg	100
2237.59	1.067	1066.8	regulate	Run3	regulate/STIM_016.jpg	100
2241.242	1.808	1808.0	regulate	Run3	regulate/STIM_016.jpg	100
2246.418	1.715	1715.4	regulate	Run3	regulate/STIM_016.jpg	100
2250.76	1.95	1950.5	regulate	Run3	regulate/STIM_017.jpg	99
2256.255	1.983	1983.0	regulate	Run3	regulate/STIM_017.jpg	100
2262.085	1.743	1743.3	regulate	Run3	regulate/STIM_017.jpg	100
2266.23	1.37	1370.4	regulate	Run3	regulate/STIM_017.jpg	99
2271.358	1.986	1985.7	regulate	Run3	regulate/STIM_018.jpg	99
2277.016	1.048	1048.1	regulate	Run3	regulate/STIM_018.jpg	100
2282.163	1.579	1578.6	regulate	Run3	regulate/STIM_018.jpg	99
2287.273	1.847	1846.6	regulate	Run3	regulate/STIM_018.jpg	99
2292.012	1.29	1290.3	regulate	Run3	regulate/STIM_019.jpg	99
2295.707	2.231	2230.7	regulate	Run3	regulate/STIM_019.jpg	99
2300.693	1.455	1455.4	regulate	Run3	regulate/STIM_019.jpg	99
2305.222	2.005	2005.0	regulate	Run3	regulate/STIM_019.jpg	100
2311.364	2.015	2014.6	regulate	Run3	regulate/STIM_020.jpg	99
2316.673	1.132	1131.7	regulate	Run3	regulate/STIM_020.jpg	100
2321.305	1.667	1667.3	regulate	Run3	regulate/STIM_020.jpg	100
2326.167	1.352	1352.0	regulate	Run3	regulate/STIM_020.jpg	99
2330.759	1.746	1746.4	regulate	Run3	regulate/STIM_021.jpg	100
2334.999	1.122	1122.3	regulate	Run3	regulate/STIM_021.jpg	99
2339.582	2.026	2026.3	regulate	Run3	regulate/STIM_021.jpg	99
2344.058	1.239	1238.6	regulate	Run3	regulate/STIM_021.jpg	100
2347.731	1.674	1674.4	regulate	Run3	regulate/STIM_022.jpg	100
2352.325	1.317	1316.7	regulate	Run3	regulate/STIM_022.jpg	100
2356.921	2.084	2083.9	regulate	Run3	regulate/STIM_022.jpg	100
2362.236	2.043	2042.6	regulate	Run3	regulate/STIM_022.jpg	99
2366.971	1.221	1221.1	regulate	Run3	regulate/STIM_023.jpg	99
2370.892	2.158	2157.7	regulate	Run3	regulate/STIM_023.jpg	100
2376.162	1.351	1350.7	regulate	Run3	regulate/STIM_023.jpg	100
2380.392	1.261	1261.0	regulate	Run3	regulate/STIM_023.jpg	99
2384.269	1.234	1233.6	regulate	Run3	regulate/STIM_024.jpg	99
2388.451	1.42	1420.5	regulate	Run3	regulate/STIM_024.jpg	99
2392.778	1.924	1924.2	regulate	Run3	regulate/STIM_024.jpg	99
2397.008	1.543	1542.9	regulate	Run3	regulate/STIM_024.jpg	99
2402.651	1.011	1011.0	regulate	Run3	regulate/STIM_025.jpg	99
2407.215	1.217	1217.0	regulate	Run3	regulate/STIM_025.jpg	100
2412.051	1.569	1568.9	regulate	Run3	regulate/STIM_025.jpg	100
2416.937	1.168	1167.9	regulate	Run3	regulate/STIM_025.jpg	99
2420.871	1.889	1888.6	regulate	Run3	regulate/STIM_026.jpg	100
2425.657	1.705	1704.9	regulate	Run3	regulate/STIM_026.jpg	100
2429.969	1.593	1593.2	regulate	Run3	regulate/STIM_026.jpg	100
2434.531	1.355	1355.1	regulate	Run3	regulate/STIM_026.jpg	99
2438.219	1.54	1540.4	regulate	Run3	regulate/STIM_027.jpg	99
2443.781	1.754	1753.6	regulate	Run3	regulate/STIM_027.jpg	100
2449.326	1.021	1021.1	regulate	Run3	regulate/STIM_027.jpg	99
2453.007	1.434	1433.9	regulate	Run3	regulate/STIM_027.jpg	100
2456.767	1.174	1174.4	regulate	Run3	regulate/STIM_028.jpg	100
2461.763	1.357	1356.6	regulate	Run3	regulate/STIM_028.jpg	100
2466.794	1.64	1639.6	regulate	Run3	regulate/STIM_028.jpg	99
2471.744	1.644	1644.4	regulate	Run3	regulate/STIM_028.jpg	99
2477.15	1.227	1226.8	regulate	Run3	regulate/STIM_029.jpg	99
2482.167	1.577	1576.9	regulate	Run3	regulate/STIM_029.jpg	99
2487.866	1.213	1213.4	regulate	Run3	regulate/STIM_029.jpg	100
2491.751	1.605	1604.8	regulate	Run3	regulate/STIM_029.jpg	100
2496.652	1.182	1182.0	observe	Run3	observe/STIM_000.jpg	100
2501.653	0.868	868.1	observe	Run3	observe/STIM_000.jpg	99
2505.991	1.123	1122.9	observe	Run3	observe/STIM_000.jpg	100
2509.834	0.93	929.9	observe	Run3	observe/STIM_000.jpg	99
2513.238	1.261	1260.8	observe	Run3	observe/STIM_001.jpg	99
2517.897	1.372	1372.0	observe	Run3	observe/STIM_001.jpg	100
2521.761	0.748	748.3	observe	Run3	observe/STIM_001.jpg	99
2525.339	1.236	1235.9	observe	Run3	observe/STIM_001.jpg	99
2529.089	0.819	819.4	observe	Run3	observe/STIM_002.jpg	99
2533.59	0.826	825.5	observe	Run3	observe/STIM_002.jpg	99
2538.188	1.393	1393.2	observe	Run3	observe/STIM_002.jpg	99
2542.139	0.963	962.9	observe	Run3	observe/STIM_002.jpg	99
2546.192	0.994	993.9	observe	Run3	observe/STIM_003.jpg	100
2549.93	1.082	1081.5	observe	Run3	observe/STIM_003.jpg	100
2554.759	1.014	1013.5	observe	Run3	observe/STIM_003.jpg	100
2559.58	1.004	1003.9	observe	Run3	observe/STIM_003.jpg	99
2563.526	0.93	929.9	observe	Run3	observe/STIM_004.jpg	99
2567.036	1.046	1046.4	observe	Run3	observe/STIM_004.jpg	99
2570.978	0.925	925.1	observe	Run3	observe/STIM_004.jpg	100
2575.016	0.839	839.4	observe	Run3	observe/STIM_004.jpg	100
2578.481	1.157	1156.6	observe	Run3	observe/STIM_005.jpg	99
2582.139	0.904	904.1	observe	Run3	observe/STIM_005.jpg	99
2585.649	1.207	1207.1	observe	Run3	observe/STIM_005.jpg	100
2590.587	1.179	1179.0	observe	Run3	observe/STIM_005.jpg	99
2595.808	1.335	1335.2	observe	Run3	observe/STIM_006.jpg	99
2599.373	0.804	803.5	observe	Run3	observe/STIM_006.jpg	100
2602.818	0.835	835.0	observe	Run3	observe/STIM_006.jpg	99
2605.8	1.08	1079.6	observe	Run3	observe/STIM_006.jpg	99
2610.794	1.04	1039.9	observe	Run3	observe/STIM_007.jpg	99
2614.985	1.302	1302.1	observe	Run3	observe/STIM_007.jpg	99
2618.618	1.229	1229.1	observe	Run3	observe/STIM_007.jpg	100
2622.802	1.0	1000.2	observe	Run3	observe/STIM_007.jpg	100
2627.214	0.862	862.0	observe	Run3	observe/STIM_008.jpg	100
2630.347	1.245	1245.0	observe	Run3	observe/STIM_008.jpg	99
2634.394	1.362	1362.3	observe	Run3	observe/STIM_008.jpg	100
2638.063	0.852	851.5	observe	Run3	observe/STIM_008.jpg	100
2641.852	1.281	1280.6	observe	Run3	observe/STIM_009.jpg	100
2646.619	1.44	1440.1	observe	Run3	observe/STIM_009.jpg	100
2652.181	0.885	885.0	observe	Run3	observe/STIM_009.jpg	99
2656.695	0.863	863.0	observe	Run3	observe/STIM_009.jpg	100
2659.718	1.079	1079.2	observe	Run3	observe/STIM_010.jpg	100
2663.669	1.147	1146.7	observe	Run3	observe/STIM_010.jpg	99
2668.871	1.425	1424.7	observe	Run3	observe/STIM_010.jpg	100
2672.382	1.075	1074.9	observe	Run3	observe/STIM_010.jpg	99
2677.412	0.914	914.2	observe	Run3	observe/STIM_011.jpg	100
2680.915	0.699	698.9	observe	Run3	observe/STIM_011.jpg	100
2684.452	1.3	1300.5	observe	Run3	observe/STIM_011.jpg	100
2688.649	1.36	1360.0	observe	Run3	observe/STIM_011.jpg	99
2693.311	1.04	1039.8	observe	Run3	observe/STIM_012.jpg	100
2697.998	0.777	777.0	observe	Run3	observe/STIM_012.jpg	99
2701.893	0.857	856.8	observe	Run3	observe/STIM_012.jpg	99
2705.437	1.465	1465.3	observe	Run3	observe/STIM_012.jpg	99
2709.528	1.042	1042.2	observe	Run3	observe/STIM_013.jpg	99
2713.672	1.267	1267.1	observe	Run3	observe/STIM_013.jpg	100
2717.452	1.416	1415.8	observe	Run3	observe/STIM_013.jpg	99
2722.996	1.194	1193.6	observe	Run3	observe/STIM_013.jpg	99
2726.425	1.24	1239.6	observe	Run3	observe/STIM_014.jpg	99
2731.194	1.05	1049.7	observe	Run3	observe/STIM_014.jpg	100
2735.491	1.018	1017.5	observe	Run3	observe/STIM_014.jpg	100
2739.956	1.19	1190.5	observe	Run3	observe/STIM_014.jpg	100
2745.098	0.957	956.7	observe	Run3	observe/STIM_015.jpg	100
2749.145	0.81	809.9	observe	Run3	observe/STIM_015.jpg	99
2754.023	1.277	1277.2	observe	Run3	observe/STIM_015.jpg	100
2758.256	1.222	1221.7	observe	Run3	observe/STIM_015.jpg	100
2762.448	0.737	736.8	observe	Run3	observe/STIM_016.jpg	99
2765.539	1.42	1420.3	observe	Run3	observe/STIM_016.jpg	100
2770.329	0.855	855.4	observe	Run3	observe/STIM_016.jpg	99
2773.384	0.873	873.2	observe	Run3	observe/STIM_016.jpg	100
2777.227	1.37	1369.6	observe	Run3	observe/STIM_017.jpg	99
2782.533	0.947	947.4	observe	Run3	observe/STIM_017.jpg	99
2787.673	0.819	818.7	observe	Run3	observe/STIM_017.jpg	99
2792.493	0.686	686.5	observe	Run3	observe/STIM_017.jpg	99
2795.832	1.178	1177.6	observe	Run3	observe/STIM_018.jpg	100
2799.71	1.42	1419.7	observe	Run3	observe/STIM_018.jpg	99
2803.346	1.058	1057.9	observe	Run3	observe/STIM_018.jpg	99
2806.688	1.347	1347.4	observe	Run3	observe/STIM_018.jpg	100
2810.874	1.255	1254.8	observe	Run3	observe/STIM_019.jpg	99
2815.925	0.82	819.8	observe	Run3	observe/STIM_019.jpg	99
2819.436	1.226	1226.1	observe	Run3	observe/STIM_019.jpg	100
2824.39	0.936	936.4	observe	Run3	observe/STIM_019.jpg	100
