onset	duration	accuracy	trial_type	learning_stage	stimulus
0.0	1.941	correct	regulate	Run1	regulate/STIM_000.jpg
4.976	1.328	correct	regulate	Run1	regulate/STIM_000.jpg
9.051	2.472	correct	regulate	Run1	regulate/STIM_000.jpg
13.837	2.484	correct	regulate	Run1	regulate/STIM_000.jpg
18.401	2.799	correct	regulate	Run1	regulate/STIM_001.jpg
24.17	2.083	correct	regulate	Run1	regulate/STIM_001.jpg
29.009	1.429	correct	regulate	Run1	regulate/STIM_001.jpg
33.173	1.697	correct	regulate	Run1	regulate/STIM_001.jpg
37.393	2.336	incorrect	regulate	Run1	regulate/STIM_002.jpg
42.917	2.567	correct	regulate	Run1	regulate/STIM_002.jpg
49.304	1.828	correct	regulate	Run1	regulate/STIM_002.jpg
53.621	1.854	correct	regulate	Run1	regulate/STIM_002.jpg
58.985	1.853	correct	regulate	Run1	regulate/STIM_003.jpg
62.896	1.327	correct	regulate	Run1	regulate/STIM_003.jpg
67.699	1.723	incorrect	regulate	Run1	regulate/STIM_003.jpg
72.165	2.497	correct	regulate	Run1	regulate/STIM_003.jpg
78.138	2.412	correct	regulate	Run1	regulate/STIM_004.jpg
84.019	1.894	correct	regulate	Run1	regulate/STIM_004.jpg
88.487	2.66	correct	regulate	Run1	regulate/STIM_004.jpg
94.26	1.87	incorrect	regulate	Run1	regulate/STIM_004.jpg
99.821	2.755	correct	regulate	Run1	regulate/STIM_005.jpg
105.302	1.532	correct	regulate	Run1	regulate/STIM_005.jpg
109.644	1.625	correct	regulate	Run1	regulate/STIM_005.jpg
114.02	1.77	correct	regulate	Run1	regulate/STIM_005.jpg
118.907	1.915	correct	regulate	Run1	regulate/STIM_006.jpg
124.47	1.967	correct	regulate	Run1	regulate/STIM_006.jpg
128.814	2.371	incorrect	regulate	Run1	regulate/STIM_006.jpg
134.133	1.849	correct	regulate	Run1	regulate/STIM_006.jpg
139.469	1.487	correct	regulate	Run1	regulate/STIM_007.jpg
143.693	1.653	correct	regulate	Run1	regulate/STIM_007.jpg
148.764	2.495	incorrect	regulate	Run1	regulate/STIM_007.jpg
154.16	1.761	incorrect	regulate	Run1	regulate/STIM_007.jpg
159.307	2.943	correct	regulate	Run1	regulate/STIM_008.jpg
165.312	2.74	incorrect	regulate	Run1	regulate/STIM_008.jpg
170.308	1.868	incorrect	regulate	Run1	regulate/STIM_008.jpg
175.71	1.624	correct	regulate	Run1	regulate/STIM_008.jpg
179.772	1.482	correct	regulate	Run1	regulate/STIM_009.jpg
184.24	2.684	incorrect	regulate	Run1	regulate/STIM_009.jpg
190.346	2.226	incorrect	regulate	Run1	regulate/STIM_009.jpg
195.24	2.088	correct	regulate	Run1	regulate/STIM_009.jpg
199.587	2.756	correct	regulate	Run1	regulate/STIM_010.jpg
204.457	1.365	correct	regulate	Run1	regulate/STIM_010.jpg
209.102	2.007	correct	regulate	Run1	regulate/STIM_010.jpg
213.692	2.081	correct	regulate	Run1	regulate/STIM_010.jpg
218.018	2.267	correct	regulate	Run1	regulate/STIM_011.jpg
223.04	1.89	incorrect	regulate	Run1	regulate/STIM_011.jpg
227.055	1.971	correct	regulate	Run1	regulate/STIM_011.jpg
232.102	1.966	incorrect	regulate	Run1	regulate/STIM_011.jpg
236.551	2.86	correct	regulate	Run1	regulate/STIM_012.jpg
242.597	2.427	correct	regulate	Run1	regulate/STIM_012.jpg
247.61	2.53	correct	regulate	Run1	regulate/STIM_012.jpg
253.297	2.172	incorrect	regulate	Run1	regulate/STIM_012.jpg
257.993	2.651	correct	regulate	Run1	regulate/STIM_013.jpg
263.888	1.543	correct	regulate	Run1	regulate/STIM_013.jpg
267.838	2.117	correct	regulate	Run1	regulate/STIM_013.jpg
273.142	2.222	correct	regulate	Run1	regulate/STIM_013.jpg
279.287	2.503	incorrect	regulate	Run1	regulate/STIM_014.jpg
285.683	2.148	correct	regulate	Run1	regulate/STIM_014.jpg
290.445	2.532	correct	regulate	Run1	regulate/STIM_014.jpg
295.246	1.752	correct	regulate	Run1	regulate/STIM_014.jpg
299.444	2.698	correct	regulate	Run1	regulate/STIM_015.jpg
305.487	2.159	incorrect	regulate	Run1	regulate/STIM_015.jpg
310.664	1.505	correct	regulate	Run1	regulate/STIM_015.jpg
315.029	1.548	incorrect	regulate	Run1	regulate/STIM_015.jpg
320.219	2.338	correct	regulate	Run1	regulate/STIM_016.jpg
326.153	2.762	correct	regulate	Run1	regulate/STIM_016.jpg
330.937	1.406	correct	regulate	Run1	regulate/STIM_016.jpg
334.801	1.691	correct	regulate	Run1	regulate/STIM_016.jpg
338.885	1.46	incorrect	regulate	Run1	regulate/STIM_017.jpg
343.085	1.212	incorrect	regulate	Run1	regulate/STIM_017.jpg
347.392	1.516	incorrect	regulate	Run1	regulate/STIM_017.jpg
352.17	1.427	correct	regulate	Run1	regulate/STIM_017.jpg
356.669	2.915	correct	regulate	Run1	regulate/STIM_018.jpg
362.949	1.637	correct	regulate	Run1	regulate/STIM_018.jpg
368.129	2.623	correct	regulate	Run1	regulate/STIM_018.jpg
374.279	2.409	incorrect	regulate	Run1	regulate/STIM_018.jpg
380.381	2.214	correct	regulate	Run1	regulate/STIM_019.jpg
385.562	2.779	correct	regulate	Run1	regulate/STIM_019.jpg
392.035	2.578	correct	regulate	Run1	regulate/STIM_019.jpg
397.416	2.394	correct	regulate	Run1	regulate/STIM_019.jpg
402.276	1.501	correct	regulate	Run1	regulate/STIM_020.jpg
407.251	2.509	correct	regulate	Run1	regulate/STIM_020.jpg
411.81	1.39	correct	regulate	Run1	regulate/STIM_020.jpg
415.999	1.664	correct	regulate	Run1	regulate/STIM_020.jpg
420.931	2.181	correct	regulate	Run1	regulate/STIM_021.jpg
426.133	2.772	correct	regulate	Run1	regulate/STIM_021.jpg
431.525	2.3	correct	regulate	Run1	regulate/STIM_021.jpg
437.053	1.932	correct	regulate	Run1	regulate/STIM_021.jpg
441.188	1.767	correct	regulate	Run1	regulate/STIM_022.jpg
445.343	2.597	correct	regulate	Run1	regulate/STIM_022.jpg
451.885	1.406	correct	regulate	Run1	regulate/STIM_022.jpg
456.924	1.422	incorrect	regulate	Run1	regulate/STIM_022.jpg
461.097	1.346	correct	regulate	Run1	regulate/STIM_023.jpg
466.249	1.476	correct	regulate	Run1	regulate/STIM_023.jpg
470.285	1.801	correct	regulate	Run1	regulate/STIM_023.jpg
475.296	1.978	correct	regulate	Run1	regulate/STIM_023.jpg
480.035	2.797	correct	regulate	Run1	regulate/STIM_024.jpg
485.931	1.486	correct	regulate	Run1	regulate/STIM_024.jpg
489.915	1.256	incorrect	regulate	Run1	regulate/STIM_024.jpg
494.53	1.56	correct	regulate	Run1	regulate/STIM_024.jpg
499.513	2.317	incorrect	regulate	Run1	regulate/STIM_025.jpg
504.581	2.745	correct	regulate	Run1	regulate/STIM_025.jpg
510.429	1.311	correct	regulate	Run1	regulate/STIM_025.jpg
515.313	2.386	correct	regulate	Run1	regulate/STIM_025.jpg
520.408	2.0	correct	regulate	Run1	regulate/STIM_026.jpg
526.132	2.278	incorrect	regulate	Run1	regulate/STIM_026.jpg
531.927	2.236	correct	regulate	Run1	regulate/STIM_026.jpg
536.663	1.1	correct	regulate	Run1	regulate/STIM_026.jpg
541.217	1.787	incorrect	regulate	Run1	regulate/STIM_027.jpg
545.906	2.174	incorrect	regulate	Run1	regulate/STIM_027.jpg
551.104	2.339	correct	regulate	Run1	regulate/STIM_027.jpg
556.371	2.518	correct	regulate	Run1	regulate/STIM_027.jpg
561.333	2.571	incorrect	regulate	Run1	regulate/STIM_028.jpg
567.867	2.34	correct	regulate	Run1	regulate/STIM_028.jpg
573.765	1.352	correct	regulate	Run1	regulate/STIM_028.jpg
577.978	1.343	correct	regulate	Run1	regulate/STIM_028.jpg
583.121	2.645	incorrect	regulate	Run1	regulate/STIM_029.jpg
588.311	1.762	correct	regulate	Run1	regulate/STIM_029.jpg
594.062	1.227	correct	regulate	Run1	regulate/STIM_029.jpg
598.665	2.05	correct	regulate	Run1	regulate/STIM_029.jpg
604.201	1.33	correct	observe	Run1	observe/STIM_000.jpg
608.912	1.176	correct	observe	Run1	observe/STIM_000.jpg
612.297	0.766	correct	observe	Run1	observe/STIM_000.jpg
615.26	1.099	correct	observe	Run1	observe/STIM_000.jpg
620.287	1.057	correct	observe	Run1	observe/STIM_001.jpg
623.588	0.891	correct	observe	Run1	observe/STIM_001.jpg
626.784	1.204	correct	observe	Run1	observe/STIM_001.jpg
631.793	0.854	correct	observe	Run1	observe/STIM_001.jpg
636.479	1.08	correct	observe	Run1	observe/STIM_002.jpg
641.484	0.735	correct	observe	Run1	observe/STIM_002.jpg
644.347	0.903	correct	observe	Run1	observe/STIM_002.jpg
647.643	1.057	correct	observe	Run1	observe/STIM_002.jpg
651.071	0.965	correct	observe	Run1	observe/STIM_003.jpg
655.515	1.214	correct	observe	Run1	observe/STIM_003.jpg
659.097	1.181	correct	observe	Run1	observe/STIM_003.jpg
664.207	1.195	correct	observe	Run1	observe/STIM_003.jpg
668.683	0.951	correct	observe	Run1	observe/STIM_004.jpg
672.233	0.914	incorrect	observe	Run1	observe/STIM_004.jpg
676.405	1.186	incorrect	observe	Run1	observe/STIM_004.jpg
681.573	0.85	correct	observe	Run1	observe/STIM_004.jpg
684.966	0.875	correct	observe	Run1	observe/STIM_005.jpg
688.057	1.042	correct	observe	Run1	observe/STIM_005.jpg
692.532	1.049	correct	observe	Run1	observe/STIM_005.jpg
695.586	0.969	correct	observe	Run1	observe/STIM_005.jpg
699.398	0.778	correct	observe	Run1	observe/STIM_006.jpg
703.934	1.214	correct	observe	Run1	observe/STIM_006.jpg
708.474	0.932	correct	observe	Run1	observe/STIM_006.jpg
712.747	1.091	incorrect	observe	Run1	observe/STIM_006.jpg
717.323	1.34	correct	observe	Run1	observe/STIM_007.jpg
720.889	0.88	correct	observe	Run1	observe/STIM_007.jpg
725.263	1.04	correct	observe	Run1	observe/STIM_007.jpg
730.099	0.845	correct	observe	Run1	observe/STIM_007.jpg
734.492	1.333	incorrect	observe	Run1	observe/STIM_008.jpg
739.086	1.351	incorrect	observe	Run1	observe/STIM_008.jpg
743.965	1.238	correct	observe	Run1	observe/STIM_008.jpg
747.479	1.354	correct	observe	Run1	observe/STIM_008.jpg
751.296	0.894	incorrect	observe	Run1	observe/STIM_009.jpg
755.286	1.345	correct	observe	Run1	observe/STIM_009.jpg
760.521	0.824	correct	observe	Run1	observe/STIM_009.jpg
763.806	0.876	correct	observe	Run1	observe/STIM_009.jpg
767.474	0.838	correct	observe	Run1	observe/STIM_010.jpg
770.618	1.24	incorrect	observe	Run1	observe/STIM_010.jpg
774.353	1.005	incorrect	observe	Run1	observe/STIM_010.jpg
777.972	1.01	correct	observe	Run1	observe/STIM_010.jpg
781.549	0.694	correct	observe	Run1	observe/STIM_011.jpg
786.227	0.743	correct	observe	Run1	observe/STIM_011.jpg
788.973	0.853	correct	observe	Run1	observe/STIM_011.jpg
791.912	0.697	correct	observe	Run1	observe/STIM_011.jpg
796.322	0.736	correct	observe	Run1	observe/STIM_012.jpg
799.455	1.101	incorrect	observe	Run1	observe/STIM_012.jpg
803.906	1.329	correct	observe	Run1	observe/STIM_012.jpg
808.581	0.707	correct	observe	Run1	observe/STIM_012.jpg
813.055	1.072	correct	observe	Run1	observe/STIM_013.jpg
817.511	1.205	correct	observe	Run1	observe/STIM_013.jpg
821.777	1.323	correct	observe	Run1	observe/STIM_013.jpg
825.792	1.018	correct	observe	Run1	observe/STIM_013.jpg
829.527	1.326	correct	observe	Run1	observe/STIM_014.jpg
833.383	0.952	correct	observe	Run1	observe/STIM_014.jpg
838.091	1.258	incorrect	observe	Run1	observe/STIM_014.jpg
843.172	0.802	correct	observe	Run1	observe/STIM_014.jpg
846.271	1.051	correct	observe	Run1	observe/STIM_015.jpg
850.787	1.123	correct	observe	Run1	observe/STIM_015.jpg
855.058	1.054	correct	observe	Run1	observe/STIM_015.jpg
858.874	0.795	incorrect	observe	Run1	observe/STIM_015.jpg
862.454	1.267	incorrect	observe	Run1	observe/STIM_016.jpg
867.09	0.92	correct	observe	Run1	observe/STIM_016.jpg
870.99	0.986	correct	observe	Run1	observe/STIM_016.jpg
875.033	1.246	correct	observe	Run1	observe/STIM_016.jpg
879.032	0.722	correct	observe	Run1	observe/STIM_017.jpg
881.939	1.278	correct	observe	Run1	observe/STIM_017.jpg
885.826	1.22	correct	observe	Run1	observe/STIM_017.jpg
890.779	1.184	correct	observe	Run1	observe/STIM_017.jpg
894.135	1.202	incorrect	observe	Run1	observe/STIM_018.jpg
898.118	1.12	correct	observe	Run1	observe/STIM_018.jpg
903.135	1.056	correct	observe	Run1	observe/STIM_018.jpg
906.956	0.696	correct	observe	Run1	observe/STIM_018.jpg
911.515	0.743	correct	observe	Run1	observe/STIM_019.jpg
916.002	1.344	correct	observe	Run1	observe/STIM_019.jpg
919.609	1.08	correct	observe	Run1	observe/STIM_019.jpg
923.717	0.807	incorrect	observe	Run1	observe/STIM_019.jpg
927.782	2.474	incorrect	regulate	Run2	regulate/STIM_000.jpg
934.085	2.185	correct	regulate	Run2	regulate/STIM_000.jpg
938.498	1.591	incorrect	regulate	Run2	regulate/STIM_000.jpg
943.524	1.887	correct	regulate	Run2	regulate/STIM_000.jpg
947.859	1.475	correct	regulate	Run2	regulate/STIM_001.jpg
951.816	2.147	correct	regulate	Run2	regulate/STIM_001.jpg
957.399	1.374	correct	regulate	Run2	regulate/STIM_001.jpg
961.77	1.269	incorrect	regulate	Run2	regulate/STIM_001.jpg
965.298	2.443	correct	regulate	Run2	regulate/STIM_002.jpg
970.551	2.228	correct	regulate	Run2	regulate/STIM_002.jpg
975.479	1.344	correct	regulate	Run2	regulate/STIM_002.jpg
980.011	1.413	correct	regulate	Run2	regulate/STIM_002.jpg
984.707	1.214	correct	regulate	Run2	regulate/STIM_003.jpg
988.952	2.227	correct	regulate	Run2	regulate/STIM_003.jpg
993.911	2.15	correct	regulate	Run2	regulate/STIM_003.jpg
999.089	1.002	correct	regulate	Run2	regulate/STIM_003.jpg
1003.256	1.834	correct	regulate	Run2	regulate/STIM_004.jpg
1008.276	2.27	correct	regulate	Run2	regulate/STIM_004.jpg
1013.951	1.256	correct	regulate	Run2	regulate/STIM_004.jpg
1018.815	2.041	incorrect	regulate	Run2	regulate/STIM_004.jpg
1023.776	1.505	correct	regulate	Run2	regulate/STIM_005.jpg
1028.596	1.451	correct	regulate	Run2	regulate/STIM_005.jpg
1032.83	1.861	incorrect	regulate	Run2	regulate/STIM_005.jpg
1037.34	1.78	correct	regulate	Run2	regulate/STIM_005.jpg
1041.243	1.598	incorrect	regulate	Run2	regulate/STIM_006.jpg
1046.554	2.306	correct	regulate	Run2	regulate/STIM_006.jpg
1051.685	1.426	correct	regulate	Run2	regulate/STIM_006.jpg
1056.25	1.801	correct	regulate	Run2	regulate/STIM_006.jpg
1060.529	2.25	correct	regulate	Run2	regulate/STIM_007.jpg
1065.807	1.652	correct	regulate	Run2	regulate/STIM_007.jpg
1070.619	2.174	correct	regulate	Run2	regulate/STIM_007.jpg
1075.858	1.952	incorrect	regulate	Run2	regulate/STIM_007.jpg
1079.993	2.378	incorrect	regulate	Run2	regulate/STIM_008.jpg
1086.353	2.016	correct	regulate	Run2	regulate/STIM_008.jpg
1091.645	1.185	incorrect	regulate	Run2	regulate/STIM_008.jpg
1095.338	1.337	correct	regulate	Run2	regulate/STIM_008.jpg
1099.328	2.057	correct	regulate	Run2	regulate/STIM_009.jpg
1103.984	2.357	correct	regulate	Run2	regulate/STIM_009.jpg
1108.981	1.358	correct	regulate	Run2	regulate/STIM_009.jpg
1112.719	1.213	correct	regulate	Run2	regulate/STIM_009.jpg
1116.08	1.298	correct	regulate	Run2	regulate/STIM_010.jpg
1119.622	2.041	correct	regulate	Run2	regulate/STIM_010.jpg
1125.529	1.382	correct	regulate	Run2	regulate/STIM_010.jpg
1130.323	1.997	correct	regulate	Run2	regulate/STIM_010.jpg
1135.184	1.85	correct	regulate	Run2	regulate/STIM_011.jpg
1140.454	1.675	correct	regulate	Run2	regulate/STIM_011.jpg
1144.766	1.618	correct	regulate	Run2	regulate/STIM_011.jpg
1149.9	1.051	correct	regulate	Run2	regulate/STIM_011.jpg
1154.158	1.673	correct	regulate	Run2	regulate/STIM_012.jpg
1158.503	1.807	incorrect	regulate	Run2	regulate/STIM_012.jpg
1164.097	2.187	correct	regulate	Run2	regulate/STIM_012.jpg
1168.502	1.306	correct	regulate	Run2	regulate/STIM_012.jpg
1173.028	1.756	correct	regulate	Run2	regulate/STIM_013.jpg
1177.99	1.734	correct	regulate	Run2	regulate/STIM_013.jpg
1182.291	1.595	incorrect	regulate	Run2	regulate/STIM_013.jpg
1187.154	1.415	correct	regulate	Run2	regulate/STIM_013.jpg
1192.11	1.823	incorrect	regulate	Run2	regulate/STIM_014.jpg
1196.305	1.08	correct	regulate	Run2	regulate/STIM_014.jpg
1200.746	2.204	incorrect	regulate	Run2	regulate/STIM_014.jpg
1205.38	1.618	correct	regulate	Run2	regulate/STIM_014.jpg
1209.797	2.262	correct	regulate	Run2	regulate/STIM_015.jpg
1214.14	2.328	incorrect	regulate	Run2	regulate/STIM_015.jpg
1218.89	2.214	incorrect	regulate	Run2	regulate/STIM_015.jpg
1224.467	1.788	correct	regulate	Run2	regulate/STIM_015.jpg
1229.906	1.49	correct	regulate	Run2	regulate/STIM_016.jpg
1234.193	2.253	correct	regulate	Run2	regulate/STIM_016.jpg
1239.659	1.945	correct	regulate	Run2	regulate/STIM_016.jpg
1244.078	1.021	correct	regulate	Run2	regulate/STIM_016.jpg
1248.66	1.63	incorrect	regulate	Run2	regulate/STIM_017.jpg
1252.461	1.672	correct	regulate	Run2	regulate/STIM_017.jpg
1257.334	2.224	correct	regulate	Run2	regulate/STIM_017.jpg
1263.42	1.409	correct	regulate	Run2	regulate/STIM_017.jpg
1267.889	2.501	incorrect	regulate	Run2	regulate/STIM_018.jpg
1272.979	1.348	correct	regulate	Run2	regulate/STIM_018.jpg
1277.076	2.205	correct	regulate	Run2	regulate/STIM_018.jpg
1281.424	1.088	incorrect	regulate	Run2	regulate/STIM_018.jpg
1285.324	2.148	correct	regulate	Run2	regulate/STIM_019.jpg
1291.333	1.066	correct	regulate	Run2	regulate/STIM_019.jpg
1294.477	1.33	correct	regulate	Run2	regulate/STIM_019.jpg
1298.321	1.248	correct	regulate	Run2	regulate/STIM_019.jpg
1303.161	1.511	incorrect	regulate	Run2	regulate/STIM_020.jpg
1307.222	1.36	correct	regulate	Run2	regulate/STIM_020.jpg
1312.316	1.161	correct	regulate	Run2	regulate/STIM_020.jpg
1316.777	1.109	correct	regulate	Run2	regulate/STIM_020.jpg
1321.484	2.4	correct	regulate	Run2	regulate/STIM_021.jpg
1327.329	1.456	correct	regulate	Run2	regulate/STIM_021.jpg
1331.402	1.755	correct	regulate	Run2	regulate/STIM_021.jpg
1336.373	1.512	correct	regulate	Run2	regulate/STIM_021.jpg
1341.425	1.539	correct	regulate	Run2	regulate/STIM_022.jpg
1346.096	1.998	correct	regulate	Run2	regulate/STIM_022.jpg
1350.429	1.334	correct	regulate	Run2	regulate/STIM_022.jpg
1354.173	0.954	correct	regulate	Run2	regulate/STIM_022.jpg
1357.33	1.256	correct	regulate	Run2	regulate/STIM_023.jpg
1362.324	2.162	correct	regulate	Run2	regulate/STIM_023.jpg
1368.056	1.284	correct	regulate	Run2	regulate/STIM_023.jpg
1371.963	1.394	correct	regulate	Run2	regulate/STIM_023.jpg
1376.171	2.139	incorrect	regulate	Run2	regulate/STIM_024.jpg
1381.035	1.436	incorrect	regulate	Run2	regulate/STIM_024.jpg
1385.318	1.585	correct	regulate	Run2	regulate/STIM_024.jpg
1389.849	1.007	correct	regulate	Run2	regulate/STIM_024.jpg
1394.667	1.314	correct	regulate	Run2	regulate/STIM_025.jpg
1399.495	2.262	correct	regulate	Run2	regulate/STIM_025.jpg
1405.133	1.147	correct	regulate	Run2	regulate/STIM_025.jpg
1410.061	1.015	correct	regulate	Run2	regulate/STIM_025.jpg
1413.599	1.215	incorrect	regulate	Run2	regulate/STIM_026.jpg
1418.534	1.224	correct	regulate	Run2	regulate/STIM_026.jpg
1421.9	1.913	correct	regulate	Run2	regulate/STIM_026.jpg
1427.351	1.722	correct	regulate	Run2	regulate/STIM_026.jpg
1431.459	1.44	correct	regulate	Run2	regulate/STIM_027.jpg
1436.021	1.031	correct	regulate	Run2	regulate/STIM_027.jpg
1439.43	1.348	incorrect	regulate	Run2	regulate/STIM_027.jpg
1444.427	1.454	correct	regulate	Run2	regulate/STIM_027.jpg
1448.843	1.704	incorrect	regulate	Run2	regulate/STIM_028.jpg
1453.804	1.757	correct	regulate	Run2	regulate/STIM_028.jpg
1458.567	1.488	correct	regulate	Run2	regulate/STIM_028.jpg
1462.477	1.792	correct	regulate	Run2	regulate/STIM_028.jpg
1466.984	1.517	correct	regulate	Run2	regulate/STIM_029.jpg
1471.252	1.035	correct	regulate	Run2	regulate/STIM_029.jpg
1476.009	1.903	correct	regulate	Run2	regulate/STIM_029.jpg
1480.124	1.4	incorrect	regulate	Run2	regulate/STIM_029.jpg
1483.679	0.68	correct	observe	Run2	observe/STIM_000.jpg
1488.28	0.993	correct	observe	Run2	observe/STIM_000.jpg
1492.056	1.04	correct	observe	Run2	observe/STIM_000.jpg
1495.702	1.042	correct	observe	Run2	observe/STIM_000.jpg
1499.49	0.696	correct	observe	Run2	observe/STIM_001.jpg
1502.768	1.044	correct	observe	Run2	observe/STIM_001.jpg
1507.404	1.273	correct	observe	Run2	observe/STIM_001.jpg
1512.257	1.235	correct	observe	Run2	observe/STIM_001.jpg
1517.053	0.9	correct	observe	Run2	observe/STIM_002.jpg
1520.546	0.832	correct	observe	Run2	observe/STIM_002.jpg
1523.738	1.001	correct	observe	Run2	observe/STIM_002.jpg
1528.458	1.197	correct	observe	Run2	observe/STIM_002.jpg
1532.73	0.919	correct	observe	Run2	observe/STIM_003.jpg
1536.391	1.238	correct	observe	Run2	observe/STIM_003.jpg
1540.582	1.247	correct	observe	Run2	observe/STIM_003.jpg
1544.974	0.72	correct	observe	Run2	observe/STIM_003.jpg
1548.253	1.183	correct	observe	Run2	observe/STIM_004.jpg
1551.853	1.106	incorrect	observe	Run2	observe/STIM_004.jpg
1555.624	0.842	correct	observe	Run2	observe/STIM_004.jpg
1559.927	1.247	correct	observe	Run2	observe/STIM_004.jpg
1564.797	0.69	incorrect	observe	Run2	observe/STIM_005.jpg
1568.506	1.05	incorrect	observe	Run2	observe/STIM_005.jpg
1571.677	1.03	correct	observe	Run2	observe/STIM_005.jpg
1575.316	0.698	correct	observe	Run2	observe/STIM_005.jpg
1579.89	1.053	correct	observe	Run2	observe/STIM_006.jpg
1583.206	0.769	correct	observe	Run2	observe/STIM_006.jpg
1587.446	1.059	correct	observe	Run2	observe/STIM_006.jpg
1592.086	1.037	correct	observe	Run2	observe/STIM_006.jpg
1596.655	0.756	correct	observe	Run2	observe/STIM_007.jpg
1600.327	1.227	correct	observe	Run2	observe/STIM_007.jpg
1604.638	0.86	correct	observe	Run2	observe/STIM_007.jpg
1607.688	0.716	correct	observe	Run2	observe/STIM_007.jpg
1611.371	1.327	correct	observe	Run2	observe/STIM_008.jpg
1615.045	1.328	correct	observe	Run2	observe/STIM_008.jpg
1619.84	1.251	incorrect	observe	Run2	observe/STIM_008.jpg
1624.15	1.2	correct	observe	Run2	observe/STIM_008.jpg
1629.241	0.763	incorrect	observe	Run2	observe/STIM_009.jpg
1632.995	0.997	correct	observe	Run2	observe/STIM_009.jpg
1636.109	1.225	correct	observe	Run2	observe/STIM_009.jpg
1640.929	0.919	correct	observe	Run2	observe/STIM_009.jpg
1644.806	1.029	correct	observe	Run2	observe/STIM_010.jpg
1648.116	1.178	incorrect	observe	Run2	observe/STIM_010.jpg
1651.338	1.083	correct	observe	Run2	observe/STIM_010.jpg
1656.04	1.243	correct	observe	Run2	observe/STIM_010.jpg
1659.881	1.073	correct	observe	Run2	observe/STIM_011.jpg
1664.113	0.859	correct	observe	Run2	observe/STIM_011.jpg
1668.809	1.357	correct	observe	Run2	observe/STIM_011.jpg
1673.12	1.104	correct	observe	Run2	observe/STIM_011.jpg
1676.242	1.244	incorrect	observe	Run2	observe/STIM_012.jpg
1681.246	1.075	correct	observe	Run2	observe/STIM_012.jpg
1684.679	1.186	correct	observe	Run2	observe/STIM_012.jpg
1688.192	0.913	correct	observe	Run2	observe/STIM_012.jpg
1691.17	0.812	correct	observe	Run2	observe/STIM_013.jpg
1695.323	0.906	correct	observe	Run2	observe/STIM_013.jpg
1698.621	1.255	incorrect	observe	Run2	observe/STIM_013.jpg
1703.103	0.845	correct	observe	Run2	observe/STIM_013.jpg
1706.887	1.03	correct	observe	Run2	observe/STIM_014.jpg
1710.956	0.96	correct	observe	Run2	observe/STIM_014.jpg
1714.0	0.98	correct	observe	Run2	observe/STIM_014.jpg
1717.474	1.238	correct	observe	Run2	observe/STIM_014.jpg
1721.17	0.692	correct	observe	Run2	observe/STIM_015.jpg
1725.049	0.779	correct	observe	Run2	observe/STIM_015.jpg
1728.489	1.237	correct	observe	Run2	observe/STIM_015.jpg
1732.636	1.149	correct	observe	Run2	observe/STIM_015.jpg
1736.825	0.839	correct	observe	Run2	observe/STIM_016.jpg
1740.486	0.748	correct	observe	Run2	observe/STIM_016.jpg
1744.035	1.126	correct	observe	Run2	observe/STIM_016.jpg
1747.54	1.2	correct	observe	Run2	observe/STIM_016.jpg
1751.391	0.859	correct	observe	Run2	observe/STIM_017.jpg
1754.732	1.344	correct	observe	Run2	observe/STIM_017.jpg
1758.99	1.023	correct	observe	Run2	observe/STIM_017.jpg
1762.258	0.819	incorrect	observe	Run2	observe/STIM_017.jpg
1765.272	0.926	correct	observe	Run2	observe/STIM_018.jpg
1769.584	0.933	correct	observe	Run2	observe/STIM_018.jpg
1773.345	0.85	correct	observe	Run2	observe/STIM_018.jpg
1777.309	0.948	correct	observe	Run2	observe/STIM_018.jpg
1780.92	0.747	correct	observe	Run2	observe/STIM_019.jpg
1784.778	0.91	correct	observe	Run2	observe/STIM_019.jpg
1789.595	0.892	correct	observe	Run2	observe/STIM_019.jpg
1793.327	0.722	correct	observe	Run2	observe/STIM_019.jpg
1796.508	1.491	correct	regulate	Run3	regulate/STIM_000.jpg
1800.23	1.046	correct	regulate	Run3	regulate/STIM_000.jpg
1804.862	1.782	correct	regulate	Run3	regulate/STIM_000.jpg
1809.226	1.259	correct	regulate	Run3	regulate/STIM_000.jpg
1814.077	1.956	correct	regulate	Run3	regulate/STIM_001.jpg
1818.202	1.97	correct	regulate	Run3	regulate/STIM_001.jpg
1824.084	2.055	correct	regulate	Run3	regulate/STIM_001.jpg
1828.215	0.929	correct	regulate	Run3	regulate/STIM_001.jpg
1833.088	2.054	correct	regulate	Run3	regulate/STIM_002.jpg
1837.16	1.814	correct	regulate	Run3	regulate/STIM_002.jpg
1841.641	1.549	correct	regulate	Run3	regulate/STIM_002.jpg
1846.945	1.091	correct	regulate	Run3	regulate/STIM_002.jpg
1851.046	2.078	correct	regulate	Run3	regulate/STIM_003.jpg
1855.241	0.9	correct	regulate	Run3	regulate/STIM_003.jpg
1858.879	2.018	correct	regulate	Run3	regulate/STIM_003.jpg
1862.93	1.455	correct	regulate	Run3	regulate/STIM_003.jpg
1868.249	1.474	correct	regulate	Run3	regulate/STIM_004.jpg
1872.569	1.662	correct	regulate	Run3	regulate/STIM_004.jpg
1877.885	1.38	correct	regulate	Run3	regulate/STIM_004.jpg
1881.843	1.922	correct	regulate	Run3	regulate/STIM_004.jpg
1886.029	1.974	correct	regulate	Run3	regulate/STIM_005.jpg
1890.239	1.612	correct	regulate	Run3	regulate/STIM_005.jpg
1895.526	2.049	correct	regulate	Run3	regulate/STIM_005.jpg
1900.843	1.048	correct	regulate	Run3	regulate/STIM_005.jpg
1904.297	1.592	incorrect	regulate	Run3	regulate/STIM_006.jpg
1909.466	1.309	correct	regulate	Run3	regulate/STIM_006.jpg
1914.745	1.913	correct	regulate	Run3	regulate/STIM_006.jpg
1920.303	1.694	correct	regulate	Run3	regulate/STIM_006.jpg
1924.72	1.44	correct	regulate	Run3	regulate/STIM_007.jpg
1929.81	1.65	correct	regulate	Run3	regulate/STIM_007.jpg
1933.486	1.088	correct	regulate	Run3	regulate/STIM_007.jpg
1938.074	1.821	correct	regulate	Run3	regulate/STIM_007.jpg
1942.229	1.018	incorrect	regulate	Run3	regulate/STIM_008.jpg
1947.229	1.242	correct	regulate	Run3	regulate/STIM_008.jpg
1950.648	1.742	correct	regulate	Run3	regulate/STIM_008.jpg
1954.896	1.456	correct	regulate	Run3	regulate/STIM_008.jpg
1959.673	0.895	correct	regulate	Run3	regulate/STIM_009.jpg
1964.441	1.553	incorrect	regulate	Run3	regulate/STIM_009.jpg
1969.178	1.854	incorrect	regulate	Run3	regulate/STIM_009.jpg
1974.047	1.705	correct	regulate	Run3	regulate/STIM_009.jpg
1978.737	2.022	correct	regulate	Run3	regulate/STIM_010.jpg
1983.655	1.402	correct	regulate	Run3	regulate/STIM_010.jpg
1987.397	1.401	correct	regulate	Run3	regulate/STIM_010.jpg
1991.978	1.389	correct	regulate	Run3	regulate/STIM_010.jpg
1995.649	1.994	correct	regulate	Run3	regulate/STIM_011.jpg
2000.923	1.572	correct	regulate	Run3	regulate/STIM_011.jpg
2005.778	1.051	correct	regulate	Run3	regulate/STIM_011.jpg
2010.637	1.29	correct	regulate	Run3	regulate/STIM_011.jpg
2015.059	0.932	correct	regulate	Run3	regulate/STIM_012.jpg
2018.105	1.998	correct	regulate	Run3	regulate/STIM_012.jpg
2022.123	0.922	incorrect	regulate	Run3	regulate/STIM_012.jpg
2025.254	0.905	correct	regulate	Run3	regulate/STIM_012.jpg
2028.935	0.902	correct	regulate	Run3	regulate/STIM_013.jpg
2032.185	1.092	correct	regulate	Run3	regulate/STIM_013.jpg
2035.686	0.993	correct	regulate	Run3	regulate/STIM_013.jpg
2040.244	1.745	correct	regulate	Run3	regulate/STIM_013.jpg
2045.327	1.051	correct	regulate	Run3	regulate/STIM_014.jpg
2049.018	1.932	correct	regulate	Run3	regulate/STIM_014.jpg
2053.993	1.553	correct	regulate	Run3	regulate/STIM_014.jpg
2059.078	1.663	correct	regulate	Run3	regulate/STIM_014.jpg
2063.539	1.047	incorrect	regulate	Run3	regulate/STIM_015.jpg
2066.801	2.033	correct	regulate	Run3	regulate/STIM_015.jpg
2070.953	1.532	correct	regulate	Run3	regulate/STIM_015.jpg
2076.445	1.197	correct	regulate	Run3	regulate/STIM_015.jpg
2081.587	0.966	correct	regulate	Run3	regulate/STIM_016.jpg
2085.844	1.996	correct	regulate	Run3	regulate/STIM_016.jpg
2090.951	1.116	correct	regulate	Run3	regulate/STIM_016.jpg
2094.325	0.938	correct	regulate	Run3	regulate/STIM_016.jpg
2097.829	1.704	correct	regulate	Run3	regulate/STIM_017.jpg
2101.58	0.971	correct	regulate	Run3	regulate/STIM_017.jpg
2105.319	1.417	correct	regulate	Run3	regulate/STIM_017.jpg
2110.343	1.565	correct	regulate	Run3	regulate/STIM_017.jpg
2115.387	1.158	correct	regulate	Run3	regulate/STIM_018.jpg
2119.327	1.009	correct	regulate	Run3	regulate/STIM_018.jpg
2122.662	1.668	correct	regulate	Run3	regulate/STIM_018.jpg
2127.066	1.512	correct	regulate	Run3	regulate/STIM_018.jpg
2130.779	1.359	correct	regulate	Run3	regulate/STIM_019.jpg
2135.46	2.048	correct	regulate	Run3	regulate/STIM_019.jpg
2140.484	1.555	correct	regulate	Run3	regulate/STIM_019.jpg
2144.841	1.96	correct	regulate	Run3	regulate/STIM_019.jpg
2148.867	1.788	correct	regulate	Run3	regulate/STIM_020.jpg
2152.687	1.506	incorrect	regulate	Run3	regulate/STIM_020.jpg
2156.817	1.498	correct	regulate	Run3	regulate/STIM_020.jpg
2161.681	1.145	correct	regulate	Run3	regulate/STIM_020.jpg
2165.625	1.325	incorrect	regulate	Run3	regulate/STIM_021.jpg
2169.078	1.456	correct	regulate	Run3	regulate/STIM_021.jpg
2173.078	1.605	incorrect	regulate	Run3	regulate/STIM_021.jpg
2178.003	1.475	incorrect	regulate	Run3	regulate/STIM_021.jpg
2182.547	1.943	correct	regulate	Run3	regulate/STIM_022.jpg
2188.232	1.244	correct	regulate	Run3	regulate/STIM_022.jpg
2191.771	1.346	correct	regulate	Run3	regulate/STIM_022.jpg
2195.383	2.052	correct	regulate	Run3	regulate/STIM_022.jpg
2200.277	1.529	incorrect	regulate	Run3	regulate/STIM_023.jpg
2204.205	1.231	correct	regulate	Run3	regulate/STIM_023.jpg
2209.368	1.578	correct	regulate	Run3	regulate/STIM_023.jpg
2214.034	1.194	correct	regulate	Run3	regulate/STIM_023.jpg
2219.199	1.936	correct	regulate	Run3	regulate/STIM_024.jpg
2224.568	1.948	correct	regulate	Run3	regulate/STIM_024.jpg
2229.64	0.987	incorrect	regulate	Run3	regulate/STIM_024.jpg
2233.282	2.04	correct	regulate	Run3	regulate/STIM_024.jpg
2238.665	1.751	correct	regulate	Run3	regulate/STIM_025.jpg
2243.719	1.74	correct	regulate	Run3	regulate/STIM_025.jpg
2248.106	2.017	correct	regulate	Run3	regulate/STIM_025.jpg
2252.289	1.635	incorrect	regulate	Run3	regulate/STIM_025.jpg
2256.425	1.437	correct	regulate	Run3	regulate/STIM_026.jpg
2260.183	1.793	correct	regulate	Run3	regulate/STIM_026.jpg
2264.18	1.42	correct	regulate	Run3	regulate/STIM_026.jpg
2269.478	1.53	correct	regulate	Run3	regulate/STIM_026.jpg
2273.293	1.303	correct	regulate	Run3	regulate/STIM_027.jpg
2277.271	1.865	correct	regulate	Run3	regulate/STIM_027.jpg
2281.3	1.33	correct	regulate	Run3	regulate/STIM_027.jpg
2285.581	1.647	correct	regulate	Run3	regulate/STIM_027.jpg
2290.563	0.913	correct	regulate	Run3	regulate/STIM_028.jpg
2294.636	1.371	correct	regulate	Run3	regulate/STIM_028.jpg
2298.945	1.638	correct	regulate	Run3	regulate/STIM_028.jpg
2304.362	1.779	correct	regulate	Run3	regulate/STIM_028.jpg
2308.831	1.482	correct	regulate	Run3	regulate/STIM_029.jpg
2312.387	1.546	correct	regulate	Run3	regulate/STIM_029.jpg
2316.002	1.889	incorrect	regulate	Run3	regulate/STIM_029.jpg
2320.623	1.493	correct	regulate	Run3	regulate/STIM_029.jpg
2325.681	1.295	correct	observe	Run3	observe/STIM_000.jpg
2330.7	1.27	correct	observe	Run3	observe/STIM_000.jpg
2335.717	0.699	correct	observe	Run3	observe/STIM_000.jpg
2340.241	0.971	correct	observe	Run3	observe/STIM_000.jpg
2343.79	1.0	correct	observe	Run3	observe/STIM_001.jpg
2347.675	0.977	correct	observe	Run3	observe/STIM_001.jpg
2351.752	0.704	incorrect	observe	Run3	observe/STIM_001.jpg
2355.017	1.097	correct	observe	Run3	observe/STIM_001.jpg
2358.679	1.153	incorrect	observe	Run3	observe/STIM_002.jpg
2362.294	1.32	correct	observe	Run3	observe/STIM_002.jpg
2367.1	0.747	correct	observe	Run3	observe/STIM_002.jpg
2370.189	1.162	correct	observe	Run3	observe/STIM_002.jpg
2373.63	1.136	correct	observe	Run3	observe/STIM_003.jpg
2378.759	0.888	incorrect	observe	Run3	observe/STIM_003.jpg
2383.019	1.34	correct	observe	Run3	observe/STIM_003.jpg
2387.164	1.03	correct	observe	Run3	observe/STIM_003.jpg
2390.221	0.962	correct	observe	Run3	observe/STIM_004.jpg
2395.018	1.254	correct	observe	Run3	observe/STIM_004.jpg
2398.577	1.238	correct	observe	Run3	observe/STIM_004.jpg
2403.726	1.0	correct	observe	Run3	observe/STIM_004.jpg
2407.056	1.158	correct	observe	Run3	observe/STIM_005.jpg
2411.598	0.743	correct	observe	Run3	observe/STIM_005.jpg
2415.911	1.22	incorrect	observe	Run3	observe/STIM_005.jpg
2419.944	1.305	correct	observe	Run3	observe/STIM_005.jpg
2425.245	0.871	correct	observe	Run3	observe/STIM_006.jpg
2429.997	1.028	correct	observe	Run3	observe/STIM_006.jpg
2433.851	1.097	correct	observe	Run3	observe/STIM_006.jpg
2437.21	1.201	incorrect	observe	Run3	observe/STIM_006.jpg
2442.193	0.995	incorrect	observe	Run3	observe/STIM_007.jpg
2445.944	1.092	correct	observe	Run3	observe/STIM_007.jpg
2449.548	1.12	correct	observe	Run3	observe/STIM_007.jpg
2454.302	0.837	incorrect	observe	Run3	observe/STIM_007.jpg
2457.197	1.343	correct	observe	Run3	observe/STIM_008.jpg
2461.468	1.266	correct	observe	Run3	observe/STIM_008.jpg
2466.239	0.928	correct	observe	Run3	observe/STIM_008.jpg
2470.018	1.229	incorrect	observe	Run3	observe/STIM_008.jpg
2473.921	1.306	correct	observe	Run3	observe/STIM_009.jpg
2478.623	0.896	incorrect	observe	Run3	observe/STIM_009.jpg
2481.82	1.028	correct	observe	Run3	observe/STIM_009.jpg
2485.73	1.188	correct	observe	Run3	observe/STIM_009.jpg
2490.017	0.936	correct	observe	Run3	observe/STIM_010.jpg
2493.198	0.688	incorrect	observe	Run3	observe/STIM_010.jpg
2496.934	0.706	correct	observe	Run3	observe/STIM_010.jpg
2499.917	1.0	correct	observe	Run3	observe/STIM_010.jpg
2504.393	0.86	correct	observe	Run3	observe/STIM_011.jpg
2509.204	1.204	incorrect	observe	Run3	observe/STIM_011.jpg
2512.846	1.063	incorrect	observe	Run3	observe/STIM_011.jpg
2517.826	1.252	incorrect	observe	Run3	observe/STIM_011.jpg
2521.654	0.995	correct	observe	Run3	observe/STIM_012.jpg
2526.596	0.874	correct	observe	Run3	observe/STIM_012.jpg
2529.614	1.122	correct	observe	Run3	observe/STIM_012.jpg
2533.414	1.342	correct	observe	Run3	observe/STIM_012.jpg
2537.078	1.349	incorrect	observe	Run3	observe/STIM_013.jpg
2541.37	0.72	correct	observe	Run3	observe/STIM_013.jpg
2544.317	1.241	correct	observe	Run3	observe/STIM_013.jpg
2549.357	1.14	correct	observe	Run3	observe/STIM_013.jpg
2553.784	0.946	correct	observe	Run3	observe/STIM_014.jpg
2557.037	1.134	correct	observe	Run3	observe/STIM_014.jpg
2561.739	0.813	correct	observe	Run3	observe/STIM_014.jpg
2566.477	0.843	correct	observe	Run3	observe/STIM_014.jpg
2570.665	0.839	correct	observe	Run3	observe/STIM_015.jpg
2573.534	0.908	correct	observe	Run3	observe/STIM_015.jpg
2578.29	0.987	correct	observe	Run3	observe/STIM_015.jpg
2582.267	1.113	correct	observe	Run3	observe/STIM_015.jpg
2587.186	0.728	correct	observe	Run3	observe/STIM_016.jpg
2591.604	1.02	correct	observe	Run3	observe/STIM_016.jpg
2595.358	0.937	correct	observe	Run3	observe/STIM_016.jpg
2598.807	1.001	correct	observe	Run3	observe/STIM_016.jpg
2602.68	1.162	correct	observe	Run3	observe/STIM_017.jpg
2607.283	1.302	correct	observe	Run3	observe/STIM_017.jpg
2611.942	0.989	correct	observe	Run3	observe/STIM_017.jpg
2616.853	1.243	correct	observe	Run3	observe/STIM_017.jpg
2621.857	1.018	correct	observe	Run3	observe/STIM_018.jpg
2625.251	0.879	correct	observe	Run3	observe/STIM_018.jpg
2628.194	1.056	incorrect	observe	Run3	observe/STIM_018.jpg
2631.455	1.269	correct	observe	Run3	observe/STIM_018.jpg
2634.957	1.165	correct	observe	Run3	observe/STIM_019.jpg
2638.735	1.047	correct	observe	Run3	observe/STIM_019.jpg
2643.301	0.915	correct	observe	Run3	observe/STIM_019.jpg
2646.847	0.709	correct	observe	Run3	observe/STIM_019.jpg
