onset	duration	accuracy_binary	trial_type	learning_stage	stimulus
0.0	5.198	0	navigation	Trial1	navigation/STIM_000.jpg
7.992	4.922	1	navigation	Trial1	navigation/STIM_000.jpg
15.776	4.962	1	navigation	Trial1	navigation/STIM_000.jpg
23.779	4.519	1	navigation	Trial1	navigation/STIM_000.jpg
30.157	4.237	1	navigation	Trial1	navigation/STIM_000.jpg
37.223	2.664	1	navigation	Trial1	navigation/STIM_000.jpg
41.941	3.561	1	navigation	Trial1	navigation/STIM_001.jpg
47.772	3.792	1	navigation	Trial1	navigation/STIM_001.jpg
53.299	3.304	1	navigation	Trial1	navigation/STIM_001.jpg
60.147	2.315	1	navigation	Trial1	navigation/STIM_001.jpg
64.346	4.261	1	navigation	Trial1	navigation/STIM_001.jpg
70.772	4.132	1	navigation	Trial1	navigation/STIM_001.jpg
77.663	2.337	0	navigation	Trial1	navigation/STIM_002.jpg
81.888	4.804	1	navigation	Trial1	navigation/STIM_002.jpg
88.204	2.414	1	navigation	Trial1	navigation/STIM_002.jpg
92.552	2.785	1	navigation	Trial1	navigation/STIM_002.jpg
98.187	3.919	1	navigation	Trial1	navigation/STIM_002.jpg
104.949	1.842	1	navigation	Trial1	navigation/STIM_002.jpg
109.359	5.29	0	navigation	Trial1	navigation/STIM_003.jpg
117.636	3.26	0	navigation	Trial1	navigation/STIM_003.jpg
124.219	2.1	1	navigation	Trial1	navigation/STIM_003.jpg
129.993	3.458	0	navigation	Trial1	navigation/STIM_003.jpg
136.136	3.383	1	navigation	Trial1	navigation/STIM_003.jpg
141.472	4.047	1	navigation	Trial1	navigation/STIM_003.jpg
147.307	2.255	1	navigation	Trial1	navigation/STIM_004.jpg
152.57	2.229	1	navigation	Trial1	navigation/STIM_004.jpg
156.859	4.684	0	navigation	Trial1	navigation/STIM_004.jpg
163.826	3.564	1	navigation	Trial1	navigation/STIM_004.jpg
170.632	2.377	0	navigation	Trial1	navigation/STIM_004.jpg
175.322	2.742	1	navigation	Trial1	navigation/STIM_004.jpg
180.684	3.278	1	navigation	Trial1	navigation/STIM_005.jpg
186.71	4.466	0	navigation	Trial1	navigation/STIM_005.jpg
193.732	2.124	1	navigation	Trial1	navigation/STIM_005.jpg
197.922	3.158	1	navigation	Trial1	navigation/STIM_005.jpg
202.791	3.806	1	navigation	Trial1	navigation/STIM_005.jpg
209.005	3.577	0	navigation	Trial1	navigation/STIM_005.jpg
214.402	4.744	1	navigation	Trial1	navigation/STIM_006.jpg
221.948	4.818	1	navigation	Trial1	navigation/STIM_006.jpg
229.753	2.546	1	navigation	Trial1	navigation/STIM_006.jpg
234.078	1.988	1	navigation	Trial1	navigation/STIM_006.jpg
238.594	4.069	1	navigation	Trial1	navigation/STIM_006.jpg
244.26	2.935	1	navigation	Trial1	navigation/STIM_006.jpg
250.67	2.93	1	navigation	Trial1	navigation/STIM_007.jpg
256.536	4.283	1	navigation	Trial1	navigation/STIM_007.jpg
263.746	3.654	1	navigation	Trial1	navigation/STIM_007.jpg
270.717	2.501	1	navigation	Trial1	navigation/STIM_007.jpg
276.114	2.368	0	navigation	Trial1	navigation/STIM_007.jpg
281.658	3.826	0	navigation	Trial1	navigation/STIM_007.jpg
287.851	3.898	1	navigation	Trial1	navigation/STIM_008.jpg
293.683	4.718	1	navigation	Trial1	navigation/STIM_008.jpg
301.67	2.506	1	navigation	Trial1	navigation/STIM_008.jpg
307.643	3.881	1	navigation	Trial1	navigation/STIM_008.jpg
314.474	2.036	1	navigation	Trial1	navigation/STIM_008.jpg
319.1	4.074	1	navigation	Trial1	navigation/STIM_008.jpg
326.099	2.954	1	navigation	Trial1	navigation/STIM_009.jpg
332.687	2.17	1	navigation	Trial1	navigation/STIM_009.jpg
337.577	4.477	0	navigation	Trial1	navigation/STIM_009.jpg
344.184	2.507	0	navigation	Trial1	navigation/STIM_009.jpg
349.405	4.144	0	navigation	Trial1	navigation/STIM_009.jpg
356.926	2.004	1	navigation	Trial1	navigation/STIM_009.jpg
362.107	4.917	0	navigation	Trial1	navigation/STIM_010.jpg
369.012	4.078	1	navigation	Trial1	navigation/STIM_010.jpg
375.267	3.649	1	navigation	Trial1	navigation/STIM_010.jpg
380.626	3.353	0	navigation	Trial1	navigation/STIM_010.jpg
386.243	3.234	1	navigation	Trial1	navigation/STIM_010.jpg
391.889	1.924	1	navigation	Trial1	navigation/STIM_010.jpg
396.241	5.054	1	navigation	Trial1	navigation/STIM_011.jpg
403.162	3.821	1	navigation	Trial1	navigation/STIM_011.jpg
409.238	4.308	1	navigation	Trial1	navigation/STIM_011.jpg
416.857	2.433	1	navigation	Trial1	navigation/STIM_011.jpg
422.417	4.418	1	navigation	Trial1	navigation/STIM_011.jpg
430.063	2.458	1	navigation	Trial1	navigation/STIM_011.jpg
434.702	1.124	1	pointing	Trial1	pointing/STIM_000.jpg
439.306	1.504	1	pointing	Trial1	pointing/STIM_000.jpg
443.609	1.344	0	pointing	Trial1	pointing/STIM_000.jpg
447.395	1.62	1	pointing	Trial1	pointing/STIM_000.jpg
451.689	1.654	1	pointing	Trial1	pointing/STIM_000.jpg
456.468	1.551	0	pointing	Trial1	pointing/STIM_000.jpg
459.858	1.286	1	pointing	Trial1	pointing/STIM_001.jpg
463.492	1.116	1	pointing	Trial1	pointing/STIM_001.jpg
467.125	1.111	1	pointing	Trial1	pointing/STIM_001.jpg
470.762	0.918	1	pointing	Trial1	pointing/STIM_001.jpg
474.333	1.497	0	pointing	Trial1	pointing/STIM_001.jpg
479.56	1.051	1	pointing	Trial1	pointing/STIM_001.jpg
484.095	1.142	1	pointing	Trial1	pointing/STIM_002.jpg
489.042	1.107	1	pointing	Trial1	pointing/STIM_002.jpg
493.098	1.108	1	pointing	Trial1	pointing/STIM_002.jpg
497.129	1.18	1	pointing	Trial1	pointing/STIM_002.jpg
501.606	1.136	1	pointing	Trial1	pointing/STIM_002.jpg
506.42	1.502	1	pointing	Trial1	pointing/STIM_002.jpg
511.743	1.414	1	pointing	Trial1	pointing/STIM_003.jpg
515.608	1.508	1	pointing	Trial1	pointing/STIM_003.jpg
520.724	1.339	1	pointing	Trial1	pointing/STIM_003.jpg
524.888	1.464	1	pointing	Trial1	pointing/STIM_003.jpg
530.167	1.486	1	pointing	Trial1	pointing/STIM_003.jpg
535.341	1.473	1	pointing	Trial1	pointing/STIM_003.jpg
539.371	1.443	1	pointing	Trial1	pointing/STIM_004.jpg
542.986	1.075	1	pointing	Trial1	pointing/STIM_004.jpg
546.503	1.145	0	pointing	Trial1	pointing/STIM_004.jpg
550.177	1.293	1	pointing	Trial1	pointing/STIM_004.jpg
553.677	0.951	1	pointing	Trial1	pointing/STIM_004.jpg
557.183	1.657	1	pointing	Trial1	pointing/STIM_004.jpg
561.589	1.401	1	pointing	Trial1	pointing/STIM_005.jpg
566.191	1.181	1	pointing	Trial1	pointing/STIM_005.jpg
569.946	1.284	1	pointing	Trial1	pointing/STIM_005.jpg
574.743	1.46	1	pointing	Trial1	pointing/STIM_005.jpg
578.311	1.668	1	pointing	Trial1	pointing/STIM_005.jpg
583.488	1.375	1	pointing	Trial1	pointing/STIM_005.jpg
586.847	1.443	1	pointing	Trial1	pointing/STIM_006.jpg
591.709	0.978	1	pointing	Trial1	pointing/STIM_006.jpg
596.468	1.529	1	pointing	Trial1	pointing/STIM_006.jpg
600.401	1.304	1	pointing	Trial1	pointing/STIM_006.jpg
604.942	1.092	1	pointing	Trial1	pointing/STIM_006.jpg
608.641	1.488	1	pointing	Trial1	pointing/STIM_006.jpg
612.26	1.609	1	pointing	Trial1	pointing/STIM_007.jpg
617.313	1.602	1	pointing	Trial1	pointing/STIM_007.jpg
621.902	1.262	1	pointing	Trial1	pointing/STIM_007.jpg
626.528	1.165	1	pointing	Trial1	pointing/STIM_007.jpg
630.099	1.086	1	pointing	Trial1	pointing/STIM_007.jpg
634.91	1.526	1	pointing	Trial1	pointing/STIM_007.jpg
638.781	0.947	1	pointing	Trial1	pointing/STIM_008.jpg
642.674	1.327	1	pointing	Trial1	pointing/STIM_008.jpg
646.935	1.399	0	pointing	Trial1	pointing/STIM_008.jpg
651.906	1.653	1	pointing	Trial1	pointing/STIM_008.jpg
656.225	1.426	1	pointing	Trial1	pointing/STIM_008.jpg
660.617	1.394	1	pointing	Trial1	pointing/STIM_008.jpg
665.337	1.068	0	pointing	Trial1	pointing/STIM_009.jpg
670.158	0.924	1	pointing	Trial1	pointing/STIM_009.jpg
673.067	1.188	1	pointing	Trial1	pointing/STIM_009.jpg
676.961	1.471	1	pointing	Trial1	pointing/STIM_009.jpg
681.26	1.55	1	pointing	Trial1	pointing/STIM_009.jpg
684.79	1.624	1	pointing	Trial1	pointing/STIM_009.jpg
689.059	1.059	1	pointing	Trial1	pointing/STIM_010.jpg
692.393	1.597	1	pointing	Trial1	pointing/STIM_010.jpg
696.307	1.409	1	pointing	Trial1	pointing/STIM_010.jpg
700.37	1.004	0	pointing	Trial1	pointing/STIM_010.jpg
704.556	1.449	1	pointing	Trial1	pointing/STIM_010.jpg
709.488	1.162	1	pointing	Trial1	pointing/STIM_010.jpg
714.479	1.64	0	pointing	Trial1	pointing/STIM_011.jpg
719.61	1.623	1	pointing	Trial1	pointing/STIM_011.jpg
723.331	0.908	1	pointing	Trial1	pointing/STIM_011.jpg
726.601	1.431	1	pointing	Trial1	pointing/STIM_011.jpg
731.161	1.384	1	pointing	Trial1	pointing/STIM_011.jpg
735.139	1.091	1	pointing	Trial1	pointing/STIM_011.jpg
738.805	2.502	1	navigation	Trial2	navigation/STIM_000.jpg
744.334	4.289	1	navigation	Trial2	navigation/STIM_000.jpg
750.434	4.018	1	navigation	Trial2	navigation/STIM_000.jpg
756.172	2.754	1	navigation	Trial2	navigation/STIM_000.jpg
762.367	2.03	0	navigation	Trial2	navigation/STIM_000.jpg
766.491	2.678	1	navigation	Trial2	navigation/STIM_000.jpg
771.904	3.221	1	navigation	Trial2	navigation/STIM_001.jpg
778.768	3.909	1	navigation	Trial2	navigation/STIM_001.jpg
785.397	1.851	1	navigation	Trial2	navigation/STIM_001.jpg
789.859	1.602	1	navigation	Trial2	navigation/STIM_001.jpg
793.668	2.379	1	navigation	Trial2	navigation/STIM_001.jpg
799.33	2.913	0	navigation	Trial2	navigation/STIM_001.jpg
804.478	1.925	1	navigation	Trial2	navigation/STIM_002.jpg
809.616	2.101	0	navigation	Trial2	navigation/STIM_002.jpg
814.377	3.532	1	navigation	Trial2	navigation/STIM_002.jpg
821.294	1.664	1	navigation	Trial2	navigation/STIM_002.jpg
826.185	3.679	1	navigation	Trial2	navigation/STIM_002.jpg
832.128	2.262	1	navigation	Trial2	navigation/STIM_002.jpg
836.219	2.474	0	navigation	Trial2	navigation/STIM_003.jpg
840.891	3.464	1	navigation	Trial2	navigation/STIM_003.jpg
847.92	3.567	1	navigation	Trial2	navigation/STIM_003.jpg
854.406	2.236	1	navigation	Trial2	navigation/STIM_003.jpg
860.108	2.347	1	navigation	Trial2	navigation/STIM_003.jpg
864.513	2.918	1	navigation	Trial2	navigation/STIM_003.jpg
869.543	3.006	1	navigation	Trial2	navigation/STIM_004.jpg
874.975	2.982	0	navigation	Trial2	navigation/STIM_004.jpg
879.721	3.968	0	navigation	Trial2	navigation/STIM_004.jpg
886.641	2.334	0	navigation	Trial2	navigation/STIM_004.jpg
891.911	1.671	1	navigation	Trial2	navigation/STIM_004.jpg
895.835	3.511	0	navigation	Trial2	navigation/STIM_004.jpg
901.009	4.51	1	navigation	Trial2	navigation/STIM_005.jpg
908.277	2.801	1	navigation	Trial2	navigation/STIM_005.jpg
912.821	3.11	1	navigation	Trial2	navigation/STIM_005.jpg
918.023	3.023	1	navigation	Trial2	navigation/STIM_005.jpg
924.633	2.278	1	navigation	Trial2	navigation/STIM_005.jpg
930.078	2.176	1	navigation	Trial2	navigation/STIM_005.jpg
934.283	2.415	1	navigation	Trial2	navigation/STIM_006.jpg
939.813	2.415	1	navigation	Trial2	navigation/STIM_006.jpg
945.695	3.086	1	navigation	Trial2	navigation/STIM_006.jpg
951.665	3.322	0	navigation	Trial2	navigation/STIM_006.jpg
956.733	2.985	0	navigation	Trial2	navigation/STIM_006.jpg
963.137	2.617	1	navigation	Trial2	navigation/STIM_006.jpg
968.404	3.247	1	navigation	Trial2	navigation/STIM_007.jpg
973.61	4.151	1	navigation	Trial2	navigation/STIM_007.jpg
980.068	1.948	1	navigation	Trial2	navigation/STIM_007.jpg
984.395	2.111	1	navigation	Trial2	navigation/STIM_007.jpg
988.517	3.154	1	navigation	Trial2	navigation/STIM_007.jpg
993.565	2.009	1	navigation	Trial2	navigation/STIM_007.jpg
998.248	4.23	1	navigation	Trial2	navigation/STIM_008.jpg
1005.431	3.044	1	navigation	Trial2	navigation/STIM_008.jpg
1010.18	3.473	1	navigation	Trial2	navigation/STIM_008.jpg
1015.813	3.256	0	navigation	Trial2	navigation/STIM_008.jpg
1021.69	2.854	1	navigation	Trial2	navigation/STIM_008.jpg
1027.341	2.122	1	navigation	Trial2	navigation/STIM_008.jpg
1032.73	3.23	0	navigation	Trial2	navigation/STIM_009.jpg
1038.547	4.14	1	navigation	Trial2	navigation/STIM_009.jpg
1046.143	3.407	1	navigation	Trial2	navigation/STIM_009.jpg
1052.995	2.268	1	navigation	Trial2	navigation/STIM_009.jpg
1057.698	2.071	1	navigation	Trial2	navigation/STIM_009.jpg
1061.665	2.676	1	navigation	Trial2	navigation/STIM_009.jpg
1066.768	4.059	1	navigation	Trial2	navigation/STIM_010.jpg
1073.145	2.788	1	navigation	Trial2	navigation/STIM_010.jpg
1079.608	4.187	1	navigation	Trial2	navigation/STIM_010.jpg
1085.432	2.451	1	navigation	Trial2	navigation/STIM_010.jpg
1090.468	2.383	0	navigation	Trial2	navigation/STIM_010.jpg
1095.417	3.77	1	navigation	Trial2	navigation/STIM_010.jpg
1102.562	3.839	0	navigation	Trial2	navigation/STIM_011.jpg
1109.523	2.854	1	navigation	Trial2	navigation/STIM_011.jpg
1115.146	3.177	0	navigation	Trial2	navigation/STIM_011.jpg
1120.753	2.068	0	navigation	Trial2	navigation/STIM_011.jpg
1125.529	2.069	1	navigation	Trial2	navigation/STIM_011.jpg
1130.183	3.426	1	navigation	Trial2	navigation/STIM_011.jpg
1135.652	1.082	1	pointing	Trial2	pointing/STIM_000.jpg
1139.807	1.155	1	pointing	Trial2	pointing/STIM_000.jpg
1142.941	1.238	1	pointing	Trial2	pointing/STIM_000.jpg
1147.277	1.59	1	pointing	Trial2	pointing/STIM_000.jpg
1150.695	1.407	1	pointing	Trial2	pointing/STIM_000.jpg
1155.589	1.316	1	pointing	Trial2	pointing/STIM_000.jpg
1159.505	1.474	1	pointing	Trial2	pointing/STIM_001.jpg
1163.484	1.599	1	pointing	Trial2	pointing/STIM_001.jpg
1168.835	0.976	1	pointing	Trial2	pointing/STIM_001.jpg
1173.58	1.512	1	pointing	Trial2	pointing/STIM_001.jpg
1178.925	1.159	1	pointing	Trial2	pointing/STIM_001.jpg
1182.42	1.252	1	pointing	Trial2	pointing/STIM_001.jpg
1185.822	1.182	1	pointing	Trial2	pointing/STIM_002.jpg
1190.443	1.604	1	pointing	Trial2	pointing/STIM_002.jpg
1195.086	1.149	1	pointing	Trial2	pointing/STIM_002.jpg
1199.423	1.044	1	pointing	Trial2	pointing/STIM_002.jpg
1203.402	1.605	1	pointing	Trial2	pointing/STIM_002.jpg
1207.082	1.144	1	pointing	Trial2	pointing/STIM_002.jpg
1210.292	1.186	1	pointing	Trial2	pointing/STIM_003.jpg
1213.997	1.18	1	pointing	Trial2	pointing/STIM_003.jpg
1218.126	1.654	1	pointing	Trial2	pointing/STIM_003.jpg
1222.429	1.253	1	pointing	Trial2	pointing/STIM_003.jpg
1227.032	1.551	1	pointing	Trial2	pointing/STIM_003.jpg
1232.245	1.162	1	pointing	Trial2	pointing/STIM_003.jpg
1235.879	1.211	1	pointing	Trial2	pointing/STIM_004.jpg
1239.553	1.668	1	pointing	Trial2	pointing/STIM_004.jpg
1243.905	1.492	1	pointing	Trial2	pointing/STIM_004.jpg
1247.455	1.402	1	pointing	Trial2	pointing/STIM_004.jpg
1251.733	0.975	1	pointing	Trial2	pointing/STIM_004.jpg
1254.727	0.929	1	pointing	Trial2	pointing/STIM_004.jpg
1259.008	1.122	1	pointing	Trial2	pointing/STIM_005.jpg
1263.076	1.466	1	pointing	Trial2	pointing/STIM_005.jpg
1267.052	1.469	1	pointing	Trial2	pointing/STIM_005.jpg
1271.334	1.294	1	pointing	Trial2	pointing/STIM_005.jpg
1275.797	1.318	1	pointing	Trial2	pointing/STIM_005.jpg
1280.659	1.245	1	pointing	Trial2	pointing/STIM_005.jpg
1284.965	1.665	1	pointing	Trial2	pointing/STIM_006.jpg
1288.962	1.229	1	pointing	Trial2	pointing/STIM_006.jpg
1293.72	1.242	1	pointing	Trial2	pointing/STIM_006.jpg
1297.132	1.254	1	pointing	Trial2	pointing/STIM_006.jpg
1300.569	0.994	1	pointing	Trial2	pointing/STIM_006.jpg
1304.622	1.33	1	pointing	Trial2	pointing/STIM_006.jpg
1308.172	1.048	1	pointing	Trial2	pointing/STIM_007.jpg
1311.41	0.979	1	pointing	Trial2	pointing/STIM_007.jpg
1314.736	1.157	1	pointing	Trial2	pointing/STIM_007.jpg
1317.842	1.114	1	pointing	Trial2	pointing/STIM_007.jpg
1321.61	0.93	1	pointing	Trial2	pointing/STIM_007.jpg
1325.171	1.06	1	pointing	Trial2	pointing/STIM_007.jpg
1330.009	1.213	1	pointing	Trial2	pointing/STIM_008.jpg
1334.657	1.336	1	pointing	Trial2	pointing/STIM_008.jpg
1338.777	0.989	1	pointing	Trial2	pointing/STIM_008.jpg
1343.398	0.903	1	pointing	Trial2	pointing/STIM_008.jpg
1346.389	0.93	1	pointing	Trial2	pointing/STIM_008.jpg
1349.509	1.107	0	pointing	Trial2	pointing/STIM_008.jpg
1352.755	1.368	1	pointing	Trial2	pointing/STIM_009.jpg
1357.783	1.471	1	pointing	Trial2	pointing/STIM_009.jpg
1362.624	1.326	1	pointing	Trial2	pointing/STIM_009.jpg
1365.832	1.485	1	pointing	Trial2	pointing/STIM_009.jpg
1370.844	0.906	1	pointing	Trial2	pointing/STIM_009.jpg
1373.709	1.184	1	pointing	Trial2	pointing/STIM_009.jpg
1378.556	1.6	1	pointing	Trial2	pointing/STIM_010.jpg
1383.273	0.973	1	pointing	Trial2	pointing/STIM_010.jpg
1386.345	1.36	1	pointing	Trial2	pointing/STIM_010.jpg
1390.41	1.674	0	pointing	Trial2	pointing/STIM_010.jpg
1395.517	1.544	1	pointing	Trial2	pointing/STIM_010.jpg
1399.2	1.026	1	pointing	Trial2	pointing/STIM_010.jpg
1403.084	1.462	1	pointing	Trial2	pointing/STIM_011.jpg
1406.931	1.462	1	pointing	Trial2	pointing/STIM_011.jpg
1411.93	0.969	1	pointing	Trial2	pointing/STIM_011.jpg
1416.545	1.454	1	pointing	Trial2	pointing/STIM_011.jpg
1420.87	1.489	1	pointing	Trial2	pointing/STIM_011.jpg
1425.271	1.464	1	pointing	Trial2	pointing/STIM_011.jpg
1429.916	3.729	1	navigation	Trial3	navigation/STIM_000.jpg
1437.059	3.839	1	navigation	Trial3	navigation/STIM_000.jpg
1443.843	2.476	1	navigation	Trial3	navigation/STIM_000.jpg
1448.604	3.056	1	navigation	Trial3	navigation/STIM_000.jpg
1453.577	1.764	1	navigation	Trial3	navigation/STIM_000.jpg
1457.576	2.746	1	navigation	Trial3	navigation/STIM_000.jpg
1463.594	3.599	1	navigation	Trial3	navigation/STIM_001.jpg
1469.799	3.038	0	navigation	Trial3	navigation/STIM_001.jpg
1475.209	2.095	1	navigation	Trial3	navigation/STIM_001.jpg
1479.833	2.61	1	navigation	Trial3	navigation/STIM_001.jpg
1485.27	1.943	0	navigation	Trial3	navigation/STIM_001.jpg
1490.798	3.154	1	navigation	Trial3	navigation/STIM_001.jpg
1496.209	2.893	1	navigation	Trial3	navigation/STIM_002.jpg
1502.536	3.247	1	navigation	Trial3	navigation/STIM_002.jpg
1507.47	3.479	1	navigation	Trial3	navigation/STIM_002.jpg
1512.59	2.959	0	navigation	Trial3	navigation/STIM_002.jpg
1517.421	3.054	1	navigation	Trial3	navigation/STIM_002.jpg
1522.346	2.113	1	navigation	Trial3	navigation/STIM_002.jpg
1526.745	3.704	1	navigation	Trial3	navigation/STIM_003.jpg
1532.364	1.8	0	navigation	Trial3	navigation/STIM_003.jpg
1536.668	3.386	1	navigation	Trial3	navigation/STIM_003.jpg
1543.574	3.559	1	navigation	Trial3	navigation/STIM_003.jpg
1550.503	1.904	1	navigation	Trial3	navigation/STIM_003.jpg
1555.311	1.77	1	navigation	Trial3	navigation/STIM_003.jpg
1560.049	3.03	1	navigation	Trial3	navigation/STIM_004.jpg
1566.508	3.806	1	navigation	Trial3	navigation/STIM_004.jpg
1572.288	3.833	1	navigation	Trial3	navigation/STIM_004.jpg
1578.494	1.816	1	navigation	Trial3	navigation/STIM_004.jpg
1583.536	2.115	1	navigation	Trial3	navigation/STIM_004.jpg
1588.837	2.238	1	navigation	Trial3	navigation/STIM_004.jpg
1592.898	3.714	0	navigation	Trial3	navigation/STIM_005.jpg
1598.363	2.656	1	navigation	Trial3	navigation/STIM_005.jpg
1603.471	2.699	1	navigation	Trial3	navigation/STIM_005.jpg
1609.578	3.754	0	navigation	Trial3	navigation/STIM_005.jpg
1615.229	3.354	1	navigation	Trial3	navigation/STIM_005.jpg
1621.554	2.87	1	navigation	Trial3	navigation/STIM_005.jpg
1627.919	2.049	1	navigation	Trial3	navigation/STIM_006.jpg
1632.667	3.345	1	navigation	Trial3	navigation/STIM_006.jpg
1638.404	3.733	1	navigation	Trial3	navigation/STIM_006.jpg
1644.743	1.904	1	navigation	Trial3	navigation/STIM_006.jpg
1649.764	2.146	1	navigation	Trial3	navigation/STIM_006.jpg
1655.43	1.915	0	navigation	Trial3	navigation/STIM_006.jpg
1660.687	3.425	0	navigation	Trial3	navigation/STIM_007.jpg
1666.526	2.301	0	navigation	Trial3	navigation/STIM_007.jpg
1671.024	3.398	1	navigation	Trial3	navigation/STIM_007.jpg
1676.095	2.308	1	navigation	Trial3	navigation/STIM_007.jpg
1681.151	2.959	1	navigation	Trial3	navigation/STIM_007.jpg
1687.555	2.439	1	navigation	Trial3	navigation/STIM_007.jpg
1693.163	2.944	1	navigation	Trial3	navigation/STIM_008.jpg
1698.745	3.927	0	navigation	Trial3	navigation/STIM_008.jpg
1705.625	2.538	1	navigation	Trial3	navigation/STIM_008.jpg
1710.186	3.18	1	navigation	Trial3	navigation/STIM_008.jpg
1716.793	2.246	1	navigation	Trial3	navigation/STIM_008.jpg
1721.106	2.185	1	navigation	Trial3	navigation/STIM_008.jpg
1726.128	2.361	1	navigation	Trial3	navigation/STIM_009.jpg
1731.304	2.283	1	navigation	Trial3	navigation/STIM_009.jpg
1736.1	3.162	1	navigation	Trial3	navigation/STIM_009.jpg
1741.479	1.944	1	navigation	Trial3	navigation/STIM_009.jpg
1746.328	3.714	1	navigation	Trial3	navigation/STIM_009.jpg
1752.699	3.905	1	navigation	Trial3	navigation/STIM_009.jpg
1759.829	2.359	1	navigation	Trial3	navigation/STIM_010.jpg
1764.712	3.309	1	navigation	Trial3	navigation/STIM_010.jpg
1771.448	2.543	1	navigation	Trial3	navigation/STIM_010.jpg
1775.732	2.83	1	navigation	Trial3	navigation/STIM_010.jpg
1782.075	2.023	1	navigation	Trial3	navigation/STIM_010.jpg
1787.752	3.736	1	navigation	Trial3	navigation/STIM_010.jpg
1794.908	1.674	1	navigation	Trial3	navigation/STIM_011.jpg
1799.835	3.443	1	navigation	Trial3	navigation/STIM_011.jpg
1806.316	2.83	1	navigation	Trial3	navigation/STIM_011.jpg
1811.301	2.712	1	navigation	Trial3	navigation/STIM_011.jpg
1816.309	2.346	1	navigation	Trial3	navigation/STIM_011.jpg
1821.181	3.574	1	navigation	Trial3	navigation/STIM_011.jpg
1827.851	1.258	1	pointing	Trial3	pointing/STIM_000.jpg
1831.387	0.962	1	pointing	Trial3	pointing/STIM_000.jpg
1834.268	1.303	1	pointing	Trial3	pointing/STIM_000.jpg
1838.054	1.51	1	pointing	Trial3	pointing/STIM_000.jpg
1842.419	1.623	1	pointing	Trial3	pointing/STIM_000.jpg
1846.736	0.956	1	pointing	Trial3	pointing/STIM_000.jpg
1849.726	1.661	1	pointing	Trial3	pointing/STIM_001.jpg
1854.64	1.503	1	pointing	Trial3	pointing/STIM_001.jpg
1859.555	1.13	1	pointing	Trial3	pointing/STIM_001.jpg
1864.215	1.612	1	pointing	Trial3	pointing/STIM_001.jpg
1867.787	1.314	1	pointing	Trial3	pointing/STIM_001.jpg
1871.951	0.93	1	pointing	Trial3	pointing/STIM_001.jpg
1876.776	1.177	1	pointing	Trial3	pointing/STIM_002.jpg
1881.091	1.062	1	pointing	Trial3	pointing/STIM_002.jpg
1884.048	0.919	1	pointing	Trial3	pointing/STIM_002.jpg
1886.921	1.024	1	pointing	Trial3	pointing/STIM_002.jpg
1889.92	1.572	1	pointing	Trial3	pointing/STIM_002.jpg
1893.481	1.681	1	pointing	Trial3	pointing/STIM_002.jpg
1898.964	1.572	1	pointing	Trial3	pointing/STIM_003.jpg
1902.785	1.044	1	pointing	Trial3	pointing/STIM_003.jpg
1907.672	1.094	1	pointing	Trial3	pointing/STIM_003.jpg
1911.338	1.13	1	pointing	Trial3	pointing/STIM_003.jpg
1914.456	1.357	1	pointing	Trial3	pointing/STIM_003.jpg
1918.593	1.209	1	pointing	Trial3	pointing/STIM_003.jpg
1921.688	1.409	1	pointing	Trial3	pointing/STIM_004.jpg
1925.463	1.079	1	pointing	Trial3	pointing/STIM_004.jpg
1930.308	1.622	1	pointing	Trial3	pointing/STIM_004.jpg
1933.894	1.256	1	pointing	Trial3	pointing/STIM_004.jpg
1937.131	1.489	1	pointing	Trial3	pointing/STIM_004.jpg
1940.511	1.188	1	pointing	Trial3	pointing/STIM_004.jpg
1944.884	1.389	1	pointing	Trial3	pointing/STIM_005.jpg
1949.96	1.003	1	pointing	Trial3	pointing/STIM_005.jpg
1954.568	1.546	0	pointing	Trial3	pointing/STIM_005.jpg
1958.992	1.163	1	pointing	Trial3	pointing/STIM_005.jpg
1963.071	1.058	0	pointing	Trial3	pointing/STIM_005.jpg
1967.814	0.901	1	pointing	Trial3	pointing/STIM_005.jpg
1971.519	1.474	0	pointing	Trial3	pointing/STIM_006.jpg
1975.986	0.996	1	pointing	Trial3	pointing/STIM_006.jpg
1978.901	1.533	1	pointing	Trial3	pointing/STIM_006.jpg
1982.911	1.284	1	pointing	Trial3	pointing/STIM_006.jpg
1987.065	1.013	1	pointing	Trial3	pointing/STIM_006.jpg
1991.582	1.343	1	pointing	Trial3	pointing/STIM_006.jpg
1995.74	1.034	1	pointing	Trial3	pointing/STIM_007.jpg
1999.548	1.485	1	pointing	Trial3	pointing/STIM_007.jpg
2004.468	1.146	0	pointing	Trial3	pointing/STIM_007.jpg
2008.449	1.048	1	pointing	Trial3	pointing/STIM_007.jpg
2011.563	1.587	0	pointing	Trial3	pointing/STIM_007.jpg
2016.564	1.552	1	pointing	Trial3	pointing/STIM_007.jpg
2020.614	1.232	1	pointing	Trial3	pointing/STIM_008.jpg
2025.163	1.189	1	pointing	Trial3	pointing/STIM_008.jpg
2028.874	1.177	1	pointing	Trial3	pointing/STIM_008.jpg
2032.567	1.105	1	pointing	Trial3	pointing/STIM_008.jpg
2036.325	1.4	1	pointing	Trial3	pointing/STIM_008.jpg
2041.031	1.615	1	pointing	Trial3	pointing/STIM_008.jpg
2046.33	1.235	1	pointing	Trial3	pointing/STIM_009.jpg
2050.056	1.541	1	pointing	Trial3	pointing/STIM_009.jpg
2055.18	0.92	1	pointing	Trial3	pointing/STIM_009.jpg
2058.858	1.431	0	pointing	Trial3	pointing/STIM_009.jpg
2064.091	0.909	1	pointing	Trial3	pointing/STIM_009.jpg
2068.855	0.96	1	pointing	Trial3	pointing/STIM_009.jpg
2073.407	0.931	1	pointing	Trial3	pointing/STIM_010.jpg
2076.791	1.288	1	pointing	Trial3	pointing/STIM_010.jpg
2081.682	1.152	1	pointing	Trial3	pointing/STIM_010.jpg
2085.998	1.63	1	pointing	Trial3	pointing/STIM_010.jpg
2090.291	1.328	1	pointing	Trial3	pointing/STIM_010.jpg
2093.619	1.496	1	pointing	Trial3	pointing/STIM_010.jpg
2097.792	0.903	1	pointing	Trial3	pointing/STIM_011.jpg
2102.106	1.569	1	pointing	Trial3	pointing/STIM_011.jpg
2106.455	1.201	1	pointing	Trial3	pointing/STIM_011.jpg
2109.65	0.996	1	pointing	Trial3	pointing/STIM_011.jpg
2113.952	1.632	1	pointing	Trial3	pointing/STIM_011.jpg
2117.517	1.404	1	pointing	Trial3	pointing/STIM_011.jpg
