onset	duration	accuracy	trial_type	learning_stage	stimulus
0.0	3.246	correct	navigation	Trial1	navigation/STIM_000.jpg
5.977	3.645	correct	navigation	Trial1	navigation/STIM_000.jpg
12.867	2.207	correct	navigation	Trial1	navigation/STIM_000.jpg
17.226	2.707	correct	navigation	Trial1	navigation/STIM_000.jpg
23.053	3.524	correct	navigation	Trial1	navigation/STIM_000.jpg
28.937	3.173	correct	navigation	Trial1	navigation/STIM_000.jpg
35.891	4.76	correct	navigation	Trial1	navigation/STIM_001.jpg
43.584	2.786	correct	navigation	Trial1	navigation/STIM_001.jpg
48.725	4.531	correct	navigation	Trial1	navigation/STIM_001.jpg
57.008	2.416	correct	navigation	Trial1	navigation/STIM_001.jpg
62.024	3.501	correct	navigation	Trial1	navigation/STIM_001.jpg
68.832	1.927	correct	navigation	Trial1	navigation/STIM_001.jpg
73.832	5.124	correct	navigation	Trial1	navigation/STIM_002.jpg
82.775	5.06	correct	navigation	Trial1	navigation/STIM_002.jpg
90.872	4.086	correct	navigation	Trial1	navigation/STIM_002.jpg
97.527	3.045	correct	navigation	Trial1	navigation/STIM_002.jpg
103.799	4.048	correct	navigation	Trial1	navigation/STIM_002.jpg
111.413	1.896	correct	navigation	Trial1	navigation/STIM_002.jpg
116.291	3.5	correct	navigation	Trial1	navigation/STIM_003.jpg
123.256	2.666	correct	navigation	Trial1	navigation/STIM_003.jpg
129.477	2.481	correct	navigation	Trial1	navigation/STIM_003.jpg
134.321	1.896	incorrect	navigation	Trial1	navigation/STIM_003.jpg
139.455	3.264	correct	navigation	Trial1	navigation/STIM_003.jpg
145.862	3.235	correct	navigation	Trial1	navigation/STIM_003.jpg
152.079	4.914	correct	navigation	Trial1	navigation/STIM_004.jpg
159.615	4.598	correct	navigation	Trial1	navigation/STIM_004.jpg
167.952	2.262	correct	navigation	Trial1	navigation/STIM_004.jpg
173.405	2.642	correct	navigation	Trial1	navigation/STIM_004.jpg
178.756	4.098	incorrect	navigation	Trial1	navigation/STIM_004.jpg
185.048	1.872	correct	navigation	Trial1	navigation/STIM_004.jpg
190.119	3.044	correct	navigation	Trial1	navigation/STIM_005.jpg
196.377	4.519	correct	navigation	Trial1	navigation/STIM_005.jpg
204.734	2.034	correct	navigation	Trial1	navigation/STIM_005.jpg
209.653	4.103	correct	navigation	Trial1	navigation/STIM_005.jpg
217.167	4.174	correct	navigation	Trial1	navigation/STIM_005.jpg
224.95	1.774	correct	navigation	Trial1	navigation/STIM_005.jpg
230.658	4.682	correct	navigation	Trial1	navigation/STIM_006.jpg
239.313	3.275	correct	navigation	Trial1	navigation/STIM_006.jpg
245.341	4.792	correct	navigation	Trial1	navigation/STIM_006.jpg
253.004	2.376	correct	navigation	Trial1	navigation/STIM_006.jpg
257.953	1.826	correct	navigation	Trial1	navigation/STIM_006.jpg
263.369	3.165	correct	navigation	Trial1	navigation/STIM_006.jpg
268.553	4.743	correct	navigation	Trial1	navigation/STIM_007.jpg
276.059	3.715	correct	navigation	Trial1	navigation/STIM_007.jpg
282.284	2.41	correct	navigation	Trial1	navigation/STIM_007.jpg
287.293	4.496	correct	navigation	Trial1	navigation/STIM_007.jpg
294.483	3.488	correct	navigation	Trial1	navigation/STIM_007.jpg
301.434	3.913	correct	navigation	Trial1	navigation/STIM_007.jpg
308.442	3.427	correct	navigation	Trial1	navigation/STIM_008.jpg
315.733	2.366	correct	navigation	Trial1	navigation/STIM_008.jpg
320.213	4.494	correct	navigation	Trial1	navigation/STIM_008.jpg
327.46	4.424	correct	navigation	Trial1	navigation/STIM_008.jpg
334.982	3.577	correct	navigation	Trial1	navigation/STIM_008.jpg
342.3	3.896	correct	navigation	Trial1	navigation/STIM_008.jpg
349.99	4.681	correct	navigation	Trial1	navigation/STIM_009.jpg
357.32	3.242	correct	navigation	Trial1	navigation/STIM_009.jpg
362.72	2.916	correct	navigation	Trial1	navigation/STIM_009.jpg
368.277	3.643	correct	navigation	Trial1	navigation/STIM_009.jpg
374.896	3.451	correct	navigation	Trial1	navigation/STIM_009.jpg
381.931	3.902	correct	navigation	Trial1	navigation/STIM_009.jpg
389.055	3.384	correct	navigation	Trial1	navigation/STIM_010.jpg
394.502	4.836	correct	navigation	Trial1	navigation/STIM_010.jpg
401.781	4.705	correct	navigation	Trial1	navigation/STIM_010.jpg
409.58	2.862	correct	navigation	Trial1	navigation/STIM_010.jpg
416.112	3.598	correct	navigation	Trial1	navigation/STIM_010.jpg
422.246	2.29	correct	navigation	Trial1	navigation/STIM_010.jpg
427.96	2.549	correct	navigation	Trial1	navigation/STIM_011.jpg
433.624	5.062	correct	navigation	Trial1	navigation/STIM_011.jpg
442.048	2.068	correct	navigation	Trial1	navigation/STIM_011.jpg
447.876	2.917	correct	navigation	Trial1	navigation/STIM_011.jpg
454.455	3.384	correct	navigation	Trial1	navigation/STIM_011.jpg
461.112	4.106	correct	navigation	Trial1	navigation/STIM_011.jpg
468.535	0.896	correct	pointing	Trial1	pointing/STIM_000.jpg
471.534	1.178	correct	pointing	Trial1	pointing/STIM_000.jpg
476.323	1.24	correct	pointing	Trial1	pointing/STIM_000.jpg
481.101	0.948	correct	pointing	Trial1	pointing/STIM_000.jpg
485.346	0.994	correct	pointing	Trial1	pointing/STIM_000.jpg
489.966	1.604	correct	pointing	Trial1	pointing/STIM_000.jpg
494.157	1.595	correct	pointing	Trial1	pointing/STIM_001.jpg
499.117	1.153	correct	pointing	Trial1	pointing/STIM_001.jpg
502.756	1.093	correct	pointing	Trial1	pointing/STIM_001.jpg
506.578	1.628	correct	pointing	Trial1	pointing/STIM_001.jpg
510.498	1.548	correct	pointing	Trial1	pointing/STIM_001.jpg
515.71	1.233	correct	pointing	Trial1	pointing/STIM_001.jpg
520.631	1.111	correct	pointing	Trial1	pointing/STIM_002.jpg
523.907	0.908	correct	pointing	Trial1	pointing/STIM_002.jpg
527.04	1.039	correct	pointing	Trial1	pointing/STIM_002.jpg
531.698	0.908	correct	pointing	Trial1	pointing/STIM_002.jpg
535.7	1.171	correct	pointing	Trial1	pointing/STIM_002.jpg
539.113	1.337	correct	pointing	Trial1	pointing/STIM_002.jpg
543.431	0.963	correct	pointing	Trial1	pointing/STIM_003.jpg
546.677	1.44	correct	pointing	Trial1	pointing/STIM_003.jpg
550.17	1.03	correct	pointing	Trial1	pointing/STIM_003.jpg
553.627	1.052	correct	pointing	Trial1	pointing/STIM_003.jpg
557.917	1.172	correct	pointing	Trial1	pointing/STIM_003.jpg
562.075	1.407	correct	pointing	Trial1	pointing/STIM_003.jpg
565.578	1.142	correct	pointing	Trial1	pointing/STIM_004.jpg
569.938	1.44	correct	pointing	Trial1	pointing/STIM_004.jpg
574.817	1.351	correct	pointing	Trial1	pointing/STIM_004.jpg
579.828	1.618	correct	pointing	Trial1	pointing/STIM_004.jpg
585.254	1.654	correct	pointing	Trial1	pointing/STIM_004.jpg
590.033	1.33	correct	pointing	Trial1	pointing/STIM_004.jpg
593.509	1.208	correct	pointing	Trial1	pointing/STIM_005.jpg
598.55	1.215	correct	pointing	Trial1	pointing/STIM_005.jpg
603.464	1.536	correct	pointing	Trial1	pointing/STIM_005.jpg
607.702	1.251	correct	pointing	Trial1	pointing/STIM_005.jpg
611.688	0.897	correct	pointing	Trial1	pointing/STIM_005.jpg
616.314	1.516	correct	pointing	Trial1	pointing/STIM_005.jpg
620.312	1.487	correct	pointing	Trial1	pointing/STIM_006.jpg
625.524	1.11	correct	pointing	Trial1	pointing/STIM_006.jpg
629.019	1.423	correct	pointing	Trial1	pointing/STIM_006.jpg
634.043	1.156	correct	pointing	Trial1	pointing/STIM_006.jpg
638.33	1.303	correct	pointing	Trial1	pointing/STIM_006.jpg
642.864	1.124	correct	pointing	Trial1	pointing/STIM_006.jpg
646.868	1.554	correct	pointing	Trial1	pointing/STIM_007.jpg
650.839	1.567	correct	pointing	Trial1	pointing/STIM_007.jpg
654.406	1.001	correct	pointing	Trial1	pointing/STIM_007.jpg
659.109	1.187	correct	pointing	Trial1	pointing/STIM_007.jpg
662.723	1.244	correct	pointing	Trial1	pointing/STIM_007.jpg
666.141	1.22	correct	pointing	Trial1	pointing/STIM_007.jpg
669.584	1.218	correct	pointing	Trial1	pointing/STIM_008.jpg
673.85	1.644	correct	pointing	Trial1	pointing/STIM_008.jpg
678.427	1.101	correct	pointing	Trial1	pointing/STIM_008.jpg
683.345	1.13	correct	pointing	Trial1	pointing/STIM_008.jpg
687.891	1.629	correct	pointing	Trial1	pointing/STIM_008.jpg
692.449	1.48	correct	pointing	Trial1	pointing/STIM_008.jpg
697.927	0.909	correct	pointing	Trial1	pointing/STIM_009.jpg
702.823	1.019	correct	pointing	Trial1	pointing/STIM_009.jpg
706.221	1.07	correct	pointing	Trial1	pointing/STIM_009.jpg
710.991	1.435	correct	pointing	Trial1	pointing/STIM_009.jpg
714.48	1.625	correct	pointing	Trial1	pointing/STIM_009.jpg
718.148	1.47	correct	pointing	Trial1	pointing/STIM_009.jpg
722.438	0.939	correct	pointing	Trial1	pointing/STIM_010.jpg
726.735	1.303	correct	pointing	Trial1	pointing/STIM_010.jpg
730.463	1.022	correct	pointing	Trial1	pointing/STIM_010.jpg
734.755	0.992	incorrect	pointing	Trial1	pointing/STIM_010.jpg
739.055	1.364	correct	pointing	Trial1	pointing/STIM_010.jpg
744.172	1.085	correct	pointing	Trial1	pointing/STIM_010.jpg
748.437	1.003	correct	pointing	Trial1	pointing/STIM_011.jpg
752.647	1.301	correct	pointing	Trial1	pointing/STIM_011.jpg
756.145	0.939	correct	pointing	Trial1	pointing/STIM_011.jpg
760.357	1.103	correct	pointing	Trial1	pointing/STIM_011.jpg
764.011	1.313	correct	pointing	Trial1	pointing/STIM_011.jpg
768.705	1.543	correct	pointing	Trial1	pointing/STIM_011.jpg
772.54	2.883	correct	navigation	Trial2	navigation/STIM_000.jpg
777.883	3.95	correct	navigation	Trial2	navigation/STIM_000.jpg
784.943	3.979	correct	navigation	Trial2	navigation/STIM_000.jpg
792.742	2.203	correct	navigation	Trial2	navigation/STIM_000.jpg
797.888	1.667	correct	navigation	Trial2	navigation/STIM_000.jpg
802.105	2.007	correct	navigation	Trial2	navigation/STIM_000.jpg
806.194	2.774	correct	navigation	Trial2	navigation/STIM_001.jpg
812.785	4.192	correct	navigation	Trial2	navigation/STIM_001.jpg
820.897	3.004	correct	navigation	Trial2	navigation/STIM_001.jpg
827.856	3.55	correct	navigation	Trial2	navigation/STIM_001.jpg
834.597	2.862	correct	navigation	Trial2	navigation/STIM_001.jpg
841.2	2.635	correct	navigation	Trial2	navigation/STIM_001.jpg
846.028	2.327	correct	navigation	Trial2	navigation/STIM_002.jpg
851.763	3.75	correct	navigation	Trial2	navigation/STIM_002.jpg
859.275	1.671	correct	navigation	Trial2	navigation/STIM_002.jpg
863.823	2.339	correct	navigation	Trial2	navigation/STIM_002.jpg
869.457	3.057	correct	navigation	Trial2	navigation/STIM_002.jpg
875.341	3.272	correct	navigation	Trial2	navigation/STIM_002.jpg
882.221	1.936	correct	navigation	Trial2	navigation/STIM_003.jpg
887.98	3.737	correct	navigation	Trial2	navigation/STIM_003.jpg
894.761	3.793	correct	navigation	Trial2	navigation/STIM_003.jpg
901.243	3.394	correct	navigation	Trial2	navigation/STIM_003.jpg
907.677	3.221	correct	navigation	Trial2	navigation/STIM_003.jpg
914.266	2.477	correct	navigation	Trial2	navigation/STIM_003.jpg
920.559	2.107	correct	navigation	Trial2	navigation/STIM_004.jpg
926.129	3.814	correct	navigation	Trial2	navigation/STIM_004.jpg
932.265	3.762	correct	navigation	Trial2	navigation/STIM_004.jpg
939.694	3.443	correct	navigation	Trial2	navigation/STIM_004.jpg
945.244	2.957	correct	navigation	Trial2	navigation/STIM_004.jpg
951.008	2.232	correct	navigation	Trial2	navigation/STIM_004.jpg
957.082	4.52	correct	navigation	Trial2	navigation/STIM_005.jpg
964.787	2.594	correct	navigation	Trial2	navigation/STIM_005.jpg
969.779	1.802	correct	navigation	Trial2	navigation/STIM_005.jpg
973.952	2.72	correct	navigation	Trial2	navigation/STIM_005.jpg
979.082	2.207	correct	navigation	Trial2	navigation/STIM_005.jpg
984.947	2.276	correct	navigation	Trial2	navigation/STIM_005.jpg
989.377	4.511	correct	navigation	Trial2	navigation/STIM_006.jpg
997.782	2.497	correct	navigation	Trial2	navigation/STIM_006.jpg
1003.561	2.156	correct	navigation	Trial2	navigation/STIM_006.jpg
1009.143	3.032	correct	navigation	Trial2	navigation/STIM_006.jpg
1015.518	3.191	correct	navigation	Trial2	navigation/STIM_006.jpg
1022.322	1.989	correct	navigation	Trial2	navigation/STIM_006.jpg
1026.484	4.358	correct	navigation	Trial2	navigation/STIM_007.jpg
1034.341	3.954	correct	navigation	Trial2	navigation/STIM_007.jpg
1041.318	2.079	correct	navigation	Trial2	navigation/STIM_007.jpg
1045.909	2.226	correct	navigation	Trial2	navigation/STIM_007.jpg
1051.89	2.399	correct	navigation	Trial2	navigation/STIM_007.jpg
1057.488	1.558	correct	navigation	Trial2	navigation/STIM_007.jpg
1061.448	2.73	correct	navigation	Trial2	navigation/STIM_008.jpg
1066.347	3.735	correct	navigation	Trial2	navigation/STIM_008.jpg
1073.472	2.184	correct	navigation	Trial2	navigation/STIM_008.jpg
1077.695	1.578	correct	navigation	Trial2	navigation/STIM_008.jpg
1082.232	3.874	correct	navigation	Trial2	navigation/STIM_008.jpg
1088.858	1.559	correct	navigation	Trial2	navigation/STIM_008.jpg
1092.785	3.023	correct	navigation	Trial2	navigation/STIM_009.jpg
1097.996	3.276	correct	navigation	Trial2	navigation/STIM_009.jpg
1104.319	2.394	correct	navigation	Trial2	navigation/STIM_009.jpg
1109.417	2.709	correct	navigation	Trial2	navigation/STIM_009.jpg
1114.388	3.685	correct	navigation	Trial2	navigation/STIM_009.jpg
1121.243	1.758	correct	navigation	Trial2	navigation/STIM_009.jpg
1125.425	2.602	correct	navigation	Trial2	navigation/STIM_010.jpg
1130.215	3.888	correct	navigation	Trial2	navigation/STIM_010.jpg
1136.151	3.893	correct	navigation	Trial2	navigation/STIM_010.jpg
1142.671	3.411	correct	navigation	Trial2	navigation/STIM_010.jpg
1149.058	3.399	correct	navigation	Trial2	navigation/STIM_010.jpg
1156.258	1.869	correct	navigation	Trial2	navigation/STIM_010.jpg
1161.706	3.442	correct	navigation	Trial2	navigation/STIM_011.jpg
1167.862	1.994	correct	navigation	Trial2	navigation/STIM_011.jpg
1173.043	3.795	correct	navigation	Trial2	navigation/STIM_011.jpg
1179.63	2.076	correct	navigation	Trial2	navigation/STIM_011.jpg
1183.764	3.159	correct	navigation	Trial2	navigation/STIM_011.jpg
1190.615	1.997	correct	navigation	Trial2	navigation/STIM_011.jpg
1196.115	1.033	correct	pointing	Trial2	pointing/STIM_000.jpg
1199.827	1.144	correct	pointing	Trial2	pointing/STIM_000.jpg
1203.711	1.161	correct	pointing	Trial2	pointing/STIM_000.jpg
1207.081	1.331	correct	pointing	Trial2	pointing/STIM_000.jpg
1210.721	1.355	correct	pointing	Trial2	pointing/STIM_000.jpg
1215.897	1.33	correct	pointing	Trial2	pointing/STIM_000.jpg
1219.788	1.394	correct	pointing	Trial2	pointing/STIM_001.jpg
1224.882	1.23	correct	pointing	Trial2	pointing/STIM_001.jpg
1228.766	1.26	correct	pointing	Trial2	pointing/STIM_001.jpg
1233.93	1.048	correct	pointing	Trial2	pointing/STIM_001.jpg
1238.254	1.425	correct	pointing	Trial2	pointing/STIM_001.jpg
1242.775	1.257	correct	pointing	Trial2	pointing/STIM_001.jpg
1246.61	1.457	correct	pointing	Trial2	pointing/STIM_002.jpg
1250.854	1.206	correct	pointing	Trial2	pointing/STIM_002.jpg
1254.101	1.236	correct	pointing	Trial2	pointing/STIM_002.jpg
1257.867	1.15	correct	pointing	Trial2	pointing/STIM_002.jpg
1261.63	1.41	correct	pointing	Trial2	pointing/STIM_002.jpg
1266.331	1.636	correct	pointing	Trial2	pointing/STIM_002.jpg
1271.409	1.44	correct	pointing	Trial2	pointing/STIM_003.jpg
1275.798	1.522	correct	pointing	Trial2	pointing/STIM_003.jpg
1279.954	1.116	correct	pointing	Trial2	pointing/STIM_003.jpg
1284.656	1.052	correct	pointing	Trial2	pointing/STIM_003.jpg
1288.873	1.322	correct	pointing	Trial2	pointing/STIM_003.jpg
1293.794	1.311	correct	pointing	Trial2	pointing/STIM_003.jpg
1297.116	1.062	correct	pointing	Trial2	pointing/STIM_004.jpg
1300.234	1.343	correct	pointing	Trial2	pointing/STIM_004.jpg
1304.072	1.219	correct	pointing	Trial2	pointing/STIM_004.jpg
1309.036	1.326	correct	pointing	Trial2	pointing/STIM_004.jpg
1313.319	1.087	correct	pointing	Trial2	pointing/STIM_004.jpg
1317.566	1.609	correct	pointing	Trial2	pointing/STIM_004.jpg
1322.355	1.188	correct	pointing	Trial2	pointing/STIM_005.jpg
1325.926	1.539	correct	pointing	Trial2	pointing/STIM_005.jpg
1329.899	1.52	correct	pointing	Trial2	pointing/STIM_005.jpg
1333.898	1.182	correct	pointing	Trial2	pointing/STIM_005.jpg
1338.802	1.502	correct	pointing	Trial2	pointing/STIM_005.jpg
1343.053	1.538	correct	pointing	Trial2	pointing/STIM_005.jpg
1347.445	1.403	correct	pointing	Trial2	pointing/STIM_006.jpg
1352.483	1.593	correct	pointing	Trial2	pointing/STIM_006.jpg
1357.391	1.484	correct	pointing	Trial2	pointing/STIM_006.jpg
1360.896	0.988	correct	pointing	Trial2	pointing/STIM_006.jpg
1364.361	1.571	correct	pointing	Trial2	pointing/STIM_006.jpg
1369.633	1.505	correct	pointing	Trial2	pointing/STIM_006.jpg
1373.621	1.422	correct	pointing	Trial2	pointing/STIM_007.jpg
1377.215	1.368	correct	pointing	Trial2	pointing/STIM_007.jpg
1381.348	0.985	correct	pointing	Trial2	pointing/STIM_007.jpg
1386.308	1.169	correct	pointing	Trial2	pointing/STIM_007.jpg
1390.634	1.237	correct	pointing	Trial2	pointing/STIM_007.jpg
1394.974	1.216	correct	pointing	Trial2	pointing/STIM_007.jpg
1400.142	1.342	correct	pointing	Trial2	pointing/STIM_008.jpg
1404.03	1.357	correct	pointing	Trial2	pointing/STIM_008.jpg
1409.374	1.629	correct	pointing	Trial2	pointing/STIM_008.jpg
1413.843	1.577	correct	pointing	Trial2	pointing/STIM_008.jpg
1418.485	1.655	correct	pointing	Trial2	pointing/STIM_008.jpg
1423.009	1.065	correct	pointing	Trial2	pointing/STIM_008.jpg
1427.27	0.917	correct	pointing	Trial2	pointing/STIM_009.jpg
1430.544	1.452	correct	pointing	Trial2	pointing/STIM_009.jpg
1435.203	1.062	correct	pointing	Trial2	pointing/STIM_009.jpg
1438.719	1.05	correct	pointing	Trial2	pointing/STIM_009.jpg
1442.153	1.662	correct	pointing	Trial2	pointing/STIM_009.jpg
1447.059	1.632	correct	pointing	Trial2	pointing/STIM_009.jpg
1452.39	1.156	correct	pointing	Trial2	pointing/STIM_010.jpg
1455.692	1.288	correct	pointing	Trial2	pointing/STIM_010.jpg
1459.055	1.038	correct	pointing	Trial2	pointing/STIM_010.jpg
1463.718	1.457	correct	pointing	Trial2	pointing/STIM_010.jpg
1467.914	1.122	correct	pointing	Trial2	pointing/STIM_010.jpg
1471.89	1.587	correct	pointing	Trial2	pointing/STIM_010.jpg
1477.273	1.461	correct	pointing	Trial2	pointing/STIM_011.jpg
1481.295	1.247	correct	pointing	Trial2	pointing/STIM_011.jpg
1486.344	1.138	correct	pointing	Trial2	pointing/STIM_011.jpg
1490.858	1.484	correct	pointing	Trial2	pointing/STIM_011.jpg
1494.915	1.261	correct	pointing	Trial2	pointing/STIM_011.jpg
1499.334	1.459	correct	pointing	Trial2	pointing/STIM_011.jpg
1504.57	3.525	correct	navigation	Trial3	navigation/STIM_000.jpg
1511.955	1.741	correct	navigation	Trial3	navigation/STIM_000.jpg
1517.379	2.148	correct	navigation	Trial3	navigation/STIM_000.jpg
1521.558	2.656	correct	navigation	Trial3	navigation/STIM_000.jpg
1528.178	2.947	correct	navigation	Trial3	navigation/STIM_000.jpg
1533.769	2.452	correct	navigation	Trial3	navigation/STIM_000.jpg
1538.441	3.394	correct	navigation	Trial3	navigation/STIM_001.jpg
1544.861	1.744	correct	navigation	Trial3	navigation/STIM_001.jpg
1549.232	1.636	correct	navigation	Trial3	navigation/STIM_001.jpg
1553.71	1.833	correct	navigation	Trial3	navigation/STIM_001.jpg
1557.803	3.028	correct	navigation	Trial3	navigation/STIM_001.jpg
1564.49	2.586	correct	navigation	Trial3	navigation/STIM_001.jpg
1570.351	3.308	correct	navigation	Trial3	navigation/STIM_002.jpg
1577.578	2.699	correct	navigation	Trial3	navigation/STIM_002.jpg
1582.98	3.35	correct	navigation	Trial3	navigation/STIM_002.jpg
1589.037	3.324	correct	navigation	Trial3	navigation/STIM_002.jpg
1596.011	3.394	correct	navigation	Trial3	navigation/STIM_002.jpg
1602.825	2.21	correct	navigation	Trial3	navigation/STIM_002.jpg
1608.369	3.579	correct	navigation	Trial3	navigation/STIM_003.jpg
1615.599	2.922	correct	navigation	Trial3	navigation/STIM_003.jpg
1621.047	3.127	correct	navigation	Trial3	navigation/STIM_003.jpg
1626.691	2.064	correct	navigation	Trial3	navigation/STIM_003.jpg
1632.118	2.845	correct	navigation	Trial3	navigation/STIM_003.jpg
1637.668	2.086	correct	navigation	Trial3	navigation/STIM_003.jpg
1642.835	3.443	correct	navigation	Trial3	navigation/STIM_004.jpg
1649.794	2.651	correct	navigation	Trial3	navigation/STIM_004.jpg
1654.821	3.357	correct	navigation	Trial3	navigation/STIM_004.jpg
1660.971	2.103	correct	navigation	Trial3	navigation/STIM_004.jpg
1667.019	2.128	correct	navigation	Trial3	navigation/STIM_004.jpg
1673.069	1.918	correct	navigation	Trial3	navigation/STIM_004.jpg
1678.0	1.689	correct	navigation	Trial3	navigation/STIM_005.jpg
1681.798	2.879	correct	navigation	Trial3	navigation/STIM_005.jpg
1687.246	2.213	correct	navigation	Trial3	navigation/STIM_005.jpg
1693.018	2.249	correct	navigation	Trial3	navigation/STIM_005.jpg
1698.487	3.862	correct	navigation	Trial3	navigation/STIM_005.jpg
1706.16	1.634	correct	navigation	Trial3	navigation/STIM_005.jpg
1709.795	2.254	correct	navigation	Trial3	navigation/STIM_006.jpg
1715.419	3.039	correct	navigation	Trial3	navigation/STIM_006.jpg
1721.13	1.958	correct	navigation	Trial3	navigation/STIM_006.jpg
1727.067	2.701	correct	navigation	Trial3	navigation/STIM_006.jpg
1732.963	2.793	correct	navigation	Trial3	navigation/STIM_006.jpg
1738.019	3.266	correct	navigation	Trial3	navigation/STIM_006.jpg
1744.143	1.644	correct	navigation	Trial3	navigation/STIM_007.jpg
1748.299	3.304	correct	navigation	Trial3	navigation/STIM_007.jpg
1754.748	2.177	correct	navigation	Trial3	navigation/STIM_007.jpg
1759.722	1.774	correct	navigation	Trial3	navigation/STIM_007.jpg
1765.261	2.65	correct	navigation	Trial3	navigation/STIM_007.jpg
1771.17	2.65	correct	navigation	Trial3	navigation/STIM_007.jpg
1776.483	2.455	correct	navigation	Trial3	navigation/STIM_008.jpg
1782.197	2.182	correct	navigation	Trial3	navigation/STIM_008.jpg
1787.548	2.138	correct	navigation	Trial3	navigation/STIM_008.jpg
1792.07	3.133	correct	navigation	Trial3	navigation/STIM_008.jpg
1799.042	3.418	correct	navigation	Trial3	navigation/STIM_008.jpg
1806.204	3.052	correct	navigation	Trial3	navigation/STIM_008.jpg
1811.707	1.856	correct	navigation	Trial3	navigation/STIM_009.jpg
1815.99	3.597	correct	navigation	Trial3	navigation/STIM_009.jpg
1823.016	1.892	correct	navigation	Trial3	navigation/STIM_009.jpg
1828.353	1.602	correct	navigation	Trial3	navigation/STIM_009.jpg
1833.348	3.689	correct	navigation	Trial3	navigation/STIM_009.jpg
1839.819	2.75	correct	navigation	Trial3	navigation/STIM_009.jpg
1846.145	1.855	correct	navigation	Trial3	navigation/STIM_010.jpg
1850.066	1.677	correct	navigation	Trial3	navigation/STIM_010.jpg
1853.936	1.746	correct	navigation	Trial3	navigation/STIM_010.jpg
1858.191	1.848	correct	navigation	Trial3	navigation/STIM_010.jpg
1863.997	3.816	correct	navigation	Trial3	navigation/STIM_010.jpg
1871.575	2.083	correct	navigation	Trial3	navigation/STIM_010.jpg
1875.966	3.043	correct	navigation	Trial3	navigation/STIM_011.jpg
1881.356	1.563	correct	navigation	Trial3	navigation/STIM_011.jpg
1886.872	2.702	correct	navigation	Trial3	navigation/STIM_011.jpg
1893.36	3.639	correct	navigation	Trial3	navigation/STIM_011.jpg
1899.546	2.347	correct	navigation	Trial3	navigation/STIM_011.jpg
1904.098	3.406	correct	navigation	Trial3	navigation/STIM_011.jpg
1910.205	1.048	correct	pointing	Trial3	pointing/STIM_000.jpg
1913.436	1.498	correct	pointing	Trial3	pointing/STIM_000.jpg
1918.834	1.235	correct	pointing	Trial3	pointing/STIM_000.jpg
1923.127	1.473	correct	pointing	Trial3	pointing/STIM_000.jpg
1926.727	1.092	correct	pointing	Trial3	pointing/STIM_000.jpg
1931.008	1.077	correct	pointing	Trial3	pointing/STIM_000.jpg
1935.864	0.92	correct	pointing	Trial3	pointing/STIM_001.jpg
1938.872	0.928	correct	pointing	Trial3	pointing/STIM_001.jpg
1942.714	1.339	correct	pointing	Trial3	pointing/STIM_001.jpg
1947.091	1.35	correct	pointing	Trial3	pointing/STIM_001.jpg
1951.112	1.312	correct	pointing	Trial3	pointing/STIM_001.jpg
1954.839	1.403	correct	pointing	Trial3	pointing/STIM_001.jpg
1959.279	0.907	correct	pointing	Trial3	pointing/STIM_002.jpg
1963.539	1.21	correct	pointing	Trial3	pointing/STIM_002.jpg
1967.751	1.44	correct	pointing	Trial3	pointing/STIM_002.jpg
1971.585	1.277	correct	pointing	Trial3	pointing/STIM_002.jpg
1976.564	1.556	correct	pointing	Trial3	pointing/STIM_002.jpg
1980.962	1.106	correct	pointing	Trial3	pointing/STIM_002.jpg
1984.233	1.409	correct	pointing	Trial3	pointing/STIM_003.jpg
1988.494	1.496	correct	pointing	Trial3	pointing/STIM_003.jpg
1992.413	1.208	correct	pointing	Trial3	pointing/STIM_003.jpg
1996.822	1.578	correct	pointing	Trial3	pointing/STIM_003.jpg
2002.075	1.269	correct	pointing	Trial3	pointing/STIM_003.jpg
2006.608	1.008	correct	pointing	Trial3	pointing/STIM_003.jpg
2011.03	1.523	correct	pointing	Trial3	pointing/STIM_004.jpg
2015.052	1.059	correct	pointing	Trial3	pointing/STIM_004.jpg
2018.117	1.357	correct	pointing	Trial3	pointing/STIM_004.jpg
2022.144	1.247	correct	pointing	Trial3	pointing/STIM_004.jpg
2026.281	1.238	correct	pointing	Trial3	pointing/STIM_004.jpg
2030.374	0.939	correct	pointing	Trial3	pointing/STIM_004.jpg
2034.268	1.294	correct	pointing	Trial3	pointing/STIM_005.jpg
2037.963	1.541	correct	pointing	Trial3	pointing/STIM_005.jpg
2042.58	1.54	correct	pointing	Trial3	pointing/STIM_005.jpg
2048.112	1.601	correct	pointing	Trial3	pointing/STIM_005.jpg
2051.737	1.014	correct	pointing	Trial3	pointing/STIM_005.jpg
2056.025	0.918	correct	pointing	Trial3	pointing/STIM_005.jpg
2060.345	1.06	correct	pointing	Trial3	pointing/STIM_006.jpg
2063.435	0.974	correct	pointing	Trial3	pointing/STIM_006.jpg
2067.198	1.342	correct	pointing	Trial3	pointing/STIM_006.jpg
2071.247	1.25	correct	pointing	Trial3	pointing/STIM_006.jpg
2075.753	1.087	correct	pointing	Trial3	pointing/STIM_006.jpg
2080.045	1.53	correct	pointing	Trial3	pointing/STIM_006.jpg
2085.129	1.004	correct	pointing	Trial3	pointing/STIM_007.jpg
2089.454	1.256	correct	pointing	Trial3	pointing/STIM_007.jpg
2093.369	1.466	incorrect	pointing	Trial3	pointing/STIM_007.jpg
2098.801	1.007	correct	pointing	Trial3	pointing/STIM_007.jpg
2102.153	1.011	incorrect	pointing	Trial3	pointing/STIM_007.jpg
2105.235	1.362	correct	pointing	Trial3	pointing/STIM_007.jpg
2109.315	1.411	correct	pointing	Trial3	pointing/STIM_008.jpg
2113.466	1.013	correct	pointing	Trial3	pointing/STIM_008.jpg
2116.871	1.655	correct	pointing	Trial3	pointing/STIM_008.jpg
2122.052	1.295	correct	pointing	Trial3	pointing/STIM_008.jpg
2126.706	0.97	correct	pointing	Trial3	pointing/STIM_008.jpg
2131.493	0.987	correct	pointing	Trial3	pointing/STIM_008.jpg
2136.155	1.114	correct	pointing	Trial3	pointing/STIM_009.jpg
2139.361	1.423	correct	pointing	Trial3	pointing/STIM_009.jpg
2143.181	1.608	correct	pointing	Trial3	pointing/STIM_009.jpg
2147.413	1.416	incorrect	pointing	Trial3	pointing/STIM_009.jpg
2152.012	0.886	correct	pointing	Trial3	pointing/STIM_009.jpg
2155.604	1.294	correct	pointing	Trial3	pointing/STIM_009.jpg
2159.141	0.971	correct	pointing	Trial3	pointing/STIM_010.jpg
2162.614	1.486	correct	pointing	Trial3	pointing/STIM_010.jpg
2167.322	0.911	correct	pointing	Trial3	pointing/STIM_010.jpg
2171.332	1.39	correct	pointing	Trial3	pointing/STIM_010.jpg
2175.98	1.338	correct	pointing	Trial3	pointing/STIM_010.jpg
2179.96	1.635	correct	pointing	Trial3	pointing/STIM_010.jpg
2183.677	1.044	correct	pointing	Trial3	pointing/STIM_011.jpg
2188.02	1.217	correct	pointing	Trial3	pointing/STIM_011.jpg
2192.188	1.396	correct	pointing	Trial3	pointing/STIM_011.jpg
2197.271	0.976	correct	pointing	Trial3	pointing/STIM_011.jpg
2201.692	1.485	correct	pointing	Trial3	pointing/STIM_011.jpg
2207.12	1.013	correct	pointing	Trial3	pointing/STIM_011.jpg
