onset	duration	response_time_ms	trial_type	learning_stage	stimulus	response_port
0.0	1.039	1038.8	2back	Block1	2back/STIM_000.jpg	99
5.008	0.896	895.7	2back	Block1	2back/STIM_000.jpg	100
8.349	0.678	678.3	2back	Block1	2back/STIM_000.jpg	99
11.948	0.941	940.8	2back	Block1	2back/STIM_001.jpg	99
15.034	1.008	1007.7	2back	Block1	2back/STIM_001.jpg	99
18.607	0.838	837.9	2back	Block1	2back/STIM_001.jpg	100
22.489	0.595	595.0	2back	Block1	2back/STIM_002.jpg	99
26.007	0.894	893.8	2back	Block1	2back/STIM_002.jpg	100
29.622	0.822	821.9	2back	Block1	2back/STIM_002.jpg	99
32.609	0.552	552.4	2back	Block1	2back/STIM_003.jpg	99
35.611	0.948	948.1	2back	Block1	2back/STIM_003.jpg	99
39.454	0.575	575.0	2back	Block1	2back/STIM_003.jpg	100
42.566	0.802	801.9	2back	Block1	2back/STIM_004.jpg	99
45.639	0.652	652.0	2back	Block1	2back/STIM_004.jpg	99
49.057	0.828	827.7	2back	Block1	2back/STIM_004.jpg	100
52.797	0.803	802.7	2back	Block1	2back/STIM_005.jpg	99
56.503	0.728	728.1	2back	Block1	2back/STIM_005.jpg	99
61.179	0.957	957.1	2back	Block1	2back/STIM_005.jpg	99
64.394	1.068	1068.1	2back	Block1	2back/STIM_006.jpg	100
67.914	0.827	827.3	2back	Block1	2back/STIM_006.jpg	100
71.452	0.746	746.2	2back	Block1	2back/STIM_006.jpg	100
76.053	0.744	744.1	2back	Block1	2back/STIM_007.jpg	100
79.843	1.04	1040.4	2back	Block1	2back/STIM_007.jpg	99
84.055	1.029	1028.7	2back	Block1	2back/STIM_007.jpg	100
87.135	0.821	820.7	2back	Block1	2back/STIM_008.jpg	99
91.781	1.085	1085.4	2back	Block1	2back/STIM_008.jpg	100
95.555	0.946	945.7	2back	Block1	2back/STIM_008.jpg	99
99.703	0.67	670.1	2back	Block1	2back/STIM_009.jpg	100
104.268	0.874	873.8	2back	Block1	2back/STIM_009.jpg	99
108.417	0.714	714.1	2back	Block1	2back/STIM_009.jpg	99
111.826	1.085	1084.9	2back	Block1	2back/STIM_010.jpg	99
115.226	0.53	530.2	2back	Block1	2back/STIM_010.jpg	99
118.463	0.879	878.8	2back	Block1	2back/STIM_010.jpg	99
123.257	0.645	645.2	2back	Block1	2back/STIM_011.jpg	99
126.309	0.914	914.1	2back	Block1	2back/STIM_011.jpg	99
130.713	0.529	529.4	2back	Block1	2back/STIM_011.jpg	99
134.528	0.836	835.8	2back	Block1	2back/STIM_012.jpg	100
138.707	1.0	1000.3	2back	Block1	2back/STIM_012.jpg	100
142.355	0.927	926.7	2back	Block1	2back/STIM_012.jpg	99
146.015	0.723	722.6	2back	Block1	2back/STIM_013.jpg	99
148.885	0.741	741.0	2back	Block1	2back/STIM_013.jpg	100
153.521	0.5	499.6	2back	Block1	2back/STIM_013.jpg	100
157.423	0.569	568.7	2back	Block1	2back/STIM_014.jpg	99
160.986	0.828	828.3	2back	Block1	2back/STIM_014.jpg	99
163.979	0.506	506.3	2back	Block1	2back/STIM_014.jpg	100
168.145	0.55	550.0	2back	Block1	2back/STIM_015.jpg	100
170.729	0.911	911.3	2back	Block1	2back/STIM_015.jpg	99
174.711	1.059	1059.3	2back	Block1	2back/STIM_015.jpg	100
177.957	0.797	797.2	2back	Block1	2back/STIM_016.jpg	99
182.009	0.771	771.2	2back	Block1	2back/STIM_016.jpg	99
185.326	0.794	794.2	2back	Block1	2back/STIM_016.jpg	100
188.588	0.534	534.4	2back	Block1	2back/STIM_017.jpg	100
191.686	0.776	775.5	2back	Block1	2back/STIM_017.jpg	99
195.897	0.498	498.0	2back	Block1	2back/STIM_017.jpg	100
199.698	0.597	596.8	2back	Block1	2back/STIM_018.jpg	99
202.348	0.557	556.7	2back	Block1	2back/STIM_018.jpg	100
205.802	0.545	545.1	2back	Block1	2back/STIM_018.jpg	100
209.845	0.546	546.0	2back	Block1	2back/STIM_019.jpg	99
213.2	0.652	651.7	2back	Block1	2back/STIM_019.jpg	100
217.621	1.078	1077.7	2back	Block1	2back/STIM_019.jpg	99
222.17	0.773	773.4	2back	Block1	2back/STIM_020.jpg	100
226.257	0.752	752.0	2back	Block1	2back/STIM_020.jpg	99
229.956	0.71	709.6	2back	Block1	2back/STIM_020.jpg	100
232.894	1.106	1105.7	2back	Block1	2back/STIM_021.jpg	100
237.418	0.938	937.9	2back	Block1	2back/STIM_021.jpg	100
241.428	1.01	1010.1	2back	Block1	2back/STIM_021.jpg	100
246.16	0.735	734.7	2back	Block1	2back/STIM_022.jpg	99
249.275	0.738	737.9	2back	Block1	2back/STIM_022.jpg	99
253.342	0.572	572.4	2back	Block1	2back/STIM_022.jpg	99
256.548	0.594	593.8	2back	Block1	2back/STIM_023.jpg	99
260.878	0.751	751.4	2back	Block1	2back/STIM_023.jpg	100
265.426	0.746	746.4	2back	Block1	2back/STIM_023.jpg	100
268.798	0.517	516.8	2back	Block1	2back/STIM_024.jpg	100
272.203	0.879	878.9	2back	Block1	2back/STIM_024.jpg	99
277.067	1.045	1045.1	2back	Block1	2back/STIM_024.jpg	99
281.141	0.738	737.8	2back	Block1	2back/STIM_025.jpg	100
284.579	0.508	508.0	2back	Block1	2back/STIM_025.jpg	100
287.383	1.045	1045.2	2back	Block1	2back/STIM_025.jpg	99
290.864	0.719	719.2	2back	Block1	2back/STIM_026.jpg	99
294.018	0.937	937.3	2back	Block1	2back/STIM_026.jpg	99
298.18	0.857	856.7	2back	Block1	2back/STIM_026.jpg	100
301.664	0.723	723.0	2back	Block1	2back/STIM_027.jpg	100
305.397	0.659	659.2	2back	Block1	2back/STIM_027.jpg	99
309.86	0.875	875.2	2back	Block1	2back/STIM_027.jpg	100
313.197	0.716	716.1	2back	Block1	2back/STIM_028.jpg	100
316.607	0.549	548.9	2back	Block1	2back/STIM_028.jpg	99
320.49	0.699	699.3	2back	Block1	2back/STIM_028.jpg	100
323.841	0.98	979.7	2back	Block1	2back/STIM_029.jpg	100
328.42	0.669	669.4	2back	Block1	2back/STIM_029.jpg	99
332.184	0.798	797.9	2back	Block1	2back/STIM_029.jpg	100
336.427	1.124	1123.9	2back	Block1	2back/STIM_030.jpg	99
340.061	0.882	882.1	2back	Block1	2back/STIM_030.jpg	99
344.86	0.632	632.2	2back	Block1	2back/STIM_030.jpg	100
349.102	0.918	917.7	2back	Block1	2back/STIM_031.jpg	100
353.414	0.916	915.9	2back	Block1	2back/STIM_031.jpg	99
356.462	1.013	1012.7	2back	Block1	2back/STIM_031.jpg	99
360.589	1.167	1166.7	2back	Block1	2back/STIM_032.jpg	99
364.286	0.801	800.9	2back	Block1	2back/STIM_032.jpg	99
368.254	0.608	608.3	2back	Block1	2back/STIM_032.jpg	100
372.758	0.554	554.4	2back	Block1	2back/STIM_033.jpg	100
376.937	0.628	627.6	2back	Block1	2back/STIM_033.jpg	100
380.781	0.922	921.8	2back	Block1	2back/STIM_033.jpg	100
384.757	0.966	965.9	2back	Block1	2back/STIM_034.jpg	100
388.924	0.895	895.4	2back	Block1	2back/STIM_034.jpg	100
391.877	0.889	888.6	2back	Block1	2back/STIM_034.jpg	99
394.821	0.845	844.8	2back	Block1	2back/STIM_035.jpg	100
399.508	0.716	716.0	2back	Block1	2back/STIM_035.jpg	99
404.044	0.587	587.4	2back	Block1	2back/STIM_035.jpg	99
407.665	0.808	808.4	2back	Block1	2back/STIM_036.jpg	100
411.65	0.934	934.4	2back	Block1	2back/STIM_036.jpg	100
414.725	0.842	841.7	2back	Block1	2back/STIM_036.jpg	99
419.415	1.118	1118.5	2back	Block1	2back/STIM_037.jpg	100
423.843	0.578	577.7	2back	Block1	2back/STIM_037.jpg	99
427.411	0.802	801.9	2back	Block1	2back/STIM_037.jpg	99
431.456	0.708	707.8	2back	Block1	2back/STIM_038.jpg	100
434.926	1.014	1014.0	2back	Block1	2back/STIM_038.jpg	99
439.799	1.009	1009.4	2back	Block1	2back/STIM_038.jpg	100
444.587	0.676	675.6	2back	Block1	2back/STIM_039.jpg	99
448.705	0.56	559.7	2back	Block1	2back/STIM_039.jpg	99
452.938	0.924	923.9	2back	Block1	2back/STIM_039.jpg	99
457.357	0.452	451.5	0back	Block1	0back/STIM_000.jpg	100
460.921	0.418	418.0	0back	Block1	0back/STIM_000.jpg	99
464.468	0.649	649.3	0back	Block1	0back/STIM_000.jpg	100
467.587	0.573	572.8	0back	Block1	0back/STIM_001.jpg	99
471.992	0.526	525.9	0back	Block1	0back/STIM_001.jpg	99
475.686	0.483	483.0	0back	Block1	0back/STIM_001.jpg	99
478.679	0.499	499.0	0back	Block1	0back/STIM_002.jpg	100
482.174	0.617	617.2	0back	Block1	0back/STIM_002.jpg	99
486.514	0.558	557.6	0back	Block1	0back/STIM_002.jpg	99
489.209	0.399	399.3	0back	Block1	0back/STIM_003.jpg	99
491.867	0.381	381.0	0back	Block1	0back/STIM_003.jpg	99
495.27	0.377	377.4	0back	Block1	0back/STIM_003.jpg	99
499.222	0.679	678.6	0back	Block1	0back/STIM_004.jpg	100
502.941	0.655	654.8	0back	Block1	0back/STIM_004.jpg	99
506.551	0.494	494.1	0back	Block1	0back/STIM_004.jpg	100
510.643	0.398	398.5	0back	Block1	0back/STIM_005.jpg	99
514.562	0.546	545.9	0back	Block1	0back/STIM_005.jpg	100
518.951	0.441	441.3	0back	Block1	0back/STIM_005.jpg	99
521.526	0.454	454.1	0back	Block1	0back/STIM_006.jpg	100
524.897	0.549	548.6	0back	Block1	0back/STIM_006.jpg	100
527.453	0.373	373.4	0back	Block1	0back/STIM_006.jpg	99
530.911	0.499	498.7	0back	Block1	0back/STIM_007.jpg	100
535.197	0.642	642.1	0back	Block1	0back/STIM_007.jpg	100
539.064	0.443	442.9	0back	Block1	0back/STIM_007.jpg	100
543.123	0.403	402.7	0back	Block1	0back/STIM_008.jpg	99
546.391	0.475	474.7	0back	Block1	0back/STIM_008.jpg	99
549.783	0.495	494.7	0back	Block1	0back/STIM_008.jpg	100
553.892	0.455	454.7	0back	Block1	0back/STIM_009.jpg	100
558.153	0.654	654.5	0back	Block1	0back/STIM_009.jpg	99
561.096	0.351	350.8	0back	Block1	0back/STIM_009.jpg	100
563.504	0.453	453.3	0back	Block1	0back/STIM_010.jpg	100
566.99	0.482	481.6	0back	Block1	0back/STIM_010.jpg	100
570.241	0.371	371.2	0back	Block1	0back/STIM_010.jpg	99
573.269	0.648	648.4	0back	Block1	0back/STIM_011.jpg	100
577.156	0.446	445.7	0back	Block1	0back/STIM_011.jpg	99
579.92	0.413	413.4	0back	Block1	0back/STIM_011.jpg	99
582.346	0.444	443.6	0back	Block1	0back/STIM_012.jpg	99
585.816	0.486	486.0	0back	Block1	0back/STIM_012.jpg	99
588.398	0.371	371.4	0back	Block1	0back/STIM_012.jpg	100
592.275	0.679	678.7	0back	Block1	0back/STIM_013.jpg	100
596.053	0.346	346.1	0back	Block1	0back/STIM_013.jpg	99
599.137	0.485	484.7	0back	Block1	0back/STIM_013.jpg	99
602.315	0.418	418.3	0back	Block1	0back/STIM_014.jpg	99
606.427	0.652	651.9	0back	Block1	0back/STIM_014.jpg	99
610.19	0.524	523.5	0back	Block1	0back/STIM_014.jpg	100
614.601	0.611	610.9	0back	Block1	0back/STIM_015.jpg	99
618.083	0.544	543.7	0back	Block1	0back/STIM_015.jpg	99
621.285	0.576	576.4	0back	Block1	0back/STIM_015.jpg	99
625.761	0.613	613.0	0back	Block1	0back/STIM_016.jpg	99
628.898	0.494	493.7	0back	Block1	0back/STIM_016.jpg	99
631.421	0.457	456.7	0back	Block1	0back/STIM_016.jpg	100
633.89	0.368	368.2	0back	Block1	0back/STIM_017.jpg	99
638.224	0.376	376.5	0back	Block1	0back/STIM_017.jpg	99
641.848	0.552	552.1	0back	Block1	0back/STIM_017.jpg	99
646.318	0.48	479.8	0back	Block1	0back/STIM_018.jpg	100
649.355	0.372	372.3	0back	Block1	0back/STIM_018.jpg	99
652.575	0.373	373.3	0back	Block1	0back/STIM_018.jpg	99
655.275	0.371	371.2	0back	Block1	0back/STIM_019.jpg	100
657.935	0.448	447.5	0back	Block1	0back/STIM_019.jpg	100
661.303	0.492	492.2	0back	Block1	0back/STIM_019.jpg	99
664.375	0.966	966.4	2back	Block2	2back/STIM_000.jpg	100
668.806	0.709	709.1	2back	Block2	2back/STIM_000.jpg	99
671.865	0.482	481.5	2back	Block2	2back/STIM_000.jpg	100
675.378	0.533	533.1	2back	Block2	2back/STIM_001.jpg	99
679.094	0.707	707.1	2back	Block2	2back/STIM_001.jpg	99
682.231	0.598	598.5	2back	Block2	2back/STIM_001.jpg	100
685.471	0.457	457.4	2back	Block2	2back/STIM_002.jpg	99
689.012	0.631	631.0	2back	Block2	2back/STIM_002.jpg	99
693.543	0.878	878.4	2back	Block2	2back/STIM_002.jpg	100
697.282	0.446	445.9	2back	Block2	2back/STIM_003.jpg	99
701.599	0.58	579.5	2back	Block2	2back/STIM_003.jpg	100
704.818	0.857	856.9	2back	Block2	2back/STIM_003.jpg	99
708.622	0.802	801.9	2back	Block2	2back/STIM_004.jpg	100
711.972	0.545	544.8	2back	Block2	2back/STIM_004.jpg	99
716.073	0.781	780.6	2back	Block2	2back/STIM_004.jpg	99
719.571	0.93	929.7	2back	Block2	2back/STIM_005.jpg	100
724.499	0.587	586.6	2back	Block2	2back/STIM_005.jpg	100
728.742	0.454	453.5	2back	Block2	2back/STIM_005.jpg	99
731.5	0.538	537.5	2back	Block2	2back/STIM_006.jpg	100
734.405	0.496	495.8	2back	Block2	2back/STIM_006.jpg	100
737.781	0.768	767.5	2back	Block2	2back/STIM_006.jpg	100
742.538	0.709	709.1	2back	Block2	2back/STIM_007.jpg	99
746.967	0.898	898.0	2back	Block2	2back/STIM_007.jpg	100
751.029	0.616	615.6	2back	Block2	2back/STIM_007.jpg	100
753.927	0.485	485.1	2back	Block2	2back/STIM_008.jpg	100
756.717	0.812	812.5	2back	Block2	2back/STIM_008.jpg	100
759.77	0.786	786.3	2back	Block2	2back/STIM_008.jpg	99
763.981	0.755	754.6	2back	Block2	2back/STIM_009.jpg	99
767.397	0.67	669.6	2back	Block2	2back/STIM_009.jpg	99
771.956	0.5	500.3	2back	Block2	2back/STIM_009.jpg	99
774.65	0.525	524.9	2back	Block2	2back/STIM_010.jpg	100
777.556	0.664	663.8	2back	Block2	2back/STIM_010.jpg	100
781.677	0.837	837.2	2back	Block2	2back/STIM_010.jpg	99
785.412	0.978	978.1	2back	Block2	2back/STIM_011.jpg	99
788.488	0.545	544.6	2back	Block2	2back/STIM_011.jpg	99
792.669	0.872	872.0	2back	Block2	2back/STIM_011.jpg	99
797.071	0.752	751.6	2back	Block2	2back/STIM_012.jpg	100
800.288	0.943	943.2	2back	Block2	2back/STIM_012.jpg	99
803.575	0.394	393.8	2back	Block2	2back/STIM_012.jpg	100
806.902	0.701	701.0	2back	Block2	2back/STIM_013.jpg	100
811.506	0.612	611.7	2back	Block2	2back/STIM_013.jpg	99
814.171	0.607	607.4	2back	Block2	2back/STIM_013.jpg	100
818.753	0.766	765.5	2back	Block2	2back/STIM_014.jpg	100
822.043	0.921	920.8	2back	Block2	2back/STIM_014.jpg	100
825.153	0.478	478.1	2back	Block2	2back/STIM_014.jpg	100
827.728	0.768	768.0	2back	Block2	2back/STIM_015.jpg	99
832.431	0.855	855.4	2back	Block2	2back/STIM_015.jpg	100
835.809	0.628	627.7	2back	Block2	2back/STIM_015.jpg	99
839.258	0.607	607.4	2back	Block2	2back/STIM_016.jpg	100
843.001	0.928	927.6	2back	Block2	2back/STIM_016.jpg	99
846.953	0.772	772.3	2back	Block2	2back/STIM_016.jpg	99
850.903	0.567	566.6	2back	Block2	2back/STIM_017.jpg	99
855.253	0.692	691.5	2back	Block2	2back/STIM_017.jpg	100
859.271	0.645	645.2	2back	Block2	2back/STIM_017.jpg	100
863.25	0.544	543.8	2back	Block2	2back/STIM_018.jpg	99
867.651	0.818	817.7	2back	Block2	2back/STIM_018.jpg	100
870.533	0.609	609.4	2back	Block2	2back/STIM_018.jpg	99
873.625	0.809	808.9	2back	Block2	2back/STIM_019.jpg	100
878.144	0.539	538.9	2back	Block2	2back/STIM_019.jpg	99
881.445	0.792	792.0	2back	Block2	2back/STIM_019.jpg	99
885.896	1.01	1010.2	2back	Block2	2back/STIM_020.jpg	99
890.553	0.534	533.5	2back	Block2	2back/STIM_020.jpg	100
894.885	0.744	744.0	2back	Block2	2back/STIM_020.jpg	100
897.875	0.708	708.2	2back	Block2	2back/STIM_021.jpg	100
901.92	0.674	674.5	2back	Block2	2back/STIM_021.jpg	100
906.227	0.773	772.6	2back	Block2	2back/STIM_021.jpg	100
910.483	0.592	592.3	2back	Block2	2back/STIM_022.jpg	100
914.581	0.9	899.5	2back	Block2	2back/STIM_022.jpg	100
918.233	0.424	424.4	2back	Block2	2back/STIM_022.jpg	100
921.037	0.524	524.1	2back	Block2	2back/STIM_023.jpg	99
924.911	0.747	746.9	2back	Block2	2back/STIM_023.jpg	99
929.052	0.539	539.3	2back	Block2	2back/STIM_023.jpg	99
933.039	0.608	608.3	2back	Block2	2back/STIM_024.jpg	99
937.041	0.666	666.5	2back	Block2	2back/STIM_024.jpg	100
941.26	0.69	689.8	2back	Block2	2back/STIM_024.jpg	99
945.507	0.548	547.5	2back	Block2	2back/STIM_025.jpg	100
948.529	0.48	480.4	2back	Block2	2back/STIM_025.jpg	99
952.276	0.663	662.9	2back	Block2	2back/STIM_025.jpg	99
955.048	0.949	949.3	2back	Block2	2back/STIM_026.jpg	99
958.189	0.941	940.7	2back	Block2	2back/STIM_026.jpg	99
962.211	0.868	868.5	2back	Block2	2back/STIM_026.jpg	100
967.07	0.779	778.9	2back	Block2	2back/STIM_027.jpg	99
971.667	0.479	479.2	2back	Block2	2back/STIM_027.jpg	100
974.926	0.616	615.8	2back	Block2	2back/STIM_027.jpg	99
978.225	0.506	506.2	2back	Block2	2back/STIM_028.jpg	99
982.065	0.644	643.7	2back	Block2	2back/STIM_028.jpg	100
984.837	0.72	719.8	2back	Block2	2back/STIM_028.jpg	99
989.346	0.749	748.6	2back	Block2	2back/STIM_029.jpg	99
993.794	0.523	523.0	2back	Block2	2back/STIM_029.jpg	99
998.193	0.899	898.9	2back	Block2	2back/STIM_029.jpg	100
1001.45	0.922	922.0	2back	Block2	2back/STIM_030.jpg	99
1006.371	0.412	412.0	2back	Block2	2back/STIM_030.jpg	99
1010.474	0.653	652.8	2back	Block2	2back/STIM_030.jpg	99
1014.33	0.656	656.4	2back	Block2	2back/STIM_031.jpg	100
1017.079	0.423	422.9	2back	Block2	2back/STIM_031.jpg	100
1020.289	0.827	826.9	2back	Block2	2back/STIM_031.jpg	99
1023.775	0.477	477.4	2back	Block2	2back/STIM_032.jpg	99
1027.792	0.912	912.0	2back	Block2	2back/STIM_032.jpg	99
1032.097	0.577	577.1	2back	Block2	2back/STIM_032.jpg	100
1034.828	0.751	751.4	2back	Block2	2back/STIM_033.jpg	100
1039.497	0.895	894.8	2back	Block2	2back/STIM_033.jpg	99
1044.154	0.446	446.1	2back	Block2	2back/STIM_033.jpg	100
1047.756	0.933	933.3	2back	Block2	2back/STIM_034.jpg	100
1052.485	0.625	625.1	2back	Block2	2back/STIM_034.jpg	99
1056.547	0.791	791.0	2back	Block2	2back/STIM_034.jpg	99
1059.789	0.743	743.2	2back	Block2	2back/STIM_035.jpg	100
1063.677	0.823	822.9	2back	Block2	2back/STIM_035.jpg	99
1066.61	0.456	455.7	2back	Block2	2back/STIM_035.jpg	100
1070.047	0.614	613.9	2back	Block2	2back/STIM_036.jpg	99
1072.8	0.432	432.1	2back	Block2	2back/STIM_036.jpg	100
1075.928	0.484	484.1	2back	Block2	2back/STIM_036.jpg	99
1080.187	0.476	475.9	2back	Block2	2back/STIM_037.jpg	99
1083.777	0.913	912.6	2back	Block2	2back/STIM_037.jpg	100
1087.642	0.699	699.2	2back	Block2	2back/STIM_037.jpg	100
1091.575	0.702	701.5	2back	Block2	2back/STIM_038.jpg	99
1094.98	0.592	592.0	2back	Block2	2back/STIM_038.jpg	99
1098.475	0.444	443.6	2back	Block2	2back/STIM_038.jpg	100
1101.036	0.947	947.2	2back	Block2	2back/STIM_039.jpg	99
1104.952	0.48	480.1	2back	Block2	2back/STIM_039.jpg	99
1108.284	0.395	395.0	2back	Block2	2back/STIM_039.jpg	99
1111.799	0.473	472.6	0back	Block2	0back/STIM_000.jpg	99
1115.551	0.416	415.6	0back	Block2	0back/STIM_000.jpg	99
1118.639	0.434	433.9	0back	Block2	0back/STIM_000.jpg	99
1121.229	0.61	609.5	0back	Block2	0back/STIM_001.jpg	99
1124.419	0.686	685.6	0back	Block2	0back/STIM_001.jpg	100
1128.248	0.5	500.0	0back	Block2	0back/STIM_001.jpg	99
1132.227	0.413	413.4	0back	Block2	0back/STIM_002.jpg	100
1135.691	0.613	613.3	0back	Block2	0back/STIM_002.jpg	99
1139.74	0.389	389.1	0back	Block2	0back/STIM_002.jpg	100
1143.005	0.502	501.8	0back	Block2	0back/STIM_003.jpg	100
1145.714	0.451	450.8	0back	Block2	0back/STIM_003.jpg	100
1148.259	0.579	578.6	0back	Block2	0back/STIM_003.jpg	100
1152.51	0.364	363.6	0back	Block2	0back/STIM_004.jpg	100
1156.713	0.614	614.2	0back	Block2	0back/STIM_004.jpg	100
1161.179	0.468	467.9	0back	Block2	0back/STIM_004.jpg	99
1165.633	0.626	625.6	0back	Block2	0back/STIM_005.jpg	99
1168.738	0.552	552.2	0back	Block2	0back/STIM_005.jpg	100
1172.14	0.504	504.5	0back	Block2	0back/STIM_005.jpg	99
1176.564	0.48	479.6	0back	Block2	0back/STIM_006.jpg	99
1180.731	0.44	440.5	0back	Block2	0back/STIM_006.jpg	99
1184.151	0.396	396.0	0back	Block2	0back/STIM_006.jpg	100
1188.479	0.513	513.3	0back	Block2	0back/STIM_007.jpg	100
1191.626	0.68	680.1	0back	Block2	0back/STIM_007.jpg	100
1195.595	0.493	492.8	0back	Block2	0back/STIM_007.jpg	99
1199.496	0.395	394.7	0back	Block2	0back/STIM_008.jpg	100
1202.257	0.629	628.8	0back	Block2	0back/STIM_008.jpg	99
1205.823	0.654	654.2	0back	Block2	0back/STIM_008.jpg	99
1209.922	0.585	584.9	0back	Block2	0back/STIM_009.jpg	99
1214.095	0.534	534.4	0back	Block2	0back/STIM_009.jpg	100
1217.693	0.413	413.3	0back	Block2	0back/STIM_009.jpg	99
1221.017	0.627	626.9	0back	Block2	0back/STIM_010.jpg	100
1223.785	0.665	664.9	0back	Block2	0back/STIM_010.jpg	99
1227.34	0.502	502.0	0back	Block2	0back/STIM_010.jpg	100
1230.036	0.35	350.2	0back	Block2	0back/STIM_011.jpg	99
1233.953	0.542	542.5	0back	Block2	0back/STIM_011.jpg	100
1237.469	0.616	615.9	0back	Block2	0back/STIM_011.jpg	100
1241.682	0.47	470.1	0back	Block2	0back/STIM_012.jpg	100
1245.424	0.495	494.9	0back	Block2	0back/STIM_012.jpg	99
1249.593	0.666	665.5	0back	Block2	0back/STIM_012.jpg	100
1253.288	0.503	502.6	0back	Block2	0back/STIM_013.jpg	99
1257.658	0.669	669.4	0back	Block2	0back/STIM_013.jpg	99
1261.64	0.567	566.9	0back	Block2	0back/STIM_013.jpg	99
1264.598	0.603	603.0	0back	Block2	0back/STIM_014.jpg	100
1267.754	0.509	508.6	0back	Block2	0back/STIM_014.jpg	100
1270.591	0.37	369.6	0back	Block2	0back/STIM_014.jpg	100
1274.552	0.522	521.5	0back	Block2	0back/STIM_015.jpg	99
1277.412	0.601	601.0	0back	Block2	0back/STIM_015.jpg	100
1280.524	0.384	384.3	0back	Block2	0back/STIM_015.jpg	100
1284.332	0.435	434.8	0back	Block2	0back/STIM_016.jpg	99
1287.058	0.485	485.3	0back	Block2	0back/STIM_016.jpg	99
1290.018	0.648	648.0	0back	Block2	0back/STIM_016.jpg	100
1293.86	0.672	671.9	0back	Block2	0back/STIM_017.jpg	99
1296.725	0.6	599.8	0back	Block2	0back/STIM_017.jpg	100
1300.276	0.545	545.1	0back	Block2	0back/STIM_017.jpg	100
1304.286	0.37	370.5	0back	Block2	0back/STIM_018.jpg	100
1308.37	0.522	522.3	0back	Block2	0back/STIM_018.jpg	100
1311.477	0.643	642.6	0back	Block2	0back/STIM_018.jpg	100
1314.638	0.422	421.6	0back	Block2	0back/STIM_019.jpg	99
1318.411	0.408	408.4	0back	Block2	0back/STIM_019.jpg	100
1321.31	0.434	433.6	0back	Block2	0back/STIM_019.jpg	99
1325.164	0.431	431.3	2back	Block3	2back/STIM_000.jpg	99
1328.602	0.558	557.5	2back	Block3	2back/STIM_000.jpg	99
1332.441	0.449	448.6	2back	Block3	2back/STIM_000.jpg	99
1335.075	0.45	449.8	2back	Block3	2back/STIM_001.jpg	99
1337.634	0.46	459.8	2back	Block3	2back/STIM_001.jpg	100
1342.045	0.712	711.5	2back	Block3	2back/STIM_001.jpg	99
1345.375	0.772	772.4	2back	Block3	2back/STIM_002.jpg	100
1349.778	0.426	426.0	2back	Block3	2back/STIM_002.jpg	99
1352.547	0.692	691.9	2back	Block3	2back/STIM_002.jpg	100
1356.729	0.678	678.0	2back	Block3	2back/STIM_003.jpg	99
1360.799	0.516	515.5	2back	Block3	2back/STIM_003.jpg	100
1363.858	0.397	397.2	2back	Block3	2back/STIM_003.jpg	99
1367.548	0.492	492.0	2back	Block3	2back/STIM_004.jpg	99
1371.572	0.53	530.1	2back	Block3	2back/STIM_004.jpg	100
1374.522	0.704	704.5	2back	Block3	2back/STIM_004.jpg	99
1378.754	0.414	414.4	2back	Block3	2back/STIM_005.jpg	99
1382.538	0.588	587.9	2back	Block3	2back/STIM_005.jpg	100
1386.87	0.77	770.3	2back	Block3	2back/STIM_005.jpg	100
1390.342	0.783	782.6	2back	Block3	2back/STIM_006.jpg	99
1394.894	0.416	416.2	2back	Block3	2back/STIM_006.jpg	100
1398.458	0.621	621.1	2back	Block3	2back/STIM_006.jpg	99
1402.727	0.515	514.9	2back	Block3	2back/STIM_007.jpg	99
1406.536	0.776	775.8	2back	Block3	2back/STIM_007.jpg	99
1409.815	0.702	701.6	2back	Block3	2back/STIM_007.jpg	100
1413.091	0.829	829.2	2back	Block3	2back/STIM_008.jpg	100
1417.411	0.714	713.7	2back	Block3	2back/STIM_008.jpg	99
1421.582	0.572	572.1	2back	Block3	2back/STIM_008.jpg	99
1425.311	0.652	651.8	2back	Block3	2back/STIM_009.jpg	100
1429.586	0.734	733.5	2back	Block3	2back/STIM_009.jpg	99
1434.122	0.466	466.5	2back	Block3	2back/STIM_009.jpg	100
1437.759	0.83	830.4	2back	Block3	2back/STIM_010.jpg	99
1441.682	0.794	793.7	2back	Block3	2back/STIM_010.jpg	100
1446.088	0.613	613.1	2back	Block3	2back/STIM_010.jpg	100
1449.767	0.573	573.1	2back	Block3	2back/STIM_011.jpg	99
1453.64	0.747	746.8	2back	Block3	2back/STIM_011.jpg	99
1458.11	0.558	558.5	2back	Block3	2back/STIM_011.jpg	100
1460.798	0.538	538.2	2back	Block3	2back/STIM_012.jpg	100
1464.006	0.608	608.1	2back	Block3	2back/STIM_012.jpg	100
1466.688	0.604	604.4	2back	Block3	2back/STIM_012.jpg	100
1469.516	0.623	622.6	2back	Block3	2back/STIM_013.jpg	99
1473.06	0.461	461.1	2back	Block3	2back/STIM_013.jpg	99
1477.278	0.718	718.5	2back	Block3	2back/STIM_013.jpg	99
1481.575	0.438	437.8	2back	Block3	2back/STIM_014.jpg	99
1485.164	0.365	364.6	2back	Block3	2back/STIM_014.jpg	99
1488.066	0.538	538.3	2back	Block3	2back/STIM_014.jpg	100
1491.754	0.689	688.9	2back	Block3	2back/STIM_015.jpg	99
1495.317	0.422	422.4	2back	Block3	2back/STIM_015.jpg	99
1498.078	0.541	540.8	2back	Block3	2back/STIM_015.jpg	99
1500.864	0.624	624.1	2back	Block3	2back/STIM_016.jpg	100
1505.131	0.379	378.7	2back	Block3	2back/STIM_016.jpg	99
1507.844	0.769	769.1	2back	Block3	2back/STIM_016.jpg	99
1512.317	0.442	442.5	2back	Block3	2back/STIM_017.jpg	99
1514.941	0.525	524.6	2back	Block3	2back/STIM_017.jpg	99
1518.972	0.604	604.5	2back	Block3	2back/STIM_017.jpg	100
1522.456	0.437	437.1	2back	Block3	2back/STIM_018.jpg	100
1526.468	0.419	419.2	2back	Block3	2back/STIM_018.jpg	100
1529.936	0.74	740.4	2back	Block3	2back/STIM_018.jpg	99
1533.941	0.667	666.6	2back	Block3	2back/STIM_019.jpg	100
1536.79	0.815	815.3	2back	Block3	2back/STIM_019.jpg	100
1541.496	0.372	372.5	2back	Block3	2back/STIM_019.jpg	99
1544.418	0.583	582.9	2back	Block3	2back/STIM_020.jpg	99
1547.094	0.56	560.5	2back	Block3	2back/STIM_020.jpg	99
1550.216	0.366	366.4	2back	Block3	2back/STIM_020.jpg	99
1554.283	0.555	555.0	2back	Block3	2back/STIM_021.jpg	100
1558.568	0.515	514.9	2back	Block3	2back/STIM_021.jpg	99
1561.322	0.787	787.3	2back	Block3	2back/STIM_021.jpg	100
1565.012	0.386	385.7	2back	Block3	2back/STIM_022.jpg	100
1568.306	0.403	403.4	2back	Block3	2back/STIM_022.jpg	100
1572.479	0.375	375.1	2back	Block3	2back/STIM_022.jpg	100
1576.252	0.535	535.3	2back	Block3	2back/STIM_023.jpg	100
1580.489	0.618	617.5	2back	Block3	2back/STIM_023.jpg	99
1584.116	0.788	787.9	2back	Block3	2back/STIM_023.jpg	100
1587.43	0.524	523.5	2back	Block3	2back/STIM_024.jpg	99
1591.681	0.504	504.0	2back	Block3	2back/STIM_024.jpg	99
1594.203	0.654	653.9	2back	Block3	2back/STIM_024.jpg	100
1597.884	0.69	690.1	2back	Block3	2back/STIM_025.jpg	99
1602.212	0.714	714.4	2back	Block3	2back/STIM_025.jpg	100
1605.068	0.744	744.0	2back	Block3	2back/STIM_025.jpg	99
1607.95	0.381	381.0	2back	Block3	2back/STIM_026.jpg	100
1610.846	0.78	780.5	2back	Block3	2back/STIM_026.jpg	100
1615.603	0.835	834.6	2back	Block3	2back/STIM_026.jpg	100
1618.838	0.388	388.5	2back	Block3	2back/STIM_027.jpg	100
1622.872	0.824	824.0	2back	Block3	2back/STIM_027.jpg	99
1625.737	0.55	549.7	2back	Block3	2back/STIM_027.jpg	99
1629.638	0.517	517.2	2back	Block3	2back/STIM_028.jpg	99
1633.973	0.445	445.1	2back	Block3	2back/STIM_028.jpg	100
1637.089	0.539	539.0	2back	Block3	2back/STIM_028.jpg	100
1641.085	0.638	637.7	2back	Block3	2back/STIM_029.jpg	99
1644.106	0.59	590.4	2back	Block3	2back/STIM_029.jpg	100
1647.473	0.437	437.2	2back	Block3	2back/STIM_029.jpg	100
1650.24	0.776	776.5	2back	Block3	2back/STIM_030.jpg	100
1653.59	0.679	679.4	2back	Block3	2back/STIM_030.jpg	100
1657.994	0.648	648.4	2back	Block3	2back/STIM_030.jpg	100
1662.399	0.716	715.7	2back	Block3	2back/STIM_031.jpg	100
1665.795	0.717	717.3	2back	Block3	2back/STIM_031.jpg	99
1669.451	0.679	679.2	2back	Block3	2back/STIM_031.jpg	99
1673.604	0.47	469.7	2back	Block3	2back/STIM_032.jpg	99
1677.103	0.381	381.3	2back	Block3	2back/STIM_032.jpg	99
1679.538	0.527	527.0	2back	Block3	2back/STIM_032.jpg	99
1682.602	0.468	467.9	2back	Block3	2back/STIM_033.jpg	99
1686.094	0.408	407.7	2back	Block3	2back/STIM_033.jpg	99
1690.404	0.818	817.6	2back	Block3	2back/STIM_033.jpg	100
1695.096	0.721	720.8	2back	Block3	2back/STIM_034.jpg	99
1698.862	0.731	730.9	2back	Block3	2back/STIM_034.jpg	99
1702.759	0.534	534.4	2back	Block3	2back/STIM_034.jpg	100
1705.792	0.79	790.4	2back	Block3	2back/STIM_035.jpg	100
1708.742	0.688	687.9	2back	Block3	2back/STIM_035.jpg	99
1712.344	0.448	447.5	2back	Block3	2back/STIM_035.jpg	100
1715.018	0.435	435.0	2back	Block3	2back/STIM_036.jpg	99
1719.407	0.637	637.3	2back	Block3	2back/STIM_036.jpg	99
1722.348	0.525	524.8	2back	Block3	2back/STIM_036.jpg	100
1725.628	0.536	536.1	2back	Block3	2back/STIM_037.jpg	99
1729.216	0.654	653.8	2back	Block3	2back/STIM_037.jpg	99
1732.778	0.816	816.1	2back	Block3	2back/STIM_037.jpg	99
1735.768	0.494	493.6	2back	Block3	2back/STIM_038.jpg	99
1739.018	0.421	421.0	2back	Block3	2back/STIM_038.jpg	100
1743.199	0.512	512.5	2back	Block3	2back/STIM_038.jpg	100
1747.655	0.716	715.9	2back	Block3	2back/STIM_039.jpg	99
1751.904	0.61	610.0	2back	Block3	2back/STIM_039.jpg	100
1756.452	0.768	768.3	2back	Block3	2back/STIM_039.jpg	100
1760.165	0.502	502.3	0back	Block3	0back/STIM_000.jpg	100
1763.238	0.359	359.4	0back	Block3	0back/STIM_000.jpg	99
1766.241	0.53	530.0	0back	Block3	0back/STIM_000.jpg	99
1769.798	0.503	502.6	0back	Block3	0back/STIM_001.jpg	100
1773.511	0.682	681.6	0back	Block3	0back/STIM_001.jpg	99
1776.233	0.441	440.8	0back	Block3	0back/STIM_001.jpg	99
1779.533	0.561	560.8	0back	Block3	0back/STIM_002.jpg	99
1782.135	0.523	523.2	0back	Block3	0back/STIM_002.jpg	100
1786.361	0.606	605.8	0back	Block3	0back/STIM_002.jpg	99
1789.083	0.352	351.8	0back	Block3	0back/STIM_003.jpg	99
1792.914	0.572	571.8	0back	Block3	0back/STIM_003.jpg	100
1796.915	0.439	438.6	0back	Block3	0back/STIM_003.jpg	100
1799.715	0.558	557.7	0back	Block3	0back/STIM_004.jpg	99
1802.376	0.452	452.5	0back	Block3	0back/STIM_004.jpg	99
1806.511	0.426	426.4	0back	Block3	0back/STIM_004.jpg	100
1810.114	0.615	615.2	0back	Block3	0back/STIM_005.jpg	100
1813.549	0.493	493.2	0back	Block3	0back/STIM_005.jpg	100
1816.235	0.503	503.3	0back	Block3	0back/STIM_005.jpg	99
1819.457	0.67	670.4	0back	Block3	0back/STIM_006.jpg	100
1822.228	0.345	345.2	0back	Block3	0back/STIM_006.jpg	99
1824.833	0.406	405.8	0back	Block3	0back/STIM_006.jpg	99
1829.043	0.519	519.3	0back	Block3	0back/STIM_007.jpg	100
1832.246	0.434	434.5	0back	Block3	0back/STIM_007.jpg	99
1836.513	0.386	386.3	0back	Block3	0back/STIM_007.jpg	100
1840.786	0.462	461.9	0back	Block3	0back/STIM_008.jpg	99
1844.238	0.523	522.9	0back	Block3	0back/STIM_008.jpg	99
1847.905	0.499	498.7	0back	Block3	0back/STIM_008.jpg	100
1851.483	0.672	672.1	0back	Block3	0back/STIM_009.jpg	99
1854.614	0.497	497.1	0back	Block3	0back/STIM_009.jpg	99
1858.896	0.436	435.7	0back	Block3	0back/STIM_009.jpg	100
1861.447	0.503	503.2	0back	Block3	0back/STIM_010.jpg	99
1865.725	0.55	549.5	0back	Block3	0back/STIM_010.jpg	100
1868.577	0.476	475.7	0back	Block3	0back/STIM_010.jpg	100
1871.532	0.669	668.8	0back	Block3	0back/STIM_011.jpg	100
1874.523	0.593	593.0	0back	Block3	0back/STIM_011.jpg	99
1877.438	0.671	671.4	0back	Block3	0back/STIM_011.jpg	99
1881.341	0.431	431.3	0back	Block3	0back/STIM_012.jpg	99
1885.398	0.582	581.8	0back	Block3	0back/STIM_012.jpg	100
1888.427	0.472	472.1	0back	Block3	0back/STIM_012.jpg	99
1890.988	0.665	665.1	0back	Block3	0back/STIM_013.jpg	99
1895.038	0.559	558.8	0back	Block3	0back/STIM_013.jpg	100
1898.848	0.673	673.4	0back	Block3	0back/STIM_013.jpg	99
1901.597	0.46	459.5	0back	Block3	0back/STIM_014.jpg	100
1905.785	0.368	368.2	0back	Block3	0back/STIM_014.jpg	100
1908.616	0.348	347.8	0back	Block3	0back/STIM_014.jpg	99
1912.426	0.447	447.0	0back	Block3	0back/STIM_015.jpg	99
1915.742	0.497	496.6	0back	Block3	0back/STIM_015.jpg	99
1918.295	0.41	410.2	0back	Block3	0back/STIM_015.jpg	100
1922.547	0.666	665.9	0back	Block3	0back/STIM_016.jpg	99
1926.236	0.463	462.8	0back	Block3	0back/STIM_016.jpg	99
1930.282	0.578	578.3	0back	Block3	0back/STIM_016.jpg	100
1933.465	0.638	638.1	0back	Block3	0back/STIM_017.jpg	100
1936.836	0.346	345.6	0back	Block3	0back/STIM_017.jpg	99
1941.036	0.575	575.3	0back	Block3	0back/STIM_017.jpg	99
1944.407	0.453	452.6	0back	Block3	0back/STIM_018.jpg	99
1948.138	0.412	412.3	0back	Block3	0back/STIM_018.jpg	99
1951.792	0.518	518.0	0back	Block3	0back/STIM_018.jpg	100
1954.598	0.404	404.3	0back	Block3	0back/STIM_019.jpg	100
1957.827	0.385	385.0	0back	Block3	0back/STIM_019.jpg	100
1960.922	0.558	557.5	0back	Block3	0back/STIM_019.jpg	99
1965.375	0.363	363.2	2back	Block4	2back/STIM_000.jpg	99
1968.362	0.397	397.1	2back	Block4	2back/STIM_000.jpg	100
1971.135	0.411	410.6	2back	Block4	2back/STIM_000.jpg	100
1973.989	0.721	721.3	2back	Block4	2back/STIM_001.jpg	99
1978.658	0.532	531.5	2back	Block4	2back/STIM_001.jpg	100
1981.979	0.397	397.3	2back	Block4	2back/STIM_001.jpg	99
1985.39	0.792	791.5	2back	Block4	2back/STIM_002.jpg	100
1989.749	0.457	457.4	2back	Block4	2back/STIM_002.jpg	100
1992.214	0.363	363.3	2back	Block4	2back/STIM_002.jpg	99
1995.958	0.55	550.3	2back	Block4	2back/STIM_003.jpg	100
2000.234	0.547	546.8	2back	Block4	2back/STIM_003.jpg	99
2003.845	0.496	495.6	2back	Block4	2back/STIM_003.jpg	100
2006.928	0.692	692.2	2back	Block4	2back/STIM_004.jpg	100
2011.28	0.808	808.3	2back	Block4	2back/STIM_004.jpg	99
2014.155	0.815	814.6	2back	Block4	2back/STIM_004.jpg	99
2017.094	0.535	535.2	2back	Block4	2back/STIM_005.jpg	99
2021.131	0.505	504.8	2back	Block4	2back/STIM_005.jpg	100
2024.082	0.525	525.4	2back	Block4	2back/STIM_005.jpg	100
2028.431	0.731	730.6	2back	Block4	2back/STIM_006.jpg	100
2032.442	0.831	831.0	2back	Block4	2back/STIM_006.jpg	99
2036.256	0.479	478.8	2back	Block4	2back/STIM_006.jpg	99
2038.754	0.801	800.7	2back	Block4	2back/STIM_007.jpg	100
2042.546	0.411	411.2	2back	Block4	2back/STIM_007.jpg	100
2046.226	0.485	484.9	2back	Block4	2back/STIM_007.jpg	100
2049.279	0.534	534.1	2back	Block4	2back/STIM_008.jpg	100
2052.745	0.635	634.8	2back	Block4	2back/STIM_008.jpg	100
2056.608	0.384	383.5	2back	Block4	2back/STIM_008.jpg	99
2060.083	0.565	565.2	2back	Block4	2back/STIM_009.jpg	99
2064.533	0.467	466.8	2back	Block4	2back/STIM_009.jpg	99
2068.464	0.779	778.6	2back	Block4	2back/STIM_009.jpg	100
2072.699	0.505	504.8	2back	Block4	2back/STIM_010.jpg	100
2075.435	0.772	772.2	2back	Block4	2back/STIM_010.jpg	100
2079.054	0.769	769.1	2back	Block4	2back/STIM_010.jpg	99
2082.304	0.792	791.5	2back	Block4	2back/STIM_011.jpg	100
2086.126	0.57	570.2	2back	Block4	2back/STIM_011.jpg	99
2090.595	0.4	399.9	2back	Block4	2back/STIM_011.jpg	99
2093.408	0.635	634.7	2back	Block4	2back/STIM_012.jpg	100
2097.141	0.45	450.5	2back	Block4	2back/STIM_012.jpg	100
2101.065	0.711	710.8	2back	Block4	2back/STIM_012.jpg	99
2103.93	0.753	753.3	2back	Block4	2back/STIM_013.jpg	99
2108.009	0.518	517.6	2back	Block4	2back/STIM_013.jpg	100
2111.483	0.64	640.4	2back	Block4	2back/STIM_013.jpg	99
2115.418	0.499	499.1	2back	Block4	2back/STIM_014.jpg	99
2118.155	0.494	493.8	2back	Block4	2back/STIM_014.jpg	100
2121.58	0.819	819.2	2back	Block4	2back/STIM_014.jpg	100
2126.146	0.473	472.8	2back	Block4	2back/STIM_015.jpg	100
2129.836	0.494	493.6	2back	Block4	2back/STIM_015.jpg	99
2132.411	0.446	446.1	2back	Block4	2back/STIM_015.jpg	100
2135.045	0.784	783.6	2back	Block4	2back/STIM_016.jpg	99
2138.282	0.719	718.6	2back	Block4	2back/STIM_016.jpg	99
2141.164	0.589	588.8	2back	Block4	2back/STIM_016.jpg	99
2144.772	0.468	467.7	2back	Block4	2back/STIM_017.jpg	99
2148.392	0.514	514.4	2back	Block4	2back/STIM_017.jpg	100
2152.025	0.679	678.7	2back	Block4	2back/STIM_017.jpg	100
2154.935	0.37	370.2	2back	Block4	2back/STIM_018.jpg	100
2158.109	0.736	735.6	2back	Block4	2back/STIM_018.jpg	99
2162.515	0.688	688.2	2back	Block4	2back/STIM_018.jpg	100
2166.054	0.671	670.9	2back	Block4	2back/STIM_019.jpg	100
2170.527	0.571	571.0	2back	Block4	2back/STIM_019.jpg	99
2173.232	0.451	451.3	2back	Block4	2back/STIM_019.jpg	99
2176.1	0.638	637.5	2back	Block4	2back/STIM_020.jpg	99
2180.071	0.828	827.5	2back	Block4	2back/STIM_020.jpg	100
2183.417	0.703	703.2	2back	Block4	2back/STIM_020.jpg	100
2186.938	0.464	463.9	2back	Block4	2back/STIM_021.jpg	99
2189.612	0.78	780.2	2back	Block4	2back/STIM_021.jpg	99
2194.345	0.453	452.9	2back	Block4	2back/STIM_021.jpg	100
2198.453	0.556	556.5	2back	Block4	2back/STIM_022.jpg	99
2202.833	0.7	700.3	2back	Block4	2back/STIM_022.jpg	99
2205.637	0.464	464.5	2back	Block4	2back/STIM_022.jpg	100
2208.931	0.782	782.1	2back	Block4	2back/STIM_023.jpg	99
2211.774	0.56	559.6	2back	Block4	2back/STIM_023.jpg	100
2214.831	0.583	583.3	2back	Block4	2back/STIM_023.jpg	99
2218.101	0.762	761.9	2back	Block4	2back/STIM_024.jpg	99
2221.073	0.651	650.9	2back	Block4	2back/STIM_024.jpg	100
2224.673	0.527	527.0	2back	Block4	2back/STIM_024.jpg	99
2229.142	0.382	381.7	2back	Block4	2back/STIM_025.jpg	99
2231.692	0.364	364.5	2back	Block4	2back/STIM_025.jpg	100
2234.541	0.717	716.6	2back	Block4	2back/STIM_025.jpg	99
2238.969	0.432	431.5	2back	Block4	2back/STIM_026.jpg	99
2242.962	0.667	667.3	2back	Block4	2back/STIM_026.jpg	100
2245.837	0.728	728.2	2back	Block4	2back/STIM_026.jpg	100
2248.575	0.728	728.3	2back	Block4	2back/STIM_027.jpg	100
2252.595	0.794	794.2	2back	Block4	2back/STIM_027.jpg	99
2255.738	0.55	550.5	2back	Block4	2back/STIM_027.jpg	100
2259.181	0.394	394.3	2back	Block4	2back/STIM_028.jpg	100
2263.147	0.835	835.2	2back	Block4	2back/STIM_028.jpg	99
2266.586	0.712	711.7	2back	Block4	2back/STIM_028.jpg	100
2270.642	0.552	552.2	2back	Block4	2back/STIM_029.jpg	100
2273.653	0.626	625.9	2back	Block4	2back/STIM_029.jpg	99
2278.136	0.663	663.4	2back	Block4	2back/STIM_029.jpg	100
2282.235	0.787	787.1	2back	Block4	2back/STIM_030.jpg	99
2286.529	0.557	556.8	2back	Block4	2back/STIM_030.jpg	100
2290.167	0.553	552.9	2back	Block4	2back/STIM_030.jpg	99
2293.478	0.556	555.8	2back	Block4	2back/STIM_031.jpg	99
2297.294	0.475	475.1	2back	Block4	2back/STIM_031.jpg	100
2301.478	0.464	464.3	2back	Block4	2back/STIM_031.jpg	99
2304.972	0.788	787.8	2back	Block4	2back/STIM_032.jpg	100
2308.676	0.784	784.1	2back	Block4	2back/STIM_032.jpg	99
2312.385	0.437	436.9	2back	Block4	2back/STIM_032.jpg	99
2315.077	0.486	485.9	2back	Block4	2back/STIM_033.jpg	99
2318.232	0.377	377.1	2back	Block4	2back/STIM_033.jpg	99
2321.309	0.439	439.2	2back	Block4	2back/STIM_033.jpg	99
2324.971	0.635	635.4	2back	Block4	2back/STIM_034.jpg	99
2328.255	0.756	755.6	2back	Block4	2back/STIM_034.jpg	99
2332.478	0.754	754.1	2back	Block4	2back/STIM_034.jpg	100
2336.262	0.64	639.5	2back	Block4	2back/STIM_035.jpg	100
2338.919	0.381	381.2	2back	Block4	2back/STIM_035.jpg	99
2342.007	0.676	675.8	2back	Block4	2back/STIM_035.jpg	100
2345.965	0.37	369.8	2back	Block4	2back/STIM_036.jpg	99
2350.295	0.712	711.6	2back	Block4	2back/STIM_036.jpg	100
2354.126	0.4	400.4	2back	Block4	2back/STIM_036.jpg	100
2357.471	0.469	469.3	2back	Block4	2back/STIM_037.jpg	100
2361.684	0.445	444.8	2back	Block4	2back/STIM_037.jpg	100
2365.159	0.712	712.4	2back	Block4	2back/STIM_037.jpg	100
2368.865	0.597	597.1	2back	Block4	2back/STIM_038.jpg	99
2371.992	0.405	404.9	2back	Block4	2back/STIM_038.jpg	99
2374.814	0.486	486.2	2back	Block4	2back/STIM_038.jpg	100
2379.244	0.421	421.1	2back	Block4	2back/STIM_039.jpg	100
2382.183	0.668	668.1	2back	Block4	2back/STIM_039.jpg	100
2385.218	0.746	745.6	2back	Block4	2back/STIM_039.jpg	99
2389.476	0.622	622.2	0back	Block4	0back/STIM_000.jpg	99
2393.838	0.596	595.7	0back	Block4	0back/STIM_000.jpg	99
2397.844	0.562	561.5	0back	Block4	0back/STIM_000.jpg	99
2400.535	0.524	524.0	0back	Block4	0back/STIM_001.jpg	99
2404.497	0.495	495.1	0back	Block4	0back/STIM_001.jpg	99
2407.477	0.388	388.0	0back	Block4	0back/STIM_001.jpg	100
2410.915	0.679	678.8	0back	Block4	0back/STIM_002.jpg	99
2415.291	0.519	518.9	0back	Block4	0back/STIM_002.jpg	100
2418.111	0.67	670.5	0back	Block4	0back/STIM_002.jpg	100
2421.832	0.433	433.0	0back	Block4	0back/STIM_003.jpg	99
2425.116	0.486	485.9	0back	Block4	0back/STIM_003.jpg	100
2427.77	0.514	513.5	0back	Block4	0back/STIM_003.jpg	100
2430.97	0.406	405.9	0back	Block4	0back/STIM_004.jpg	100
2434.441	0.422	422.4	0back	Block4	0back/STIM_004.jpg	99
2436.892	0.436	436.0	0back	Block4	0back/STIM_004.jpg	100
2440.148	0.668	667.7	0back	Block4	0back/STIM_005.jpg	99
2443.529	0.626	626.1	0back	Block4	0back/STIM_005.jpg	99
2448.081	0.587	586.6	0back	Block4	0back/STIM_005.jpg	99
2450.716	0.365	365.0	0back	Block4	0back/STIM_006.jpg	99
2454.458	0.553	553.1	0back	Block4	0back/STIM_006.jpg	99
2458.236	0.57	569.8	0back	Block4	0back/STIM_006.jpg	100
2462.233	0.507	506.6	0back	Block4	0back/STIM_007.jpg	100
2465.278	0.49	490.4	0back	Block4	0back/STIM_007.jpg	100
2469.276	0.422	421.6	0back	Block4	0back/STIM_007.jpg	100
2473.247	0.685	684.6	0back	Block4	0back/STIM_008.jpg	99
2476.283	0.467	466.9	0back	Block4	0back/STIM_008.jpg	100
2480.126	0.558	558.4	0back	Block4	0back/STIM_008.jpg	100
2483.106	0.512	511.9	0back	Block4	0back/STIM_009.jpg	100
2486.359	0.425	424.6	0back	Block4	0back/STIM_009.jpg	99
2489.77	0.596	596.3	0back	Block4	0back/STIM_009.jpg	100
2492.716	0.55	550.4	0back	Block4	0back/STIM_010.jpg	99
2495.429	0.363	362.8	0back	Block4	0back/STIM_010.jpg	100
2499.01	0.355	354.9	0back	Block4	0back/STIM_010.jpg	100
2502.546	0.52	519.8	0back	Block4	0back/STIM_011.jpg	99
2506.935	0.621	620.8	0back	Block4	0back/STIM_011.jpg	99
2510.354	0.646	646.3	0back	Block4	0back/STIM_011.jpg	100
2514.259	0.468	468.0	0back	Block4	0back/STIM_012.jpg	99
2517.83	0.482	482.0	0back	Block4	0back/STIM_012.jpg	99
2520.857	0.368	368.4	0back	Block4	0back/STIM_012.jpg	99
2523.436	0.62	620.3	0back	Block4	0back/STIM_013.jpg	100
2527.607	0.509	509.5	0back	Block4	0back/STIM_013.jpg	100
2531.524	0.442	441.5	0back	Block4	0back/STIM_013.jpg	99
2535.063	0.352	352.1	0back	Block4	0back/STIM_014.jpg	99
2537.904	0.532	532.2	0back	Block4	0back/STIM_014.jpg	100
2541.268	0.632	631.9	0back	Block4	0back/STIM_014.jpg	100
2544.059	0.616	616.2	0back	Block4	0back/STIM_015.jpg	100
2548.58	0.639	639.3	0back	Block4	0back/STIM_015.jpg	100
2552.549	0.395	395.4	0back	Block4	0back/STIM_015.jpg	99
2555.376	0.544	543.8	0back	Block4	0back/STIM_016.jpg	99
2559.101	0.45	449.5	0back	Block4	0back/STIM_016.jpg	99
2563.496	0.51	510.0	0back	Block4	0back/STIM_016.jpg	99
2567.179	0.661	661.1	0back	Block4	0back/STIM_017.jpg	100
2570.261	0.384	383.9	0back	Block4	0back/STIM_017.jpg	100
2573.853	0.45	449.8	0back	Block4	0back/STIM_017.jpg	99
2576.841	0.504	503.8	0back	Block4	0back/STIM_018.jpg	99
2579.492	0.621	620.9	0back	Block4	0back/STIM_018.jpg	99
2583.044	0.395	395.1	0back	Block4	0back/STIM_018.jpg	100
2585.596	0.344	343.6	0back	Block4	0back/STIM_019.jpg	100
2588.425	0.642	642.1	0back	Block4	0back/STIM_019.jpg	99
2592.106	0.408	407.5	0back	Block4	0back/STIM_019.jpg	99
