onset	duration	response_time_ms	trial_type	learning_stage	stimulus	response_port
0.0	0.827	826.9	2back	Block1	2back/STIM_000.jpg	99
3.084	1.026	1026.2	2back	Block1	2back/STIM_000.jpg	100
8.121	0.74	739.7	2back	Block1	2back/STIM_000.jpg	99
11.21	1.136	1136.0	2back	Block1	2back/STIM_001.jpg	99
15.624	0.673	672.8	2back	Block1	2back/STIM_001.jpg	99
18.936	0.89	889.5	2back	Block1	2back/STIM_001.jpg	100
22.683	1.045	1044.7	2back	Block1	2back/STIM_002.jpg	99
26.384	1.025	1024.9	2back	Block1	2back/STIM_002.jpg	100
30.334	0.873	873.4	2back	Block1	2back/STIM_002.jpg	99
33.517	1.122	1121.5	2back	Block1	2back/STIM_003.jpg	99
37.551	0.772	771.6	2back	Block1	2back/STIM_003.jpg	99
40.507	0.923	922.8	2back	Block1	2back/STIM_003.jpg	100
43.681	0.847	846.7	2back	Block1	2back/STIM_004.jpg	99
47.84	0.441	441.3	2back	Block1	2back/STIM_004.jpg	99
50.864	0.483	482.6	2back	Block1	2back/STIM_004.jpg	100
54.674	0.56	560.5	2back	Block1	2back/STIM_005.jpg	99
57.834	0.624	624.2	2back	Block1	2back/STIM_005.jpg	99
60.446	0.74	739.6	2back	Block1	2back/STIM_005.jpg	99
65.285	1.117	1116.7	2back	Block1	2back/STIM_006.jpg	100
68.797	0.956	956.4	2back	Block1	2back/STIM_006.jpg	100
73.699	0.598	597.8	2back	Block1	2back/STIM_006.jpg	100
77.548	1.262	1261.9	2back	Block1	2back/STIM_007.jpg	100
82.696	0.972	971.6	2back	Block1	2back/STIM_007.jpg	99
87.081	0.609	608.6	2back	Block1	2back/STIM_007.jpg	100
90.104	1.307	1307.4	2back	Block1	2back/STIM_008.jpg	99
93.777	0.989	988.7	2back	Block1	2back/STIM_008.jpg	100
98.367	0.733	733.3	2back	Block1	2back/STIM_008.jpg	99
102.183	1.25	1249.5	2back	Block1	2back/STIM_009.jpg	100
106.298	0.886	886.0	2back	Block1	2back/STIM_009.jpg	99
110.57	1.063	1062.8	2back	Block1	2back/STIM_009.jpg	99
114.244	1.064	1064.1	2back	Block1	2back/STIM_010.jpg	99
117.844	0.566	566.2	2back	Block1	2back/STIM_010.jpg	99
121.968	0.616	615.9	2back	Block1	2back/STIM_010.jpg	99
125.18	1.031	1030.8	2back	Block1	2back/STIM_011.jpg	99
128.467	0.627	626.6	2back	Block1	2back/STIM_011.jpg	99
131.266	0.589	588.6	2back	Block1	2back/STIM_011.jpg	99
134.625	1.198	1198.1	2back	Block1	2back/STIM_012.jpg	100
137.965	0.72	720.1	2back	Block1	2back/STIM_012.jpg	100
141.452	0.833	832.8	2back	Block1	2back/STIM_012.jpg	99
146.255	1.007	1007.1	2back	Block1	2back/STIM_013.jpg	99
149.546	0.906	905.9	2back	Block1	2back/STIM_013.jpg	100
152.596	0.891	891.4	2back	Block1	2back/STIM_013.jpg	100
157.569	1.199	1199.2	2back	Block1	2back/STIM_014.jpg	99
162.292	0.588	587.8	2back	Block1	2back/STIM_014.jpg	99
165.328	0.632	632.0	2back	Block1	2back/STIM_014.jpg	100
169.586	1.013	1012.7	2back	Block1	2back/STIM_015.jpg	100
173.865	1.236	1235.6	2back	Block1	2back/STIM_015.jpg	99
177.865	0.872	872.3	2back	Block1	2back/STIM_015.jpg	100
181.916	0.695	695.0	2back	Block1	2back/STIM_016.jpg	99
186.531	0.998	997.8	2back	Block1	2back/STIM_016.jpg	99
191.663	0.558	558.5	2back	Block1	2back/STIM_016.jpg	100
194.682	1.188	1188.1	2back	Block1	2back/STIM_017.jpg	100
198.122	0.702	702.5	2back	Block1	2back/STIM_017.jpg	99
200.956	0.735	735.2	2back	Block1	2back/STIM_017.jpg	100
205.596	1.094	1093.9	2back	Block1	2back/STIM_018.jpg	99
210.051	1.002	1001.5	2back	Block1	2back/STIM_018.jpg	100
214.391	0.927	927.3	2back	Block1	2back/STIM_018.jpg	100
219.34	0.945	945.2	2back	Block1	2back/STIM_019.jpg	99
223.238	1.117	1117.4	2back	Block1	2back/STIM_019.jpg	100
227.001	0.869	868.9	2back	Block1	2back/STIM_019.jpg	99
230.082	1.014	1013.6	2back	Block1	2back/STIM_020.jpg	100
233.941	0.874	874.2	2back	Block1	2back/STIM_020.jpg	99
236.988	0.732	731.5	2back	Block1	2back/STIM_020.jpg	100
240.74	0.87	869.7	2back	Block1	2back/STIM_021.jpg	100
243.889	0.482	481.5	2back	Block1	2back/STIM_021.jpg	100
247.813	0.682	681.8	2back	Block1	2back/STIM_021.jpg	100
251.525	1.238	1237.8	2back	Block1	2back/STIM_022.jpg	99
255.887	1.027	1026.6	2back	Block1	2back/STIM_022.jpg	99
259.915	0.642	641.9	2back	Block1	2back/STIM_022.jpg	99
263.785	0.765	765.1	2back	Block1	2back/STIM_023.jpg	99
268.331	0.956	956.5	2back	Block1	2back/STIM_023.jpg	100
271.74	0.923	923.4	2back	Block1	2back/STIM_023.jpg	100
275.339	0.585	585.4	2back	Block1	2back/STIM_024.jpg	100
279.344	0.849	848.9	2back	Block1	2back/STIM_024.jpg	99
283.089	0.661	660.9	2back	Block1	2back/STIM_024.jpg	99
287.112	1.224	1223.6	2back	Block1	2back/STIM_025.jpg	100
292.116	0.727	727.1	2back	Block1	2back/STIM_025.jpg	100
296.282	0.489	489.3	2back	Block1	2back/STIM_025.jpg	99
300.748	0.583	583.3	2back	Block1	2back/STIM_026.jpg	99
303.767	1.265	1265.1	2back	Block1	2back/STIM_026.jpg	99
307.412	0.75	749.6	2back	Block1	2back/STIM_026.jpg	100
310.531	0.924	924.5	2back	Block1	2back/STIM_027.jpg	100
314.177	0.719	719.2	2back	Block1	2back/STIM_027.jpg	99
318.181	0.621	621.4	2back	Block1	2back/STIM_027.jpg	100
322.491	0.953	952.8	2back	Block1	2back/STIM_028.jpg	100
326.132	0.849	849.2	2back	Block1	2back/STIM_028.jpg	99
330.965	0.852	852.3	2back	Block1	2back/STIM_028.jpg	100
335.238	1.225	1224.8	2back	Block1	2back/STIM_029.jpg	100
339.512	0.64	639.7	2back	Block1	2back/STIM_029.jpg	99
343.001	0.79	790.1	2back	Block1	2back/STIM_029.jpg	100
347.652	1.177	1176.7	2back	Block1	2back/STIM_030.jpg	99
352.153	1.046	1046.3	2back	Block1	2back/STIM_030.jpg	99
355.399	0.854	853.6	2back	Block1	2back/STIM_030.jpg	100
360.212	0.817	817.3	2back	Block1	2back/STIM_031.jpg	100
364.581	0.956	956.5	2back	Block1	2back/STIM_031.jpg	99
369.181	0.962	962.5	2back	Block1	2back/STIM_031.jpg	99
373.339	0.807	807.3	2back	Block1	2back/STIM_032.jpg	99
376.337	0.58	579.9	2back	Block1	2back/STIM_032.jpg	99
380.182	1.001	1001.0	2back	Block1	2back/STIM_032.jpg	100
384.259	1.279	1279.4	2back	Block1	2back/STIM_033.jpg	100
389.495	0.98	980.1	2back	Block1	2back/STIM_033.jpg	100
393.933	0.651	650.9	2back	Block1	2back/STIM_033.jpg	100
398.011	0.692	691.8	2back	Block1	2back/STIM_034.jpg	100
401.439	1.136	1136.4	2back	Block1	2back/STIM_034.jpg	100
405.876	1.137	1137.3	2back	Block1	2back/STIM_034.jpg	99
410.104	0.975	975.4	2back	Block1	2back/STIM_035.jpg	100
413.317	0.557	557.2	2back	Block1	2back/STIM_035.jpg	99
417.747	0.609	609.1	2back	Block1	2back/STIM_035.jpg	99
422.105	1.149	1149.3	2back	Block1	2back/STIM_036.jpg	100
425.634	0.757	757.1	2back	Block1	2back/STIM_036.jpg	100
430.398	0.709	709.4	2back	Block1	2back/STIM_036.jpg	99
433.843	0.652	652.4	2back	Block1	2back/STIM_037.jpg	100
437.211	0.708	708.1	2back	Block1	2back/STIM_037.jpg	99
440.889	0.75	749.9	2back	Block1	2back/STIM_037.jpg	99
444.291	1.035	1034.6	2back	Block1	2back/STIM_038.jpg	100
448.524	0.987	987.2	2back	Block1	2back/STIM_038.jpg	99
453.307	0.67	670.5	2back	Block1	2back/STIM_038.jpg	100
457.992	0.935	935.4	2back	Block1	2back/STIM_039.jpg	99
462.802	0.729	729.2	2back	Block1	2back/STIM_039.jpg	99
466.367	0.981	981.0	2back	Block1	2back/STIM_039.jpg	99
471.326	0.689	689.1	0back	Block1	0back/STIM_000.jpg	100
474.939	0.579	578.8	0back	Block1	0back/STIM_000.jpg	99
479.021	0.482	481.7	0back	Block1	0back/STIM_000.jpg	100
483.018	0.708	708.0	0back	Block1	0back/STIM_001.jpg	99
486.748	0.587	586.7	0back	Block1	0back/STIM_001.jpg	99
491.206	0.554	553.9	0back	Block1	0back/STIM_001.jpg	99
495.22	0.582	581.7	0back	Block1	0back/STIM_002.jpg	100
498.992	0.329	329.0	0back	Block1	0back/STIM_002.jpg	99
502.351	0.448	448.0	0back	Block1	0back/STIM_002.jpg	99
505.745	0.677	677.0	0back	Block1	0back/STIM_003.jpg	99
509.019	0.579	578.6	0back	Block1	0back/STIM_003.jpg	99
512.68	0.572	572.3	0back	Block1	0back/STIM_003.jpg	99
516.833	0.495	495.3	0back	Block1	0back/STIM_004.jpg	100
520.48	0.682	682.4	0back	Block1	0back/STIM_004.jpg	99
524.353	0.67	669.8	0back	Block1	0back/STIM_004.jpg	100
528.808	0.549	549.2	0back	Block1	0back/STIM_005.jpg	99
533.349	0.474	474.0	0back	Block1	0back/STIM_005.jpg	100
537.249	0.455	455.3	0back	Block1	0back/STIM_005.jpg	99
541.692	0.529	528.6	0back	Block1	0back/STIM_006.jpg	100
545.633	0.396	395.5	0back	Block1	0back/STIM_006.jpg	100
549.083	0.718	717.5	0back	Block1	0back/STIM_006.jpg	99
551.928	0.3	299.5	0back	Block1	0back/STIM_007.jpg	100
555.411	0.413	412.8	0back	Block1	0back/STIM_007.jpg	100
559.746	0.45	449.8	0back	Block1	0back/STIM_007.jpg	100
563.44	0.421	421.2	0back	Block1	0back/STIM_008.jpg	99
567.402	0.695	694.9	0back	Block1	0back/STIM_008.jpg	99
571.241	0.437	436.9	0back	Block1	0back/STIM_008.jpg	100
574.398	0.429	428.6	0back	Block1	0back/STIM_009.jpg	100
578.449	0.628	628.2	0back	Block1	0back/STIM_009.jpg	99
583.035	0.659	658.8	0back	Block1	0back/STIM_009.jpg	100
587.309	0.578	577.8	0back	Block1	0back/STIM_010.jpg	100
590.422	0.753	753.0	0back	Block1	0back/STIM_010.jpg	100
594.242	0.327	326.6	0back	Block1	0back/STIM_010.jpg	99
598.021	0.546	545.9	0back	Block1	0back/STIM_011.jpg	100
602.298	0.68	679.6	0back	Block1	0back/STIM_011.jpg	99
605.815	0.452	452.1	0back	Block1	0back/STIM_011.jpg	99
609.553	0.502	502.0	0back	Block1	0back/STIM_012.jpg	99
612.682	0.58	580.2	0back	Block1	0back/STIM_012.jpg	99
615.924	0.391	391.2	0back	Block1	0back/STIM_012.jpg	100
619.718	0.504	504.4	0back	Block1	0back/STIM_013.jpg	100
623.959	0.405	404.9	0back	Block1	0back/STIM_013.jpg	99
628.303	0.39	389.8	0back	Block1	0back/STIM_013.jpg	99
631.614	0.396	396.1	0back	Block1	0back/STIM_014.jpg	99
634.453	0.672	672.1	0back	Block1	0back/STIM_014.jpg	99
637.527	0.636	635.6	0back	Block1	0back/STIM_014.jpg	100
641.021	0.534	534.1	0back	Block1	0back/STIM_015.jpg	99
645.258	0.478	478.3	0back	Block1	0back/STIM_015.jpg	99
647.798	0.492	491.8	0back	Block1	0back/STIM_015.jpg	99
651.689	0.489	489.2	0back	Block1	0back/STIM_016.jpg	99
655.534	0.604	603.8	0back	Block1	0back/STIM_016.jpg	99
660.085	0.55	550.0	0back	Block1	0back/STIM_016.jpg	100
663.102	0.767	767.0	0back	Block1	0back/STIM_017.jpg	99
666.501	0.628	628.2	0back	Block1	0back/STIM_017.jpg	99
670.553	0.56	560.5	0back	Block1	0back/STIM_017.jpg	99
673.885	0.356	356.4	0back	Block1	0back/STIM_018.jpg	100
676.576	0.616	616.4	0back	Block1	0back/STIM_018.jpg	99
679.872	0.488	488.1	0back	Block1	0back/STIM_018.jpg	99
683.503	0.698	698.1	0back	Block1	0back/STIM_019.jpg	100
687.947	0.42	419.9	0back	Block1	0back/STIM_019.jpg	100
690.43	0.663	662.7	0back	Block1	0back/STIM_019.jpg	99
694.952	0.569	568.7	2back	Block2	2back/STIM_000.jpg	100
698.567	0.831	830.7	2back	Block2	2back/STIM_000.jpg	99
701.724	0.701	701.1	2back	Block2	2back/STIM_000.jpg	100
706.067	0.84	839.8	2back	Block2	2back/STIM_001.jpg	99
709.841	0.567	567.1	2back	Block2	2back/STIM_001.jpg	99
712.49	0.829	829.2	2back	Block2	2back/STIM_001.jpg	100
715.624	0.747	746.9	2back	Block2	2back/STIM_002.jpg	99
719.871	0.538	538.5	2back	Block2	2back/STIM_002.jpg	99
723.692	0.685	684.6	2back	Block2	2back/STIM_002.jpg	100
726.88	0.758	757.9	2back	Block2	2back/STIM_003.jpg	99
731.355	0.516	516.1	2back	Block2	2back/STIM_003.jpg	100
735.045	0.901	901.4	2back	Block2	2back/STIM_003.jpg	99
738.156	0.464	464.1	2back	Block2	2back/STIM_004.jpg	100
740.777	0.583	582.9	2back	Block2	2back/STIM_004.jpg	99
744.217	0.543	542.9	2back	Block2	2back/STIM_004.jpg	99
747.151	1.021	1020.9	2back	Block2	2back/STIM_005.jpg	100
750.978	0.736	736.4	2back	Block2	2back/STIM_005.jpg	100
754.671	0.726	726.3	2back	Block2	2back/STIM_005.jpg	99
757.577	0.557	557.0	2back	Block2	2back/STIM_006.jpg	100
761.346	0.638	638.5	2back	Block2	2back/STIM_006.jpg	100
764.22	0.78	780.3	2back	Block2	2back/STIM_006.jpg	100
767.984	0.811	811.1	2back	Block2	2back/STIM_007.jpg	99
771.817	0.951	951.0	2back	Block2	2back/STIM_007.jpg	100
775.753	0.738	738.3	2back	Block2	2back/STIM_007.jpg	100
778.978	0.945	945.2	2back	Block2	2back/STIM_008.jpg	100
782.641	0.96	959.5	2back	Block2	2back/STIM_008.jpg	100
786.338	0.867	867.2	2back	Block2	2back/STIM_008.jpg	99
790.181	0.663	663.0	2back	Block2	2back/STIM_009.jpg	99
794.325	0.582	581.8	2back	Block2	2back/STIM_009.jpg	99
797.55	0.444	444.4	2back	Block2	2back/STIM_009.jpg	99
801.075	0.657	657.4	2back	Block2	2back/STIM_010.jpg	100
804.358	0.53	530.1	2back	Block2	2back/STIM_010.jpg	100
807.527	0.968	967.9	2back	Block2	2back/STIM_010.jpg	99
810.789	0.663	662.9	2back	Block2	2back/STIM_011.jpg	99
814.44	0.797	796.7	2back	Block2	2back/STIM_011.jpg	99
818.793	0.642	642.5	2back	Block2	2back/STIM_011.jpg	99
822.327	0.891	891.1	2back	Block2	2back/STIM_012.jpg	100
827.143	0.648	648.0	2back	Block2	2back/STIM_012.jpg	99
830.23	0.894	893.8	2back	Block2	2back/STIM_012.jpg	100
833.487	0.95	949.6	2back	Block2	2back/STIM_013.jpg	100
838.164	0.76	760.1	2back	Block2	2back/STIM_013.jpg	99
841.712	0.479	479.4	2back	Block2	2back/STIM_013.jpg	100
845.588	0.704	703.7	2back	Block2	2back/STIM_014.jpg	100
848.458	0.905	905.1	2back	Block2	2back/STIM_014.jpg	100
852.929	0.878	877.6	2back	Block2	2back/STIM_014.jpg	100
856.895	0.52	520.2	2back	Block2	2back/STIM_015.jpg	99
859.673	0.817	816.6	2back	Block2	2back/STIM_015.jpg	100
862.92	0.565	564.8	2back	Block2	2back/STIM_015.jpg	99
867.225	0.921	921.1	2back	Block2	2back/STIM_016.jpg	100
870.408	0.722	721.8	2back	Block2	2back/STIM_016.jpg	99
873.886	0.588	588.5	2back	Block2	2back/STIM_016.jpg	99
876.79	0.967	966.6	2back	Block2	2back/STIM_017.jpg	99
880.074	0.885	885.3	2back	Block2	2back/STIM_017.jpg	100
883.577	0.81	810.3	2back	Block2	2back/STIM_017.jpg	100
887.671	0.92	920.0	2back	Block2	2back/STIM_018.jpg	99
891.857	0.837	837.2	2back	Block2	2back/STIM_018.jpg	100
896.268	0.662	662.1	2back	Block2	2back/STIM_018.jpg	99
900.425	0.926	926.5	2back	Block2	2back/STIM_019.jpg	100
903.935	0.786	785.9	2back	Block2	2back/STIM_019.jpg	99
907.677	0.447	447.2	2back	Block2	2back/STIM_019.jpg	99
910.647	0.927	927.0	2back	Block2	2back/STIM_020.jpg	99
914.048	0.827	827.4	2back	Block2	2back/STIM_020.jpg	100
917.428	0.857	856.9	2back	Block2	2back/STIM_020.jpg	100
921.951	0.94	939.5	2back	Block2	2back/STIM_021.jpg	100
925.748	0.613	613.3	2back	Block2	2back/STIM_021.jpg	100
928.692	0.855	854.6	2back	Block2	2back/STIM_021.jpg	100
932.838	1.089	1088.7	2back	Block2	2back/STIM_022.jpg	100
937.874	0.394	393.7	2back	Block2	2back/STIM_022.jpg	100
941.342	0.729	729.3	2back	Block2	2back/STIM_022.jpg	100
944.443	0.598	597.5	2back	Block2	2back/STIM_023.jpg	99
947.979	0.854	853.8	2back	Block2	2back/STIM_023.jpg	99
952.458	0.648	648.2	2back	Block2	2back/STIM_023.jpg	99
955.848	0.641	640.6	2back	Block2	2back/STIM_024.jpg	99
958.785	0.65	650.5	2back	Block2	2back/STIM_024.jpg	100
963.201	0.605	605.2	2back	Block2	2back/STIM_024.jpg	99
966.762	0.49	489.8	2back	Block2	2back/STIM_025.jpg	100
970.449	0.916	915.7	2back	Block2	2back/STIM_025.jpg	99
975.305	0.62	620.4	2back	Block2	2back/STIM_025.jpg	99
979.788	0.937	936.8	2back	Block2	2back/STIM_026.jpg	99
983.279	0.534	534.0	2back	Block2	2back/STIM_026.jpg	99
985.916	0.882	881.8	2back	Block2	2back/STIM_026.jpg	100
989.072	0.852	852.3	2back	Block2	2back/STIM_027.jpg	99
992.298	0.885	884.6	2back	Block2	2back/STIM_027.jpg	100
995.635	0.921	921.1	2back	Block2	2back/STIM_027.jpg	99
1000.376	0.76	760.4	2back	Block2	2back/STIM_028.jpg	99
1004.562	0.68	679.5	2back	Block2	2back/STIM_028.jpg	100
1008.814	0.817	817.0	2back	Block2	2back/STIM_028.jpg	99
1013.527	0.583	583.0	2back	Block2	2back/STIM_029.jpg	99
1016.611	0.858	858.0	2back	Block2	2back/STIM_029.jpg	99
1021.259	0.899	899.1	2back	Block2	2back/STIM_029.jpg	100
1024.839	0.634	634.4	2back	Block2	2back/STIM_030.jpg	99
1028.106	0.796	796.4	2back	Block2	2back/STIM_030.jpg	99
1031.207	0.634	633.7	2back	Block2	2back/STIM_030.jpg	99
1035.165	0.554	553.8	2back	Block2	2back/STIM_031.jpg	100
1039.612	0.508	508.3	2back	Block2	2back/STIM_031.jpg	100
1044.239	0.527	526.9	2back	Block2	2back/STIM_031.jpg	99
1048.73	0.439	438.9	2back	Block2	2back/STIM_032.jpg	99
1052.253	1.078	1078.2	2back	Block2	2back/STIM_032.jpg	99
1055.994	0.505	505.4	2back	Block2	2back/STIM_032.jpg	100
1058.99	0.832	831.5	2back	Block2	2back/STIM_033.jpg	100
1062.911	0.511	511.5	2back	Block2	2back/STIM_033.jpg	99
1066.679	0.528	528.4	2back	Block2	2back/STIM_033.jpg	100
1070.652	0.671	670.6	2back	Block2	2back/STIM_034.jpg	100
1074.986	0.591	591.4	2back	Block2	2back/STIM_034.jpg	99
1078.343	0.921	920.9	2back	Block2	2back/STIM_034.jpg	99
1083.023	0.611	611.4	2back	Block2	2back/STIM_035.jpg	100
1087.636	0.963	963.4	2back	Block2	2back/STIM_035.jpg	99
1091.821	0.422	421.5	2back	Block2	2back/STIM_035.jpg	100
1094.796	0.575	575.0	2back	Block2	2back/STIM_036.jpg	99
1097.972	0.836	835.6	2back	Block2	2back/STIM_036.jpg	100
1101.09	0.582	582.4	2back	Block2	2back/STIM_036.jpg	99
1105.608	0.844	843.8	2back	Block2	2back/STIM_037.jpg	99
1110.486	0.754	753.6	2back	Block2	2back/STIM_037.jpg	100
1114.101	0.603	603.1	2back	Block2	2back/STIM_037.jpg	100
1118.69	0.996	995.5	2back	Block2	2back/STIM_038.jpg	99
1123.357	0.585	584.7	2back	Block2	2back/STIM_038.jpg	99
1126.444	0.528	528.1	2back	Block2	2back/STIM_038.jpg	100
1129.149	0.981	981.2	2back	Block2	2back/STIM_039.jpg	99
1133.375	0.597	597.4	2back	Block2	2back/STIM_039.jpg	99
1136.475	0.481	481.3	2back	Block2	2back/STIM_039.jpg	99
1140.489	0.62	620.0	0back	Block2	0back/STIM_000.jpg	99
1143.147	0.425	425.2	0back	Block2	0back/STIM_000.jpg	99
1147.398	0.67	670.5	0back	Block2	0back/STIM_000.jpg	99
1150.6	0.678	678.4	0back	Block2	0back/STIM_001.jpg	99
1153.572	0.604	603.6	0back	Block2	0back/STIM_001.jpg	100
1157.349	0.265	265.1	0back	Block2	0back/STIM_001.jpg	99
1159.905	0.519	519.1	0back	Block2	0back/STIM_002.jpg	100
1164.149	0.636	636.4	0back	Block2	0back/STIM_002.jpg	99
1168.45	0.562	562.0	0back	Block2	0back/STIM_002.jpg	100
1172.107	0.714	713.6	0back	Block2	0back/STIM_003.jpg	100
1175.411	0.461	461.3	0back	Block2	0back/STIM_003.jpg	100
1178.28	0.542	541.9	0back	Block2	0back/STIM_003.jpg	100
1182.035	0.639	639.0	0back	Block2	0back/STIM_004.jpg	100
1185.707	0.621	620.6	0back	Block2	0back/STIM_004.jpg	100
1190.274	0.506	506.3	0back	Block2	0back/STIM_004.jpg	99
1193.281	0.658	658.2	0back	Block2	0back/STIM_005.jpg	99
1196.773	0.393	392.7	0back	Block2	0back/STIM_005.jpg	100
1200.668	0.602	602.0	0back	Block2	0back/STIM_005.jpg	99
1204.852	0.576	575.7	0back	Block2	0back/STIM_006.jpg	99
1207.829	0.447	446.8	0back	Block2	0back/STIM_006.jpg	99
1210.361	0.687	687.3	0back	Block2	0back/STIM_006.jpg	100
1214.513	0.488	487.6	0back	Block2	0back/STIM_007.jpg	100
1217.385	0.528	528.4	0back	Block2	0back/STIM_007.jpg	100
1220.405	0.556	556.1	0back	Block2	0back/STIM_007.jpg	99
1224.698	0.487	487.3	0back	Block2	0back/STIM_008.jpg	100
1228.327	0.556	555.5	0back	Block2	0back/STIM_008.jpg	99
1232.094	0.714	713.5	0back	Block2	0back/STIM_008.jpg	99
1235.111	0.744	744.1	0back	Block2	0back/STIM_009.jpg	99
1239.514	0.482	482.5	0back	Block2	0back/STIM_009.jpg	100
1243.535	0.495	494.6	0back	Block2	0back/STIM_009.jpg	99
1246.892	0.629	628.9	0back	Block2	0back/STIM_010.jpg	100
1251.211	0.535	535.2	0back	Block2	0back/STIM_010.jpg	99
1255.737	0.47	469.8	0back	Block2	0back/STIM_010.jpg	100
1259.977	0.686	685.8	0back	Block2	0back/STIM_011.jpg	99
1263.809	0.424	424.0	0back	Block2	0back/STIM_011.jpg	100
1266.639	0.587	587.4	0back	Block2	0back/STIM_011.jpg	100
1269.931	0.566	565.9	0back	Block2	0back/STIM_012.jpg	100
1273.883	0.457	457.2	0back	Block2	0back/STIM_012.jpg	99
1278.055	0.344	344.3	0back	Block2	0back/STIM_012.jpg	100
1280.833	0.53	530.0	0back	Block2	0back/STIM_013.jpg	99
1284.369	0.518	517.7	0back	Block2	0back/STIM_013.jpg	99
1287.88	0.355	354.7	0back	Block2	0back/STIM_013.jpg	99
1292.07	0.518	518.1	0back	Block2	0back/STIM_014.jpg	100
1294.98	0.714	713.9	0back	Block2	0back/STIM_014.jpg	100
1298.095	0.443	443.3	0back	Block2	0back/STIM_014.jpg	100
1301.093	0.692	691.8	0back	Block2	0back/STIM_015.jpg	99
1305.498	0.509	508.9	0back	Block2	0back/STIM_015.jpg	100
1309.936	0.354	353.9	0back	Block2	0back/STIM_015.jpg	100
1313.402	0.705	704.7	0back	Block2	0back/STIM_016.jpg	99
1316.24	0.722	721.5	0back	Block2	0back/STIM_016.jpg	99
1319.157	0.584	584.1	0back	Block2	0back/STIM_016.jpg	100
1322.685	0.405	404.8	0back	Block2	0back/STIM_017.jpg	99
1325.453	0.678	677.8	0back	Block2	0back/STIM_017.jpg	100
1329.842	0.446	445.8	0back	Block2	0back/STIM_017.jpg	100
1332.603	0.541	540.9	0back	Block2	0back/STIM_018.jpg	100
1335.349	0.358	357.7	0back	Block2	0back/STIM_018.jpg	100
1338.255	0.785	784.6	0back	Block2	0back/STIM_018.jpg	100
1342.879	0.423	423.3	0back	Block2	0back/STIM_019.jpg	99
1346.33	0.576	576.2	0back	Block2	0back/STIM_019.jpg	100
1349.482	0.634	634.3	0back	Block2	0back/STIM_019.jpg	99
1352.305	0.75	749.7	2back	Block3	2back/STIM_000.jpg	99
1356.414	0.743	742.9	2back	Block3	2back/STIM_000.jpg	99
1360.683	0.376	376.0	2back	Block3	2back/STIM_000.jpg	99
1364.503	0.754	753.6	2back	Block3	2back/STIM_001.jpg	99
1367.68	0.405	405.1	2back	Block3	2back/STIM_001.jpg	100
1371.398	0.768	767.6	2back	Block3	2back/STIM_001.jpg	99
1374.897	0.799	798.9	2back	Block3	2back/STIM_002.jpg	100
1378.622	0.489	488.9	2back	Block3	2back/STIM_002.jpg	99
1381.757	0.488	488.1	2back	Block3	2back/STIM_002.jpg	100
1385.399	0.705	705.4	2back	Block3	2back/STIM_003.jpg	99
1388.817	0.433	432.8	2back	Block3	2back/STIM_003.jpg	100
1393.157	0.539	539.4	2back	Block3	2back/STIM_003.jpg	99
1397.115	0.574	574.4	2back	Block3	2back/STIM_004.jpg	99
1401.424	0.528	528.5	2back	Block3	2back/STIM_004.jpg	100
1405.356	0.48	479.6	2back	Block3	2back/STIM_004.jpg	99
1408.273	0.768	767.7	2back	Block3	2back/STIM_005.jpg	99
1413.16	0.928	928.1	2back	Block3	2back/STIM_005.jpg	100
1417.121	0.432	432.5	2back	Block3	2back/STIM_005.jpg	100
1420.923	0.771	771.2	2back	Block3	2back/STIM_006.jpg	99
1424.548	0.457	456.8	2back	Block3	2back/STIM_006.jpg	100
1428.409	0.627	627.4	2back	Block3	2back/STIM_006.jpg	99
1432.95	0.831	830.6	2back	Block3	2back/STIM_007.jpg	99
1437.163	0.462	462.1	2back	Block3	2back/STIM_007.jpg	99
1439.806	0.599	599.1	2back	Block3	2back/STIM_007.jpg	100
1444.321	0.686	686.0	2back	Block3	2back/STIM_008.jpg	100
1448.859	0.586	585.8	2back	Block3	2back/STIM_008.jpg	99
1452.732	0.833	832.8	2back	Block3	2back/STIM_008.jpg	99
1457.407	0.422	421.9	2back	Block3	2back/STIM_009.jpg	100
1461.766	0.775	774.9	2back	Block3	2back/STIM_009.jpg	99
1465.091	0.638	638.0	2back	Block3	2back/STIM_009.jpg	100
1469.727	0.773	772.8	2back	Block3	2back/STIM_010.jpg	99
1473.777	0.5	500.3	2back	Block3	2back/STIM_010.jpg	100
1476.905	0.65	650.0	2back	Block3	2back/STIM_010.jpg	100
1479.938	0.818	818.1	2back	Block3	2back/STIM_011.jpg	99
1483.293	0.721	721.1	2back	Block3	2back/STIM_011.jpg	99
1487.868	0.616	615.9	2back	Block3	2back/STIM_011.jpg	100
1490.646	0.669	668.7	2back	Block3	2back/STIM_012.jpg	100
1493.537	0.491	490.7	2back	Block3	2back/STIM_012.jpg	100
1497.882	0.312	312.5	2back	Block3	2back/STIM_012.jpg	100
1502.216	0.745	745.3	2back	Block3	2back/STIM_013.jpg	99
1505.296	0.916	916.0	2back	Block3	2back/STIM_013.jpg	99
1510.164	0.366	365.9	2back	Block3	2back/STIM_013.jpg	99
1514.447	0.732	731.6	2back	Block3	2back/STIM_014.jpg	99
1518.561	0.509	509.4	2back	Block3	2back/STIM_014.jpg	99
1522.031	0.692	691.6	2back	Block3	2back/STIM_014.jpg	100
1526.749	0.816	816.2	2back	Block3	2back/STIM_015.jpg	99
1530.939	0.788	787.6	2back	Block3	2back/STIM_015.jpg	99
1535.441	0.602	602.5	2back	Block3	2back/STIM_015.jpg	99
1539.61	0.919	919.0	2back	Block3	2back/STIM_016.jpg	100
1543.705	0.722	721.6	2back	Block3	2back/STIM_016.jpg	99
1546.708	0.412	412.5	2back	Block3	2back/STIM_016.jpg	99
1550.764	0.836	835.5	2back	Block3	2back/STIM_017.jpg	99
1554.144	0.622	621.5	2back	Block3	2back/STIM_017.jpg	99
1558.861	0.805	805.3	2back	Block3	2back/STIM_017.jpg	100
1561.787	0.44	440.4	2back	Block3	2back/STIM_018.jpg	100
1564.565	0.444	444.0	2back	Block3	2back/STIM_018.jpg	100
1568.757	0.641	641.0	2back	Block3	2back/STIM_018.jpg	99
1571.867	0.393	392.6	2back	Block3	2back/STIM_019.jpg	100
1575.476	0.676	675.9	2back	Block3	2back/STIM_019.jpg	100
1578.529	0.714	714.5	2back	Block3	2back/STIM_019.jpg	99
1581.57	0.887	887.4	2back	Block3	2back/STIM_020.jpg	99
1586.422	0.661	660.8	2back	Block3	2back/STIM_020.jpg	99
1589.923	0.38	380.1	2back	Block3	2back/STIM_020.jpg	99
1592.48	0.758	757.5	2back	Block3	2back/STIM_021.jpg	100
1596.177	0.485	485.0	2back	Block3	2back/STIM_021.jpg	99
1599.284	0.619	619.1	2back	Block3	2back/STIM_021.jpg	100
1603.715	0.825	825.1	2back	Block3	2back/STIM_022.jpg	100
1608.315	0.872	871.6	2back	Block3	2back/STIM_022.jpg	100
1612.589	0.45	449.9	2back	Block3	2back/STIM_022.jpg	100
1615.628	0.756	755.7	2back	Block3	2back/STIM_023.jpg	100
1618.575	0.438	437.6	2back	Block3	2back/STIM_023.jpg	99
1621.182	0.77	770.0	2back	Block3	2back/STIM_023.jpg	100
1625.312	0.702	702.4	2back	Block3	2back/STIM_024.jpg	99
1630.016	0.879	879.1	2back	Block3	2back/STIM_024.jpg	99
1634.231	0.568	567.7	2back	Block3	2back/STIM_024.jpg	100
1638.431	0.543	542.7	2back	Block3	2back/STIM_025.jpg	99
1642.266	0.407	406.9	2back	Block3	2back/STIM_025.jpg	100
1646.453	0.484	484.3	2back	Block3	2back/STIM_025.jpg	99
1650.001	0.554	553.8	2back	Block3	2back/STIM_026.jpg	100
1653.136	0.723	723.4	2back	Block3	2back/STIM_026.jpg	100
1657.465	0.837	837.1	2back	Block3	2back/STIM_026.jpg	100
1661.278	0.804	803.8	2back	Block3	2back/STIM_027.jpg	100
1665.265	0.306	305.5	2back	Block3	2back/STIM_027.jpg	99
1668.434	0.451	451.1	2back	Block3	2back/STIM_027.jpg	99
1671.632	0.828	827.7	2back	Block3	2back/STIM_028.jpg	99
1675.383	0.485	485.1	2back	Block3	2back/STIM_028.jpg	100
1678.715	0.793	792.6	2back	Block3	2back/STIM_028.jpg	100
1682.995	0.779	779.0	2back	Block3	2back/STIM_029.jpg	99
1686.541	0.42	420.4	2back	Block3	2back/STIM_029.jpg	100
1690.762	0.944	943.7	2back	Block3	2back/STIM_029.jpg	100
1695.076	0.364	363.9	2back	Block3	2back/STIM_030.jpg	100
1698.044	0.718	718.2	2back	Block3	2back/STIM_030.jpg	100
1700.998	0.486	485.9	2back	Block3	2back/STIM_030.jpg	100
1704.332	0.723	722.7	2back	Block3	2back/STIM_031.jpg	100
1708.888	0.73	729.5	2back	Block3	2back/STIM_031.jpg	99
1712.153	0.643	643.3	2back	Block3	2back/STIM_031.jpg	99
1716.339	0.399	398.7	2back	Block3	2back/STIM_032.jpg	99
1718.81	0.572	572.3	2back	Block3	2back/STIM_032.jpg	99
1722.93	0.391	391.0	2back	Block3	2back/STIM_032.jpg	99
1727.058	0.498	498.4	2back	Block3	2back/STIM_033.jpg	99
1730.99	0.369	369.4	2back	Block3	2back/STIM_033.jpg	99
1733.859	0.322	322.2	2back	Block3	2back/STIM_033.jpg	100
1737.649	0.561	561.4	2back	Block3	2back/STIM_034.jpg	99
1741.716	0.7	700.4	2back	Block3	2back/STIM_034.jpg	99
1746.311	0.496	495.7	2back	Block3	2back/STIM_034.jpg	100
1750.754	0.449	448.8	2back	Block3	2back/STIM_035.jpg	100
1754.844	0.465	464.6	2back	Block3	2back/STIM_035.jpg	99
1758.651	0.564	563.6	2back	Block3	2back/STIM_035.jpg	100
1762.419	0.592	592.1	2back	Block3	2back/STIM_036.jpg	99
1766.371	0.89	889.9	2back	Block3	2back/STIM_036.jpg	99
1770.184	0.585	584.8	2back	Block3	2back/STIM_036.jpg	100
1773.535	0.694	693.9	2back	Block3	2back/STIM_037.jpg	99
1776.336	0.514	514.2	2back	Block3	2back/STIM_037.jpg	99
1780.589	0.87	870.0	2back	Block3	2back/STIM_037.jpg	99
1785.44	0.606	605.8	2back	Block3	2back/STIM_038.jpg	99
1788.876	0.731	730.9	2back	Block3	2back/STIM_038.jpg	100
1792.073	0.414	413.7	2back	Block3	2back/STIM_038.jpg	100
1795.963	0.772	772.3	2back	Block3	2back/STIM_039.jpg	99
1800.374	0.512	512.1	2back	Block3	2back/STIM_039.jpg	100
1804.729	0.628	627.5	2back	Block3	2back/STIM_039.jpg	100
1809.112	0.552	552.3	0back	Block3	0back/STIM_000.jpg	100
1812.78	0.318	317.7	0back	Block3	0back/STIM_000.jpg	99
1815.299	0.334	333.9	0back	Block3	0back/STIM_000.jpg	99
1818.317	0.458	457.6	0back	Block3	0back/STIM_001.jpg	100
1822.32	0.634	633.5	0back	Block3	0back/STIM_001.jpg	99
1826.543	0.692	692.4	0back	Block3	0back/STIM_001.jpg	99
1829.741	0.46	460.4	0back	Block3	0back/STIM_002.jpg	99
1832.575	0.393	393.1	0back	Block3	0back/STIM_002.jpg	100
1835.693	0.378	377.6	0back	Block3	0back/STIM_002.jpg	99
1838.401	0.335	334.7	0back	Block3	0back/STIM_003.jpg	99
1841.395	0.495	495.1	0back	Block3	0back/STIM_003.jpg	100
1845.832	0.566	566.1	0back	Block3	0back/STIM_003.jpg	100
1850.108	0.733	732.8	0back	Block3	0back/STIM_004.jpg	99
1853.669	0.623	622.7	0back	Block3	0back/STIM_004.jpg	99
1857.677	0.353	352.9	0back	Block3	0back/STIM_004.jpg	100
1861.803	0.393	393.2	0back	Block3	0back/STIM_005.jpg	100
1864.434	0.319	319.2	0back	Block3	0back/STIM_005.jpg	100
1868.391	0.552	552.4	0back	Block3	0back/STIM_005.jpg	99
1872.18	0.752	752.0	0back	Block3	0back/STIM_006.jpg	100
1875.145	0.546	546.1	0back	Block3	0back/STIM_006.jpg	99
1877.998	0.562	561.7	0back	Block3	0back/STIM_006.jpg	99
1880.766	0.684	684.5	0back	Block3	0back/STIM_007.jpg	100
1884.718	0.586	586.1	0back	Block3	0back/STIM_007.jpg	99
1888.322	0.71	709.5	0back	Block3	0back/STIM_007.jpg	100
1892.721	0.632	632.2	0back	Block3	0back/STIM_008.jpg	99
1895.422	0.545	544.6	0back	Block3	0back/STIM_008.jpg	99
1899.576	0.368	368.2	0back	Block3	0back/STIM_008.jpg	100
1902.813	0.456	456.0	0back	Block3	0back/STIM_009.jpg	99
1905.6	0.442	441.9	0back	Block3	0back/STIM_009.jpg	99
1908.563	0.607	607.1	0back	Block3	0back/STIM_009.jpg	100
1911.174	0.46	460.4	0back	Block3	0back/STIM_010.jpg	99
1914.317	0.608	607.9	0back	Block3	0back/STIM_010.jpg	100
1917.702	0.697	697.4	0back	Block3	0back/STIM_010.jpg	100
1921.329	0.472	472.3	0back	Block3	0back/STIM_011.jpg	100
1925.754	0.422	422.0	0back	Block3	0back/STIM_011.jpg	99
1929.757	0.593	592.6	0back	Block3	0back/STIM_011.jpg	99
1934.106	0.652	651.8	0back	Block3	0back/STIM_012.jpg	99
1938.462	0.349	348.9	0back	Block3	0back/STIM_012.jpg	100
1942.328	0.695	694.6	0back	Block3	0back/STIM_012.jpg	99
1946.143	0.594	594.1	0back	Block3	0back/STIM_013.jpg	99
1950.264	0.413	412.9	0back	Block3	0back/STIM_013.jpg	100
1954.365	0.607	607.3	0back	Block3	0back/STIM_013.jpg	99
1958.311	0.719	719.4	0back	Block3	0back/STIM_014.jpg	100
1962.616	0.752	751.8	0back	Block3	0back/STIM_014.jpg	100
1967.118	0.609	609.1	0back	Block3	0back/STIM_014.jpg	99
1969.94	0.511	511.5	0back	Block3	0back/STIM_015.jpg	99
1972.653	0.718	717.8	0back	Block3	0back/STIM_015.jpg	99
1977.405	0.693	693.2	0back	Block3	0back/STIM_015.jpg	100
1980.719	0.497	497.3	0back	Block3	0back/STIM_016.jpg	99
1985.016	0.432	432.3	0back	Block3	0back/STIM_016.jpg	99
1987.904	0.552	551.8	0back	Block3	0back/STIM_016.jpg	100
1990.768	0.402	401.5	0back	Block3	0back/STIM_017.jpg	100
1995.078	0.391	391.1	0back	Block3	0back/STIM_017.jpg	99
1998.327	0.606	606.5	0back	Block3	0back/STIM_017.jpg	99
2002.4	0.584	583.8	0back	Block3	0back/STIM_018.jpg	99
2006.868	0.585	585.1	0back	Block3	0back/STIM_018.jpg	99
2009.849	0.462	461.9	0back	Block3	0back/STIM_018.jpg	100
2013.803	0.388	388.1	0back	Block3	0back/STIM_019.jpg	100
2016.773	0.471	471.2	0back	Block3	0back/STIM_019.jpg	100
2020.594	0.719	719.3	0back	Block3	0back/STIM_019.jpg	99
2024.719	0.725	724.6	2back	Block4	2back/STIM_000.jpg	99
2028.552	0.494	494.0	2back	Block4	2back/STIM_000.jpg	100
2031.54	0.831	831.1	2back	Block4	2back/STIM_000.jpg	100
2036.327	0.554	554.5	2back	Block4	2back/STIM_001.jpg	99
2039.816	0.475	475.1	2back	Block4	2back/STIM_001.jpg	100
2043.794	0.594	593.6	2back	Block4	2back/STIM_001.jpg	99
2047.759	0.451	450.9	2back	Block4	2back/STIM_002.jpg	100
2050.554	0.675	675.3	2back	Block4	2back/STIM_002.jpg	100
2053.41	0.606	605.6	2back	Block4	2back/STIM_002.jpg	99
2057.017	0.82	819.8	2back	Block4	2back/STIM_003.jpg	100
2061.569	0.566	566.3	2back	Block4	2back/STIM_003.jpg	99
2065.537	0.427	426.9	2back	Block4	2back/STIM_003.jpg	100
2069.861	0.829	829.1	2back	Block4	2back/STIM_004.jpg	100
2074.233	0.568	567.8	2back	Block4	2back/STIM_004.jpg	99
2077.992	0.675	675.2	2back	Block4	2back/STIM_004.jpg	99
2082.417	0.42	419.7	2back	Block4	2back/STIM_005.jpg	99
2086.362	0.569	568.8	2back	Block4	2back/STIM_005.jpg	100
2090.845	0.522	521.5	2back	Block4	2back/STIM_005.jpg	100
2094.195	0.739	739.3	2back	Block4	2back/STIM_006.jpg	100
2097.695	0.514	514.2	2back	Block4	2back/STIM_006.jpg	99
2101.532	0.583	582.6	2back	Block4	2back/STIM_006.jpg	99
2105.157	0.576	576.1	2back	Block4	2back/STIM_007.jpg	100
2109.184	0.511	510.9	2back	Block4	2back/STIM_007.jpg	100
2112.173	0.922	922.5	2back	Block4	2back/STIM_007.jpg	100
2117.003	0.689	689.2	2back	Block4	2back/STIM_008.jpg	100
2121.664	0.889	888.8	2back	Block4	2back/STIM_008.jpg	100
2125.096	0.859	858.8	2back	Block4	2back/STIM_008.jpg	99
2129.748	0.548	548.3	2back	Block4	2back/STIM_009.jpg	99
2134.134	0.68	680.1	2back	Block4	2back/STIM_009.jpg	99
2137.257	0.676	675.5	2back	Block4	2back/STIM_009.jpg	100
2140.276	0.8	799.7	2back	Block4	2back/STIM_010.jpg	100
2144.187	0.535	535.0	2back	Block4	2back/STIM_010.jpg	100
2147.986	0.373	373.2	2back	Block4	2back/STIM_010.jpg	99
2151.97	0.593	593.1	2back	Block4	2back/STIM_011.jpg	100
2155.413	0.499	498.8	2back	Block4	2back/STIM_011.jpg	99
2159.697	0.54	540.5	2back	Block4	2back/STIM_011.jpg	99
2163.973	0.596	595.6	2back	Block4	2back/STIM_012.jpg	100
2167.674	0.72	720.5	2back	Block4	2back/STIM_012.jpg	100
2172.444	0.676	675.8	2back	Block4	2back/STIM_012.jpg	99
2176.622	0.457	457.2	2back	Block4	2back/STIM_013.jpg	99
2180.043	0.877	876.8	2back	Block4	2back/STIM_013.jpg	100
2184.4	0.795	794.9	2back	Block4	2back/STIM_013.jpg	99
2187.375	0.799	799.1	2back	Block4	2back/STIM_014.jpg	99
2192.113	0.463	463.3	2back	Block4	2back/STIM_014.jpg	100
2195.933	0.829	828.7	2back	Block4	2back/STIM_014.jpg	100
2200.815	0.702	701.9	2back	Block4	2back/STIM_015.jpg	100
2204.655	0.897	896.6	2back	Block4	2back/STIM_015.jpg	99
2209.255	0.599	599.2	2back	Block4	2back/STIM_015.jpg	100
2212.07	0.696	695.5	2back	Block4	2back/STIM_016.jpg	99
2216.307	0.518	518.1	2back	Block4	2back/STIM_016.jpg	99
2219.327	0.535	535.2	2back	Block4	2back/STIM_016.jpg	99
2222.416	0.545	545.4	2back	Block4	2back/STIM_017.jpg	99
2226.716	0.503	502.9	2back	Block4	2back/STIM_017.jpg	100
2231.069	0.584	584.1	2back	Block4	2back/STIM_017.jpg	100
2235.038	0.869	868.9	2back	Block4	2back/STIM_018.jpg	100
2238.605	0.619	619.3	2back	Block4	2back/STIM_018.jpg	99
2242.574	0.385	385.2	2back	Block4	2back/STIM_018.jpg	100
2246.086	0.882	882.4	2back	Block4	2back/STIM_019.jpg	100
2250.616	0.546	545.9	2back	Block4	2back/STIM_019.jpg	99
2253.407	0.455	455.4	2back	Block4	2back/STIM_019.jpg	99
2257.673	0.535	534.6	2back	Block4	2back/STIM_020.jpg	99
2261.823	0.434	433.9	2back	Block4	2back/STIM_020.jpg	100
2265.733	0.67	669.6	2back	Block4	2back/STIM_020.jpg	100
2269.291	0.516	516.1	2back	Block4	2back/STIM_021.jpg	99
2273.306	0.654	654.2	2back	Block4	2back/STIM_021.jpg	99
2277.733	0.707	707.3	2back	Block4	2back/STIM_021.jpg	100
2280.664	0.617	617.1	2back	Block4	2back/STIM_022.jpg	99
2284.579	0.717	717.4	2back	Block4	2back/STIM_022.jpg	99
2288.427	0.456	456.0	2back	Block4	2back/STIM_022.jpg	100
2292.682	0.341	341.0	2back	Block4	2back/STIM_023.jpg	99
2296.514	0.642	641.9	2back	Block4	2back/STIM_023.jpg	100
2301.028	0.589	589.3	2back	Block4	2back/STIM_023.jpg	99
2304.68	0.394	393.5	2back	Block4	2back/STIM_024.jpg	99
2308.504	0.479	478.9	2back	Block4	2back/STIM_024.jpg	100
2311.465	0.537	536.6	2back	Block4	2back/STIM_024.jpg	99
2315.394	0.421	421.2	2back	Block4	2back/STIM_025.jpg	99
2319.441	0.858	858.1	2back	Block4	2back/STIM_025.jpg	100
2323.923	0.819	819.3	2back	Block4	2back/STIM_025.jpg	99
2327.701	0.411	410.7	2back	Block4	2back/STIM_026.jpg	99
2331.132	0.416	416.5	2back	Block4	2back/STIM_026.jpg	100
2334.849	0.74	739.6	2back	Block4	2back/STIM_026.jpg	100
2339.305	0.81	809.5	2back	Block4	2back/STIM_027.jpg	100
2343.29	0.753	753.0	2back	Block4	2back/STIM_027.jpg	99
2346.626	0.527	526.8	2back	Block4	2back/STIM_027.jpg	100
2350.442	0.668	668.5	2back	Block4	2back/STIM_028.jpg	100
2353.435	0.54	540.5	2back	Block4	2back/STIM_028.jpg	99
2356.505	0.636	636.4	2back	Block4	2back/STIM_028.jpg	100
2359.868	0.732	731.7	2back	Block4	2back/STIM_029.jpg	100
2364.149	0.343	342.8	2back	Block4	2back/STIM_029.jpg	99
2367.013	0.568	568.5	2back	Block4	2back/STIM_029.jpg	100
2369.907	0.639	639.3	2back	Block4	2back/STIM_030.jpg	99
2372.955	0.511	510.8	2back	Block4	2back/STIM_030.jpg	100
2376.392	0.767	767.1	2back	Block4	2back/STIM_030.jpg	99
2380.983	0.672	672.1	2back	Block4	2back/STIM_031.jpg	99
2385.452	0.621	621.2	2back	Block4	2back/STIM_031.jpg	100
2389.287	0.777	776.7	2back	Block4	2back/STIM_031.jpg	99
2393.082	0.768	768.0	2back	Block4	2back/STIM_032.jpg	100
2397.064	0.762	761.8	2back	Block4	2back/STIM_032.jpg	99
2401.438	0.434	433.9	2back	Block4	2back/STIM_032.jpg	99
2405.152	0.711	710.7	2back	Block4	2back/STIM_033.jpg	99
2408.579	0.424	423.9	2back	Block4	2back/STIM_033.jpg	99
2411.074	0.561	561.3	2back	Block4	2back/STIM_033.jpg	99
2415.197	0.763	762.7	2back	Block4	2back/STIM_034.jpg	99
2418.213	0.726	725.5	2back	Block4	2back/STIM_034.jpg	99
2422.023	0.666	665.6	2back	Block4	2back/STIM_034.jpg	100
2426.503	0.88	880.4	2back	Block4	2back/STIM_035.jpg	100
2430.239	0.627	627.4	2back	Block4	2back/STIM_035.jpg	99
2434.539	0.551	551.3	2back	Block4	2back/STIM_035.jpg	100
2437.929	0.45	450.0	2back	Block4	2back/STIM_036.jpg	99
2440.952	0.434	434.1	2back	Block4	2back/STIM_036.jpg	100
2443.66	0.542	541.8	2back	Block4	2back/STIM_036.jpg	100
2447.136	0.473	472.6	2back	Block4	2back/STIM_037.jpg	100
2450.309	0.721	721.2	2back	Block4	2back/STIM_037.jpg	100
2453.701	0.716	715.7	2back	Block4	2back/STIM_037.jpg	100
2458.407	0.7	699.6	2back	Block4	2back/STIM_038.jpg	99
2462.431	0.72	719.8	2back	Block4	2back/STIM_038.jpg	99
2467.09	0.725	725.0	2back	Block4	2back/STIM_038.jpg	100
2470.686	0.367	367.4	2back	Block4	2back/STIM_039.jpg	100
2474.481	0.724	723.5	2back	Block4	2back/STIM_039.jpg	100
2478.532	0.857	857.4	2back	Block4	2back/STIM_039.jpg	99
2483.432	0.701	701.0	0back	Block4	0back/STIM_000.jpg	99
2487.462	0.56	560.2	0back	Block4	0back/STIM_000.jpg	99
2492.089	0.514	514.3	0back	Block4	0back/STIM_000.jpg	99
2495.968	0.65	650.0	0back	Block4	0back/STIM_001.jpg	99
2500.184	0.622	622.2	0back	Block4	0back/STIM_001.jpg	99
2504.186	0.418	417.5	0back	Block4	0back/STIM_001.jpg	100
2507.622	0.615	614.9	0back	Block4	0back/STIM_002.jpg	99
2511.844	0.525	524.7	0back	Block4	0back/STIM_002.jpg	100
2515.512	0.389	389.4	0back	Block4	0back/STIM_002.jpg	100
2519.027	0.626	625.8	0back	Block4	0back/STIM_003.jpg	99
2521.994	0.664	664.3	0back	Block4	0back/STIM_003.jpg	100
2524.801	0.689	688.6	0back	Block4	0back/STIM_003.jpg	100
2527.751	0.357	357.4	0back	Block4	0back/STIM_004.jpg	100
2531.014	0.73	730.3	0back	Block4	0back/STIM_004.jpg	99
2533.852	0.732	732.0	0back	Block4	0back/STIM_004.jpg	100
2537.743	0.513	513.0	0back	Block4	0back/STIM_005.jpg	99
2541.234	0.62	620.1	0back	Block4	0back/STIM_005.jpg	99
2545.757	0.572	571.5	0back	Block4	0back/STIM_005.jpg	99
2549.922	0.544	544.3	0back	Block4	0back/STIM_006.jpg	99
2554.105	0.745	745.3	0back	Block4	0back/STIM_006.jpg	99
2557.606	0.685	685.0	0back	Block4	0back/STIM_006.jpg	100
2561.967	0.555	554.6	0back	Block4	0back/STIM_007.jpg	100
2565.308	0.669	669.3	0back	Block4	0back/STIM_007.jpg	100
2569.164	0.659	659.0	0back	Block4	0back/STIM_007.jpg	100
2573.381	0.657	656.8	0back	Block4	0back/STIM_008.jpg	99
2576.659	0.548	547.5	0back	Block4	0back/STIM_008.jpg	100
2580.855	0.315	314.8	0back	Block4	0back/STIM_008.jpg	100
2584.303	0.402	401.7	0back	Block4	0back/STIM_009.jpg	100
2587.442	0.342	342.3	0back	Block4	0back/STIM_009.jpg	99
2590.287	0.502	501.7	0back	Block4	0back/STIM_009.jpg	100
2593.257	0.537	536.9	0back	Block4	0back/STIM_010.jpg	99
2596.181	0.394	393.9	0back	Block4	0back/STIM_010.jpg	100
2599.192	0.405	405.1	0back	Block4	0back/STIM_010.jpg	100
2603.435	0.574	573.5	0back	Block4	0back/STIM_011.jpg	99
2607.666	0.489	488.6	0back	Block4	0back/STIM_011.jpg	99
2610.974	0.419	418.8	0back	Block4	0back/STIM_011.jpg	100
2614.635	0.71	710.1	0back	Block4	0back/STIM_012.jpg	99
2617.519	0.706	706.0	0back	Block4	0back/STIM_012.jpg	99
2621.06	0.558	557.6	0back	Block4	0back/STIM_012.jpg	99
2624.998	0.597	596.8	0back	Block4	0back/STIM_013.jpg	100
2629.183	0.664	663.9	0back	Block4	0back/STIM_013.jpg	100
2632.903	0.394	394.0	0back	Block4	0back/STIM_013.jpg	99
2635.8	0.703	702.7	0back	Block4	0back/STIM_014.jpg	99
2640.364	0.64	639.5	0back	Block4	0back/STIM_014.jpg	100
2643.964	0.684	683.8	0back	Block4	0back/STIM_014.jpg	100
2648.5	0.558	558.0	0back	Block4	0back/STIM_015.jpg	100
2651.45	0.385	385.4	0back	Block4	0back/STIM_015.jpg	100
2655.451	0.557	557.1	0back	Block4	0back/STIM_015.jpg	99
2658.701	0.428	427.9	0back	Block4	0back/STIM_016.jpg	99
2662.657	0.671	671.4	0back	Block4	0back/STIM_016.jpg	99
2666.499	0.433	432.6	0back	Block4	0back/STIM_016.jpg	99
2669.654	0.429	428.8	0back	Block4	0back/STIM_017.jpg	100
2673.533	0.735	735.0	0back	Block4	0back/STIM_017.jpg	100
2678.052	0.616	615.6	0back	Block4	0back/STIM_017.jpg	99
2682.644	0.509	509.4	0back	Block4	0back/STIM_018.jpg	99
2686.631	0.444	444.5	0back	Block4	0back/STIM_018.jpg	99
2689.642	0.538	537.5	0back	Block4	0back/STIM_018.jpg	100
2693.138	0.599	599.0	0back	Block4	0back/STIM_019.jpg	100
2696.15	0.516	515.8	0back	Block4	0back/STIM_019.jpg	99
2700.011	0.441	440.6	0back	Block4	0back/STIM_019.jpg	99
