onset	duration	response_time_ms	trial_type	learning_stage	stimulus	response_port
0.0	2.556	2556.2	regulate	Run1	regulate/STIM_000.jpg	100
4.78	3.286	3285.7	regulate	Run1	regulate/STIM_000.jpg	99
11.569	2.988	2987.8	regulate	Run1	regulate/STIM_000.jpg	99
18.236	1.66	1660.2	regulate	Run1	regulate/STIM_000.jpg	100
23.254	3.11	3110.2	regulate	Run1	regulate/STIM_001.jpg	99
28.911	2.138	2138.0	regulate	Run1	regulate/STIM_001.jpg	100
33.078	2.442	2441.8	regulate	Run1	regulate/STIM_001.jpg	99
37.625	2.133	2132.9	regulate	Run1	regulate/STIM_001.jpg	99
42.637	1.924	1923.8	regulate	Run1	regulate/STIM_002.jpg	99
47.022	2.277	2276.7	regulate	Run1	regulate/STIM_002.jpg	99
51.925	1.481	1481.4	regulate	Run1	regulate/STIM_002.jpg	100
56.374	1.641	1641.3	regulate	Run1	regulate/STIM_002.jpg	100
61.789	3.044	3043.5	regulate	Run1	regulate/STIM_003.jpg	99
67.684	2.803	2803.1	regulate	Run1	regulate/STIM_003.jpg	100
74.475	1.81	1809.8	regulate	Run1	regulate/STIM_003.jpg	99
79.575	1.362	1362.3	regulate	Run1	regulate/STIM_003.jpg	99
83.167	3.327	3327.0	regulate	Run1	regulate/STIM_004.jpg	99
88.878	1.66	1659.8	regulate	Run1	regulate/STIM_004.jpg	100
92.749	2.03	2030.1	regulate	Run1	regulate/STIM_004.jpg	99
97.787	2.635	2635.2	regulate	Run1	regulate/STIM_004.jpg	99
103.839	3.186	3185.7	regulate	Run1	regulate/STIM_005.jpg	100
110.901	2.809	2809.1	regulate	Run1	regulate/STIM_005.jpg	99
117.083	1.607	1607.1	regulate	Run1	regulate/STIM_005.jpg	100
120.989	1.306	1306.5	regulate	Run1	regulate/STIM_005.jpg	100
126.057	2.132	2131.6	regulate	Run1	regulate/STIM_006.jpg	99
130.913	1.886	1885.7	regulate	Run1	regulate/STIM_006.jpg	99
136.419	2.667	2667.4	regulate	Run1	regulate/STIM_006.jpg	99
143.006	1.354	1354.4	regulate	Run1	regulate/STIM_006.jpg	99
147.475	3.424	3423.7	regulate	Run1	regulate/STIM_007.jpg	100
154.319	2.556	2556.0	regulate	Run1	regulate/STIM_007.jpg	100
159.461	1.451	1450.8	regulate	Run1	regulate/STIM_007.jpg	100
163.426	2.912	2911.8	regulate	Run1	regulate/STIM_007.jpg	100
169.484	2.152	2152.3	regulate	Run1	regulate/STIM_008.jpg	100
174.373	2.482	2481.7	regulate	Run1	regulate/STIM_008.jpg	100
180.541	2.486	2485.7	regulate	Run1	regulate/STIM_008.jpg	99
186.868	2.697	2696.8	regulate	Run1	regulate/STIM_008.jpg	99
192.506	2.917	2917.0	regulate	Run1	regulate/STIM_009.jpg	100
199.19	3.076	3076.3	regulate	Run1	regulate/STIM_009.jpg	100
205.09	2.611	2611.1	regulate	Run1	regulate/STIM_009.jpg	99
211.538	1.548	1548.3	regulate	Run1	regulate/STIM_009.jpg	100
215.803	2.724	2724.3	regulate	Run1	regulate/STIM_010.jpg	100
221.955	2.699	2698.7	regulate	Run1	regulate/STIM_010.jpg	99
227.312	1.814	1814.1	regulate	Run1	regulate/STIM_010.jpg	99
231.704	2.576	2576.0	regulate	Run1	regulate/STIM_010.jpg	100
236.501	2.304	2304.3	regulate	Run1	regulate/STIM_011.jpg	100
242.225	2.54	2540.2	regulate	Run1	regulate/STIM_011.jpg	100
248.355	1.5	1500.5	regulate	Run1	regulate/STIM_011.jpg	100
252.985	2.839	2839.2	regulate	Run1	regulate/STIM_011.jpg	99
258.973	1.594	1593.5	regulate	Run1	regulate/STIM_012.jpg	99
264.495	3.39	3390.2	regulate	Run1	regulate/STIM_012.jpg	100
270.092	2.524	2524.4	regulate	Run1	regulate/STIM_012.jpg	100
275.48	1.656	1655.8	regulate	Run1	regulate/STIM_012.jpg	99
280.289	2.817	2817.4	regulate	Run1	regulate/STIM_013.jpg	100
286.144	1.868	1867.8	regulate	Run1	regulate/STIM_013.jpg	100
290.027	2.278	2277.7	regulate	Run1	regulate/STIM_013.jpg	100
294.385	1.974	1973.7	regulate	Run1	regulate/STIM_013.jpg	100
298.408	2.426	2426.4	regulate	Run1	regulate/STIM_014.jpg	100
303.407	3.12	3120.2	regulate	Run1	regulate/STIM_014.jpg	100
310.02	1.716	1715.7	regulate	Run1	regulate/STIM_014.jpg	100
315.376	2.339	2339.0	regulate	Run1	regulate/STIM_014.jpg	100
319.977	2.444	2444.5	regulate	Run1	regulate/STIM_015.jpg	99
324.599	2.539	2538.8	regulate	Run1	regulate/STIM_015.jpg	100
329.231	3.041	3041.3	regulate	Run1	regulate/STIM_015.jpg	99
335.963	2.889	2888.8	regulate	Run1	regulate/STIM_015.jpg	99
341.077	2.013	2012.8	regulate	Run1	regulate/STIM_016.jpg	100
346.755	3.102	3101.5	regulate	Run1	regulate/STIM_016.jpg	99
352.626	2.347	2347.0	regulate	Run1	regulate/STIM_016.jpg	100
358.161	2.886	2885.8	regulate	Run1	regulate/STIM_016.jpg	100
365.033	2.068	2067.8	regulate	Run1	regulate/STIM_017.jpg	99
369.655	2.487	2487.4	regulate	Run1	regulate/STIM_017.jpg	99
375.4	2.113	2112.6	regulate	Run1	regulate/STIM_017.jpg	99
381.187	1.436	1436.2	regulate	Run1	regulate/STIM_017.jpg	99
385.021	1.706	1706.1	regulate	Run1	regulate/STIM_018.jpg	99
389.11	1.621	1620.9	regulate	Run1	regulate/STIM_018.jpg	100
394.023	1.552	1551.8	regulate	Run1	regulate/STIM_018.jpg	99
398.217	2.078	2077.7	regulate	Run1	regulate/STIM_018.jpg	100
402.504	3.487	3486.7	regulate	Run1	regulate/STIM_019.jpg	99
409.886	2.466	2466.0	regulate	Run1	regulate/STIM_019.jpg	99
415.173	1.919	1919.0	regulate	Run1	regulate/STIM_019.jpg	99
419.709	2.924	2923.8	regulate	Run1	regulate/STIM_019.jpg	99
424.759	3.136	3135.7	regulate	Run1	regulate/STIM_020.jpg	100
430.258	3.277	3276.6	regulate	Run1	regulate/STIM_020.jpg	100
435.579	2.266	2266.4	regulate	Run1	regulate/STIM_020.jpg	100
440.512	1.481	1480.9	regulate	Run1	regulate/STIM_020.jpg	100
444.879	2.414	2414.3	regulate	Run1	regulate/STIM_021.jpg	99
451.129	1.783	1782.6	regulate	Run1	regulate/STIM_021.jpg	99
455.012	1.877	1877.0	regulate	Run1	regulate/STIM_021.jpg	99
459.673	2.519	2518.6	regulate	Run1	regulate/STIM_021.jpg	100
464.81	2.265	2265.3	regulate	Run1	regulate/STIM_022.jpg	99
470.353	2.259	2259.3	regulate	Run1	regulate/STIM_022.jpg	99
476.076	1.622	1622.1	regulate	Run1	regulate/STIM_022.jpg	99
479.771	1.937	1937.0	regulate	Run1	regulate/STIM_022.jpg	100
484.907	2.262	2262.3	regulate	Run1	regulate/STIM_023.jpg	100
490.37	2.085	2084.9	regulate	Run1	regulate/STIM_023.jpg	99
495.14	1.516	1515.7	regulate	Run1	regulate/STIM_023.jpg	99
498.954	2.149	2149.2	regulate	Run1	regulate/STIM_023.jpg	100
503.645	2.109	2108.7	regulate	Run1	regulate/STIM_024.jpg	99
509.342	1.764	1764.1	regulate	Run1	regulate/STIM_024.jpg	99
515.097	2.842	2841.6	regulate	Run1	regulate/STIM_024.jpg	100
521.401	2.628	2627.8	regulate	Run1	regulate/STIM_024.jpg	99
526.851	3.511	3511.2	regulate	Run1	regulate/STIM_025.jpg	100
534.057	3.082	3081.7	regulate	Run1	regulate/STIM_025.jpg	99
539.401	2.639	2638.8	regulate	Run1	regulate/STIM_025.jpg	99
545.731	2.997	2997.3	regulate	Run1	regulate/STIM_025.jpg	99
551.896	2.597	2597.3	regulate	Run1	regulate/STIM_026.jpg	100
557.479	2.556	2556.4	regulate	Run1	regulate/STIM_026.jpg	99
562.375	1.413	1412.9	regulate	Run1	regulate/STIM_026.jpg	99
567.496	2.672	2672.2	regulate	Run1	regulate/STIM_026.jpg	100
573.917	2.068	2067.6	regulate	Run1	regulate/STIM_027.jpg	99
578.603	1.862	1862.4	regulate	Run1	regulate/STIM_027.jpg	100
582.964	1.684	1684.3	regulate	Run1	regulate/STIM_027.jpg	99
587.534	2.349	2349.2	regulate	Run1	regulate/STIM_027.jpg	99
591.985	2.545	2545.1	regulate	Run1	regulate/STIM_028.jpg	99
597.393	2.223	2222.9	regulate	Run1	regulate/STIM_028.jpg	100
602.357	2.433	2433.4	regulate	Run1	regulate/STIM_028.jpg	99
608.437	2.033	2032.5	regulate	Run1	regulate/STIM_028.jpg	100
613.61	2.684	2683.5	regulate	Run1	regulate/STIM_029.jpg	100
620.179	1.559	1558.9	regulate	Run1	regulate/STIM_029.jpg	99
623.99	2.92	2919.8	regulate	Run1	regulate/STIM_029.jpg	100
629.941	2.441	2441.1	regulate	Run1	regulate/STIM_029.jpg	99
634.694	0.948	948.2	observe	Run1	observe/STIM_000.jpg	100
638.844	1.44	1439.9	observe	Run1	observe/STIM_000.jpg	100
643.979	1.09	1090.5	observe	Run1	observe/STIM_000.jpg	100
648.291	0.954	954.5	observe	Run1	observe/STIM_000.jpg	99
651.299	1.45	1450.4	observe	Run1	observe/STIM_001.jpg	100
656.119	1.425	1425.3	observe	Run1	observe/STIM_001.jpg	99
661.132	1.407	1407.1	observe	Run1	observe/STIM_001.jpg	99
666.534	1.618	1618.4	observe	Run1	observe/STIM_001.jpg	100
671.092	1.238	1238.4	observe	Run1	observe/STIM_002.jpg	99
674.695	1.083	1083.2	observe	Run1	observe/STIM_002.jpg	99
679.551	0.906	906.1	observe	Run1	observe/STIM_002.jpg	99
682.469	0.928	927.8	observe	Run1	observe/STIM_002.jpg	99
686.635	1.353	1353.2	observe	Run1	observe/STIM_003.jpg	100
690.666	0.865	864.8	observe	Run1	observe/STIM_003.jpg	99
695.445	1.079	1079.2	observe	Run1	observe/STIM_003.jpg	100
699.487	1.005	1004.7	observe	Run1	observe/STIM_003.jpg	99
703.383	1.118	1118.4	observe	Run1	observe/STIM_004.jpg	99
707.299	0.87	870.3	observe	Run1	observe/STIM_004.jpg	99
710.735	1.514	1514.0	observe	Run1	observe/STIM_004.jpg	99
714.483	0.977	976.6	observe	Run1	observe/STIM_004.jpg	100
718.359	1.532	1532.3	observe	Run1	observe/STIM_005.jpg	99
723.485	1.562	1561.6	observe	Run1	observe/STIM_005.jpg	100
728.733	1.162	1161.9	observe	Run1	observe/STIM_005.jpg	99
732.356	1.346	1345.8	observe	Run1	observe/STIM_005.jpg	100
737.5	1.51	1509.6	observe	Run1	observe/STIM_006.jpg	100
741.171	1.399	1398.9	observe	Run1	observe/STIM_006.jpg	99
746.095	1.113	1113.2	observe	Run1	observe/STIM_006.jpg	100
749.933	1.032	1032.2	observe	Run1	observe/STIM_006.jpg	99
754.64	1.105	1105.0	observe	Run1	observe/STIM_007.jpg	99
759.529	1.099	1098.9	observe	Run1	observe/STIM_007.jpg	99
764.602	1.572	1572.2	observe	Run1	observe/STIM_007.jpg	99
768.417	1.256	1255.7	observe	Run1	observe/STIM_007.jpg	100
773.148	1.375	1374.7	observe	Run1	observe/STIM_008.jpg	100
778.427	0.867	866.8	observe	Run1	observe/STIM_008.jpg	99
783.119	0.992	992.2	observe	Run1	observe/STIM_008.jpg	100
786.869	1.048	1048.1	observe	Run1	observe/STIM_008.jpg	100
791.425	0.96	959.5	observe	Run1	observe/STIM_009.jpg	100
795.82	1.221	1221.4	observe	Run1	observe/STIM_009.jpg	99
800.825	1.409	1408.6	observe	Run1	observe/STIM_009.jpg	99
806.008	1.553	1552.8	observe	Run1	observe/STIM_009.jpg	100
811.329	1.342	1342.4	observe	Run1	observe/STIM_010.jpg	100
814.788	1.574	1573.7	observe	Run1	observe/STIM_010.jpg	100
820.007	1.485	1485.2	observe	Run1	observe/STIM_010.jpg	99
824.382	1.606	1606.5	observe	Run1	observe/STIM_010.jpg	100
829.417	1.429	1428.8	observe	Run1	observe/STIM_011.jpg	99
833.777	1.518	1517.8	observe	Run1	observe/STIM_011.jpg	99
838.072	1.336	1336.1	observe	Run1	observe/STIM_011.jpg	100
842.533	1.284	1283.8	observe	Run1	observe/STIM_011.jpg	99
846.838	1.203	1203.1	observe	Run1	observe/STIM_012.jpg	100
851.839	1.428	1428.0	observe	Run1	observe/STIM_012.jpg	99
855.642	1.247	1247.4	observe	Run1	observe/STIM_012.jpg	100
859.554	1.605	1605.0	observe	Run1	observe/STIM_012.jpg	100
864.6	1.18	1179.6	observe	Run1	observe/STIM_013.jpg	100
868.771	1.061	1060.9	observe	Run1	observe/STIM_013.jpg	99
873.418	1.233	1233.3	observe	Run1	observe/STIM_013.jpg	99
877.119	1.399	1399.0	observe	Run1	observe/STIM_013.jpg	99
881.81	1.429	1428.8	observe	Run1	observe/STIM_014.jpg	100
885.262	0.873	873.3	observe	Run1	observe/STIM_014.jpg	100
889.947	1.438	1437.6	observe	Run1	observe/STIM_014.jpg	99
894.823	1.543	1543.4	observe	Run1	observe/STIM_014.jpg	100
900.124	1.633	1633.2	observe	Run1	observe/STIM_015.jpg	100
905.21	1.528	1527.8	observe	Run1	observe/STIM_015.jpg	99
909.993	1.25	1249.9	observe	Run1	observe/STIM_015.jpg	100
913.643	1.389	1389.3	observe	Run1	observe/STIM_015.jpg	99
918.543	0.9	900.2	observe	Run1	observe/STIM_016.jpg	100
921.985	1.0	1000.4	observe	Run1	observe/STIM_016.jpg	100
925.448	1.233	1232.7	observe	Run1	observe/STIM_016.jpg	99
930.405	1.342	1341.8	observe	Run1	observe/STIM_016.jpg	99
934.343	0.992	992.0	observe	Run1	observe/STIM_017.jpg	99
938.186	1.525	1525.4	observe	Run1	observe/STIM_017.jpg	99
943.356	1.474	1473.8	observe	Run1	observe/STIM_017.jpg	100
948.778	1.009	1008.6	observe	Run1	observe/STIM_017.jpg	99
953.117	1.168	1167.9	observe	Run1	observe/STIM_018.jpg	100
957.195	1.617	1616.6	observe	Run1	observe/STIM_018.jpg	100
961.54	1.574	1573.6	observe	Run1	observe/STIM_018.jpg	100
965.995	1.208	1208.0	observe	Run1	observe/STIM_018.jpg	100
970.664	1.448	1448.1	observe	Run1	observe/STIM_019.jpg	99
975.363	1.028	1028.4	observe	Run1	observe/STIM_019.jpg	100
979.224	1.478	1478.1	observe	Run1	observe/STIM_019.jpg	99
984.137	1.596	1595.6	observe	Run1	observe/STIM_019.jpg	99
989.506	2.943	2942.8	regulate	Run2	regulate/STIM_000.jpg	99
996.049	1.365	1365.2	regulate	Run2	regulate/STIM_000.jpg	99
1001.278	1.438	1437.7	regulate	Run2	regulate/STIM_000.jpg	100
1005.148	2.186	2185.9	regulate	Run2	regulate/STIM_000.jpg	100
1010.346	2.06	2060.2	regulate	Run2	regulate/STIM_001.jpg	100
1014.7	2.328	2327.9	regulate	Run2	regulate/STIM_001.jpg	99
1019.573	1.551	1550.6	regulate	Run2	regulate/STIM_001.jpg	99
1023.161	1.798	1797.9	regulate	Run2	regulate/STIM_001.jpg	99
1027.571	1.322	1322.5	regulate	Run2	regulate/STIM_002.jpg	99
1031.295	2.485	2484.9	regulate	Run2	regulate/STIM_002.jpg	100
1037.247	1.752	1752.3	regulate	Run2	regulate/STIM_002.jpg	100
1042.487	1.344	1343.5	regulate	Run2	regulate/STIM_002.jpg	100
1046.684	2.68	2680.2	regulate	Run2	regulate/STIM_003.jpg	99
1052.04	1.334	1333.9	regulate	Run2	regulate/STIM_003.jpg	99
1055.396	2.11	2110.4	regulate	Run2	regulate/STIM_003.jpg	100
1060.697	2.472	2472.1	regulate	Run2	regulate/STIM_003.jpg	99
1065.974	2.165	2165.3	regulate	Run2	regulate/STIM_004.jpg	99
1070.912	1.881	1881.3	regulate	Run2	regulate/STIM_004.jpg	100
1076.791	1.314	1314.1	regulate	Run2	regulate/STIM_004.jpg	99
1081.349	1.53	1530.0	regulate	Run2	regulate/STIM_004.jpg	100
1085.252	2.46	2460.1	regulate	Run2	regulate/STIM_005.jpg	100
1090.392	2.467	2466.8	regulate	Run2	regulate/STIM_005.jpg	100
1095.12	2.004	2003.8	regulate	Run2	regulate/STIM_005.jpg	99
1100.294	2.162	2162.5	regulate	Run2	regulate/STIM_005.jpg	100
1105.88	2.121	2120.8	regulate	Run2	regulate/STIM_006.jpg	100
1111.373	2.721	2721.3	regulate	Run2	regulate/STIM_006.jpg	100
1117.804	2.432	2431.9	regulate	Run2	regulate/STIM_006.jpg	100
1123.074	1.335	1335.3	regulate	Run2	regulate/STIM_006.jpg	99
1127.949	1.83	1829.5	regulate	Run2	regulate/STIM_007.jpg	99
1133.751	2.663	2662.8	regulate	Run2	regulate/STIM_007.jpg	100
1138.799	2.411	2411.0	regulate	Run2	regulate/STIM_007.jpg	99
1143.554	1.51	1509.5	regulate	Run2	regulate/STIM_007.jpg	100
1148.716	1.517	1516.7	regulate	Run2	regulate/STIM_008.jpg	100
1152.541	1.724	1724.0	regulate	Run2	regulate/STIM_008.jpg	100
1157.838	1.462	1462.4	regulate	Run2	regulate/STIM_008.jpg	100
1163.002	2.304	2303.5	regulate	Run2	regulate/STIM_008.jpg	100
1168.567	1.944	1944.1	regulate	Run2	regulate/STIM_009.jpg	100
1174.212	1.886	1886.1	regulate	Run2	regulate/STIM_009.jpg	99
1179.308	1.383	1383.1	regulate	Run2	regulate/STIM_009.jpg	99
1183.692	2.213	2213.3	regulate	Run2	regulate/STIM_009.jpg	100
1188.126	2.753	2752.6	regulate	Run2	regulate/STIM_010.jpg	99
1194.109	1.377	1376.9	regulate	Run2	regulate/STIM_010.jpg	100
1198.311	1.985	1985.3	regulate	Run2	regulate/STIM_010.jpg	99
1202.615	1.63	1630.4	regulate	Run2	regulate/STIM_010.jpg	100
1206.654	2.029	2028.6	regulate	Run2	regulate/STIM_011.jpg	100
1210.939	1.602	1601.7	regulate	Run2	regulate/STIM_011.jpg	99
1214.998	1.501	1500.6	regulate	Run2	regulate/STIM_011.jpg	99
1218.956	1.809	1808.6	regulate	Run2	regulate/STIM_011.jpg	100
1224.181	1.523	1523.2	regulate	Run2	regulate/STIM_012.jpg	99
1227.86	2.099	2099.2	regulate	Run2	regulate/STIM_012.jpg	99
1233.81	1.97	1970.0	regulate	Run2	regulate/STIM_012.jpg	99
1238.176	1.214	1214.2	regulate	Run2	regulate/STIM_012.jpg	99
1243.23	2.349	2349.0	regulate	Run2	regulate/STIM_013.jpg	99
1249.191	2.83	2830.2	regulate	Run2	regulate/STIM_013.jpg	100
1254.064	1.202	1201.5	regulate	Run2	regulate/STIM_013.jpg	99
1258.263	1.783	1782.6	regulate	Run2	regulate/STIM_013.jpg	100
1263.304	2.91	2910.2	regulate	Run2	regulate/STIM_014.jpg	100
1268.51	2.622	2622.0	regulate	Run2	regulate/STIM_014.jpg	99
1274.415	1.933	1932.7	regulate	Run2	regulate/STIM_014.jpg	99
1279.473	1.499	1498.6	regulate	Run2	regulate/STIM_014.jpg	99
1283.194	2.822	2821.5	regulate	Run2	regulate/STIM_015.jpg	100
1288.817	2.555	2555.0	regulate	Run2	regulate/STIM_015.jpg	99
1295.364	2.057	2056.8	regulate	Run2	regulate/STIM_015.jpg	99
1299.81	1.136	1135.8	regulate	Run2	regulate/STIM_015.jpg	100
1303.575	2.26	2260.5	regulate	Run2	regulate/STIM_016.jpg	100
1308.027	2.291	2290.8	regulate	Run2	regulate/STIM_016.jpg	99
1313.576	1.687	1686.9	regulate	Run2	regulate/STIM_016.jpg	100
1317.745	1.791	1790.6	regulate	Run2	regulate/STIM_016.jpg	99
1322.683	2.42	2419.9	regulate	Run2	regulate/STIM_017.jpg	99
1327.478	2.673	2672.7	regulate	Run2	regulate/STIM_017.jpg	99
1334.069	1.973	1973.3	regulate	Run2	regulate/STIM_017.jpg	99
1338.053	2.402	2402.1	regulate	Run2	regulate/STIM_017.jpg	100
1343.779	2.214	2214.0	regulate	Run2	regulate/STIM_018.jpg	100
1349.013	1.908	1907.5	regulate	Run2	regulate/STIM_018.jpg	100
1353.659	2.206	2206.2	regulate	Run2	regulate/STIM_018.jpg	100
1358.443	1.333	1332.9	regulate	Run2	regulate/STIM_018.jpg	100
1363.178	1.623	1622.8	regulate	Run2	regulate/STIM_019.jpg	100
1367.465	2.498	2497.9	regulate	Run2	regulate/STIM_019.jpg	100
1372.343	2.44	2440.0	regulate	Run2	regulate/STIM_019.jpg	99
1378.008	1.247	1247.4	regulate	Run2	regulate/STIM_019.jpg	100
1383.18	2.165	2165.2	regulate	Run2	regulate/STIM_020.jpg	99
1387.973	1.523	1523.0	regulate	Run2	regulate/STIM_020.jpg	99
1393.009	1.71	1710.1	regulate	Run2	regulate/STIM_020.jpg	100
1398.075	1.748	1748.3	regulate	Run2	regulate/STIM_020.jpg	100
1402.139	1.688	1688.2	regulate	Run2	regulate/STIM_021.jpg	100
1407.107	2.638	2638.4	regulate	Run2	regulate/STIM_021.jpg	99
1412.795	1.177	1176.7	regulate	Run2	regulate/STIM_021.jpg	99
1416.61	1.983	1982.8	regulate	Run2	regulate/STIM_021.jpg	100
1421.995	1.948	1948.4	regulate	Run2	regulate/STIM_022.jpg	99
1426.569	2.732	2731.8	regulate	Run2	regulate/STIM_022.jpg	99
1432.411	1.843	1843.1	regulate	Run2	regulate/STIM_022.jpg	100
1437.626	2.485	2485.4	regulate	Run2	regulate/STIM_022.jpg	100
1443.267	2.159	2159.4	regulate	Run2	regulate/STIM_023.jpg	100
1448.683	2.29	2289.9	regulate	Run2	regulate/STIM_023.jpg	100
1453.596	1.286	1285.6	regulate	Run2	regulate/STIM_023.jpg	100
1457.058	1.833	1832.9	regulate	Run2	regulate/STIM_023.jpg	99
1461.466	2.789	2789.3	regulate	Run2	regulate/STIM_024.jpg	100
1467.238	1.469	1469.4	regulate	Run2	regulate/STIM_024.jpg	99
1471.632	2.604	2603.5	regulate	Run2	regulate/STIM_024.jpg	100
1476.572	1.384	1384.5	regulate	Run2	regulate/STIM_024.jpg	99
1480.136	2.905	2905.0	regulate	Run2	regulate/STIM_025.jpg	100
1486.467	1.798	1797.9	regulate	Run2	regulate/STIM_025.jpg	99
1492.226	1.605	1605.1	regulate	Run2	regulate/STIM_025.jpg	99
1497.282	2.406	2406.2	regulate	Run2	regulate/STIM_025.jpg	100
1503.128	1.979	1978.6	regulate	Run2	regulate/STIM_026.jpg	100
1507.318	2.4	2400.2	regulate	Run2	regulate/STIM_026.jpg	100
1512.908	1.943	1943.2	regulate	Run2	regulate/STIM_026.jpg	99
1517.758	1.345	1345.0	regulate	Run2	regulate/STIM_026.jpg	100
1521.382	2.25	2249.7	regulate	Run2	regulate/STIM_027.jpg	100
1527.376	1.736	1735.9	regulate	Run2	regulate/STIM_027.jpg	99
1532.853	1.45	1450.5	regulate	Run2	regulate/STIM_027.jpg	100
1536.398	2.387	2387.2	regulate	Run2	regulate/STIM_027.jpg	99
1541.701	2.612	2612.4	regulate	Run2	regulate/STIM_028.jpg	100
1546.743	2.832	2831.5	regulate	Run2	regulate/STIM_028.jpg	100
1552.561	1.674	1674.3	regulate	Run2	regulate/STIM_028.jpg	99
1556.987	1.615	1615.4	regulate	Run2	regulate/STIM_028.jpg	100
1562.198	1.935	1935.4	regulate	Run2	regulate/STIM_029.jpg	100
1567.361	2.368	2367.6	regulate	Run2	regulate/STIM_029.jpg	100
1571.877	2.653	2652.9	regulate	Run2	regulate/STIM_029.jpg	99
1578.302	1.738	1737.9	regulate	Run2	regulate/STIM_029.jpg	99
1582.359	1.148	1148.4	observe	Run2	observe/STIM_000.jpg	99
1585.788	1.026	1025.9	observe	Run2	observe/STIM_000.jpg	99
1588.894	1.01	1009.5	observe	Run2	observe/STIM_000.jpg	99
1593.887	0.985	984.7	observe	Run2	observe/STIM_000.jpg	100
1597.725	1.239	1238.6	observe	Run2	observe/STIM_001.jpg	99
1602.052	1.138	1138.4	observe	Run2	observe/STIM_001.jpg	99
1606.64	1.205	1205.3	observe	Run2	observe/STIM_001.jpg	99
1611.779	0.894	893.7	observe	Run2	observe/STIM_001.jpg	100
1616.492	0.926	926.2	observe	Run2	observe/STIM_002.jpg	99
1620.765	1.15	1150.1	observe	Run2	observe/STIM_002.jpg	99
1624.958	1.364	1363.8	observe	Run2	observe/STIM_002.jpg	99
1629.153	1.153	1153.2	observe	Run2	observe/STIM_002.jpg	100
1632.759	0.91	910.2	observe	Run2	observe/STIM_003.jpg	100
1636.704	0.971	970.8	observe	Run2	observe/STIM_003.jpg	100
1640.675	1.261	1261.3	observe	Run2	observe/STIM_003.jpg	100
1645.787	0.932	932.1	observe	Run2	observe/STIM_003.jpg	100
1649.45	0.842	842.5	observe	Run2	observe/STIM_004.jpg	99
1653.472	1.267	1267.3	observe	Run2	observe/STIM_004.jpg	99
1657.989	0.875	875.2	observe	Run2	observe/STIM_004.jpg	99
1661.493	1.528	1527.5	observe	Run2	observe/STIM_004.jpg	100
1665.644	1.342	1342.0	observe	Run2	observe/STIM_005.jpg	99
1669.405	1.41	1409.8	observe	Run2	observe/STIM_005.jpg	99
1674.049	0.947	946.8	observe	Run2	observe/STIM_005.jpg	99
1678.31	1.303	1302.7	observe	Run2	observe/STIM_005.jpg	99
1682.318	1.522	1521.5	observe	Run2	observe/STIM_006.jpg	99
1686.12	1.589	1589.4	observe	Run2	observe/STIM_006.jpg	100
1691.507	1.016	1016.0	observe	Run2	observe/STIM_006.jpg	99
1696.315	1.202	1202.3	observe	Run2	observe/STIM_006.jpg	99
1700.767	1.069	1069.0	observe	Run2	observe/STIM_007.jpg	99
1705.378	1.144	1144.3	observe	Run2	observe/STIM_007.jpg	100
1708.984	1.06	1060.1	observe	Run2	observe/STIM_007.jpg	99
1713.657	1.606	1606.2	observe	Run2	observe/STIM_007.jpg	100
1718.474	1.178	1178.3	observe	Run2	observe/STIM_008.jpg	100
1723.064	1.582	1582.3	observe	Run2	observe/STIM_008.jpg	100
1728.531	0.969	968.8	observe	Run2	observe/STIM_008.jpg	100
1732.642	1.323	1323.2	observe	Run2	observe/STIM_008.jpg	100
1737.891	1.377	1377.0	observe	Run2	observe/STIM_009.jpg	100
1743.077	1.248	1247.9	observe	Run2	observe/STIM_009.jpg	100
1748.092	1.32	1319.8	observe	Run2	observe/STIM_009.jpg	100
1753.403	1.34	1340.3	observe	Run2	observe/STIM_009.jpg	100
1756.844	1.332	1332.2	observe	Run2	observe/STIM_010.jpg	100
1760.21	1.565	1565.4	observe	Run2	observe/STIM_010.jpg	99
1764.119	0.947	947.3	observe	Run2	observe/STIM_010.jpg	99
1767.597	1.187	1187.0	observe	Run2	observe/STIM_010.jpg	99
1771.925	1.036	1035.6	observe	Run2	observe/STIM_011.jpg	100
1776.937	1.371	1370.8	observe	Run2	observe/STIM_011.jpg	100
1782.073	1.442	1442.5	observe	Run2	observe/STIM_011.jpg	99
1786.072	1.451	1450.9	observe	Run2	observe/STIM_011.jpg	99
1790.901	1.302	1302.4	observe	Run2	observe/STIM_012.jpg	99
1795.438	1.557	1557.2	observe	Run2	observe/STIM_012.jpg	99
1800.752	1.568	1568.1	observe	Run2	observe/STIM_012.jpg	99
1806.119	0.907	906.6	observe	Run2	observe/STIM_012.jpg	99
1809.886	0.901	901.0	observe	Run2	observe/STIM_013.jpg	100
1814.424	1.386	1386.0	observe	Run2	observe/STIM_013.jpg	99
1819.244	1.197	1196.7	observe	Run2	observe/STIM_013.jpg	99
1822.914	1.177	1177.4	observe	Run2	observe/STIM_013.jpg	100
1826.406	1.325	1324.9	observe	Run2	observe/STIM_014.jpg	100
1830.76	0.868	867.5	observe	Run2	observe/STIM_014.jpg	99
1835.417	1.074	1074.4	observe	Run2	observe/STIM_014.jpg	99
1839.238	1.611	1611.4	observe	Run2	observe/STIM_014.jpg	99
1844.727	1.101	1100.8	observe	Run2	observe/STIM_015.jpg	99
1847.934	0.852	852.5	observe	Run2	observe/STIM_015.jpg	100
1852.392	0.84	840.1	observe	Run2	observe/STIM_015.jpg	100
1855.876	1.151	1150.7	observe	Run2	observe/STIM_015.jpg	100
1859.557	1.49	1489.5	observe	Run2	observe/STIM_016.jpg	99
1863.221	1.29	1290.2	observe	Run2	observe/STIM_016.jpg	99
1867.356	1.506	1505.8	observe	Run2	observe/STIM_016.jpg	100
1871.329	1.569	1569.0	observe	Run2	observe/STIM_016.jpg	100
1876.329	1.459	1459.3	observe	Run2	observe/STIM_017.jpg	99
1879.947	0.862	862.2	observe	Run2	observe/STIM_017.jpg	99
1883.907	0.92	919.5	observe	Run2	observe/STIM_017.jpg	99
1888.298	1.561	1561.2	observe	Run2	observe/STIM_017.jpg	99
1893.751	1.46	1459.7	observe	Run2	observe/STIM_018.jpg	100
1897.491	1.293	1292.8	observe	Run2	observe/STIM_018.jpg	100
1901.981	1.02	1020.4	observe	Run2	observe/STIM_018.jpg	100
1905.226	1.244	1243.6	observe	Run2	observe/STIM_018.jpg	99
1909.346	1.587	1586.8	observe	Run2	observe/STIM_019.jpg	99
1914.362	0.922	922.0	observe	Run2	observe/STIM_019.jpg	99
1917.497	1.038	1037.5	observe	Run2	observe/STIM_019.jpg	99
1921.978	1.318	1318.3	observe	Run2	observe/STIM_019.jpg	99
1925.328	1.268	1268.4	regulate	Run3	regulate/STIM_000.jpg	99
1929.309	2.499	2498.7	regulate	Run3	regulate/STIM_000.jpg	99
1935.584	2.18	2180.4	regulate	Run3	regulate/STIM_000.jpg	99
1941.184	1.318	1318.0	regulate	Run3	regulate/STIM_000.jpg	100
1945.789	1.161	1161.3	regulate	Run3	regulate/STIM_001.jpg	99
1949.841	1.452	1452.3	regulate	Run3	regulate/STIM_001.jpg	100
1955.273	2.328	2327.5	regulate	Run3	regulate/STIM_001.jpg	100
1961.242	2.343	2342.6	regulate	Run3	regulate/STIM_001.jpg	99
1966.687	2.414	2413.6	regulate	Run3	regulate/STIM_002.jpg	100
1971.348	1.901	1901.2	regulate	Run3	regulate/STIM_002.jpg	100
1975.463	2.33	2330.1	regulate	Run3	regulate/STIM_002.jpg	100
1981.297	1.898	1897.8	regulate	Run3	regulate/STIM_002.jpg	100
1985.251	2.104	2103.9	regulate	Run3	regulate/STIM_003.jpg	100
1989.472	1.984	1984.0	regulate	Run3	regulate/STIM_003.jpg	100
1994.928	1.127	1127.3	regulate	Run3	regulate/STIM_003.jpg	99
1998.281	1.467	1467.2	regulate	Run3	regulate/STIM_003.jpg	99
2002.206	1.39	1390.5	regulate	Run3	regulate/STIM_004.jpg	100
2007.422	2.078	2077.5	regulate	Run3	regulate/STIM_004.jpg	100
2012.721	1.832	1831.7	regulate	Run3	regulate/STIM_004.jpg	100
2016.859	2.257	2256.6	regulate	Run3	regulate/STIM_004.jpg	100
2021.89	1.149	1148.9	regulate	Run3	regulate/STIM_005.jpg	100
2026.771	1.626	1625.6	regulate	Run3	regulate/STIM_005.jpg	100
2031.29	2.367	2366.9	regulate	Run3	regulate/STIM_005.jpg	99
2036.975	2.218	2218.0	regulate	Run3	regulate/STIM_005.jpg	100
2043.189	2.129	2129.3	regulate	Run3	regulate/STIM_006.jpg	100
2047.618	1.54	1540.3	regulate	Run3	regulate/STIM_006.jpg	99
2053.005	1.53	1529.5	regulate	Run3	regulate/STIM_006.jpg	100
2057.522	1.969	1968.9	regulate	Run3	regulate/STIM_006.jpg	99
2061.575	1.078	1078.1	regulate	Run3	regulate/STIM_007.jpg	99
2065.543	2.276	2276.3	regulate	Run3	regulate/STIM_007.jpg	100
2070.839	2.37	2370.3	regulate	Run3	regulate/STIM_007.jpg	99
2076.07	1.691	1691.4	regulate	Run3	regulate/STIM_007.jpg	100
2080.943	2.111	2110.6	regulate	Run3	regulate/STIM_008.jpg	99
2086.488	1.294	1293.7	regulate	Run3	regulate/STIM_008.jpg	99
2090.389	1.128	1128.4	regulate	Run3	regulate/STIM_008.jpg	99
2094.408	1.759	1758.9	regulate	Run3	regulate/STIM_008.jpg	99
2099.246	2.292	2292.0	regulate	Run3	regulate/STIM_009.jpg	100
2104.231	2.29	2290.2	regulate	Run3	regulate/STIM_009.jpg	100
2109.561	1.3	1299.6	regulate	Run3	regulate/STIM_009.jpg	100
2113.915	1.34	1340.4	regulate	Run3	regulate/STIM_009.jpg	100
2118.314	1.693	1692.8	regulate	Run3	regulate/STIM_010.jpg	99
2122.661	1.188	1188.5	regulate	Run3	regulate/STIM_010.jpg	99
2127.645	2.172	2171.7	regulate	Run3	regulate/STIM_010.jpg	100
2132.981	2.406	2405.6	regulate	Run3	regulate/STIM_010.jpg	99
2137.649	1.694	1693.9	regulate	Run3	regulate/STIM_011.jpg	99
2142.213	1.987	1986.9	regulate	Run3	regulate/STIM_011.jpg	100
2146.9	2.057	2056.9	regulate	Run3	regulate/STIM_011.jpg	99
2152.739	2.125	2124.6	regulate	Run3	regulate/STIM_011.jpg	99
2157.882	1.497	1497.1	regulate	Run3	regulate/STIM_012.jpg	99
2162.167	1.377	1377.4	regulate	Run3	regulate/STIM_012.jpg	100
2166.543	2.498	2498.4	regulate	Run3	regulate/STIM_012.jpg	99
2172.511	1.644	1644.3	regulate	Run3	regulate/STIM_012.jpg	99
2176.403	2.244	2244.2	regulate	Run3	regulate/STIM_013.jpg	99
2181.92	2.354	2353.6	regulate	Run3	regulate/STIM_013.jpg	99
2186.807	1.258	1257.7	regulate	Run3	regulate/STIM_013.jpg	100
2190.199	1.197	1197.2	regulate	Run3	regulate/STIM_013.jpg	100
2193.978	1.268	1268.4	regulate	Run3	regulate/STIM_014.jpg	100
2198.217	1.636	1636.3	regulate	Run3	regulate/STIM_014.jpg	100
2202.393	2.019	2019.5	regulate	Run3	regulate/STIM_014.jpg	100
2206.774	1.424	1423.8	regulate	Run3	regulate/STIM_014.jpg	99
2210.97	1.664	1663.9	regulate	Run3	regulate/STIM_015.jpg	100
2216.527	1.28	1280.5	regulate	Run3	regulate/STIM_015.jpg	100
2221.498	1.569	1568.6	regulate	Run3	regulate/STIM_015.jpg	100
2226.257	1.106	1105.7	regulate	Run3	regulate/STIM_015.jpg	99
2230.166	1.211	1210.7	regulate	Run3	regulate/STIM_016.jpg	99
2234.882	1.245	1245.0	regulate	Run3	regulate/STIM_016.jpg	99
2239.285	1.398	1397.8	regulate	Run3	regulate/STIM_016.jpg	99
2242.698	1.21	1210.1	regulate	Run3	regulate/STIM_016.jpg	99
2247.7	2.368	2368.2	regulate	Run3	regulate/STIM_017.jpg	99
2252.767	1.614	1614.2	regulate	Run3	regulate/STIM_017.jpg	99
2258.289	1.447	1447.4	regulate	Run3	regulate/STIM_017.jpg	99
2262.706	2.039	2039.2	regulate	Run3	regulate/STIM_017.jpg	100
2267.109	1.184	1184.0	regulate	Run3	regulate/STIM_018.jpg	100
2271.69	1.577	1576.8	regulate	Run3	regulate/STIM_018.jpg	99
2276.819	2.482	2481.5	regulate	Run3	regulate/STIM_018.jpg	100
2282.934	1.722	1721.8	regulate	Run3	regulate/STIM_018.jpg	99
2288.197	1.48	1479.9	regulate	Run3	regulate/STIM_019.jpg	100
2293.017	1.517	1516.7	regulate	Run3	regulate/STIM_019.jpg	99
2296.965	1.838	1837.6	regulate	Run3	regulate/STIM_019.jpg	99
2301.47	1.602	1602.0	regulate	Run3	regulate/STIM_019.jpg	99
2305.926	1.914	1913.9	regulate	Run3	regulate/STIM_020.jpg	99
2311.649	2.438	2438.2	regulate	Run3	regulate/STIM_020.jpg	99
2316.552	1.641	1641.4	regulate	Run3	regulate/STIM_020.jpg	99
2320.276	1.434	1433.9	regulate	Run3	regulate/STIM_020.jpg	100
2324.675	2.442	2441.5	regulate	Run3	regulate/STIM_021.jpg	100
2330.545	1.397	1397.0	regulate	Run3	regulate/STIM_021.jpg	99
2335.756	1.672	1672.1	regulate	Run3	regulate/STIM_021.jpg	100
2339.711	1.733	1733.2	regulate	Run3	regulate/STIM_021.jpg	99
2345.062	1.654	1654.5	regulate	Run3	regulate/STIM_022.jpg	100
2350.186	2.043	2042.8	regulate	Run3	regulate/STIM_022.jpg	99
2354.506	1.293	1293.3	regulate	Run3	regulate/STIM_022.jpg	99
2359.598	2.235	2235.0	regulate	Run3	regulate/STIM_022.jpg	99
2365.113	2.072	2071.6	regulate	Run3	regulate/STIM_023.jpg	99
2369.835	2.339	2338.7	regulate	Run3	regulate/STIM_023.jpg	99
2374.799	1.707	1706.6	regulate	Run3	regulate/STIM_023.jpg	99
2379.525	2.022	2022.2	regulate	Run3	regulate/STIM_023.jpg	100
2383.905	1.342	1342.5	regulate	Run3	regulate/STIM_024.jpg	100
2388.054	1.992	1991.5	regulate	Run3	regulate/STIM_024.jpg	99
2392.219	1.55	1550.4	regulate	Run3	regulate/STIM_024.jpg	100
2397.53	1.956	1955.7	regulate	Run3	regulate/STIM_024.jpg	99
2402.266	2.401	2401.3	regulate	Run3	regulate/STIM_025.jpg	100
2408.306	2.118	2117.7	regulate	Run3	regulate/STIM_025.jpg	100
2412.427	1.278	1278.5	regulate	Run3	regulate/STIM_025.jpg	100
2416.9	1.995	1995.1	regulate	Run3	regulate/STIM_025.jpg	99
2421.783	1.567	1567.3	regulate	Run3	regulate/STIM_026.jpg	99
2426.673	2.153	2152.7	regulate	Run3	regulate/STIM_026.jpg	99
2431.012	1.366	1366.4	regulate	Run3	regulate/STIM_026.jpg	100
2434.7	1.087	1086.7	regulate	Run3	regulate/STIM_026.jpg	99
2438.044	1.305	1304.6	regulate	Run3	regulate/STIM_027.jpg	100
2442.877	1.749	1748.9	regulate	Run3	regulate/STIM_027.jpg	100
2447.789	2.304	2304.3	regulate	Run3	regulate/STIM_027.jpg	100
2452.833	1.3	1300.2	regulate	Run3	regulate/STIM_027.jpg	99
2457.896	2.224	2223.5	regulate	Run3	regulate/STIM_028.jpg	99
2463.629	2.323	2323.4	regulate	Run3	regulate/STIM_028.jpg	100
2468.717	2.071	2070.8	regulate	Run3	regulate/STIM_028.jpg	100
2473.084	1.888	1888.3	regulate	Run3	regulate/STIM_028.jpg	99
2478.77	2.154	2153.9	regulate	Run3	regulate/STIM_029.jpg	99
2483.053	2.238	2237.9	regulate	Run3	regulate/STIM_029.jpg	100
2488.921	2.312	2311.7	regulate	Run3	regulate/STIM_029.jpg	99
2493.266	2.071	2070.6	regulate	Run3	regulate/STIM_029.jpg	99
2499.19	1.551	1550.8	observe	Run3	observe/STIM_000.jpg	100
2503.822	1.035	1035.3	observe	Run3	observe/STIM_000.jpg	100
2508.35	1.616	1616.0	observe	Run3	observe/STIM_000.jpg	99
2512.599	1.351	1350.7	observe	Run3	observe/STIM_000.jpg	99
2517.691	1.416	1415.5	observe	Run3	observe/STIM_001.jpg	99
2521.942	1.523	1522.7	observe	Run3	observe/STIM_001.jpg	100
2527.452	1.166	1165.9	observe	Run3	observe/STIM_001.jpg	100
2531.599	1.491	1491.1	observe	Run3	observe/STIM_001.jpg	100
2536.808	1.526	1525.9	observe	Run3	observe/STIM_002.jpg	100
2542.089	1.522	1522.5	observe	Run3	observe/STIM_002.jpg	99
2546.074	1.242	1242.2	observe	Run3	observe/STIM_002.jpg	99
2549.987	1.03	1029.8	observe	Run3	observe/STIM_002.jpg	99
2554.367	1.09	1090.5	observe	Run3	observe/STIM_003.jpg	100
2558.87	1.629	1628.8	observe	Run3	observe/STIM_003.jpg	100
2563.314	0.887	887.1	observe	Run3	observe/STIM_003.jpg	100
2566.316	0.907	907.1	observe	Run3	observe/STIM_003.jpg	99
2569.861	1.072	1071.7	observe	Run3	observe/STIM_004.jpg	99
2574.18	0.877	876.6	observe	Run3	observe/STIM_004.jpg	99
2577.452	0.948	948.2	observe	Run3	observe/STIM_004.jpg	99
2581.098	1.216	1216.3	observe	Run3	observe/STIM_004.jpg	99
2585.629	1.387	1387.0	observe	Run3	observe/STIM_005.jpg	100
2590.089	1.585	1585.1	observe	Run3	observe/STIM_005.jpg	100
2594.039	0.844	844.1	observe	Run3	observe/STIM_005.jpg	99
2596.984	1.555	1554.6	observe	Run3	observe/STIM_005.jpg	100
2601.8	1.363	1363.0	observe	Run3	observe/STIM_006.jpg	99
2606.649	1.16	1160.0	observe	Run3	observe/STIM_006.jpg	99
2609.894	0.963	962.8	observe	Run3	observe/STIM_006.jpg	100
2614.289	1.376	1376.5	observe	Run3	observe/STIM_006.jpg	100
2617.723	1.348	1347.6	observe	Run3	observe/STIM_007.jpg	100
2621.952	1.016	1016.1	observe	Run3	observe/STIM_007.jpg	100
2625.506	0.828	827.7	observe	Run3	observe/STIM_007.jpg	100
2628.895	1.467	1467.3	observe	Run3	observe/STIM_007.jpg	99
2632.94	1.435	1434.8	observe	Run3	observe/STIM_008.jpg	100
2638.082	1.111	1110.7	observe	Run3	observe/STIM_008.jpg	99
2643.144	0.966	965.7	observe	Run3	observe/STIM_008.jpg	99
2646.153	1.078	1078.1	observe	Run3	observe/STIM_008.jpg	99
2650.611	1.165	1164.9	observe	Run3	observe/STIM_009.jpg	99
2654.319	1.446	1445.6	observe	Run3	observe/STIM_009.jpg	99
2657.804	1.114	1114.3	observe	Run3	observe/STIM_009.jpg	99
2662.588	1.46	1460.1	observe	Run3	observe/STIM_009.jpg	100
2666.686	1.409	1409.3	observe	Run3	observe/STIM_010.jpg	100
2670.641	1.427	1426.9	observe	Run3	observe/STIM_010.jpg	99
2675.856	1.336	1335.7	observe	Run3	observe/STIM_010.jpg	100
2679.225	0.984	984.5	observe	Run3	observe/STIM_010.jpg	99
2682.964	1.626	1626.4	observe	Run3	observe/STIM_011.jpg	99
2686.635	0.831	831.0	observe	Run3	observe/STIM_011.jpg	100
2690.704	1.439	1439.4	observe	Run3	observe/STIM_011.jpg	99
2695.205	0.866	866.2	observe	Run3	observe/STIM_011.jpg	100
2698.706	0.96	960.3	observe	Run3	observe/STIM_012.jpg	100
2702.134	0.967	967.4	observe	Run3	observe/STIM_012.jpg	99
2707.004	0.821	821.4	observe	Run3	observe/STIM_012.jpg	99
2711.054	1.484	1483.8	observe	Run3	observe/STIM_012.jpg	99
2715.821	0.831	831.2	observe	Run3	observe/STIM_013.jpg	99
2719.468	1.148	1148.4	observe	Run3	observe/STIM_013.jpg	99
2723.184	1.338	1338.3	observe	Run3	observe/STIM_013.jpg	99
2727.278	1.11	1110.5	observe	Run3	observe/STIM_013.jpg	100
2732.011	0.874	873.5	observe	Run3	observe/STIM_014.jpg	99
2736.277	1.35	1350.0	observe	Run3	observe/STIM_014.jpg	100
2740.506	1.162	1161.9	observe	Run3	observe/STIM_014.jpg	100
2744.819	1.42	1420.3	observe	Run3	observe/STIM_014.jpg	99
2749.099	0.903	903.2	observe	Run3	observe/STIM_015.jpg	100
2753.573	1.504	1504.3	observe	Run3	observe/STIM_015.jpg	99
2758.081	1.503	1503.1	observe	Run3	observe/STIM_015.jpg	99
2762.418	1.568	1567.7	observe	Run3	observe/STIM_015.jpg	100
2767.181	1.499	1499.4	observe	Run3	observe/STIM_016.jpg	100
2772.078	1.038	1037.8	observe	Run3	observe/STIM_016.jpg	99
2775.269	0.839	839.0	observe	Run3	observe/STIM_016.jpg	100
2779.423	0.958	958.4	observe	Run3	observe/STIM_016.jpg	100
2783.949	1.28	1280.3	observe	Run3	observe/STIM_017.jpg	99
2788.303	1.349	1348.7	observe	Run3	observe/STIM_017.jpg	99
2793.328	0.949	949.0	observe	Run3	observe/STIM_017.jpg	99
2798.081	1.398	1397.5	observe	Run3	observe/STIM_017.jpg	100
2803.454	1.004	1004.2	observe	Run3	observe/STIM_018.jpg	99
2807.776	1.605	1604.8	observe	Run3	observe/STIM_018.jpg	100
2812.981	0.846	846.5	observe	Run3	observe/STIM_018.jpg	99
2816.911	1.535	1535.4	observe	Run3	observe/STIM_018.jpg	100
2821.861	0.874	873.6	observe	Run3	observe/STIM_019.jpg	99
2826.529	1.048	1047.7	observe	Run3	observe/STIM_019.jpg	100
2830.442	1.058	1058.1	observe	Run3	observe/STIM_019.jpg	99
2834.897	1.417	1417.2	observe	Run3	observe/STIM_019.jpg	99
