onset	duration	accuracy	trial_type	learning_stage	stimulus
0.0	2.539	correct	regulate	Run1	regulate/STIM_000.jpg
4.842	2.173	incorrect	regulate	Run1	regulate/STIM_000.jpg
9.525	2.986	incorrect	regulate	Run1	regulate/STIM_000.jpg
14.862	2.836	correct	regulate	Run1	regulate/STIM_000.jpg
20.249	2.512	correct	regulate	Run1	regulate/STIM_001.jpg
26.409	1.949	correct	regulate	Run1	regulate/STIM_001.jpg
32.351	2.575	correct	regulate	Run1	regulate/STIM_001.jpg
38.637	2.294	correct	regulate	Run1	regulate/STIM_001.jpg
44.512	2.568	correct	regulate	Run1	regulate/STIM_002.jpg
49.483	2.353	correct	regulate	Run1	regulate/STIM_002.jpg
54.526	2.116	correct	regulate	Run1	regulate/STIM_002.jpg
59.275	1.398	correct	regulate	Run1	regulate/STIM_002.jpg
63.25	3.352	correct	regulate	Run1	regulate/STIM_003.jpg
70.31	3.119	correct	regulate	Run1	regulate/STIM_003.jpg
76.543	1.969	correct	regulate	Run1	regulate/STIM_003.jpg
81.958	1.885	correct	regulate	Run1	regulate/STIM_003.jpg
86.441	2.264	correct	regulate	Run1	regulate/STIM_004.jpg
91.304	2.862	correct	regulate	Run1	regulate/STIM_004.jpg
97.192	2.159	correct	regulate	Run1	regulate/STIM_004.jpg
103.319	2.828	correct	regulate	Run1	regulate/STIM_004.jpg
108.427	1.547	correct	regulate	Run1	regulate/STIM_005.jpg
112.23	2.892	correct	regulate	Run1	regulate/STIM_005.jpg
118.011	2.11	correct	regulate	Run1	regulate/STIM_005.jpg
123.825	2.757	incorrect	regulate	Run1	regulate/STIM_005.jpg
128.82	2.479	correct	regulate	Run1	regulate/STIM_006.jpg
135.214	1.462	correct	regulate	Run1	regulate/STIM_006.jpg
138.708	2.822	correct	regulate	Run1	regulate/STIM_006.jpg
145.557	2.406	correct	regulate	Run1	regulate/STIM_006.jpg
150.842	2.972	correct	regulate	Run1	regulate/STIM_007.jpg
157.466	2.856	incorrect	regulate	Run1	regulate/STIM_007.jpg
163.874	2.75	incorrect	regulate	Run1	regulate/STIM_007.jpg
170.475	2.687	incorrect	regulate	Run1	regulate/STIM_007.jpg
176.535	3.073	incorrect	regulate	Run1	regulate/STIM_008.jpg
183.463	1.537	correct	regulate	Run1	regulate/STIM_008.jpg
187.635	2.816	correct	regulate	Run1	regulate/STIM_008.jpg
193.519	1.833	correct	regulate	Run1	regulate/STIM_008.jpg
197.854	2.397	incorrect	regulate	Run1	regulate/STIM_009.jpg
204.25	2.516	correct	regulate	Run1	regulate/STIM_009.jpg
210.48	1.529	correct	regulate	Run1	regulate/STIM_009.jpg
215.945	1.825	correct	regulate	Run1	regulate/STIM_009.jpg
220.011	2.524	correct	regulate	Run1	regulate/STIM_010.jpg
225.336	2.107	correct	regulate	Run1	regulate/STIM_010.jpg
230.238	2.153	correct	regulate	Run1	regulate/STIM_010.jpg
235.516	2.333	correct	regulate	Run1	regulate/STIM_010.jpg
241.285	2.585	correct	regulate	Run1	regulate/STIM_011.jpg
246.903	2.649	correct	regulate	Run1	regulate/STIM_011.jpg
253.401	2.948	correct	regulate	Run1	regulate/STIM_011.jpg
258.59	1.953	incorrect	regulate	Run1	regulate/STIM_011.jpg
263.413	3.054	incorrect	regulate	Run1	regulate/STIM_012.jpg
269.775	3.221	correct	regulate	Run1	regulate/STIM_012.jpg
275.399	2.39	correct	regulate	Run1	regulate/STIM_012.jpg
280.868	2.867	correct	regulate	Run1	regulate/STIM_012.jpg
286.563	3.084	incorrect	regulate	Run1	regulate/STIM_013.jpg
292.114	2.834	correct	regulate	Run1	regulate/STIM_013.jpg
298.945	3.077	incorrect	regulate	Run1	regulate/STIM_013.jpg
304.797	2.41	correct	regulate	Run1	regulate/STIM_013.jpg
310.723	1.974	correct	regulate	Run1	regulate/STIM_014.jpg
315.359	2.492	incorrect	regulate	Run1	regulate/STIM_014.jpg
320.404	1.975	correct	regulate	Run1	regulate/STIM_014.jpg
325.005	2.784	correct	regulate	Run1	regulate/STIM_014.jpg
331.471	2.777	incorrect	regulate	Run1	regulate/STIM_015.jpg
337.273	2.46	correct	regulate	Run1	regulate/STIM_015.jpg
342.942	2.288	correct	regulate	Run1	regulate/STIM_015.jpg
348.491	2.224	correct	regulate	Run1	regulate/STIM_015.jpg
353.174	1.806	incorrect	regulate	Run1	regulate/STIM_016.jpg
358.718	2.212	correct	regulate	Run1	regulate/STIM_016.jpg
364.138	2.101	correct	regulate	Run1	regulate/STIM_016.jpg
369.215	1.833	correct	regulate	Run1	regulate/STIM_016.jpg
374.535	3.128	incorrect	regulate	Run1	regulate/STIM_017.jpg
379.78	2.627	correct	regulate	Run1	regulate/STIM_017.jpg
384.824	2.893	correct	regulate	Run1	regulate/STIM_017.jpg
391.417	2.448	correct	regulate	Run1	regulate/STIM_017.jpg
397.844	1.483	correct	regulate	Run1	regulate/STIM_018.jpg
401.417	1.604	correct	regulate	Run1	regulate/STIM_018.jpg
406.432	2.088	correct	regulate	Run1	regulate/STIM_018.jpg
411.396	1.374	correct	regulate	Run1	regulate/STIM_018.jpg
414.848	2.493	incorrect	regulate	Run1	regulate/STIM_019.jpg
419.638	2.817	correct	regulate	Run1	regulate/STIM_019.jpg
424.838	2.745	incorrect	regulate	Run1	regulate/STIM_019.jpg
429.826	1.601	correct	regulate	Run1	regulate/STIM_019.jpg
433.921	2.912	correct	regulate	Run1	regulate/STIM_020.jpg
440.133	2.443	correct	regulate	Run1	regulate/STIM_020.jpg
445.874	2.826	correct	regulate	Run1	regulate/STIM_020.jpg
450.84	1.944	incorrect	regulate	Run1	regulate/STIM_020.jpg
456.176	2.951	incorrect	regulate	Run1	regulate/STIM_021.jpg
461.779	2.735	correct	regulate	Run1	regulate/STIM_021.jpg
467.415	3.07	correct	regulate	Run1	regulate/STIM_021.jpg
473.708	1.81	correct	regulate	Run1	regulate/STIM_021.jpg
478.209	2.37	incorrect	regulate	Run1	regulate/STIM_022.jpg
482.669	2.694	correct	regulate	Run1	regulate/STIM_022.jpg
488.989	2.661	correct	regulate	Run1	regulate/STIM_022.jpg
494.108	1.714	correct	regulate	Run1	regulate/STIM_022.jpg
498.554	2.056	correct	regulate	Run1	regulate/STIM_023.jpg
504.158	1.757	correct	regulate	Run1	regulate/STIM_023.jpg
509.386	1.476	correct	regulate	Run1	regulate/STIM_023.jpg
514.678	2.493	correct	regulate	Run1	regulate/STIM_023.jpg
519.777	1.799	correct	regulate	Run1	regulate/STIM_024.jpg
525.571	2.42	correct	regulate	Run1	regulate/STIM_024.jpg
531.483	1.988	correct	regulate	Run1	regulate/STIM_024.jpg
537.436	2.454	correct	regulate	Run1	regulate/STIM_024.jpg
542.98	2.773	correct	regulate	Run1	regulate/STIM_025.jpg
549.149	2.236	correct	regulate	Run1	regulate/STIM_025.jpg
555.32	3.022	correct	regulate	Run1	regulate/STIM_025.jpg
560.724	1.327	incorrect	regulate	Run1	regulate/STIM_025.jpg
565.152	1.962	correct	regulate	Run1	regulate/STIM_026.jpg
570.302	2.422	correct	regulate	Run1	regulate/STIM_026.jpg
575.281	2.93	correct	regulate	Run1	regulate/STIM_026.jpg
581.726	1.823	correct	regulate	Run1	regulate/STIM_026.jpg
585.753	2.228	incorrect	regulate	Run1	regulate/STIM_027.jpg
590.163	1.765	correct	regulate	Run1	regulate/STIM_027.jpg
595.355	2.919	correct	regulate	Run1	regulate/STIM_027.jpg
600.325	1.819	correct	regulate	Run1	regulate/STIM_027.jpg
606.165	1.765	correct	regulate	Run1	regulate/STIM_028.jpg
610.159	1.495	correct	regulate	Run1	regulate/STIM_028.jpg
614.076	2.886	correct	regulate	Run1	regulate/STIM_028.jpg
619.491	1.705	correct	regulate	Run1	regulate/STIM_028.jpg
624.233	2.002	correct	regulate	Run1	regulate/STIM_029.jpg
628.857	2.888	correct	regulate	Run1	regulate/STIM_029.jpg
635.017	2.112	correct	regulate	Run1	regulate/STIM_029.jpg
639.433	2.596	correct	regulate	Run1	regulate/STIM_029.jpg
645.001	1.317	correct	observe	Run1	observe/STIM_000.jpg
649.304	1.047	correct	observe	Run1	observe/STIM_000.jpg
653.27	1.076	correct	observe	Run1	observe/STIM_000.jpg
656.606	1.043	correct	observe	Run1	observe/STIM_000.jpg
661.653	1.549	correct	observe	Run1	observe/STIM_001.jpg
665.819	1.248	correct	observe	Run1	observe/STIM_001.jpg
669.954	1.561	correct	observe	Run1	observe/STIM_001.jpg
674.894	0.873	correct	observe	Run1	observe/STIM_001.jpg
679.418	1.291	correct	observe	Run1	observe/STIM_002.jpg
684.115	1.179	correct	observe	Run1	observe/STIM_002.jpg
688.045	1.079	correct	observe	Run1	observe/STIM_002.jpg
691.484	1.466	correct	observe	Run1	observe/STIM_002.jpg
695.384	1.03	correct	observe	Run1	observe/STIM_003.jpg
700.123	1.074	correct	observe	Run1	observe/STIM_003.jpg
703.951	1.568	correct	observe	Run1	observe/STIM_003.jpg
708.433	1.524	incorrect	observe	Run1	observe/STIM_003.jpg
712.261	1.368	correct	observe	Run1	observe/STIM_004.jpg
716.361	0.956	correct	observe	Run1	observe/STIM_004.jpg
720.916	1.514	correct	observe	Run1	observe/STIM_004.jpg
726.147	1.166	correct	observe	Run1	observe/STIM_004.jpg
729.442	1.174	correct	observe	Run1	observe/STIM_005.jpg
733.794	1.459	correct	observe	Run1	observe/STIM_005.jpg
737.351	1.229	incorrect	observe	Run1	observe/STIM_005.jpg
740.891	1.079	incorrect	observe	Run1	observe/STIM_005.jpg
744.112	1.203	correct	observe	Run1	observe/STIM_006.jpg
747.867	1.296	correct	observe	Run1	observe/STIM_006.jpg
751.839	1.377	incorrect	observe	Run1	observe/STIM_006.jpg
756.977	1.562	incorrect	observe	Run1	observe/STIM_006.jpg
762.443	1.224	correct	observe	Run1	observe/STIM_007.jpg
767.37	1.553	correct	observe	Run1	observe/STIM_007.jpg
771.765	1.214	correct	observe	Run1	observe/STIM_007.jpg
775.937	1.117	correct	observe	Run1	observe/STIM_007.jpg
780.869	1.246	correct	observe	Run1	observe/STIM_008.jpg
785.11	1.312	correct	observe	Run1	observe/STIM_008.jpg
788.551	1.04	correct	observe	Run1	observe/STIM_008.jpg
792.521	1.054	correct	observe	Run1	observe/STIM_008.jpg
797.009	0.886	correct	observe	Run1	observe/STIM_009.jpg
801.464	1.459	correct	observe	Run1	observe/STIM_009.jpg
805.896	1.213	correct	observe	Run1	observe/STIM_009.jpg
811.05	1.09	correct	observe	Run1	observe/STIM_009.jpg
814.181	1.237	correct	observe	Run1	observe/STIM_010.jpg
819.346	1.574	correct	observe	Run1	observe/STIM_010.jpg
823.506	0.948	incorrect	observe	Run1	observe/STIM_010.jpg
827.769	1.064	correct	observe	Run1	observe/STIM_010.jpg
832.089	1.101	correct	observe	Run1	observe/STIM_011.jpg
837.18	0.959	correct	observe	Run1	observe/STIM_011.jpg
841.121	1.15	correct	observe	Run1	observe/STIM_011.jpg
845.063	1.441	correct	observe	Run1	observe/STIM_011.jpg
850.144	1.276	correct	observe	Run1	observe/STIM_012.jpg
854.766	1.256	correct	observe	Run1	observe/STIM_012.jpg
858.716	1.227	correct	observe	Run1	observe/STIM_012.jpg
861.975	0.871	correct	observe	Run1	observe/STIM_012.jpg
865.072	1.2	correct	observe	Run1	observe/STIM_013.jpg
869.758	0.816	correct	observe	Run1	observe/STIM_013.jpg
874.205	1.304	correct	observe	Run1	observe/STIM_013.jpg
879.18	1.359	incorrect	observe	Run1	observe/STIM_013.jpg
882.672	1.394	correct	observe	Run1	observe/STIM_014.jpg
886.454	0.902	correct	observe	Run1	observe/STIM_014.jpg
890.432	1.529	correct	observe	Run1	observe/STIM_014.jpg
895.148	0.827	correct	observe	Run1	observe/STIM_014.jpg
898.685	1.358	correct	observe	Run1	observe/STIM_015.jpg
903.644	1.284	correct	observe	Run1	observe/STIM_015.jpg
907.026	1.008	correct	observe	Run1	observe/STIM_015.jpg
911.461	1.512	correct	observe	Run1	observe/STIM_015.jpg
916.328	1.47	incorrect	observe	Run1	observe/STIM_016.jpg
921.447	1.353	correct	observe	Run1	observe/STIM_016.jpg
925.809	1.061	correct	observe	Run1	observe/STIM_016.jpg
929.769	1.526	correct	observe	Run1	observe/STIM_016.jpg
934.759	1.042	correct	observe	Run1	observe/STIM_017.jpg
938.02	0.801	correct	observe	Run1	observe/STIM_017.jpg
941.166	1.097	incorrect	observe	Run1	observe/STIM_017.jpg
944.952	1.231	correct	observe	Run1	observe/STIM_017.jpg
948.217	1.469	correct	observe	Run1	observe/STIM_018.jpg
952.829	0.94	correct	observe	Run1	observe/STIM_018.jpg
955.788	0.827	correct	observe	Run1	observe/STIM_018.jpg
959.229	1.353	incorrect	observe	Run1	observe/STIM_018.jpg
964.166	0.802	correct	observe	Run1	observe/STIM_019.jpg
968.424	1.089	correct	observe	Run1	observe/STIM_019.jpg
971.98	0.822	correct	observe	Run1	observe/STIM_019.jpg
975.028	1.155	correct	observe	Run1	observe/STIM_019.jpg
978.562	2.671	incorrect	regulate	Run2	regulate/STIM_000.jpg
984.341	1.735	correct	regulate	Run2	regulate/STIM_000.jpg
989.288	1.474	incorrect	regulate	Run2	regulate/STIM_000.jpg
994.039	2.306	correct	regulate	Run2	regulate/STIM_000.jpg
999.15	2.497	correct	regulate	Run2	regulate/STIM_001.jpg
1005.678	2.043	correct	regulate	Run2	regulate/STIM_001.jpg
1011.088	1.794	correct	regulate	Run2	regulate/STIM_001.jpg
1015.693	2.378	incorrect	regulate	Run2	regulate/STIM_001.jpg
1020.722	2.109	correct	regulate	Run2	regulate/STIM_002.jpg
1026.577	1.222	correct	regulate	Run2	regulate/STIM_002.jpg
1030.407	1.827	correct	regulate	Run2	regulate/STIM_002.jpg
1035.033	1.871	correct	regulate	Run2	regulate/STIM_002.jpg
1039.291	1.869	correct	regulate	Run2	regulate/STIM_003.jpg
1044.859	1.651	correct	regulate	Run2	regulate/STIM_003.jpg
1049.671	2.352	correct	regulate	Run2	regulate/STIM_003.jpg
1054.093	1.094	correct	regulate	Run2	regulate/STIM_003.jpg
1058.18	1.371	correct	regulate	Run2	regulate/STIM_004.jpg
1063.303	2.697	correct	regulate	Run2	regulate/STIM_004.jpg
1069.752	1.392	correct	regulate	Run2	regulate/STIM_004.jpg
1073.247	1.182	correct	regulate	Run2	regulate/STIM_004.jpg
1077.212	2.378	correct	regulate	Run2	regulate/STIM_005.jpg
1082.249	1.723	correct	regulate	Run2	regulate/STIM_005.jpg
1086.415	2.387	correct	regulate	Run2	regulate/STIM_005.jpg
1092.837	1.528	incorrect	regulate	Run2	regulate/STIM_005.jpg
1096.704	2.694	correct	regulate	Run2	regulate/STIM_006.jpg
1102.996	2.33	incorrect	regulate	Run2	regulate/STIM_006.jpg
1108.735	2.419	correct	regulate	Run2	regulate/STIM_006.jpg
1113.855	1.627	correct	regulate	Run2	regulate/STIM_006.jpg
1118.651	2.692	correct	regulate	Run2	regulate/STIM_007.jpg
1125.24	2.071	correct	regulate	Run2	regulate/STIM_007.jpg
1129.612	1.976	correct	regulate	Run2	regulate/STIM_007.jpg
1134.774	1.345	correct	regulate	Run2	regulate/STIM_007.jpg
1139.964	2.721	correct	regulate	Run2	regulate/STIM_008.jpg
1145.148	1.552	correct	regulate	Run2	regulate/STIM_008.jpg
1150.593	2.157	correct	regulate	Run2	regulate/STIM_008.jpg
1156.734	1.992	correct	regulate	Run2	regulate/STIM_008.jpg
1162.613	1.956	correct	regulate	Run2	regulate/STIM_009.jpg
1167.407	1.69	correct	regulate	Run2	regulate/STIM_009.jpg
1172.676	2.517	incorrect	regulate	Run2	regulate/STIM_009.jpg
1178.301	1.712	correct	regulate	Run2	regulate/STIM_009.jpg
1183.162	1.504	correct	regulate	Run2	regulate/STIM_010.jpg
1188.503	2.368	correct	regulate	Run2	regulate/STIM_010.jpg
1192.991	1.154	correct	regulate	Run2	regulate/STIM_010.jpg
1196.77	1.761	incorrect	regulate	Run2	regulate/STIM_010.jpg
1201.855	2.665	correct	regulate	Run2	regulate/STIM_011.jpg
1207.683	1.955	correct	regulate	Run2	regulate/STIM_011.jpg
1212.187	1.504	incorrect	regulate	Run2	regulate/STIM_011.jpg
1216.808	1.366	correct	regulate	Run2	regulate/STIM_011.jpg
1220.547	2.829	correct	regulate	Run2	regulate/STIM_012.jpg
1227.248	2.069	incorrect	regulate	Run2	regulate/STIM_012.jpg
1232.546	1.722	incorrect	regulate	Run2	regulate/STIM_012.jpg
1237.64	1.8	correct	regulate	Run2	regulate/STIM_012.jpg
1242.31	1.984	correct	regulate	Run2	regulate/STIM_013.jpg
1246.813	2.495	correct	regulate	Run2	regulate/STIM_013.jpg
1251.405	1.77	correct	regulate	Run2	regulate/STIM_013.jpg
1255.268	2.25	correct	regulate	Run2	regulate/STIM_013.jpg
1259.88	2.772	correct	regulate	Run2	regulate/STIM_014.jpg
1265.918	2.708	correct	regulate	Run2	regulate/STIM_014.jpg
1272.028	1.261	correct	regulate	Run2	regulate/STIM_014.jpg
1276.84	2.226	correct	regulate	Run2	regulate/STIM_014.jpg
1281.489	1.545	correct	regulate	Run2	regulate/STIM_015.jpg
1286.459	2.684	correct	regulate	Run2	regulate/STIM_015.jpg
1292.133	1.756	incorrect	regulate	Run2	regulate/STIM_015.jpg
1297.313	1.531	correct	regulate	Run2	regulate/STIM_015.jpg
1301.682	1.257	correct	regulate	Run2	regulate/STIM_016.jpg
1306.188	1.465	correct	regulate	Run2	regulate/STIM_016.jpg
1311.199	1.232	correct	regulate	Run2	regulate/STIM_016.jpg
1315.544	2.379	correct	regulate	Run2	regulate/STIM_016.jpg
1319.969	2.753	incorrect	regulate	Run2	regulate/STIM_017.jpg
1326.407	2.235	incorrect	regulate	Run2	regulate/STIM_017.jpg
1332.461	1.648	correct	regulate	Run2	regulate/STIM_017.jpg
1336.364	1.583	correct	regulate	Run2	regulate/STIM_017.jpg
1341.742	2.017	correct	regulate	Run2	regulate/STIM_018.jpg
1346.576	1.674	correct	regulate	Run2	regulate/STIM_018.jpg
1351.38	1.978	correct	regulate	Run2	regulate/STIM_018.jpg
1356.013	2.021	correct	regulate	Run2	regulate/STIM_018.jpg
1360.797	2.781	correct	regulate	Run2	regulate/STIM_019.jpg
1367.233	1.397	correct	regulate	Run2	regulate/STIM_019.jpg
1372.521	2.541	correct	regulate	Run2	regulate/STIM_019.jpg
1378.519	2.134	correct	regulate	Run2	regulate/STIM_019.jpg
1383.019	2.868	correct	regulate	Run2	regulate/STIM_020.jpg
1389.205	1.416	correct	regulate	Run2	regulate/STIM_020.jpg
1392.881	2.262	correct	regulate	Run2	regulate/STIM_020.jpg
1397.87	1.41	correct	regulate	Run2	regulate/STIM_020.jpg
1402.755	1.592	incorrect	regulate	Run2	regulate/STIM_021.jpg
1407.982	1.39	correct	regulate	Run2	regulate/STIM_021.jpg
1413.238	2.224	incorrect	regulate	Run2	regulate/STIM_021.jpg
1419.463	2.206	correct	regulate	Run2	regulate/STIM_021.jpg
1425.304	1.32	correct	regulate	Run2	regulate/STIM_022.jpg
1429.545	2.295	correct	regulate	Run2	regulate/STIM_022.jpg
1435.39	1.926	correct	regulate	Run2	regulate/STIM_022.jpg
1439.941	2.048	correct	regulate	Run2	regulate/STIM_022.jpg
1444.606	2.795	correct	regulate	Run2	regulate/STIM_023.jpg
1450.295	1.738	correct	regulate	Run2	regulate/STIM_023.jpg
1454.816	1.774	correct	regulate	Run2	regulate/STIM_023.jpg
1459.859	2.252	correct	regulate	Run2	regulate/STIM_023.jpg
1464.394	2.736	correct	regulate	Run2	regulate/STIM_024.jpg
1470.179	2.644	correct	regulate	Run2	regulate/STIM_024.jpg
1475.105	1.818	correct	regulate	Run2	regulate/STIM_024.jpg
1480.398	1.885	correct	regulate	Run2	regulate/STIM_024.jpg
1485.481	2.055	correct	regulate	Run2	regulate/STIM_025.jpg
1489.832	2.354	correct	regulate	Run2	regulate/STIM_025.jpg
1494.992	2.134	correct	regulate	Run2	regulate/STIM_025.jpg
1499.342	1.807	correct	regulate	Run2	regulate/STIM_025.jpg
1504.26	1.632	correct	regulate	Run2	regulate/STIM_026.jpg
1508.409	1.742	incorrect	regulate	Run2	regulate/STIM_026.jpg
1512.552	2.144	incorrect	regulate	Run2	regulate/STIM_026.jpg
1518.59	1.986	correct	regulate	Run2	regulate/STIM_026.jpg
1524.396	1.719	correct	regulate	Run2	regulate/STIM_027.jpg
1529.974	2.601	correct	regulate	Run2	regulate/STIM_027.jpg
1535.6	1.256	correct	regulate	Run2	regulate/STIM_027.jpg
1540.546	2.316	correct	regulate	Run2	regulate/STIM_027.jpg
1546.398	2.034	correct	regulate	Run2	regulate/STIM_028.jpg
1551.743	2.08	correct	regulate	Run2	regulate/STIM_028.jpg
1557.466	2.21	correct	regulate	Run2	regulate/STIM_028.jpg
1563.452	1.394	correct	regulate	Run2	regulate/STIM_028.jpg
1567.53	2.685	incorrect	regulate	Run2	regulate/STIM_029.jpg
1573.053	2.016	correct	regulate	Run2	regulate/STIM_029.jpg
1577.958	1.309	correct	regulate	Run2	regulate/STIM_029.jpg
1581.791	2.061	correct	regulate	Run2	regulate/STIM_029.jpg
1586.866	1.555	correct	observe	Run2	observe/STIM_000.jpg
1592.201	1.224	correct	observe	Run2	observe/STIM_000.jpg
1597.443	1.213	correct	observe	Run2	observe/STIM_000.jpg
1601.845	1.056	correct	observe	Run2	observe/STIM_000.jpg
1605.402	1.236	correct	observe	Run2	observe/STIM_001.jpg
1610.074	1.088	correct	observe	Run2	observe/STIM_001.jpg
1614.615	1.307	correct	observe	Run2	observe/STIM_001.jpg
1618.134	0.959	correct	observe	Run2	observe/STIM_001.jpg
1622.601	1.089	correct	observe	Run2	observe/STIM_002.jpg
1627.038	1.423	correct	observe	Run2	observe/STIM_002.jpg
1630.897	1.292	correct	observe	Run2	observe/STIM_002.jpg
1636.169	1.059	correct	observe	Run2	observe/STIM_002.jpg
1639.883	1.555	correct	observe	Run2	observe/STIM_003.jpg
1643.815	0.865	correct	observe	Run2	observe/STIM_003.jpg
1647.067	1.498	correct	observe	Run2	observe/STIM_003.jpg
1650.936	1.177	correct	observe	Run2	observe/STIM_003.jpg
1654.774	1.404	correct	observe	Run2	observe/STIM_004.jpg
1659.373	0.988	correct	observe	Run2	observe/STIM_004.jpg
1663.006	0.797	correct	observe	Run2	observe/STIM_004.jpg
1666.837	0.959	correct	observe	Run2	observe/STIM_004.jpg
1671.789	0.91	correct	observe	Run2	observe/STIM_005.jpg
1674.847	1.38	correct	observe	Run2	observe/STIM_005.jpg
1678.815	1.311	correct	observe	Run2	observe/STIM_005.jpg
1683.487	1.011	correct	observe	Run2	observe/STIM_005.jpg
1688.175	1.059	incorrect	observe	Run2	observe/STIM_006.jpg
1691.782	1.284	correct	observe	Run2	observe/STIM_006.jpg
1695.864	1.092	correct	observe	Run2	observe/STIM_006.jpg
1700.698	1.278	correct	observe	Run2	observe/STIM_006.jpg
1704.129	0.985	correct	observe	Run2	observe/STIM_007.jpg
1708.832	1.393	incorrect	observe	Run2	observe/STIM_007.jpg
1713.995	1.345	correct	observe	Run2	observe/STIM_007.jpg
1719.091	0.977	correct	observe	Run2	observe/STIM_007.jpg
1722.446	1.203	correct	observe	Run2	observe/STIM_008.jpg
1727.041	1.29	correct	observe	Run2	observe/STIM_008.jpg
1732.3	1.207	correct	observe	Run2	observe/STIM_008.jpg
1735.944	0.983	correct	observe	Run2	observe/STIM_008.jpg
1740.937	1.183	correct	observe	Run2	observe/STIM_009.jpg
1745.716	1.406	correct	observe	Run2	observe/STIM_009.jpg
1749.369	1.186	incorrect	observe	Run2	observe/STIM_009.jpg
1753.556	1.224	correct	observe	Run2	observe/STIM_009.jpg
1758.764	1.253	correct	observe	Run2	observe/STIM_010.jpg
1763.26	1.091	correct	observe	Run2	observe/STIM_010.jpg
1766.698	1.053	correct	observe	Run2	observe/STIM_010.jpg
1769.911	1.454	correct	observe	Run2	observe/STIM_010.jpg
1775.044	1.523	correct	observe	Run2	observe/STIM_011.jpg
1779.252	0.96	correct	observe	Run2	observe/STIM_011.jpg
1783.42	1.044	correct	observe	Run2	observe/STIM_011.jpg
1786.97	1.249	correct	observe	Run2	observe/STIM_011.jpg
1790.613	0.812	correct	observe	Run2	observe/STIM_012.jpg
1794.575	1.532	correct	observe	Run2	observe/STIM_012.jpg
1798.671	1.099	correct	observe	Run2	observe/STIM_012.jpg
1803.767	1.295	correct	observe	Run2	observe/STIM_012.jpg
1807.569	1.251	correct	observe	Run2	observe/STIM_013.jpg
1812.526	1.282	incorrect	observe	Run2	observe/STIM_013.jpg
1817.375	1.097	correct	observe	Run2	observe/STIM_013.jpg
1820.831	1.504	correct	observe	Run2	observe/STIM_013.jpg
1825.225	1.272	correct	observe	Run2	observe/STIM_014.jpg
1828.538	1.545	incorrect	observe	Run2	observe/STIM_014.jpg
1833.204	1.457	correct	observe	Run2	observe/STIM_014.jpg
1837.598	1.005	correct	observe	Run2	observe/STIM_014.jpg
1840.726	1.035	correct	observe	Run2	observe/STIM_015.jpg
1844.085	0.87	correct	observe	Run2	observe/STIM_015.jpg
1848.001	1.228	correct	observe	Run2	observe/STIM_015.jpg
1852.548	1.553	correct	observe	Run2	observe/STIM_015.jpg
1857.398	0.829	correct	observe	Run2	observe/STIM_016.jpg
1862.152	1.106	correct	observe	Run2	observe/STIM_016.jpg
1866.565	1.516	correct	observe	Run2	observe/STIM_016.jpg
1871.74	1.375	correct	observe	Run2	observe/STIM_016.jpg
1876.667	1.211	correct	observe	Run2	observe/STIM_017.jpg
1881.629	0.978	incorrect	observe	Run2	observe/STIM_017.jpg
1885.639	1.483	correct	observe	Run2	observe/STIM_017.jpg
1890.328	0.974	correct	observe	Run2	observe/STIM_017.jpg
1894.054	1.216	correct	observe	Run2	observe/STIM_018.jpg
1898.481	1.28	correct	observe	Run2	observe/STIM_018.jpg
1903.597	1.33	correct	observe	Run2	observe/STIM_018.jpg
1907.652	1.131	correct	observe	Run2	observe/STIM_018.jpg
1911.777	1.223	correct	observe	Run2	observe/STIM_019.jpg
1915.118	1.179	correct	observe	Run2	observe/STIM_019.jpg
1918.993	0.979	correct	observe	Run2	observe/STIM_019.jpg
1923.69	1.555	correct	observe	Run2	observe/STIM_019.jpg
1927.482	1.868	correct	regulate	Run3	regulate/STIM_000.jpg
1932.026	2.128	correct	regulate	Run3	regulate/STIM_000.jpg
1937.852	1.858	correct	regulate	Run3	regulate/STIM_000.jpg
1943.123	1.88	correct	regulate	Run3	regulate/STIM_000.jpg
1947.084	1.878	correct	regulate	Run3	regulate/STIM_001.jpg
1952.279	1.457	correct	regulate	Run3	regulate/STIM_001.jpg
1957.529	1.447	correct	regulate	Run3	regulate/STIM_001.jpg
1962.538	1.208	correct	regulate	Run3	regulate/STIM_001.jpg
1966.728	2.203	correct	regulate	Run3	regulate/STIM_002.jpg
1971.014	1.639	correct	regulate	Run3	regulate/STIM_002.jpg
1975.755	2.385	correct	regulate	Run3	regulate/STIM_002.jpg
1980.618	2.117	correct	regulate	Run3	regulate/STIM_002.jpg
1985.775	1.401	correct	regulate	Run3	regulate/STIM_003.jpg
1990.987	1.732	correct	regulate	Run3	regulate/STIM_003.jpg
1995.408	1.36	correct	regulate	Run3	regulate/STIM_003.jpg
1999.306	2.399	incorrect	regulate	Run3	regulate/STIM_003.jpg
2003.924	1.261	correct	regulate	Run3	regulate/STIM_004.jpg
2007.955	1.692	correct	regulate	Run3	regulate/STIM_004.jpg
2012.081	1.346	correct	regulate	Run3	regulate/STIM_004.jpg
2015.535	1.16	correct	regulate	Run3	regulate/STIM_004.jpg
2019.529	1.402	correct	regulate	Run3	regulate/STIM_005.jpg
2023.12	2.397	correct	regulate	Run3	regulate/STIM_005.jpg
2028.753	1.349	correct	regulate	Run3	regulate/STIM_005.jpg
2033.352	1.532	correct	regulate	Run3	regulate/STIM_005.jpg
2038.483	1.583	correct	regulate	Run3	regulate/STIM_006.jpg
2043.261	1.248	correct	regulate	Run3	regulate/STIM_006.jpg
2047.892	1.881	correct	regulate	Run3	regulate/STIM_006.jpg
2052.23	1.042	correct	regulate	Run3	regulate/STIM_006.jpg
2055.534	1.637	correct	regulate	Run3	regulate/STIM_007.jpg
2060.366	1.261	correct	regulate	Run3	regulate/STIM_007.jpg
2064.702	2.004	correct	regulate	Run3	regulate/STIM_007.jpg
2070.553	1.071	correct	regulate	Run3	regulate/STIM_007.jpg
2074.188	2.329	correct	regulate	Run3	regulate/STIM_008.jpg
2079.966	1.622	correct	regulate	Run3	regulate/STIM_008.jpg
2084.566	1.623	correct	regulate	Run3	regulate/STIM_008.jpg
2088.409	1.418	correct	regulate	Run3	regulate/STIM_008.jpg
2091.911	1.309	correct	regulate	Run3	regulate/STIM_009.jpg
2096.747	1.11	correct	regulate	Run3	regulate/STIM_009.jpg
2101.705	2.005	incorrect	regulate	Run3	regulate/STIM_009.jpg
2105.888	2.067	correct	regulate	Run3	regulate/STIM_009.jpg
2111.667	1.538	correct	regulate	Run3	regulate/STIM_010.jpg
2117.202	1.766	correct	regulate	Run3	regulate/STIM_010.jpg
2121.023	1.933	correct	regulate	Run3	regulate/STIM_010.jpg
2125.7	1.252	correct	regulate	Run3	regulate/STIM_010.jpg
2130.102	1.399	correct	regulate	Run3	regulate/STIM_011.jpg
2134.44	1.315	correct	regulate	Run3	regulate/STIM_011.jpg
2139.204	2.243	correct	regulate	Run3	regulate/STIM_011.jpg
2144.93	2.112	correct	regulate	Run3	regulate/STIM_011.jpg
2149.698	1.634	correct	regulate	Run3	regulate/STIM_012.jpg
2153.442	1.13	correct	regulate	Run3	regulate/STIM_012.jpg
2157.261	1.942	correct	regulate	Run3	regulate/STIM_012.jpg
2162.562	2.233	correct	regulate	Run3	regulate/STIM_012.jpg
2166.965	2.154	correct	regulate	Run3	regulate/STIM_013.jpg
2172.112	1.208	correct	regulate	Run3	regulate/STIM_013.jpg
2176.875	1.636	correct	regulate	Run3	regulate/STIM_013.jpg
2181.805	1.994	correct	regulate	Run3	regulate/STIM_013.jpg
2186.749	1.076	correct	regulate	Run3	regulate/STIM_014.jpg
2191.62	1.589	correct	regulate	Run3	regulate/STIM_014.jpg
2195.37	1.605	correct	regulate	Run3	regulate/STIM_014.jpg
2199.735	1.423	correct	regulate	Run3	regulate/STIM_014.jpg
2204.245	1.916	correct	regulate	Run3	regulate/STIM_015.jpg
2208.315	1.143	correct	regulate	Run3	regulate/STIM_015.jpg
2212.644	2.251	correct	regulate	Run3	regulate/STIM_015.jpg
2218.235	1.276	correct	regulate	Run3	regulate/STIM_015.jpg
2223.074	1.659	correct	regulate	Run3	regulate/STIM_016.jpg
2228.604	1.586	correct	regulate	Run3	regulate/STIM_016.jpg
2233.452	1.196	incorrect	regulate	Run3	regulate/STIM_016.jpg
2236.809	1.694	correct	regulate	Run3	regulate/STIM_016.jpg
2240.59	1.254	correct	regulate	Run3	regulate/STIM_017.jpg
2245.303	1.505	correct	regulate	Run3	regulate/STIM_017.jpg
2249.162	1.751	correct	regulate	Run3	regulate/STIM_017.jpg
2253.375	1.154	correct	regulate	Run3	regulate/STIM_017.jpg
2257.101	2.106	correct	regulate	Run3	regulate/STIM_018.jpg
2261.809	1.4	correct	regulate	Run3	regulate/STIM_018.jpg
2266.277	1.792	correct	regulate	Run3	regulate/STIM_018.jpg
2270.99	2.367	correct	regulate	Run3	regulate/STIM_018.jpg
2276.607	1.117	correct	regulate	Run3	regulate/STIM_019.jpg
2281.254	2.284	correct	regulate	Run3	regulate/STIM_019.jpg
2286.334	1.309	correct	regulate	Run3	regulate/STIM_019.jpg
2291.314	1.869	correct	regulate	Run3	regulate/STIM_019.jpg
2296.995	2.288	correct	regulate	Run3	regulate/STIM_020.jpg
2301.978	1.508	correct	regulate	Run3	regulate/STIM_020.jpg
2307.346	2.176	correct	regulate	Run3	regulate/STIM_020.jpg
2313.216	1.331	correct	regulate	Run3	regulate/STIM_020.jpg
2317.714	1.372	correct	regulate	Run3	regulate/STIM_021.jpg
2322.569	1.42	correct	regulate	Run3	regulate/STIM_021.jpg
2326.922	1.489	correct	regulate	Run3	regulate/STIM_021.jpg
2331.095	2.043	correct	regulate	Run3	regulate/STIM_021.jpg
2336.23	1.362	correct	regulate	Run3	regulate/STIM_022.jpg
2339.988	1.545	correct	regulate	Run3	regulate/STIM_022.jpg
2344.374	2.375	correct	regulate	Run3	regulate/STIM_022.jpg
2349.683	1.567	correct	regulate	Run3	regulate/STIM_022.jpg
2354.648	1.148	correct	regulate	Run3	regulate/STIM_023.jpg
2359.188	1.965	correct	regulate	Run3	regulate/STIM_023.jpg
2363.323	1.12	correct	regulate	Run3	regulate/STIM_023.jpg
2366.811	1.296	correct	regulate	Run3	regulate/STIM_023.jpg
2371.572	1.091	correct	regulate	Run3	regulate/STIM_024.jpg
2376.163	1.344	correct	regulate	Run3	regulate/STIM_024.jpg
2380.378	1.544	correct	regulate	Run3	regulate/STIM_024.jpg
2384.744	1.639	correct	regulate	Run3	regulate/STIM_024.jpg
2388.686	2.063	correct	regulate	Run3	regulate/STIM_025.jpg
2393.536	1.708	correct	regulate	Run3	regulate/STIM_025.jpg
2398.471	2.408	correct	regulate	Run3	regulate/STIM_025.jpg
2404.869	2.04	correct	regulate	Run3	regulate/STIM_025.jpg
2410.72	1.678	correct	regulate	Run3	regulate/STIM_026.jpg
2415.371	2.311	correct	regulate	Run3	regulate/STIM_026.jpg
2420.09	1.179	incorrect	regulate	Run3	regulate/STIM_026.jpg
2423.436	1.992	correct	regulate	Run3	regulate/STIM_026.jpg
2429.259	1.346	correct	regulate	Run3	regulate/STIM_027.jpg
2432.734	2.073	correct	regulate	Run3	regulate/STIM_027.jpg
2437.997	1.698	correct	regulate	Run3	regulate/STIM_027.jpg
2443.601	1.04	correct	regulate	Run3	regulate/STIM_027.jpg
2446.832	2.037	correct	regulate	Run3	regulate/STIM_028.jpg
2451.452	2.215	correct	regulate	Run3	regulate/STIM_028.jpg
2456.643	2.069	correct	regulate	Run3	regulate/STIM_028.jpg
2461.793	1.09	correct	regulate	Run3	regulate/STIM_028.jpg
2465.022	2.354	correct	regulate	Run3	regulate/STIM_029.jpg
2470.419	1.794	correct	regulate	Run3	regulate/STIM_029.jpg
2475.33	1.262	correct	regulate	Run3	regulate/STIM_029.jpg
2480.564	2.401	correct	regulate	Run3	regulate/STIM_029.jpg
2485.299	0.912	correct	observe	Run3	observe/STIM_000.jpg
2489.186	1.215	correct	observe	Run3	observe/STIM_000.jpg
2493.488	1.298	incorrect	observe	Run3	observe/STIM_000.jpg
2497.311	1.309	correct	observe	Run3	observe/STIM_000.jpg
2501.804	1.165	incorrect	observe	Run3	observe/STIM_001.jpg
2505.547	1.23	correct	observe	Run3	observe/STIM_001.jpg
2509.35	1.401	correct	observe	Run3	observe/STIM_001.jpg
2513.706	1.022	correct	observe	Run3	observe/STIM_001.jpg
2517.8	1.405	correct	observe	Run3	observe/STIM_002.jpg
2522.157	0.929	correct	observe	Run3	observe/STIM_002.jpg
2526.329	0.98	incorrect	observe	Run3	observe/STIM_002.jpg
2530.138	0.837	correct	observe	Run3	observe/STIM_002.jpg
2533.538	1.574	incorrect	observe	Run3	observe/STIM_003.jpg
2537.37	1.278	correct	observe	Run3	observe/STIM_003.jpg
2542.613	0.994	correct	observe	Run3	observe/STIM_003.jpg
2546.432	0.964	correct	observe	Run3	observe/STIM_003.jpg
2550.233	1.523	correct	observe	Run3	observe/STIM_004.jpg
2554.171	1.07	correct	observe	Run3	observe/STIM_004.jpg
2558.657	1.069	correct	observe	Run3	observe/STIM_004.jpg
2562.102	1.382	incorrect	observe	Run3	observe/STIM_004.jpg
2567.188	1.544	incorrect	observe	Run3	observe/STIM_005.jpg
2570.857	1.06	correct	observe	Run3	observe/STIM_005.jpg
2574.405	1.29	incorrect	observe	Run3	observe/STIM_005.jpg
2578.557	1.101	correct	observe	Run3	observe/STIM_005.jpg
2582.369	0.987	correct	observe	Run3	observe/STIM_006.jpg
2587.043	1.028	correct	observe	Run3	observe/STIM_006.jpg
2590.653	1.174	correct	observe	Run3	observe/STIM_006.jpg
2595.605	1.199	correct	observe	Run3	observe/STIM_006.jpg
2599.167	1.536	correct	observe	Run3	observe/STIM_007.jpg
2604.039	0.98	correct	observe	Run3	observe/STIM_007.jpg
2608.109	1.19	correct	observe	Run3	observe/STIM_007.jpg
2611.944	1.361	correct	observe	Run3	observe/STIM_007.jpg
2615.343	1.182	correct	observe	Run3	observe/STIM_008.jpg
2619.665	1.321	correct	observe	Run3	observe/STIM_008.jpg
2624.296	1.301	incorrect	observe	Run3	observe/STIM_008.jpg
2629.141	1.542	correct	observe	Run3	observe/STIM_008.jpg
2634.278	1.108	correct	observe	Run3	observe/STIM_009.jpg
2638.843	0.985	correct	observe	Run3	observe/STIM_009.jpg
2642.406	1.08	correct	observe	Run3	observe/STIM_009.jpg
2647.095	1.006	correct	observe	Run3	observe/STIM_009.jpg
2651.129	1.078	correct	observe	Run3	observe/STIM_010.jpg
2655.101	1.348	correct	observe	Run3	observe/STIM_010.jpg
2659.345	1.372	incorrect	observe	Run3	observe/STIM_010.jpg
2663.655	1.179	correct	observe	Run3	observe/STIM_010.jpg
2668.826	1.553	incorrect	observe	Run3	observe/STIM_011.jpg
2672.408	1.471	correct	observe	Run3	observe/STIM_011.jpg
2676.855	0.82	correct	observe	Run3	observe/STIM_011.jpg
2680.054	1.472	correct	observe	Run3	observe/STIM_011.jpg
2685.055	0.974	correct	observe	Run3	observe/STIM_012.jpg
2689.118	1.198	correct	observe	Run3	observe/STIM_012.jpg
2693.56	1.514	correct	observe	Run3	observe/STIM_012.jpg
2698.897	1.062	correct	observe	Run3	observe/STIM_012.jpg
2702.198	1.059	correct	observe	Run3	observe/STIM_013.jpg
2705.653	1.482	correct	observe	Run3	observe/STIM_013.jpg
2710.167	1.042	correct	observe	Run3	observe/STIM_013.jpg
2714.705	1.221	correct	observe	Run3	observe/STIM_013.jpg
2719.167	1.167	correct	observe	Run3	observe/STIM_014.jpg
2722.422	1.562	correct	observe	Run3	observe/STIM_014.jpg
2727.879	1.503	correct	observe	Run3	observe/STIM_014.jpg
2732.317	1.02	correct	observe	Run3	observe/STIM_014.jpg
2736.19	1.307	correct	observe	Run3	observe/STIM_015.jpg
2740.003	1.216	correct	observe	Run3	observe/STIM_015.jpg
2743.834	0.793	correct	observe	Run3	observe/STIM_015.jpg
2748.314	1.071	correct	observe	Run3	observe/STIM_015.jpg
2752.952	1.266	incorrect	observe	Run3	observe/STIM_016.jpg
2756.704	1.401	correct	observe	Run3	observe/STIM_016.jpg
2762.037	1.506	correct	observe	Run3	observe/STIM_016.jpg
2765.795	1.223	incorrect	observe	Run3	observe/STIM_016.jpg
2769.8	0.791	correct	observe	Run3	observe/STIM_017.jpg
2772.935	0.921	correct	observe	Run3	observe/STIM_017.jpg
2777.08	1.565	correct	observe	Run3	observe/STIM_017.jpg
2781.067	1.337	incorrect	observe	Run3	observe/STIM_017.jpg
2784.873	1.13	incorrect	observe	Run3	observe/STIM_018.jpg
2789.403	1.53	correct	observe	Run3	observe/STIM_018.jpg
2792.971	1.259	correct	observe	Run3	observe/STIM_018.jpg
2797.545	1.147	incorrect	observe	Run3	observe/STIM_018.jpg
2801.59	1.486	correct	observe	Run3	observe/STIM_019.jpg
2806.401	1.516	correct	observe	Run3	observe/STIM_019.jpg
2810.777	1.162	correct	observe	Run3	observe/STIM_019.jpg
2815.251	1.21	correct	observe	Run3	observe/STIM_019.jpg
