onset	duration	response_time_ms	trial_type	learning_stage	stimulus	response_port
0.0	2.539	2539.4	regulate	Run1	regulate/STIM_000.jpg	100
4.842	2.173	2173.3	regulate	Run1	regulate/STIM_000.jpg	99
9.525	2.986	2985.9	regulate	Run1	regulate/STIM_000.jpg	99
14.862	2.836	2836.5	regulate	Run1	regulate/STIM_000.jpg	100
20.249	2.512	2511.5	regulate	Run1	regulate/STIM_001.jpg	99
26.409	1.949	1948.6	regulate	Run1	regulate/STIM_001.jpg	100
32.351	2.575	2574.6	regulate	Run1	regulate/STIM_001.jpg	99
38.637	2.294	2294.0	regulate	Run1	regulate/STIM_001.jpg	99
44.512	2.568	2567.8	regulate	Run1	regulate/STIM_002.jpg	99
49.483	2.353	2353.3	regulate	Run1	regulate/STIM_002.jpg	99
54.526	2.116	2116.0	regulate	Run1	regulate/STIM_002.jpg	100
59.275	1.398	1398.0	regulate	Run1	regulate/STIM_002.jpg	100
63.25	3.352	3352.3	regulate	Run1	regulate/STIM_003.jpg	99
70.31	3.119	3118.8	regulate	Run1	regulate/STIM_003.jpg	100
76.543	1.969	1968.8	regulate	Run1	regulate/STIM_003.jpg	99
81.958	1.885	1884.9	regulate	Run1	regulate/STIM_003.jpg	99
86.441	2.264	2263.9	regulate	Run1	regulate/STIM_004.jpg	99
91.304	2.862	2861.8	regulate	Run1	regulate/STIM_004.jpg	100
97.192	2.159	2158.8	regulate	Run1	regulate/STIM_004.jpg	99
103.319	2.828	2828.2	regulate	Run1	regulate/STIM_004.jpg	99
108.427	1.547	1547.0	regulate	Run1	regulate/STIM_005.jpg	100
112.23	2.892	2891.9	regulate	Run1	regulate/STIM_005.jpg	99
118.011	2.11	2110.4	regulate	Run1	regulate/STIM_005.jpg	100
123.825	2.757	2757.1	regulate	Run1	regulate/STIM_005.jpg	100
128.82	2.479	2479.2	regulate	Run1	regulate/STIM_006.jpg	99
135.214	1.462	1461.5	regulate	Run1	regulate/STIM_006.jpg	99
138.708	2.822	2821.7	regulate	Run1	regulate/STIM_006.jpg	99
145.557	2.406	2406.4	regulate	Run1	regulate/STIM_006.jpg	99
150.842	2.972	2971.8	regulate	Run1	regulate/STIM_007.jpg	100
157.466	2.856	2855.7	regulate	Run1	regulate/STIM_007.jpg	100
163.874	2.75	2750.1	regulate	Run1	regulate/STIM_007.jpg	100
170.475	2.687	2687.4	regulate	Run1	regulate/STIM_007.jpg	100
176.535	3.073	3072.6	regulate	Run1	regulate/STIM_008.jpg	100
183.463	1.537	1537.0	regulate	Run1	regulate/STIM_008.jpg	100
187.635	2.816	2816.2	regulate	Run1	regulate/STIM_008.jpg	99
193.519	1.833	1833.2	regulate	Run1	regulate/STIM_008.jpg	99
197.854	2.397	2396.9	regulate	Run1	regulate/STIM_009.jpg	100
204.25	2.516	2515.5	regulate	Run1	regulate/STIM_009.jpg	100
210.48	1.529	1528.6	regulate	Run1	regulate/STIM_009.jpg	99
215.945	1.825	1824.6	regulate	Run1	regulate/STIM_009.jpg	100
220.011	2.524	2524.2	regulate	Run1	regulate/STIM_010.jpg	100
225.336	2.107	2107.0	regulate	Run1	regulate/STIM_010.jpg	99
230.238	2.153	2153.0	regulate	Run1	regulate/STIM_010.jpg	99
235.516	2.333	2332.7	regulate	Run1	regulate/STIM_010.jpg	100
241.285	2.585	2585.1	regulate	Run1	regulate/STIM_011.jpg	100
246.903	2.649	2649.1	regulate	Run1	regulate/STIM_011.jpg	100
253.401	2.948	2947.6	regulate	Run1	regulate/STIM_011.jpg	100
258.59	1.953	1952.6	regulate	Run1	regulate/STIM_011.jpg	99
263.413	3.054	3054.2	regulate	Run1	regulate/STIM_012.jpg	99
269.775	3.221	3221.0	regulate	Run1	regulate/STIM_012.jpg	100
275.399	2.39	2389.6	regulate	Run1	regulate/STIM_012.jpg	100
280.868	2.867	2867.2	regulate	Run1	regulate/STIM_012.jpg	99
286.563	3.084	3083.7	regulate	Run1	regulate/STIM_013.jpg	100
292.114	2.834	2834.3	regulate	Run1	regulate/STIM_013.jpg	100
298.945	3.077	3076.8	regulate	Run1	regulate/STIM_013.jpg	100
304.797	2.41	2409.6	regulate	Run1	regulate/STIM_013.jpg	100
310.723	1.974	1974.1	regulate	Run1	regulate/STIM_014.jpg	100
315.359	2.492	2492.4	regulate	Run1	regulate/STIM_014.jpg	100
320.404	1.975	1974.9	regulate	Run1	regulate/STIM_014.jpg	100
325.005	2.784	2784.4	regulate	Run1	regulate/STIM_014.jpg	100
331.471	2.777	2777.1	regulate	Run1	regulate/STIM_015.jpg	99
337.273	2.46	2459.9	regulate	Run1	regulate/STIM_015.jpg	100
342.942	2.288	2287.8	regulate	Run1	regulate/STIM_015.jpg	99
348.491	2.224	2224.1	regulate	Run1	regulate/STIM_015.jpg	99
353.174	1.806	1805.7	regulate	Run1	regulate/STIM_016.jpg	100
358.718	2.212	2212.4	regulate	Run1	regulate/STIM_016.jpg	99
364.138	2.101	2100.6	regulate	Run1	regulate/STIM_016.jpg	100
369.215	1.833	1832.6	regulate	Run1	regulate/STIM_016.jpg	100
374.535	3.128	3128.2	regulate	Run1	regulate/STIM_017.jpg	99
379.78	2.627	2626.7	regulate	Run1	regulate/STIM_017.jpg	99
384.824	2.893	2892.7	regulate	Run1	regulate/STIM_017.jpg	99
391.417	2.448	2448.0	regulate	Run1	regulate/STIM_017.jpg	99
397.844	1.483	1482.9	regulate	Run1	regulate/STIM_018.jpg	99
401.417	1.604	1604.4	regulate	Run1	regulate/STIM_018.jpg	100
406.432	2.088	2088.5	regulate	Run1	regulate/STIM_018.jpg	99
411.396	1.374	1374.5	regulate	Run1	regulate/STIM_018.jpg	100
414.848	2.493	2492.9	regulate	Run1	regulate/STIM_019.jpg	99
419.638	2.817	2816.9	regulate	Run1	regulate/STIM_019.jpg	99
424.838	2.745	2745.3	regulate	Run1	regulate/STIM_019.jpg	99
429.826	1.601	1601.2	regulate	Run1	regulate/STIM_019.jpg	99
433.921	2.912	2911.5	regulate	Run1	regulate/STIM_020.jpg	100
440.133	2.443	2443.0	regulate	Run1	regulate/STIM_020.jpg	100
445.874	2.826	2825.5	regulate	Run1	regulate/STIM_020.jpg	100
450.84	1.944	1944.3	regulate	Run1	regulate/STIM_020.jpg	100
456.176	2.951	2951.0	regulate	Run1	regulate/STIM_021.jpg	99
461.779	2.735	2735.1	regulate	Run1	regulate/STIM_021.jpg	99
467.415	3.07	3070.0	regulate	Run1	regulate/STIM_021.jpg	99
473.708	1.81	1810.4	regulate	Run1	regulate/STIM_021.jpg	100
478.209	2.37	2369.8	regulate	Run1	regulate/STIM_022.jpg	99
482.669	2.694	2693.9	regulate	Run1	regulate/STIM_022.jpg	99
488.989	2.661	2660.8	regulate	Run1	regulate/STIM_022.jpg	99
494.108	1.714	1714.1	regulate	Run1	regulate/STIM_022.jpg	100
498.554	2.056	2055.9	regulate	Run1	regulate/STIM_023.jpg	100
504.158	1.757	1757.1	regulate	Run1	regulate/STIM_023.jpg	99
509.386	1.476	1475.6	regulate	Run1	regulate/STIM_023.jpg	99
514.678	2.493	2493.0	regulate	Run1	regulate/STIM_023.jpg	100
519.777	1.799	1799.4	regulate	Run1	regulate/STIM_024.jpg	99
525.571	2.42	2419.5	regulate	Run1	regulate/STIM_024.jpg	99
531.483	1.988	1987.7	regulate	Run1	regulate/STIM_024.jpg	100
537.436	2.454	2453.7	regulate	Run1	regulate/STIM_024.jpg	99
542.98	2.773	2773.2	regulate	Run1	regulate/STIM_025.jpg	100
549.149	2.236	2236.2	regulate	Run1	regulate/STIM_025.jpg	99
555.32	3.022	3022.0	regulate	Run1	regulate/STIM_025.jpg	99
560.724	1.327	1326.6	regulate	Run1	regulate/STIM_025.jpg	99
565.152	1.962	1962.1	regulate	Run1	regulate/STIM_026.jpg	100
570.302	2.422	2421.8	regulate	Run1	regulate/STIM_026.jpg	99
575.281	2.93	2930.2	regulate	Run1	regulate/STIM_026.jpg	99
581.726	1.823	1822.7	regulate	Run1	regulate/STIM_026.jpg	100
585.753	2.228	2227.5	regulate	Run1	regulate/STIM_027.jpg	99
590.163	1.765	1765.4	regulate	Run1	regulate/STIM_027.jpg	100
595.355	2.919	2918.8	regulate	Run1	regulate/STIM_027.jpg	99
600.325	1.819	1819.2	regulate	Run1	regulate/STIM_027.jpg	99
606.165	1.765	1765.4	regulate	Run1	regulate/STIM_028.jpg	99
610.159	1.495	1495.1	regulate	Run1	regulate/STIM_028.jpg	100
614.076	2.886	2885.8	regulate	Run1	regulate/STIM_028.jpg	99
619.491	1.705	1705.1	regulate	Run1	regulate/STIM_028.jpg	100
624.233	2.002	2002.3	regulate	Run1	regulate/STIM_029.jpg	100
628.857	2.888	2888.1	regulate	Run1	regulate/STIM_029.jpg	99
635.017	2.112	2111.9	regulate	Run1	regulate/STIM_029.jpg	100
639.433	2.596	2596.1	regulate	Run1	regulate/STIM_029.jpg	99
645.001	1.317	1316.9	observe	Run1	observe/STIM_000.jpg	100
649.304	1.047	1047.0	observe	Run1	observe/STIM_000.jpg	100
653.27	1.076	1075.6	observe	Run1	observe/STIM_000.jpg	100
656.606	1.043	1043.1	observe	Run1	observe/STIM_000.jpg	99
661.653	1.549	1549.2	observe	Run1	observe/STIM_001.jpg	100
665.819	1.248	1247.5	observe	Run1	observe/STIM_001.jpg	99
669.954	1.561	1560.9	observe	Run1	observe/STIM_001.jpg	99
674.894	0.873	873.1	observe	Run1	observe/STIM_001.jpg	100
679.418	1.291	1290.7	observe	Run1	observe/STIM_002.jpg	99
684.115	1.179	1179.4	observe	Run1	observe/STIM_002.jpg	99
688.045	1.079	1078.9	observe	Run1	observe/STIM_002.jpg	99
691.484	1.466	1466.5	observe	Run1	observe/STIM_002.jpg	99
695.384	1.03	1030.4	observe	Run1	observe/STIM_003.jpg	100
700.123	1.074	1073.7	observe	Run1	observe/STIM_003.jpg	99
703.951	1.568	1568.1	observe	Run1	observe/STIM_003.jpg	100
708.433	1.524	1523.5	observe	Run1	observe/STIM_003.jpg	99
712.261	1.368	1368.2	observe	Run1	observe/STIM_004.jpg	99
716.361	0.956	955.9	observe	Run1	observe/STIM_004.jpg	99
720.916	1.514	1514.2	observe	Run1	observe/STIM_004.jpg	99
726.147	1.166	1166.5	observe	Run1	observe/STIM_004.jpg	100
729.442	1.174	1173.6	observe	Run1	observe/STIM_005.jpg	99
733.794	1.459	1459.0	observe	Run1	observe/STIM_005.jpg	100
737.351	1.229	1228.7	observe	Run1	observe/STIM_005.jpg	99
740.891	1.079	1079.1	observe	Run1	observe/STIM_005.jpg	100
744.112	1.203	1203.1	observe	Run1	observe/STIM_006.jpg	100
747.867	1.296	1296.5	observe	Run1	observe/STIM_006.jpg	99
751.839	1.377	1377.4	observe	Run1	observe/STIM_006.jpg	100
756.977	1.562	1562.3	observe	Run1	observe/STIM_006.jpg	99
762.443	1.224	1224.2	observe	Run1	observe/STIM_007.jpg	99
767.37	1.553	1553.3	observe	Run1	observe/STIM_007.jpg	99
771.765	1.214	1213.7	observe	Run1	observe/STIM_007.jpg	99
775.937	1.117	1117.1	observe	Run1	observe/STIM_007.jpg	100
780.869	1.246	1245.9	observe	Run1	observe/STIM_008.jpg	100
785.11	1.312	1311.6	observe	Run1	observe/STIM_008.jpg	99
788.551	1.04	1040.5	observe	Run1	observe/STIM_008.jpg	100
792.521	1.054	1054.2	observe	Run1	observe/STIM_008.jpg	100
797.009	0.886	885.7	observe	Run1	observe/STIM_009.jpg	100
801.464	1.459	1459.3	observe	Run1	observe/STIM_009.jpg	99
805.896	1.213	1213.4	observe	Run1	observe/STIM_009.jpg	99
811.05	1.09	1089.5	observe	Run1	observe/STIM_009.jpg	100
814.181	1.237	1237.4	observe	Run1	observe/STIM_010.jpg	100
819.346	1.574	1573.8	observe	Run1	observe/STIM_010.jpg	100
823.506	0.948	948.0	observe	Run1	observe/STIM_010.jpg	99
827.769	1.064	1064.1	observe	Run1	observe/STIM_010.jpg	100
832.089	1.101	1101.0	observe	Run1	observe/STIM_011.jpg	99
837.18	0.959	959.4	observe	Run1	observe/STIM_011.jpg	99
841.121	1.15	1149.7	observe	Run1	observe/STIM_011.jpg	100
845.063	1.441	1441.3	observe	Run1	observe/STIM_011.jpg	99
850.144	1.276	1275.5	observe	Run1	observe/STIM_012.jpg	100
854.766	1.256	1255.7	observe	Run1	observe/STIM_012.jpg	99
858.716	1.227	1227.0	observe	Run1	observe/STIM_012.jpg	100
861.975	0.871	871.3	observe	Run1	observe/STIM_012.jpg	100
865.072	1.2	1200.3	observe	Run1	observe/STIM_013.jpg	100
869.758	0.816	816.4	observe	Run1	observe/STIM_013.jpg	99
874.205	1.304	1303.7	observe	Run1	observe/STIM_013.jpg	99
879.18	1.359	1359.0	observe	Run1	observe/STIM_013.jpg	99
882.672	1.394	1394.5	observe	Run1	observe/STIM_014.jpg	100
886.454	0.902	901.5	observe	Run1	observe/STIM_014.jpg	100
890.432	1.529	1528.7	observe	Run1	observe/STIM_014.jpg	99
895.148	0.827	826.8	observe	Run1	observe/STIM_014.jpg	100
898.685	1.358	1357.5	observe	Run1	observe/STIM_015.jpg	100
903.644	1.284	1283.9	observe	Run1	observe/STIM_015.jpg	99
907.026	1.008	1008.1	observe	Run1	observe/STIM_015.jpg	100
911.461	1.512	1511.5	observe	Run1	observe/STIM_015.jpg	99
916.328	1.47	1470.2	observe	Run1	observe/STIM_016.jpg	100
921.447	1.353	1352.7	observe	Run1	observe/STIM_016.jpg	100
925.809	1.061	1060.6	observe	Run1	observe/STIM_016.jpg	99
929.769	1.526	1525.6	observe	Run1	observe/STIM_016.jpg	99
934.759	1.042	1041.6	observe	Run1	observe/STIM_017.jpg	99
938.02	0.801	801.2	observe	Run1	observe/STIM_017.jpg	99
941.166	1.097	1097.3	observe	Run1	observe/STIM_017.jpg	100
944.952	1.231	1231.0	observe	Run1	observe/STIM_017.jpg	99
948.217	1.469	1468.7	observe	Run1	observe/STIM_018.jpg	100
952.829	0.94	939.8	observe	Run1	observe/STIM_018.jpg	100
955.788	0.827	827.3	observe	Run1	observe/STIM_018.jpg	100
959.229	1.353	1353.0	observe	Run1	observe/STIM_018.jpg	100
964.166	0.802	801.6	observe	Run1	observe/STIM_019.jpg	99
968.424	1.089	1088.9	observe	Run1	observe/STIM_019.jpg	100
971.98	0.822	821.9	observe	Run1	observe/STIM_019.jpg	99
975.028	1.155	1154.8	observe	Run1	observe/STIM_019.jpg	99
978.562	2.671	2670.7	regulate	Run2	regulate/STIM_000.jpg	99
984.341	1.735	1735.4	regulate	Run2	regulate/STIM_000.jpg	99
989.288	1.474	1474.3	regulate	Run2	regulate/STIM_000.jpg	100
994.039	2.306	2306.2	regulate	Run2	regulate/STIM_000.jpg	100
999.15	2.497	2497.2	regulate	Run2	regulate/STIM_001.jpg	100
1005.678	2.043	2042.9	regulate	Run2	regulate/STIM_001.jpg	99
1011.088	1.794	1794.1	regulate	Run2	regulate/STIM_001.jpg	99
1015.693	2.378	2378.5	regulate	Run2	regulate/STIM_001.jpg	99
1020.722	2.109	2108.7	regulate	Run2	regulate/STIM_002.jpg	99
1026.577	1.222	1222.4	regulate	Run2	regulate/STIM_002.jpg	100
1030.407	1.827	1827.2	regulate	Run2	regulate/STIM_002.jpg	100
1035.033	1.871	1871.3	regulate	Run2	regulate/STIM_002.jpg	100
1039.291	1.869	1869.4	regulate	Run2	regulate/STIM_003.jpg	99
1044.859	1.651	1651.4	regulate	Run2	regulate/STIM_003.jpg	99
1049.671	2.352	2351.6	regulate	Run2	regulate/STIM_003.jpg	100
1054.093	1.094	1093.9	regulate	Run2	regulate/STIM_003.jpg	99
1058.18	1.371	1371.4	regulate	Run2	regulate/STIM_004.jpg	99
1063.303	2.697	2696.6	regulate	Run2	regulate/STIM_004.jpg	100
1069.752	1.392	1392.1	regulate	Run2	regulate/STIM_004.jpg	99
1073.247	1.182	1182.3	regulate	Run2	regulate/STIM_004.jpg	100
1077.212	2.378	2378.0	regulate	Run2	regulate/STIM_005.jpg	100
1082.249	1.723	1723.1	regulate	Run2	regulate/STIM_005.jpg	100
1086.415	2.387	2386.6	regulate	Run2	regulate/STIM_005.jpg	99
1092.837	1.528	1528.4	regulate	Run2	regulate/STIM_005.jpg	100
1096.704	2.694	2694.0	regulate	Run2	regulate/STIM_006.jpg	100
1102.996	2.33	2329.7	regulate	Run2	regulate/STIM_006.jpg	100
1108.735	2.419	2419.2	regulate	Run2	regulate/STIM_006.jpg	100
1113.855	1.627	1627.2	regulate	Run2	regulate/STIM_006.jpg	99
1118.651	2.692	2692.4	regulate	Run2	regulate/STIM_007.jpg	99
1125.24	2.071	2070.7	regulate	Run2	regulate/STIM_007.jpg	100
1129.612	1.976	1976.2	regulate	Run2	regulate/STIM_007.jpg	99
1134.774	1.345	1344.7	regulate	Run2	regulate/STIM_007.jpg	100
1139.964	2.721	2721.2	regulate	Run2	regulate/STIM_008.jpg	100
1145.148	1.552	1551.7	regulate	Run2	regulate/STIM_008.jpg	100
1150.593	2.157	2157.4	regulate	Run2	regulate/STIM_008.jpg	100
1156.734	1.992	1992.4	regulate	Run2	regulate/STIM_008.jpg	100
1162.613	1.956	1956.4	regulate	Run2	regulate/STIM_009.jpg	100
1167.407	1.69	1690.1	regulate	Run2	regulate/STIM_009.jpg	99
1172.676	2.517	2516.7	regulate	Run2	regulate/STIM_009.jpg	99
1178.301	1.712	1712.0	regulate	Run2	regulate/STIM_009.jpg	100
1183.162	1.504	1504.5	regulate	Run2	regulate/STIM_010.jpg	99
1188.503	2.368	2368.2	regulate	Run2	regulate/STIM_010.jpg	100
1192.991	1.154	1154.0	regulate	Run2	regulate/STIM_010.jpg	99
1196.77	1.761	1760.7	regulate	Run2	regulate/STIM_010.jpg	100
1201.855	2.665	2665.2	regulate	Run2	regulate/STIM_011.jpg	100
1207.683	1.955	1954.8	regulate	Run2	regulate/STIM_011.jpg	99
1212.187	1.504	1504.3	regulate	Run2	regulate/STIM_011.jpg	99
1216.808	1.366	1366.1	regulate	Run2	regulate/STIM_011.jpg	100
1220.547	2.829	2829.4	regulate	Run2	regulate/STIM_012.jpg	99
1227.248	2.069	2068.9	regulate	Run2	regulate/STIM_012.jpg	99
1232.546	1.722	1721.9	regulate	Run2	regulate/STIM_012.jpg	99
1237.64	1.8	1799.5	regulate	Run2	regulate/STIM_012.jpg	99
1242.31	1.984	1983.5	regulate	Run2	regulate/STIM_013.jpg	99
1246.813	2.495	2494.9	regulate	Run2	regulate/STIM_013.jpg	100
1251.405	1.77	1769.8	regulate	Run2	regulate/STIM_013.jpg	99
1255.268	2.25	2250.2	regulate	Run2	regulate/STIM_013.jpg	100
1259.88	2.772	2772.1	regulate	Run2	regulate/STIM_014.jpg	100
1265.918	2.708	2708.1	regulate	Run2	regulate/STIM_014.jpg	99
1272.028	1.261	1260.9	regulate	Run2	regulate/STIM_014.jpg	99
1276.84	2.226	2225.8	regulate	Run2	regulate/STIM_014.jpg	99
1281.489	1.545	1545.0	regulate	Run2	regulate/STIM_015.jpg	100
1286.459	2.684	2683.9	regulate	Run2	regulate/STIM_015.jpg	99
1292.133	1.756	1756.1	regulate	Run2	regulate/STIM_015.jpg	99
1297.313	1.531	1531.2	regulate	Run2	regulate/STIM_015.jpg	100
1301.682	1.257	1257.4	regulate	Run2	regulate/STIM_016.jpg	100
1306.188	1.465	1464.8	regulate	Run2	regulate/STIM_016.jpg	99
1311.199	1.232	1231.7	regulate	Run2	regulate/STIM_016.jpg	100
1315.544	2.379	2378.7	regulate	Run2	regulate/STIM_016.jpg	99
1319.969	2.753	2753.1	regulate	Run2	regulate/STIM_017.jpg	99
1326.407	2.235	2234.8	regulate	Run2	regulate/STIM_017.jpg	99
1332.461	1.648	1647.8	regulate	Run2	regulate/STIM_017.jpg	99
1336.364	1.583	1583.3	regulate	Run2	regulate/STIM_017.jpg	100
1341.742	2.017	2016.5	regulate	Run2	regulate/STIM_018.jpg	100
1346.576	1.674	1673.6	regulate	Run2	regulate/STIM_018.jpg	100
1351.38	1.978	1978.5	regulate	Run2	regulate/STIM_018.jpg	100
1356.013	2.021	2021.2	regulate	Run2	regulate/STIM_018.jpg	100
1360.797	2.781	2780.6	regulate	Run2	regulate/STIM_019.jpg	100
1367.233	1.397	1397.2	regulate	Run2	regulate/STIM_019.jpg	100
1372.521	2.541	2541.2	regulate	Run2	regulate/STIM_019.jpg	99
1378.519	2.134	2134.0	regulate	Run2	regulate/STIM_019.jpg	100
1383.019	2.868	2868.2	regulate	Run2	regulate/STIM_020.jpg	99
1389.205	1.416	1416.1	regulate	Run2	regulate/STIM_020.jpg	99
1392.881	2.262	2261.5	regulate	Run2	regulate/STIM_020.jpg	100
1397.87	1.41	1409.7	regulate	Run2	regulate/STIM_020.jpg	100
1402.755	1.592	1592.0	regulate	Run2	regulate/STIM_021.jpg	100
1407.982	1.39	1390.3	regulate	Run2	regulate/STIM_021.jpg	99
1413.238	2.224	2224.1	regulate	Run2	regulate/STIM_021.jpg	99
1419.463	2.206	2205.7	regulate	Run2	regulate/STIM_021.jpg	100
1425.304	1.32	1319.5	regulate	Run2	regulate/STIM_022.jpg	99
1429.545	2.295	2295.1	regulate	Run2	regulate/STIM_022.jpg	99
1435.39	1.926	1925.8	regulate	Run2	regulate/STIM_022.jpg	100
1439.941	2.048	2047.9	regulate	Run2	regulate/STIM_022.jpg	100
1444.606	2.795	2794.8	regulate	Run2	regulate/STIM_023.jpg	100
1450.295	1.738	1738.3	regulate	Run2	regulate/STIM_023.jpg	100
1454.816	1.774	1774.5	regulate	Run2	regulate/STIM_023.jpg	100
1459.859	2.252	2252.5	regulate	Run2	regulate/STIM_023.jpg	99
1464.394	2.736	2735.9	regulate	Run2	regulate/STIM_024.jpg	100
1470.179	2.644	2644.3	regulate	Run2	regulate/STIM_024.jpg	99
1475.105	1.818	1818.0	regulate	Run2	regulate/STIM_024.jpg	100
1480.398	1.885	1885.1	regulate	Run2	regulate/STIM_024.jpg	99
1485.481	2.055	2054.6	regulate	Run2	regulate/STIM_025.jpg	100
1489.832	2.354	2353.6	regulate	Run2	regulate/STIM_025.jpg	99
1494.992	2.134	2133.7	regulate	Run2	regulate/STIM_025.jpg	99
1499.342	1.807	1807.1	regulate	Run2	regulate/STIM_025.jpg	100
1504.26	1.632	1632.3	regulate	Run2	regulate/STIM_026.jpg	100
1508.409	1.742	1742.2	regulate	Run2	regulate/STIM_026.jpg	100
1512.552	2.144	2144.2	regulate	Run2	regulate/STIM_026.jpg	99
1518.59	1.986	1985.6	regulate	Run2	regulate/STIM_026.jpg	100
1524.396	1.719	1718.9	regulate	Run2	regulate/STIM_027.jpg	100
1529.974	2.601	2600.8	regulate	Run2	regulate/STIM_027.jpg	99
1535.6	1.256	1255.6	regulate	Run2	regulate/STIM_027.jpg	100
1540.546	2.316	2315.6	regulate	Run2	regulate/STIM_027.jpg	99
1546.398	2.034	2034.2	regulate	Run2	regulate/STIM_028.jpg	100
1551.743	2.08	2080.2	regulate	Run2	regulate/STIM_028.jpg	100
1557.466	2.21	2210.0	regulate	Run2	regulate/STIM_028.jpg	99
1563.452	1.394	1394.2	regulate	Run2	regulate/STIM_028.jpg	100
1567.53	2.685	2685.3	regulate	Run2	regulate/STIM_029.jpg	100
1573.053	2.016	2016.2	regulate	Run2	regulate/STIM_029.jpg	100
1577.958	1.309	1309.3	regulate	Run2	regulate/STIM_029.jpg	99
1581.791	2.061	2060.8	regulate	Run2	regulate/STIM_029.jpg	99
1586.866	1.555	1555.4	observe	Run2	observe/STIM_000.jpg	99
1592.201	1.224	1223.5	observe	Run2	observe/STIM_000.jpg	99
1597.443	1.213	1212.8	observe	Run2	observe/STIM_000.jpg	99
1601.845	1.056	1056.0	observe	Run2	observe/STIM_000.jpg	100
1605.402	1.236	1235.6	observe	Run2	observe/STIM_001.jpg	99
1610.074	1.088	1087.9	observe	Run2	observe/STIM_001.jpg	99
1614.615	1.307	1307.2	observe	Run2	observe/STIM_001.jpg	99
1618.134	0.959	958.7	observe	Run2	observe/STIM_001.jpg	100
1622.601	1.089	1089.4	observe	Run2	observe/STIM_002.jpg	99
1627.038	1.423	1423.1	observe	Run2	observe/STIM_002.jpg	99
1630.897	1.292	1291.9	observe	Run2	observe/STIM_002.jpg	99
1636.169	1.059	1059.1	observe	Run2	observe/STIM_002.jpg	100
1639.883	1.555	1555.0	observe	Run2	observe/STIM_003.jpg	100
1643.815	0.865	865.3	observe	Run2	observe/STIM_003.jpg	100
1647.067	1.498	1497.8	observe	Run2	observe/STIM_003.jpg	100
1650.936	1.177	1177.2	observe	Run2	observe/STIM_003.jpg	100
1654.774	1.404	1404.4	observe	Run2	observe/STIM_004.jpg	99
1659.373	0.988	987.7	observe	Run2	observe/STIM_004.jpg	99
1663.006	0.797	796.8	observe	Run2	observe/STIM_004.jpg	99
1666.837	0.959	959.0	observe	Run2	observe/STIM_004.jpg	100
1671.789	0.91	909.5	observe	Run2	observe/STIM_005.jpg	99
1674.847	1.38	1379.6	observe	Run2	observe/STIM_005.jpg	99
1678.815	1.311	1310.7	observe	Run2	observe/STIM_005.jpg	99
1683.487	1.011	1010.7	observe	Run2	observe/STIM_005.jpg	99
1688.175	1.059	1058.6	observe	Run2	observe/STIM_006.jpg	99
1691.782	1.284	1284.0	observe	Run2	observe/STIM_006.jpg	100
1695.864	1.092	1091.5	observe	Run2	observe/STIM_006.jpg	99
1700.698	1.278	1277.6	observe	Run2	observe/STIM_006.jpg	99
1704.129	0.985	985.3	observe	Run2	observe/STIM_007.jpg	99
1708.832	1.393	1393.1	observe	Run2	observe/STIM_007.jpg	100
1713.995	1.345	1344.8	observe	Run2	observe/STIM_007.jpg	99
1719.091	0.977	976.6	observe	Run2	observe/STIM_007.jpg	100
1722.446	1.203	1202.9	observe	Run2	observe/STIM_008.jpg	100
1727.041	1.29	1290.2	observe	Run2	observe/STIM_008.jpg	100
1732.3	1.207	1207.0	observe	Run2	observe/STIM_008.jpg	100
1735.944	0.983	982.8	observe	Run2	observe/STIM_008.jpg	100
1740.937	1.183	1183.2	observe	Run2	observe/STIM_009.jpg	100
1745.716	1.406	1405.5	observe	Run2	observe/STIM_009.jpg	100
1749.369	1.186	1185.7	observe	Run2	observe/STIM_009.jpg	100
1753.556	1.224	1224.1	observe	Run2	observe/STIM_009.jpg	100
1758.764	1.253	1252.7	observe	Run2	observe/STIM_010.jpg	100
1763.26	1.091	1091.3	observe	Run2	observe/STIM_010.jpg	99
1766.698	1.053	1053.4	observe	Run2	observe/STIM_010.jpg	99
1769.911	1.454	1454.4	observe	Run2	observe/STIM_010.jpg	99
1775.044	1.523	1522.9	observe	Run2	observe/STIM_011.jpg	100
1779.252	0.96	960.3	observe	Run2	observe/STIM_011.jpg	100
1783.42	1.044	1044.0	observe	Run2	observe/STIM_011.jpg	99
1786.97	1.249	1248.6	observe	Run2	observe/STIM_011.jpg	99
1790.613	0.812	811.8	observe	Run2	observe/STIM_012.jpg	99
1794.575	1.532	1531.9	observe	Run2	observe/STIM_012.jpg	99
1798.671	1.099	1099.2	observe	Run2	observe/STIM_012.jpg	99
1803.767	1.295	1295.4	observe	Run2	observe/STIM_012.jpg	99
1807.569	1.251	1251.3	observe	Run2	observe/STIM_013.jpg	100
1812.526	1.282	1281.6	observe	Run2	observe/STIM_013.jpg	99
1817.375	1.097	1096.7	observe	Run2	observe/STIM_013.jpg	99
1820.831	1.504	1503.5	observe	Run2	observe/STIM_013.jpg	100
1825.225	1.272	1272.1	observe	Run2	observe/STIM_014.jpg	100
1828.538	1.545	1544.8	observe	Run2	observe/STIM_014.jpg	99
1833.204	1.457	1457.1	observe	Run2	observe/STIM_014.jpg	99
1837.598	1.005	1005.0	observe	Run2	observe/STIM_014.jpg	99
1840.726	1.035	1034.7	observe	Run2	observe/STIM_015.jpg	99
1844.085	0.87	869.8	observe	Run2	observe/STIM_015.jpg	100
1848.001	1.228	1228.1	observe	Run2	observe/STIM_015.jpg	100
1852.548	1.553	1553.3	observe	Run2	observe/STIM_015.jpg	100
1857.398	0.829	828.8	observe	Run2	observe/STIM_016.jpg	99
1862.152	1.106	1106.0	observe	Run2	observe/STIM_016.jpg	99
1866.565	1.516	1516.1	observe	Run2	observe/STIM_016.jpg	100
1871.74	1.375	1374.7	observe	Run2	observe/STIM_016.jpg	100
1876.667	1.211	1210.6	observe	Run2	observe/STIM_017.jpg	99
1881.629	0.978	978.2	observe	Run2	observe/STIM_017.jpg	99
1885.639	1.483	1483.1	observe	Run2	observe/STIM_017.jpg	99
1890.328	0.974	973.9	observe	Run2	observe/STIM_017.jpg	99
1894.054	1.216	1216.4	observe	Run2	observe/STIM_018.jpg	100
1898.481	1.28	1279.7	observe	Run2	observe/STIM_018.jpg	100
1903.597	1.33	1329.5	observe	Run2	observe/STIM_018.jpg	100
1907.652	1.131	1131.1	observe	Run2	observe/STIM_018.jpg	99
1911.777	1.223	1223.1	observe	Run2	observe/STIM_019.jpg	99
1915.118	1.179	1179.4	observe	Run2	observe/STIM_019.jpg	99
1918.993	0.979	979.1	observe	Run2	observe/STIM_019.jpg	99
1923.69	1.555	1554.9	observe	Run2	observe/STIM_019.jpg	99
1927.482	1.868	1867.5	regulate	Run3	regulate/STIM_000.jpg	99
1932.026	2.128	2127.6	regulate	Run3	regulate/STIM_000.jpg	99
1937.852	1.858	1858.5	regulate	Run3	regulate/STIM_000.jpg	99
1943.123	1.88	1880.5	regulate	Run3	regulate/STIM_000.jpg	100
1947.084	1.878	1878.0	regulate	Run3	regulate/STIM_001.jpg	99
1952.279	1.457	1457.1	regulate	Run3	regulate/STIM_001.jpg	100
1957.529	1.447	1446.8	regulate	Run3	regulate/STIM_001.jpg	100
1962.538	1.208	1208.4	regulate	Run3	regulate/STIM_001.jpg	99
1966.728	2.203	2203.4	regulate	Run3	regulate/STIM_002.jpg	100
1971.014	1.639	1639.3	regulate	Run3	regulate/STIM_002.jpg	100
1975.755	2.385	2385.2	regulate	Run3	regulate/STIM_002.jpg	100
1980.618	2.117	2116.8	regulate	Run3	regulate/STIM_002.jpg	100
1985.775	1.401	1400.6	regulate	Run3	regulate/STIM_003.jpg	100
1990.987	1.732	1732.3	regulate	Run3	regulate/STIM_003.jpg	100
1995.408	1.36	1359.7	regulate	Run3	regulate/STIM_003.jpg	99
1999.306	2.399	2399.0	regulate	Run3	regulate/STIM_003.jpg	99
2003.924	1.261	1261.3	regulate	Run3	regulate/STIM_004.jpg	100
2007.955	1.692	1692.3	regulate	Run3	regulate/STIM_004.jpg	100
2012.081	1.346	1346.0	regulate	Run3	regulate/STIM_004.jpg	100
2015.535	1.16	1160.2	regulate	Run3	regulate/STIM_004.jpg	100
2019.529	1.402	1402.5	regulate	Run3	regulate/STIM_005.jpg	100
2023.12	2.397	2397.3	regulate	Run3	regulate/STIM_005.jpg	100
2028.753	1.349	1348.9	regulate	Run3	regulate/STIM_005.jpg	99
2033.352	1.532	1532.5	regulate	Run3	regulate/STIM_005.jpg	100
2038.483	1.583	1582.8	regulate	Run3	regulate/STIM_006.jpg	100
2043.261	1.248	1247.6	regulate	Run3	regulate/STIM_006.jpg	99
2047.892	1.881	1881.4	regulate	Run3	regulate/STIM_006.jpg	100
2052.23	1.042	1042.0	regulate	Run3	regulate/STIM_006.jpg	99
2055.534	1.637	1637.4	regulate	Run3	regulate/STIM_007.jpg	99
2060.366	1.261	1260.6	regulate	Run3	regulate/STIM_007.jpg	100
2064.702	2.004	2003.8	regulate	Run3	regulate/STIM_007.jpg	99
2070.553	1.071	1071.2	regulate	Run3	regulate/STIM_007.jpg	100
2074.188	2.329	2328.6	regulate	Run3	regulate/STIM_008.jpg	99
2079.966	1.622	1621.7	regulate	Run3	regulate/STIM_008.jpg	99
2084.566	1.623	1623.4	regulate	Run3	regulate/STIM_008.jpg	99
2088.409	1.418	1418.2	regulate	Run3	regulate/STIM_008.jpg	99
2091.911	1.309	1309.3	regulate	Run3	regulate/STIM_009.jpg	100
2096.747	1.11	1110.5	regulate	Run3	regulate/STIM_009.jpg	100
2101.705	2.005	2004.9	regulate	Run3	regulate/STIM_009.jpg	100
2105.888	2.067	2066.7	regulate	Run3	regulate/STIM_009.jpg	100
2111.667	1.538	1537.7	regulate	Run3	regulate/STIM_010.jpg	99
2117.202	1.766	1766.4	regulate	Run3	regulate/STIM_010.jpg	99
2121.023	1.933	1933.3	regulate	Run3	regulate/STIM_010.jpg	100
2125.7	1.252	1251.6	regulate	Run3	regulate/STIM_010.jpg	99
2130.102	1.399	1398.6	regulate	Run3	regulate/STIM_011.jpg	99
2134.44	1.315	1314.6	regulate	Run3	regulate/STIM_011.jpg	100
2139.204	2.243	2242.8	regulate	Run3	regulate/STIM_011.jpg	99
2144.93	2.112	2112.4	regulate	Run3	regulate/STIM_011.jpg	99
2149.698	1.634	1634.4	regulate	Run3	regulate/STIM_012.jpg	99
2153.442	1.13	1129.6	regulate	Run3	regulate/STIM_012.jpg	100
2157.261	1.942	1941.7	regulate	Run3	regulate/STIM_012.jpg	99
2162.562	2.233	2233.4	regulate	Run3	regulate/STIM_012.jpg	99
2166.965	2.154	2154.3	regulate	Run3	regulate/STIM_013.jpg	99
2172.112	1.208	1207.9	regulate	Run3	regulate/STIM_013.jpg	99
2176.875	1.636	1636.0	regulate	Run3	regulate/STIM_013.jpg	100
2181.805	1.994	1993.9	regulate	Run3	regulate/STIM_013.jpg	100
2186.749	1.076	1076.3	regulate	Run3	regulate/STIM_014.jpg	100
2191.62	1.589	1588.8	regulate	Run3	regulate/STIM_014.jpg	100
2195.37	1.605	1605.2	regulate	Run3	regulate/STIM_014.jpg	100
2199.735	1.423	1422.8	regulate	Run3	regulate/STIM_014.jpg	99
2204.245	1.916	1915.9	regulate	Run3	regulate/STIM_015.jpg	100
2208.315	1.143	1142.8	regulate	Run3	regulate/STIM_015.jpg	100
2212.644	2.251	2251.4	regulate	Run3	regulate/STIM_015.jpg	100
2218.235	1.276	1276.0	regulate	Run3	regulate/STIM_015.jpg	99
2223.074	1.659	1658.6	regulate	Run3	regulate/STIM_016.jpg	99
2228.604	1.586	1585.8	regulate	Run3	regulate/STIM_016.jpg	99
2233.452	1.196	1195.8	regulate	Run3	regulate/STIM_016.jpg	99
2236.809	1.694	1694.0	regulate	Run3	regulate/STIM_016.jpg	99
2240.59	1.254	1254.2	regulate	Run3	regulate/STIM_017.jpg	99
2245.303	1.505	1505.2	regulate	Run3	regulate/STIM_017.jpg	99
2249.162	1.751	1750.7	regulate	Run3	regulate/STIM_017.jpg	99
2253.375	1.154	1154.0	regulate	Run3	regulate/STIM_017.jpg	100
2257.101	2.106	2105.9	regulate	Run3	regulate/STIM_018.jpg	100
2261.809	1.4	1399.8	regulate	Run3	regulate/STIM_018.jpg	99
2266.277	1.792	1791.8	regulate	Run3	regulate/STIM_018.jpg	100
2270.99	2.367	2367.1	regulate	Run3	regulate/STIM_018.jpg	99
2276.607	1.117	1116.9	regulate	Run3	regulate/STIM_019.jpg	100
2281.254	2.284	2283.7	regulate	Run3	regulate/STIM_019.jpg	99
2286.334	1.309	1309.2	regulate	Run3	regulate/STIM_019.jpg	99
2291.314	1.869	1869.0	regulate	Run3	regulate/STIM_019.jpg	99
2296.995	2.288	2288.4	regulate	Run3	regulate/STIM_020.jpg	99
2301.978	1.508	1507.7	regulate	Run3	regulate/STIM_020.jpg	99
2307.346	2.176	2176.1	regulate	Run3	regulate/STIM_020.jpg	99
2313.216	1.331	1330.8	regulate	Run3	regulate/STIM_020.jpg	100
2317.714	1.372	1371.7	regulate	Run3	regulate/STIM_021.jpg	100
2322.569	1.42	1420.5	regulate	Run3	regulate/STIM_021.jpg	99
2326.922	1.489	1489.2	regulate	Run3	regulate/STIM_021.jpg	100
2331.095	2.043	2042.6	regulate	Run3	regulate/STIM_021.jpg	99
2336.23	1.362	1362.5	regulate	Run3	regulate/STIM_022.jpg	100
2339.988	1.545	1545.4	regulate	Run3	regulate/STIM_022.jpg	99
2344.374	2.375	2374.8	regulate	Run3	regulate/STIM_022.jpg	99
2349.683	1.567	1566.6	regulate	Run3	regulate/STIM_022.jpg	99
2354.648	1.148	1148.1	regulate	Run3	regulate/STIM_023.jpg	99
2359.188	1.965	1965.1	regulate	Run3	regulate/STIM_023.jpg	99
2363.323	1.12	1120.5	regulate	Run3	regulate/STIM_023.jpg	99
2366.811	1.296	1296.5	regulate	Run3	regulate/STIM_023.jpg	100
2371.572	1.091	1090.7	regulate	Run3	regulate/STIM_024.jpg	100
2376.163	1.344	1343.9	regulate	Run3	regulate/STIM_024.jpg	99
2380.378	1.544	1543.5	regulate	Run3	regulate/STIM_024.jpg	100
2384.744	1.639	1638.7	regulate	Run3	regulate/STIM_024.jpg	99
2388.686	2.063	2063.0	regulate	Run3	regulate/STIM_025.jpg	100
2393.536	1.708	1708.2	regulate	Run3	regulate/STIM_025.jpg	100
2398.471	2.408	2408.4	regulate	Run3	regulate/STIM_025.jpg	100
2404.869	2.04	2040.4	regulate	Run3	regulate/STIM_025.jpg	99
2410.72	1.678	1677.9	regulate	Run3	regulate/STIM_026.jpg	99
2415.371	2.311	2310.6	regulate	Run3	regulate/STIM_026.jpg	99
2420.09	1.179	1179.0	regulate	Run3	regulate/STIM_026.jpg	100
2423.436	1.992	1992.4	regulate	Run3	regulate/STIM_026.jpg	99
2429.259	1.346	1345.9	regulate	Run3	regulate/STIM_027.jpg	100
2432.734	2.073	2073.3	regulate	Run3	regulate/STIM_027.jpg	100
2437.997	1.698	1697.7	regulate	Run3	regulate/STIM_027.jpg	100
2443.601	1.04	1040.3	regulate	Run3	regulate/STIM_027.jpg	99
2446.832	2.037	2037.1	regulate	Run3	regulate/STIM_028.jpg	99
2451.452	2.215	2215.0	regulate	Run3	regulate/STIM_028.jpg	100
2456.643	2.069	2069.0	regulate	Run3	regulate/STIM_028.jpg	100
2461.793	1.09	1089.9	regulate	Run3	regulate/STIM_028.jpg	99
2465.022	2.354	2353.7	regulate	Run3	regulate/STIM_029.jpg	99
2470.419	1.794	1793.9	regulate	Run3	regulate/STIM_029.jpg	100
2475.33	1.262	1262.3	regulate	Run3	regulate/STIM_029.jpg	99
2480.564	2.401	2401.2	regulate	Run3	regulate/STIM_029.jpg	99
2485.299	0.912	911.8	observe	Run3	observe/STIM_000.jpg	100
2489.186	1.215	1214.8	observe	Run3	observe/STIM_000.jpg	100
2493.488	1.298	1298.4	observe	Run3	observe/STIM_000.jpg	99
2497.311	1.309	1308.6	observe	Run3	observe/STIM_000.jpg	99
2501.804	1.165	1164.7	observe	Run3	observe/STIM_001.jpg	99
2505.547	1.23	1230.5	observe	Run3	observe/STIM_001.jpg	100
2509.35	1.401	1401.0	observe	Run3	observe/STIM_001.jpg	100
2513.706	1.022	1022.0	observe	Run3	observe/STIM_001.jpg	100
2517.8	1.405	1405.2	observe	Run3	observe/STIM_002.jpg	100
2522.157	0.929	928.8	observe	Run3	observe/STIM_002.jpg	99
2526.329	0.98	979.6	observe	Run3	observe/STIM_002.jpg	99
2530.138	0.837	837.4	observe	Run3	observe/STIM_002.jpg	99
2533.538	1.574	1573.6	observe	Run3	observe/STIM_003.jpg	100
2537.37	1.278	1277.6	observe	Run3	observe/STIM_003.jpg	100
2542.613	0.994	993.7	observe	Run3	observe/STIM_003.jpg	100
2546.432	0.964	964.2	observe	Run3	observe/STIM_003.jpg	99
2550.233	1.523	1522.7	observe	Run3	observe/STIM_004.jpg	99
2554.171	1.07	1069.8	observe	Run3	observe/STIM_004.jpg	99
2558.657	1.069	1068.7	observe	Run3	observe/STIM_004.jpg	99
2562.102	1.382	1381.9	observe	Run3	observe/STIM_004.jpg	99
2567.188	1.544	1544.5	observe	Run3	observe/STIM_005.jpg	100
2570.857	1.06	1059.5	observe	Run3	observe/STIM_005.jpg	100
2574.405	1.29	1290.4	observe	Run3	observe/STIM_005.jpg	99
2578.557	1.101	1101.4	observe	Run3	observe/STIM_005.jpg	100
2582.369	0.987	986.9	observe	Run3	observe/STIM_006.jpg	99
2587.043	1.028	1027.9	observe	Run3	observe/STIM_006.jpg	99
2590.653	1.174	1173.9	observe	Run3	observe/STIM_006.jpg	100
2595.605	1.199	1199.4	observe	Run3	observe/STIM_006.jpg	100
2599.167	1.536	1535.7	observe	Run3	observe/STIM_007.jpg	100
2604.039	0.98	979.6	observe	Run3	observe/STIM_007.jpg	100
2608.109	1.19	1190.3	observe	Run3	observe/STIM_007.jpg	100
2611.944	1.361	1360.7	observe	Run3	observe/STIM_007.jpg	99
2615.343	1.182	1181.5	observe	Run3	observe/STIM_008.jpg	100
2619.665	1.321	1321.4	observe	Run3	observe/STIM_008.jpg	99
2624.296	1.301	1301.3	observe	Run3	observe/STIM_008.jpg	99
2629.141	1.542	1541.5	observe	Run3	observe/STIM_008.jpg	99
2634.278	1.108	1108.3	observe	Run3	observe/STIM_009.jpg	99
2638.843	0.985	985.3	observe	Run3	observe/STIM_009.jpg	99
2642.406	1.08	1080.5	observe	Run3	observe/STIM_009.jpg	99
2647.095	1.006	1006.2	observe	Run3	observe/STIM_009.jpg	100
2651.129	1.078	1078.2	observe	Run3	observe/STIM_010.jpg	100
2655.101	1.348	1347.7	observe	Run3	observe/STIM_010.jpg	99
2659.345	1.372	1372.5	observe	Run3	observe/STIM_010.jpg	100
2663.655	1.179	1179.4	observe	Run3	observe/STIM_010.jpg	99
2668.826	1.553	1553.3	observe	Run3	observe/STIM_011.jpg	99
2672.408	1.471	1471.4	observe	Run3	observe/STIM_011.jpg	100
2676.855	0.82	820.1	observe	Run3	observe/STIM_011.jpg	99
2680.054	1.472	1471.6	observe	Run3	observe/STIM_011.jpg	100
2685.055	0.974	973.7	observe	Run3	observe/STIM_012.jpg	100
2689.118	1.198	1198.5	observe	Run3	observe/STIM_012.jpg	99
2693.56	1.514	1513.8	observe	Run3	observe/STIM_012.jpg	99
2698.897	1.062	1061.6	observe	Run3	observe/STIM_012.jpg	99
2702.198	1.059	1058.9	observe	Run3	observe/STIM_013.jpg	99
2705.653	1.482	1482.2	observe	Run3	observe/STIM_013.jpg	99
2710.167	1.042	1041.8	observe	Run3	observe/STIM_013.jpg	99
2714.705	1.221	1220.6	observe	Run3	observe/STIM_013.jpg	100
2719.167	1.167	1166.6	observe	Run3	observe/STIM_014.jpg	99
2722.422	1.562	1561.9	observe	Run3	observe/STIM_014.jpg	100
2727.879	1.503	1503.1	observe	Run3	observe/STIM_014.jpg	100
2732.317	1.02	1019.7	observe	Run3	observe/STIM_014.jpg	99
2736.19	1.307	1306.9	observe	Run3	observe/STIM_015.jpg	100
2740.003	1.216	1216.1	observe	Run3	observe/STIM_015.jpg	99
2743.834	0.793	793.4	observe	Run3	observe/STIM_015.jpg	99
2748.314	1.071	1070.6	observe	Run3	observe/STIM_015.jpg	100
2752.952	1.266	1266.0	observe	Run3	observe/STIM_016.jpg	100
2756.704	1.401	1401.2	observe	Run3	observe/STIM_016.jpg	99
2762.037	1.506	1506.1	observe	Run3	observe/STIM_016.jpg	100
2765.795	1.223	1222.9	observe	Run3	observe/STIM_016.jpg	100
2769.8	0.791	791.3	observe	Run3	observe/STIM_017.jpg	99
2772.935	0.921	920.7	observe	Run3	observe/STIM_017.jpg	99
2777.08	1.565	1564.8	observe	Run3	observe/STIM_017.jpg	99
2781.067	1.337	1337.4	observe	Run3	observe/STIM_017.jpg	100
2784.873	1.13	1130.2	observe	Run3	observe/STIM_018.jpg	99
2789.403	1.53	1530.4	observe	Run3	observe/STIM_018.jpg	100
2792.971	1.259	1259.3	observe	Run3	observe/STIM_018.jpg	99
2797.545	1.147	1146.7	observe	Run3	observe/STIM_018.jpg	100
2801.59	1.486	1486.2	observe	Run3	observe/STIM_019.jpg	99
2806.401	1.516	1515.6	observe	Run3	observe/STIM_019.jpg	100
2810.777	1.162	1161.5	observe	Run3	observe/STIM_019.jpg	99
2815.251	1.21	1209.7	observe	Run3	observe/STIM_019.jpg	99
