onset	duration	response_time_ms	trial_type	learning_stage	stimulus	response_port
0.0	0.781	781.4	study	Phase1	study/STIM_000.jpg	100
4.23	1.167	1166.7	study	Phase1	study/STIM_000.jpg	99
8.794	1.178	1178.5	study	Phase1	study/STIM_000.jpg	100
13.487	1.635	1635.4	study	Phase1	study/STIM_001.jpg	99
18.628	1.266	1266.5	study	Phase1	study/STIM_001.jpg	99
22.977	0.927	926.8	study	Phase1	study/STIM_001.jpg	100
26.387	0.973	972.9	study	Phase1	study/STIM_002.jpg	100
31.192	0.899	898.8	study	Phase1	study/STIM_002.jpg	99
35.84	0.978	977.9	study	Phase1	study/STIM_002.jpg	100
39.403	1.185	1184.7	study	Phase1	study/STIM_003.jpg	100
44.63	1.531	1531.4	study	Phase1	study/STIM_003.jpg	100
48.55	1.519	1518.8	study	Phase1	study/STIM_003.jpg	100
53.014	1.413	1413.1	study	Phase1	study/STIM_004.jpg	99
57.315	0.827	827.3	study	Phase1	study/STIM_004.jpg	100
61.135	1.534	1534.0	study	Phase1	study/STIM_004.jpg	100
64.802	1.232	1232.0	study	Phase1	study/STIM_005.jpg	100
68.146	1.1	1099.5	study	Phase1	study/STIM_005.jpg	100
72.585	1.508	1508.5	study	Phase1	study/STIM_005.jpg	100
77.557	1.141	1141.3	study	Phase1	study/STIM_006.jpg	100
81.841	1.413	1413.1	study	Phase1	study/STIM_006.jpg	100
86.648	1.528	1527.8	study	Phase1	study/STIM_006.jpg	99
90.499	1.247	1247.1	study	Phase1	study/STIM_007.jpg	100
95.695	1.069	1069.4	study	Phase1	study/STIM_007.jpg	99
99.637	0.793	792.9	study	Phase1	study/STIM_007.jpg	99
104.332	1.244	1244.5	study	Phase1	study/STIM_008.jpg	100
109.269	1.157	1157.1	study	Phase1	study/STIM_008.jpg	100
112.861	0.817	817.3	study	Phase1	study/STIM_008.jpg	100
116.317	0.885	884.8	study	Phase1	study/STIM_009.jpg	99
121.157	0.85	850.4	study	Phase1	study/STIM_009.jpg	100
125.233	0.816	816.0	study	Phase1	study/STIM_009.jpg	99
128.762	1.668	1668.4	study	Phase1	study/STIM_010.jpg	100
134.195	1.355	1355.3	study	Phase1	study/STIM_010.jpg	99
138.555	1.142	1141.8	study	Phase1	study/STIM_010.jpg	100
143.214	0.855	855.4	study	Phase1	study/STIM_011.jpg	100
148.037	1.029	1028.6	study	Phase1	study/STIM_011.jpg	100
151.959	0.936	936.4	study	Phase1	study/STIM_011.jpg	100
155.357	1.374	1373.7	study	Phase1	study/STIM_012.jpg	99
160.093	0.816	815.6	study	Phase1	study/STIM_012.jpg	100
164.671	1.339	1339.1	study	Phase1	study/STIM_012.jpg	99
168.137	0.991	991.4	study	Phase1	study/STIM_013.jpg	99
171.465	1.461	1461.4	study	Phase1	study/STIM_013.jpg	100
176.478	1.24	1240.0	study	Phase1	study/STIM_013.jpg	99
180.362	1.405	1404.7	study	Phase1	study/STIM_014.jpg	100
183.924	1.069	1069.1	study	Phase1	study/STIM_014.jpg	100
188.164	0.784	784.5	study	Phase1	study/STIM_014.jpg	100
192.084	1.644	1644.2	study	Phase1	study/STIM_015.jpg	99
196.191	0.845	844.8	study	Phase1	study/STIM_015.jpg	99
200.149	0.704	703.7	study	Phase1	study/STIM_015.jpg	99
203.833	1.05	1050.0	study	Phase1	study/STIM_016.jpg	99
208.579	0.825	824.8	study	Phase1	study/STIM_016.jpg	99
212.082	1.408	1407.5	study	Phase1	study/STIM_016.jpg	99
216.358	1.397	1396.8	study	Phase1	study/STIM_017.jpg	100
220.965	1.623	1623.1	study	Phase1	study/STIM_017.jpg	100
226.644	1.328	1328.2	study	Phase1	study/STIM_017.jpg	99
231.628	0.917	916.9	study	Phase1	study/STIM_018.jpg	100
235.816	1.533	1533.3	study	Phase1	study/STIM_018.jpg	100
241.175	1.489	1488.9	study	Phase1	study/STIM_018.jpg	99
246.507	1.01	1010.3	study	Phase1	study/STIM_019.jpg	100
251.483	1.08	1080.3	study	Phase1	study/STIM_019.jpg	99
255.722	0.87	869.8	study	Phase1	study/STIM_019.jpg	100
258.726	0.957	956.8	study	Phase1	study/STIM_020.jpg	99
263.636	1.162	1162.2	study	Phase1	study/STIM_020.jpg	99
267.698	1.44	1439.7	study	Phase1	study/STIM_020.jpg	100
271.463	1.617	1617.4	study	Phase1	study/STIM_021.jpg	99
275.325	0.851	851.0	study	Phase1	study/STIM_021.jpg	100
279.198	0.827	826.7	study	Phase1	study/STIM_021.jpg	100
283.755	0.785	785.0	study	Phase1	study/STIM_022.jpg	100
287.067	1.208	1208.0	study	Phase1	study/STIM_022.jpg	100
290.965	1.203	1203.4	study	Phase1	study/STIM_022.jpg	100
295.017	0.866	865.7	study	Phase1	study/STIM_023.jpg	99
298.274	1.299	1298.6	study	Phase1	study/STIM_023.jpg	99
303.012	0.768	768.2	study	Phase1	study/STIM_023.jpg	100
307.111	1.033	1032.9	study	Phase1	study/STIM_024.jpg	100
310.443	0.908	908.3	study	Phase1	study/STIM_024.jpg	99
313.466	0.783	782.7	study	Phase1	study/STIM_024.jpg	100
316.327	0.854	854.0	study	Phase1	study/STIM_025.jpg	100
319.408	1.51	1509.7	study	Phase1	study/STIM_025.jpg	100
324.713	1.393	1393.1	study	Phase1	study/STIM_025.jpg	99
328.224	0.811	810.7	study	Phase1	study/STIM_026.jpg	100
332.414	1.287	1287.2	study	Phase1	study/STIM_026.jpg	100
336.113	1.409	1408.7	study	Phase1	study/STIM_026.jpg	99
341.563	1.13	1130.2	study	Phase1	study/STIM_027.jpg	99
346.536	1.239	1239.0	study	Phase1	study/STIM_027.jpg	99
350.652	1.448	1448.1	study	Phase1	study/STIM_027.jpg	99
355.044	0.993	992.6	study	Phase1	study/STIM_028.jpg	100
359.993	1.289	1288.9	study	Phase1	study/STIM_028.jpg	99
364.032	1.472	1472.3	study	Phase1	study/STIM_028.jpg	100
368.294	1.235	1234.7	study	Phase1	study/STIM_029.jpg	100
372.176	1.562	1562.3	study	Phase1	study/STIM_029.jpg	99
377.413	0.785	784.9	study	Phase1	study/STIM_029.jpg	100
381.232	1.083	1083.2	test	Phase1	test/STIM_000.jpg	100
385.651	0.925	924.7	test	Phase1	test/STIM_000.jpg	100
389.491	1.035	1035.2	test	Phase1	test/STIM_000.jpg	99
393.006	1.175	1175.4	test	Phase1	test/STIM_001.jpg	99
398.209	0.603	603.1	test	Phase1	test/STIM_001.jpg	100
401.491	1.237	1237.3	test	Phase1	test/STIM_001.jpg	99
405.259	0.751	750.7	test	Phase1	test/STIM_002.jpg	99
409.825	1.015	1015.4	test	Phase1	test/STIM_002.jpg	100
413.017	1.0	1000.0	test	Phase1	test/STIM_002.jpg	99
416.446	1.092	1091.7	test	Phase1	test/STIM_003.jpg	99
421.386	0.736	735.9	test	Phase1	test/STIM_003.jpg	99
425.157	0.678	678.1	test	Phase1	test/STIM_003.jpg	99
428.191	1.081	1080.7	test	Phase1	test/STIM_004.jpg	99
432.471	0.604	603.8	test	Phase1	test/STIM_004.jpg	99
435.993	1.024	1024.4	test	Phase1	test/STIM_004.jpg	100
439.127	0.674	674.0	test	Phase1	test/STIM_005.jpg	99
443.46	0.73	730.2	test	Phase1	test/STIM_005.jpg	99
446.402	0.673	672.6	test	Phase1	test/STIM_005.jpg	99
450.287	1.176	1175.7	test	Phase1	test/STIM_006.jpg	99
455.022	0.955	955.3	test	Phase1	test/STIM_006.jpg	100
459.62	1.142	1141.6	test	Phase1	test/STIM_006.jpg	100
464.44	0.806	806.5	test	Phase1	test/STIM_007.jpg	99
469.11	1.062	1062.5	test	Phase1	test/STIM_007.jpg	100
473.958	0.805	805.2	test	Phase1	test/STIM_007.jpg	99
478.049	0.952	951.9	test	Phase1	test/STIM_008.jpg	100
481.557	1.213	1213.0	test	Phase1	test/STIM_008.jpg	99
484.837	0.798	797.9	test	Phase1	test/STIM_008.jpg	100
489.374	1.164	1164.2	test	Phase1	test/STIM_009.jpg	99
494.274	1.042	1041.9	test	Phase1	test/STIM_009.jpg	100
498.094	0.75	750.1	test	Phase1	test/STIM_009.jpg	100
502.004	0.684	683.7	test	Phase1	test/STIM_010.jpg	99
504.742	0.982	981.7	test	Phase1	test/STIM_010.jpg	99
509.55	1.044	1043.5	test	Phase1	test/STIM_010.jpg	100
513.477	0.771	771.3	test	Phase1	test/STIM_011.jpg	100
516.449	0.996	995.5	test	Phase1	test/STIM_011.jpg	99
521.018	0.699	699.1	test	Phase1	test/STIM_011.jpg	100
525.666	0.643	642.7	test	Phase1	test/STIM_012.jpg	100
528.465	0.633	632.7	test	Phase1	test/STIM_012.jpg	99
532.39	0.701	701.2	test	Phase1	test/STIM_012.jpg	99
536.529	0.773	773.0	test	Phase1	test/STIM_013.jpg	99
540.848	1.062	1062.1	test	Phase1	test/STIM_013.jpg	99
544.66	0.717	717.0	test	Phase1	test/STIM_013.jpg	100
547.987	1.224	1223.9	test	Phase1	test/STIM_014.jpg	99
552.83	0.758	757.5	test	Phase1	test/STIM_014.jpg	100
555.741	0.942	941.5	test	Phase1	test/STIM_014.jpg	100
559.114	0.605	605.4	test	Phase1	test/STIM_015.jpg	100
562.949	0.644	644.0	test	Phase1	test/STIM_015.jpg	99
567.136	0.766	765.5	test	Phase1	test/STIM_015.jpg	100
571.566	0.792	792.3	test	Phase1	test/STIM_016.jpg	100
574.484	0.906	905.6	test	Phase1	test/STIM_016.jpg	99
578.778	1.238	1238.0	test	Phase1	test/STIM_016.jpg	100
582.277	0.784	784.4	test	Phase1	test/STIM_017.jpg	100
586.63	0.727	727.3	test	Phase1	test/STIM_017.jpg	99
590.637	0.684	684.4	test	Phase1	test/STIM_017.jpg	100
594.258	1.12	1119.6	test	Phase1	test/STIM_018.jpg	99
599.181	1.114	1114.4	test	Phase1	test/STIM_018.jpg	99
602.867	1.22	1220.1	test	Phase1	test/STIM_018.jpg	100
607.961	0.716	716.3	test	Phase1	test/STIM_019.jpg	99
612.344	1.206	1206.1	test	Phase1	test/STIM_019.jpg	100
616.47	0.637	637.4	test	Phase1	test/STIM_019.jpg	100
619.706	1.208	1207.6	test	Phase1	test/STIM_020.jpg	99
623.602	1.21	1209.6	test	Phase1	test/STIM_020.jpg	100
628.684	1.191	1191.4	test	Phase1	test/STIM_020.jpg	99
632.419	1.238	1237.6	test	Phase1	test/STIM_021.jpg	100
637.06	1.136	1136.4	test	Phase1	test/STIM_021.jpg	99
641.47	0.823	822.7	test	Phase1	test/STIM_021.jpg	99
644.356	1.154	1154.5	test	Phase1	test/STIM_022.jpg	100
649.322	0.973	973.4	test	Phase1	test/STIM_022.jpg	99
654.0	0.912	912.4	test	Phase1	test/STIM_022.jpg	100
657.234	0.953	953.1	test	Phase1	test/STIM_023.jpg	100
660.822	0.973	972.9	test	Phase1	test/STIM_023.jpg	99
665.453	0.946	945.8	test	Phase1	test/STIM_023.jpg	100
669.48	1.165	1164.8	test	Phase1	test/STIM_024.jpg	100
673.818	0.817	817.2	test	Phase1	test/STIM_024.jpg	100
678.541	0.721	721.4	test	Phase1	test/STIM_024.jpg	100
682.957	0.957	957.4	test	Phase1	test/STIM_025.jpg	99
686.826	0.923	922.7	test	Phase1	test/STIM_025.jpg	99
691.435	0.836	835.5	test	Phase1	test/STIM_025.jpg	99
695.981	1.136	1135.6	test	Phase1	test/STIM_026.jpg	99
699.872	0.969	969.4	test	Phase1	test/STIM_026.jpg	100
704.469	0.962	962.2	test	Phase1	test/STIM_026.jpg	99
708.356	1.135	1134.7	test	Phase1	test/STIM_027.jpg	100
713.362	1.232	1231.7	test	Phase1	test/STIM_027.jpg	100
717.045	0.88	880.0	test	Phase1	test/STIM_027.jpg	100
721.639	0.797	796.6	test	Phase1	test/STIM_028.jpg	100
725.494	0.889	888.8	test	Phase1	test/STIM_028.jpg	100
730.016	0.762	761.6	test	Phase1	test/STIM_028.jpg	100
733.017	1.147	1146.9	test	Phase1	test/STIM_029.jpg	99
736.997	0.992	992.5	test	Phase1	test/STIM_029.jpg	100
742.008	1.104	1103.8	test	Phase1	test/STIM_029.jpg	99
745.472	0.663	663.0	study	Phase2	study/STIM_000.jpg	100
748.456	1.206	1205.9	study	Phase2	study/STIM_000.jpg	100
752.397	0.625	624.9	study	Phase2	study/STIM_000.jpg	99
756.964	0.755	755.3	study	Phase2	study/STIM_001.jpg	99
760.538	0.837	836.9	study	Phase2	study/STIM_001.jpg	99
764.858	1.256	1256.1	study	Phase2	study/STIM_001.jpg	99
769.684	1.214	1213.6	study	Phase2	study/STIM_002.jpg	99
774.325	0.754	754.5	study	Phase2	study/STIM_002.jpg	100
778.146	1.275	1274.7	study	Phase2	study/STIM_002.jpg	99
781.559	0.863	862.8	study	Phase2	study/STIM_003.jpg	100
786.388	1.166	1166.3	study	Phase2	study/STIM_003.jpg	99
789.658	0.915	915.4	study	Phase2	study/STIM_003.jpg	100
794.356	1.405	1405.0	study	Phase2	study/STIM_004.jpg	100
799.548	0.854	854.4	study	Phase2	study/STIM_004.jpg	100
804.28	0.728	728.5	study	Phase2	study/STIM_004.jpg	100
808.362	0.777	776.8	study	Phase2	study/STIM_005.jpg	99
811.834	1.188	1188.0	study	Phase2	study/STIM_005.jpg	100
815.894	1.048	1048.0	study	Phase2	study/STIM_005.jpg	99
819.232	0.965	965.0	study	Phase2	study/STIM_006.jpg	99
823.542	1.35	1350.3	study	Phase2	study/STIM_006.jpg	99
828.762	0.882	882.2	study	Phase2	study/STIM_006.jpg	100
833.389	1.114	1113.5	study	Phase2	study/STIM_007.jpg	99
836.838	1.213	1212.7	study	Phase2	study/STIM_007.jpg	100
841.247	0.878	878.5	study	Phase2	study/STIM_007.jpg	99
845.742	1.241	1241.4	study	Phase2	study/STIM_008.jpg	99
849.789	0.783	783.3	study	Phase2	study/STIM_008.jpg	99
854.244	0.984	984.0	study	Phase2	study/STIM_008.jpg	100
857.307	1.458	1458.0	study	Phase2	study/STIM_009.jpg	99
862.501	0.866	866.0	study	Phase2	study/STIM_009.jpg	100
867.003	1.116	1116.4	study	Phase2	study/STIM_009.jpg	99
870.822	1.186	1186.0	study	Phase2	study/STIM_010.jpg	99
874.943	0.88	879.8	study	Phase2	study/STIM_010.jpg	99
879.232	0.85	850.0	study	Phase2	study/STIM_010.jpg	99
883.566	0.935	934.7	study	Phase2	study/STIM_011.jpg	100
887.77	0.857	856.9	study	Phase2	study/STIM_011.jpg	100
891.627	1.086	1085.5	study	Phase2	study/STIM_011.jpg	100
894.927	0.993	992.7	study	Phase2	study/STIM_012.jpg	99
899.362	1.342	1342.4	study	Phase2	study/STIM_012.jpg	100
903.321	0.702	702.3	study	Phase2	study/STIM_012.jpg	100
906.5	0.903	903.1	study	Phase2	study/STIM_013.jpg	100
911.238	1.286	1285.8	study	Phase2	study/STIM_013.jpg	99
914.71	1.147	1147.4	study	Phase2	study/STIM_013.jpg	99
918.126	0.912	912.3	study	Phase2	study/STIM_014.jpg	99
921.79	0.736	736.5	study	Phase2	study/STIM_014.jpg	99
926.281	0.832	832.1	study	Phase2	study/STIM_014.jpg	99
930.128	0.678	678.4	study	Phase2	study/STIM_015.jpg	100
933.336	1.067	1066.9	study	Phase2	study/STIM_015.jpg	99
938.073	0.737	736.7	study	Phase2	study/STIM_015.jpg	99
942.769	1.238	1238.1	study	Phase2	study/STIM_016.jpg	99
947.922	1.076	1076.5	study	Phase2	study/STIM_016.jpg	99
952.564	1.072	1071.7	study	Phase2	study/STIM_016.jpg	99
957.084	1.146	1146.0	study	Phase2	study/STIM_017.jpg	100
961.117	0.645	644.6	study	Phase2	study/STIM_017.jpg	100
965.524	0.997	997.2	study	Phase2	study/STIM_017.jpg	100
968.626	0.65	649.7	study	Phase2	study/STIM_018.jpg	99
972.027	0.754	754.2	study	Phase2	study/STIM_018.jpg	100
976.217	1.258	1258.4	study	Phase2	study/STIM_018.jpg	99
980.467	1.452	1452.4	study	Phase2	study/STIM_019.jpg	100
984.695	0.854	854.4	study	Phase2	study/STIM_019.jpg	99
987.901	0.901	901.3	study	Phase2	study/STIM_019.jpg	100
992.336	0.841	840.6	study	Phase2	study/STIM_020.jpg	99
995.794	1.063	1062.7	study	Phase2	study/STIM_020.jpg	100
1000.251	0.698	697.7	study	Phase2	study/STIM_020.jpg	100
1003.475	1.116	1115.7	study	Phase2	study/STIM_021.jpg	99
1007.681	0.677	677.2	study	Phase2	study/STIM_021.jpg	100
1011.765	0.867	867.4	study	Phase2	study/STIM_021.jpg	100
1015.906	1.249	1248.7	study	Phase2	study/STIM_022.jpg	100
1019.814	1.099	1099.0	study	Phase2	study/STIM_022.jpg	99
1023.394	1.04	1040.3	study	Phase2	study/STIM_022.jpg	99
1027.409	0.905	905.4	study	Phase2	study/STIM_023.jpg	100
1030.421	0.885	885.2	study	Phase2	study/STIM_023.jpg	100
1033.798	0.701	700.9	study	Phase2	study/STIM_023.jpg	99
1038.443	0.961	960.6	study	Phase2	study/STIM_024.jpg	99
1042.888	1.021	1021.1	study	Phase2	study/STIM_024.jpg	99
1047.254	1.22	1220.0	study	Phase2	study/STIM_024.jpg	99
1050.872	0.926	925.5	study	Phase2	study/STIM_025.jpg	100
1055.694	1.302	1302.5	study	Phase2	study/STIM_025.jpg	100
1059.504	1.094	1094.3	study	Phase2	study/STIM_025.jpg	99
1064.514	0.823	822.6	study	Phase2	study/STIM_026.jpg	99
1069.061	1.157	1157.4	study	Phase2	study/STIM_026.jpg	99
1072.59	1.205	1205.2	study	Phase2	study/STIM_026.jpg	99
1077.157	1.121	1120.9	study	Phase2	study/STIM_027.jpg	100
1081.164	0.712	711.8	study	Phase2	study/STIM_027.jpg	99
1085.406	0.682	682.2	study	Phase2	study/STIM_027.jpg	100
1089.514	0.867	867.2	study	Phase2	study/STIM_028.jpg	100
1094.202	0.733	733.2	study	Phase2	study/STIM_028.jpg	99
1097.828	0.913	912.9	study	Phase2	study/STIM_028.jpg	99
1102.61	1.182	1182.5	study	Phase2	study/STIM_029.jpg	99
1106.565	0.994	994.2	study	Phase2	study/STIM_029.jpg	99
1111.461	0.732	732.0	study	Phase2	study/STIM_029.jpg	99
1115.784	1.125	1124.7	test	Phase2	test/STIM_000.jpg	99
1120.036	0.628	628.2	test	Phase2	test/STIM_000.jpg	99
1123.668	0.678	678.1	test	Phase2	test/STIM_000.jpg	100
1127.041	0.649	648.8	test	Phase2	test/STIM_001.jpg	100
1130.192	1.207	1206.7	test	Phase2	test/STIM_001.jpg	100
1134.602	1.206	1205.5	test	Phase2	test/STIM_001.jpg	99
1138.582	0.681	680.7	test	Phase2	test/STIM_002.jpg	99
1142.897	0.72	719.8	test	Phase2	test/STIM_002.jpg	100
1147.482	0.931	931.0	test	Phase2	test/STIM_002.jpg	100
1151.754	1.081	1081.1	test	Phase2	test/STIM_003.jpg	99
1156.492	1.196	1196.3	test	Phase2	test/STIM_003.jpg	99
1159.839	0.651	650.8	test	Phase2	test/STIM_003.jpg	100
1162.577	1.102	1102.5	test	Phase2	test/STIM_004.jpg	99
1166.564	0.809	809.2	test	Phase2	test/STIM_004.jpg	99
1169.51	1.07	1070.0	test	Phase2	test/STIM_004.jpg	99
1174.521	0.77	770.4	test	Phase2	test/STIM_005.jpg	99
1177.448	0.93	930.3	test	Phase2	test/STIM_005.jpg	100
1180.483	1.01	1010.2	test	Phase2	test/STIM_005.jpg	100
1183.564	0.753	752.8	test	Phase2	test/STIM_006.jpg	99
1188.096	0.7	699.6	test	Phase2	test/STIM_006.jpg	100
1190.847	0.716	715.9	test	Phase2	test/STIM_006.jpg	100
1194.316	0.866	866.1	test	Phase2	test/STIM_007.jpg	99
1197.509	0.882	882.1	test	Phase2	test/STIM_007.jpg	100
1200.912	0.819	818.7	test	Phase2	test/STIM_007.jpg	100
1205.399	0.707	706.6	test	Phase2	test/STIM_008.jpg	100
1209.087	0.893	892.6	test	Phase2	test/STIM_008.jpg	99
1212.112	0.625	624.8	test	Phase2	test/STIM_008.jpg	100
1215.601	0.859	859.4	test	Phase2	test/STIM_009.jpg	99
1218.503	1.213	1212.7	test	Phase2	test/STIM_009.jpg	99
1222.272	1.177	1176.9	test	Phase2	test/STIM_009.jpg	100
1227.488	0.596	596.3	test	Phase2	test/STIM_010.jpg	100
1230.594	0.865	865.2	test	Phase2	test/STIM_010.jpg	100
1233.71	0.622	621.5	test	Phase2	test/STIM_010.jpg	99
1236.875	1.188	1187.6	test	Phase2	test/STIM_011.jpg	100
1241.648	0.699	699.2	test	Phase2	test/STIM_011.jpg	100
1245.49	1.121	1121.2	test	Phase2	test/STIM_011.jpg	99
1249.758	0.769	768.6	test	Phase2	test/STIM_012.jpg	99
1253.899	0.76	759.5	test	Phase2	test/STIM_012.jpg	99
1257.906	1.146	1145.7	test	Phase2	test/STIM_012.jpg	100
1262.651	0.769	768.8	test	Phase2	test/STIM_013.jpg	100
1265.495	0.978	978.1	test	Phase2	test/STIM_013.jpg	100
1270.031	1.059	1059.0	test	Phase2	test/STIM_013.jpg	100
1273.255	1.175	1175.2	test	Phase2	test/STIM_014.jpg	100
1278.094	0.892	892.3	test	Phase2	test/STIM_014.jpg	100
1281.959	1.004	1004.3	test	Phase2	test/STIM_014.jpg	100
1286.5	0.742	742.0	test	Phase2	test/STIM_015.jpg	99
1289.664	1.054	1054.4	test	Phase2	test/STIM_015.jpg	100
1293.327	1.114	1114.0	test	Phase2	test/STIM_015.jpg	99
1297.878	1.189	1189.1	test	Phase2	test/STIM_016.jpg	99
1301.663	0.769	768.6	test	Phase2	test/STIM_016.jpg	99
1305.125	1.038	1037.6	test	Phase2	test/STIM_016.jpg	100
1308.785	0.953	953.1	test	Phase2	test/STIM_017.jpg	99
1312.514	0.611	611.0	test	Phase2	test/STIM_017.jpg	99
1315.789	1.14	1139.8	test	Phase2	test/STIM_017.jpg	99
1319.441	0.701	701.4	test	Phase2	test/STIM_018.jpg	99
1324.106	0.694	694.5	test	Phase2	test/STIM_018.jpg	100
1327.608	0.835	835.2	test	Phase2	test/STIM_018.jpg	100
1331.422	0.614	614.0	test	Phase2	test/STIM_019.jpg	99
1334.812	1.019	1018.7	test	Phase2	test/STIM_019.jpg	100
1337.992	0.575	574.7	test	Phase2	test/STIM_019.jpg	100
1342.508	1.102	1102.4	test	Phase2	test/STIM_020.jpg	100
1346.893	0.981	980.9	test	Phase2	test/STIM_020.jpg	99
1350.78	1.048	1047.5	test	Phase2	test/STIM_020.jpg	99
1355.58	1.013	1013.1	test	Phase2	test/STIM_021.jpg	100
1360.352	0.585	585.3	test	Phase2	test/STIM_021.jpg	100
1363.633	1.039	1038.8	test	Phase2	test/STIM_021.jpg	99
1367.285	0.81	810.3	test	Phase2	test/STIM_022.jpg	99
1371.3	0.767	767.2	test	Phase2	test/STIM_022.jpg	99
1375.578	0.755	755.3	test	Phase2	test/STIM_022.jpg	99
1379.241	1.147	1146.7	test	Phase2	test/STIM_023.jpg	99
1382.819	0.603	603.1	test	Phase2	test/STIM_023.jpg	99
1386.169	0.72	719.5	test	Phase2	test/STIM_023.jpg	100
1389.507	0.728	727.7	test	Phase2	test/STIM_024.jpg	99
1392.42	0.912	912.1	test	Phase2	test/STIM_024.jpg	100
1396.441	0.786	786.2	test	Phase2	test/STIM_024.jpg	99
1399.429	0.823	823.4	test	Phase2	test/STIM_025.jpg	99
1403.168	0.838	838.2	test	Phase2	test/STIM_025.jpg	99
1407.305	0.848	848.3	test	Phase2	test/STIM_025.jpg	99
1411.358	1.218	1217.6	test	Phase2	test/STIM_026.jpg	100
1414.773	0.749	748.9	test	Phase2	test/STIM_026.jpg	100
1418.17	1.13	1129.6	test	Phase2	test/STIM_026.jpg	100
1421.847	1.207	1206.6	test	Phase2	test/STIM_027.jpg	100
1425.358	0.736	736.0	test	Phase2	test/STIM_027.jpg	99
1429.633	0.781	781.2	test	Phase2	test/STIM_027.jpg	99
1433.977	0.731	730.9	test	Phase2	test/STIM_028.jpg	100
1437.783	1.154	1154.1	test	Phase2	test/STIM_028.jpg	99
1441.626	1.161	1161.4	test	Phase2	test/STIM_028.jpg	100
1445.118	0.957	956.9	test	Phase2	test/STIM_029.jpg	100
1449.056	1.12	1119.8	test	Phase2	test/STIM_029.jpg	99
1453.261	0.758	758.0	test	Phase2	test/STIM_029.jpg	100
1457.536	0.69	690.5	study	Phase3	study/STIM_000.jpg	99
1461.837	0.773	773.0	study	Phase3	study/STIM_000.jpg	100
1465.376	0.642	642.0	study	Phase3	study/STIM_000.jpg	99
1469.655	0.862	862.0	study	Phase3	study/STIM_001.jpg	100
1472.872	0.653	652.7	study	Phase3	study/STIM_001.jpg	99
1475.584	0.86	859.9	study	Phase3	study/STIM_001.jpg	99
1479.036	1.195	1195.1	study	Phase3	study/STIM_002.jpg	99
1483.867	0.675	674.7	study	Phase3	study/STIM_002.jpg	100
1487.711	0.537	536.8	study	Phase3	study/STIM_002.jpg	99
1490.558	0.683	683.1	study	Phase3	study/STIM_003.jpg	99
1494.647	0.742	742.3	study	Phase3	study/STIM_003.jpg	100
1499.071	0.643	642.8	study	Phase3	study/STIM_003.jpg	99
1503.607	0.689	689.1	study	Phase3	study/STIM_004.jpg	100
1508.29	0.715	714.9	study	Phase3	study/STIM_004.jpg	100
1512.007	0.688	688.4	study	Phase3	study/STIM_004.jpg	99
1514.814	0.836	835.5	study	Phase3	study/STIM_005.jpg	99
1518.624	0.882	881.7	study	Phase3	study/STIM_005.jpg	100
1523.302	0.74	740.1	study	Phase3	study/STIM_005.jpg	99
1526.079	0.808	807.6	study	Phase3	study/STIM_006.jpg	99
1530.348	0.682	681.8	study	Phase3	study/STIM_006.jpg	100
1533.689	1.152	1152.3	study	Phase3	study/STIM_006.jpg	99
1538.577	0.954	953.5	study	Phase3	study/STIM_007.jpg	99
1543.062	1.02	1020.0	study	Phase3	study/STIM_007.jpg	99
1547.141	0.728	727.8	study	Phase3	study/STIM_007.jpg	100
1551.325	0.692	691.6	study	Phase3	study/STIM_008.jpg	100
1554.619	0.667	667.4	study	Phase3	study/STIM_008.jpg	99
1557.995	0.589	588.7	study	Phase3	study/STIM_008.jpg	100
1560.651	1.162	1161.7	study	Phase3	study/STIM_009.jpg	99
1564.479	0.708	707.8	study	Phase3	study/STIM_009.jpg	99
1569.031	0.926	925.9	study	Phase3	study/STIM_009.jpg	99
1573.793	1.142	1142.3	study	Phase3	study/STIM_010.jpg	100
1578.538	1.12	1119.9	study	Phase3	study/STIM_010.jpg	100
1582.449	1.184	1184.0	study	Phase3	study/STIM_010.jpg	100
1586.431	0.829	829.2	study	Phase3	study/STIM_011.jpg	100
1590.022	1.086	1086.0	study	Phase3	study/STIM_011.jpg	99
1594.976	0.735	735.2	study	Phase3	study/STIM_011.jpg	100
1599.463	0.694	694.0	study	Phase3	study/STIM_012.jpg	99
1602.783	1.158	1157.6	study	Phase3	study/STIM_012.jpg	99
1606.136	1.159	1159.4	study	Phase3	study/STIM_012.jpg	99
1611.24	1.084	1084.3	study	Phase3	study/STIM_013.jpg	100
1615.267	0.583	583.2	study	Phase3	study/STIM_013.jpg	100
1618.582	0.934	934.4	study	Phase3	study/STIM_013.jpg	99
1621.901	0.754	753.9	study	Phase3	study/STIM_014.jpg	100
1625.034	1.009	1008.6	study	Phase3	study/STIM_014.jpg	100
1629.991	0.955	954.7	study	Phase3	study/STIM_014.jpg	100
1634.431	1.094	1094.1	study	Phase3	study/STIM_015.jpg	100
1638.103	0.812	812.5	study	Phase3	study/STIM_015.jpg	100
1641.732	0.742	741.7	study	Phase3	study/STIM_015.jpg	100
1644.534	0.73	730.1	study	Phase3	study/STIM_016.jpg	100
1647.557	0.719	719.1	study	Phase3	study/STIM_016.jpg	100
1652.25	0.878	877.7	study	Phase3	study/STIM_016.jpg	100
1656.828	0.579	579.0	study	Phase3	study/STIM_017.jpg	100
1660.126	0.834	833.5	study	Phase3	study/STIM_017.jpg	99
1664.85	0.889	888.8	study	Phase3	study/STIM_017.jpg	99
1668.208	0.835	835.3	study	Phase3	study/STIM_018.jpg	99
1671.87	0.675	674.8	study	Phase3	study/STIM_018.jpg	100
1675.607	0.934	933.8	study	Phase3	study/STIM_018.jpg	100
1680.103	0.924	924.3	study	Phase3	study/STIM_019.jpg	100
1684.798	1.112	1112.1	study	Phase3	study/STIM_019.jpg	99
1689.21	1.013	1012.6	study	Phase3	study/STIM_019.jpg	99
1693.957	0.655	654.6	study	Phase3	study/STIM_020.jpg	99
1696.967	1.029	1029.3	study	Phase3	study/STIM_020.jpg	99
1700.804	0.63	630.0	study	Phase3	study/STIM_020.jpg	99
1705.433	0.606	606.0	study	Phase3	study/STIM_021.jpg	99
1709.422	0.597	597.3	study	Phase3	study/STIM_021.jpg	100
1712.335	0.965	964.8	study	Phase3	study/STIM_021.jpg	99
1716.999	1.19	1190.4	study	Phase3	study/STIM_022.jpg	99
1722.17	0.738	737.8	study	Phase3	study/STIM_022.jpg	99
1725.735	0.566	565.8	study	Phase3	study/STIM_022.jpg	100
1728.378	1.021	1021.4	study	Phase3	study/STIM_023.jpg	100
1731.461	0.728	727.7	study	Phase3	study/STIM_023.jpg	100
1736.154	0.976	975.5	study	Phase3	study/STIM_023.jpg	99
1739.43	0.795	795.3	study	Phase3	study/STIM_024.jpg	100
1743.788	0.643	642.8	study	Phase3	study/STIM_024.jpg	100
1747.86	0.779	778.9	study	Phase3	study/STIM_024.jpg	99
1752.205	0.657	657.1	study	Phase3	study/STIM_025.jpg	100
1756.362	0.772	772.5	study	Phase3	study/STIM_025.jpg	100
1759.744	1.157	1157.1	study	Phase3	study/STIM_025.jpg	99
1763.173	0.589	589.4	study	Phase3	study/STIM_026.jpg	99
1766.046	0.865	864.6	study	Phase3	study/STIM_026.jpg	100
1770.635	1.122	1122.4	study	Phase3	study/STIM_026.jpg	99
1775.589	0.835	834.9	study	Phase3	study/STIM_027.jpg	100
1778.789	0.569	569.2	study	Phase3	study/STIM_027.jpg	99
1781.89	1.036	1035.5	study	Phase3	study/STIM_027.jpg	100
1785.237	1.153	1153.4	study	Phase3	study/STIM_028.jpg	99
1789.393	0.598	597.6	study	Phase3	study/STIM_028.jpg	99
1792.236	0.942	942.1	study	Phase3	study/STIM_028.jpg	99
1796.024	1.143	1142.6	study	Phase3	study/STIM_029.jpg	99
1800.858	0.904	903.9	study	Phase3	study/STIM_029.jpg	99
1805.779	0.923	923.2	study	Phase3	study/STIM_029.jpg	100
1809.054	1.113	1112.6	test	Phase3	test/STIM_000.jpg	99
1814.157	1.197	1197.0	test	Phase3	test/STIM_000.jpg	99
1818.341	1.181	1180.8	test	Phase3	test/STIM_000.jpg	99
1822.507	0.645	645.1	test	Phase3	test/STIM_001.jpg	100
1826.514	1.091	1091.0	test	Phase3	test/STIM_001.jpg	99
1829.769	0.995	995.0	test	Phase3	test/STIM_001.jpg	100
1833.805	1.192	1192.2	test	Phase3	test/STIM_002.jpg	99
1838.828	1.097	1097.2	test	Phase3	test/STIM_002.jpg	99
1843.56	0.787	786.9	test	Phase3	test/STIM_002.jpg	99
1847.725	0.68	680.4	test	Phase3	test/STIM_003.jpg	100
1851.17	1.098	1097.6	test	Phase3	test/STIM_003.jpg	99
1855.375	0.575	574.8	test	Phase3	test/STIM_003.jpg	100
1858.293	0.876	875.8	test	Phase3	test/STIM_004.jpg	99
1862.97	0.78	779.6	test	Phase3	test/STIM_004.jpg	99
1866.792	0.659	659.1	test	Phase3	test/STIM_004.jpg	99
1870.333	0.91	909.9	test	Phase3	test/STIM_005.jpg	99
1873.67	0.721	720.7	test	Phase3	test/STIM_005.jpg	99
1877.195	0.706	705.6	test	Phase3	test/STIM_005.jpg	99
1881.363	1.172	1171.7	test	Phase3	test/STIM_006.jpg	100
1885.998	0.734	734.3	test	Phase3	test/STIM_006.jpg	99
1889.141	0.661	660.7	test	Phase3	test/STIM_006.jpg	99
1893.083	0.677	676.8	test	Phase3	test/STIM_007.jpg	99
1895.925	1.05	1050.1	test	Phase3	test/STIM_007.jpg	100
1900.506	1.136	1135.9	test	Phase3	test/STIM_007.jpg	100
1903.888	1.057	1057.4	test	Phase3	test/STIM_008.jpg	100
1907.773	1.042	1041.7	test	Phase3	test/STIM_008.jpg	100
1911.838	1.214	1214.3	test	Phase3	test/STIM_008.jpg	100
1915.356	0.918	918.4	test	Phase3	test/STIM_009.jpg	100
1919.395	1.072	1071.5	test	Phase3	test/STIM_009.jpg	99
1923.61	0.762	762.4	test	Phase3	test/STIM_009.jpg	99
1926.967	0.867	866.6	test	Phase3	test/STIM_010.jpg	100
1931.534	0.681	681.4	test	Phase3	test/STIM_010.jpg	100
1935.08	0.954	953.5	test	Phase3	test/STIM_010.jpg	100
1938.639	1.186	1186.0	test	Phase3	test/STIM_011.jpg	99
1942.093	1.042	1041.6	test	Phase3	test/STIM_011.jpg	100
1945.279	1.212	1211.8	test	Phase3	test/STIM_011.jpg	99
1949.198	1.02	1019.5	test	Phase3	test/STIM_012.jpg	100
1954.009	0.586	586.0	test	Phase3	test/STIM_012.jpg	99
1958.33	0.97	969.9	test	Phase3	test/STIM_012.jpg	100
1961.569	0.732	732.2	test	Phase3	test/STIM_013.jpg	100
1966.067	1.108	1108.5	test	Phase3	test/STIM_013.jpg	99
1970.8	1.084	1083.5	test	Phase3	test/STIM_013.jpg	99
1974.377	0.805	804.6	test	Phase3	test/STIM_014.jpg	100
1977.235	0.626	626.1	test	Phase3	test/STIM_014.jpg	100
1979.958	0.839	839.2	test	Phase3	test/STIM_014.jpg	100
1984.428	1.073	1073.4	test	Phase3	test/STIM_015.jpg	99
1988.837	0.905	905.2	test	Phase3	test/STIM_015.jpg	100
1992.658	0.927	926.8	test	Phase3	test/STIM_015.jpg	99
1996.288	0.717	716.8	test	Phase3	test/STIM_016.jpg	100
2000.088	0.629	629.4	test	Phase3	test/STIM_016.jpg	99
2003.592	0.848	848.1	test	Phase3	test/STIM_016.jpg	99
2008.028	1.231	1230.6	test	Phase3	test/STIM_017.jpg	100
2012.009	0.685	684.6	test	Phase3	test/STIM_017.jpg	99
2015.824	1.141	1141.4	test	Phase3	test/STIM_017.jpg	100
2020.121	0.651	651.2	test	Phase3	test/STIM_018.jpg	100
2022.876	1.139	1139.3	test	Phase3	test/STIM_018.jpg	99
2027.255	0.643	643.1	test	Phase3	test/STIM_018.jpg	99
2030.442	0.941	940.7	test	Phase3	test/STIM_019.jpg	100
2034.658	1.021	1020.9	test	Phase3	test/STIM_019.jpg	99
2039.527	0.951	950.7	test	Phase3	test/STIM_019.jpg	100
2043.251	0.963	963.3	test	Phase3	test/STIM_020.jpg	100
2046.936	1.058	1058.0	test	Phase3	test/STIM_020.jpg	100
2050.806	0.817	817.4	test	Phase3	test/STIM_020.jpg	100
2054.004	0.827	826.9	test	Phase3	test/STIM_021.jpg	100
2056.901	1.205	1205.1	test	Phase3	test/STIM_021.jpg	99
2061.001	1.008	1008.3	test	Phase3	test/STIM_021.jpg	99
2065.168	0.637	636.9	test	Phase3	test/STIM_022.jpg	99
2068.104	0.744	744.1	test	Phase3	test/STIM_022.jpg	99
2071.396	1.07	1069.8	test	Phase3	test/STIM_022.jpg	100
2076.037	0.727	727.4	test	Phase3	test/STIM_023.jpg	99
2079.436	0.738	738.5	test	Phase3	test/STIM_023.jpg	100
2082.856	1.21	1210.2	test	Phase3	test/STIM_023.jpg	99
2087.049	0.908	908.3	test	Phase3	test/STIM_024.jpg	100
2091.309	1.042	1041.9	test	Phase3	test/STIM_024.jpg	100
2095.344	0.695	695.1	test	Phase3	test/STIM_024.jpg	99
2098.762	1.072	1071.9	test	Phase3	test/STIM_025.jpg	99
2102.693	0.887	886.8	test	Phase3	test/STIM_025.jpg	99
2105.762	0.784	783.9	test	Phase3	test/STIM_025.jpg	99
2109.889	0.856	856.2	test	Phase3	test/STIM_026.jpg	100
2113.873	0.914	914.0	test	Phase3	test/STIM_026.jpg	99
2117.642	0.709	708.7	test	Phase3	test/STIM_026.jpg	99
2121.901	0.959	959.1	test	Phase3	test/STIM_027.jpg	99
2125.322	0.597	597.0	test	Phase3	test/STIM_027.jpg	100
2128.813	0.73	730.1	test	Phase3	test/STIM_027.jpg	100
2132.352	1.019	1019.2	test	Phase3	test/STIM_028.jpg	100
2136.63	1.178	1178.5	test	Phase3	test/STIM_028.jpg	99
2140.002	1.054	1054.4	test	Phase3	test/STIM_028.jpg	100
2145.08	0.717	716.8	test	Phase3	test/STIM_029.jpg	100
2149.008	0.759	758.8	test	Phase3	test/STIM_029.jpg	100
2153.646	0.59	589.8	test	Phase3	test/STIM_029.jpg	99
