onset	duration	accuracy_binary	trial_type	learning_stage	stimulus
0.0	0.999	1	study	Phase1	study/STIM_000.jpg
4.952	0.962	1	study	Phase1	study/STIM_000.jpg
9.104	1.107	1	study	Phase1	study/STIM_000.jpg
13.872	1.17	1	study	Phase1	study/STIM_001.jpg
18.052	1.898	1	study	Phase1	study/STIM_001.jpg
22.919	1.46	0	study	Phase1	study/STIM_001.jpg
27.016	1.203	1	study	Phase1	study/STIM_002.jpg
31.085	0.892	1	study	Phase1	study/STIM_002.jpg
35.176	1.021	1	study	Phase1	study/STIM_002.jpg
38.78	2.024	1	study	Phase1	study/STIM_003.jpg
43.427	1.821	1	study	Phase1	study/STIM_003.jpg
48.556	1.196	1	study	Phase1	study/STIM_003.jpg
52.34	1.009	0	study	Phase1	study/STIM_004.jpg
55.93	1.977	1	study	Phase1	study/STIM_004.jpg
61.562	1.089	0	study	Phase1	study/STIM_004.jpg
65.531	1.391	1	study	Phase1	study/STIM_005.jpg
69.99	0.971	1	study	Phase1	study/STIM_005.jpg
74.344	1.216	1	study	Phase1	study/STIM_005.jpg
78.026	1.248	1	study	Phase1	study/STIM_006.jpg
82.868	1.125	1	study	Phase1	study/STIM_006.jpg
86.394	1.144	1	study	Phase1	study/STIM_006.jpg
90.828	1.554	1	study	Phase1	study/STIM_007.jpg
94.822	0.901	1	study	Phase1	study/STIM_007.jpg
97.953	1.103	1	study	Phase1	study/STIM_007.jpg
102.549	1.67	1	study	Phase1	study/STIM_008.jpg
107.416	1.679	0	study	Phase1	study/STIM_008.jpg
111.586	1.56	1	study	Phase1	study/STIM_008.jpg
115.301	1.718	1	study	Phase1	study/STIM_009.jpg
120.527	1.103	1	study	Phase1	study/STIM_009.jpg
124.716	1.352	1	study	Phase1	study/STIM_009.jpg
129.559	1.599	1	study	Phase1	study/STIM_010.jpg
133.465	1.702	1	study	Phase1	study/STIM_010.jpg
137.234	1.091	0	study	Phase1	study/STIM_010.jpg
141.239	1.319	1	study	Phase1	study/STIM_011.jpg
146.295	1.809	1	study	Phase1	study/STIM_011.jpg
151.718	1.125	1	study	Phase1	study/STIM_011.jpg
155.629	1.138	1	study	Phase1	study/STIM_012.jpg
159.883	0.999	1	study	Phase1	study/STIM_012.jpg
164.725	1.014	1	study	Phase1	study/STIM_012.jpg
169.217	1.273	1	study	Phase1	study/STIM_013.jpg
174.268	1.006	0	study	Phase1	study/STIM_013.jpg
179.226	1.852	1	study	Phase1	study/STIM_013.jpg
183.18	1.662	1	study	Phase1	study/STIM_014.jpg
188.715	1.775	1	study	Phase1	study/STIM_014.jpg
193.059	1.583	1	study	Phase1	study/STIM_014.jpg
196.718	1.533	1	study	Phase1	study/STIM_015.jpg
201.776	1.854	1	study	Phase1	study/STIM_015.jpg
206.529	1.34	1	study	Phase1	study/STIM_015.jpg
211.356	1.549	1	study	Phase1	study/STIM_016.jpg
216.205	1.126	1	study	Phase1	study/STIM_016.jpg
220.076	1.209	1	study	Phase1	study/STIM_016.jpg
223.653	2.083	1	study	Phase1	study/STIM_017.jpg
229.041	0.905	1	study	Phase1	study/STIM_017.jpg
232.565	1.246	1	study	Phase1	study/STIM_017.jpg
237.012	1.621	1	study	Phase1	study/STIM_018.jpg
242.322	1.877	1	study	Phase1	study/STIM_018.jpg
246.357	1.857	1	study	Phase1	study/STIM_018.jpg
251.638	1.544	1	study	Phase1	study/STIM_019.jpg
256.694	1.868	1	study	Phase1	study/STIM_019.jpg
261.819	1.047	1	study	Phase1	study/STIM_019.jpg
266.313	0.957	1	study	Phase1	study/STIM_020.jpg
270.803	1.263	1	study	Phase1	study/STIM_020.jpg
275.704	0.993	1	study	Phase1	study/STIM_020.jpg
280.112	1.894	1	study	Phase1	study/STIM_021.jpg
285.067	1.42	1	study	Phase1	study/STIM_021.jpg
289.613	1.454	1	study	Phase1	study/STIM_021.jpg
293.813	1.5	1	study	Phase1	study/STIM_022.jpg
298.0	1.996	1	study	Phase1	study/STIM_022.jpg
302.509	1.217	1	study	Phase1	study/STIM_022.jpg
307.548	1.86	1	study	Phase1	study/STIM_023.jpg
313.126	1.915	0	study	Phase1	study/STIM_023.jpg
317.958	1.25	1	study	Phase1	study/STIM_023.jpg
322.512	1.408	1	study	Phase1	study/STIM_024.jpg
326.685	1.237	0	study	Phase1	study/STIM_024.jpg
331.529	1.477	1	study	Phase1	study/STIM_024.jpg
336.671	1.506	1	study	Phase1	study/STIM_025.jpg
341.526	1.699	0	study	Phase1	study/STIM_025.jpg
345.685	1.431	1	study	Phase1	study/STIM_025.jpg
350.996	1.674	1	study	Phase1	study/STIM_026.jpg
355.101	1.688	1	study	Phase1	study/STIM_026.jpg
359.984	1.491	1	study	Phase1	study/STIM_026.jpg
364.195	2.035	1	study	Phase1	study/STIM_027.jpg
368.271	1.278	1	study	Phase1	study/STIM_027.jpg
372.276	1.485	1	study	Phase1	study/STIM_027.jpg
377.501	1.652	0	study	Phase1	study/STIM_028.jpg
381.776	1.409	1	study	Phase1	study/STIM_028.jpg
385.193	0.872	1	study	Phase1	study/STIM_028.jpg
388.313	0.964	1	study	Phase1	study/STIM_029.jpg
391.825	1.45	0	study	Phase1	study/STIM_029.jpg
395.369	1.629	1	study	Phase1	study/STIM_029.jpg
399.049	1.184	1	test	Phase1	test/STIM_000.jpg
403.106	0.94	1	test	Phase1	test/STIM_000.jpg
406.054	1.494	1	test	Phase1	test/STIM_000.jpg
410.693	1.249	1	test	Phase1	test/STIM_001.jpg
415.158	1.328	1	test	Phase1	test/STIM_001.jpg
419.229	1.378	1	test	Phase1	test/STIM_001.jpg
422.882	1.148	1	test	Phase1	test/STIM_002.jpg
426.197	1.465	1	test	Phase1	test/STIM_002.jpg
430.954	0.849	1	test	Phase1	test/STIM_002.jpg
434.045	0.92	1	test	Phase1	test/STIM_003.jpg
438.631	1.141	1	test	Phase1	test/STIM_003.jpg
441.861	1.213	1	test	Phase1	test/STIM_003.jpg
447.043	1.342	1	test	Phase1	test/STIM_004.jpg
450.41	1.341	1	test	Phase1	test/STIM_004.jpg
454.922	1.07	1	test	Phase1	test/STIM_004.jpg
458.259	1.078	1	test	Phase1	test/STIM_005.jpg
461.419	1.242	1	test	Phase1	test/STIM_005.jpg
466.216	1.088	1	test	Phase1	test/STIM_005.jpg
469.394	0.832	1	test	Phase1	test/STIM_006.jpg
473.023	1.395	1	test	Phase1	test/STIM_006.jpg
477.629	1.48	1	test	Phase1	test/STIM_006.jpg
482.019	1.412	1	test	Phase1	test/STIM_007.jpg
485.924	0.874	1	test	Phase1	test/STIM_007.jpg
488.824	1.453	1	test	Phase1	test/STIM_007.jpg
493.538	1.199	1	test	Phase1	test/STIM_008.jpg
497.686	1.402	1	test	Phase1	test/STIM_008.jpg
502.652	0.798	1	test	Phase1	test/STIM_008.jpg
505.507	0.824	1	test	Phase1	test/STIM_009.jpg
509.318	1.32	1	test	Phase1	test/STIM_009.jpg
513.372	1.432	1	test	Phase1	test/STIM_009.jpg
518.647	1.374	1	test	Phase1	test/STIM_010.jpg
523.849	1.289	1	test	Phase1	test/STIM_010.jpg
527.187	1.459	1	test	Phase1	test/STIM_010.jpg
530.869	0.879	1	test	Phase1	test/STIM_011.jpg
534.761	1.509	1	test	Phase1	test/STIM_011.jpg
539.095	0.975	1	test	Phase1	test/STIM_011.jpg
543.337	1.246	1	test	Phase1	test/STIM_012.jpg
546.76	0.732	1	test	Phase1	test/STIM_012.jpg
550.118	1.004	1	test	Phase1	test/STIM_012.jpg
554.821	0.715	1	test	Phase1	test/STIM_013.jpg
558.906	1.493	1	test	Phase1	test/STIM_013.jpg
562.921	1.129	1	test	Phase1	test/STIM_013.jpg
567.107	1.009	1	test	Phase1	test/STIM_014.jpg
572.05	1.292	1	test	Phase1	test/STIM_014.jpg
575.807	1.162	1	test	Phase1	test/STIM_014.jpg
579.449	1.437	1	test	Phase1	test/STIM_015.jpg
583.452	1.467	1	test	Phase1	test/STIM_015.jpg
588.41	1.238	1	test	Phase1	test/STIM_015.jpg
593.312	1.281	1	test	Phase1	test/STIM_016.jpg
597.585	1.478	1	test	Phase1	test/STIM_016.jpg
602.651	0.91	1	test	Phase1	test/STIM_016.jpg
606.025	0.752	1	test	Phase1	test/STIM_017.jpg
610.517	1.13	1	test	Phase1	test/STIM_017.jpg
614.76	1.368	1	test	Phase1	test/STIM_017.jpg
618.594	1.08	1	test	Phase1	test/STIM_018.jpg
623.631	1.263	1	test	Phase1	test/STIM_018.jpg
628.586	1.18	1	test	Phase1	test/STIM_018.jpg
632.521	1.014	1	test	Phase1	test/STIM_019.jpg
635.804	0.954	1	test	Phase1	test/STIM_019.jpg
639.598	1.474	1	test	Phase1	test/STIM_019.jpg
644.078	1.145	1	test	Phase1	test/STIM_020.jpg
648.138	0.859	1	test	Phase1	test/STIM_020.jpg
652.472	0.904	1	test	Phase1	test/STIM_020.jpg
656.603	0.897	1	test	Phase1	test/STIM_021.jpg
659.967	0.92	1	test	Phase1	test/STIM_021.jpg
664.746	0.914	1	test	Phase1	test/STIM_021.jpg
668.138	0.799	1	test	Phase1	test/STIM_022.jpg
671.421	1.019	1	test	Phase1	test/STIM_022.jpg
674.924	1.003	1	test	Phase1	test/STIM_022.jpg
678.531	1.264	1	test	Phase1	test/STIM_023.jpg
682.188	1.305	1	test	Phase1	test/STIM_023.jpg
686.078	0.995	0	test	Phase1	test/STIM_023.jpg
690.433	1.08	1	test	Phase1	test/STIM_024.jpg
694.704	1.009	1	test	Phase1	test/STIM_024.jpg
699.625	1.18	1	test	Phase1	test/STIM_024.jpg
703.787	0.854	1	test	Phase1	test/STIM_025.jpg
707.018	1.28	1	test	Phase1	test/STIM_025.jpg
712.205	0.863	1	test	Phase1	test/STIM_025.jpg
716.902	0.906	1	test	Phase1	test/STIM_026.jpg
720.586	1.491	1	test	Phase1	test/STIM_026.jpg
724.452	1.384	1	test	Phase1	test/STIM_026.jpg
728.29	0.772	1	test	Phase1	test/STIM_027.jpg
732.326	1.071	1	test	Phase1	test/STIM_027.jpg
736.062	1.497	1	test	Phase1	test/STIM_027.jpg
739.685	1.278	1	test	Phase1	test/STIM_028.jpg
744.554	1.105	1	test	Phase1	test/STIM_028.jpg
747.686	1.121	1	test	Phase1	test/STIM_028.jpg
751.495	1.177	1	test	Phase1	test/STIM_029.jpg
756.074	0.919	1	test	Phase1	test/STIM_029.jpg
759.29	0.803	1	test	Phase1	test/STIM_029.jpg
763.48	1.561	1	study	Phase2	study/STIM_000.jpg
768.871	0.875	1	study	Phase2	study/STIM_000.jpg
772.45	0.796	1	study	Phase2	study/STIM_000.jpg
775.609	1.285	1	study	Phase2	study/STIM_001.jpg
779.55	1.324	1	study	Phase2	study/STIM_001.jpg
784.133	1.021	1	study	Phase2	study/STIM_001.jpg
787.529	1.318	1	study	Phase2	study/STIM_002.jpg
790.848	1.408	1	study	Phase2	study/STIM_002.jpg
794.596	0.944	1	study	Phase2	study/STIM_002.jpg
799.323	1.01	1	study	Phase2	study/STIM_003.jpg
803.061	1.305	1	study	Phase2	study/STIM_003.jpg
808.298	1.363	1	study	Phase2	study/STIM_003.jpg
811.946	0.87	1	study	Phase2	study/STIM_004.jpg
815.895	1.543	1	study	Phase2	study/STIM_004.jpg
819.517	1.075	1	study	Phase2	study/STIM_004.jpg
824.183	0.83	1	study	Phase2	study/STIM_005.jpg
827.957	1.092	1	study	Phase2	study/STIM_005.jpg
832.239	1.169	1	study	Phase2	study/STIM_005.jpg
836.555	0.94	1	study	Phase2	study/STIM_006.jpg
841.177	1.372	1	study	Phase2	study/STIM_006.jpg
844.914	0.71	1	study	Phase2	study/STIM_006.jpg
847.733	1.277	1	study	Phase2	study/STIM_007.jpg
851.581	1.544	1	study	Phase2	study/STIM_007.jpg
855.376	1.269	1	study	Phase2	study/STIM_007.jpg
859.955	0.939	1	study	Phase2	study/STIM_008.jpg
864.027	0.797	1	study	Phase2	study/STIM_008.jpg
867.465	1.109	1	study	Phase2	study/STIM_008.jpg
870.949	1.143	1	study	Phase2	study/STIM_009.jpg
874.683	1.336	1	study	Phase2	study/STIM_009.jpg
879.564	1.147	1	study	Phase2	study/STIM_009.jpg
883.965	1.364	1	study	Phase2	study/STIM_010.jpg
887.35	0.938	1	study	Phase2	study/STIM_010.jpg
890.688	1.21	1	study	Phase2	study/STIM_010.jpg
895.611	1.441	1	study	Phase2	study/STIM_011.jpg
900.268	1.674	1	study	Phase2	study/STIM_011.jpg
904.474	0.814	1	study	Phase2	study/STIM_011.jpg
907.481	1.066	1	study	Phase2	study/STIM_012.jpg
912.462	1.653	1	study	Phase2	study/STIM_012.jpg
916.893	1.463	1	study	Phase2	study/STIM_012.jpg
922.177	1.434	0	study	Phase2	study/STIM_013.jpg
925.793	1.607	1	study	Phase2	study/STIM_013.jpg
929.992	1.131	0	study	Phase2	study/STIM_013.jpg
934.937	1.083	0	study	Phase2	study/STIM_014.jpg
940.006	1.042	1	study	Phase2	study/STIM_014.jpg
943.955	1.286	1	study	Phase2	study/STIM_014.jpg
948.246	1.053	1	study	Phase2	study/STIM_015.jpg
951.422	1.007	1	study	Phase2	study/STIM_015.jpg
955.389	1.23	1	study	Phase2	study/STIM_015.jpg
958.761	0.814	1	study	Phase2	study/STIM_016.jpg
962.118	1.106	1	study	Phase2	study/STIM_016.jpg
965.697	1.347	1	study	Phase2	study/STIM_016.jpg
970.757	1.074	1	study	Phase2	study/STIM_017.jpg
975.495	1.056	1	study	Phase2	study/STIM_017.jpg
980.138	1.261	1	study	Phase2	study/STIM_017.jpg
983.899	1.558	1	study	Phase2	study/STIM_018.jpg
989.313	0.891	1	study	Phase2	study/STIM_018.jpg
993.053	0.866	1	study	Phase2	study/STIM_018.jpg
996.362	0.932	1	study	Phase2	study/STIM_019.jpg
1001.029	0.849	1	study	Phase2	study/STIM_019.jpg
1003.888	1.281	1	study	Phase2	study/STIM_019.jpg
1009.037	0.94	1	study	Phase2	study/STIM_020.jpg
1012.192	1.08	1	study	Phase2	study/STIM_020.jpg
1015.964	0.978	0	study	Phase2	study/STIM_020.jpg
1019.076	0.912	1	study	Phase2	study/STIM_021.jpg
1022.009	1.399	1	study	Phase2	study/STIM_021.jpg
1026.544	1.345	1	study	Phase2	study/STIM_021.jpg
1030.801	1.178	1	study	Phase2	study/STIM_022.jpg
1035.922	1.36	1	study	Phase2	study/STIM_022.jpg
1040.178	1.139	1	study	Phase2	study/STIM_022.jpg
1044.653	1.309	1	study	Phase2	study/STIM_023.jpg
1048.011	1.478	1	study	Phase2	study/STIM_023.jpg
1052.801	0.803	1	study	Phase2	study/STIM_023.jpg
1055.675	1.703	1	study	Phase2	study/STIM_024.jpg
1060.103	1.488	1	study	Phase2	study/STIM_024.jpg
1064.831	1.131	1	study	Phase2	study/STIM_024.jpg
1068.479	0.905	1	study	Phase2	study/STIM_025.jpg
1071.881	1.172	1	study	Phase2	study/STIM_025.jpg
1075.339	1.545	1	study	Phase2	study/STIM_025.jpg
1079.054	1.621	1	study	Phase2	study/STIM_026.jpg
1084.222	0.892	1	study	Phase2	study/STIM_026.jpg
1088.895	1.492	1	study	Phase2	study/STIM_026.jpg
1094.127	1.461	1	study	Phase2	study/STIM_027.jpg
1098.246	0.877	1	study	Phase2	study/STIM_027.jpg
1103.094	1.183	1	study	Phase2	study/STIM_027.jpg
1107.769	1.02	1	study	Phase2	study/STIM_028.jpg
1111.614	1.307	1	study	Phase2	study/STIM_028.jpg
1115.429	1.117	1	study	Phase2	study/STIM_028.jpg
1118.721	1.307	1	study	Phase2	study/STIM_029.jpg
1123.107	1.47	1	study	Phase2	study/STIM_029.jpg
1128.275	0.997	1	study	Phase2	study/STIM_029.jpg
1132.203	1.421	1	test	Phase2	test/STIM_000.jpg
1136.279	1.239	1	test	Phase2	test/STIM_000.jpg
1139.66	0.975	1	test	Phase2	test/STIM_000.jpg
1144.571	0.736	1	test	Phase2	test/STIM_001.jpg
1147.517	1.261	1	test	Phase2	test/STIM_001.jpg
1150.807	1.34	1	test	Phase2	test/STIM_001.jpg
1154.758	1.489	1	test	Phase2	test/STIM_002.jpg
1158.569	1.163	1	test	Phase2	test/STIM_002.jpg
1162.637	1.461	1	test	Phase2	test/STIM_002.jpg
1167.627	0.924	1	test	Phase2	test/STIM_003.jpg
1171.526	0.948	1	test	Phase2	test/STIM_003.jpg
1174.727	0.851	1	test	Phase2	test/STIM_003.jpg
1178.063	0.912	1	test	Phase2	test/STIM_004.jpg
1181.994	0.956	1	test	Phase2	test/STIM_004.jpg
1186.057	1.349	1	test	Phase2	test/STIM_004.jpg
1189.732	1.054	1	test	Phase2	test/STIM_005.jpg
1193.495	0.71	1	test	Phase2	test/STIM_005.jpg
1196.428	1.519	1	test	Phase2	test/STIM_005.jpg
1201.107	0.83	1	test	Phase2	test/STIM_006.jpg
1204.459	0.91	1	test	Phase2	test/STIM_006.jpg
1208.131	1.073	1	test	Phase2	test/STIM_006.jpg
1211.379	1.191	1	test	Phase2	test/STIM_007.jpg
1215.42	1.383	1	test	Phase2	test/STIM_007.jpg
1219.734	1.077	1	test	Phase2	test/STIM_007.jpg
1224.257	1.251	1	test	Phase2	test/STIM_008.jpg
1227.636	1.481	1	test	Phase2	test/STIM_008.jpg
1232.394	1.382	1	test	Phase2	test/STIM_008.jpg
1237.048	0.791	1	test	Phase2	test/STIM_009.jpg
1239.955	1.062	1	test	Phase2	test/STIM_009.jpg
1244.599	0.802	0	test	Phase2	test/STIM_009.jpg
1248.0	0.959	1	test	Phase2	test/STIM_010.jpg
1250.97	1.317	1	test	Phase2	test/STIM_010.jpg
1256.09	1.217	1	test	Phase2	test/STIM_010.jpg
1260.162	1.498	1	test	Phase2	test/STIM_011.jpg
1264.587	1.476	1	test	Phase2	test/STIM_011.jpg
1269.865	1.263	1	test	Phase2	test/STIM_011.jpg
1274.912	0.778	1	test	Phase2	test/STIM_012.jpg
1278.358	1.064	1	test	Phase2	test/STIM_012.jpg
1282.751	1.435	1	test	Phase2	test/STIM_012.jpg
1286.933	0.729	1	test	Phase2	test/STIM_013.jpg
1291.11	0.95	1	test	Phase2	test/STIM_013.jpg
1294.499	1.337	1	test	Phase2	test/STIM_013.jpg
1299.246	1.014	1	test	Phase2	test/STIM_014.jpg
1303.967	1.103	1	test	Phase2	test/STIM_014.jpg
1308.534	1.24	1	test	Phase2	test/STIM_014.jpg
1313.299	1.186	1	test	Phase2	test/STIM_015.jpg
1316.971	1.443	1	test	Phase2	test/STIM_015.jpg
1321.13	0.795	1	test	Phase2	test/STIM_015.jpg
1325.266	0.845	1	test	Phase2	test/STIM_016.jpg
1329.957	1.493	1	test	Phase2	test/STIM_016.jpg
1335.367	1.31	0	test	Phase2	test/STIM_016.jpg
1339.507	1.277	1	test	Phase2	test/STIM_017.jpg
1343.112	0.808	1	test	Phase2	test/STIM_017.jpg
1347.856	1.5	1	test	Phase2	test/STIM_017.jpg
1351.995	1.448	1	test	Phase2	test/STIM_018.jpg
1357.387	1.435	1	test	Phase2	test/STIM_018.jpg
1362.342	0.743	1	test	Phase2	test/STIM_018.jpg
1366.288	1.487	1	test	Phase2	test/STIM_019.jpg
1369.876	0.835	1	test	Phase2	test/STIM_019.jpg
1374.47	1.371	1	test	Phase2	test/STIM_019.jpg
1379.077	0.913	1	test	Phase2	test/STIM_020.jpg
1382.436	1.257	1	test	Phase2	test/STIM_020.jpg
1386.335	1.421	0	test	Phase2	test/STIM_020.jpg
1390.372	1.12	1	test	Phase2	test/STIM_021.jpg
1395.32	1.087	1	test	Phase2	test/STIM_021.jpg
1400.092	1.522	1	test	Phase2	test/STIM_021.jpg
1404.115	0.899	1	test	Phase2	test/STIM_022.jpg
1407.169	1.453	1	test	Phase2	test/STIM_022.jpg
1411.591	1.276	1	test	Phase2	test/STIM_022.jpg
1415.209	1.062	1	test	Phase2	test/STIM_023.jpg
1418.782	0.952	1	test	Phase2	test/STIM_023.jpg
1421.768	1.038	1	test	Phase2	test/STIM_023.jpg
1426.74	1.181	1	test	Phase2	test/STIM_024.jpg
1430.312	1.367	1	test	Phase2	test/STIM_024.jpg
1434.035	1.327	1	test	Phase2	test/STIM_024.jpg
1439.354	1.343	1	test	Phase2	test/STIM_025.jpg
1443.342	1.073	1	test	Phase2	test/STIM_025.jpg
1447.992	1.135	1	test	Phase2	test/STIM_025.jpg
1452.305	1.132	1	test	Phase2	test/STIM_026.jpg
1455.736	1.4	1	test	Phase2	test/STIM_026.jpg
1459.966	1.367	1	test	Phase2	test/STIM_026.jpg
1465.251	0.898	1	test	Phase2	test/STIM_027.jpg
1468.967	1.147	1	test	Phase2	test/STIM_027.jpg
1473.11	1.215	1	test	Phase2	test/STIM_027.jpg
1477.811	1.282	1	test	Phase2	test/STIM_028.jpg
1481.945	0.754	1	test	Phase2	test/STIM_028.jpg
1484.974	1.234	0	test	Phase2	test/STIM_028.jpg
1488.956	0.771	1	test	Phase2	test/STIM_029.jpg
1493.648	1.52	1	test	Phase2	test/STIM_029.jpg
1497.646	1.45	1	test	Phase2	test/STIM_029.jpg
1502.805	1.102	1	study	Phase3	study/STIM_000.jpg
1506.084	1.391	1	study	Phase3	study/STIM_000.jpg
1510.344	0.925	1	study	Phase3	study/STIM_000.jpg
1514.884	1.256	1	study	Phase3	study/STIM_001.jpg
1518.603	0.871	1	study	Phase3	study/STIM_001.jpg
1523.079	0.751	0	study	Phase3	study/STIM_001.jpg
1527.192	0.975	1	study	Phase3	study/STIM_002.jpg
1531.396	1.293	1	study	Phase3	study/STIM_002.jpg
1535.249	1.1	1	study	Phase3	study/STIM_002.jpg
1540.033	1.349	1	study	Phase3	study/STIM_003.jpg
1543.704	0.714	1	study	Phase3	study/STIM_003.jpg
1546.6	1.214	1	study	Phase3	study/STIM_003.jpg
1551.043	1.375	1	study	Phase3	study/STIM_004.jpg
1556.222	0.686	1	study	Phase3	study/STIM_004.jpg
1559.733	1.143	1	study	Phase3	study/STIM_004.jpg
1564.011	0.908	1	study	Phase3	study/STIM_005.jpg
1567.986	1.138	1	study	Phase3	study/STIM_005.jpg
1572.652	1.016	1	study	Phase3	study/STIM_005.jpg
1576.964	0.82	1	study	Phase3	study/STIM_006.jpg
1580.406	1.294	1	study	Phase3	study/STIM_006.jpg
1583.962	0.836	1	study	Phase3	study/STIM_006.jpg
1588.026	1.221	1	study	Phase3	study/STIM_007.jpg
1593.048	1.027	1	study	Phase3	study/STIM_007.jpg
1597.972	1.459	1	study	Phase3	study/STIM_007.jpg
1603.321	1.1	1	study	Phase3	study/STIM_008.jpg
1607.052	1.114	1	study	Phase3	study/STIM_008.jpg
1611.045	1.381	1	study	Phase3	study/STIM_008.jpg
1614.973	0.663	1	study	Phase3	study/STIM_009.jpg
1619.284	1.161	1	study	Phase3	study/STIM_009.jpg
1624.066	1.42	1	study	Phase3	study/STIM_009.jpg
1628.596	0.737	1	study	Phase3	study/STIM_010.jpg
1633.303	1.303	1	study	Phase3	study/STIM_010.jpg
1637.599	1.013	1	study	Phase3	study/STIM_010.jpg
1641.668	0.7	1	study	Phase3	study/STIM_011.jpg
1645.216	1.417	1	study	Phase3	study/STIM_011.jpg
1649.213	0.838	1	study	Phase3	study/STIM_011.jpg
1653.595	0.861	1	study	Phase3	study/STIM_012.jpg
1657.85	0.905	1	study	Phase3	study/STIM_012.jpg
1662.224	1.213	1	study	Phase3	study/STIM_012.jpg
1667.323	1.214	1	study	Phase3	study/STIM_013.jpg
1670.917	0.899	1	study	Phase3	study/STIM_013.jpg
1674.426	1.453	1	study	Phase3	study/STIM_013.jpg
1679.399	1.083	0	study	Phase3	study/STIM_014.jpg
1683.59	0.659	1	study	Phase3	study/STIM_014.jpg
1687.447	0.874	1	study	Phase3	study/STIM_014.jpg
1690.868	1.168	1	study	Phase3	study/STIM_015.jpg
1695.476	1.003	1	study	Phase3	study/STIM_015.jpg
1700.094	1.071	1	study	Phase3	study/STIM_015.jpg
1704.921	0.958	1	study	Phase3	study/STIM_016.jpg
1708.888	0.827	1	study	Phase3	study/STIM_016.jpg
1712.285	0.777	1	study	Phase3	study/STIM_016.jpg
1715.545	1.26	1	study	Phase3	study/STIM_017.jpg
1720.529	0.878	1	study	Phase3	study/STIM_017.jpg
1723.867	1.167	1	study	Phase3	study/STIM_017.jpg
1727.116	1.464	1	study	Phase3	study/STIM_018.jpg
1732.103	1.223	1	study	Phase3	study/STIM_018.jpg
1737.315	1.288	1	study	Phase3	study/STIM_018.jpg
1741.831	0.932	1	study	Phase3	study/STIM_019.jpg
1746.563	1.122	1	study	Phase3	study/STIM_019.jpg
1751.504	0.856	1	study	Phase3	study/STIM_019.jpg
1755.324	1.289	1	study	Phase3	study/STIM_020.jpg
1760.031	0.987	1	study	Phase3	study/STIM_020.jpg
1763.231	0.754	1	study	Phase3	study/STIM_020.jpg
1767.051	1.207	1	study	Phase3	study/STIM_021.jpg
1771.482	1.146	1	study	Phase3	study/STIM_021.jpg
1775.436	1.275	1	study	Phase3	study/STIM_021.jpg
1779.006	1.473	1	study	Phase3	study/STIM_022.jpg
1783.407	1.173	1	study	Phase3	study/STIM_022.jpg
1788.264	0.922	1	study	Phase3	study/STIM_022.jpg
1792.462	0.715	1	study	Phase3	study/STIM_023.jpg
1796.043	0.96	1	study	Phase3	study/STIM_023.jpg
1799.24	0.688	1	study	Phase3	study/STIM_023.jpg
1802.698	1.283	1	study	Phase3	study/STIM_024.jpg
1806.748	0.849	1	study	Phase3	study/STIM_024.jpg
1810.052	1.032	1	study	Phase3	study/STIM_024.jpg
1814.914	1.249	1	study	Phase3	study/STIM_025.jpg
1819.307	1.222	1	study	Phase3	study/STIM_025.jpg
1824.306	1.42	1	study	Phase3	study/STIM_025.jpg
1828.019	1.269	1	study	Phase3	study/STIM_026.jpg
1833.044	1.414	1	study	Phase3	study/STIM_026.jpg
1837.769	0.664	1	study	Phase3	study/STIM_026.jpg
1841.379	1.445	1	study	Phase3	study/STIM_027.jpg
1846.419	0.703	1	study	Phase3	study/STIM_027.jpg
1850.514	0.68	1	study	Phase3	study/STIM_027.jpg
1854.97	0.762	1	study	Phase3	study/STIM_028.jpg
1858.894	1.432	1	study	Phase3	study/STIM_028.jpg
1864.275	1.274	1	study	Phase3	study/STIM_028.jpg
1869.443	1.006	1	study	Phase3	study/STIM_029.jpg
1873.345	1.324	1	study	Phase3	study/STIM_029.jpg
1877.384	1.035	1	study	Phase3	study/STIM_029.jpg
1880.513	1.346	1	test	Phase3	test/STIM_000.jpg
1884.612	1.07	1	test	Phase3	test/STIM_000.jpg
1889.195	1.464	1	test	Phase3	test/STIM_000.jpg
1894.324	1.303	1	test	Phase3	test/STIM_001.jpg
1898.802	1.25	1	test	Phase3	test/STIM_001.jpg
1902.844	1.517	1	test	Phase3	test/STIM_001.jpg
1907.029	0.908	0	test	Phase3	test/STIM_002.jpg
1910.741	0.861	1	test	Phase3	test/STIM_002.jpg
1914.33	1.201	1	test	Phase3	test/STIM_002.jpg
1917.62	0.731	1	test	Phase3	test/STIM_003.jpg
1920.731	1.145	1	test	Phase3	test/STIM_003.jpg
1924.526	1.386	1	test	Phase3	test/STIM_003.jpg
1928.095	0.946	1	test	Phase3	test/STIM_004.jpg
1932.995	0.912	1	test	Phase3	test/STIM_004.jpg
1936.898	1.098	1	test	Phase3	test/STIM_004.jpg
1941.055	0.893	1	test	Phase3	test/STIM_005.jpg
1945.089	1.468	1	test	Phase3	test/STIM_005.jpg
1949.966	1.062	1	test	Phase3	test/STIM_005.jpg
1954.735	1.077	1	test	Phase3	test/STIM_006.jpg
1958.698	0.77	1	test	Phase3	test/STIM_006.jpg
1962.305	0.774	1	test	Phase3	test/STIM_006.jpg
1965.099	0.874	1	test	Phase3	test/STIM_007.jpg
1968.049	1.233	1	test	Phase3	test/STIM_007.jpg
1971.625	1.045	1	test	Phase3	test/STIM_007.jpg
1975.571	1.212	1	test	Phase3	test/STIM_008.jpg
1979.079	0.776	1	test	Phase3	test/STIM_008.jpg
1982.332	1.398	1	test	Phase3	test/STIM_008.jpg
1985.829	0.868	1	test	Phase3	test/STIM_009.jpg
1989.886	1.367	1	test	Phase3	test/STIM_009.jpg
1993.753	1.012	1	test	Phase3	test/STIM_009.jpg
1997.855	1.095	1	test	Phase3	test/STIM_010.jpg
2001.983	0.995	1	test	Phase3	test/STIM_010.jpg
2005.509	1.146	1	test	Phase3	test/STIM_010.jpg
2009.048	0.714	1	test	Phase3	test/STIM_011.jpg
2011.847	1.057	1	test	Phase3	test/STIM_011.jpg
2015.745	0.973	1	test	Phase3	test/STIM_011.jpg
2020.166	1.096	1	test	Phase3	test/STIM_012.jpg
2023.297	0.878	1	test	Phase3	test/STIM_012.jpg
2026.264	0.972	1	test	Phase3	test/STIM_012.jpg
2029.416	1.481	1	test	Phase3	test/STIM_013.jpg
2034.56	1.411	1	test	Phase3	test/STIM_013.jpg
2038.274	0.813	1	test	Phase3	test/STIM_013.jpg
2041.743	1.384	1	test	Phase3	test/STIM_014.jpg
2045.615	1.257	1	test	Phase3	test/STIM_014.jpg
2049.593	0.945	1	test	Phase3	test/STIM_014.jpg
2053.567	1.233	0	test	Phase3	test/STIM_015.jpg
2058.658	0.967	1	test	Phase3	test/STIM_015.jpg
2063.534	1.12	1	test	Phase3	test/STIM_015.jpg
2066.889	1.023	1	test	Phase3	test/STIM_016.jpg
2070.182	1.455	1	test	Phase3	test/STIM_016.jpg
2074.48	1.151	1	test	Phase3	test/STIM_016.jpg
2078.066	0.938	1	test	Phase3	test/STIM_017.jpg
2082.835	1.004	1	test	Phase3	test/STIM_017.jpg
2086.163	1.306	1	test	Phase3	test/STIM_017.jpg
2090.349	1.48	1	test	Phase3	test/STIM_018.jpg
2095.148	1.459	1	test	Phase3	test/STIM_018.jpg
2100.261	1.039	1	test	Phase3	test/STIM_018.jpg
2105.288	0.839	1	test	Phase3	test/STIM_019.jpg
2108.453	0.98	0	test	Phase3	test/STIM_019.jpg
2112.635	1.52	1	test	Phase3	test/STIM_019.jpg
2117.712	0.808	1	test	Phase3	test/STIM_020.jpg
2121.797	1.419	1	test	Phase3	test/STIM_020.jpg
2125.899	0.841	1	test	Phase3	test/STIM_020.jpg
2129.281	1.068	1	test	Phase3	test/STIM_021.jpg
2133.455	1.468	1	test	Phase3	test/STIM_021.jpg
2137.846	1.181	1	test	Phase3	test/STIM_021.jpg
2143.008	0.931	1	test	Phase3	test/STIM_022.jpg
2146.565	0.96	1	test	Phase3	test/STIM_022.jpg
2150.644	0.904	0	test	Phase3	test/STIM_022.jpg
2154.001	0.909	1	test	Phase3	test/STIM_023.jpg
2157.682	0.765	1	test	Phase3	test/STIM_023.jpg
2162.022	1.174	1	test	Phase3	test/STIM_023.jpg
2165.395	1.376	1	test	Phase3	test/STIM_024.jpg
2169.814	1.129	1	test	Phase3	test/STIM_024.jpg
2173.592	1.221	1	test	Phase3	test/STIM_024.jpg
2177.991	1.297	1	test	Phase3	test/STIM_025.jpg
2181.723	0.878	1	test	Phase3	test/STIM_025.jpg
2184.78	0.84	1	test	Phase3	test/STIM_025.jpg
2188.152	0.954	1	test	Phase3	test/STIM_026.jpg
2193.09	0.856	1	test	Phase3	test/STIM_026.jpg
2196.93	0.825	1	test	Phase3	test/STIM_026.jpg
2200.554	0.969	1	test	Phase3	test/STIM_027.jpg
2205.179	1.513	1	test	Phase3	test/STIM_027.jpg
2210.469	1.144	1	test	Phase3	test/STIM_027.jpg
2215.405	1.476	1	test	Phase3	test/STIM_028.jpg
2219.577	1.104	1	test	Phase3	test/STIM_028.jpg
2224.339	1.242	1	test	Phase3	test/STIM_028.jpg
2228.417	0.744	1	test	Phase3	test/STIM_029.jpg
2231.338	1.179	0	test	Phase3	test/STIM_029.jpg
2235.358	1.359	1	test	Phase3	test/STIM_029.jpg
