onset	duration	response_time_ms	trial_type	learning_stage	stimulus	response_port
0.0	3.23	3230.4	regulate	Run1	regulate/STIM_000.jpg	99
6.194	2.736	2735.6	regulate	Run1	regulate/STIM_000.jpg	99
11.276	1.648	1647.5	regulate	Run1	regulate/STIM_000.jpg	100
15.703	1.494	1493.9	regulate	Run1	regulate/STIM_000.jpg	100
20.016	1.88	1879.7	regulate	Run1	regulate/STIM_001.jpg	99
24.486	2.915	2914.9	regulate	Run1	regulate/STIM_001.jpg	99
29.882	2.23	2230.5	regulate	Run1	regulate/STIM_001.jpg	100
35.007	1.625	1624.8	regulate	Run1	regulate/STIM_001.jpg	99
40.353	3.719	3719.4	regulate	Run1	regulate/STIM_002.jpg	100
46.503	1.94	1940.3	regulate	Run1	regulate/STIM_002.jpg	99
52.404	2.669	2668.6	regulate	Run1	regulate/STIM_002.jpg	100
58.969	3.286	3286.0	regulate	Run1	regulate/STIM_002.jpg	100
66.097	2.504	2504.2	regulate	Run1	regulate/STIM_003.jpg	100
72.291	2.429	2429.1	regulate	Run1	regulate/STIM_003.jpg	100
78.52	3.205	3205.1	regulate	Run1	regulate/STIM_003.jpg	100
84.669	1.734	1733.8	regulate	Run1	regulate/STIM_003.jpg	100
89.195	3.548	3547.9	regulate	Run1	regulate/STIM_004.jpg	100
96.353	3.197	3197.4	regulate	Run1	regulate/STIM_004.jpg	100
102.238	3.051	3051.4	regulate	Run1	regulate/STIM_004.jpg	100
107.982	2.084	2084.0	regulate	Run1	regulate/STIM_004.jpg	99
113.608	1.836	1836.2	regulate	Run1	regulate/STIM_005.jpg	100
118.966	3.292	3291.9	regulate	Run1	regulate/STIM_005.jpg	100
126.054	2.861	2861.1	regulate	Run1	regulate/STIM_005.jpg	100
131.65	2.119	2118.6	regulate	Run1	regulate/STIM_005.jpg	100
136.745	2.352	2352.2	regulate	Run1	regulate/STIM_006.jpg	99
141.79	2.424	2423.7	regulate	Run1	regulate/STIM_006.jpg	100
147.446	3.263	3262.7	regulate	Run1	regulate/STIM_006.jpg	99
153.883	2.95	2950.0	regulate	Run1	regulate/STIM_006.jpg	99
159.308	3.0	2999.5	regulate	Run1	regulate/STIM_007.jpg	100
165.781	2.557	2556.6	regulate	Run1	regulate/STIM_007.jpg	100
170.511	3.382	3382.1	regulate	Run1	regulate/STIM_007.jpg	99
176.911	1.728	1728.5	regulate	Run1	regulate/STIM_007.jpg	100
182.604	3.586	3585.7	regulate	Run1	regulate/STIM_008.jpg	100
190.013	3.087	3087.4	regulate	Run1	regulate/STIM_008.jpg	99
195.134	2.68	2680.0	regulate	Run1	regulate/STIM_008.jpg	100
200.741	2.026	2026.5	regulate	Run1	regulate/STIM_008.jpg	100
206.544	3.288	3287.9	regulate	Run1	regulate/STIM_009.jpg	100
212.769	2.496	2496.0	regulate	Run1	regulate/STIM_009.jpg	100
217.685	1.8	1799.9	regulate	Run1	regulate/STIM_009.jpg	100
223.387	3.282	3281.8	regulate	Run1	regulate/STIM_009.jpg	99
230.533	3.35	3350.3	regulate	Run1	regulate/STIM_010.jpg	99
237.055	2.008	2007.8	regulate	Run1	regulate/STIM_010.jpg	100
241.969	3.323	3323.2	regulate	Run1	regulate/STIM_010.jpg	100
247.342	2.393	2393.4	regulate	Run1	regulate/STIM_010.jpg	99
252.199	3.52	3520.3	regulate	Run1	regulate/STIM_011.jpg	99
259.378	2.622	2621.7	regulate	Run1	regulate/STIM_011.jpg	100
264.447	2.17	2170.3	regulate	Run1	regulate/STIM_011.jpg	99
270.353	2.631	2631.4	regulate	Run1	regulate/STIM_011.jpg	100
275.229	3.177	3176.8	regulate	Run1	regulate/STIM_012.jpg	100
280.515	3.364	3364.4	regulate	Run1	regulate/STIM_012.jpg	100
286.109	2.028	2027.9	regulate	Run1	regulate/STIM_012.jpg	100
290.249	1.859	1858.8	regulate	Run1	regulate/STIM_012.jpg	99
294.257	2.174	2174.3	regulate	Run1	regulate/STIM_013.jpg	99
298.431	2.961	2961.1	regulate	Run1	regulate/STIM_013.jpg	99
305.307	1.648	1648.4	regulate	Run1	regulate/STIM_013.jpg	100
310.232	2.997	2997.3	regulate	Run1	regulate/STIM_013.jpg	100
316.551	3.832	3832.4	regulate	Run1	regulate/STIM_014.jpg	99
324.336	2.917	2917.4	regulate	Run1	regulate/STIM_014.jpg	99
329.587	1.806	1805.6	regulate	Run1	regulate/STIM_014.jpg	100
333.718	1.495	1494.6	regulate	Run1	regulate/STIM_014.jpg	99
337.251	1.918	1918.3	regulate	Run1	regulate/STIM_015.jpg	99
342.368	3.216	3215.9	regulate	Run1	regulate/STIM_015.jpg	99
348.198	3.288	3287.8	regulate	Run1	regulate/STIM_015.jpg	99
354.769	1.6	1599.9	regulate	Run1	regulate/STIM_015.jpg	100
360.0	2.463	2463.1	regulate	Run1	regulate/STIM_016.jpg	100
366.134	1.767	1767.1	regulate	Run1	regulate/STIM_016.jpg	100
371.521	3.405	3405.2	regulate	Run1	regulate/STIM_016.jpg	99
376.988	2.332	2332.1	regulate	Run1	regulate/STIM_016.jpg	99
381.653	2.333	2332.7	regulate	Run1	regulate/STIM_017.jpg	99
387.894	3.162	3161.5	regulate	Run1	regulate/STIM_017.jpg	100
393.408	1.738	1738.4	regulate	Run1	regulate/STIM_017.jpg	99
398.061	2.631	2630.8	regulate	Run1	regulate/STIM_017.jpg	99
403.902	3.557	3556.6	regulate	Run1	regulate/STIM_018.jpg	99
410.982	3.042	3042.1	regulate	Run1	regulate/STIM_018.jpg	99
416.622	2.433	2432.9	regulate	Run1	regulate/STIM_018.jpg	100
421.349	2.114	2113.7	regulate	Run1	regulate/STIM_018.jpg	100
426.056	3.56	3560.5	regulate	Run1	regulate/STIM_019.jpg	100
433.254	2.891	2891.0	regulate	Run1	regulate/STIM_019.jpg	99
438.787	1.808	1807.8	regulate	Run1	regulate/STIM_019.jpg	100
444.536	3.321	3321.1	regulate	Run1	regulate/STIM_019.jpg	100
450.823	3.192	3191.7	regulate	Run1	regulate/STIM_020.jpg	100
457.827	2.822	2822.3	regulate	Run1	regulate/STIM_020.jpg	100
462.954	2.017	2016.7	regulate	Run1	regulate/STIM_020.jpg	99
467.376	1.951	1951.3	regulate	Run1	regulate/STIM_020.jpg	99
471.351	3.144	3143.7	regulate	Run1	regulate/STIM_021.jpg	100
477.623	1.811	1811.0	regulate	Run1	regulate/STIM_021.jpg	99
483.287	2.275	2274.8	regulate	Run1	regulate/STIM_021.jpg	100
488.095	2.412	2411.7	regulate	Run1	regulate/STIM_021.jpg	99
494.499	3.441	3440.8	regulate	Run1	regulate/STIM_022.jpg	100
500.328	1.823	1823.2	regulate	Run1	regulate/STIM_022.jpg	99
505.806	2.645	2644.9	regulate	Run1	regulate/STIM_022.jpg	99
510.908	2.904	2903.7	regulate	Run1	regulate/STIM_022.jpg	99
517.079	2.816	2815.7	regulate	Run1	regulate/STIM_023.jpg	99
522.608	3.239	3239.4	regulate	Run1	regulate/STIM_023.jpg	99
529.682	1.721	1721.2	regulate	Run1	regulate/STIM_023.jpg	99
534.147	2.054	2054.5	regulate	Run1	regulate/STIM_023.jpg	99
540.093	2.594	2594.5	regulate	Run1	regulate/STIM_024.jpg	100
545.383	3.18	3180.1	regulate	Run1	regulate/STIM_024.jpg	100
552.02	2.703	2702.8	regulate	Run1	regulate/STIM_024.jpg	99
557.152	2.346	2345.5	regulate	Run1	regulate/STIM_024.jpg	99
562.36	2.332	2332.4	regulate	Run1	regulate/STIM_025.jpg	99
568.598	3.264	3263.5	regulate	Run1	regulate/STIM_025.jpg	99
573.918	2.297	2297.2	regulate	Run1	regulate/STIM_025.jpg	100
579.488	1.846	1845.7	regulate	Run1	regulate/STIM_025.jpg	99
584.68	3.883	3882.6	regulate	Run1	regulate/STIM_026.jpg	100
591.332	2.184	2184.4	regulate	Run1	regulate/STIM_026.jpg	100
597.218	1.905	1904.6	regulate	Run1	regulate/STIM_026.jpg	100
602.368	2.469	2469.3	regulate	Run1	regulate/STIM_026.jpg	100
608.046	2.317	2317.4	regulate	Run1	regulate/STIM_027.jpg	99
613.09	1.763	1762.6	regulate	Run1	regulate/STIM_027.jpg	99
618.748	3.533	3533.3	regulate	Run1	regulate/STIM_027.jpg	100
624.842	2.582	2581.5	regulate	Run1	regulate/STIM_027.jpg	99
629.596	2.869	2868.8	regulate	Run1	regulate/STIM_028.jpg	100
635.722	2.179	2178.9	regulate	Run1	regulate/STIM_028.jpg	99
640.207	2.878	2878.4	regulate	Run1	regulate/STIM_028.jpg	99
645.528	3.082	3082.2	regulate	Run1	regulate/STIM_028.jpg	99
650.941	1.893	1893.1	regulate	Run1	regulate/STIM_029.jpg	99
656.071	1.611	1610.9	regulate	Run1	regulate/STIM_029.jpg	99
661.137	1.784	1783.5	regulate	Run1	regulate/STIM_029.jpg	99
666.758	3.277	3276.7	regulate	Run1	regulate/STIM_029.jpg	99
672.494	1.034	1034.2	observe	Run1	observe/STIM_000.jpg	99
676.317	0.901	901.4	observe	Run1	observe/STIM_000.jpg	100
680.867	1.244	1244.5	observe	Run1	observe/STIM_000.jpg	100
684.522	1.066	1065.8	observe	Run1	observe/STIM_000.jpg	100
688.618	1.336	1335.8	observe	Run1	observe/STIM_001.jpg	99
692.946	1.109	1108.9	observe	Run1	observe/STIM_001.jpg	100
696.9	1.494	1493.8	observe	Run1	observe/STIM_001.jpg	100
700.6	1.293	1293.1	observe	Run1	observe/STIM_001.jpg	100
705.579	1.302	1302.3	observe	Run1	observe/STIM_002.jpg	99
710.091	1.138	1138.0	observe	Run1	observe/STIM_002.jpg	100
714.434	1.481	1480.6	observe	Run1	observe/STIM_002.jpg	99
719.279	1.668	1667.9	observe	Run1	observe/STIM_002.jpg	100
724.298	0.913	912.8	observe	Run1	observe/STIM_003.jpg	99
729.013	1.04	1039.6	observe	Run1	observe/STIM_003.jpg	100
732.964	1.693	1693.4	observe	Run1	observe/STIM_003.jpg	100
737.915	1.651	1651.2	observe	Run1	observe/STIM_003.jpg	100
742.426	1.571	1570.7	observe	Run1	observe/STIM_004.jpg	99
746.095	1.382	1381.5	observe	Run1	observe/STIM_004.jpg	100
750.153	1.492	1492.2	observe	Run1	observe/STIM_004.jpg	99
753.897	1.737	1736.7	observe	Run1	observe/STIM_004.jpg	99
758.548	0.968	967.6	observe	Run1	observe/STIM_005.jpg	100
763.038	0.995	995.0	observe	Run1	observe/STIM_005.jpg	99
766.276	1.057	1057.2	observe	Run1	observe/STIM_005.jpg	100
770.034	0.923	923.2	observe	Run1	observe/STIM_005.jpg	100
773.316	1.437	1437.4	observe	Run1	observe/STIM_006.jpg	100
778.145	1.344	1344.1	observe	Run1	observe/STIM_006.jpg	99
782.672	0.976	975.6	observe	Run1	observe/STIM_006.jpg	100
787.277	1.17	1170.0	observe	Run1	observe/STIM_006.jpg	100
790.637	1.321	1320.8	observe	Run1	observe/STIM_007.jpg	99
795.292	1.58	1580.5	observe	Run1	observe/STIM_007.jpg	100
800.696	1.065	1064.8	observe	Run1	observe/STIM_007.jpg	100
803.808	1.351	1351.3	observe	Run1	observe/STIM_007.jpg	100
807.255	0.902	902.1	observe	Run1	observe/STIM_008.jpg	100
810.811	1.564	1564.3	observe	Run1	observe/STIM_008.jpg	99
816.216	1.779	1779.2	observe	Run1	observe/STIM_008.jpg	100
821.745	0.998	998.0	observe	Run1	observe/STIM_008.jpg	100
825.796	1.613	1612.7	observe	Run1	observe/STIM_009.jpg	100
829.526	1.754	1754.5	observe	Run1	observe/STIM_009.jpg	100
834.393	1.33	1330.5	observe	Run1	observe/STIM_009.jpg	100
838.728	1.087	1087.4	observe	Run1	observe/STIM_009.jpg	100
842.939	1.487	1486.9	observe	Run1	observe/STIM_010.jpg	99
848.053	1.032	1031.9	observe	Run1	observe/STIM_010.jpg	100
852.545	1.156	1155.9	observe	Run1	observe/STIM_010.jpg	99
856.975	1.481	1480.6	observe	Run1	observe/STIM_010.jpg	100
862.131	1.593	1593.2	observe	Run1	observe/STIM_011.jpg	99
866.117	1.064	1063.8	observe	Run1	observe/STIM_011.jpg	100
870.343	1.048	1047.6	observe	Run1	observe/STIM_011.jpg	100
873.685	1.555	1555.4	observe	Run1	observe/STIM_011.jpg	100
879.017	0.997	997.1	observe	Run1	observe/STIM_012.jpg	99
882.658	1.384	1383.6	observe	Run1	observe/STIM_012.jpg	100
887.863	1.733	1732.8	observe	Run1	observe/STIM_012.jpg	100
892.639	1.689	1688.8	observe	Run1	observe/STIM_012.jpg	99
897.19	1.002	1001.6	observe	Run1	observe/STIM_013.jpg	100
900.423	1.431	1430.9	observe	Run1	observe/STIM_013.jpg	100
904.215	1.528	1527.6	observe	Run1	observe/STIM_013.jpg	99
908.903	1.445	1445.4	observe	Run1	observe/STIM_013.jpg	99
913.518	1.111	1110.9	observe	Run1	observe/STIM_014.jpg	99
918.094	1.27	1269.9	observe	Run1	observe/STIM_014.jpg	99
921.627	1.183	1182.8	observe	Run1	observe/STIM_014.jpg	100
924.898	1.063	1063.3	observe	Run1	observe/STIM_014.jpg	100
928.022	1.078	1078.5	observe	Run1	observe/STIM_015.jpg	100
932.543	1.711	1711.1	observe	Run1	observe/STIM_015.jpg	100
937.109	1.584	1583.6	observe	Run1	observe/STIM_015.jpg	99
941.358	1.498	1498.4	observe	Run1	observe/STIM_015.jpg	100
945.317	1.48	1480.5	observe	Run1	observe/STIM_016.jpg	99
950.795	1.434	1433.5	observe	Run1	observe/STIM_016.jpg	100
954.697	1.224	1224.5	observe	Run1	observe/STIM_016.jpg	100
959.919	1.11	1109.9	observe	Run1	observe/STIM_016.jpg	99
964.411	1.706	1706.2	observe	Run1	observe/STIM_017.jpg	99
968.261	1.391	1391.4	observe	Run1	observe/STIM_017.jpg	100
971.657	1.418	1417.5	observe	Run1	observe/STIM_017.jpg	99
976.722	1.488	1488.0	observe	Run1	observe/STIM_017.jpg	99
980.329	1.776	1776.3	observe	Run1	observe/STIM_018.jpg	100
984.299	1.286	1286.2	observe	Run1	observe/STIM_018.jpg	99
987.933	1.358	1357.7	observe	Run1	observe/STIM_018.jpg	99
991.367	1.387	1386.6	observe	Run1	observe/STIM_018.jpg	99
995.294	1.663	1662.7	observe	Run1	observe/STIM_019.jpg	99
999.092	0.928	927.7	observe	Run1	observe/STIM_019.jpg	100
1002.828	0.971	971.2	observe	Run1	observe/STIM_019.jpg	100
1007.594	1.492	1492.2	observe	Run1	observe/STIM_019.jpg	100
1011.327	1.774	1773.8	regulate	Run2	regulate/STIM_000.jpg	99
1016.606	1.363	1363.1	regulate	Run2	regulate/STIM_000.jpg	100
1020.522	2.598	2597.5	regulate	Run2	regulate/STIM_000.jpg	100
1025.577	2.642	2642.4	regulate	Run2	regulate/STIM_000.jpg	99
1031.369	2.396	2396.1	regulate	Run2	regulate/STIM_001.jpg	99
1036.096	1.45	1450.2	regulate	Run2	regulate/STIM_001.jpg	100
1040.719	2.476	2476.5	regulate	Run2	regulate/STIM_001.jpg	99
1045.667	1.568	1568.4	regulate	Run2	regulate/STIM_001.jpg	99
1050.525	2.57	2570.0	regulate	Run2	regulate/STIM_002.jpg	99
1057.058	2.013	2013.3	regulate	Run2	regulate/STIM_002.jpg	100
1062.837	2.925	2924.7	regulate	Run2	regulate/STIM_002.jpg	100
1068.716	1.719	1719.4	regulate	Run2	regulate/STIM_002.jpg	100
1073.372	3.322	3321.8	regulate	Run2	regulate/STIM_003.jpg	99
1079.95	2.236	2235.8	regulate	Run2	regulate/STIM_003.jpg	99
1086.022	2.207	2207.4	regulate	Run2	regulate/STIM_003.jpg	100
1090.572	1.913	1912.9	regulate	Run2	regulate/STIM_003.jpg	100
1096.361	2.198	2198.2	regulate	Run2	regulate/STIM_004.jpg	99
1100.706	1.626	1625.9	regulate	Run2	regulate/STIM_004.jpg	99
1105.662	2.68	2680.5	regulate	Run2	regulate/STIM_004.jpg	99
1110.347	2.704	2704.1	regulate	Run2	regulate/STIM_004.jpg	100
1115.235	2.047	2047.2	regulate	Run2	regulate/STIM_005.jpg	99
1120.005	1.666	1666.2	regulate	Run2	regulate/STIM_005.jpg	100
1125.45	1.536	1536.4	regulate	Run2	regulate/STIM_005.jpg	100
1130.13	1.698	1698.3	regulate	Run2	regulate/STIM_005.jpg	100
1135.522	2.348	2348.2	regulate	Run2	regulate/STIM_006.jpg	99
1140.1	2.828	2827.5	regulate	Run2	regulate/STIM_006.jpg	99
1146.851	2.826	2826.2	regulate	Run2	regulate/STIM_006.jpg	100
1152.93	2.229	2228.7	regulate	Run2	regulate/STIM_006.jpg	99
1158.885	2.266	2265.7	regulate	Run2	regulate/STIM_007.jpg	100
1164.049	1.492	1492.2	regulate	Run2	regulate/STIM_007.jpg	99
1168.936	1.896	1895.5	regulate	Run2	regulate/STIM_007.jpg	100
1173.517	1.422	1421.9	regulate	Run2	regulate/STIM_007.jpg	100
1178.1	3.094	3094.4	regulate	Run2	regulate/STIM_008.jpg	100
1184.862	3.089	3089.4	regulate	Run2	regulate/STIM_008.jpg	100
1191.26	2.004	2004.0	regulate	Run2	regulate/STIM_008.jpg	99
1196.237	1.465	1465.0	regulate	Run2	regulate/STIM_008.jpg	100
1200.111	2.72	2719.5	regulate	Run2	regulate/STIM_009.jpg	100
1204.978	2.216	2216.1	regulate	Run2	regulate/STIM_009.jpg	99
1209.592	2.164	2164.1	regulate	Run2	regulate/STIM_009.jpg	99
1213.813	1.255	1255.4	regulate	Run2	regulate/STIM_009.jpg	100
1217.815	1.92	1920.3	regulate	Run2	regulate/STIM_010.jpg	99
1222.154	2.145	2145.1	regulate	Run2	regulate/STIM_010.jpg	100
1227.459	2.511	2510.7	regulate	Run2	regulate/STIM_010.jpg	100
1233.504	1.568	1568.3	regulate	Run2	regulate/STIM_010.jpg	100
1238.48	3.137	3137.0	regulate	Run2	regulate/STIM_011.jpg	99
1245.443	3.006	3005.8	regulate	Run2	regulate/STIM_011.jpg	100
1251.67	1.295	1294.9	regulate	Run2	regulate/STIM_011.jpg	100
1256.143	2.235	2235.2	regulate	Run2	regulate/STIM_011.jpg	99
1260.969	2.155	2154.9	regulate	Run2	regulate/STIM_012.jpg	100
1266.27	2.292	2291.5	regulate	Run2	regulate/STIM_012.jpg	100
1271.046	1.855	1854.7	regulate	Run2	regulate/STIM_012.jpg	99
1275.004	1.696	1696.4	regulate	Run2	regulate/STIM_012.jpg	99
1279.965	2.554	2553.6	regulate	Run2	regulate/STIM_013.jpg	99
1284.901	2.63	2630.5	regulate	Run2	regulate/STIM_013.jpg	99
1290.888	2.524	2523.5	regulate	Run2	regulate/STIM_013.jpg	100
1297.106	2.719	2719.2	regulate	Run2	regulate/STIM_013.jpg	99
1302.548	2.005	2005.4	regulate	Run2	regulate/STIM_014.jpg	99
1307.561	1.733	1732.9	regulate	Run2	regulate/STIM_014.jpg	100
1313.106	2.908	2908.4	regulate	Run2	regulate/STIM_014.jpg	99
1319.65	1.643	1643.0	regulate	Run2	regulate/STIM_014.jpg	99
1324.601	1.98	1979.9	regulate	Run2	regulate/STIM_015.jpg	99
1329.364	3.002	3001.7	regulate	Run2	regulate/STIM_015.jpg	99
1335.045	2.566	2565.9	regulate	Run2	regulate/STIM_015.jpg	99
1341.522	1.651	1650.8	regulate	Run2	regulate/STIM_015.jpg	99
1347.153	2.524	2524.0	regulate	Run2	regulate/STIM_016.jpg	99
1353.121	3.107	3107.2	regulate	Run2	regulate/STIM_016.jpg	100
1358.698	1.684	1684.1	regulate	Run2	regulate/STIM_016.jpg	99
1363.566	2.077	2077.0	regulate	Run2	regulate/STIM_016.jpg	99
1369.56	2.402	2402.2	regulate	Run2	regulate/STIM_017.jpg	100
1373.987	2.052	2052.5	regulate	Run2	regulate/STIM_017.jpg	99
1379.198	2.34	2340.5	regulate	Run2	regulate/STIM_017.jpg	99
1383.835	2.122	2122.1	regulate	Run2	regulate/STIM_017.jpg	100
1389.305	3.083	3083.2	regulate	Run2	regulate/STIM_018.jpg	100
1395.839	2.798	2797.8	regulate	Run2	regulate/STIM_018.jpg	100
1401.091	2.616	2615.6	regulate	Run2	regulate/STIM_018.jpg	100
1406.004	2.68	2680.1	regulate	Run2	regulate/STIM_018.jpg	99
1412.491	1.651	1650.9	regulate	Run2	regulate/STIM_019.jpg	100
1417.95	1.369	1369.2	regulate	Run2	regulate/STIM_019.jpg	100
1422.196	1.344	1344.5	regulate	Run2	regulate/STIM_019.jpg	100
1426.288	2.46	2459.6	regulate	Run2	regulate/STIM_019.jpg	99
1432.033	3.068	3067.7	regulate	Run2	regulate/STIM_020.jpg	99
1438.029	2.372	2372.5	regulate	Run2	regulate/STIM_020.jpg	99
1442.81	2.888	2888.3	regulate	Run2	regulate/STIM_020.jpg	99
1448.133	2.112	2111.6	regulate	Run2	regulate/STIM_020.jpg	100
1453.114	3.196	3195.9	regulate	Run2	regulate/STIM_021.jpg	100
1459.835	1.916	1916.3	regulate	Run2	regulate/STIM_021.jpg	99
1464.11	1.717	1716.6	regulate	Run2	regulate/STIM_021.jpg	99
1468.278	2.698	2698.1	regulate	Run2	regulate/STIM_021.jpg	100
1474.132	2.97	2970.5	regulate	Run2	regulate/STIM_022.jpg	100
1479.726	2.956	2955.7	regulate	Run2	regulate/STIM_022.jpg	99
1485.979	2.709	2709.2	regulate	Run2	regulate/STIM_022.jpg	99
1490.91	2.482	2482.1	regulate	Run2	regulate/STIM_022.jpg	99
1496.416	1.953	1952.9	regulate	Run2	regulate/STIM_023.jpg	100
1502.223	2.443	2443.3	regulate	Run2	regulate/STIM_023.jpg	99
1507.179	2.811	2811.2	regulate	Run2	regulate/STIM_023.jpg	100
1513.223	1.59	1589.5	regulate	Run2	regulate/STIM_023.jpg	100
1518.459	3.049	3048.6	regulate	Run2	regulate/STIM_024.jpg	100
1524.656	1.663	1663.3	regulate	Run2	regulate/STIM_024.jpg	99
1528.909	1.276	1276.0	regulate	Run2	regulate/STIM_024.jpg	99
1533.366	2.195	2195.2	regulate	Run2	regulate/STIM_024.jpg	99
1539.201	2.689	2689.0	regulate	Run2	regulate/STIM_025.jpg	100
1545.128	2.287	2287.2	regulate	Run2	regulate/STIM_025.jpg	99
1550.249	2.859	2859.3	regulate	Run2	regulate/STIM_025.jpg	99
1555.685	2.27	2269.8	regulate	Run2	regulate/STIM_025.jpg	100
1561.462	2.57	2570.1	regulate	Run2	regulate/STIM_026.jpg	99
1567.313	1.508	1508.0	regulate	Run2	regulate/STIM_026.jpg	100
1571.665	1.556	1556.0	regulate	Run2	regulate/STIM_026.jpg	100
1577.19	1.203	1202.8	regulate	Run2	regulate/STIM_026.jpg	100
1581.899	2.9	2900.4	regulate	Run2	regulate/STIM_027.jpg	99
1586.889	1.447	1446.9	regulate	Run2	regulate/STIM_027.jpg	100
1591.063	2.396	2396.3	regulate	Run2	regulate/STIM_027.jpg	99
1597.401	1.7	1700.2	regulate	Run2	regulate/STIM_027.jpg	99
1602.004	1.828	1828.5	regulate	Run2	regulate/STIM_028.jpg	100
1605.986	1.466	1466.4	regulate	Run2	regulate/STIM_028.jpg	100
1609.668	2.338	2338.0	regulate	Run2	regulate/STIM_028.jpg	99
1615.347	2.749	2748.7	regulate	Run2	regulate/STIM_028.jpg	99
1620.189	1.653	1653.1	regulate	Run2	regulate/STIM_029.jpg	99
1624.398	2.183	2183.4	regulate	Run2	regulate/STIM_029.jpg	99
1628.877	2.722	2722.3	regulate	Run2	regulate/STIM_029.jpg	99
1634.284	2.071	2071.1	regulate	Run2	regulate/STIM_029.jpg	99
1639.485	1.108	1107.7	observe	Run2	observe/STIM_000.jpg	99
1643.144	1.392	1392.0	observe	Run2	observe/STIM_000.jpg	99
1647.205	1.529	1528.9	observe	Run2	observe/STIM_000.jpg	99
1651.038	1.585	1585.0	observe	Run2	observe/STIM_000.jpg	99
1655.348	1.303	1302.7	observe	Run2	observe/STIM_001.jpg	99
1659.294	1.733	1733.2	observe	Run2	observe/STIM_001.jpg	99
1664.907	1.11	1110.4	observe	Run2	observe/STIM_001.jpg	100
1668.397	1.264	1263.8	observe	Run2	observe/STIM_001.jpg	100
1672.61	1.58	1580.4	observe	Run2	observe/STIM_002.jpg	99
1677.623	1.373	1373.4	observe	Run2	observe/STIM_002.jpg	99
1682.869	1.093	1092.6	observe	Run2	observe/STIM_002.jpg	99
1686.276	0.927	926.6	observe	Run2	observe/STIM_002.jpg	99
1689.408	1.055	1055.3	observe	Run2	observe/STIM_003.jpg	99
1693.576	1.493	1492.8	observe	Run2	observe/STIM_003.jpg	100
1697.178	1.676	1676.3	observe	Run2	observe/STIM_003.jpg	100
1702.146	1.5	1499.6	observe	Run2	observe/STIM_003.jpg	99
1707.125	1.796	1795.5	observe	Run2	observe/STIM_004.jpg	99
1712.758	1.793	1792.9	observe	Run2	observe/STIM_004.jpg	100
1717.165	1.443	1442.6	observe	Run2	observe/STIM_004.jpg	99
1721.413	1.298	1298.0	observe	Run2	observe/STIM_004.jpg	99
1725.676	1.16	1160.1	observe	Run2	observe/STIM_005.jpg	100
1729.858	1.042	1042.2	observe	Run2	observe/STIM_005.jpg	100
1734.577	1.154	1154.1	observe	Run2	observe/STIM_005.jpg	100
1739.179	1.324	1324.2	observe	Run2	observe/STIM_005.jpg	100
1744.418	1.707	1706.7	observe	Run2	observe/STIM_006.jpg	99
1748.719	1.566	1565.8	observe	Run2	observe/STIM_006.jpg	100
1753.616	1.307	1306.9	observe	Run2	observe/STIM_006.jpg	100
1758.75	1.716	1716.0	observe	Run2	observe/STIM_006.jpg	99
1764.434	1.015	1015.4	observe	Run2	observe/STIM_007.jpg	100
1768.597	1.26	1260.4	observe	Run2	observe/STIM_007.jpg	99
1772.704	1.454	1453.6	observe	Run2	observe/STIM_007.jpg	99
1777.549	0.98	980.2	observe	Run2	observe/STIM_007.jpg	100
1782.384	1.37	1370.3	observe	Run2	observe/STIM_008.jpg	100
1787.544	1.318	1318.2	observe	Run2	observe/STIM_008.jpg	100
1791.781	0.996	996.0	observe	Run2	observe/STIM_008.jpg	99
1795.112	1.617	1616.6	observe	Run2	observe/STIM_008.jpg	100
1799.496	0.934	934.2	observe	Run2	observe/STIM_009.jpg	100
1802.469	1.262	1261.5	observe	Run2	observe/STIM_009.jpg	99
1805.861	1.175	1174.9	observe	Run2	observe/STIM_009.jpg	99
1809.299	0.918	918.3	observe	Run2	observe/STIM_009.jpg	100
1813.055	1.406	1405.5	observe	Run2	observe/STIM_010.jpg	100
1817.121	1.287	1286.6	observe	Run2	observe/STIM_010.jpg	100
1822.021	1.709	1708.7	observe	Run2	observe/STIM_010.jpg	99
1826.399	1.466	1465.7	observe	Run2	observe/STIM_010.jpg	99
1829.998	1.778	1777.9	observe	Run2	observe/STIM_011.jpg	99
1834.346	1.187	1186.9	observe	Run2	observe/STIM_011.jpg	100
1839.296	1.361	1360.8	observe	Run2	observe/STIM_011.jpg	99
1844.518	1.14	1139.9	observe	Run2	observe/STIM_011.jpg	99
1848.869	1.743	1743.4	observe	Run2	observe/STIM_012.jpg	100
1853.11	0.904	903.6	observe	Run2	observe/STIM_012.jpg	100
1857.124	1.124	1124.1	observe	Run2	observe/STIM_012.jpg	100
1861.764	1.73	1729.7	observe	Run2	observe/STIM_012.jpg	100
1866.778	0.961	960.9	observe	Run2	observe/STIM_013.jpg	99
1870.487	0.95	949.5	observe	Run2	observe/STIM_013.jpg	99
1874.836	1.364	1364.1	observe	Run2	observe/STIM_013.jpg	100
1879.66	1.492	1491.6	observe	Run2	observe/STIM_013.jpg	100
1883.973	1.623	1623.3	observe	Run2	observe/STIM_014.jpg	99
1889.031	1.51	1509.8	observe	Run2	observe/STIM_014.jpg	100
1893.75	1.485	1484.9	observe	Run2	observe/STIM_014.jpg	99
1898.224	1.656	1655.8	observe	Run2	observe/STIM_014.jpg	100
1903.241	1.099	1098.6	observe	Run2	observe/STIM_015.jpg	99
1907.389	1.772	1771.9	observe	Run2	observe/STIM_015.jpg	99
1912.626	1.515	1515.2	observe	Run2	observe/STIM_015.jpg	99
1917.22	1.551	1551.0	observe	Run2	observe/STIM_015.jpg	100
1921.131	1.246	1245.6	observe	Run2	observe/STIM_016.jpg	99
1925.752	1.208	1208.1	observe	Run2	observe/STIM_016.jpg	99
1929.722	1.649	1649.3	observe	Run2	observe/STIM_016.jpg	99
1935.339	1.286	1286.3	observe	Run2	observe/STIM_016.jpg	99
1940.561	1.279	1279.3	observe	Run2	observe/STIM_017.jpg	100
1944.39	1.317	1317.2	observe	Run2	observe/STIM_017.jpg	100
1949.021	1.759	1758.9	observe	Run2	observe/STIM_017.jpg	100
1953.045	1.589	1588.7	observe	Run2	observe/STIM_017.jpg	100
1958.172	1.404	1404.1	observe	Run2	observe/STIM_018.jpg	99
1963.222	1.392	1392.5	observe	Run2	observe/STIM_018.jpg	99
1968.49	1.052	1051.7	observe	Run2	observe/STIM_018.jpg	100
1972.725	0.971	970.6	observe	Run2	observe/STIM_018.jpg	99
1977.288	1.124	1123.9	observe	Run2	observe/STIM_019.jpg	100
1982.319	1.709	1708.6	observe	Run2	observe/STIM_019.jpg	99
1987.139	0.99	989.7	observe	Run2	observe/STIM_019.jpg	99
1991.452	1.057	1056.9	observe	Run2	observe/STIM_019.jpg	100
1996.045	2.011	2010.6	regulate	Run3	regulate/STIM_000.jpg	100
2000.46	2.402	2401.5	regulate	Run3	regulate/STIM_000.jpg	99
2004.906	1.946	1945.6	regulate	Run3	regulate/STIM_000.jpg	99
2010.17	2.043	2043.1	regulate	Run3	regulate/STIM_000.jpg	100
2016.116	2.102	2101.6	regulate	Run3	regulate/STIM_001.jpg	99
2020.763	1.322	1322.3	regulate	Run3	regulate/STIM_001.jpg	100
2024.546	2.011	2010.7	regulate	Run3	regulate/STIM_001.jpg	100
2029.244	1.59	1590.2	regulate	Run3	regulate/STIM_001.jpg	100
2034.041	1.33	1329.7	regulate	Run3	regulate/STIM_002.jpg	100
2037.665	1.662	1662.2	regulate	Run3	regulate/STIM_002.jpg	99
2043.293	1.739	1738.6	regulate	Run3	regulate/STIM_002.jpg	99
2047.46	1.632	1632.3	regulate	Run3	regulate/STIM_002.jpg	100
2051.992	2.729	2728.6	regulate	Run3	regulate/STIM_003.jpg	99
2056.926	1.787	1787.3	regulate	Run3	regulate/STIM_003.jpg	99
2062.517	2.43	2429.9	regulate	Run3	regulate/STIM_003.jpg	100
2067.362	2.369	2368.8	regulate	Run3	regulate/STIM_003.jpg	100
2072.348	2.306	2306.3	regulate	Run3	regulate/STIM_004.jpg	100
2077.772	1.307	1306.8	regulate	Run3	regulate/STIM_004.jpg	99
2081.473	1.656	1656.1	regulate	Run3	regulate/STIM_004.jpg	100
2085.554	1.787	1787.4	regulate	Run3	regulate/STIM_004.jpg	100
2090.576	1.501	1500.7	regulate	Run3	regulate/STIM_005.jpg	100
2095.617	2.315	2315.4	regulate	Run3	regulate/STIM_005.jpg	100
2101.001	1.747	1746.6	regulate	Run3	regulate/STIM_005.jpg	100
2105.859	1.99	1990.3	regulate	Run3	regulate/STIM_005.jpg	100
2111.301	2.151	2150.8	regulate	Run3	regulate/STIM_006.jpg	100
2116.902	1.43	1429.8	regulate	Run3	regulate/STIM_006.jpg	99
2120.674	2.254	2253.8	regulate	Run3	regulate/STIM_006.jpg	100
2125.741	1.194	1194.0	regulate	Run3	regulate/STIM_006.jpg	100
2130.298	2.53	2530.2	regulate	Run3	regulate/STIM_007.jpg	100
2135.315	2.751	2750.7	regulate	Run3	regulate/STIM_007.jpg	99
2141.261	2.568	2568.4	regulate	Run3	regulate/STIM_007.jpg	99
2146.95	1.23	1230.1	regulate	Run3	regulate/STIM_007.jpg	100
2151.948	1.291	1290.8	regulate	Run3	regulate/STIM_008.jpg	99
2155.329	2.076	2075.5	regulate	Run3	regulate/STIM_008.jpg	99
2159.759	2.558	2557.8	regulate	Run3	regulate/STIM_008.jpg	99
2165.551	1.344	1344.4	regulate	Run3	regulate/STIM_008.jpg	100
2168.966	2.485	2485.2	regulate	Run3	regulate/STIM_009.jpg	100
2174.799	2.529	2528.7	regulate	Run3	regulate/STIM_009.jpg	100
2180.695	2.255	2255.4	regulate	Run3	regulate/STIM_009.jpg	99
2185.506	2.364	2363.7	regulate	Run3	regulate/STIM_009.jpg	100
2191.031	2.194	2194.5	regulate	Run3	regulate/STIM_010.jpg	99
2195.862	2.641	2641.0	regulate	Run3	regulate/STIM_010.jpg	99
2202.077	1.62	1620.2	regulate	Run3	regulate/STIM_010.jpg	100
2206.276	2.599	2598.8	regulate	Run3	regulate/STIM_010.jpg	100
2212.504	1.878	1878.4	regulate	Run3	regulate/STIM_011.jpg	99
2217.436	2.413	2412.6	regulate	Run3	regulate/STIM_011.jpg	100
2223.319	2.729	2729.1	regulate	Run3	regulate/STIM_011.jpg	99
2229.742	1.328	1328.0	regulate	Run3	regulate/STIM_011.jpg	99
2233.957	2.581	2581.1	regulate	Run3	regulate/STIM_012.jpg	99
2238.714	2.737	2736.7	regulate	Run3	regulate/STIM_012.jpg	100
2245.332	1.845	1845.3	regulate	Run3	regulate/STIM_012.jpg	100
2249.236	1.431	1430.7	regulate	Run3	regulate/STIM_012.jpg	100
2253.067	2.435	2435.1	regulate	Run3	regulate/STIM_013.jpg	99
2258.006	1.25	1250.1	regulate	Run3	regulate/STIM_013.jpg	99
2262.656	1.324	1324.4	regulate	Run3	regulate/STIM_013.jpg	100
2267.789	1.278	1277.8	regulate	Run3	regulate/STIM_013.jpg	99
2273.038	1.554	1553.7	regulate	Run3	regulate/STIM_014.jpg	99
2277.841	1.435	1434.9	regulate	Run3	regulate/STIM_014.jpg	100
2282.354	2.516	2516.0	regulate	Run3	regulate/STIM_014.jpg	99
2288.34	1.85	1850.5	regulate	Run3	regulate/STIM_014.jpg	99
2292.747	2.336	2336.0	regulate	Run3	regulate/STIM_015.jpg	100
2298.811	2.631	2631.1	regulate	Run3	regulate/STIM_015.jpg	100
2305.05	2.233	2233.1	regulate	Run3	regulate/STIM_015.jpg	99
2309.728	2.604	2604.3	regulate	Run3	regulate/STIM_015.jpg	99
2315.007	2.032	2032.4	regulate	Run3	regulate/STIM_016.jpg	99
2319.166	2.678	2677.5	regulate	Run3	regulate/STIM_016.jpg	99
2324.645	2.151	2151.3	regulate	Run3	regulate/STIM_016.jpg	99
2330.564	1.373	1373.4	regulate	Run3	regulate/STIM_016.jpg	99
2334.628	1.767	1766.8	regulate	Run3	regulate/STIM_017.jpg	99
2340.385	2.139	2138.8	regulate	Run3	regulate/STIM_017.jpg	100
2345.15	1.412	1411.6	regulate	Run3	regulate/STIM_017.jpg	99
2349.421	1.943	1943.4	regulate	Run3	regulate/STIM_017.jpg	100
2353.83	1.616	1615.8	regulate	Run3	regulate/STIM_018.jpg	100
2358.074	1.228	1227.9	regulate	Run3	regulate/STIM_018.jpg	99
2361.63	1.579	1579.0	regulate	Run3	regulate/STIM_018.jpg	99
2366.739	2.394	2393.9	regulate	Run3	regulate/STIM_018.jpg	100
2372.321	1.715	1715.3	regulate	Run3	regulate/STIM_019.jpg	99
2376.459	1.299	1299.0	regulate	Run3	regulate/STIM_019.jpg	99
2379.927	1.98	1979.9	regulate	Run3	regulate/STIM_019.jpg	99
2385.522	2.49	2489.9	regulate	Run3	regulate/STIM_019.jpg	99
2390.247	2.38	2380.0	regulate	Run3	regulate/STIM_020.jpg	100
2395.035	2.073	2072.6	regulate	Run3	regulate/STIM_020.jpg	99
2399.787	1.207	1206.7	regulate	Run3	regulate/STIM_020.jpg	99
2404.188	1.627	1627.1	regulate	Run3	regulate/STIM_020.jpg	99
2409.41	1.777	1776.6	regulate	Run3	regulate/STIM_021.jpg	99
2414.44	1.901	1901.4	regulate	Run3	regulate/STIM_021.jpg	100
2419.191	1.219	1218.8	regulate	Run3	regulate/STIM_021.jpg	99
2423.913	1.865	1864.9	regulate	Run3	regulate/STIM_021.jpg	100
2429.154	1.529	1529.3	regulate	Run3	regulate/STIM_022.jpg	99
2433.7	1.983	1983.4	regulate	Run3	regulate/STIM_022.jpg	99
2439.064	2.537	2537.3	regulate	Run3	regulate/STIM_022.jpg	100
2443.645	2.587	2586.8	regulate	Run3	regulate/STIM_022.jpg	99
2448.769	1.605	1605.3	regulate	Run3	regulate/STIM_023.jpg	99
2454.211	1.565	1565.3	regulate	Run3	regulate/STIM_023.jpg	99
2458.573	2.512	2511.5	regulate	Run3	regulate/STIM_023.jpg	100
2463.459	2.08	2079.8	regulate	Run3	regulate/STIM_023.jpg	99
2469.044	2.006	2005.9	regulate	Run3	regulate/STIM_024.jpg	100
2473.599	2.327	2326.8	regulate	Run3	regulate/STIM_024.jpg	100
2478.445	2.401	2401.3	regulate	Run3	regulate/STIM_024.jpg	100
2484.59	1.566	1566.3	regulate	Run3	regulate/STIM_024.jpg	99
2489.923	2.387	2387.3	regulate	Run3	regulate/STIM_025.jpg	99
2495.955	2.233	2232.7	regulate	Run3	regulate/STIM_025.jpg	100
2501.876	1.348	1348.1	regulate	Run3	regulate/STIM_025.jpg	99
2505.78	1.642	1641.5	regulate	Run3	regulate/STIM_025.jpg	99
2509.536	2.476	2475.9	regulate	Run3	regulate/STIM_026.jpg	99
2514.492	2.007	2007.1	regulate	Run3	regulate/STIM_026.jpg	99
2519.724	1.451	1450.7	regulate	Run3	regulate/STIM_026.jpg	99
2523.777	1.339	1338.6	regulate	Run3	regulate/STIM_026.jpg	99
2528.332	1.437	1436.9	regulate	Run3	regulate/STIM_027.jpg	100
2532.165	2.255	2255.3	regulate	Run3	regulate/STIM_027.jpg	100
2537.714	2.571	2570.6	regulate	Run3	regulate/STIM_027.jpg	99
2543.025	2.749	2748.8	regulate	Run3	regulate/STIM_027.jpg	99
2548.321	1.725	1725.0	regulate	Run3	regulate/STIM_028.jpg	100
2553.058	1.776	1775.8	regulate	Run3	regulate/STIM_028.jpg	99
2558.163	2.509	2509.3	regulate	Run3	regulate/STIM_028.jpg	100
2563.648	1.957	1956.6	regulate	Run3	regulate/STIM_028.jpg	99
2567.897	2.168	2167.5	regulate	Run3	regulate/STIM_029.jpg	100
2573.433	2.43	2430.4	regulate	Run3	regulate/STIM_029.jpg	99
2579.087	1.487	1487.0	regulate	Run3	regulate/STIM_029.jpg	99
2582.904	1.408	1408.0	regulate	Run3	regulate/STIM_029.jpg	99
2587.727	1.384	1383.9	observe	Run3	observe/STIM_000.jpg	100
2592.661	1.665	1665.2	observe	Run3	observe/STIM_000.jpg	99
2596.933	1.167	1167.4	observe	Run3	observe/STIM_000.jpg	100
2600.836	0.906	905.8	observe	Run3	observe/STIM_000.jpg	100
2604.04	1.621	1620.8	observe	Run3	observe/STIM_001.jpg	99
2608.206	1.535	1534.8	observe	Run3	observe/STIM_001.jpg	99
2611.796	1.662	1662.0	observe	Run3	observe/STIM_001.jpg	99
2615.536	1.032	1031.5	observe	Run3	observe/STIM_001.jpg	100
2619.261	1.181	1181.2	observe	Run3	observe/STIM_002.jpg	100
2623.548	1.638	1638.5	observe	Run3	observe/STIM_002.jpg	99
2628.835	1.596	1595.9	observe	Run3	observe/STIM_002.jpg	99
2632.533	1.395	1395.0	observe	Run3	observe/STIM_002.jpg	100
2637.094	0.959	958.7	observe	Run3	observe/STIM_003.jpg	99
2641.87	1.058	1057.5	observe	Run3	observe/STIM_003.jpg	99
2646.54	1.334	1333.7	observe	Run3	observe/STIM_003.jpg	100
2650.817	1.103	1102.7	observe	Run3	observe/STIM_003.jpg	99
2654.3	1.382	1381.5	observe	Run3	observe/STIM_004.jpg	99
2659.655	1.401	1400.7	observe	Run3	observe/STIM_004.jpg	100
2664.119	1.192	1191.6	observe	Run3	observe/STIM_004.jpg	100
2667.473	1.269	1268.8	observe	Run3	observe/STIM_004.jpg	100
2670.837	1.587	1587.0	observe	Run3	observe/STIM_005.jpg	99
2675.836	1.77	1770.1	observe	Run3	observe/STIM_005.jpg	100
2680.144	1.658	1657.7	observe	Run3	observe/STIM_005.jpg	99
2685.689	1.431	1430.6	observe	Run3	observe/STIM_005.jpg	100
2690.723	1.748	1747.5	observe	Run3	observe/STIM_006.jpg	100
2695.692	1.735	1734.8	observe	Run3	observe/STIM_006.jpg	100
2700.267	1.712	1712.1	observe	Run3	observe/STIM_006.jpg	99
2704.137	1.277	1276.6	observe	Run3	observe/STIM_006.jpg	100
2708.707	0.96	960.3	observe	Run3	observe/STIM_007.jpg	100
2712.338	1.427	1427.2	observe	Run3	observe/STIM_007.jpg	99
2717.402	1.553	1552.7	observe	Run3	observe/STIM_007.jpg	100
2722.901	1.793	1793.1	observe	Run3	observe/STIM_007.jpg	99
2727.799	1.043	1042.6	observe	Run3	observe/STIM_008.jpg	100
2731.359	1.644	1644.2	observe	Run3	observe/STIM_008.jpg	100
2736.009	1.62	1620.2	observe	Run3	observe/STIM_008.jpg	100
2739.635	1.271	1270.7	observe	Run3	observe/STIM_008.jpg	99
2743.489	1.352	1352.1	observe	Run3	observe/STIM_009.jpg	99
2748.751	1.145	1145.3	observe	Run3	observe/STIM_009.jpg	99
2753.165	1.538	1538.3	observe	Run3	observe/STIM_009.jpg	100
2756.829	1.05	1049.6	observe	Run3	observe/STIM_009.jpg	99
2760.039	1.402	1402.4	observe	Run3	observe/STIM_010.jpg	100
2764.669	1.704	1704.0	observe	Run3	observe/STIM_010.jpg	99
2770.091	1.081	1081.0	observe	Run3	observe/STIM_010.jpg	99
2773.691	0.992	992.4	observe	Run3	observe/STIM_010.jpg	99
2777.657	1.788	1787.9	observe	Run3	observe/STIM_011.jpg	100
2782.35	0.908	907.7	observe	Run3	observe/STIM_011.jpg	100
2786.517	1.616	1616.5	observe	Run3	observe/STIM_011.jpg	99
2791.41	1.515	1514.6	observe	Run3	observe/STIM_011.jpg	99
2796.517	1.164	1163.7	observe	Run3	observe/STIM_012.jpg	99
2800.568	1.359	1359.4	observe	Run3	observe/STIM_012.jpg	99
2804.034	1.657	1656.7	observe	Run3	observe/STIM_012.jpg	100
2809.067	1.223	1222.6	observe	Run3	observe/STIM_012.jpg	100
2813.052	1.278	1278.5	observe	Run3	observe/STIM_013.jpg	100
2817.098	1.268	1268.5	observe	Run3	observe/STIM_013.jpg	99
2820.903	1.412	1412.3	observe	Run3	observe/STIM_013.jpg	100
2825.272	1.741	1741.3	observe	Run3	observe/STIM_013.jpg	99
2830.56	1.66	1659.8	observe	Run3	observe/STIM_014.jpg	99
2835.742	1.437	1437.1	observe	Run3	observe/STIM_014.jpg	100
2839.713	1.389	1388.9	observe	Run3	observe/STIM_014.jpg	99
2844.418	0.912	912.3	observe	Run3	observe/STIM_014.jpg	99
2848.23	0.91	910.5	observe	Run3	observe/STIM_015.jpg	100
2852.691	1.146	1145.5	observe	Run3	observe/STIM_015.jpg	100
2856.656	1.162	1162.3	observe	Run3	observe/STIM_015.jpg	99
2861.248	1.084	1084.4	observe	Run3	observe/STIM_015.jpg	100
2864.958	1.347	1347.3	observe	Run3	observe/STIM_016.jpg	100
2868.446	1.47	1470.1	observe	Run3	observe/STIM_016.jpg	100
2872.605	1.779	1778.7	observe	Run3	observe/STIM_016.jpg	100
2876.958	1.126	1126.4	observe	Run3	observe/STIM_016.jpg	99
2880.135	1.282	1282.5	observe	Run3	observe/STIM_017.jpg	99
2885.312	1.298	1297.8	observe	Run3	observe/STIM_017.jpg	100
2889.852	1.532	1532.2	observe	Run3	observe/STIM_017.jpg	100
2893.411	0.952	951.6	observe	Run3	observe/STIM_017.jpg	99
2898.307	1.18	1179.6	observe	Run3	observe/STIM_018.jpg	100
2902.652	1.255	1255.0	observe	Run3	observe/STIM_018.jpg	100
2907.626	1.681	1681.1	observe	Run3	observe/STIM_018.jpg	100
2913.024	1.096	1095.6	observe	Run3	observe/STIM_018.jpg	99
2917.246	0.923	923.3	observe	Run3	observe/STIM_019.jpg	100
2921.149	1.196	1195.6	observe	Run3	observe/STIM_019.jpg	99
2925.18	1.107	1107.0	observe	Run3	observe/STIM_019.jpg	99
2929.667	1.303	1302.6	observe	Run3	observe/STIM_019.jpg	100
