onset	duration	accuracy	trial_type	learning_stage	stimulus
0.0	2.562	incorrect	navigation	Trial1	navigation/STIM_000.jpg
5.214	4.71	incorrect	navigation	Trial1	navigation/STIM_000.jpg
13.766	4.158	correct	navigation	Trial1	navigation/STIM_000.jpg
20.129	2.424	correct	navigation	Trial1	navigation/STIM_000.jpg
25.464	3.838	correct	navigation	Trial1	navigation/STIM_000.jpg
32.258	3.206	incorrect	navigation	Trial1	navigation/STIM_000.jpg
38.498	4.835	correct	navigation	Trial1	navigation/STIM_001.jpg
45.548	4.311	incorrect	navigation	Trial1	navigation/STIM_001.jpg
53.536	4.062	correct	navigation	Trial1	navigation/STIM_001.jpg
60.422	2.723	correct	navigation	Trial1	navigation/STIM_001.jpg
65.907	3.984	correct	navigation	Trial1	navigation/STIM_001.jpg
72.033	3.048	correct	navigation	Trial1	navigation/STIM_001.jpg
78.45	3.055	correct	navigation	Trial1	navigation/STIM_002.jpg
84.937	3.353	correct	navigation	Trial1	navigation/STIM_002.jpg
92.236	3.959	incorrect	navigation	Trial1	navigation/STIM_002.jpg
98.37	2.867	correct	navigation	Trial1	navigation/STIM_002.jpg
104.968	2.333	correct	navigation	Trial1	navigation/STIM_002.jpg
110.337	1.904	correct	navigation	Trial1	navigation/STIM_002.jpg
115.477	4.112	correct	navigation	Trial1	navigation/STIM_003.jpg
122.764	4.376	correct	navigation	Trial1	navigation/STIM_003.jpg
130.491	3.731	incorrect	navigation	Trial1	navigation/STIM_003.jpg
136.504	3.956	incorrect	navigation	Trial1	navigation/STIM_003.jpg
144.258	2.552	incorrect	navigation	Trial1	navigation/STIM_003.jpg
149.647	2.678	incorrect	navigation	Trial1	navigation/STIM_003.jpg
155.564	2.763	incorrect	navigation	Trial1	navigation/STIM_004.jpg
162.223	3.309	correct	navigation	Trial1	navigation/STIM_004.jpg
169.328	4.358	incorrect	navigation	Trial1	navigation/STIM_004.jpg
176.303	4.132	correct	navigation	Trial1	navigation/STIM_004.jpg
183.333	1.788	correct	navigation	Trial1	navigation/STIM_004.jpg
187.51	3.194	correct	navigation	Trial1	navigation/STIM_004.jpg
193.541	2.124	incorrect	navigation	Trial1	navigation/STIM_005.jpg
198.239	2.793	correct	navigation	Trial1	navigation/STIM_005.jpg
203.706	2.913	correct	navigation	Trial1	navigation/STIM_005.jpg
209.234	4.472	correct	navigation	Trial1	navigation/STIM_005.jpg
217.633	2.571	correct	navigation	Trial1	navigation/STIM_005.jpg
223.013	2.506	correct	navigation	Trial1	navigation/STIM_005.jpg
228.026	3.515	incorrect	navigation	Trial1	navigation/STIM_006.jpg
234.556	2.839	correct	navigation	Trial1	navigation/STIM_006.jpg
240.715	3.056	correct	navigation	Trial1	navigation/STIM_006.jpg
246.531	4.256	incorrect	navigation	Trial1	navigation/STIM_006.jpg
254.575	3.147	correct	navigation	Trial1	navigation/STIM_006.jpg
260.227	3.313	incorrect	navigation	Trial1	navigation/STIM_006.jpg
266.002	2.929	correct	navigation	Trial1	navigation/STIM_007.jpg
271.958	4.207	incorrect	navigation	Trial1	navigation/STIM_007.jpg
279.309	2.978	correct	navigation	Trial1	navigation/STIM_007.jpg
286.09	3.016	incorrect	navigation	Trial1	navigation/STIM_007.jpg
291.155	1.771	correct	navigation	Trial1	navigation/STIM_007.jpg
295.734	1.765	correct	navigation	Trial1	navigation/STIM_007.jpg
300.068	4.512	correct	navigation	Trial1	navigation/STIM_008.jpg
307.781	3.625	incorrect	navigation	Trial1	navigation/STIM_008.jpg
314.004	4.711	correct	navigation	Trial1	navigation/STIM_008.jpg
321.65	3.37	incorrect	navigation	Trial1	navigation/STIM_008.jpg
327.803	3.963	incorrect	navigation	Trial1	navigation/STIM_008.jpg
335.236	3.223	correct	navigation	Trial1	navigation/STIM_008.jpg
341.581	3.808	correct	navigation	Trial1	navigation/STIM_009.jpg
347.526	4.64	correct	navigation	Trial1	navigation/STIM_009.jpg
354.311	4.378	correct	navigation	Trial1	navigation/STIM_009.jpg
362.049	4.337	correct	navigation	Trial1	navigation/STIM_009.jpg
369.944	3.457	correct	navigation	Trial1	navigation/STIM_009.jpg
377.334	2.43	correct	navigation	Trial1	navigation/STIM_009.jpg
383.685	3.665	incorrect	navigation	Trial1	navigation/STIM_010.jpg
389.871	3.198	correct	navigation	Trial1	navigation/STIM_010.jpg
395.515	2.087	correct	navigation	Trial1	navigation/STIM_010.jpg
400.513	4.486	incorrect	navigation	Trial1	navigation/STIM_010.jpg
407.534	3.761	correct	navigation	Trial1	navigation/STIM_010.jpg
413.614	3.831	correct	navigation	Trial1	navigation/STIM_010.jpg
420.944	2.828	correct	navigation	Trial1	navigation/STIM_011.jpg
426.939	4.46	correct	navigation	Trial1	navigation/STIM_011.jpg
434.605	3.612	correct	navigation	Trial1	navigation/STIM_011.jpg
441.875	2.36	correct	navigation	Trial1	navigation/STIM_011.jpg
447.219	4.045	correct	navigation	Trial1	navigation/STIM_011.jpg
454.897	2.723	correct	navigation	Trial1	navigation/STIM_011.jpg
459.858	0.971	correct	pointing	Trial1	pointing/STIM_000.jpg
464.241	1.417	correct	pointing	Trial1	pointing/STIM_000.jpg
469.407	1.452	incorrect	pointing	Trial1	pointing/STIM_000.jpg
473.676	1.112	incorrect	pointing	Trial1	pointing/STIM_000.jpg
477.284	1.115	correct	pointing	Trial1	pointing/STIM_000.jpg
481.156	1.184	correct	pointing	Trial1	pointing/STIM_000.jpg
484.59	1.243	correct	pointing	Trial1	pointing/STIM_001.jpg
488.243	1.279	correct	pointing	Trial1	pointing/STIM_001.jpg
493.409	1.454	correct	pointing	Trial1	pointing/STIM_001.jpg
497.929	1.246	correct	pointing	Trial1	pointing/STIM_001.jpg
502.093	1.188	correct	pointing	Trial1	pointing/STIM_001.jpg
505.363	1.371	correct	pointing	Trial1	pointing/STIM_001.jpg
510.068	1.221	correct	pointing	Trial1	pointing/STIM_002.jpg
514.191	1.137	incorrect	pointing	Trial1	pointing/STIM_002.jpg
517.593	1.147	correct	pointing	Trial1	pointing/STIM_002.jpg
521.434	1.408	correct	pointing	Trial1	pointing/STIM_002.jpg
526.021	1.008	correct	pointing	Trial1	pointing/STIM_002.jpg
529.541	1.351	correct	pointing	Trial1	pointing/STIM_002.jpg
534.296	1.325	correct	pointing	Trial1	pointing/STIM_003.jpg
538.84	1.158	correct	pointing	Trial1	pointing/STIM_003.jpg
542.063	1.305	correct	pointing	Trial1	pointing/STIM_003.jpg
547.231	1.084	incorrect	pointing	Trial1	pointing/STIM_003.jpg
551.943	0.912	correct	pointing	Trial1	pointing/STIM_003.jpg
556.406	1.227	correct	pointing	Trial1	pointing/STIM_003.jpg
559.744	0.892	correct	pointing	Trial1	pointing/STIM_004.jpg
563.794	1.311	correct	pointing	Trial1	pointing/STIM_004.jpg
568.847	1.565	correct	pointing	Trial1	pointing/STIM_004.jpg
573.409	0.966	correct	pointing	Trial1	pointing/STIM_004.jpg
577.223	1.428	correct	pointing	Trial1	pointing/STIM_004.jpg
581.056	0.944	correct	pointing	Trial1	pointing/STIM_004.jpg
585.396	0.863	correct	pointing	Trial1	pointing/STIM_005.jpg
589.449	1.554	incorrect	pointing	Trial1	pointing/STIM_005.jpg
593.307	1.552	correct	pointing	Trial1	pointing/STIM_005.jpg
597.869	1.244	incorrect	pointing	Trial1	pointing/STIM_005.jpg
601.638	1.498	correct	pointing	Trial1	pointing/STIM_005.jpg
606.045	1.532	correct	pointing	Trial1	pointing/STIM_005.jpg
611.494	1.358	correct	pointing	Trial1	pointing/STIM_006.jpg
616.736	1.189	correct	pointing	Trial1	pointing/STIM_006.jpg
620.046	1.516	correct	pointing	Trial1	pointing/STIM_006.jpg
625.008	1.315	correct	pointing	Trial1	pointing/STIM_006.jpg
629.031	1.108	correct	pointing	Trial1	pointing/STIM_006.jpg
632.282	0.866	correct	pointing	Trial1	pointing/STIM_006.jpg
635.156	1.518	correct	pointing	Trial1	pointing/STIM_007.jpg
640.119	1.378	correct	pointing	Trial1	pointing/STIM_007.jpg
645.384	1.28	correct	pointing	Trial1	pointing/STIM_007.jpg
649.283	1.336	correct	pointing	Trial1	pointing/STIM_007.jpg
653.839	1.41	correct	pointing	Trial1	pointing/STIM_007.jpg
659.166	1.047	incorrect	pointing	Trial1	pointing/STIM_007.jpg
663.136	1.31	correct	pointing	Trial1	pointing/STIM_008.jpg
668.119	1.102	correct	pointing	Trial1	pointing/STIM_008.jpg
671.589	1.376	incorrect	pointing	Trial1	pointing/STIM_008.jpg
675.795	1.104	correct	pointing	Trial1	pointing/STIM_008.jpg
680.313	1.39	correct	pointing	Trial1	pointing/STIM_008.jpg
683.896	1.488	correct	pointing	Trial1	pointing/STIM_008.jpg
687.703	1.526	correct	pointing	Trial1	pointing/STIM_009.jpg
691.403	0.942	correct	pointing	Trial1	pointing/STIM_009.jpg
695.773	1.352	correct	pointing	Trial1	pointing/STIM_009.jpg
700.694	1.169	correct	pointing	Trial1	pointing/STIM_009.jpg
705.638	0.932	correct	pointing	Trial1	pointing/STIM_009.jpg
708.877	0.965	correct	pointing	Trial1	pointing/STIM_009.jpg
711.978	1.12	correct	pointing	Trial1	pointing/STIM_010.jpg
715.309	1.332	correct	pointing	Trial1	pointing/STIM_010.jpg
719.288	1.488	correct	pointing	Trial1	pointing/STIM_010.jpg
723.38	1.168	correct	pointing	Trial1	pointing/STIM_010.jpg
728.068	1.581	correct	pointing	Trial1	pointing/STIM_010.jpg
733.471	1.403	correct	pointing	Trial1	pointing/STIM_010.jpg
737.94	1.104	correct	pointing	Trial1	pointing/STIM_011.jpg
741.801	0.916	correct	pointing	Trial1	pointing/STIM_011.jpg
744.846	1.12	correct	pointing	Trial1	pointing/STIM_011.jpg
749.488	1.119	correct	pointing	Trial1	pointing/STIM_011.jpg
753.054	1.553	correct	pointing	Trial1	pointing/STIM_011.jpg
757.48	1.422	correct	pointing	Trial1	pointing/STIM_011.jpg
761.737	3.219	incorrect	navigation	Trial2	navigation/STIM_000.jpg
768.683	2.803	correct	navigation	Trial2	navigation/STIM_000.jpg
774.919	3.642	correct	navigation	Trial2	navigation/STIM_000.jpg
781.465	2.726	correct	navigation	Trial2	navigation/STIM_000.jpg
786.345	2.998	incorrect	navigation	Trial2	navigation/STIM_000.jpg
793.117	2.992	correct	navigation	Trial2	navigation/STIM_000.jpg
798.111	3.242	correct	navigation	Trial2	navigation/STIM_001.jpg
804.446	2.544	correct	navigation	Trial2	navigation/STIM_001.jpg
809.286	2.263	correct	navigation	Trial2	navigation/STIM_001.jpg
815.402	1.693	correct	navigation	Trial2	navigation/STIM_001.jpg
820.361	1.617	correct	navigation	Trial2	navigation/STIM_001.jpg
824.774	3.487	incorrect	navigation	Trial2	navigation/STIM_001.jpg
830.773	2.472	correct	navigation	Trial2	navigation/STIM_002.jpg
836.402	2.019	correct	navigation	Trial2	navigation/STIM_002.jpg
841.641	2.098	correct	navigation	Trial2	navigation/STIM_002.jpg
846.343	1.632	correct	navigation	Trial2	navigation/STIM_002.jpg
850.371	3.367	incorrect	navigation	Trial2	navigation/STIM_002.jpg
856.786	1.506	correct	navigation	Trial2	navigation/STIM_002.jpg
861.447	2.599	incorrect	navigation	Trial2	navigation/STIM_003.jpg
866.675	3.149	incorrect	navigation	Trial2	navigation/STIM_003.jpg
872.062	3.294	incorrect	navigation	Trial2	navigation/STIM_003.jpg
878.651	2.496	correct	navigation	Trial2	navigation/STIM_003.jpg
884.809	2.013	correct	navigation	Trial2	navigation/STIM_003.jpg
889.002	2.654	incorrect	navigation	Trial2	navigation/STIM_003.jpg
895.317	1.99	correct	navigation	Trial2	navigation/STIM_004.jpg
900.896	3.273	incorrect	navigation	Trial2	navigation/STIM_004.jpg
906.842	2.845	incorrect	navigation	Trial2	navigation/STIM_004.jpg
912.875	2.489	incorrect	navigation	Trial2	navigation/STIM_004.jpg
918.537	3.498	correct	navigation	Trial2	navigation/STIM_004.jpg
926.008	2.182	incorrect	navigation	Trial2	navigation/STIM_004.jpg
930.24	4.355	correct	navigation	Trial2	navigation/STIM_005.jpg
937.707	3.235	correct	navigation	Trial2	navigation/STIM_005.jpg
943.305	3.54	incorrect	navigation	Trial2	navigation/STIM_005.jpg
950.346	2.898	correct	navigation	Trial2	navigation/STIM_005.jpg
955.646	2.264	correct	navigation	Trial2	navigation/STIM_005.jpg
960.308	2.326	correct	navigation	Trial2	navigation/STIM_005.jpg
964.972	4.374	incorrect	navigation	Trial2	navigation/STIM_006.jpg
972.272	3.811	correct	navigation	Trial2	navigation/STIM_006.jpg
979.357	2.54	correct	navigation	Trial2	navigation/STIM_006.jpg
984.044	1.508	correct	navigation	Trial2	navigation/STIM_006.jpg
988.213	2.216	correct	navigation	Trial2	navigation/STIM_006.jpg
993.968	2.011	correct	navigation	Trial2	navigation/STIM_006.jpg
999.105	2.447	incorrect	navigation	Trial2	navigation/STIM_007.jpg
1005.371	2.629	incorrect	navigation	Trial2	navigation/STIM_007.jpg
1010.227	3.19	correct	navigation	Trial2	navigation/STIM_007.jpg
1015.579	2.872	correct	navigation	Trial2	navigation/STIM_007.jpg
1020.582	1.625	correct	navigation	Trial2	navigation/STIM_007.jpg
1024.705	1.642	correct	navigation	Trial2	navigation/STIM_007.jpg
1029.89	2.293	correct	navigation	Trial2	navigation/STIM_008.jpg
1035.275	4.013	incorrect	navigation	Trial2	navigation/STIM_008.jpg
1042.233	2.909	correct	navigation	Trial2	navigation/STIM_008.jpg
1047.589	2.942	correct	navigation	Trial2	navigation/STIM_008.jpg
1054.234	2.204	correct	navigation	Trial2	navigation/STIM_008.jpg
1059.424	1.742	incorrect	navigation	Trial2	navigation/STIM_008.jpg
1063.788	3.039	correct	navigation	Trial2	navigation/STIM_009.jpg
1070.518	1.882	incorrect	navigation	Trial2	navigation/STIM_009.jpg
1076.205	2.297	correct	navigation	Trial2	navigation/STIM_009.jpg
1082.078	3.248	correct	navigation	Trial2	navigation/STIM_009.jpg
1087.481	3.119	correct	navigation	Trial2	navigation/STIM_009.jpg
1094.567	3.255	correct	navigation	Trial2	navigation/STIM_009.jpg
1101.014	1.987	correct	navigation	Trial2	navigation/STIM_010.jpg
1105.868	2.451	correct	navigation	Trial2	navigation/STIM_010.jpg
1111.792	3.403	correct	navigation	Trial2	navigation/STIM_010.jpg
1117.862	2.627	correct	navigation	Trial2	navigation/STIM_010.jpg
1123.682	3.36	incorrect	navigation	Trial2	navigation/STIM_010.jpg
1130.862	2.883	correct	navigation	Trial2	navigation/STIM_010.jpg
1136.511	3.579	correct	navigation	Trial2	navigation/STIM_011.jpg
1142.861	3.136	incorrect	navigation	Trial2	navigation/STIM_011.jpg
1149.245	1.788	correct	navigation	Trial2	navigation/STIM_011.jpg
1154.883	1.981	correct	navigation	Trial2	navigation/STIM_011.jpg
1160.24	1.885	correct	navigation	Trial2	navigation/STIM_011.jpg
1164.159	3.686	correct	navigation	Trial2	navigation/STIM_011.jpg
1170.755	0.982	correct	pointing	Trial2	pointing/STIM_000.jpg
1174.831	1.091	correct	pointing	Trial2	pointing/STIM_000.jpg
1179.237	1.226	correct	pointing	Trial2	pointing/STIM_000.jpg
1184.094	0.849	correct	pointing	Trial2	pointing/STIM_000.jpg
1186.97	1.053	correct	pointing	Trial2	pointing/STIM_000.jpg
1191.079	0.972	incorrect	pointing	Trial2	pointing/STIM_000.jpg
1194.618	1.017	correct	pointing	Trial2	pointing/STIM_001.jpg
1199.549	1.418	correct	pointing	Trial2	pointing/STIM_001.jpg
1203.804	0.845	correct	pointing	Trial2	pointing/STIM_001.jpg
1208.641	1.236	correct	pointing	Trial2	pointing/STIM_001.jpg
1213.727	0.849	correct	pointing	Trial2	pointing/STIM_001.jpg
1216.764	1.23	correct	pointing	Trial2	pointing/STIM_001.jpg
1221.171	1.527	correct	pointing	Trial2	pointing/STIM_002.jpg
1225.562	1.389	correct	pointing	Trial2	pointing/STIM_002.jpg
1230.245	0.914	correct	pointing	Trial2	pointing/STIM_002.jpg
1233.646	1.213	incorrect	pointing	Trial2	pointing/STIM_002.jpg
1237.847	0.936	correct	pointing	Trial2	pointing/STIM_002.jpg
1241.121	0.94	correct	pointing	Trial2	pointing/STIM_002.jpg
1245.02	1.059	correct	pointing	Trial2	pointing/STIM_003.jpg
1249.473	1.568	correct	pointing	Trial2	pointing/STIM_003.jpg
1254.247	1.433	correct	pointing	Trial2	pointing/STIM_003.jpg
1257.775	1.117	correct	pointing	Trial2	pointing/STIM_003.jpg
1261.25	1.004	incorrect	pointing	Trial2	pointing/STIM_003.jpg
1265.334	0.882	correct	pointing	Trial2	pointing/STIM_003.jpg
1269.217	1.44	incorrect	pointing	Trial2	pointing/STIM_004.jpg
1273.892	1.58	correct	pointing	Trial2	pointing/STIM_004.jpg
1278.999	1.24	correct	pointing	Trial2	pointing/STIM_004.jpg
1284.074	0.986	correct	pointing	Trial2	pointing/STIM_004.jpg
1287.281	0.954	correct	pointing	Trial2	pointing/STIM_004.jpg
1292.087	1.1	correct	pointing	Trial2	pointing/STIM_004.jpg
1296.784	1.366	correct	pointing	Trial2	pointing/STIM_005.jpg
1301.014	1.436	correct	pointing	Trial2	pointing/STIM_005.jpg
1306.098	1.177	correct	pointing	Trial2	pointing/STIM_005.jpg
1310.102	1.414	correct	pointing	Trial2	pointing/STIM_005.jpg
1314.993	1.43	correct	pointing	Trial2	pointing/STIM_005.jpg
1319.928	1.514	correct	pointing	Trial2	pointing/STIM_005.jpg
1325.002	1.583	correct	pointing	Trial2	pointing/STIM_006.jpg
1330.501	1.072	correct	pointing	Trial2	pointing/STIM_006.jpg
1335.536	0.926	correct	pointing	Trial2	pointing/STIM_006.jpg
1340.145	1.123	correct	pointing	Trial2	pointing/STIM_006.jpg
1344.627	1.154	correct	pointing	Trial2	pointing/STIM_006.jpg
1348.001	1.434	correct	pointing	Trial2	pointing/STIM_006.jpg
1352.61	1.066	correct	pointing	Trial2	pointing/STIM_007.jpg
1356.896	0.885	correct	pointing	Trial2	pointing/STIM_007.jpg
1360.94	1.363	correct	pointing	Trial2	pointing/STIM_007.jpg
1364.81	1.393	incorrect	pointing	Trial2	pointing/STIM_007.jpg
1368.773	1.378	correct	pointing	Trial2	pointing/STIM_007.jpg
1373.973	1.576	correct	pointing	Trial2	pointing/STIM_007.jpg
1379.412	1.571	correct	pointing	Trial2	pointing/STIM_008.jpg
1384.778	1.383	correct	pointing	Trial2	pointing/STIM_008.jpg
1388.272	1.192	incorrect	pointing	Trial2	pointing/STIM_008.jpg
1391.818	1.254	incorrect	pointing	Trial2	pointing/STIM_008.jpg
1396.509	1.301	correct	pointing	Trial2	pointing/STIM_008.jpg
1401.71	1.245	correct	pointing	Trial2	pointing/STIM_008.jpg
1406.105	1.396	correct	pointing	Trial2	pointing/STIM_009.jpg
1409.647	1.411	correct	pointing	Trial2	pointing/STIM_009.jpg
1413.917	1.228	correct	pointing	Trial2	pointing/STIM_009.jpg
1419.112	1.199	correct	pointing	Trial2	pointing/STIM_009.jpg
1423.416	1.46	correct	pointing	Trial2	pointing/STIM_009.jpg
1427.114	0.857	incorrect	pointing	Trial2	pointing/STIM_009.jpg
1430.516	1.074	correct	pointing	Trial2	pointing/STIM_010.jpg
1434.054	1.514	correct	pointing	Trial2	pointing/STIM_010.jpg
1438.811	1.507	correct	pointing	Trial2	pointing/STIM_010.jpg
1442.816	1.106	correct	pointing	Trial2	pointing/STIM_010.jpg
1446.71	0.965	correct	pointing	Trial2	pointing/STIM_010.jpg
1451.165	1.352	correct	pointing	Trial2	pointing/STIM_010.jpg
1454.563	1.454	correct	pointing	Trial2	pointing/STIM_011.jpg
1459.384	1.34	correct	pointing	Trial2	pointing/STIM_011.jpg
1464.433	1.464	correct	pointing	Trial2	pointing/STIM_011.jpg
1469.159	0.924	correct	pointing	Trial2	pointing/STIM_011.jpg
1472.528	1.447	correct	pointing	Trial2	pointing/STIM_011.jpg
1476.721	1.22	correct	pointing	Trial2	pointing/STIM_011.jpg
1481.665	2.716	correct	navigation	Trial3	navigation/STIM_000.jpg
1488.343	3.369	incorrect	navigation	Trial3	navigation/STIM_000.jpg
1495.706	3.672	correct	navigation	Trial3	navigation/STIM_000.jpg
1501.991	2.81	correct	navigation	Trial3	navigation/STIM_000.jpg
1507.922	1.714	correct	navigation	Trial3	navigation/STIM_000.jpg
1511.849	1.842	correct	navigation	Trial3	navigation/STIM_000.jpg
1516.926	1.547	correct	navigation	Trial3	navigation/STIM_001.jpg
1520.554	1.511	correct	navigation	Trial3	navigation/STIM_001.jpg
1525.555	3.171	correct	navigation	Trial3	navigation/STIM_001.jpg
1531.826	1.81	correct	navigation	Trial3	navigation/STIM_001.jpg
1536.516	2.349	correct	navigation	Trial3	navigation/STIM_001.jpg
1542.096	3.311	incorrect	navigation	Trial3	navigation/STIM_001.jpg
1547.429	1.55	correct	navigation	Trial3	navigation/STIM_002.jpg
1551.421	2.65	correct	navigation	Trial3	navigation/STIM_002.jpg
1557.53	3.396	correct	navigation	Trial3	navigation/STIM_002.jpg
1564.155	2.243	correct	navigation	Trial3	navigation/STIM_002.jpg
1569.914	2.364	correct	navigation	Trial3	navigation/STIM_002.jpg
1575.284	3.351	correct	navigation	Trial3	navigation/STIM_002.jpg
1580.74	2.011	correct	navigation	Trial3	navigation/STIM_003.jpg
1586.256	3.45	correct	navigation	Trial3	navigation/STIM_003.jpg
1592.527	2.02	correct	navigation	Trial3	navigation/STIM_003.jpg
1596.725	1.752	correct	navigation	Trial3	navigation/STIM_003.jpg
1600.986	3.04	correct	navigation	Trial3	navigation/STIM_003.jpg
1607.924	1.678	correct	navigation	Trial3	navigation/STIM_003.jpg
1611.74	1.721	correct	navigation	Trial3	navigation/STIM_004.jpg
1616.605	2.452	incorrect	navigation	Trial3	navigation/STIM_004.jpg
1623.025	2.708	correct	navigation	Trial3	navigation/STIM_004.jpg
1629.485	3.195	correct	navigation	Trial3	navigation/STIM_004.jpg
1636.326	3.157	correct	navigation	Trial3	navigation/STIM_004.jpg
1642.472	2.808	correct	navigation	Trial3	navigation/STIM_004.jpg
1648.267	1.839	correct	navigation	Trial3	navigation/STIM_005.jpg
1653.741	3.349	correct	navigation	Trial3	navigation/STIM_005.jpg
1660.951	2.498	correct	navigation	Trial3	navigation/STIM_005.jpg
1666.03	2.693	correct	navigation	Trial3	navigation/STIM_005.jpg
1670.972	2.236	correct	navigation	Trial3	navigation/STIM_005.jpg
1675.591	1.764	correct	navigation	Trial3	navigation/STIM_005.jpg
1679.54	2.244	correct	navigation	Trial3	navigation/STIM_006.jpg
1684.327	2.157	correct	navigation	Trial3	navigation/STIM_006.jpg
1690.136	3.318	correct	navigation	Trial3	navigation/STIM_006.jpg
1696.775	2.193	correct	navigation	Trial3	navigation/STIM_006.jpg
1702.664	2.863	correct	navigation	Trial3	navigation/STIM_006.jpg
1707.573	2.078	correct	navigation	Trial3	navigation/STIM_006.jpg
1712.14	2.6	correct	navigation	Trial3	navigation/STIM_007.jpg
1717.012	2.407	correct	navigation	Trial3	navigation/STIM_007.jpg
1723.363	1.548	correct	navigation	Trial3	navigation/STIM_007.jpg
1726.95	2.174	incorrect	navigation	Trial3	navigation/STIM_007.jpg
1732.337	2.738	incorrect	navigation	Trial3	navigation/STIM_007.jpg
1738.651	3.613	correct	navigation	Trial3	navigation/STIM_007.jpg
1744.4	3.203	correct	navigation	Trial3	navigation/STIM_008.jpg
1749.75	1.606	correct	navigation	Trial3	navigation/STIM_008.jpg
1753.487	3.544	correct	navigation	Trial3	navigation/STIM_008.jpg
1760.415	2.82	correct	navigation	Trial3	navigation/STIM_008.jpg
1767.202	3.632	correct	navigation	Trial3	navigation/STIM_008.jpg
1773.817	2.788	correct	navigation	Trial3	navigation/STIM_008.jpg
1779.475	3.116	correct	navigation	Trial3	navigation/STIM_009.jpg
1786.194	2.758	correct	navigation	Trial3	navigation/STIM_009.jpg
1792.837	1.647	correct	navigation	Trial3	navigation/STIM_009.jpg
1798.228	2.513	correct	navigation	Trial3	navigation/STIM_009.jpg
1804.655	2.576	correct	navigation	Trial3	navigation/STIM_009.jpg
1811.212	1.93	correct	navigation	Trial3	navigation/STIM_009.jpg
1815.617	1.651	correct	navigation	Trial3	navigation/STIM_010.jpg
1820.111	1.971	correct	navigation	Trial3	navigation/STIM_010.jpg
1825.084	3.46	correct	navigation	Trial3	navigation/STIM_010.jpg
1832.043	1.891	correct	navigation	Trial3	navigation/STIM_010.jpg
1837.264	3.383	correct	navigation	Trial3	navigation/STIM_010.jpg
1842.818	1.595	incorrect	navigation	Trial3	navigation/STIM_010.jpg
1847.669	1.56	correct	navigation	Trial3	navigation/STIM_011.jpg
1851.314	2.746	incorrect	navigation	Trial3	navigation/STIM_011.jpg
1857.795	2.227	incorrect	navigation	Trial3	navigation/STIM_011.jpg
1862.812	2.302	correct	navigation	Trial3	navigation/STIM_011.jpg
1867.518	1.764	correct	navigation	Trial3	navigation/STIM_011.jpg
1871.397	1.657	correct	navigation	Trial3	navigation/STIM_011.jpg
1875.125	1.346	correct	pointing	Trial3	pointing/STIM_000.jpg
1879.944	0.943	correct	pointing	Trial3	pointing/STIM_000.jpg
1883.486	0.945	correct	pointing	Trial3	pointing/STIM_000.jpg
1886.942	1.346	correct	pointing	Trial3	pointing/STIM_000.jpg
1891.562	1.085	correct	pointing	Trial3	pointing/STIM_000.jpg
1895.491	1.136	correct	pointing	Trial3	pointing/STIM_000.jpg
1900.511	1.217	correct	pointing	Trial3	pointing/STIM_001.jpg
1904.383	1.477	correct	pointing	Trial3	pointing/STIM_001.jpg
1908.143	0.989	correct	pointing	Trial3	pointing/STIM_001.jpg
1913.03	1.487	correct	pointing	Trial3	pointing/STIM_001.jpg
1917.497	1.3	correct	pointing	Trial3	pointing/STIM_001.jpg
1921.987	0.998	incorrect	pointing	Trial3	pointing/STIM_001.jpg
1926.727	0.982	correct	pointing	Trial3	pointing/STIM_002.jpg
1931.44	0.91	correct	pointing	Trial3	pointing/STIM_002.jpg
1936.228	0.974	correct	pointing	Trial3	pointing/STIM_002.jpg
1939.875	1.135	correct	pointing	Trial3	pointing/STIM_002.jpg
1944.897	1.568	correct	pointing	Trial3	pointing/STIM_002.jpg
1950.293	1.544	correct	pointing	Trial3	pointing/STIM_002.jpg
1954.548	1.206	correct	pointing	Trial3	pointing/STIM_003.jpg
1959.29	1.408	incorrect	pointing	Trial3	pointing/STIM_003.jpg
1962.787	1.58	correct	pointing	Trial3	pointing/STIM_003.jpg
1968.198	0.851	correct	pointing	Trial3	pointing/STIM_003.jpg
1972.149	1.336	correct	pointing	Trial3	pointing/STIM_003.jpg
1977.074	1.26	correct	pointing	Trial3	pointing/STIM_003.jpg
1981.522	1.202	correct	pointing	Trial3	pointing/STIM_004.jpg
1985.911	1.3	correct	pointing	Trial3	pointing/STIM_004.jpg
1990.658	1.371	correct	pointing	Trial3	pointing/STIM_004.jpg
1995.439	1.525	correct	pointing	Trial3	pointing/STIM_004.jpg
1999.687	0.988	correct	pointing	Trial3	pointing/STIM_004.jpg
2003.465	1.173	correct	pointing	Trial3	pointing/STIM_004.jpg
2006.712	1.171	incorrect	pointing	Trial3	pointing/STIM_005.jpg
2010.026	0.983	incorrect	pointing	Trial3	pointing/STIM_005.jpg
2013.747	1.557	incorrect	pointing	Trial3	pointing/STIM_005.jpg
2019.243	1.334	correct	pointing	Trial3	pointing/STIM_005.jpg
2022.771	1.199	correct	pointing	Trial3	pointing/STIM_005.jpg
2027.135	1.522	correct	pointing	Trial3	pointing/STIM_005.jpg
2031.35	0.846	correct	pointing	Trial3	pointing/STIM_006.jpg
2034.753	1.149	correct	pointing	Trial3	pointing/STIM_006.jpg
2039.782	1.442	correct	pointing	Trial3	pointing/STIM_006.jpg
2044.984	1.134	correct	pointing	Trial3	pointing/STIM_006.jpg
2049.9	1.37	correct	pointing	Trial3	pointing/STIM_006.jpg
2053.854	0.94	correct	pointing	Trial3	pointing/STIM_006.jpg
2056.814	1.525	correct	pointing	Trial3	pointing/STIM_007.jpg
2061.328	1.109	correct	pointing	Trial3	pointing/STIM_007.jpg
2066.293	1.103	correct	pointing	Trial3	pointing/STIM_007.jpg
2071.099	1.079	correct	pointing	Trial3	pointing/STIM_007.jpg
2074.748	0.947	correct	pointing	Trial3	pointing/STIM_007.jpg
2079.641	1.29	correct	pointing	Trial3	pointing/STIM_007.jpg
2084.202	1.564	correct	pointing	Trial3	pointing/STIM_008.jpg
2088.577	1.266	correct	pointing	Trial3	pointing/STIM_008.jpg
2092.684	1.564	correct	pointing	Trial3	pointing/STIM_008.jpg
2096.895	1.054	correct	pointing	Trial3	pointing/STIM_008.jpg
2101.414	1.41	correct	pointing	Trial3	pointing/STIM_008.jpg
2106.098	0.966	correct	pointing	Trial3	pointing/STIM_008.jpg
2111.017	1.176	correct	pointing	Trial3	pointing/STIM_009.jpg
2115.996	0.976	correct	pointing	Trial3	pointing/STIM_009.jpg
2119.718	1.035	correct	pointing	Trial3	pointing/STIM_009.jpg
2123.104	1.535	correct	pointing	Trial3	pointing/STIM_009.jpg
2127.615	0.911	correct	pointing	Trial3	pointing/STIM_009.jpg
2131.797	1.186	correct	pointing	Trial3	pointing/STIM_009.jpg
2135.103	1.369	incorrect	pointing	Trial3	pointing/STIM_010.jpg
2138.472	1.117	correct	pointing	Trial3	pointing/STIM_010.jpg
2142.812	1.082	correct	pointing	Trial3	pointing/STIM_010.jpg
2146.814	1.532	correct	pointing	Trial3	pointing/STIM_010.jpg
2151.622	1.425	correct	pointing	Trial3	pointing/STIM_010.jpg
2156.064	1.184	correct	pointing	Trial3	pointing/STIM_010.jpg
2159.891	1.076	correct	pointing	Trial3	pointing/STIM_011.jpg
2163.064	1.091	correct	pointing	Trial3	pointing/STIM_011.jpg
2167.973	1.074	correct	pointing	Trial3	pointing/STIM_011.jpg
2171.714	0.934	correct	pointing	Trial3	pointing/STIM_011.jpg
2175.581	1.119	correct	pointing	Trial3	pointing/STIM_011.jpg
2180.063	1.276	correct	pointing	Trial3	pointing/STIM_011.jpg
