onset	duration	accuracy_binary	trial_type	learning_stage	stimulus
0.0	2.529	0	regulate	Run1	regulate/STIM_000.jpg
5.041	3.182	0	regulate	Run1	regulate/STIM_000.jpg
10.775	2.544	1	regulate	Run1	regulate/STIM_000.jpg
15.803	2.972	1	regulate	Run1	regulate/STIM_000.jpg
21.239	2.594	1	regulate	Run1	regulate/STIM_001.jpg
25.858	2.89	1	regulate	Run1	regulate/STIM_001.jpg
30.743	2.531	1	regulate	Run1	regulate/STIM_001.jpg
35.435	3.247	1	regulate	Run1	regulate/STIM_001.jpg
40.605	1.746	1	regulate	Run1	regulate/STIM_002.jpg
44.522	3.645	1	regulate	Run1	regulate/STIM_002.jpg
51.291	2.839	1	regulate	Run1	regulate/STIM_002.jpg
57.031	2.762	1	regulate	Run1	regulate/STIM_002.jpg
61.471	2.385	0	regulate	Run1	regulate/STIM_003.jpg
67.041	2.549	1	regulate	Run1	regulate/STIM_003.jpg
71.405	1.696	1	regulate	Run1	regulate/STIM_003.jpg
76.606	2.961	1	regulate	Run1	regulate/STIM_003.jpg
82.639	3.588	1	regulate	Run1	regulate/STIM_004.jpg
89.3	3.294	0	regulate	Run1	regulate/STIM_004.jpg
94.243	3.433	0	regulate	Run1	regulate/STIM_004.jpg
99.301	2.056	1	regulate	Run1	regulate/STIM_004.jpg
104.286	2.693	0	regulate	Run1	regulate/STIM_005.jpg
109.391	2.443	1	regulate	Run1	regulate/STIM_005.jpg
113.909	1.967	1	regulate	Run1	regulate/STIM_005.jpg
118.687	2.898	0	regulate	Run1	regulate/STIM_005.jpg
125.002	3.67	1	regulate	Run1	regulate/STIM_006.jpg
130.843	2.445	1	regulate	Run1	regulate/STIM_006.jpg
136.002	2.937	1	regulate	Run1	regulate/STIM_006.jpg
141.266	1.629	0	regulate	Run1	regulate/STIM_006.jpg
146.65	3.611	1	regulate	Run1	regulate/STIM_007.jpg
153.446	2.398	1	regulate	Run1	regulate/STIM_007.jpg
158.769	3.264	0	regulate	Run1	regulate/STIM_007.jpg
163.762	3.261	1	regulate	Run1	regulate/STIM_007.jpg
170.125	3.883	1	regulate	Run1	regulate/STIM_008.jpg
176.014	3.342	1	regulate	Run1	regulate/STIM_008.jpg
182.61	1.589	1	regulate	Run1	regulate/STIM_008.jpg
187.941	3.044	1	regulate	Run1	regulate/STIM_008.jpg
192.999	2.648	1	regulate	Run1	regulate/STIM_009.jpg
197.416	1.741	1	regulate	Run1	regulate/STIM_009.jpg
201.172	2.496	1	regulate	Run1	regulate/STIM_009.jpg
205.994	1.676	1	regulate	Run1	regulate/STIM_009.jpg
210.621	2.867	1	regulate	Run1	regulate/STIM_010.jpg
215.912	3.285	1	regulate	Run1	regulate/STIM_010.jpg
222.621	3.052	1	regulate	Run1	regulate/STIM_010.jpg
228.543	3.124	1	regulate	Run1	regulate/STIM_010.jpg
235.21	1.897	1	regulate	Run1	regulate/STIM_011.jpg
239.773	2.061	1	regulate	Run1	regulate/STIM_011.jpg
244.874	2.775	1	regulate	Run1	regulate/STIM_011.jpg
250.447	2.043	1	regulate	Run1	regulate/STIM_011.jpg
254.468	1.752	1	regulate	Run1	regulate/STIM_012.jpg
259.053	1.937	1	regulate	Run1	regulate/STIM_012.jpg
263.11	2.356	1	regulate	Run1	regulate/STIM_012.jpg
268.995	1.91	1	regulate	Run1	regulate/STIM_012.jpg
274.149	1.884	0	regulate	Run1	regulate/STIM_013.jpg
278.181	2.53	1	regulate	Run1	regulate/STIM_013.jpg
283.161	1.873	0	regulate	Run1	regulate/STIM_013.jpg
287.698	2.606	1	regulate	Run1	regulate/STIM_013.jpg
293.263	3.349	0	regulate	Run1	regulate/STIM_014.jpg
299.108	2.457	1	regulate	Run1	regulate/STIM_014.jpg
303.395	3.416	1	regulate	Run1	regulate/STIM_014.jpg
309.397	2.528	1	regulate	Run1	regulate/STIM_014.jpg
314.328	1.886	1	regulate	Run1	regulate/STIM_015.jpg
319.276	2.452	1	regulate	Run1	regulate/STIM_015.jpg
325.113	3.259	1	regulate	Run1	regulate/STIM_015.jpg
331.501	2.932	1	regulate	Run1	regulate/STIM_015.jpg
336.41	2.294	1	regulate	Run1	regulate/STIM_016.jpg
342.147	3.205	1	regulate	Run1	regulate/STIM_016.jpg
348.425	1.986	1	regulate	Run1	regulate/STIM_016.jpg
353.681	2.119	1	regulate	Run1	regulate/STIM_016.jpg
359.482	1.767	1	regulate	Run1	regulate/STIM_017.jpg
364.416	2.226	0	regulate	Run1	regulate/STIM_017.jpg
368.463	1.637	1	regulate	Run1	regulate/STIM_017.jpg
371.941	3.194	0	regulate	Run1	regulate/STIM_017.jpg
377.292	1.817	1	regulate	Run1	regulate/STIM_018.jpg
382.803	3.592	1	regulate	Run1	regulate/STIM_018.jpg
388.498	1.684	1	regulate	Run1	regulate/STIM_018.jpg
393.828	2.944	1	regulate	Run1	regulate/STIM_018.jpg
400.277	3.029	1	regulate	Run1	regulate/STIM_019.jpg
405.05	2.2	1	regulate	Run1	regulate/STIM_019.jpg
409.366	2.22	1	regulate	Run1	regulate/STIM_019.jpg
414.193	1.577	0	regulate	Run1	regulate/STIM_019.jpg
419.426	2.767	1	regulate	Run1	regulate/STIM_020.jpg
423.941	2.385	1	regulate	Run1	regulate/STIM_020.jpg
428.538	3.026	1	regulate	Run1	regulate/STIM_020.jpg
433.925	2.039	1	regulate	Run1	regulate/STIM_020.jpg
437.921	2.705	0	regulate	Run1	regulate/STIM_021.jpg
442.67	2.516	0	regulate	Run1	regulate/STIM_021.jpg
447.752	2.326	1	regulate	Run1	regulate/STIM_021.jpg
452.715	2.763	1	regulate	Run1	regulate/STIM_021.jpg
457.454	2.402	1	regulate	Run1	regulate/STIM_022.jpg
463.545	2.028	1	regulate	Run1	regulate/STIM_022.jpg
468.225	1.763	0	regulate	Run1	regulate/STIM_022.jpg
471.862	2.788	1	regulate	Run1	regulate/STIM_022.jpg
476.815	3.542	1	regulate	Run1	regulate/STIM_023.jpg
482.14	2.431	1	regulate	Run1	regulate/STIM_023.jpg
487.425	3.488	1	regulate	Run1	regulate/STIM_023.jpg
494.434	3.25	1	regulate	Run1	regulate/STIM_023.jpg
500.399	2.028	1	regulate	Run1	regulate/STIM_024.jpg
505.039	3.117	1	regulate	Run1	regulate/STIM_024.jpg
511.519	2.814	1	regulate	Run1	regulate/STIM_024.jpg
516.307	2.835	1	regulate	Run1	regulate/STIM_024.jpg
521.753	2.712	1	regulate	Run1	regulate/STIM_025.jpg
527.465	2.49	1	regulate	Run1	regulate/STIM_025.jpg
532.135	3.039	1	regulate	Run1	regulate/STIM_025.jpg
537.958	3.121	1	regulate	Run1	regulate/STIM_025.jpg
543.995	2.433	1	regulate	Run1	regulate/STIM_026.jpg
549.445	3.045	0	regulate	Run1	regulate/STIM_026.jpg
554.319	2.254	0	regulate	Run1	regulate/STIM_026.jpg
559.907	3.306	1	regulate	Run1	regulate/STIM_026.jpg
565.665	2.403	1	regulate	Run1	regulate/STIM_027.jpg
571.243	3.438	1	regulate	Run1	regulate/STIM_027.jpg
577.528	3.382	1	regulate	Run1	regulate/STIM_027.jpg
584.278	3.346	1	regulate	Run1	regulate/STIM_027.jpg
590.605	2.713	1	regulate	Run1	regulate/STIM_028.jpg
596.123	1.746	1	regulate	Run1	regulate/STIM_028.jpg
600.452	3.516	1	regulate	Run1	regulate/STIM_028.jpg
605.937	2.828	1	regulate	Run1	regulate/STIM_028.jpg
610.494	1.882	1	regulate	Run1	regulate/STIM_029.jpg
615.765	2.392	1	regulate	Run1	regulate/STIM_029.jpg
620.536	2.198	1	regulate	Run1	regulate/STIM_029.jpg
625.61	1.558	1	regulate	Run1	regulate/STIM_029.jpg
629.549	1.3	0	observe	Run1	observe/STIM_000.jpg
633.26	0.977	0	observe	Run1	observe/STIM_000.jpg
637.37	1.284	1	observe	Run1	observe/STIM_000.jpg
642.165	1.632	1	observe	Run1	observe/STIM_000.jpg
647.124	1.218	0	observe	Run1	observe/STIM_001.jpg
650.804	1.105	1	observe	Run1	observe/STIM_001.jpg
654.749	1.42	1	observe	Run1	observe/STIM_001.jpg
659.704	1.346	1	observe	Run1	observe/STIM_001.jpg
663.482	1.483	1	observe	Run1	observe/STIM_002.jpg
667.794	1.303	1	observe	Run1	observe/STIM_002.jpg
671.604	1.667	1	observe	Run1	observe/STIM_002.jpg
675.984	1.753	0	observe	Run1	observe/STIM_002.jpg
680.797	1.419	1	observe	Run1	observe/STIM_003.jpg
684.344	1.161	1	observe	Run1	observe/STIM_003.jpg
688.688	1.653	1	observe	Run1	observe/STIM_003.jpg
692.756	1.483	1	observe	Run1	observe/STIM_003.jpg
697.608	1.085	1	observe	Run1	observe/STIM_004.jpg
701.631	1.473	1	observe	Run1	observe/STIM_004.jpg
705.811	1.421	1	observe	Run1	observe/STIM_004.jpg
710.865	1.441	1	observe	Run1	observe/STIM_004.jpg
714.324	1.289	1	observe	Run1	observe/STIM_005.jpg
718.538	1.379	1	observe	Run1	observe/STIM_005.jpg
721.843	1.02	1	observe	Run1	observe/STIM_005.jpg
724.857	1.378	1	observe	Run1	observe/STIM_005.jpg
728.661	1.736	1	observe	Run1	observe/STIM_006.jpg
733.1	1.022	1	observe	Run1	observe/STIM_006.jpg
737.146	1.252	1	observe	Run1	observe/STIM_006.jpg
740.739	1.57	1	observe	Run1	observe/STIM_006.jpg
744.348	1.737	0	observe	Run1	observe/STIM_007.jpg
747.957	1.482	0	observe	Run1	observe/STIM_007.jpg
751.595	1.682	1	observe	Run1	observe/STIM_007.jpg
756.387	0.92	1	observe	Run1	observe/STIM_007.jpg
759.36	1.451	1	observe	Run1	observe/STIM_008.jpg
763.982	1.357	1	observe	Run1	observe/STIM_008.jpg
767.937	1.15	1	observe	Run1	observe/STIM_008.jpg
772.429	1.47	0	observe	Run1	observe/STIM_008.jpg
777.337	1.535	1	observe	Run1	observe/STIM_009.jpg
781.293	1.815	1	observe	Run1	observe/STIM_009.jpg
786.718	1.237	1	observe	Run1	observe/STIM_009.jpg
790.531	1.349	1	observe	Run1	observe/STIM_009.jpg
794.962	0.922	1	observe	Run1	observe/STIM_010.jpg
798.789	1.466	0	observe	Run1	observe/STIM_010.jpg
802.688	1.806	1	observe	Run1	observe/STIM_010.jpg
807.121	1.112	1	observe	Run1	observe/STIM_010.jpg
810.823	0.929	1	observe	Run1	observe/STIM_011.jpg
814.208	0.921	1	observe	Run1	observe/STIM_011.jpg
818.623	1.591	1	observe	Run1	observe/STIM_011.jpg
823.706	1.514	1	observe	Run1	observe/STIM_011.jpg
827.381	1.168	1	observe	Run1	observe/STIM_012.jpg
831.469	1.431	1	observe	Run1	observe/STIM_012.jpg
835.279	1.632	1	observe	Run1	observe/STIM_012.jpg
840.03	1.556	1	observe	Run1	observe/STIM_012.jpg
844.889	0.956	1	observe	Run1	observe/STIM_013.jpg
848.936	1.649	1	observe	Run1	observe/STIM_013.jpg
852.631	1.597	1	observe	Run1	observe/STIM_013.jpg
857.715	1.722	0	observe	Run1	observe/STIM_013.jpg
862.264	1.264	1	observe	Run1	observe/STIM_014.jpg
865.986	1.736	1	observe	Run1	observe/STIM_014.jpg
869.735	1.042	0	observe	Run1	observe/STIM_014.jpg
873.226	0.954	1	observe	Run1	observe/STIM_014.jpg
876.939	1.679	1	observe	Run1	observe/STIM_015.jpg
881.644	1.072	1	observe	Run1	observe/STIM_015.jpg
886.4	1.596	1	observe	Run1	observe/STIM_015.jpg
891.786	1.196	1	observe	Run1	observe/STIM_015.jpg
896.633	1.672	0	observe	Run1	observe/STIM_016.jpg
901.544	0.981	1	observe	Run1	observe/STIM_016.jpg
904.401	1.738	1	observe	Run1	observe/STIM_016.jpg
909.9	1.016	1	observe	Run1	observe/STIM_016.jpg
912.867	1.392	0	observe	Run1	observe/STIM_017.jpg
916.659	0.958	1	observe	Run1	observe/STIM_017.jpg
920.816	1.144	1	observe	Run1	observe/STIM_017.jpg
924.261	1.056	1	observe	Run1	observe/STIM_017.jpg
928.832	1.133	0	observe	Run1	observe/STIM_018.jpg
932.763	1.279	1	observe	Run1	observe/STIM_018.jpg
937.077	1.27	1	observe	Run1	observe/STIM_018.jpg
941.05	1.264	1	observe	Run1	observe/STIM_018.jpg
945.727	1.741	1	observe	Run1	observe/STIM_019.jpg
949.474	1.622	0	observe	Run1	observe/STIM_019.jpg
952.97	1.129	1	observe	Run1	observe/STIM_019.jpg
955.959	1.308	1	observe	Run1	observe/STIM_019.jpg
960.758	2.167	1	regulate	Run2	regulate/STIM_000.jpg
965.554	2.936	1	regulate	Run2	regulate/STIM_000.jpg
970.332	2.013	1	regulate	Run2	regulate/STIM_000.jpg
976.072	1.264	1	regulate	Run2	regulate/STIM_000.jpg
981.116	3.011	1	regulate	Run2	regulate/STIM_001.jpg
986.592	1.676	1	regulate	Run2	regulate/STIM_001.jpg
991.829	2.324	1	regulate	Run2	regulate/STIM_001.jpg
996.041	1.288	1	regulate	Run2	regulate/STIM_001.jpg
1000.345	3.09	1	regulate	Run2	regulate/STIM_002.jpg
1006.866	2.152	1	regulate	Run2	regulate/STIM_002.jpg
1011.14	2.583	1	regulate	Run2	regulate/STIM_002.jpg
1015.897	2.805	1	regulate	Run2	regulate/STIM_002.jpg
1020.887	1.534	1	regulate	Run2	regulate/STIM_003.jpg
1025.15	1.8	1	regulate	Run2	regulate/STIM_003.jpg
1030.408	2.172	1	regulate	Run2	regulate/STIM_003.jpg
1034.308	1.866	1	regulate	Run2	regulate/STIM_003.jpg
1038.699	1.824	0	regulate	Run2	regulate/STIM_004.jpg
1043.066	1.603	1	regulate	Run2	regulate/STIM_004.jpg
1047.632	2.099	1	regulate	Run2	regulate/STIM_004.jpg
1052.719	2.602	1	regulate	Run2	regulate/STIM_004.jpg
1058.418	2.262	0	regulate	Run2	regulate/STIM_005.jpg
1062.651	1.608	0	regulate	Run2	regulate/STIM_005.jpg
1066.287	2.148	1	regulate	Run2	regulate/STIM_005.jpg
1071.145	1.514	1	regulate	Run2	regulate/STIM_005.jpg
1075.577	2.03	1	regulate	Run2	regulate/STIM_006.jpg
1081.044	2.906	0	regulate	Run2	regulate/STIM_006.jpg
1085.859	1.463	1	regulate	Run2	regulate/STIM_006.jpg
1090.652	2.422	1	regulate	Run2	regulate/STIM_006.jpg
1095.938	1.471	0	regulate	Run2	regulate/STIM_007.jpg
1100.632	2.275	1	regulate	Run2	regulate/STIM_007.jpg
1105.98	2.206	1	regulate	Run2	regulate/STIM_007.jpg
1110.659	2.544	1	regulate	Run2	regulate/STIM_007.jpg
1115.223	2.621	1	regulate	Run2	regulate/STIM_008.jpg
1119.619	2.818	1	regulate	Run2	regulate/STIM_008.jpg
1125.524	2.836	1	regulate	Run2	regulate/STIM_008.jpg
1130.715	1.268	1	regulate	Run2	regulate/STIM_008.jpg
1134.989	3.056	1	regulate	Run2	regulate/STIM_009.jpg
1141.575	2.715	1	regulate	Run2	regulate/STIM_009.jpg
1146.968	1.732	0	regulate	Run2	regulate/STIM_009.jpg
1152.108	1.926	1	regulate	Run2	regulate/STIM_009.jpg
1155.911	2.078	0	regulate	Run2	regulate/STIM_010.jpg
1160.298	1.497	0	regulate	Run2	regulate/STIM_010.jpg
1164.122	2.495	1	regulate	Run2	regulate/STIM_010.jpg
1170.125	1.741	1	regulate	Run2	regulate/STIM_010.jpg
1175.498	3.306	1	regulate	Run2	regulate/STIM_011.jpg
1181.733	2.882	1	regulate	Run2	regulate/STIM_011.jpg
1187.215	2.852	1	regulate	Run2	regulate/STIM_011.jpg
1193.253	2.613	1	regulate	Run2	regulate/STIM_011.jpg
1198.106	2.336	0	regulate	Run2	regulate/STIM_012.jpg
1204.049	2.576	1	regulate	Run2	regulate/STIM_012.jpg
1208.702	1.8	1	regulate	Run2	regulate/STIM_012.jpg
1212.444	1.788	1	regulate	Run2	regulate/STIM_012.jpg
1216.3	3.022	1	regulate	Run2	regulate/STIM_013.jpg
1221.487	2.97	1	regulate	Run2	regulate/STIM_013.jpg
1227.289	1.654	0	regulate	Run2	regulate/STIM_013.jpg
1232.38	1.288	1	regulate	Run2	regulate/STIM_013.jpg
1235.849	1.77	1	regulate	Run2	regulate/STIM_014.jpg
1240.986	2.736	1	regulate	Run2	regulate/STIM_014.jpg
1246.666	2.052	1	regulate	Run2	regulate/STIM_014.jpg
1250.459	2.156	1	regulate	Run2	regulate/STIM_014.jpg
1255.926	1.48	1	regulate	Run2	regulate/STIM_015.jpg
1260.561	2.284	0	regulate	Run2	regulate/STIM_015.jpg
1266.185	1.297	1	regulate	Run2	regulate/STIM_015.jpg
1269.714	1.544	1	regulate	Run2	regulate/STIM_015.jpg
1273.263	3.02	1	regulate	Run2	regulate/STIM_016.jpg
1278.53	2.77	1	regulate	Run2	regulate/STIM_016.jpg
1283.643	2.778	1	regulate	Run2	regulate/STIM_016.jpg
1288.176	1.935	1	regulate	Run2	regulate/STIM_016.jpg
1292.632	3.349	0	regulate	Run2	regulate/STIM_017.jpg
1297.849	1.999	1	regulate	Run2	regulate/STIM_017.jpg
1301.652	1.518	0	regulate	Run2	regulate/STIM_017.jpg
1305.694	1.308	1	regulate	Run2	regulate/STIM_017.jpg
1309.561	1.739	1	regulate	Run2	regulate/STIM_018.jpg
1313.566	2.778	1	regulate	Run2	regulate/STIM_018.jpg
1319.951	2.355	1	regulate	Run2	regulate/STIM_018.jpg
1324.028	1.475	1	regulate	Run2	regulate/STIM_018.jpg
1327.376	3.312	0	regulate	Run2	regulate/STIM_019.jpg
1332.567	2.522	1	regulate	Run2	regulate/STIM_019.jpg
1338.461	2.891	1	regulate	Run2	regulate/STIM_019.jpg
1343.756	1.319	1	regulate	Run2	regulate/STIM_019.jpg
1348.861	1.709	0	regulate	Run2	regulate/STIM_020.jpg
1352.996	1.945	1	regulate	Run2	regulate/STIM_020.jpg
1358.004	1.62	1	regulate	Run2	regulate/STIM_020.jpg
1362.222	2.712	1	regulate	Run2	regulate/STIM_020.jpg
1367.1	2.468	1	regulate	Run2	regulate/STIM_021.jpg
1371.311	2.397	1	regulate	Run2	regulate/STIM_021.jpg
1376.194	2.74	1	regulate	Run2	regulate/STIM_021.jpg
1381.247	2.321	1	regulate	Run2	regulate/STIM_021.jpg
1385.803	3.35	1	regulate	Run2	regulate/STIM_022.jpg
1391.138	2.077	1	regulate	Run2	regulate/STIM_022.jpg
1395.138	1.629	1	regulate	Run2	regulate/STIM_022.jpg
1400.079	1.566	1	regulate	Run2	regulate/STIM_022.jpg
1403.701	3.26	1	regulate	Run2	regulate/STIM_023.jpg
1408.664	2.426	0	regulate	Run2	regulate/STIM_023.jpg
1413.039	2.927	1	regulate	Run2	regulate/STIM_023.jpg
1418.309	1.376	1	regulate	Run2	regulate/STIM_023.jpg
1421.783	2.933	0	regulate	Run2	regulate/STIM_024.jpg
1426.768	2.359	1	regulate	Run2	regulate/STIM_024.jpg
1431.445	2.362	1	regulate	Run2	regulate/STIM_024.jpg
1436.048	1.909	1	regulate	Run2	regulate/STIM_024.jpg
1440.792	2.049	1	regulate	Run2	regulate/STIM_025.jpg
1446.318	2.038	1	regulate	Run2	regulate/STIM_025.jpg
1451.735	2.543	1	regulate	Run2	regulate/STIM_025.jpg
1456.714	2.042	1	regulate	Run2	regulate/STIM_025.jpg
1462.2	2.699	1	regulate	Run2	regulate/STIM_026.jpg
1468.159	1.716	0	regulate	Run2	regulate/STIM_026.jpg
1472.887	2.548	1	regulate	Run2	regulate/STIM_026.jpg
1477.873	1.422	1	regulate	Run2	regulate/STIM_026.jpg
1481.423	1.766	1	regulate	Run2	regulate/STIM_027.jpg
1485.373	3.108	1	regulate	Run2	regulate/STIM_027.jpg
1490.153	2.674	1	regulate	Run2	regulate/STIM_027.jpg
1496.114	2.559	1	regulate	Run2	regulate/STIM_027.jpg
1501.815	3.278	1	regulate	Run2	regulate/STIM_028.jpg
1507.931	2.35	1	regulate	Run2	regulate/STIM_028.jpg
1512.261	2.062	0	regulate	Run2	regulate/STIM_028.jpg
1517.676	2.592	1	regulate	Run2	regulate/STIM_028.jpg
1522.514	2.806	1	regulate	Run2	regulate/STIM_029.jpg
1527.727	1.387	1	regulate	Run2	regulate/STIM_029.jpg
1530.988	2.443	1	regulate	Run2	regulate/STIM_029.jpg
1536.355	1.97	1	regulate	Run2	regulate/STIM_029.jpg
1540.91	1.34	1	observe	Run2	observe/STIM_000.jpg
1545.936	1.677	1	observe	Run2	observe/STIM_000.jpg
1550.1	1.579	1	observe	Run2	observe/STIM_000.jpg
1554.903	1.357	1	observe	Run2	observe/STIM_000.jpg
1559.469	1.047	1	observe	Run2	observe/STIM_001.jpg
1563.063	1.161	0	observe	Run2	observe/STIM_001.jpg
1567.168	1.827	1	observe	Run2	observe/STIM_001.jpg
1572.416	1.265	1	observe	Run2	observe/STIM_001.jpg
1576.854	1.196	1	observe	Run2	observe/STIM_002.jpg
1580.334	1.13	1	observe	Run2	observe/STIM_002.jpg
1583.568	1.11	0	observe	Run2	observe/STIM_002.jpg
1588.254	1.574	1	observe	Run2	observe/STIM_002.jpg
1591.671	1.056	1	observe	Run2	observe/STIM_003.jpg
1595.595	1.728	1	observe	Run2	observe/STIM_003.jpg
1600.689	0.986	1	observe	Run2	observe/STIM_003.jpg
1605.091	1.541	1	observe	Run2	observe/STIM_003.jpg
1610.39	1.101	1	observe	Run2	observe/STIM_004.jpg
1614.437	1.301	1	observe	Run2	observe/STIM_004.jpg
1619.18	1.638	1	observe	Run2	observe/STIM_004.jpg
1623.734	1.559	1	observe	Run2	observe/STIM_004.jpg
1627.908	1.235	0	observe	Run2	observe/STIM_005.jpg
1631.271	1.201	1	observe	Run2	observe/STIM_005.jpg
1635.073	1.271	1	observe	Run2	observe/STIM_005.jpg
1639.22	1.033	0	observe	Run2	observe/STIM_005.jpg
1643.883	0.943	1	observe	Run2	observe/STIM_006.jpg
1648.559	1.536	1	observe	Run2	observe/STIM_006.jpg
1653.143	1.097	1	observe	Run2	observe/STIM_006.jpg
1656.285	1.718	0	observe	Run2	observe/STIM_006.jpg
1660.046	1.803	1	observe	Run2	observe/STIM_007.jpg
1664.937	0.984	1	observe	Run2	observe/STIM_007.jpg
1669.794	1.365	1	observe	Run2	observe/STIM_007.jpg
1674.483	1.825	1	observe	Run2	observe/STIM_007.jpg
1679.225	0.99	1	observe	Run2	observe/STIM_008.jpg
1683.566	1.111	1	observe	Run2	observe/STIM_008.jpg
1688.171	1.194	1	observe	Run2	observe/STIM_008.jpg
1691.311	1.463	1	observe	Run2	observe/STIM_008.jpg
1695.702	1.539	1	observe	Run2	observe/STIM_009.jpg
1699.45	1.507	1	observe	Run2	observe/STIM_009.jpg
1703.463	1.02	1	observe	Run2	observe/STIM_009.jpg
1706.788	1.816	1	observe	Run2	observe/STIM_009.jpg
1712.039	1.498	0	observe	Run2	observe/STIM_010.jpg
1716.898	1.381	1	observe	Run2	observe/STIM_010.jpg
1720.356	1.432	1	observe	Run2	observe/STIM_010.jpg
1724.796	1.511	1	observe	Run2	observe/STIM_010.jpg
1728.853	1.712	1	observe	Run2	observe/STIM_011.jpg
1732.652	1.722	1	observe	Run2	observe/STIM_011.jpg
1736.415	1.469	1	observe	Run2	observe/STIM_011.jpg
1740.784	1.344	0	observe	Run2	observe/STIM_011.jpg
1745.849	1.792	1	observe	Run2	observe/STIM_012.jpg
1750.951	1.391	1	observe	Run2	observe/STIM_012.jpg
1754.598	1.63	1	observe	Run2	observe/STIM_012.jpg
1759.913	1.077	1	observe	Run2	observe/STIM_012.jpg
1763.731	1.708	1	observe	Run2	observe/STIM_013.jpg
1769.083	1.204	1	observe	Run2	observe/STIM_013.jpg
1773.23	1.297	1	observe	Run2	observe/STIM_013.jpg
1777.277	1.261	1	observe	Run2	observe/STIM_013.jpg
1781.083	1.117	1	observe	Run2	observe/STIM_014.jpg
1784.764	1.496	1	observe	Run2	observe/STIM_014.jpg
1788.982	1.33	1	observe	Run2	observe/STIM_014.jpg
1793.881	1.105	1	observe	Run2	observe/STIM_014.jpg
1797.561	1.205	1	observe	Run2	observe/STIM_015.jpg
1801.803	1.458	1	observe	Run2	observe/STIM_015.jpg
1805.912	1.484	1	observe	Run2	observe/STIM_015.jpg
1809.336	1.426	1	observe	Run2	observe/STIM_015.jpg
1813.85	1.272	1	observe	Run2	observe/STIM_016.jpg
1817.662	1.689	1	observe	Run2	observe/STIM_016.jpg
1822.533	1.664	0	observe	Run2	observe/STIM_016.jpg
1826.803	0.92	1	observe	Run2	observe/STIM_016.jpg
1829.783	1.588	1	observe	Run2	observe/STIM_017.jpg
1834.732	1.308	1	observe	Run2	observe/STIM_017.jpg
1839.707	1.743	1	observe	Run2	observe/STIM_017.jpg
1843.241	1.332	0	observe	Run2	observe/STIM_017.jpg
1846.603	1.34	1	observe	Run2	observe/STIM_018.jpg
1849.945	1.041	1	observe	Run2	observe/STIM_018.jpg
1853.54	1.066	1	observe	Run2	observe/STIM_018.jpg
1857.538	1.0	1	observe	Run2	observe/STIM_018.jpg
1861.381	0.951	1	observe	Run2	observe/STIM_019.jpg
1864.643	1.148	0	observe	Run2	observe/STIM_019.jpg
1869.009	1.537	1	observe	Run2	observe/STIM_019.jpg
1872.855	1.374	1	observe	Run2	observe/STIM_019.jpg
1876.433	1.601	1	regulate	Run3	regulate/STIM_000.jpg
1880.357	2.578	1	regulate	Run3	regulate/STIM_000.jpg
1886.279	1.615	1	regulate	Run3	regulate/STIM_000.jpg
1891.652	1.446	1	regulate	Run3	regulate/STIM_000.jpg
1895.368	2.715	1	regulate	Run3	regulate/STIM_001.jpg
1901.147	2.117	1	regulate	Run3	regulate/STIM_001.jpg
1905.726	1.585	1	regulate	Run3	regulate/STIM_001.jpg
1909.631	2.457	1	regulate	Run3	regulate/STIM_001.jpg
1914.134	1.839	1	regulate	Run3	regulate/STIM_002.jpg
1919.314	2.66	1	regulate	Run3	regulate/STIM_002.jpg
1924.703	1.843	1	regulate	Run3	regulate/STIM_002.jpg
1928.832	1.831	0	regulate	Run3	regulate/STIM_002.jpg
1932.938	1.936	1	regulate	Run3	regulate/STIM_003.jpg
1936.965	2.213	1	regulate	Run3	regulate/STIM_003.jpg
1942.233	1.464	1	regulate	Run3	regulate/STIM_003.jpg
1945.804	1.373	1	regulate	Run3	regulate/STIM_003.jpg
1950.89	2.43	1	regulate	Run3	regulate/STIM_004.jpg
1956.144	2.334	0	regulate	Run3	regulate/STIM_004.jpg
1960.931	1.603	1	regulate	Run3	regulate/STIM_004.jpg
1965.075	2.215	1	regulate	Run3	regulate/STIM_004.jpg
1969.442	1.386	1	regulate	Run3	regulate/STIM_005.jpg
1972.666	1.239	1	regulate	Run3	regulate/STIM_005.jpg
1977.501	1.843	1	regulate	Run3	regulate/STIM_005.jpg
1981.77	2.802	1	regulate	Run3	regulate/STIM_005.jpg
1986.555	2.01	1	regulate	Run3	regulate/STIM_006.jpg
1990.866	2.446	1	regulate	Run3	regulate/STIM_006.jpg
1996.176	1.747	0	regulate	Run3	regulate/STIM_006.jpg
2000.687	1.887	1	regulate	Run3	regulate/STIM_006.jpg
2004.595	1.352	1	regulate	Run3	regulate/STIM_007.jpg
2009.661	2.101	1	regulate	Run3	regulate/STIM_007.jpg
2015.34	1.909	1	regulate	Run3	regulate/STIM_007.jpg
2020.377	1.359	1	regulate	Run3	regulate/STIM_007.jpg
2024.397	2.345	1	regulate	Run3	regulate/STIM_008.jpg
2029.528	1.439	1	regulate	Run3	regulate/STIM_008.jpg
2033.86	2.089	1	regulate	Run3	regulate/STIM_008.jpg
2038.402	2.239	1	regulate	Run3	regulate/STIM_008.jpg
2042.803	1.606	0	regulate	Run3	regulate/STIM_009.jpg
2046.683	2.794	1	regulate	Run3	regulate/STIM_009.jpg
2051.352	2.206	1	regulate	Run3	regulate/STIM_009.jpg
2056.408	2.441	1	regulate	Run3	regulate/STIM_009.jpg
2060.946	1.883	1	regulate	Run3	regulate/STIM_010.jpg
2065.135	1.665	1	regulate	Run3	regulate/STIM_010.jpg
2069.586	1.978	1	regulate	Run3	regulate/STIM_010.jpg
2075.066	2.252	1	regulate	Run3	regulate/STIM_010.jpg
2080.912	1.748	1	regulate	Run3	regulate/STIM_011.jpg
2085.67	2.174	1	regulate	Run3	regulate/STIM_011.jpg
2089.793	1.882	1	regulate	Run3	regulate/STIM_011.jpg
2094.092	1.277	1	regulate	Run3	regulate/STIM_011.jpg
2097.293	2.119	1	regulate	Run3	regulate/STIM_012.jpg
2101.583	1.955	1	regulate	Run3	regulate/STIM_012.jpg
2105.311	1.807	1	regulate	Run3	regulate/STIM_012.jpg
2109.549	2.455	1	regulate	Run3	regulate/STIM_012.jpg
2114.674	2.099	1	regulate	Run3	regulate/STIM_013.jpg
2120.045	1.805	1	regulate	Run3	regulate/STIM_013.jpg
2124.776	2.455	1	regulate	Run3	regulate/STIM_013.jpg
2130.244	1.39	0	regulate	Run3	regulate/STIM_013.jpg
2133.717	2.228	1	regulate	Run3	regulate/STIM_014.jpg
2139.53	1.831	1	regulate	Run3	regulate/STIM_014.jpg
2145.112	1.23	1	regulate	Run3	regulate/STIM_014.jpg
2149.197	1.834	1	regulate	Run3	regulate/STIM_014.jpg
2154.647	2.27	1	regulate	Run3	regulate/STIM_015.jpg
2158.905	1.827	1	regulate	Run3	regulate/STIM_015.jpg
2164.015	2.456	1	regulate	Run3	regulate/STIM_015.jpg
2169.726	2.783	1	regulate	Run3	regulate/STIM_015.jpg
2175.423	2.368	1	regulate	Run3	regulate/STIM_016.jpg
2180.463	2.689	1	regulate	Run3	regulate/STIM_016.jpg
2186.338	2.568	1	regulate	Run3	regulate/STIM_016.jpg
2192.154	2.403	1	regulate	Run3	regulate/STIM_016.jpg
2197.901	2.582	0	regulate	Run3	regulate/STIM_017.jpg
2203.63	1.212	1	regulate	Run3	regulate/STIM_017.jpg
2208.549	2.761	0	regulate	Run3	regulate/STIM_017.jpg
2213.298	1.405	1	regulate	Run3	regulate/STIM_017.jpg
2217.471	1.807	1	regulate	Run3	regulate/STIM_018.jpg
2221.178	1.285	1	regulate	Run3	regulate/STIM_018.jpg
2225.192	1.825	1	regulate	Run3	regulate/STIM_018.jpg
2230.355	1.743	1	regulate	Run3	regulate/STIM_018.jpg
2234.225	2.255	0	regulate	Run3	regulate/STIM_019.jpg
2238.22	1.767	1	regulate	Run3	regulate/STIM_019.jpg
2243.539	1.381	1	regulate	Run3	regulate/STIM_019.jpg
2248.127	2.596	1	regulate	Run3	regulate/STIM_019.jpg
2252.762	1.348	1	regulate	Run3	regulate/STIM_020.jpg
2256.664	1.889	1	regulate	Run3	regulate/STIM_020.jpg
2260.984	2.086	1	regulate	Run3	regulate/STIM_020.jpg
2265.48	2.756	1	regulate	Run3	regulate/STIM_020.jpg
2271.261	2.574	1	regulate	Run3	regulate/STIM_021.jpg
2276.903	1.376	1	regulate	Run3	regulate/STIM_021.jpg
2280.213	2.009	1	regulate	Run3	regulate/STIM_021.jpg
2285.532	2.578	1	regulate	Run3	regulate/STIM_021.jpg
2290.506	2.637	1	regulate	Run3	regulate/STIM_022.jpg
2295.402	2.246	1	regulate	Run3	regulate/STIM_022.jpg
2301.058	1.369	1	regulate	Run3	regulate/STIM_022.jpg
2305.102	2.679	1	regulate	Run3	regulate/STIM_022.jpg
2310.565	1.342	1	regulate	Run3	regulate/STIM_023.jpg
2314.469	1.914	1	regulate	Run3	regulate/STIM_023.jpg
2318.178	1.306	1	regulate	Run3	regulate/STIM_023.jpg
2322.646	2.79	1	regulate	Run3	regulate/STIM_023.jpg
2328.346	1.607	1	regulate	Run3	regulate/STIM_024.jpg
2333.007	1.453	1	regulate	Run3	regulate/STIM_024.jpg
2336.533	2.159	1	regulate	Run3	regulate/STIM_024.jpg
2342.397	2.729	1	regulate	Run3	regulate/STIM_024.jpg
2347.02	2.787	1	regulate	Run3	regulate/STIM_025.jpg
2352.228	2.306	1	regulate	Run3	regulate/STIM_025.jpg
2356.442	2.766	1	regulate	Run3	regulate/STIM_025.jpg
2361.879	1.693	1	regulate	Run3	regulate/STIM_025.jpg
2365.493	2.508	1	regulate	Run3	regulate/STIM_026.jpg
2371.507	1.248	1	regulate	Run3	regulate/STIM_026.jpg
2374.899	2.301	1	regulate	Run3	regulate/STIM_026.jpg
2380.777	1.961	1	regulate	Run3	regulate/STIM_026.jpg
2385.806	1.752	1	regulate	Run3	regulate/STIM_027.jpg
2390.116	1.928	0	regulate	Run3	regulate/STIM_027.jpg
2394.517	1.37	1	regulate	Run3	regulate/STIM_027.jpg
2399.022	1.969	1	regulate	Run3	regulate/STIM_027.jpg
2403.757	2.367	1	regulate	Run3	regulate/STIM_028.jpg
2409.12	1.589	1	regulate	Run3	regulate/STIM_028.jpg
2413.092	1.49	1	regulate	Run3	regulate/STIM_028.jpg
2417.126	2.219	1	regulate	Run3	regulate/STIM_028.jpg
2421.132	2.204	1	regulate	Run3	regulate/STIM_029.jpg
2425.715	1.377	1	regulate	Run3	regulate/STIM_029.jpg
2430.227	2.623	1	regulate	Run3	regulate/STIM_029.jpg
2435.157	2.624	1	regulate	Run3	regulate/STIM_029.jpg
2440.141	1.79	1	observe	Run3	observe/STIM_000.jpg
2444.404	1.306	1	observe	Run3	observe/STIM_000.jpg
2448.072	1.707	1	observe	Run3	observe/STIM_000.jpg
2452.662	1.789	1	observe	Run3	observe/STIM_000.jpg
2458.12	1.475	1	observe	Run3	observe/STIM_001.jpg
2462.622	1.17	1	observe	Run3	observe/STIM_001.jpg
2466.452	1.229	1	observe	Run3	observe/STIM_001.jpg
2470.573	1.04	1	observe	Run3	observe/STIM_001.jpg
2474.101	1.504	1	observe	Run3	observe/STIM_002.jpg
2477.594	1.306	1	observe	Run3	observe/STIM_002.jpg
2482.73	1.727	0	observe	Run3	observe/STIM_002.jpg
2486.682	1.559	1	observe	Run3	observe/STIM_002.jpg
2491.673	1.34	1	observe	Run3	observe/STIM_003.jpg
2495.184	1.519	1	observe	Run3	observe/STIM_003.jpg
2499.2	0.955	1	observe	Run3	observe/STIM_003.jpg
2503.237	1.338	1	observe	Run3	observe/STIM_003.jpg
2506.75	1.186	1	observe	Run3	observe/STIM_004.jpg
2511.06	1.828	1	observe	Run3	observe/STIM_004.jpg
2515.516	1.692	0	observe	Run3	observe/STIM_004.jpg
2520.249	1.26	1	observe	Run3	observe/STIM_004.jpg
2524.44	1.3	1	observe	Run3	observe/STIM_005.jpg
2528.849	1.57	1	observe	Run3	observe/STIM_005.jpg
2533.529	1.246	1	observe	Run3	observe/STIM_005.jpg
2537.723	1.559	1	observe	Run3	observe/STIM_005.jpg
2541.949	1.056	1	observe	Run3	observe/STIM_006.jpg
2545.532	1.568	0	observe	Run3	observe/STIM_006.jpg
2549.406	0.969	1	observe	Run3	observe/STIM_006.jpg
2554.051	1.814	1	observe	Run3	observe/STIM_006.jpg
2559.079	1.617	1	observe	Run3	observe/STIM_007.jpg
2564.256	0.919	1	observe	Run3	observe/STIM_007.jpg
2568.804	1.046	1	observe	Run3	observe/STIM_007.jpg
2572.369	1.087	1	observe	Run3	observe/STIM_007.jpg
2577.285	1.645	1	observe	Run3	observe/STIM_008.jpg
2582.671	1.366	1	observe	Run3	observe/STIM_008.jpg
2586.208	1.305	1	observe	Run3	observe/STIM_008.jpg
2590.421	1.634	1	observe	Run3	observe/STIM_008.jpg
2594.245	1.565	1	observe	Run3	observe/STIM_009.jpg
2598.573	1.044	1	observe	Run3	observe/STIM_009.jpg
2602.424	1.378	1	observe	Run3	observe/STIM_009.jpg
2606.955	1.67	1	observe	Run3	observe/STIM_009.jpg
2610.716	1.129	1	observe	Run3	observe/STIM_010.jpg
2615.631	1.607	0	observe	Run3	observe/STIM_010.jpg
2620.964	1.695	1	observe	Run3	observe/STIM_010.jpg
2626.127	1.822	0	observe	Run3	observe/STIM_010.jpg
2631.038	1.139	1	observe	Run3	observe/STIM_011.jpg
2635.189	0.924	1	observe	Run3	observe/STIM_011.jpg
2638.99	1.067	1	observe	Run3	observe/STIM_011.jpg
2643.81	1.548	1	observe	Run3	observe/STIM_011.jpg
2648.783	1.456	1	observe	Run3	observe/STIM_012.jpg
2652.51	1.407	1	observe	Run3	observe/STIM_012.jpg
2657.569	1.162	1	observe	Run3	observe/STIM_012.jpg
2661.701	1.355	1	observe	Run3	observe/STIM_012.jpg
2665.025	1.121	1	observe	Run3	observe/STIM_013.jpg
2669.833	1.739	1	observe	Run3	observe/STIM_013.jpg
2674.406	1.048	1	observe	Run3	observe/STIM_013.jpg
2678.169	1.816	1	observe	Run3	observe/STIM_013.jpg
2683.749	1.535	1	observe	Run3	observe/STIM_014.jpg
2687.936	1.087	1	observe	Run3	observe/STIM_014.jpg
2690.954	1.781	1	observe	Run3	observe/STIM_014.jpg
2696.109	1.038	1	observe	Run3	observe/STIM_014.jpg
2699.245	1.285	1	observe	Run3	observe/STIM_015.jpg
2704.04	1.393	0	observe	Run3	observe/STIM_015.jpg
2708.475	1.172	1	observe	Run3	observe/STIM_015.jpg
2711.882	1.309	1	observe	Run3	observe/STIM_015.jpg
2716.611	1.148	1	observe	Run3	observe/STIM_016.jpg
2720.133	0.925	1	observe	Run3	observe/STIM_016.jpg
2723.169	1.271	1	observe	Run3	observe/STIM_016.jpg
2728.244	0.998	1	observe	Run3	observe/STIM_016.jpg
2732.302	1.298	1	observe	Run3	observe/STIM_017.jpg
2736.292	1.482	1	observe	Run3	observe/STIM_017.jpg
2740.576	1.509	1	observe	Run3	observe/STIM_017.jpg
2745.781	1.776	1	observe	Run3	observe/STIM_017.jpg
2749.57	1.744	0	observe	Run3	observe/STIM_018.jpg
2753.173	1.213	1	observe	Run3	observe/STIM_018.jpg
2756.756	0.996	1	observe	Run3	observe/STIM_018.jpg
2761.516	1.193	1	observe	Run3	observe/STIM_018.jpg
2765.132	1.811	1	observe	Run3	observe/STIM_019.jpg
2770.354	1.608	1	observe	Run3	observe/STIM_019.jpg
2775.12	1.31	1	observe	Run3	observe/STIM_019.jpg
2778.537	1.448	0	observe	Run3	observe/STIM_019.jpg
