onset	duration	accuracy	trial_type	learning_stage	stimulus
0.0	1.969	incorrect	regulate	Run1	regulate/STIM_000.jpg
4.988	1.786	correct	regulate	Run1	regulate/STIM_000.jpg
9.983	1.293	correct	regulate	Run1	regulate/STIM_000.jpg
14.375	1.527	correct	regulate	Run1	regulate/STIM_000.jpg
19.768	2.403	correct	regulate	Run1	regulate/STIM_001.jpg
24.438	1.592	correct	regulate	Run1	regulate/STIM_001.jpg
28.982	2.538	correct	regulate	Run1	regulate/STIM_001.jpg
35.454	1.571	correct	regulate	Run1	regulate/STIM_001.jpg
40.798	2.536	correct	regulate	Run1	regulate/STIM_002.jpg
46.208	1.842	correct	regulate	Run1	regulate/STIM_002.jpg
51.577	2.812	correct	regulate	Run1	regulate/STIM_002.jpg
57.271	2.041	correct	regulate	Run1	regulate/STIM_002.jpg
62.859	1.484	correct	regulate	Run1	regulate/STIM_003.jpg
67.67	1.668	correct	regulate	Run1	regulate/STIM_003.jpg
72.113	1.797	correct	regulate	Run1	regulate/STIM_003.jpg
77.831	1.869	correct	regulate	Run1	regulate/STIM_003.jpg
82.368	3.048	correct	regulate	Run1	regulate/STIM_004.jpg
87.929	2.106	correct	regulate	Run1	regulate/STIM_004.jpg
93.901	2.044	correct	regulate	Run1	regulate/STIM_004.jpg
99.285	1.182	correct	regulate	Run1	regulate/STIM_004.jpg
103.843	2.703	incorrect	regulate	Run1	regulate/STIM_005.jpg
109.075	1.416	correct	regulate	Run1	regulate/STIM_005.jpg
114.317	2.288	correct	regulate	Run1	regulate/STIM_005.jpg
120.046	1.604	correct	regulate	Run1	regulate/STIM_005.jpg
124.065	2.806	correct	regulate	Run1	regulate/STIM_006.jpg
129.495	3.054	correct	regulate	Run1	regulate/STIM_006.jpg
134.88	1.324	correct	regulate	Run1	regulate/STIM_006.jpg
139.928	2.646	correct	regulate	Run1	regulate/STIM_006.jpg
144.617	3.107	correct	regulate	Run1	regulate/STIM_007.jpg
151.633	3.025	correct	regulate	Run1	regulate/STIM_007.jpg
157.755	2.437	incorrect	regulate	Run1	regulate/STIM_007.jpg
162.434	1.958	correct	regulate	Run1	regulate/STIM_007.jpg
168.149	2.511	correct	regulate	Run1	regulate/STIM_008.jpg
173.534	2.249	correct	regulate	Run1	regulate/STIM_008.jpg
177.875	1.739	correct	regulate	Run1	regulate/STIM_008.jpg
182.809	1.266	correct	regulate	Run1	regulate/STIM_008.jpg
186.781	1.971	correct	regulate	Run1	regulate/STIM_009.jpg
191.56	2.162	correct	regulate	Run1	regulate/STIM_009.jpg
195.865	2.553	correct	regulate	Run1	regulate/STIM_009.jpg
201.762	2.115	correct	regulate	Run1	regulate/STIM_009.jpg
207.635	2.561	correct	regulate	Run1	regulate/STIM_010.jpg
213.635	2.446	correct	regulate	Run1	regulate/STIM_010.jpg
218.827	1.96	correct	regulate	Run1	regulate/STIM_010.jpg
223.863	1.671	correct	regulate	Run1	regulate/STIM_010.jpg
228.137	2.257	correct	regulate	Run1	regulate/STIM_011.jpg
232.488	1.638	correct	regulate	Run1	regulate/STIM_011.jpg
237.583	1.504	correct	regulate	Run1	regulate/STIM_011.jpg
242.241	2.032	correct	regulate	Run1	regulate/STIM_011.jpg
247.902	1.628	correct	regulate	Run1	regulate/STIM_012.jpg
253.468	2.701	correct	regulate	Run1	regulate/STIM_012.jpg
258.784	1.282	correct	regulate	Run1	regulate/STIM_012.jpg
263.124	2.275	correct	regulate	Run1	regulate/STIM_012.jpg
267.833	1.793	correct	regulate	Run1	regulate/STIM_013.jpg
273.375	2.98	correct	regulate	Run1	regulate/STIM_013.jpg
278.945	1.922	correct	regulate	Run1	regulate/STIM_013.jpg
283.699	1.212	correct	regulate	Run1	regulate/STIM_013.jpg
287.769	2.275	correct	regulate	Run1	regulate/STIM_014.jpg
293.366	3.039	correct	regulate	Run1	regulate/STIM_014.jpg
299.956	1.377	correct	regulate	Run1	regulate/STIM_014.jpg
303.889	1.558	correct	regulate	Run1	regulate/STIM_014.jpg
308.257	2.924	correct	regulate	Run1	regulate/STIM_015.jpg
314.269	2.906	correct	regulate	Run1	regulate/STIM_015.jpg
321.141	1.909	correct	regulate	Run1	regulate/STIM_015.jpg
326.738	2.518	correct	regulate	Run1	regulate/STIM_015.jpg
333.037	2.738	correct	regulate	Run1	regulate/STIM_016.jpg
338.26	1.772	correct	regulate	Run1	regulate/STIM_016.jpg
342.357	2.823	correct	regulate	Run1	regulate/STIM_016.jpg
348.847	2.077	correct	regulate	Run1	regulate/STIM_016.jpg
353.231	2.452	correct	regulate	Run1	regulate/STIM_017.jpg
359.094	2.102	correct	regulate	Run1	regulate/STIM_017.jpg
364.012	2.876	correct	regulate	Run1	regulate/STIM_017.jpg
369.082	2.658	incorrect	regulate	Run1	regulate/STIM_017.jpg
374.013	2.808	correct	regulate	Run1	regulate/STIM_018.jpg
379.151	2.358	correct	regulate	Run1	regulate/STIM_018.jpg
385.213	1.783	correct	regulate	Run1	regulate/STIM_018.jpg
390.401	1.248	correct	regulate	Run1	regulate/STIM_018.jpg
395.224	2.452	correct	regulate	Run1	regulate/STIM_019.jpg
400.513	1.768	correct	regulate	Run1	regulate/STIM_019.jpg
404.848	2.226	correct	regulate	Run1	regulate/STIM_019.jpg
409.572	1.785	incorrect	regulate	Run1	regulate/STIM_019.jpg
414.031	1.616	correct	regulate	Run1	regulate/STIM_020.jpg
418.809	1.588	correct	regulate	Run1	regulate/STIM_020.jpg
422.486	2.857	correct	regulate	Run1	regulate/STIM_020.jpg
428.983	1.328	correct	regulate	Run1	regulate/STIM_020.jpg
433.037	2.223	incorrect	regulate	Run1	regulate/STIM_021.jpg
437.864	2.731	correct	regulate	Run1	regulate/STIM_021.jpg
443.5	2.468	correct	regulate	Run1	regulate/STIM_021.jpg
448.643	1.452	correct	regulate	Run1	regulate/STIM_021.jpg
452.583	1.571	correct	regulate	Run1	regulate/STIM_022.jpg
456.229	2.442	correct	regulate	Run1	regulate/STIM_022.jpg
462.565	1.815	incorrect	regulate	Run1	regulate/STIM_022.jpg
468.099	1.497	correct	regulate	Run1	regulate/STIM_022.jpg
472.585	2.663	correct	regulate	Run1	regulate/STIM_023.jpg
478.53	1.96	correct	regulate	Run1	regulate/STIM_023.jpg
483.086	1.553	correct	regulate	Run1	regulate/STIM_023.jpg
488.273	1.251	correct	regulate	Run1	regulate/STIM_023.jpg
492.663	1.857	correct	regulate	Run1	regulate/STIM_024.jpg
497.76	2.038	correct	regulate	Run1	regulate/STIM_024.jpg
503.43	1.692	correct	regulate	Run1	regulate/STIM_024.jpg
508.099	2.523	correct	regulate	Run1	regulate/STIM_024.jpg
513.146	2.756	correct	regulate	Run1	regulate/STIM_025.jpg
518.651	2.07	correct	regulate	Run1	regulate/STIM_025.jpg
522.845	2.697	correct	regulate	Run1	regulate/STIM_025.jpg
527.901	2.054	correct	regulate	Run1	regulate/STIM_025.jpg
533.844	1.98	correct	regulate	Run1	regulate/STIM_026.jpg
537.972	1.676	incorrect	regulate	Run1	regulate/STIM_026.jpg
542.464	2.224	incorrect	regulate	Run1	regulate/STIM_026.jpg
547.675	2.034	correct	regulate	Run1	regulate/STIM_026.jpg
552.522	2.244	correct	regulate	Run1	regulate/STIM_027.jpg
558.238	1.626	correct	regulate	Run1	regulate/STIM_027.jpg
562.45	1.881	correct	regulate	Run1	regulate/STIM_027.jpg
567.006	2.423	correct	regulate	Run1	regulate/STIM_027.jpg
571.806	1.724	correct	regulate	Run1	regulate/STIM_028.jpg
577.053	1.493	correct	regulate	Run1	regulate/STIM_028.jpg
580.856	1.697	correct	regulate	Run1	regulate/STIM_028.jpg
584.926	1.627	correct	regulate	Run1	regulate/STIM_028.jpg
590.348	3.065	correct	regulate	Run1	regulate/STIM_029.jpg
597.237	2.002	correct	regulate	Run1	regulate/STIM_029.jpg
601.782	2.226	correct	regulate	Run1	regulate/STIM_029.jpg
607.444	1.394	correct	regulate	Run1	regulate/STIM_029.jpg
611.301	1.177	correct	observe	Run1	observe/STIM_000.jpg
614.982	1.319	correct	observe	Run1	observe/STIM_000.jpg
618.752	0.864	correct	observe	Run1	observe/STIM_000.jpg
623.58	1.395	correct	observe	Run1	observe/STIM_000.jpg
627.743	0.906	correct	observe	Run1	observe/STIM_001.jpg
631.01	0.899	correct	observe	Run1	observe/STIM_001.jpg
634.194	1.13	correct	observe	Run1	observe/STIM_001.jpg
637.644	0.969	correct	observe	Run1	observe/STIM_001.jpg
641.433	1.067	correct	observe	Run1	observe/STIM_002.jpg
646.014	1.438	correct	observe	Run1	observe/STIM_002.jpg
649.921	0.867	correct	observe	Run1	observe/STIM_002.jpg
654.595	1.144	correct	observe	Run1	observe/STIM_002.jpg
659.26	1.118	correct	observe	Run1	observe/STIM_003.jpg
663.787	1.256	correct	observe	Run1	observe/STIM_003.jpg
667.312	0.746	correct	observe	Run1	observe/STIM_003.jpg
671.964	1.024	correct	observe	Run1	observe/STIM_003.jpg
675.944	1.23	correct	observe	Run1	observe/STIM_004.jpg
680.061	1.456	correct	observe	Run1	observe/STIM_004.jpg
683.944	1.063	correct	observe	Run1	observe/STIM_004.jpg
687.011	1.069	correct	observe	Run1	observe/STIM_004.jpg
690.209	1.471	correct	observe	Run1	observe/STIM_005.jpg
694.805	0.743	correct	observe	Run1	observe/STIM_005.jpg
698.017	1.07	correct	observe	Run1	observe/STIM_005.jpg
701.969	0.892	correct	observe	Run1	observe/STIM_005.jpg
705.847	1.095	correct	observe	Run1	observe/STIM_006.jpg
710.05	0.954	correct	observe	Run1	observe/STIM_006.jpg
713.501	1.436	correct	observe	Run1	observe/STIM_006.jpg
718.412	1.131	correct	observe	Run1	observe/STIM_006.jpg
722.202	1.156	correct	observe	Run1	observe/STIM_007.jpg
725.844	1.323	correct	observe	Run1	observe/STIM_007.jpg
730.909	0.979	correct	observe	Run1	observe/STIM_007.jpg
734.915	1.364	correct	observe	Run1	observe/STIM_007.jpg
739.678	1.224	correct	observe	Run1	observe/STIM_008.jpg
744.576	1.271	correct	observe	Run1	observe/STIM_008.jpg
748.629	1.209	correct	observe	Run1	observe/STIM_008.jpg
753.775	1.052	correct	observe	Run1	observe/STIM_008.jpg
757.199	1.415	correct	observe	Run1	observe/STIM_009.jpg
762.584	1.357	correct	observe	Run1	observe/STIM_009.jpg
767.604	0.999	correct	observe	Run1	observe/STIM_009.jpg
771.401	0.902	correct	observe	Run1	observe/STIM_009.jpg
775.087	1.298	correct	observe	Run1	observe/STIM_010.jpg
778.788	0.94	correct	observe	Run1	observe/STIM_010.jpg
782.692	1.448	correct	observe	Run1	observe/STIM_010.jpg
786.522	1.268	correct	observe	Run1	observe/STIM_010.jpg
791.148	1.416	correct	observe	Run1	observe/STIM_011.jpg
795.774	0.755	correct	observe	Run1	observe/STIM_011.jpg
800.294	1.024	correct	observe	Run1	observe/STIM_011.jpg
804.939	1.041	correct	observe	Run1	observe/STIM_011.jpg
809.446	1.005	correct	observe	Run1	observe/STIM_012.jpg
812.686	0.993	correct	observe	Run1	observe/STIM_012.jpg
815.822	1.356	correct	observe	Run1	observe/STIM_012.jpg
819.33	1.153	correct	observe	Run1	observe/STIM_012.jpg
822.608	1.186	correct	observe	Run1	observe/STIM_013.jpg
825.878	1.287	correct	observe	Run1	observe/STIM_013.jpg
831.084	1.068	correct	observe	Run1	observe/STIM_013.jpg
834.956	1.426	correct	observe	Run1	observe/STIM_013.jpg
838.956	1.285	correct	observe	Run1	observe/STIM_014.jpg
843.476	1.192	correct	observe	Run1	observe/STIM_014.jpg
847.321	0.75	incorrect	observe	Run1	observe/STIM_014.jpg
850.829	1.252	correct	observe	Run1	observe/STIM_014.jpg
855.329	0.855	correct	observe	Run1	observe/STIM_015.jpg
858.686	1.386	correct	observe	Run1	observe/STIM_015.jpg
863.862	1.004	correct	observe	Run1	observe/STIM_015.jpg
867.735	1.077	correct	observe	Run1	observe/STIM_015.jpg
871.985	1.297	incorrect	observe	Run1	observe/STIM_016.jpg
876.593	1.302	correct	observe	Run1	observe/STIM_016.jpg
880.325	1.272	correct	observe	Run1	observe/STIM_016.jpg
884.214	0.984	correct	observe	Run1	observe/STIM_016.jpg
888.688	1.31	incorrect	observe	Run1	observe/STIM_017.jpg
893.119	0.787	correct	observe	Run1	observe/STIM_017.jpg
895.949	1.346	correct	observe	Run1	observe/STIM_017.jpg
900.549	0.995	correct	observe	Run1	observe/STIM_017.jpg
903.73	1.051	incorrect	observe	Run1	observe/STIM_018.jpg
908.574	1.399	correct	observe	Run1	observe/STIM_018.jpg
912.013	1.061	correct	observe	Run1	observe/STIM_018.jpg
916.779	1.163	correct	observe	Run1	observe/STIM_018.jpg
921.912	1.232	correct	observe	Run1	observe/STIM_019.jpg
925.207	1.199	incorrect	observe	Run1	observe/STIM_019.jpg
929.717	1.261	correct	observe	Run1	observe/STIM_019.jpg
934.279	0.772	correct	observe	Run1	observe/STIM_019.jpg
938.094	1.829	correct	regulate	Run2	regulate/STIM_000.jpg
942.667	2.399	correct	regulate	Run2	regulate/STIM_000.jpg
948.006	2.266	correct	regulate	Run2	regulate/STIM_000.jpg
952.377	1.297	correct	regulate	Run2	regulate/STIM_000.jpg
956.44	2.332	correct	regulate	Run2	regulate/STIM_001.jpg
961.269	1.888	correct	regulate	Run2	regulate/STIM_001.jpg
966.542	2.182	correct	regulate	Run2	regulate/STIM_001.jpg
972.455	1.402	correct	regulate	Run2	regulate/STIM_001.jpg
976.979	2.136	correct	regulate	Run2	regulate/STIM_002.jpg
982.962	1.297	correct	regulate	Run2	regulate/STIM_002.jpg
988.003	2.144	correct	regulate	Run2	regulate/STIM_002.jpg
992.864	1.864	correct	regulate	Run2	regulate/STIM_002.jpg
997.746	1.208	correct	regulate	Run2	regulate/STIM_003.jpg
1002.919	2.332	correct	regulate	Run2	regulate/STIM_003.jpg
1007.356	2.262	correct	regulate	Run2	regulate/STIM_003.jpg
1012.887	2.18	correct	regulate	Run2	regulate/STIM_003.jpg
1018.939	2.164	correct	regulate	Run2	regulate/STIM_004.jpg
1023.486	1.336	correct	regulate	Run2	regulate/STIM_004.jpg
1028.761	2.043	correct	regulate	Run2	regulate/STIM_004.jpg
1033.095	2.227	correct	regulate	Run2	regulate/STIM_004.jpg
1038.368	2.312	incorrect	regulate	Run2	regulate/STIM_005.jpg
1043.058	1.888	incorrect	regulate	Run2	regulate/STIM_005.jpg
1048.114	1.362	correct	regulate	Run2	regulate/STIM_005.jpg
1051.921	1.664	correct	regulate	Run2	regulate/STIM_005.jpg
1056.25	2.071	correct	regulate	Run2	regulate/STIM_006.jpg
1060.918	1.546	incorrect	regulate	Run2	regulate/STIM_006.jpg
1065.188	1.945	correct	regulate	Run2	regulate/STIM_006.jpg
1069.388	1.418	correct	regulate	Run2	regulate/STIM_006.jpg
1074.352	1.652	correct	regulate	Run2	regulate/STIM_007.jpg
1078.629	1.513	correct	regulate	Run2	regulate/STIM_007.jpg
1084.081	2.104	correct	regulate	Run2	regulate/STIM_007.jpg
1088.719	1.056	correct	regulate	Run2	regulate/STIM_007.jpg
1093.467	1.636	correct	regulate	Run2	regulate/STIM_008.jpg
1097.464	1.866	correct	regulate	Run2	regulate/STIM_008.jpg
1101.366	1.973	correct	regulate	Run2	regulate/STIM_008.jpg
1105.482	1.875	correct	regulate	Run2	regulate/STIM_008.jpg
1110.119	2.601	correct	regulate	Run2	regulate/STIM_009.jpg
1115.588	2.217	correct	regulate	Run2	regulate/STIM_009.jpg
1121.097	1.226	correct	regulate	Run2	regulate/STIM_009.jpg
1125.214	2.158	correct	regulate	Run2	regulate/STIM_009.jpg
1130.044	2.196	incorrect	regulate	Run2	regulate/STIM_010.jpg
1135.58	1.935	correct	regulate	Run2	regulate/STIM_010.jpg
1141.273	2.22	correct	regulate	Run2	regulate/STIM_010.jpg
1145.725	2.116	correct	regulate	Run2	regulate/STIM_010.jpg
1150.135	2.427	correct	regulate	Run2	regulate/STIM_011.jpg
1155.412	2.099	correct	regulate	Run2	regulate/STIM_011.jpg
1160.12	1.294	correct	regulate	Run2	regulate/STIM_011.jpg
1164.667	1.532	correct	regulate	Run2	regulate/STIM_011.jpg
1169.12	1.814	correct	regulate	Run2	regulate/STIM_012.jpg
1174.683	2.28	correct	regulate	Run2	regulate/STIM_012.jpg
1180.743	1.436	correct	regulate	Run2	regulate/STIM_012.jpg
1185.226	1.951	correct	regulate	Run2	regulate/STIM_012.jpg
1190.124	2.102	correct	regulate	Run2	regulate/STIM_013.jpg
1194.299	2.475	correct	regulate	Run2	regulate/STIM_013.jpg
1200.266	2.332	correct	regulate	Run2	regulate/STIM_013.jpg
1205.82	2.028	correct	regulate	Run2	regulate/STIM_013.jpg
1210.412	1.952	correct	regulate	Run2	regulate/STIM_014.jpg
1214.872	2.577	correct	regulate	Run2	regulate/STIM_014.jpg
1220.868	1.451	correct	regulate	Run2	regulate/STIM_014.jpg
1224.438	1.448	correct	regulate	Run2	regulate/STIM_014.jpg
1229.705	2.297	correct	regulate	Run2	regulate/STIM_015.jpg
1235.994	1.508	correct	regulate	Run2	regulate/STIM_015.jpg
1240.067	1.23	correct	regulate	Run2	regulate/STIM_015.jpg
1243.745	1.337	correct	regulate	Run2	regulate/STIM_015.jpg
1247.369	2.559	correct	regulate	Run2	regulate/STIM_016.jpg
1252.16	1.303	correct	regulate	Run2	regulate/STIM_016.jpg
1256.446	1.156	correct	regulate	Run2	regulate/STIM_016.jpg
1260.614	1.501	correct	regulate	Run2	regulate/STIM_016.jpg
1265.048	1.823	incorrect	regulate	Run2	regulate/STIM_017.jpg
1270.762	1.866	correct	regulate	Run2	regulate/STIM_017.jpg
1276.58	2.282	correct	regulate	Run2	regulate/STIM_017.jpg
1281.281	1.42	correct	regulate	Run2	regulate/STIM_017.jpg
1285.894	1.871	correct	regulate	Run2	regulate/STIM_018.jpg
1290.145	1.77	correct	regulate	Run2	regulate/STIM_018.jpg
1295.31	1.396	correct	regulate	Run2	regulate/STIM_018.jpg
1299.119	1.609	correct	regulate	Run2	regulate/STIM_018.jpg
1304.283	2.331	correct	regulate	Run2	regulate/STIM_019.jpg
1309.424	1.795	correct	regulate	Run2	regulate/STIM_019.jpg
1313.715	1.142	correct	regulate	Run2	regulate/STIM_019.jpg
1318.091	1.771	correct	regulate	Run2	regulate/STIM_019.jpg
1322.881	1.619	correct	regulate	Run2	regulate/STIM_020.jpg
1327.298	1.227	correct	regulate	Run2	regulate/STIM_020.jpg
1332.359	1.773	incorrect	regulate	Run2	regulate/STIM_020.jpg
1337.066	1.801	correct	regulate	Run2	regulate/STIM_020.jpg
1342.29	2.375	correct	regulate	Run2	regulate/STIM_021.jpg
1346.938	1.521	correct	regulate	Run2	regulate/STIM_021.jpg
1351.015	1.769	correct	regulate	Run2	regulate/STIM_021.jpg
1356.774	1.131	correct	regulate	Run2	regulate/STIM_021.jpg
1360.367	1.975	correct	regulate	Run2	regulate/STIM_022.jpg
1365.405	2.358	correct	regulate	Run2	regulate/STIM_022.jpg
1369.785	2.096	correct	regulate	Run2	regulate/STIM_022.jpg
1374.881	1.347	correct	regulate	Run2	regulate/STIM_022.jpg
1380.065	2.027	correct	regulate	Run2	regulate/STIM_023.jpg
1385.299	1.389	correct	regulate	Run2	regulate/STIM_023.jpg
1390.606	1.847	correct	regulate	Run2	regulate/STIM_023.jpg
1395.926	1.407	correct	regulate	Run2	regulate/STIM_023.jpg
1400.955	1.801	incorrect	regulate	Run2	regulate/STIM_024.jpg
1405.67	1.624	correct	regulate	Run2	regulate/STIM_024.jpg
1409.469	1.995	correct	regulate	Run2	regulate/STIM_024.jpg
1414.001	1.513	correct	regulate	Run2	regulate/STIM_024.jpg
1418.366	1.695	correct	regulate	Run2	regulate/STIM_025.jpg
1423.198	2.108	correct	regulate	Run2	regulate/STIM_025.jpg
1428.561	1.92	correct	regulate	Run2	regulate/STIM_025.jpg
1434.025	1.98	correct	regulate	Run2	regulate/STIM_025.jpg
1438.734	1.896	correct	regulate	Run2	regulate/STIM_026.jpg
1444.443	1.387	correct	regulate	Run2	regulate/STIM_026.jpg
1448.123	2.144	correct	regulate	Run2	regulate/STIM_026.jpg
1453.729	2.049	correct	regulate	Run2	regulate/STIM_026.jpg
1458.145	1.401	correct	regulate	Run2	regulate/STIM_027.jpg
1463.214	1.563	correct	regulate	Run2	regulate/STIM_027.jpg
1468.681	1.793	correct	regulate	Run2	regulate/STIM_027.jpg
1473.545	2.03	correct	regulate	Run2	regulate/STIM_027.jpg
1478.009	1.941	correct	regulate	Run2	regulate/STIM_028.jpg
1482.348	1.393	correct	regulate	Run2	regulate/STIM_028.jpg
1486.15	2.338	correct	regulate	Run2	regulate/STIM_028.jpg
1491.731	1.736	correct	regulate	Run2	regulate/STIM_028.jpg
1496.596	1.74	correct	regulate	Run2	regulate/STIM_029.jpg
1501.103	2.141	correct	regulate	Run2	regulate/STIM_029.jpg
1507.113	2.182	correct	regulate	Run2	regulate/STIM_029.jpg
1512.971	2.224	correct	regulate	Run2	regulate/STIM_029.jpg
1517.929	1.238	correct	observe	Run2	observe/STIM_000.jpg
1522.988	1.408	correct	observe	Run2	observe/STIM_000.jpg
1527.441	0.94	correct	observe	Run2	observe/STIM_000.jpg
1531.447	1.028	correct	observe	Run2	observe/STIM_000.jpg
1535.775	0.807	correct	observe	Run2	observe/STIM_001.jpg
1539.053	0.784	correct	observe	Run2	observe/STIM_001.jpg
1543.114	1.402	correct	observe	Run2	observe/STIM_001.jpg
1547.111	1.293	correct	observe	Run2	observe/STIM_001.jpg
1552.117	1.442	correct	observe	Run2	observe/STIM_002.jpg
1556.51	0.954	correct	observe	Run2	observe/STIM_002.jpg
1559.942	1.222	correct	observe	Run2	observe/STIM_002.jpg
1563.246	1.432	correct	observe	Run2	observe/STIM_002.jpg
1568.369	1.303	correct	observe	Run2	observe/STIM_003.jpg
1573.44	1.006	correct	observe	Run2	observe/STIM_003.jpg
1576.793	1.419	correct	observe	Run2	observe/STIM_003.jpg
1580.616	1.162	correct	observe	Run2	observe/STIM_003.jpg
1584.034	1.337	correct	observe	Run2	observe/STIM_004.jpg
1589.245	1.099	correct	observe	Run2	observe/STIM_004.jpg
1592.484	0.894	correct	observe	Run2	observe/STIM_004.jpg
1596.591	1.256	correct	observe	Run2	observe/STIM_004.jpg
1600.785	1.468	correct	observe	Run2	observe/STIM_005.jpg
1604.315	1.423	correct	observe	Run2	observe/STIM_005.jpg
1609.585	1.199	correct	observe	Run2	observe/STIM_005.jpg
1613.379	1.355	incorrect	observe	Run2	observe/STIM_005.jpg
1616.957	0.946	correct	observe	Run2	observe/STIM_006.jpg
1620.842	1.36	correct	observe	Run2	observe/STIM_006.jpg
1624.616	1.186	correct	observe	Run2	observe/STIM_006.jpg
1628.417	1.074	correct	observe	Run2	observe/STIM_006.jpg
1632.045	0.896	correct	observe	Run2	observe/STIM_007.jpg
1636.062	1.003	correct	observe	Run2	observe/STIM_007.jpg
1640.479	1.378	correct	observe	Run2	observe/STIM_007.jpg
1644.004	1.308	correct	observe	Run2	observe/STIM_007.jpg
1649.184	0.805	correct	observe	Run2	observe/STIM_008.jpg
1653.649	0.863	correct	observe	Run2	observe/STIM_008.jpg
1657.166	1.047	correct	observe	Run2	observe/STIM_008.jpg
1661.019	1.412	correct	observe	Run2	observe/STIM_008.jpg
1664.668	0.99	correct	observe	Run2	observe/STIM_009.jpg
1668.365	0.896	correct	observe	Run2	observe/STIM_009.jpg
1671.907	1.275	correct	observe	Run2	observe/STIM_009.jpg
1675.455	0.927	correct	observe	Run2	observe/STIM_009.jpg
1679.016	0.997	correct	observe	Run2	observe/STIM_010.jpg
1683.558	0.966	correct	observe	Run2	observe/STIM_010.jpg
1686.841	0.93	correct	observe	Run2	observe/STIM_010.jpg
1691.075	1.283	correct	observe	Run2	observe/STIM_010.jpg
1696.236	0.814	correct	observe	Run2	observe/STIM_011.jpg
1700.343	1.345	correct	observe	Run2	observe/STIM_011.jpg
1705.272	1.326	correct	observe	Run2	observe/STIM_011.jpg
1709.101	0.958	incorrect	observe	Run2	observe/STIM_011.jpg
1713.546	0.986	correct	observe	Run2	observe/STIM_012.jpg
1717.08	0.871	correct	observe	Run2	observe/STIM_012.jpg
1721.334	1.188	correct	observe	Run2	observe/STIM_012.jpg
1724.711	1.064	correct	observe	Run2	observe/STIM_012.jpg
1729.199	0.855	correct	observe	Run2	observe/STIM_013.jpg
1732.804	0.859	correct	observe	Run2	observe/STIM_013.jpg
1736.246	1.083	correct	observe	Run2	observe/STIM_013.jpg
1739.822	1.065	correct	observe	Run2	observe/STIM_013.jpg
1743.83	1.379	correct	observe	Run2	observe/STIM_014.jpg
1748.285	0.92	correct	observe	Run2	observe/STIM_014.jpg
1751.658	1.467	correct	observe	Run2	observe/STIM_014.jpg
1755.598	0.994	correct	observe	Run2	observe/STIM_014.jpg
1760.308	1.088	correct	observe	Run2	observe/STIM_015.jpg
1764.079	1.388	correct	observe	Run2	observe/STIM_015.jpg
1768.796	1.348	correct	observe	Run2	observe/STIM_015.jpg
1772.734	1.412	correct	observe	Run2	observe/STIM_015.jpg
1776.416	0.984	correct	observe	Run2	observe/STIM_016.jpg
1781.013	0.789	correct	observe	Run2	observe/STIM_016.jpg
1785.196	0.943	correct	observe	Run2	observe/STIM_016.jpg
1788.493	0.795	correct	observe	Run2	observe/STIM_016.jpg
1792.606	0.795	correct	observe	Run2	observe/STIM_017.jpg
1796.992	1.471	correct	observe	Run2	observe/STIM_017.jpg
1802.082	0.978	correct	observe	Run2	observe/STIM_017.jpg
1805.167	1.164	correct	observe	Run2	observe/STIM_017.jpg
1809.6	0.795	correct	observe	Run2	observe/STIM_018.jpg
1813.971	1.347	correct	observe	Run2	observe/STIM_018.jpg
1817.685	1.218	correct	observe	Run2	observe/STIM_018.jpg
1820.94	0.959	correct	observe	Run2	observe/STIM_018.jpg
1825.439	0.754	correct	observe	Run2	observe/STIM_019.jpg
1829.613	1.37	correct	observe	Run2	observe/STIM_019.jpg
1833.298	0.778	correct	observe	Run2	observe/STIM_019.jpg
1836.539	1.38	correct	observe	Run2	observe/STIM_019.jpg
1841.483	2.023	correct	regulate	Run3	regulate/STIM_000.jpg
1846.27	1.404	correct	regulate	Run3	regulate/STIM_000.jpg
1849.693	2.078	correct	regulate	Run3	regulate/STIM_000.jpg
1854.408	1.51	correct	regulate	Run3	regulate/STIM_000.jpg
1858.113	1.332	correct	regulate	Run3	regulate/STIM_001.jpg
1862.389	1.033	correct	regulate	Run3	regulate/STIM_001.jpg
1865.585	2.241	correct	regulate	Run3	regulate/STIM_001.jpg
1871.451	1.879	correct	regulate	Run3	regulate/STIM_001.jpg
1876.909	1.056	correct	regulate	Run3	regulate/STIM_002.jpg
1880.56	1.092	correct	regulate	Run3	regulate/STIM_002.jpg
1885.643	2.177	correct	regulate	Run3	regulate/STIM_002.jpg
1891.163	2.018	correct	regulate	Run3	regulate/STIM_002.jpg
1896.79	2.085	correct	regulate	Run3	regulate/STIM_003.jpg
1901.141	1.131	correct	regulate	Run3	regulate/STIM_003.jpg
1905.844	1.904	correct	regulate	Run3	regulate/STIM_003.jpg
1910.112	1.577	correct	regulate	Run3	regulate/STIM_003.jpg
1915.246	1.653	correct	regulate	Run3	regulate/STIM_004.jpg
1920.88	2.138	incorrect	regulate	Run3	regulate/STIM_004.jpg
1926.131	1.28	correct	regulate	Run3	regulate/STIM_004.jpg
1929.644	1.531	correct	regulate	Run3	regulate/STIM_004.jpg
1933.413	1.232	correct	regulate	Run3	regulate/STIM_005.jpg
1938.197	1.458	correct	regulate	Run3	regulate/STIM_005.jpg
1941.986	1.492	correct	regulate	Run3	regulate/STIM_005.jpg
1945.798	1.839	correct	regulate	Run3	regulate/STIM_005.jpg
1950.827	1.148	correct	regulate	Run3	regulate/STIM_006.jpg
1954.792	2.042	correct	regulate	Run3	regulate/STIM_006.jpg
1959.036	2.213	correct	regulate	Run3	regulate/STIM_006.jpg
1965.185	1.018	correct	regulate	Run3	regulate/STIM_006.jpg
1969.267	1.555	correct	regulate	Run3	regulate/STIM_007.jpg
1974.615	1.248	correct	regulate	Run3	regulate/STIM_007.jpg
1979.097	2.226	correct	regulate	Run3	regulate/STIM_007.jpg
1984.014	1.178	correct	regulate	Run3	regulate/STIM_007.jpg
1987.245	1.627	correct	regulate	Run3	regulate/STIM_008.jpg
1992.461	1.117	correct	regulate	Run3	regulate/STIM_008.jpg
1996.371	1.772	correct	regulate	Run3	regulate/STIM_008.jpg
2002.042	1.436	correct	regulate	Run3	regulate/STIM_008.jpg
2006.172	1.907	incorrect	regulate	Run3	regulate/STIM_009.jpg
2011.224	2.142	correct	regulate	Run3	regulate/STIM_009.jpg
2016.708	1.743	correct	regulate	Run3	regulate/STIM_009.jpg
2021.385	1.406	correct	regulate	Run3	regulate/STIM_009.jpg
2026.213	1.343	correct	regulate	Run3	regulate/STIM_010.jpg
2030.952	1.79	correct	regulate	Run3	regulate/STIM_010.jpg
2036.132	1.147	correct	regulate	Run3	regulate/STIM_010.jpg
2040.937	1.004	correct	regulate	Run3	regulate/STIM_010.jpg
2044.592	1.234	correct	regulate	Run3	regulate/STIM_011.jpg
2047.946	2.016	correct	regulate	Run3	regulate/STIM_011.jpg
2052.606	1.155	correct	regulate	Run3	regulate/STIM_011.jpg
2057.569	1.102	correct	regulate	Run3	regulate/STIM_011.jpg
2061.521	1.986	correct	regulate	Run3	regulate/STIM_012.jpg
2066.794	2.18	correct	regulate	Run3	regulate/STIM_012.jpg
2071.083	2.176	correct	regulate	Run3	regulate/STIM_012.jpg
2075.459	1.878	correct	regulate	Run3	regulate/STIM_012.jpg
2080.444	1.198	correct	regulate	Run3	regulate/STIM_013.jpg
2085.176	1.658	correct	regulate	Run3	regulate/STIM_013.jpg
2089.281	1.094	correct	regulate	Run3	regulate/STIM_013.jpg
2093.205	1.892	incorrect	regulate	Run3	regulate/STIM_013.jpg
2097.939	2.136	correct	regulate	Run3	regulate/STIM_014.jpg
2102.434	1.05	correct	regulate	Run3	regulate/STIM_014.jpg
2105.56	1.826	correct	regulate	Run3	regulate/STIM_014.jpg
2110.175	1.619	correct	regulate	Run3	regulate/STIM_014.jpg
2115.616	2.185	correct	regulate	Run3	regulate/STIM_015.jpg
2120.129	1.193	correct	regulate	Run3	regulate/STIM_015.jpg
2123.971	2.248	correct	regulate	Run3	regulate/STIM_015.jpg
2129.799	1.18	correct	regulate	Run3	regulate/STIM_015.jpg
2134.924	1.873	correct	regulate	Run3	regulate/STIM_016.jpg
2139.161	1.331	correct	regulate	Run3	regulate/STIM_016.jpg
2142.603	1.047	correct	regulate	Run3	regulate/STIM_016.jpg
2146.731	1.038	correct	regulate	Run3	regulate/STIM_016.jpg
2149.776	1.001	correct	regulate	Run3	regulate/STIM_017.jpg
2153.333	1.534	correct	regulate	Run3	regulate/STIM_017.jpg
2158.427	1.759	incorrect	regulate	Run3	regulate/STIM_017.jpg
2163.456	1.591	correct	regulate	Run3	regulate/STIM_017.jpg
2167.389	2.113	correct	regulate	Run3	regulate/STIM_018.jpg
2172.485	1.63	correct	regulate	Run3	regulate/STIM_018.jpg
2176.873	1.486	correct	regulate	Run3	regulate/STIM_018.jpg
2181.185	1.26	correct	regulate	Run3	regulate/STIM_018.jpg
2185.342	1.223	correct	regulate	Run3	regulate/STIM_019.jpg
2189.487	1.316	correct	regulate	Run3	regulate/STIM_019.jpg
2193.333	1.642	correct	regulate	Run3	regulate/STIM_019.jpg
2197.722	1.968	correct	regulate	Run3	regulate/STIM_019.jpg
2201.733	1.814	correct	regulate	Run3	regulate/STIM_020.jpg
2207.45	1.665	correct	regulate	Run3	regulate/STIM_020.jpg
2213.05	1.655	correct	regulate	Run3	regulate/STIM_020.jpg
2218.024	2.242	correct	regulate	Run3	regulate/STIM_020.jpg
2224.236	1.987	correct	regulate	Run3	regulate/STIM_021.jpg
2228.666	2.174	correct	regulate	Run3	regulate/STIM_021.jpg
2233.441	1.285	correct	regulate	Run3	regulate/STIM_021.jpg
2237.006	1.464	correct	regulate	Run3	regulate/STIM_021.jpg
2241.59	1.324	correct	regulate	Run3	regulate/STIM_022.jpg
2245.377	1.919	correct	regulate	Run3	regulate/STIM_022.jpg
2250.908	2.126	correct	regulate	Run3	regulate/STIM_022.jpg
2256.291	1.733	correct	regulate	Run3	regulate/STIM_022.jpg
2260.799	1.365	correct	regulate	Run3	regulate/STIM_023.jpg
2266.163	1.538	correct	regulate	Run3	regulate/STIM_023.jpg
2270.825	1.506	correct	regulate	Run3	regulate/STIM_023.jpg
2276.123	1.984	correct	regulate	Run3	regulate/STIM_023.jpg
2281.213	2.215	correct	regulate	Run3	regulate/STIM_024.jpg
2285.495	2.046	correct	regulate	Run3	regulate/STIM_024.jpg
2289.932	1.378	correct	regulate	Run3	regulate/STIM_024.jpg
2295.109	1.837	correct	regulate	Run3	regulate/STIM_024.jpg
2299.956	2.037	correct	regulate	Run3	regulate/STIM_025.jpg
2304.13	1.775	correct	regulate	Run3	regulate/STIM_025.jpg
2309.225	1.769	correct	regulate	Run3	regulate/STIM_025.jpg
2313.864	1.234	correct	regulate	Run3	regulate/STIM_025.jpg
2318.283	1.516	correct	regulate	Run3	regulate/STIM_026.jpg
2323.315	1.797	correct	regulate	Run3	regulate/STIM_026.jpg
2328.555	1.41	correct	regulate	Run3	regulate/STIM_026.jpg
2332.472	2.046	correct	regulate	Run3	regulate/STIM_026.jpg
2337.214	1.799	correct	regulate	Run3	regulate/STIM_027.jpg
2341.14	0.984	correct	regulate	Run3	regulate/STIM_027.jpg
2345.307	1.34	correct	regulate	Run3	regulate/STIM_027.jpg
2350.207	1.746	correct	regulate	Run3	regulate/STIM_027.jpg
2355.561	1.072	correct	regulate	Run3	regulate/STIM_028.jpg
2360.429	2.231	correct	regulate	Run3	regulate/STIM_028.jpg
2365.644	2.067	correct	regulate	Run3	regulate/STIM_028.jpg
2371.019	1.452	correct	regulate	Run3	regulate/STIM_028.jpg
2375.387	1.701	correct	regulate	Run3	regulate/STIM_029.jpg
2380.879	1.895	correct	regulate	Run3	regulate/STIM_029.jpg
2384.943	2.149	correct	regulate	Run3	regulate/STIM_029.jpg
2389.364	1.594	correct	regulate	Run3	regulate/STIM_029.jpg
2394.729	1.02	correct	observe	Run3	observe/STIM_000.jpg
2399.682	1.398	correct	observe	Run3	observe/STIM_000.jpg
2404.042	0.812	correct	observe	Run3	observe/STIM_000.jpg
2407.28	1.081	correct	observe	Run3	observe/STIM_000.jpg
2411.584	1.31	correct	observe	Run3	observe/STIM_001.jpg
2415.964	0.994	correct	observe	Run3	observe/STIM_001.jpg
2419.997	1.424	correct	observe	Run3	observe/STIM_001.jpg
2424.948	0.971	correct	observe	Run3	observe/STIM_001.jpg
2429.885	1.35	correct	observe	Run3	observe/STIM_002.jpg
2433.969	0.831	correct	observe	Run3	observe/STIM_002.jpg
2437.521	1.411	correct	observe	Run3	observe/STIM_002.jpg
2442.66	1.205	correct	observe	Run3	observe/STIM_002.jpg
2446.261	1.01	correct	observe	Run3	observe/STIM_003.jpg
2450.605	1.445	correct	observe	Run3	observe/STIM_003.jpg
2455.881	0.96	correct	observe	Run3	observe/STIM_003.jpg
2459.991	0.954	correct	observe	Run3	observe/STIM_003.jpg
2463.472	0.894	correct	observe	Run3	observe/STIM_004.jpg
2466.867	1.058	correct	observe	Run3	observe/STIM_004.jpg
2470.095	0.866	correct	observe	Run3	observe/STIM_004.jpg
2474.322	0.827	correct	observe	Run3	observe/STIM_004.jpg
2477.974	1.21	correct	observe	Run3	observe/STIM_005.jpg
2483.089	1.072	correct	observe	Run3	observe/STIM_005.jpg
2486.77	0.975	correct	observe	Run3	observe/STIM_005.jpg
2489.764	1.197	correct	observe	Run3	observe/STIM_005.jpg
2494.105	1.402	correct	observe	Run3	observe/STIM_006.jpg
2498.875	0.977	correct	observe	Run3	observe/STIM_006.jpg
2501.969	1.099	correct	observe	Run3	observe/STIM_006.jpg
2506.774	1.181	correct	observe	Run3	observe/STIM_006.jpg
2510.967	1.132	correct	observe	Run3	observe/STIM_007.jpg
2515.026	1.261	correct	observe	Run3	observe/STIM_007.jpg
2518.96	1.032	correct	observe	Run3	observe/STIM_007.jpg
2523.92	1.437	correct	observe	Run3	observe/STIM_007.jpg
2528.836	1.443	correct	observe	Run3	observe/STIM_008.jpg
2532.885	0.863	correct	observe	Run3	observe/STIM_008.jpg
2536.095	1.116	correct	observe	Run3	observe/STIM_008.jpg
2540.294	1.174	correct	observe	Run3	observe/STIM_008.jpg
2543.971	1.286	correct	observe	Run3	observe/STIM_009.jpg
2547.685	1.217	correct	observe	Run3	observe/STIM_009.jpg
2552.153	1.403	correct	observe	Run3	observe/STIM_009.jpg
2556.183	0.949	correct	observe	Run3	observe/STIM_009.jpg
2559.903	1.213	correct	observe	Run3	observe/STIM_010.jpg
2564.063	0.824	correct	observe	Run3	observe/STIM_010.jpg
2567.333	1.251	correct	observe	Run3	observe/STIM_010.jpg
2571.697	1.083	correct	observe	Run3	observe/STIM_010.jpg
2576.032	1.28	correct	observe	Run3	observe/STIM_011.jpg
2580.135	0.904	correct	observe	Run3	observe/STIM_011.jpg
2584.736	1.47	correct	observe	Run3	observe/STIM_011.jpg
2589.805	0.793	correct	observe	Run3	observe/STIM_011.jpg
2593.521	1.108	correct	observe	Run3	observe/STIM_012.jpg
2597.647	1.17	correct	observe	Run3	observe/STIM_012.jpg
2602.032	0.753	correct	observe	Run3	observe/STIM_012.jpg
2606.13	0.907	correct	observe	Run3	observe/STIM_012.jpg
2610.678	0.923	correct	observe	Run3	observe/STIM_013.jpg
2614.637	1.463	correct	observe	Run3	observe/STIM_013.jpg
2619.448	0.936	correct	observe	Run3	observe/STIM_013.jpg
2622.77	0.826	correct	observe	Run3	observe/STIM_013.jpg
2627.298	1.437	correct	observe	Run3	observe/STIM_014.jpg
2632.448	1.373	correct	observe	Run3	observe/STIM_014.jpg
2636.85	1.379	correct	observe	Run3	observe/STIM_014.jpg
2641.23	1.448	correct	observe	Run3	observe/STIM_014.jpg
2645.279	0.744	correct	observe	Run3	observe/STIM_015.jpg
2649.235	1.252	incorrect	observe	Run3	observe/STIM_015.jpg
2653.22	0.833	correct	observe	Run3	observe/STIM_015.jpg
2657.839	1.344	correct	observe	Run3	observe/STIM_015.jpg
2662.631	1.295	correct	observe	Run3	observe/STIM_016.jpg
2666.282	1.248	correct	observe	Run3	observe/STIM_016.jpg
2670.38	0.781	correct	observe	Run3	observe/STIM_016.jpg
2674.446	1.047	correct	observe	Run3	observe/STIM_016.jpg
2677.776	1.192	correct	observe	Run3	observe/STIM_017.jpg
2682.966	0.765	correct	observe	Run3	observe/STIM_017.jpg
2686.435	0.98	correct	observe	Run3	observe/STIM_017.jpg
2690.503	1.312	correct	observe	Run3	observe/STIM_017.jpg
2695.206	1.372	correct	observe	Run3	observe/STIM_018.jpg
2699.861	1.047	correct	observe	Run3	observe/STIM_018.jpg
2704.063	1.425	correct	observe	Run3	observe/STIM_018.jpg
2708.347	1.002	correct	observe	Run3	observe/STIM_018.jpg
2712.843	1.254	correct	observe	Run3	observe/STIM_019.jpg
2716.194	0.794	correct	observe	Run3	observe/STIM_019.jpg
2719.888	1.175	correct	observe	Run3	observe/STIM_019.jpg
2724.788	0.873	correct	observe	Run3	observe/STIM_019.jpg
