onset	duration	response_time_ms	trial_type	learning_stage	stimulus	response_port
0.0	1.382	1381.9	study	Phase1	study/STIM_000.jpg	99
4.538	1.451	1450.6	study	Phase1	study/STIM_000.jpg	100
8.449	1.503	1502.6	study	Phase1	study/STIM_000.jpg	100
12.853	1.458	1458.4	study	Phase1	study/STIM_001.jpg	100
17.149	1.118	1118.1	study	Phase1	study/STIM_001.jpg	99
20.605	1.481	1480.9	study	Phase1	study/STIM_001.jpg	100
24.516	1.383	1382.7	study	Phase1	study/STIM_002.jpg	100
28.198	1.664	1663.6	study	Phase1	study/STIM_002.jpg	99
32.11	0.991	991.3	study	Phase1	study/STIM_002.jpg	99
35.48	1.318	1318.2	study	Phase1	study/STIM_003.jpg	99
39.736	1.257	1257.0	study	Phase1	study/STIM_003.jpg	100
43.373	1.504	1504.2	study	Phase1	study/STIM_003.jpg	100
47.992	1.795	1794.8	study	Phase1	study/STIM_004.jpg	99
53.111	1.739	1739.0	study	Phase1	study/STIM_004.jpg	99
58.062	1.747	1747.4	study	Phase1	study/STIM_004.jpg	99
61.982	1.137	1136.6	study	Phase1	study/STIM_005.jpg	99
65.116	1.447	1446.7	study	Phase1	study/STIM_005.jpg	99
68.811	1.325	1325.1	study	Phase1	study/STIM_005.jpg	99
73.058	1.705	1705.0	study	Phase1	study/STIM_006.jpg	99
76.725	0.87	869.5	study	Phase1	study/STIM_006.jpg	99
79.626	1.569	1568.9	study	Phase1	study/STIM_006.jpg	100
84.896	1.474	1474.1	study	Phase1	study/STIM_007.jpg	99
89.743	1.649	1649.4	study	Phase1	study/STIM_007.jpg	99
95.051	1.212	1211.6	study	Phase1	study/STIM_007.jpg	99
98.911	1.864	1864.0	study	Phase1	study/STIM_008.jpg	100
103.128	1.53	1529.8	study	Phase1	study/STIM_008.jpg	100
106.991	1.065	1064.7	study	Phase1	study/STIM_008.jpg	100
111.764	1.6	1600.0	study	Phase1	study/STIM_009.jpg	100
116.326	0.928	928.1	study	Phase1	study/STIM_009.jpg	100
120.26	1.081	1080.8	study	Phase1	study/STIM_009.jpg	99
124.208	1.626	1625.5	study	Phase1	study/STIM_010.jpg	100
129.279	1.686	1686.3	study	Phase1	study/STIM_010.jpg	100
134.711	1.055	1055.3	study	Phase1	study/STIM_010.jpg	99
139.408	1.524	1523.8	study	Phase1	study/STIM_011.jpg	99
143.616	1.487	1486.9	study	Phase1	study/STIM_011.jpg	99
148.909	1.629	1629.3	study	Phase1	study/STIM_011.jpg	99
153.737	1.082	1082.3	study	Phase1	study/STIM_012.jpg	99
158.453	1.316	1315.5	study	Phase1	study/STIM_012.jpg	99
162.713	1.263	1263.3	study	Phase1	study/STIM_012.jpg	99
166.779	1.738	1738.2	study	Phase1	study/STIM_013.jpg	99
170.667	1.201	1200.8	study	Phase1	study/STIM_013.jpg	99
175.664	1.152	1152.1	study	Phase1	study/STIM_013.jpg	100
180.02	1.335	1334.9	study	Phase1	study/STIM_014.jpg	99
185.028	1.416	1416.4	study	Phase1	study/STIM_014.jpg	99
188.392	1.493	1492.7	study	Phase1	study/STIM_014.jpg	99
192.457	1.116	1116.5	study	Phase1	study/STIM_015.jpg	100
196.33	1.528	1528.3	study	Phase1	study/STIM_015.jpg	99
200.539	1.6	1600.2	study	Phase1	study/STIM_015.jpg	99
205.201	1.144	1144.0	study	Phase1	study/STIM_016.jpg	100
210.066	1.387	1387.0	study	Phase1	study/STIM_016.jpg	100
215.168	1.778	1777.8	study	Phase1	study/STIM_016.jpg	100
218.744	1.981	1980.9	study	Phase1	study/STIM_017.jpg	99
222.558	0.884	883.5	study	Phase1	study/STIM_017.jpg	99
226.612	1.311	1311.2	study	Phase1	study/STIM_017.jpg	100
230.647	1.396	1395.6	study	Phase1	study/STIM_018.jpg	99
234.449	1.007	1007.4	study	Phase1	study/STIM_018.jpg	100
238.023	1.4	1399.8	study	Phase1	study/STIM_018.jpg	100
241.956	1.322	1321.7	study	Phase1	study/STIM_019.jpg	100
247.075	1.124	1124.3	study	Phase1	study/STIM_019.jpg	99
251.473	0.801	801.2	study	Phase1	study/STIM_019.jpg	100
255.711	1.614	1614.0	study	Phase1	study/STIM_020.jpg	99
260.304	1.069	1068.9	study	Phase1	study/STIM_020.jpg	99
264.976	1.682	1681.7	study	Phase1	study/STIM_020.jpg	99
270.077	1.703	1702.7	study	Phase1	study/STIM_021.jpg	99
274.462	1.248	1247.6	study	Phase1	study/STIM_021.jpg	99
279.299	0.868	867.7	study	Phase1	study/STIM_021.jpg	100
283.628	1.814	1814.1	study	Phase1	study/STIM_022.jpg	99
288.265	1.851	1850.6	study	Phase1	study/STIM_022.jpg	100
292.69	1.659	1659.1	study	Phase1	study/STIM_022.jpg	100
297.853	1.313	1313.1	study	Phase1	study/STIM_023.jpg	100
301.432	0.998	997.5	study	Phase1	study/STIM_023.jpg	99
305.663	1.066	1066.4	study	Phase1	study/STIM_023.jpg	99
309.608	1.398	1398.1	study	Phase1	study/STIM_024.jpg	100
314.254	1.343	1342.8	study	Phase1	study/STIM_024.jpg	99
319.204	1.22	1220.5	study	Phase1	study/STIM_024.jpg	100
323.368	1.614	1614.2	study	Phase1	study/STIM_025.jpg	99
328.416	1.571	1571.3	study	Phase1	study/STIM_025.jpg	100
332.654	1.816	1816.3	study	Phase1	study/STIM_025.jpg	99
337.395	1.267	1266.6	study	Phase1	study/STIM_026.jpg	99
340.6	0.894	894.3	study	Phase1	study/STIM_026.jpg	100
344.272	1.156	1156.1	study	Phase1	study/STIM_026.jpg	99
348.703	1.146	1145.9	study	Phase1	study/STIM_027.jpg	99
353.62	1.516	1515.8	study	Phase1	study/STIM_027.jpg	99
358.543	1.263	1263.3	study	Phase1	study/STIM_027.jpg	99
362.149	1.29	1290.1	study	Phase1	study/STIM_028.jpg	100
365.469	1.142	1141.9	study	Phase1	study/STIM_028.jpg	99
368.68	1.442	1441.8	study	Phase1	study/STIM_028.jpg	99
373.179	1.307	1307.3	study	Phase1	study/STIM_029.jpg	100
377.527	1.569	1568.8	study	Phase1	study/STIM_029.jpg	100
382.21	1.301	1300.8	study	Phase1	study/STIM_029.jpg	100
386.651	1.244	1244.2	test	Phase1	test/STIM_000.jpg	100
390.908	0.741	740.8	test	Phase1	test/STIM_000.jpg	100
394.138	1.398	1397.8	test	Phase1	test/STIM_000.jpg	100
398.487	0.884	884.1	test	Phase1	test/STIM_001.jpg	99
403.061	1.395	1395.2	test	Phase1	test/STIM_001.jpg	100
407.88	1.036	1036.0	test	Phase1	test/STIM_001.jpg	99
412.271	1.182	1182.4	test	Phase1	test/STIM_002.jpg	100
415.45	0.896	895.5	test	Phase1	test/STIM_002.jpg	99
418.933	1.022	1021.6	test	Phase1	test/STIM_002.jpg	99
422.773	1.086	1085.7	test	Phase1	test/STIM_003.jpg	99
426.838	1.172	1172.4	test	Phase1	test/STIM_003.jpg	99
430.546	0.681	681.2	test	Phase1	test/STIM_003.jpg	100
433.691	0.759	759.1	test	Phase1	test/STIM_004.jpg	99
438.333	0.833	832.8	test	Phase1	test/STIM_004.jpg	100
441.241	1.173	1173.1	test	Phase1	test/STIM_004.jpg	99
446.116	0.713	713.4	test	Phase1	test/STIM_005.jpg	99
448.977	0.932	931.9	test	Phase1	test/STIM_005.jpg	99
453.425	1.322	1321.6	test	Phase1	test/STIM_005.jpg	100
458.298	0.975	975.1	test	Phase1	test/STIM_006.jpg	100
462.888	0.892	892.1	test	Phase1	test/STIM_006.jpg	100
465.936	1.104	1103.5	test	Phase1	test/STIM_006.jpg	99
469.482	1.173	1172.9	test	Phase1	test/STIM_007.jpg	99
474.433	1.119	1119.0	test	Phase1	test/STIM_007.jpg	99
478.948	0.83	829.5	test	Phase1	test/STIM_007.jpg	99
482.686	0.654	654.1	test	Phase1	test/STIM_008.jpg	100
486.247	0.859	858.9	test	Phase1	test/STIM_008.jpg	99
489.849	1.27	1269.5	test	Phase1	test/STIM_008.jpg	100
494.053	1.094	1093.5	test	Phase1	test/STIM_009.jpg	99
497.371	0.83	830.1	test	Phase1	test/STIM_009.jpg	100
501.004	1.29	1289.9	test	Phase1	test/STIM_009.jpg	99
504.545	1.053	1052.8	test	Phase1	test/STIM_010.jpg	100
508.35	1.113	1112.6	test	Phase1	test/STIM_010.jpg	100
512.956	1.392	1392.5	test	Phase1	test/STIM_010.jpg	100
516.469	0.712	711.9	test	Phase1	test/STIM_011.jpg	99
520.012	1.185	1184.9	test	Phase1	test/STIM_011.jpg	99
524.868	1.377	1377.2	test	Phase1	test/STIM_011.jpg	99
529.831	1.044	1043.8	test	Phase1	test/STIM_012.jpg	99
534.339	0.73	730.1	test	Phase1	test/STIM_012.jpg	99
538.345	1.298	1298.3	test	Phase1	test/STIM_012.jpg	99
542.594	0.63	629.5	test	Phase1	test/STIM_013.jpg	99
545.907	0.708	708.1	test	Phase1	test/STIM_013.jpg	99
549.173	1.531	1531.0	test	Phase1	test/STIM_013.jpg	100
552.803	1.032	1032.4	test	Phase1	test/STIM_014.jpg	100
556.721	1.134	1133.6	test	Phase1	test/STIM_014.jpg	99
561.069	0.95	950.4	test	Phase1	test/STIM_014.jpg	99
565.64	0.805	804.6	test	Phase1	test/STIM_015.jpg	100
569.808	1.374	1374.5	test	Phase1	test/STIM_015.jpg	100
573.612	0.787	786.8	test	Phase1	test/STIM_015.jpg	99
576.977	1.128	1128.0	test	Phase1	test/STIM_016.jpg	99
580.421	0.737	736.8	test	Phase1	test/STIM_016.jpg	99
584.767	1.15	1150.2	test	Phase1	test/STIM_016.jpg	99
588.724	0.878	877.9	test	Phase1	test/STIM_017.jpg	100
592.906	1.164	1163.6	test	Phase1	test/STIM_017.jpg	99
597.391	1.348	1348.0	test	Phase1	test/STIM_017.jpg	99
602.105	1.087	1087.0	test	Phase1	test/STIM_018.jpg	100
606.153	1.128	1128.1	test	Phase1	test/STIM_018.jpg	99
610.016	0.872	871.6	test	Phase1	test/STIM_018.jpg	100
613.034	0.784	783.9	test	Phase1	test/STIM_019.jpg	99
616.492	1.381	1380.9	test	Phase1	test/STIM_019.jpg	99
620.551	1.02	1020.1	test	Phase1	test/STIM_019.jpg	100
623.469	0.764	763.5	test	Phase1	test/STIM_020.jpg	100
628.193	1.125	1125.3	test	Phase1	test/STIM_020.jpg	100
631.736	0.715	715.0	test	Phase1	test/STIM_020.jpg	99
636.048	1.042	1042.1	test	Phase1	test/STIM_021.jpg	100
639.658	1.125	1124.6	test	Phase1	test/STIM_021.jpg	100
643.261	1.212	1212.0	test	Phase1	test/STIM_021.jpg	99
647.553	1.373	1373.1	test	Phase1	test/STIM_022.jpg	99
652.544	0.756	756.1	test	Phase1	test/STIM_022.jpg	99
656.421	1.142	1142.5	test	Phase1	test/STIM_022.jpg	99
661.01	1.441	1440.9	test	Phase1	test/STIM_023.jpg	100
666.082	1.059	1059.0	test	Phase1	test/STIM_023.jpg	99
669.423	1.204	1203.7	test	Phase1	test/STIM_023.jpg	99
674.344	1.176	1176.3	test	Phase1	test/STIM_024.jpg	99
677.797	1.309	1308.9	test	Phase1	test/STIM_024.jpg	99
681.69	1.085	1085.3	test	Phase1	test/STIM_024.jpg	99
685.278	0.739	739.1	test	Phase1	test/STIM_025.jpg	99
688.715	0.938	937.8	test	Phase1	test/STIM_025.jpg	99
693.354	0.864	864.0	test	Phase1	test/STIM_025.jpg	100
697.868	0.688	687.6	test	Phase1	test/STIM_026.jpg	99
701.314	1.231	1231.4	test	Phase1	test/STIM_026.jpg	100
705.765	0.973	972.6	test	Phase1	test/STIM_026.jpg	99
710.439	0.796	796.1	test	Phase1	test/STIM_027.jpg	99
713.389	0.987	987.0	test	Phase1	test/STIM_027.jpg	99
716.675	1.371	1371.0	test	Phase1	test/STIM_027.jpg	100
720.613	1.273	1273.3	test	Phase1	test/STIM_028.jpg	99
724.372	1.243	1242.8	test	Phase1	test/STIM_028.jpg	100
727.887	1.343	1342.6	test	Phase1	test/STIM_028.jpg	100
732.047	1.031	1030.9	test	Phase1	test/STIM_029.jpg	100
736.034	0.986	986.0	test	Phase1	test/STIM_029.jpg	99
739.221	1.197	1197.4	test	Phase1	test/STIM_029.jpg	99
743.611	1.568	1568.5	study	Phase2	study/STIM_000.jpg	99
747.584	1.477	1476.9	study	Phase2	study/STIM_000.jpg	99
752.324	0.719	719.4	study	Phase2	study/STIM_000.jpg	99
756.133	1.12	1120.2	study	Phase2	study/STIM_001.jpg	99
760.435	0.792	792.5	study	Phase2	study/STIM_001.jpg	99
764.168	0.869	868.6	study	Phase2	study/STIM_001.jpg	100
767.54	1.053	1053.2	study	Phase2	study/STIM_002.jpg	99
771.807	1.573	1572.9	study	Phase2	study/STIM_002.jpg	100
775.983	0.799	799.3	study	Phase2	study/STIM_002.jpg	99
779.529	1.412	1412.4	study	Phase2	study/STIM_003.jpg	100
784.499	1.236	1235.7	study	Phase2	study/STIM_003.jpg	100
787.724	1.161	1160.7	study	Phase2	study/STIM_003.jpg	99
791.91	0.846	846.5	study	Phase2	study/STIM_004.jpg	100
795.206	0.83	829.6	study	Phase2	study/STIM_004.jpg	99
799.13	1.289	1289.1	study	Phase2	study/STIM_004.jpg	100
803.185	1.223	1223.1	study	Phase2	study/STIM_005.jpg	99
808.149	1.491	1490.8	study	Phase2	study/STIM_005.jpg	100
811.47	1.332	1331.7	study	Phase2	study/STIM_005.jpg	100
815.235	0.807	806.7	study	Phase2	study/STIM_006.jpg	99
819.65	1.348	1347.7	study	Phase2	study/STIM_006.jpg	99
823.217	1.114	1113.6	study	Phase2	study/STIM_006.jpg	99
827.834	1.465	1465.1	study	Phase2	study/STIM_007.jpg	100
832.672	1.049	1049.1	study	Phase2	study/STIM_007.jpg	100
836.808	1.194	1194.2	study	Phase2	study/STIM_007.jpg	100
841.189	0.879	878.7	study	Phase2	study/STIM_008.jpg	99
845.255	0.953	952.9	study	Phase2	study/STIM_008.jpg	99
848.381	1.036	1035.6	study	Phase2	study/STIM_008.jpg	99
851.865	1.282	1282.2	study	Phase2	study/STIM_009.jpg	100
855.024	1.475	1475.3	study	Phase2	study/STIM_009.jpg	100
860.123	0.77	770.3	study	Phase2	study/STIM_009.jpg	99
863.397	1.071	1070.9	study	Phase2	study/STIM_010.jpg	100
866.393	1.346	1345.5	study	Phase2	study/STIM_010.jpg	99
871.192	1.335	1335.1	study	Phase2	study/STIM_010.jpg	99
874.801	1.451	1450.8	study	Phase2	study/STIM_011.jpg	99
878.401	1.23	1229.6	study	Phase2	study/STIM_011.jpg	100
883.324	1.119	1119.0	study	Phase2	study/STIM_011.jpg	99
888.366	1.241	1240.7	study	Phase2	study/STIM_012.jpg	99
893.33	0.936	935.7	study	Phase2	study/STIM_012.jpg	99
897.426	0.832	831.6	study	Phase2	study/STIM_012.jpg	99
900.945	1.366	1365.9	study	Phase2	study/STIM_013.jpg	100
904.532	0.941	940.7	study	Phase2	study/STIM_013.jpg	99
908.688	1.299	1299.1	study	Phase2	study/STIM_013.jpg	99
912.326	1.196	1195.6	study	Phase2	study/STIM_014.jpg	100
915.876	1.123	1122.8	study	Phase2	study/STIM_014.jpg	99
920.805	1.445	1444.9	study	Phase2	study/STIM_014.jpg	100
925.82	1.464	1463.6	study	Phase2	study/STIM_015.jpg	99
929.234	1.133	1132.6	study	Phase2	study/STIM_015.jpg	100
933.406	0.825	825.0	study	Phase2	study/STIM_015.jpg	99
936.773	0.974	973.8	study	Phase2	study/STIM_016.jpg	99
940.704	1.508	1508.2	study	Phase2	study/STIM_016.jpg	99
945.699	1.406	1406.3	study	Phase2	study/STIM_016.jpg	99
949.654	0.865	865.1	study	Phase2	study/STIM_017.jpg	100
952.514	1.379	1378.7	study	Phase2	study/STIM_017.jpg	100
957.645	0.984	984.0	study	Phase2	study/STIM_017.jpg	100
961.125	0.972	972.2	study	Phase2	study/STIM_018.jpg	99
966.055	1.09	1090.4	study	Phase2	study/STIM_018.jpg	100
970.681	1.41	1409.6	study	Phase2	study/STIM_018.jpg	99
974.651	0.924	923.8	study	Phase2	study/STIM_019.jpg	100
979.413	1.407	1406.7	study	Phase2	study/STIM_019.jpg	100
983.141	1.596	1595.6	study	Phase2	study/STIM_019.jpg	100
988.17	1.075	1074.7	study	Phase2	study/STIM_020.jpg	99
992.816	0.769	768.7	study	Phase2	study/STIM_020.jpg	100
997.433	1.256	1255.9	study	Phase2	study/STIM_020.jpg	100
1002.072	0.823	822.9	study	Phase2	study/STIM_021.jpg	100
1005.786	1.144	1143.7	study	Phase2	study/STIM_021.jpg	99
1010.283	0.764	764.4	study	Phase2	study/STIM_021.jpg	99
1012.895	0.855	854.8	study	Phase2	study/STIM_022.jpg	100
1017.31	0.921	921.4	study	Phase2	study/STIM_022.jpg	99
1021.423	0.858	858.1	study	Phase2	study/STIM_022.jpg	99
1026.018	1.268	1267.5	study	Phase2	study/STIM_023.jpg	100
1030.389	1.236	1235.6	study	Phase2	study/STIM_023.jpg	100
1033.684	0.741	741.3	study	Phase2	study/STIM_023.jpg	100
1036.92	1.257	1257.2	study	Phase2	study/STIM_024.jpg	99
1041.768	1.295	1295.1	study	Phase2	study/STIM_024.jpg	99
1045.952	0.75	750.3	study	Phase2	study/STIM_024.jpg	99
1050.263	0.949	948.7	study	Phase2	study/STIM_025.jpg	100
1053.767	0.993	992.7	study	Phase2	study/STIM_025.jpg	99
1056.988	0.836	836.0	study	Phase2	study/STIM_025.jpg	99
1060.548	1.384	1384.1	study	Phase2	study/STIM_026.jpg	100
1064.864	0.915	915.4	study	Phase2	study/STIM_026.jpg	99
1067.75	1.026	1026.4	study	Phase2	study/STIM_026.jpg	100
1071.038	1.003	1003.3	study	Phase2	study/STIM_027.jpg	99
1074.077	0.997	997.0	study	Phase2	study/STIM_027.jpg	100
1077.703	1.013	1013.2	study	Phase2	study/STIM_027.jpg	100
1081.946	1.59	1589.6	study	Phase2	study/STIM_028.jpg	99
1087.021	1.566	1566.2	study	Phase2	study/STIM_028.jpg	99
1091.656	1.452	1451.8	study	Phase2	study/STIM_028.jpg	99
1096.877	0.777	777.1	study	Phase2	study/STIM_029.jpg	100
1101.597	1.058	1058.5	study	Phase2	study/STIM_029.jpg	99
1104.601	1.273	1273.0	study	Phase2	study/STIM_029.jpg	99
1108.488	0.641	641.0	test	Phase2	test/STIM_000.jpg	99
1112.887	1.313	1312.8	test	Phase2	test/STIM_000.jpg	99
1116.102	1.287	1287.1	test	Phase2	test/STIM_000.jpg	99
1119.506	0.906	905.7	test	Phase2	test/STIM_001.jpg	100
1123.368	1.418	1417.5	test	Phase2	test/STIM_001.jpg	99
1127.991	0.986	985.9	test	Phase2	test/STIM_001.jpg	99
1131.746	0.905	904.8	test	Phase2	test/STIM_002.jpg	99
1136.212	1.017	1017.4	test	Phase2	test/STIM_002.jpg	100
1140.249	0.767	766.7	test	Phase2	test/STIM_002.jpg	100
1143.503	1.179	1179.2	test	Phase2	test/STIM_003.jpg	99
1148.18	1.475	1475.1	test	Phase2	test/STIM_003.jpg	100
1152.91	0.678	678.5	test	Phase2	test/STIM_003.jpg	99
1155.812	1.004	1004.0	test	Phase2	test/STIM_004.jpg	99
1159.3	1.252	1252.1	test	Phase2	test/STIM_004.jpg	99
1163.468	1.021	1021.1	test	Phase2	test/STIM_004.jpg	99
1166.505	0.893	893.1	test	Phase2	test/STIM_005.jpg	100
1170.507	1.247	1246.6	test	Phase2	test/STIM_005.jpg	99
1174.438	1.296	1296.2	test	Phase2	test/STIM_005.jpg	99
1177.848	1.059	1059.2	test	Phase2	test/STIM_006.jpg	100
1181.998	1.192	1191.9	test	Phase2	test/STIM_006.jpg	100
1185.954	0.778	777.6	test	Phase2	test/STIM_006.jpg	100
1190.467	0.869	869.3	test	Phase2	test/STIM_007.jpg	99
1193.771	0.823	823.2	test	Phase2	test/STIM_007.jpg	100
1197.52	1.442	1442.1	test	Phase2	test/STIM_007.jpg	99
1201.241	0.874	873.6	test	Phase2	test/STIM_008.jpg	100
1204.343	1.282	1281.9	test	Phase2	test/STIM_008.jpg	99
1209.472	1.046	1046.4	test	Phase2	test/STIM_008.jpg	99
1213.153	1.28	1280.2	test	Phase2	test/STIM_009.jpg	100
1216.894	0.893	892.7	test	Phase2	test/STIM_009.jpg	100
1220.262	1.065	1064.9	test	Phase2	test/STIM_009.jpg	100
1223.339	0.766	766.5	test	Phase2	test/STIM_010.jpg	100
1227.457	1.045	1045.2	test	Phase2	test/STIM_010.jpg	99
1231.759	0.878	878.0	test	Phase2	test/STIM_010.jpg	100
1235.98	1.186	1185.8	test	Phase2	test/STIM_011.jpg	99
1240.502	0.678	678.0	test	Phase2	test/STIM_011.jpg	99
1243.687	1.121	1120.9	test	Phase2	test/STIM_011.jpg	100
1248.365	1.082	1082.1	test	Phase2	test/STIM_012.jpg	100
1252.89	1.389	1389.1	test	Phase2	test/STIM_012.jpg	99
1256.414	1.376	1375.5	test	Phase2	test/STIM_012.jpg	99
1260.831	1.448	1448.5	test	Phase2	test/STIM_013.jpg	100
1264.555	1.045	1044.7	test	Phase2	test/STIM_013.jpg	100
1268.409	1.114	1114.2	test	Phase2	test/STIM_013.jpg	99
1272.673	1.318	1318.2	test	Phase2	test/STIM_014.jpg	99
1277.24	1.276	1276.2	test	Phase2	test/STIM_014.jpg	100
1281.037	0.724	723.7	test	Phase2	test/STIM_014.jpg	100
1284.303	0.901	900.9	test	Phase2	test/STIM_015.jpg	99
1288.15	1.277	1276.9	test	Phase2	test/STIM_015.jpg	99
1292.027	1.263	1262.7	test	Phase2	test/STIM_015.jpg	99
1295.685	0.75	749.6	test	Phase2	test/STIM_016.jpg	99
1299.707	1.186	1186.2	test	Phase2	test/STIM_016.jpg	99
1304.396	1.08	1080.2	test	Phase2	test/STIM_016.jpg	99
1309.342	1.399	1399.0	test	Phase2	test/STIM_017.jpg	99
1312.634	1.35	1349.5	test	Phase2	test/STIM_017.jpg	100
1317.556	0.966	966.0	test	Phase2	test/STIM_017.jpg	99
1320.428	1.276	1276.3	test	Phase2	test/STIM_018.jpg	99
1324.389	1.25	1250.1	test	Phase2	test/STIM_018.jpg	100
1327.574	1.003	1003.3	test	Phase2	test/STIM_018.jpg	99
1331.803	1.477	1476.7	test	Phase2	test/STIM_019.jpg	99
1335.53	0.952	951.7	test	Phase2	test/STIM_019.jpg	100
1338.827	1.189	1188.6	test	Phase2	test/STIM_019.jpg	100
1343.356	1.394	1394.4	test	Phase2	test/STIM_020.jpg	100
1347.884	1.053	1052.8	test	Phase2	test/STIM_020.jpg	99
1351.413	1.07	1069.5	test	Phase2	test/STIM_020.jpg	99
1356.011	0.739	739.3	test	Phase2	test/STIM_021.jpg	100
1359.344	0.683	683.3	test	Phase2	test/STIM_021.jpg	99
1362.826	1.258	1257.9	test	Phase2	test/STIM_021.jpg	100
1367.438	0.727	726.7	test	Phase2	test/STIM_022.jpg	99
1370.948	1.098	1097.6	test	Phase2	test/STIM_022.jpg	100
1374.441	1.423	1422.6	test	Phase2	test/STIM_022.jpg	99
1378.825	0.888	887.6	test	Phase2	test/STIM_023.jpg	100
1383.141	0.873	872.8	test	Phase2	test/STIM_023.jpg	100
1387.357	1.124	1124.4	test	Phase2	test/STIM_023.jpg	100
1391.499	0.712	712.4	test	Phase2	test/STIM_024.jpg	99
1395.096	0.967	966.8	test	Phase2	test/STIM_024.jpg	99
1398.049	0.854	854.3	test	Phase2	test/STIM_024.jpg	100
1400.896	0.925	925.3	test	Phase2	test/STIM_025.jpg	99
1404.23	1.198	1197.6	test	Phase2	test/STIM_025.jpg	100
1408.498	1.52	1520.0	test	Phase2	test/STIM_025.jpg	99
1413.483	1.496	1496.1	test	Phase2	test/STIM_026.jpg	99
1417.4	1.236	1236.1	test	Phase2	test/STIM_026.jpg	99
1420.814	0.949	949.1	test	Phase2	test/STIM_026.jpg	100
1424.298	1.336	1336.1	test	Phase2	test/STIM_027.jpg	99
1428.179	1.095	1095.0	test	Phase2	test/STIM_027.jpg	100
1431.661	1.074	1073.5	test	Phase2	test/STIM_027.jpg	99
1435.215	0.682	681.5	test	Phase2	test/STIM_028.jpg	100
1439.486	1.324	1324.1	test	Phase2	test/STIM_028.jpg	100
1443.881	1.4	1399.6	test	Phase2	test/STIM_028.jpg	100
1448.945	1.407	1407.3	test	Phase2	test/STIM_029.jpg	100
1452.695	0.866	866.0	test	Phase2	test/STIM_029.jpg	100
1457.237	1.326	1325.6	test	Phase2	test/STIM_029.jpg	100
1461.676	1.075	1075.3	study	Phase3	study/STIM_000.jpg	99
1465.894	1.422	1421.8	study	Phase3	study/STIM_000.jpg	99
1469.358	0.73	730.4	study	Phase3	study/STIM_000.jpg	100
1472.617	0.89	890.1	study	Phase3	study/STIM_001.jpg	99
1476.994	0.919	919.4	study	Phase3	study/STIM_001.jpg	99
1481.482	1.348	1348.5	study	Phase3	study/STIM_001.jpg	99
1485.266	1.268	1267.8	study	Phase3	study/STIM_002.jpg	99
1489.056	0.936	935.7	study	Phase3	study/STIM_002.jpg	100
1492.289	0.885	885.3	study	Phase3	study/STIM_002.jpg	99
1496.827	1.351	1351.2	study	Phase3	study/STIM_003.jpg	99
1500.506	1.139	1139.1	study	Phase3	study/STIM_003.jpg	100
1504.251	0.793	793.3	study	Phase3	study/STIM_003.jpg	99
1507.813	0.813	812.9	study	Phase3	study/STIM_004.jpg	100
1510.713	1.34	1340.5	study	Phase3	study/STIM_004.jpg	99
1514.809	1.223	1223.3	study	Phase3	study/STIM_004.jpg	99
1518.313	0.938	937.6	study	Phase3	study/STIM_005.jpg	100
1522.386	1.055	1055.4	study	Phase3	study/STIM_005.jpg	99
1526.213	0.94	940.0	study	Phase3	study/STIM_005.jpg	99
1530.204	1.346	1346.1	study	Phase3	study/STIM_006.jpg	100
1534.831	1.096	1095.7	study	Phase3	study/STIM_006.jpg	99
1538.966	0.642	642.1	study	Phase3	study/STIM_006.jpg	99
1541.612	0.912	912.1	study	Phase3	study/STIM_007.jpg	100
1544.642	1.257	1256.9	study	Phase3	study/STIM_007.jpg	100
1549.36	0.869	868.8	study	Phase3	study/STIM_007.jpg	99
1552.613	1.233	1232.6	study	Phase3	study/STIM_008.jpg	100
1556.509	0.932	932.5	study	Phase3	study/STIM_008.jpg	99
1559.568	1.087	1086.9	study	Phase3	study/STIM_008.jpg	100
1562.665	0.858	857.5	study	Phase3	study/STIM_009.jpg	99
1567.167	1.102	1101.6	study	Phase3	study/STIM_009.jpg	100
1571.195	1.108	1107.5	study	Phase3	study/STIM_009.jpg	100
1575.991	0.64	639.8	study	Phase3	study/STIM_010.jpg	100
1580.033	1.397	1397.3	study	Phase3	study/STIM_010.jpg	99
1584.54	0.681	681.4	study	Phase3	study/STIM_010.jpg	99
1589.128	0.927	926.7	study	Phase3	study/STIM_011.jpg	100
1593.86	0.716	716.5	study	Phase3	study/STIM_011.jpg	99
1597.743	0.758	757.5	study	Phase3	study/STIM_011.jpg	99
1600.665	1.175	1175.4	study	Phase3	study/STIM_012.jpg	100
1603.656	1.384	1383.9	study	Phase3	study/STIM_012.jpg	99
1607.416	0.812	811.5	study	Phase3	study/STIM_012.jpg	99
1612.13	0.91	910.0	study	Phase3	study/STIM_013.jpg	100
1616.639	1.067	1066.8	study	Phase3	study/STIM_013.jpg	99
1621.445	1.238	1238.3	study	Phase3	study/STIM_013.jpg	100
1625.817	1.312	1312.5	study	Phase3	study/STIM_014.jpg	100
1630.49	1.384	1383.6	study	Phase3	study/STIM_014.jpg	99
1633.935	0.798	798.1	study	Phase3	study/STIM_014.jpg	99
1637.217	1.403	1403.3	study	Phase3	study/STIM_015.jpg	99
1641.362	1.208	1207.8	study	Phase3	study/STIM_015.jpg	100
1645.177	0.734	733.6	study	Phase3	study/STIM_015.jpg	100
1649.526	1.185	1185.2	study	Phase3	study/STIM_016.jpg	99
1652.822	1.279	1279.0	study	Phase3	study/STIM_016.jpg	100
1656.729	1.294	1294.2	study	Phase3	study/STIM_016.jpg	99
1660.804	1.21	1210.1	study	Phase3	study/STIM_017.jpg	99
1665.01	0.882	882.3	study	Phase3	study/STIM_017.jpg	100
1669.009	0.636	635.8	study	Phase3	study/STIM_017.jpg	99
1672.155	1.184	1183.5	study	Phase3	study/STIM_018.jpg	99
1676.656	1.12	1119.9	study	Phase3	study/STIM_018.jpg	99
1681.49	0.816	816.4	study	Phase3	study/STIM_018.jpg	100
1685.559	1.127	1126.9	study	Phase3	study/STIM_019.jpg	99
1688.786	1.14	1140.5	study	Phase3	study/STIM_019.jpg	100
1693.569	0.772	771.5	study	Phase3	study/STIM_019.jpg	100
1696.321	0.971	970.6	study	Phase3	study/STIM_020.jpg	99
1700.79	1.202	1201.6	study	Phase3	study/STIM_020.jpg	100
1704.462	1.421	1421.4	study	Phase3	study/STIM_020.jpg	99
1708.314	1.263	1262.6	study	Phase3	study/STIM_021.jpg	100
1713.221	0.916	916.3	study	Phase3	study/STIM_021.jpg	100
1716.987	1.327	1326.7	study	Phase3	study/STIM_021.jpg	100
1721.86	0.72	719.5	study	Phase3	study/STIM_022.jpg	100
1725.379	0.701	701.2	study	Phase3	study/STIM_022.jpg	99
1729.311	0.872	871.7	study	Phase3	study/STIM_022.jpg	100
1733.6	0.592	592.5	study	Phase3	study/STIM_023.jpg	100
1736.56	0.988	988.0	study	Phase3	study/STIM_023.jpg	100
1741.161	1.003	1003.4	study	Phase3	study/STIM_023.jpg	99
1745.606	0.916	916.2	study	Phase3	study/STIM_024.jpg	99
1749.857	0.599	598.7	study	Phase3	study/STIM_024.jpg	100
1753.979	0.897	896.8	study	Phase3	study/STIM_024.jpg	100
1757.072	1.365	1365.3	study	Phase3	study/STIM_025.jpg	99
1761.798	0.919	919.4	study	Phase3	study/STIM_025.jpg	99
1764.989	0.776	776.0	study	Phase3	study/STIM_025.jpg	100
1769.468	0.844	843.6	study	Phase3	study/STIM_026.jpg	100
1773.876	1.374	1374.0	study	Phase3	study/STIM_026.jpg	99
1778.853	0.814	813.7	study	Phase3	study/STIM_026.jpg	100
1783.009	0.692	692.2	study	Phase3	study/STIM_027.jpg	99
1786.559	0.884	884.4	study	Phase3	study/STIM_027.jpg	100
1790.132	1.376	1376.5	study	Phase3	study/STIM_027.jpg	99
1795.277	1.28	1279.6	study	Phase3	study/STIM_028.jpg	100
1798.563	1.156	1156.1	study	Phase3	study/STIM_028.jpg	99
1802.128	1.137	1136.9	study	Phase3	study/STIM_028.jpg	99
1805.203	1.164	1163.6	study	Phase3	study/STIM_029.jpg	99
1808.292	1.053	1052.9	study	Phase3	study/STIM_029.jpg	99
1811.309	1.278	1278.5	study	Phase3	study/STIM_029.jpg	99
1816.068	0.847	847.3	test	Phase3	test/STIM_000.jpg	99
1819.01	0.952	952.2	test	Phase3	test/STIM_000.jpg	99
1823.644	1.184	1184.0	test	Phase3	test/STIM_000.jpg	100
1826.757	0.912	911.8	test	Phase3	test/STIM_001.jpg	100
1830.821	1.185	1184.9	test	Phase3	test/STIM_001.jpg	100
1835.79	1.103	1103.2	test	Phase3	test/STIM_001.jpg	99
1839.569	1.026	1025.8	test	Phase3	test/STIM_002.jpg	99
1843.735	1.413	1412.9	test	Phase3	test/STIM_002.jpg	100
1847.225	0.919	919.2	test	Phase3	test/STIM_002.jpg	99
1851.66	0.889	889.4	test	Phase3	test/STIM_003.jpg	99
1855.797	1.042	1042.4	test	Phase3	test/STIM_003.jpg	100
1860.506	1.157	1157.2	test	Phase3	test/STIM_003.jpg	100
1864.99	1.258	1257.7	test	Phase3	test/STIM_004.jpg	99
1868.555	1.517	1516.9	test	Phase3	test/STIM_004.jpg	99
1873.048	1.198	1198.1	test	Phase3	test/STIM_004.jpg	100
1877.058	1.299	1298.6	test	Phase3	test/STIM_005.jpg	99
1881.276	0.712	712.0	test	Phase3	test/STIM_005.jpg	100
1884.216	1.455	1454.7	test	Phase3	test/STIM_005.jpg	100
1889.419	0.691	690.6	test	Phase3	test/STIM_006.jpg	99
1892.133	1.285	1284.7	test	Phase3	test/STIM_006.jpg	100
1895.472	1.09	1089.6	test	Phase3	test/STIM_006.jpg	100
1899.789	1.216	1216.2	test	Phase3	test/STIM_007.jpg	99
1904.834	0.963	962.7	test	Phase3	test/STIM_007.jpg	99
1909.314	1.119	1119.1	test	Phase3	test/STIM_007.jpg	99
1914.005	0.672	671.6	test	Phase3	test/STIM_008.jpg	100
1916.845	0.781	781.0	test	Phase3	test/STIM_008.jpg	99
1919.61	1.01	1010.4	test	Phase3	test/STIM_008.jpg	99
1922.773	1.222	1221.9	test	Phase3	test/STIM_009.jpg	100
1925.872	0.943	942.9	test	Phase3	test/STIM_009.jpg	100
1929.402	1.11	1110.4	test	Phase3	test/STIM_009.jpg	100
1933.546	1.474	1474.4	test	Phase3	test/STIM_010.jpg	100
1937.748	0.746	746.0	test	Phase3	test/STIM_010.jpg	100
1940.779	1.02	1019.7	test	Phase3	test/STIM_010.jpg	99
1945.039	1.419	1418.9	test	Phase3	test/STIM_011.jpg	99
1948.617	0.814	813.6	test	Phase3	test/STIM_011.jpg	99
1952.437	1.023	1023.2	test	Phase3	test/STIM_011.jpg	100
1956.558	1.458	1458.0	test	Phase3	test/STIM_012.jpg	100
1960.769	1.091	1091.2	test	Phase3	test/STIM_012.jpg	100
1964.974	1.209	1209.2	test	Phase3	test/STIM_012.jpg	99
1969.264	0.938	937.9	test	Phase3	test/STIM_013.jpg	100
1973.449	0.572	572.4	test	Phase3	test/STIM_013.jpg	99
1977.545	1.115	1115.1	test	Phase3	test/STIM_013.jpg	99
1981.396	1.495	1495.4	test	Phase3	test/STIM_014.jpg	100
1984.869	1.137	1136.9	test	Phase3	test/STIM_014.jpg	100
1988.468	0.754	753.8	test	Phase3	test/STIM_014.jpg	99
1991.992	1.208	1207.5	test	Phase3	test/STIM_015.jpg	99
1996.556	0.87	870.3	test	Phase3	test/STIM_015.jpg	99
2000.318	1.446	1446.0	test	Phase3	test/STIM_015.jpg	99
2004.215	0.77	770.2	test	Phase3	test/STIM_016.jpg	99
2007.613	1.07	1069.7	test	Phase3	test/STIM_016.jpg	100
2011.271	1.237	1237.3	test	Phase3	test/STIM_016.jpg	99
2015.642	0.771	770.7	test	Phase3	test/STIM_017.jpg	100
2019.437	1.373	1373.1	test	Phase3	test/STIM_017.jpg	100
2023.492	1.155	1154.6	test	Phase3	test/STIM_017.jpg	100
2027.949	0.793	792.7	test	Phase3	test/STIM_018.jpg	100
2030.821	1.012	1012.1	test	Phase3	test/STIM_018.jpg	100
2033.956	0.887	886.6	test	Phase3	test/STIM_018.jpg	99
2038.074	0.798	798.2	test	Phase3	test/STIM_019.jpg	99
2041.032	0.89	889.7	test	Phase3	test/STIM_019.jpg	99
2044.027	1.384	1384.2	test	Phase3	test/STIM_019.jpg	100
2048.886	1.291	1291.2	test	Phase3	test/STIM_020.jpg	99
2052.924	1.478	1477.6	test	Phase3	test/STIM_020.jpg	100
2056.482	1.068	1068.5	test	Phase3	test/STIM_020.jpg	100
2060.659	1.181	1180.7	test	Phase3	test/STIM_021.jpg	99
2065.261	0.692	692.4	test	Phase3	test/STIM_021.jpg	99
2067.941	1.163	1163.0	test	Phase3	test/STIM_021.jpg	99
2071.503	1.242	1242.5	test	Phase3	test/STIM_022.jpg	99
2075.631	1.38	1379.9	test	Phase3	test/STIM_022.jpg	99
2080.493	0.65	650.3	test	Phase3	test/STIM_022.jpg	100
2083.378	1.405	1404.9	test	Phase3	test/STIM_023.jpg	100
2088.467	1.488	1488.1	test	Phase3	test/STIM_023.jpg	100
2093.023	1.267	1267.2	test	Phase3	test/STIM_023.jpg	100
2096.492	1.016	1015.9	test	Phase3	test/STIM_024.jpg	100
2100.957	0.867	866.7	test	Phase3	test/STIM_024.jpg	99
2105.56	0.724	724.0	test	Phase3	test/STIM_024.jpg	100
2108.283	1.39	1389.6	test	Phase3	test/STIM_025.jpg	100
2112.065	0.677	677.0	test	Phase3	test/STIM_025.jpg	99
2115.313	1.03	1030.1	test	Phase3	test/STIM_025.jpg	100
2118.625	0.992	992.1	test	Phase3	test/STIM_026.jpg	99
2122.762	0.98	979.5	test	Phase3	test/STIM_026.jpg	100
2127.121	1.069	1068.8	test	Phase3	test/STIM_026.jpg	100
2130.137	1.318	1317.5	test	Phase3	test/STIM_027.jpg	99
2134.694	0.82	819.7	test	Phase3	test/STIM_027.jpg	100
2138.989	0.975	975.1	test	Phase3	test/STIM_027.jpg	99
2143.037	1.347	1347.4	test	Phase3	test/STIM_028.jpg	99
2147.41	1.218	1218.3	test	Phase3	test/STIM_028.jpg	100
2151.76	1.119	1118.7	test	Phase3	test/STIM_028.jpg	100
2155.272	1.252	1252.0	test	Phase3	test/STIM_029.jpg	99
2159.575	1.222	1221.8	test	Phase3	test/STIM_029.jpg	100
2163.837	1.12	1119.6	test	Phase3	test/STIM_029.jpg	99
