onset	duration	response_time_ms	trial_type	learning_stage	stimulus	response_port
0.0	0.588	588.5	2back	Block1	2back/STIM_000.jpg	100
4.213	0.879	878.6	2back	Block1	2back/STIM_000.jpg	99
7.452	1.097	1096.6	2back	Block1	2back/STIM_000.jpg	100
10.867	0.696	695.7	2back	Block1	2back/STIM_001.jpg	100
14.575	0.763	763.4	2back	Block1	2back/STIM_001.jpg	99
19.281	1.178	1177.8	2back	Block1	2back/STIM_001.jpg	100
23.263	1.036	1036.2	2back	Block1	2back/STIM_002.jpg	99
27.173	0.947	947.4	2back	Block1	2back/STIM_002.jpg	100
32.011	1.156	1155.8	2back	Block1	2back/STIM_002.jpg	99
36.787	0.764	763.5	2back	Block1	2back/STIM_003.jpg	100
40.8	1.112	1111.5	2back	Block1	2back/STIM_003.jpg	99
44.772	0.612	612.2	2back	Block1	2back/STIM_003.jpg	100
47.573	1.022	1021.6	2back	Block1	2back/STIM_004.jpg	100
50.639	0.641	641.3	2back	Block1	2back/STIM_004.jpg	99
53.721	1.055	1054.6	2back	Block1	2back/STIM_004.jpg	99
57.682	1.137	1136.8	2back	Block1	2back/STIM_005.jpg	100
62.278	0.964	964.0	2back	Block1	2back/STIM_005.jpg	99
65.333	1.151	1151.2	2back	Block1	2back/STIM_005.jpg	99
69.795	1.216	1216.5	2back	Block1	2back/STIM_006.jpg	100
74.572	0.748	748.2	2back	Block1	2back/STIM_006.jpg	99
78.275	1.136	1136.4	2back	Block1	2back/STIM_006.jpg	99
81.765	0.815	815.0	2back	Block1	2back/STIM_007.jpg	99
84.983	0.777	777.0	2back	Block1	2back/STIM_007.jpg	100
89.247	0.763	762.8	2back	Block1	2back/STIM_007.jpg	100
93.022	1.046	1045.6	2back	Block1	2back/STIM_008.jpg	100
96.483	1.056	1056.2	2back	Block1	2back/STIM_008.jpg	100
100.936	1.029	1028.8	2back	Block1	2back/STIM_008.jpg	99
105.432	1.155	1155.0	2back	Block1	2back/STIM_009.jpg	100
108.905	1.064	1063.9	2back	Block1	2back/STIM_009.jpg	99
113.878	0.9	899.6	2back	Block1	2back/STIM_009.jpg	100
116.952	1.299	1298.6	2back	Block1	2back/STIM_010.jpg	99
121.693	1.043	1043.1	2back	Block1	2back/STIM_010.jpg	100
124.867	0.921	921.3	2back	Block1	2back/STIM_010.jpg	99
128.375	1.271	1270.6	2back	Block1	2back/STIM_011.jpg	100
133.6	1.208	1207.9	2back	Block1	2back/STIM_011.jpg	99
137.101	0.549	549.3	2back	Block1	2back/STIM_011.jpg	100
141.077	0.972	972.4	2back	Block1	2back/STIM_012.jpg	100
145.515	1.092	1092.2	2back	Block1	2back/STIM_012.jpg	99
148.761	0.848	847.9	2back	Block1	2back/STIM_012.jpg	99
153.001	1.19	1190.4	2back	Block1	2back/STIM_013.jpg	100
156.248	0.729	729.0	2back	Block1	2back/STIM_013.jpg	99
160.947	0.804	804.5	2back	Block1	2back/STIM_013.jpg	99
164.843	1.031	1031.1	2back	Block1	2back/STIM_014.jpg	99
169.168	0.706	706.2	2back	Block1	2back/STIM_014.jpg	99
171.978	1.165	1165.4	2back	Block1	2back/STIM_014.jpg	100
176.371	0.971	971.3	2back	Block1	2back/STIM_015.jpg	99
180.659	0.829	828.6	2back	Block1	2back/STIM_015.jpg	100
185.124	1.19	1189.7	2back	Block1	2back/STIM_015.jpg	99
189.041	1.199	1199.0	2back	Block1	2back/STIM_016.jpg	100
193.251	1.068	1068.5	2back	Block1	2back/STIM_016.jpg	100
197.115	0.776	775.9	2back	Block1	2back/STIM_016.jpg	99
200.86	1.306	1306.0	2back	Block1	2back/STIM_017.jpg	99
206.06	0.915	915.0	2back	Block1	2back/STIM_017.jpg	99
209.674	1.164	1164.1	2back	Block1	2back/STIM_017.jpg	100
214.781	1.293	1293.0	2back	Block1	2back/STIM_018.jpg	100
218.373	0.599	599.0	2back	Block1	2back/STIM_018.jpg	100
222.084	0.928	928.5	2back	Block1	2back/STIM_018.jpg	100
226.548	1.144	1144.4	2back	Block1	2back/STIM_019.jpg	100
231.621	0.61	610.0	2back	Block1	2back/STIM_019.jpg	100
234.413	0.916	916.1	2back	Block1	2back/STIM_019.jpg	100
237.948	1.017	1016.8	2back	Block1	2back/STIM_020.jpg	99
242.243	0.916	916.1	2back	Block1	2back/STIM_020.jpg	100
246.991	0.797	797.4	2back	Block1	2back/STIM_020.jpg	99
250.548	0.894	893.7	2back	Block1	2back/STIM_021.jpg	99
253.626	0.742	742.0	2back	Block1	2back/STIM_021.jpg	99
256.978	0.957	957.3	2back	Block1	2back/STIM_021.jpg	99
261.667	0.727	727.3	2back	Block1	2back/STIM_022.jpg	99
266.319	0.895	894.9	2back	Block1	2back/STIM_022.jpg	100
270.553	0.62	619.7	2back	Block1	2back/STIM_022.jpg	99
274.399	0.691	691.0	2back	Block1	2back/STIM_023.jpg	100
278.512	0.644	643.9	2back	Block1	2back/STIM_023.jpg	100
282.608	0.943	943.0	2back	Block1	2back/STIM_023.jpg	99
286.028	0.904	904.0	2back	Block1	2back/STIM_024.jpg	100
290.52	0.594	594.4	2back	Block1	2back/STIM_024.jpg	99
294.471	0.693	692.7	2back	Block1	2back/STIM_024.jpg	100
298.584	0.752	751.7	2back	Block1	2back/STIM_025.jpg	99
303.2	1.14	1139.6	2back	Block1	2back/STIM_025.jpg	100
307.888	0.586	586.2	2back	Block1	2back/STIM_025.jpg	99
311.039	0.981	981.0	2back	Block1	2back/STIM_026.jpg	99
315.17	1.028	1027.7	2back	Block1	2back/STIM_026.jpg	99
319.546	0.597	597.4	2back	Block1	2back/STIM_026.jpg	99
322.329	0.961	961.3	2back	Block1	2back/STIM_027.jpg	99
325.67	0.725	725.4	2back	Block1	2back/STIM_027.jpg	100
328.647	1.007	1007.0	2back	Block1	2back/STIM_027.jpg	99
332.294	1.191	1190.7	2back	Block1	2back/STIM_028.jpg	99
337.235	0.887	887.3	2back	Block1	2back/STIM_028.jpg	100
340.613	0.884	884.1	2back	Block1	2back/STIM_028.jpg	100
344.4	1.279	1279.1	2back	Block1	2back/STIM_029.jpg	99
349.281	0.831	830.8	2back	Block1	2back/STIM_029.jpg	100
353.489	0.752	752.5	2back	Block1	2back/STIM_029.jpg	99
357.109	1.103	1103.2	2back	Block1	2back/STIM_030.jpg	100
360.735	0.728	728.5	2back	Block1	2back/STIM_030.jpg	100
364.071	1.213	1212.7	2back	Block1	2back/STIM_030.jpg	99
369.04	1.294	1293.6	2back	Block1	2back/STIM_031.jpg	99
374.173	0.89	890.1	2back	Block1	2back/STIM_031.jpg	100
378.349	0.753	752.6	2back	Block1	2back/STIM_031.jpg	100
381.466	0.763	762.9	2back	Block1	2back/STIM_032.jpg	99
385.142	1.096	1095.7	2back	Block1	2back/STIM_032.jpg	100
389.571	0.66	659.7	2back	Block1	2back/STIM_032.jpg	100
393.063	0.912	912.4	2back	Block1	2back/STIM_033.jpg	99
396.269	1.158	1157.9	2back	Block1	2back/STIM_033.jpg	100
400.911	0.667	667.4	2back	Block1	2back/STIM_033.jpg	99
405.297	0.925	924.8	2back	Block1	2back/STIM_034.jpg	99
409.499	0.855	854.6	2back	Block1	2back/STIM_034.jpg	100
413.338	0.716	716.2	2back	Block1	2back/STIM_034.jpg	100
416.589	1.044	1043.9	2back	Block1	2back/STIM_035.jpg	99
421.357	0.666	665.8	2back	Block1	2back/STIM_035.jpg	99
425.259	0.93	930.5	2back	Block1	2back/STIM_035.jpg	100
429.756	0.772	771.6	2back	Block1	2back/STIM_036.jpg	100
433.882	0.669	669.2	2back	Block1	2back/STIM_036.jpg	100
437.639	1.126	1126.5	2back	Block1	2back/STIM_036.jpg	99
441.985	0.91	909.6	2back	Block1	2back/STIM_037.jpg	100
445.096	0.89	890.5	2back	Block1	2back/STIM_037.jpg	99
448.094	0.957	956.6	2back	Block1	2back/STIM_037.jpg	100
452.566	0.638	637.6	2back	Block1	2back/STIM_038.jpg	99
456.888	0.752	752.3	2back	Block1	2back/STIM_038.jpg	99
461.445	0.539	539.0	2back	Block1	2back/STIM_038.jpg	99
464.948	0.617	616.7	2back	Block1	2back/STIM_039.jpg	100
469.057	0.633	632.9	2back	Block1	2back/STIM_039.jpg	99
472.405	0.95	950.2	2back	Block1	2back/STIM_039.jpg	99
476.497	0.602	601.9	0back	Block1	0back/STIM_000.jpg	100
479.332	0.408	408.2	0back	Block1	0back/STIM_000.jpg	99
482.539	0.578	577.5	0back	Block1	0back/STIM_000.jpg	100
486.61	0.715	715.0	0back	Block1	0back/STIM_001.jpg	100
490.861	0.481	480.7	0back	Block1	0back/STIM_001.jpg	99
494.12	0.444	444.1	0back	Block1	0back/STIM_001.jpg	99
497.38	0.629	628.7	0back	Block1	0back/STIM_002.jpg	100
501.205	0.434	433.9	0back	Block1	0back/STIM_002.jpg	99
505.426	0.563	562.7	0back	Block1	0back/STIM_002.jpg	99
508.865	0.745	744.9	0back	Block1	0back/STIM_003.jpg	99
512.036	0.508	508.5	0back	Block1	0back/STIM_003.jpg	99
515.94	0.688	687.7	0back	Block1	0back/STIM_003.jpg	99
519.733	0.676	676.1	0back	Block1	0back/STIM_004.jpg	100
523.458	0.549	549.2	0back	Block1	0back/STIM_004.jpg	99
526.345	0.509	509.4	0back	Block1	0back/STIM_004.jpg	100
529.826	0.759	759.3	0back	Block1	0back/STIM_005.jpg	99
533.717	0.453	453.4	0back	Block1	0back/STIM_005.jpg	100
536.455	0.581	580.9	0back	Block1	0back/STIM_005.jpg	99
539.229	0.746	746.2	0back	Block1	0back/STIM_006.jpg	100
543.296	0.735	735.4	0back	Block1	0back/STIM_006.jpg	100
547.734	0.446	446.5	0back	Block1	0back/STIM_006.jpg	99
552.0	0.432	431.6	0back	Block1	0back/STIM_007.jpg	100
554.488	0.714	714.3	0back	Block1	0back/STIM_007.jpg	100
557.392	0.497	496.6	0back	Block1	0back/STIM_007.jpg	99
560.888	0.718	717.8	0back	Block1	0back/STIM_008.jpg	100
564.166	0.526	526.2	0back	Block1	0back/STIM_008.jpg	100
567.361	0.67	669.7	0back	Block1	0back/STIM_008.jpg	100
570.495	0.668	668.5	0back	Block1	0back/STIM_009.jpg	100
574.879	0.499	499.2	0back	Block1	0back/STIM_009.jpg	100
578.954	0.445	445.1	0back	Block1	0back/STIM_009.jpg	99
582.688	0.621	620.6	0back	Block1	0back/STIM_010.jpg	100
586.059	0.725	724.6	0back	Block1	0back/STIM_010.jpg	100
589.902	0.738	737.6	0back	Block1	0back/STIM_010.jpg	99
594.491	0.498	498.2	0back	Block1	0back/STIM_011.jpg	99
598.518	0.442	441.9	0back	Block1	0back/STIM_011.jpg	100
602.282	0.68	679.6	0back	Block1	0back/STIM_011.jpg	99
605.158	0.461	461.1	0back	Block1	0back/STIM_012.jpg	100
608.503	0.505	504.8	0back	Block1	0back/STIM_012.jpg	100
611.814	0.675	675.2	0back	Block1	0back/STIM_012.jpg	100
616.456	0.774	774.0	0back	Block1	0back/STIM_013.jpg	100
620.742	0.505	504.9	0back	Block1	0back/STIM_013.jpg	100
624.904	0.531	530.6	0back	Block1	0back/STIM_013.jpg	100
628.007	0.458	458.3	0back	Block1	0back/STIM_014.jpg	99
632.387	0.683	682.8	0back	Block1	0back/STIM_014.jpg	100
636.128	0.448	448.1	0back	Block1	0back/STIM_014.jpg	100
640.489	0.757	756.7	0back	Block1	0back/STIM_015.jpg	100
644.745	0.691	691.0	0back	Block1	0back/STIM_015.jpg	100
648.63	0.434	434.5	0back	Block1	0back/STIM_015.jpg	99
651.535	0.637	637.4	0back	Block1	0back/STIM_016.jpg	99
655.445	0.539	539.1	0back	Block1	0back/STIM_016.jpg	99
659.15	0.571	570.7	0back	Block1	0back/STIM_016.jpg	100
663.443	0.578	578.2	0back	Block1	0back/STIM_017.jpg	99
666.727	0.41	410.5	0back	Block1	0back/STIM_017.jpg	100
669.698	0.487	487.2	0back	Block1	0back/STIM_017.jpg	99
673.72	0.666	666.2	0back	Block1	0back/STIM_018.jpg	99
677.79	0.389	389.1	0back	Block1	0back/STIM_018.jpg	99
680.502	0.665	664.7	0back	Block1	0back/STIM_018.jpg	100
683.486	0.75	750.0	0back	Block1	0back/STIM_019.jpg	99
686.625	0.746	745.9	0back	Block1	0back/STIM_019.jpg	100
690.909	0.403	402.8	0back	Block1	0back/STIM_019.jpg	99
693.982	0.679	679.3	2back	Block2	2back/STIM_000.jpg	99
697.203	0.812	811.9	2back	Block2	2back/STIM_000.jpg	100
700.48	0.746	746.4	2back	Block2	2back/STIM_000.jpg	99
704.093	1.044	1044.5	2back	Block2	2back/STIM_001.jpg	100
709.115	0.686	685.5	2back	Block2	2back/STIM_001.jpg	99
712.184	0.483	483.1	2back	Block2	2back/STIM_001.jpg	100
715.518	0.555	554.9	2back	Block2	2back/STIM_002.jpg	100
719.903	0.93	929.6	2back	Block2	2back/STIM_002.jpg	100
723.152	0.569	568.9	2back	Block2	2back/STIM_002.jpg	100
726.362	0.983	982.7	2back	Block2	2back/STIM_003.jpg	99
730.284	0.844	843.6	2back	Block2	2back/STIM_003.jpg	99
733.303	0.86	860.3	2back	Block2	2back/STIM_003.jpg	100
736.615	0.657	656.8	2back	Block2	2back/STIM_004.jpg	99
740.717	0.64	640.5	2back	Block2	2back/STIM_004.jpg	99
745.295	0.881	881.2	2back	Block2	2back/STIM_004.jpg	99
748.98	0.699	699.2	2back	Block2	2back/STIM_005.jpg	100
751.725	0.545	544.8	2back	Block2	2back/STIM_005.jpg	99
755.143	0.907	907.2	2back	Block2	2back/STIM_005.jpg	100
758.504	0.538	537.6	2back	Block2	2back/STIM_006.jpg	100
762.902	0.543	543.1	2back	Block2	2back/STIM_006.jpg	100
766.849	0.578	578.3	2back	Block2	2back/STIM_006.jpg	100
770.586	0.709	709.2	2back	Block2	2back/STIM_007.jpg	100
773.316	1.038	1038.5	2back	Block2	2back/STIM_007.jpg	99
778.206	0.503	502.8	2back	Block2	2back/STIM_007.jpg	99
782.62	1.104	1104.3	2back	Block2	2back/STIM_008.jpg	99
787.27	0.534	534.0	2back	Block2	2back/STIM_008.jpg	100
791.597	0.494	494.0	2back	Block2	2back/STIM_008.jpg	100
795.558	0.76	759.6	2back	Block2	2back/STIM_009.jpg	100
799.7	0.652	652.4	2back	Block2	2back/STIM_009.jpg	100
804.304	0.87	869.7	2back	Block2	2back/STIM_009.jpg	100
808.969	0.715	715.0	2back	Block2	2back/STIM_010.jpg	100
812.473	1.054	1053.5	2back	Block2	2back/STIM_010.jpg	99
815.917	0.926	925.7	2back	Block2	2back/STIM_010.jpg	99
820.76	0.943	942.7	2back	Block2	2back/STIM_011.jpg	100
823.94	0.578	577.9	2back	Block2	2back/STIM_011.jpg	100
826.627	0.971	971.3	2back	Block2	2back/STIM_011.jpg	100
831.546	1.112	1112.4	2back	Block2	2back/STIM_012.jpg	99
836.413	0.971	970.6	2back	Block2	2back/STIM_012.jpg	100
839.697	0.47	469.5	2back	Block2	2back/STIM_012.jpg	100
843.98	1.145	1144.9	2back	Block2	2back/STIM_013.jpg	99
847.794	0.87	869.8	2back	Block2	2back/STIM_013.jpg	99
851.27	0.566	566.2	2back	Block2	2back/STIM_013.jpg	99
855.438	0.744	743.9	2back	Block2	2back/STIM_014.jpg	99
859.341	0.597	596.9	2back	Block2	2back/STIM_014.jpg	99
862.28	0.833	833.1	2back	Block2	2back/STIM_014.jpg	100
865.155	0.692	691.7	2back	Block2	2back/STIM_015.jpg	100
868.011	0.649	648.7	2back	Block2	2back/STIM_015.jpg	99
872.513	0.92	920.0	2back	Block2	2back/STIM_015.jpg	99
875.462	0.51	510.4	2back	Block2	2back/STIM_016.jpg	99
878.892	0.882	882.0	2back	Block2	2back/STIM_016.jpg	100
883.547	0.752	751.7	2back	Block2	2back/STIM_016.jpg	100
886.499	0.847	846.9	2back	Block2	2back/STIM_017.jpg	100
890.371	0.76	760.0	2back	Block2	2back/STIM_017.jpg	100
893.351	0.937	937.0	2back	Block2	2back/STIM_017.jpg	99
896.604	0.814	814.2	2back	Block2	2back/STIM_018.jpg	100
900.476	0.964	963.5	2back	Block2	2back/STIM_018.jpg	99
904.407	0.96	960.0	2back	Block2	2back/STIM_018.jpg	99
907.969	1.032	1031.8	2back	Block2	2back/STIM_019.jpg	99
911.092	1.07	1070.5	2back	Block2	2back/STIM_019.jpg	100
915.449	0.734	734.4	2back	Block2	2back/STIM_019.jpg	99
920.16	0.944	943.8	2back	Block2	2back/STIM_020.jpg	99
924.159	0.739	739.1	2back	Block2	2back/STIM_020.jpg	99
928.496	0.526	525.6	2back	Block2	2back/STIM_020.jpg	100
932.792	1.078	1077.6	2back	Block2	2back/STIM_021.jpg	99
937.372	0.955	955.3	2back	Block2	2back/STIM_021.jpg	100
940.754	0.796	795.8	2back	Block2	2back/STIM_021.jpg	100
944.934	0.896	895.7	2back	Block2	2back/STIM_022.jpg	99
947.915	0.503	503.3	2back	Block2	2back/STIM_022.jpg	100
951.918	0.783	783.3	2back	Block2	2back/STIM_022.jpg	99
956.432	0.597	596.6	2back	Block2	2back/STIM_023.jpg	100
959.953	0.52	520.0	2back	Block2	2back/STIM_023.jpg	99
963.781	0.665	665.2	2back	Block2	2back/STIM_023.jpg	100
966.469	1.007	1007.3	2back	Block2	2back/STIM_024.jpg	100
970.207	0.941	941.0	2back	Block2	2back/STIM_024.jpg	100
973.658	0.547	547.2	2back	Block2	2back/STIM_024.jpg	99
977.162	0.823	823.2	2back	Block2	2back/STIM_025.jpg	99
980.352	0.907	907.0	2back	Block2	2back/STIM_025.jpg	100
985.241	0.529	528.8	2back	Block2	2back/STIM_025.jpg	99
989.225	1.069	1069.0	2back	Block2	2back/STIM_026.jpg	99
993.575	0.904	904.5	2back	Block2	2back/STIM_026.jpg	99
998.104	0.745	745.4	2back	Block2	2back/STIM_026.jpg	100
1002.825	1.068	1067.8	2back	Block2	2back/STIM_027.jpg	99
1007.038	0.596	595.8	2back	Block2	2back/STIM_027.jpg	100
1010.924	0.766	766.5	2back	Block2	2back/STIM_027.jpg	99
1014.909	1.036	1035.6	2back	Block2	2back/STIM_028.jpg	100
1018.512	1.078	1077.5	2back	Block2	2back/STIM_028.jpg	100
1022.858	0.806	805.8	2back	Block2	2back/STIM_028.jpg	100
1025.853	0.593	592.9	2back	Block2	2back/STIM_029.jpg	100
1028.775	0.525	525.4	2back	Block2	2back/STIM_029.jpg	99
1031.874	0.566	565.8	2back	Block2	2back/STIM_029.jpg	99
1034.601	0.948	948.5	2back	Block2	2back/STIM_030.jpg	99
1038.065	0.821	820.7	2back	Block2	2back/STIM_030.jpg	99
1041.141	0.83	829.5	2back	Block2	2back/STIM_030.jpg	100
1043.981	0.698	698.3	2back	Block2	2back/STIM_031.jpg	99
1047.374	0.815	815.0	2back	Block2	2back/STIM_031.jpg	99
1051.556	0.819	818.9	2back	Block2	2back/STIM_031.jpg	100
1055.727	0.656	656.4	2back	Block2	2back/STIM_032.jpg	99
1059.301	0.538	537.6	2back	Block2	2back/STIM_032.jpg	99
1062.796	0.902	902.3	2back	Block2	2back/STIM_032.jpg	100
1067.055	0.945	944.8	2back	Block2	2back/STIM_033.jpg	99
1071.731	0.979	979.2	2back	Block2	2back/STIM_033.jpg	100
1074.713	0.509	509.1	2back	Block2	2back/STIM_033.jpg	100
1078.496	0.948	948.4	2back	Block2	2back/STIM_034.jpg	100
1083.227	0.535	534.8	2back	Block2	2back/STIM_034.jpg	100
1085.941	0.854	854.1	2back	Block2	2back/STIM_034.jpg	100
1089.448	0.525	524.7	2back	Block2	2back/STIM_035.jpg	100
1093.661	0.667	666.7	2back	Block2	2back/STIM_035.jpg	100
1098.303	0.701	701.1	2back	Block2	2back/STIM_035.jpg	99
1101.818	0.787	786.9	2back	Block2	2back/STIM_036.jpg	99
1105.208	0.91	910.4	2back	Block2	2back/STIM_036.jpg	100
1109.83	0.952	951.8	2back	Block2	2back/STIM_036.jpg	100
1114.441	0.986	986.3	2back	Block2	2back/STIM_037.jpg	99
1118.555	0.69	690.4	2back	Block2	2back/STIM_037.jpg	99
1121.945	0.507	506.7	2back	Block2	2back/STIM_037.jpg	100
1124.763	0.67	670.4	2back	Block2	2back/STIM_038.jpg	99
1129.368	0.895	894.6	2back	Block2	2back/STIM_038.jpg	99
1132.417	0.712	712.1	2back	Block2	2back/STIM_038.jpg	99
1135.17	0.824	824.0	2back	Block2	2back/STIM_039.jpg	100
1139.027	0.728	728.0	2back	Block2	2back/STIM_039.jpg	99
1143.679	0.985	985.2	2back	Block2	2back/STIM_039.jpg	100
1147.629	0.597	596.7	0back	Block2	0back/STIM_000.jpg	100
1150.651	0.662	661.9	0back	Block2	0back/STIM_000.jpg	99
1154.264	0.662	662.1	0back	Block2	0back/STIM_000.jpg	99
1158.479	0.566	566.1	0back	Block2	0back/STIM_001.jpg	99
1161.342	0.591	590.7	0back	Block2	0back/STIM_001.jpg	100
1165.462	0.667	667.1	0back	Block2	0back/STIM_001.jpg	99
1169.837	0.417	416.7	0back	Block2	0back/STIM_002.jpg	99
1173.327	0.734	734.4	0back	Block2	0back/STIM_002.jpg	99
1176.322	0.442	442.4	0back	Block2	0back/STIM_002.jpg	100
1179.271	0.618	618.3	0back	Block2	0back/STIM_003.jpg	99
1183.622	0.743	742.9	0back	Block2	0back/STIM_003.jpg	100
1187.488	0.531	530.6	0back	Block2	0back/STIM_003.jpg	100
1191.805	0.777	776.6	0back	Block2	0back/STIM_004.jpg	99
1195.775	0.613	612.9	0back	Block2	0back/STIM_004.jpg	100
1199.164	0.48	479.6	0back	Block2	0back/STIM_004.jpg	100
1202.68	0.526	526.4	0back	Block2	0back/STIM_005.jpg	99
1205.21	0.466	466.2	0back	Block2	0back/STIM_005.jpg	99
1209.616	0.517	516.7	0back	Block2	0back/STIM_005.jpg	100
1213.236	0.619	619.3	0back	Block2	0back/STIM_006.jpg	99
1216.672	0.55	549.9	0back	Block2	0back/STIM_006.jpg	99
1220.618	0.454	453.6	0back	Block2	0back/STIM_006.jpg	99
1223.974	0.724	723.8	0back	Block2	0back/STIM_007.jpg	99
1228.437	0.577	577.4	0back	Block2	0back/STIM_007.jpg	100
1232.506	0.7	700.1	0back	Block2	0back/STIM_007.jpg	100
1236.55	0.733	732.7	0back	Block2	0back/STIM_008.jpg	100
1239.291	0.457	457.2	0back	Block2	0back/STIM_008.jpg	100
1242.858	0.421	421.3	0back	Block2	0back/STIM_008.jpg	99
1247.197	0.472	472.3	0back	Block2	0back/STIM_009.jpg	100
1250.039	0.561	561.0	0back	Block2	0back/STIM_009.jpg	100
1253.13	0.499	498.8	0back	Block2	0back/STIM_009.jpg	99
1255.806	0.48	479.8	0back	Block2	0back/STIM_010.jpg	99
1260.062	0.573	573.2	0back	Block2	0back/STIM_010.jpg	100
1263.146	0.526	526.0	0back	Block2	0back/STIM_010.jpg	100
1266.442	0.774	773.9	0back	Block2	0back/STIM_011.jpg	99
1269.759	0.442	441.8	0back	Block2	0back/STIM_011.jpg	100
1272.847	0.43	430.0	0back	Block2	0back/STIM_011.jpg	100
1275.783	0.76	760.5	0back	Block2	0back/STIM_012.jpg	99
1280.243	0.537	537.3	0back	Block2	0back/STIM_012.jpg	99
1283.096	0.662	662.1	0back	Block2	0back/STIM_012.jpg	99
1286.146	0.466	465.8	0back	Block2	0back/STIM_013.jpg	100
1288.662	0.704	704.4	0back	Block2	0back/STIM_013.jpg	100
1293.137	0.71	709.5	0back	Block2	0back/STIM_013.jpg	100
1297.577	0.775	775.1	0back	Block2	0back/STIM_014.jpg	100
1300.736	0.748	747.7	0back	Block2	0back/STIM_014.jpg	99
1304.289	0.583	582.7	0back	Block2	0back/STIM_014.jpg	99
1308.167	0.68	680.4	0back	Block2	0back/STIM_015.jpg	99
1312.165	0.411	410.9	0back	Block2	0back/STIM_015.jpg	100
1315.503	0.72	720.2	0back	Block2	0back/STIM_015.jpg	100
1319.988	0.692	691.7	0back	Block2	0back/STIM_016.jpg	99
1323.815	0.505	504.9	0back	Block2	0back/STIM_016.jpg	99
1326.797	0.542	542.2	0back	Block2	0back/STIM_016.jpg	99
1329.358	0.437	437.0	0back	Block2	0back/STIM_017.jpg	100
1333.239	0.494	493.9	0back	Block2	0back/STIM_017.jpg	99
1336.342	0.703	702.9	0back	Block2	0back/STIM_017.jpg	99
1340.28	0.646	646.1	0back	Block2	0back/STIM_018.jpg	100
1343.257	0.534	533.5	0back	Block2	0back/STIM_018.jpg	99
1346.487	0.56	560.0	0back	Block2	0back/STIM_018.jpg	99
1349.775	0.572	571.9	0back	Block2	0back/STIM_019.jpg	100
1354.331	0.724	723.8	0back	Block2	0back/STIM_019.jpg	100
1358.126	0.726	726.5	0back	Block2	0back/STIM_019.jpg	99
1361.12	0.59	589.6	2back	Block3	2back/STIM_000.jpg	99
1364.1	0.505	505.0	2back	Block3	2back/STIM_000.jpg	100
1367.12	0.88	880.5	2back	Block3	2back/STIM_000.jpg	100
1370.955	0.437	437.4	2back	Block3	2back/STIM_001.jpg	99
1375.24	0.787	786.9	2back	Block3	2back/STIM_001.jpg	99
1379.308	0.833	832.7	2back	Block3	2back/STIM_001.jpg	99
1382.876	0.949	949.2	2back	Block3	2back/STIM_002.jpg	99
1386.537	0.882	881.8	2back	Block3	2back/STIM_002.jpg	99
1390.112	0.628	628.1	2back	Block3	2back/STIM_002.jpg	100
1394.474	0.469	469.3	2back	Block3	2back/STIM_003.jpg	99
1398.55	0.885	885.2	2back	Block3	2back/STIM_003.jpg	100
1402.416	0.633	633.2	2back	Block3	2back/STIM_003.jpg	99
1406.378	0.491	490.8	2back	Block3	2back/STIM_004.jpg	100
1409.343	0.936	935.8	2back	Block3	2back/STIM_004.jpg	99
1412.898	0.814	814.5	2back	Block3	2back/STIM_004.jpg	100
1416.519	0.549	549.4	2back	Block3	2back/STIM_005.jpg	99
1419.728	0.839	839.2	2back	Block3	2back/STIM_005.jpg	100
1423.669	0.856	855.7	2back	Block3	2back/STIM_005.jpg	99
1427.437	0.695	695.2	2back	Block3	2back/STIM_006.jpg	100
1431.936	0.622	621.6	2back	Block3	2back/STIM_006.jpg	100
1435.208	0.475	475.3	2back	Block3	2back/STIM_006.jpg	100
1438.087	0.446	445.7	2back	Block3	2back/STIM_007.jpg	100
1440.601	0.821	820.8	2back	Block3	2back/STIM_007.jpg	99
1445.387	0.584	584.5	2back	Block3	2back/STIM_007.jpg	100
1448.136	0.524	523.6	2back	Block3	2back/STIM_008.jpg	100
1451.087	0.844	843.9	2back	Block3	2back/STIM_008.jpg	100
1455.112	0.927	927.2	2back	Block3	2back/STIM_008.jpg	100
1458.288	0.859	859.4	2back	Block3	2back/STIM_009.jpg	100
1461.246	0.433	433.2	2back	Block3	2back/STIM_009.jpg	100
1463.79	0.489	488.6	2back	Block3	2back/STIM_009.jpg	99
1467.287	0.668	668.1	2back	Block3	2back/STIM_010.jpg	99
1470.243	0.899	899.3	2back	Block3	2back/STIM_010.jpg	99
1473.593	0.88	879.7	2back	Block3	2back/STIM_010.jpg	100
1477.476	0.563	563.2	2back	Block3	2back/STIM_011.jpg	99
1481.764	0.706	706.5	2back	Block3	2back/STIM_011.jpg	100
1485.492	0.605	604.6	2back	Block3	2back/STIM_011.jpg	100
1488.211	0.94	940.3	2back	Block3	2back/STIM_012.jpg	100
1492.795	0.686	685.5	2back	Block3	2back/STIM_012.jpg	100
1497.227	0.577	577.2	2back	Block3	2back/STIM_012.jpg	99
1501.668	0.602	602.1	2back	Block3	2back/STIM_013.jpg	99
1505.983	0.8	800.4	2back	Block3	2back/STIM_013.jpg	99
1508.915	0.798	798.3	2back	Block3	2back/STIM_013.jpg	100
1512.103	0.466	466.1	2back	Block3	2back/STIM_014.jpg	100
1515.17	0.526	526.2	2back	Block3	2back/STIM_014.jpg	100
1518.966	0.671	671.0	2back	Block3	2back/STIM_014.jpg	99
1522.037	0.865	865.1	2back	Block3	2back/STIM_015.jpg	99
1526.418	0.537	536.6	2back	Block3	2back/STIM_015.jpg	100
1529.349	0.673	672.9	2back	Block3	2back/STIM_015.jpg	99
1533.585	0.733	732.8	2back	Block3	2back/STIM_016.jpg	100
1537.615	0.416	416.2	2back	Block3	2back/STIM_016.jpg	99
1541.988	0.911	910.6	2back	Block3	2back/STIM_016.jpg	99
1546.861	0.423	423.4	2back	Block3	2back/STIM_017.jpg	100
1549.297	0.594	594.2	2back	Block3	2back/STIM_017.jpg	99
1552.321	0.789	789.1	2back	Block3	2back/STIM_017.jpg	100
1557.052	0.607	607.1	2back	Block3	2back/STIM_018.jpg	99
1560.726	0.74	740.2	2back	Block3	2back/STIM_018.jpg	100
1564.718	0.605	604.9	2back	Block3	2back/STIM_018.jpg	100
1568.041	0.738	737.6	2back	Block3	2back/STIM_019.jpg	99
1571.502	0.542	541.5	2back	Block3	2back/STIM_019.jpg	100
1575.601	0.408	408.3	2back	Block3	2back/STIM_019.jpg	100
1579.925	0.506	505.6	2back	Block3	2back/STIM_020.jpg	100
1583.984	0.534	534.3	2back	Block3	2back/STIM_020.jpg	99
1588.454	0.653	652.9	2back	Block3	2back/STIM_020.jpg	100
1592.241	0.766	765.7	2back	Block3	2back/STIM_021.jpg	100
1596.521	0.461	461.0	2back	Block3	2back/STIM_021.jpg	100
1599.168	0.727	727.3	2back	Block3	2back/STIM_021.jpg	100
1603.003	0.536	536.0	2back	Block3	2back/STIM_022.jpg	100
1605.75	0.866	865.8	2back	Block3	2back/STIM_022.jpg	100
1610.071	0.938	938.4	2back	Block3	2back/STIM_022.jpg	99
1613.931	0.522	522.3	2back	Block3	2back/STIM_023.jpg	100
1616.941	0.436	435.8	2back	Block3	2back/STIM_023.jpg	99
1620.643	0.586	585.6	2back	Block3	2back/STIM_023.jpg	100
1625.173	0.527	527.2	2back	Block3	2back/STIM_024.jpg	100
1629.273	0.728	727.7	2back	Block3	2back/STIM_024.jpg	99
1633.136	0.734	734.1	2back	Block3	2back/STIM_024.jpg	99
1637.705	0.473	473.2	2back	Block3	2back/STIM_025.jpg	99
1641.774	0.88	879.8	2back	Block3	2back/STIM_025.jpg	99
1645.886	0.52	520.5	2back	Block3	2back/STIM_025.jpg	99
1648.521	0.74	740.1	2back	Block3	2back/STIM_026.jpg	99
1652.308	0.692	691.8	2back	Block3	2back/STIM_026.jpg	100
1655.139	0.916	916.0	2back	Block3	2back/STIM_026.jpg	100
1658.896	0.892	891.8	2back	Block3	2back/STIM_027.jpg	100
1663.562	0.628	627.6	2back	Block3	2back/STIM_027.jpg	99
1667.144	0.557	557.4	2back	Block3	2back/STIM_027.jpg	100
1671.112	0.85	849.7	2back	Block3	2back/STIM_028.jpg	100
1674.638	0.472	471.8	2back	Block3	2back/STIM_028.jpg	100
1678.841	0.841	840.8	2back	Block3	2back/STIM_028.jpg	99
1683.106	0.772	772.2	2back	Block3	2back/STIM_029.jpg	100
1686.109	0.801	800.6	2back	Block3	2back/STIM_029.jpg	99
1690.015	0.599	599.2	2back	Block3	2back/STIM_029.jpg	100
1692.652	0.506	505.9	2back	Block3	2back/STIM_030.jpg	99
1695.687	0.756	756.0	2back	Block3	2back/STIM_030.jpg	100
1698.879	0.713	713.3	2back	Block3	2back/STIM_030.jpg	99
1702.876	0.441	441.0	2back	Block3	2back/STIM_031.jpg	100
1705.702	0.681	680.9	2back	Block3	2back/STIM_031.jpg	100
1708.583	0.791	790.6	2back	Block3	2back/STIM_031.jpg	100
1712.518	0.444	444.5	2back	Block3	2back/STIM_032.jpg	99
1716.053	0.408	408.2	2back	Block3	2back/STIM_032.jpg	100
1719.386	0.851	851.3	2back	Block3	2back/STIM_032.jpg	100
1722.376	0.754	753.8	2back	Block3	2back/STIM_033.jpg	99
1726.637	0.924	923.6	2back	Block3	2back/STIM_033.jpg	99
1729.833	0.51	509.6	2back	Block3	2back/STIM_033.jpg	100
1733.771	0.931	930.6	2back	Block3	2back/STIM_034.jpg	100
1737.16	0.612	612.1	2back	Block3	2back/STIM_034.jpg	99
1740.87	0.512	512.2	2back	Block3	2back/STIM_034.jpg	99
1743.415	0.731	731.4	2back	Block3	2back/STIM_035.jpg	100
1747.936	0.924	924.1	2back	Block3	2back/STIM_035.jpg	100
1752.521	0.713	713.4	2back	Block3	2back/STIM_035.jpg	99
1756.477	0.804	804.1	2back	Block3	2back/STIM_036.jpg	100
1760.439	0.733	732.7	2back	Block3	2back/STIM_036.jpg	99
1764.296	0.412	412.5	2back	Block3	2back/STIM_036.jpg	100
1767.605	0.939	938.7	2back	Block3	2back/STIM_037.jpg	99
1770.95	0.638	637.7	2back	Block3	2back/STIM_037.jpg	99
1774.148	0.894	894.5	2back	Block3	2back/STIM_037.jpg	100
1778.402	0.75	750.2	2back	Block3	2back/STIM_038.jpg	100
1783.009	0.788	787.8	2back	Block3	2back/STIM_038.jpg	99
1787.755	0.894	893.7	2back	Block3	2back/STIM_038.jpg	100
1790.723	0.47	470.3	2back	Block3	2back/STIM_039.jpg	100
1793.913	0.714	714.3	2back	Block3	2back/STIM_039.jpg	100
1797.525	0.481	480.8	2back	Block3	2back/STIM_039.jpg	100
1801.692	0.551	551.0	0back	Block3	0back/STIM_000.jpg	100
1804.567	0.561	561.1	0back	Block3	0back/STIM_000.jpg	100
1807.641	0.576	576.5	0back	Block3	0back/STIM_000.jpg	100
1810.52	0.39	390.5	0back	Block3	0back/STIM_001.jpg	100
1813.734	0.478	477.7	0back	Block3	0back/STIM_001.jpg	99
1817.05	0.528	528.2	0back	Block3	0back/STIM_001.jpg	100
1820.866	0.526	526.0	0back	Block3	0back/STIM_002.jpg	100
1823.827	0.589	589.2	0back	Block3	0back/STIM_002.jpg	100
1827.177	0.579	578.7	0back	Block3	0back/STIM_002.jpg	100
1831.002	0.436	436.0	0back	Block3	0back/STIM_003.jpg	99
1833.855	0.596	595.9	0back	Block3	0back/STIM_003.jpg	99
1836.617	0.541	541.0	0back	Block3	0back/STIM_003.jpg	99
1840.443	0.624	623.5	0back	Block3	0back/STIM_004.jpg	100
1843.761	0.684	684.4	0back	Block3	0back/STIM_004.jpg	100
1847.474	0.488	487.5	0back	Block3	0back/STIM_004.jpg	99
1851.146	0.63	629.8	0back	Block3	0back/STIM_005.jpg	100
1853.999	0.475	474.9	0back	Block3	0back/STIM_005.jpg	99
1858.133	0.769	768.9	0back	Block3	0back/STIM_005.jpg	100
1862.808	0.686	685.9	0back	Block3	0back/STIM_006.jpg	99
1865.784	0.645	644.6	0back	Block3	0back/STIM_006.jpg	99
1869.269	0.572	572.5	0back	Block3	0back/STIM_006.jpg	99
1873.401	0.449	449.2	0back	Block3	0back/STIM_007.jpg	99
1876.194	0.556	556.2	0back	Block3	0back/STIM_007.jpg	99
1880.23	0.64	640.5	0back	Block3	0back/STIM_007.jpg	99
1884.591	0.613	612.6	0back	Block3	0back/STIM_008.jpg	100
1888.014	0.458	457.9	0back	Block3	0back/STIM_008.jpg	100
1890.522	0.715	715.3	0back	Block3	0back/STIM_008.jpg	100
1893.749	0.482	481.8	0back	Block3	0back/STIM_009.jpg	100
1897.261	0.508	507.6	0back	Block3	0back/STIM_009.jpg	99
1901.697	0.721	721.2	0back	Block3	0back/STIM_009.jpg	100
1905.168	0.449	448.9	0back	Block3	0back/STIM_010.jpg	100
1909.479	0.413	412.8	0back	Block3	0back/STIM_010.jpg	100
1913.363	0.448	447.7	0back	Block3	0back/STIM_010.jpg	100
1917.023	0.669	668.8	0back	Block3	0back/STIM_011.jpg	99
1920.714	0.491	491.1	0back	Block3	0back/STIM_011.jpg	100
1924.621	0.699	698.8	0back	Block3	0back/STIM_011.jpg	99
1928.576	0.462	462.3	0back	Block3	0back/STIM_012.jpg	100
1931.489	0.406	405.7	0back	Block3	0back/STIM_012.jpg	99
1934.665	0.617	617.2	0back	Block3	0back/STIM_012.jpg	99
1938.767	0.638	638.0	0back	Block3	0back/STIM_013.jpg	99
1942.753	0.563	563.4	0back	Block3	0back/STIM_013.jpg	99
1945.721	0.455	454.6	0back	Block3	0back/STIM_013.jpg	99
1949.47	0.707	707.0	0back	Block3	0back/STIM_014.jpg	99
1953.671	0.73	729.8	0back	Block3	0back/STIM_014.jpg	99
1957.108	0.534	533.5	0back	Block3	0back/STIM_014.jpg	100
1960.954	0.496	495.5	0back	Block3	0back/STIM_015.jpg	99
1965.04	0.581	581.2	0back	Block3	0back/STIM_015.jpg	99
1969.223	0.528	528.0	0back	Block3	0back/STIM_015.jpg	99
1972.564	0.664	664.5	0back	Block3	0back/STIM_016.jpg	100
1976.879	0.543	543.4	0back	Block3	0back/STIM_016.jpg	100
1981.067	0.426	426.0	0back	Block3	0back/STIM_016.jpg	99
1984.036	0.718	718.4	0back	Block3	0back/STIM_017.jpg	99
1987.721	0.771	770.8	0back	Block3	0back/STIM_017.jpg	99
1990.79	0.627	626.6	0back	Block3	0back/STIM_017.jpg	100
1994.236	0.41	410.2	0back	Block3	0back/STIM_018.jpg	99
1998.207	0.775	774.6	0back	Block3	0back/STIM_018.jpg	100
2001.908	0.482	482.1	0back	Block3	0back/STIM_018.jpg	99
2005.47	0.632	632.5	0back	Block3	0back/STIM_019.jpg	99
2008.304	0.567	567.1	0back	Block3	0back/STIM_019.jpg	100
2012.671	0.561	561.2	0back	Block3	0back/STIM_019.jpg	99
2015.766	0.923	922.9	2back	Block4	2back/STIM_000.jpg	100
2019.65	0.521	521.3	2back	Block4	2back/STIM_000.jpg	100
2024.166	0.629	629.1	2back	Block4	2back/STIM_000.jpg	99
2028.134	0.714	714.5	2back	Block4	2back/STIM_001.jpg	99
2032.843	0.452	451.6	2back	Block4	2back/STIM_001.jpg	99
2036.577	0.435	435.2	2back	Block4	2back/STIM_001.jpg	99
2040.413	0.627	627.3	2back	Block4	2back/STIM_002.jpg	99
2043.56	0.652	652.3	2back	Block4	2back/STIM_002.jpg	99
2046.37	0.893	892.8	2back	Block4	2back/STIM_002.jpg	100
2051.183	0.432	432.3	2back	Block4	2back/STIM_003.jpg	99
2054.067	0.475	475.2	2back	Block4	2back/STIM_003.jpg	99
2057.62	0.555	555.1	2back	Block4	2back/STIM_003.jpg	100
2061.625	0.646	646.4	2back	Block4	2back/STIM_004.jpg	99
2065.349	0.856	855.9	2back	Block4	2back/STIM_004.jpg	100
2070.164	0.415	414.6	2back	Block4	2back/STIM_004.jpg	100
2074.015	0.474	474.3	2back	Block4	2back/STIM_005.jpg	99
2077.456	0.695	695.0	2back	Block4	2back/STIM_005.jpg	99
2081.864	0.546	546.3	2back	Block4	2back/STIM_005.jpg	100
2086.168	0.427	426.8	2back	Block4	2back/STIM_006.jpg	100
2090.467	0.874	874.2	2back	Block4	2back/STIM_006.jpg	99
2095.232	0.911	910.6	2back	Block4	2back/STIM_006.jpg	100
2098.237	0.413	412.7	2back	Block4	2back/STIM_007.jpg	100
2100.722	0.828	827.6	2back	Block4	2back/STIM_007.jpg	100
2104.525	0.7	699.5	2back	Block4	2back/STIM_007.jpg	99
2108.558	0.438	438.0	2back	Block4	2back/STIM_008.jpg	99
2111.469	0.898	897.5	2back	Block4	2back/STIM_008.jpg	100
2115.305	0.651	651.4	2back	Block4	2back/STIM_008.jpg	100
2118.732	0.585	585.0	2back	Block4	2back/STIM_009.jpg	99
2121.658	0.909	909.0	2back	Block4	2back/STIM_009.jpg	100
2126.199	0.523	522.8	2back	Block4	2back/STIM_009.jpg	99
2129.063	0.69	689.9	2back	Block4	2back/STIM_010.jpg	100
2133.23	0.938	938.0	2back	Block4	2back/STIM_010.jpg	99
2136.258	0.8	800.2	2back	Block4	2back/STIM_010.jpg	99
2140.132	0.442	442.4	2back	Block4	2back/STIM_011.jpg	100
2144.304	0.531	531.2	2back	Block4	2back/STIM_011.jpg	100
2146.889	0.812	811.5	2back	Block4	2back/STIM_011.jpg	99
2149.784	0.473	472.7	2back	Block4	2back/STIM_012.jpg	100
2153.718	0.665	665.1	2back	Block4	2back/STIM_012.jpg	100
2157.353	0.712	712.0	2back	Block4	2back/STIM_012.jpg	99
2160.174	0.463	463.1	2back	Block4	2back/STIM_013.jpg	100
2162.834	0.785	784.9	2back	Block4	2back/STIM_013.jpg	100
2166.309	0.672	671.5	2back	Block4	2back/STIM_013.jpg	100
2169.478	0.924	923.6	2back	Block4	2back/STIM_014.jpg	99
2173.174	0.482	481.6	2back	Block4	2back/STIM_014.jpg	100
2176.041	0.747	746.8	2back	Block4	2back/STIM_014.jpg	99
2180.299	0.646	645.8	2back	Block4	2back/STIM_015.jpg	99
2184.253	0.919	918.7	2back	Block4	2back/STIM_015.jpg	99
2187.912	0.672	672.3	2back	Block4	2back/STIM_015.jpg	99
2191.156	0.513	513.1	2back	Block4	2back/STIM_016.jpg	99
2194.768	0.884	884.5	2back	Block4	2back/STIM_016.jpg	100
2198.594	0.779	778.7	2back	Block4	2back/STIM_016.jpg	99
2201.564	0.807	807.3	2back	Block4	2back/STIM_017.jpg	99
2205.385	0.476	475.8	2back	Block4	2back/STIM_017.jpg	99
2208.455	0.471	471.1	2back	Block4	2back/STIM_017.jpg	100
2211.102	0.648	647.8	2back	Block4	2back/STIM_018.jpg	100
2214.912	0.635	634.6	2back	Block4	2back/STIM_018.jpg	99
2218.01	0.581	580.6	2back	Block4	2back/STIM_018.jpg	99
2221.088	0.905	905.0	2back	Block4	2back/STIM_019.jpg	100
2224.325	0.466	465.6	2back	Block4	2back/STIM_019.jpg	99
2228.428	0.805	804.6	2back	Block4	2back/STIM_019.jpg	99
2231.815	0.509	509.2	2back	Block4	2back/STIM_020.jpg	100
2236.181	0.706	705.5	2back	Block4	2back/STIM_020.jpg	100
2240.062	0.616	615.7	2back	Block4	2back/STIM_020.jpg	99
2243.41	0.511	511.2	2back	Block4	2back/STIM_021.jpg	99
2247.886	0.635	634.7	2back	Block4	2back/STIM_021.jpg	99
2250.536	0.638	637.8	2back	Block4	2back/STIM_021.jpg	100
2253.825	0.777	776.7	2back	Block4	2back/STIM_022.jpg	100
2257.082	0.791	791.3	2back	Block4	2back/STIM_022.jpg	100
2260.396	0.928	928.0	2back	Block4	2back/STIM_022.jpg	100
2264.031	0.798	798.0	2back	Block4	2back/STIM_023.jpg	100
2268.061	0.736	736.2	2back	Block4	2back/STIM_023.jpg	99
2271.303	0.542	542.1	2back	Block4	2back/STIM_023.jpg	99
2275.362	0.535	534.8	2back	Block4	2back/STIM_024.jpg	100
2278.18	0.844	843.8	2back	Block4	2back/STIM_024.jpg	100
2281.654	0.473	472.8	2back	Block4	2back/STIM_024.jpg	100
2284.338	0.676	676.3	2back	Block4	2back/STIM_025.jpg	99
2287.878	0.73	729.7	2back	Block4	2back/STIM_025.jpg	99
2290.88	0.478	478.5	2back	Block4	2back/STIM_025.jpg	100
2295.232	0.482	482.5	2back	Block4	2back/STIM_026.jpg	99
2299.313	0.769	769.2	2back	Block4	2back/STIM_026.jpg	100
2303.724	0.633	633.0	2back	Block4	2back/STIM_026.jpg	99
2306.446	0.518	518.4	2back	Block4	2back/STIM_027.jpg	100
2310.235	0.799	798.9	2back	Block4	2back/STIM_027.jpg	99
2314.942	0.701	701.1	2back	Block4	2back/STIM_027.jpg	99
2318.754	0.473	472.6	2back	Block4	2back/STIM_028.jpg	100
2321.567	0.51	510.2	2back	Block4	2back/STIM_028.jpg	100
2325.955	0.829	829.4	2back	Block4	2back/STIM_028.jpg	100
2330.217	0.834	833.9	2back	Block4	2back/STIM_029.jpg	100
2334.504	0.43	430.5	2back	Block4	2back/STIM_029.jpg	100
2338.291	0.811	811.1	2back	Block4	2back/STIM_029.jpg	99
2342.768	0.911	910.6	2back	Block4	2back/STIM_030.jpg	99
2346.676	0.461	461.0	2back	Block4	2back/STIM_030.jpg	100
2350.469	0.662	661.6	2back	Block4	2back/STIM_030.jpg	100
2354.603	0.924	924.1	2back	Block4	2back/STIM_031.jpg	99
2358.076	0.419	419.2	2back	Block4	2back/STIM_031.jpg	100
2360.716	0.707	707.0	2back	Block4	2back/STIM_031.jpg	99
2363.875	0.429	429.3	2back	Block4	2back/STIM_032.jpg	100
2366.811	0.6	600.5	2back	Block4	2back/STIM_032.jpg	100
2370.234	0.892	892.0	2back	Block4	2back/STIM_032.jpg	100
2374.036	0.777	777.2	2back	Block4	2back/STIM_033.jpg	100
2378.509	0.599	598.8	2back	Block4	2back/STIM_033.jpg	99
2383.002	0.522	522.0	2back	Block4	2back/STIM_033.jpg	100
2387.352	0.739	738.7	2back	Block4	2back/STIM_034.jpg	100
2390.46	0.413	413.4	2back	Block4	2back/STIM_034.jpg	99
2394.212	0.658	657.6	2back	Block4	2back/STIM_034.jpg	99
2397.139	0.416	415.5	2back	Block4	2back/STIM_035.jpg	99
2401.446	0.582	582.1	2back	Block4	2back/STIM_035.jpg	100
2404.209	0.566	566.3	2back	Block4	2back/STIM_035.jpg	100
2408.452	0.769	768.9	2back	Block4	2back/STIM_036.jpg	99
2412.817	0.909	908.8	2back	Block4	2back/STIM_036.jpg	100
2417.174	0.506	506.5	2back	Block4	2back/STIM_036.jpg	100
2421.082	0.522	521.5	2back	Block4	2back/STIM_037.jpg	99
2424.737	0.547	547.0	2back	Block4	2back/STIM_037.jpg	100
2428.499	0.504	504.1	2back	Block4	2back/STIM_037.jpg	99
2431.546	0.604	603.8	2back	Block4	2back/STIM_038.jpg	99
2434.721	0.452	451.5	2back	Block4	2back/STIM_038.jpg	99
2437.583	0.602	602.5	2back	Block4	2back/STIM_038.jpg	99
2440.741	0.727	727.4	2back	Block4	2back/STIM_039.jpg	99
2444.668	0.57	570.2	2back	Block4	2back/STIM_039.jpg	99
2447.75	0.475	475.4	2back	Block4	2back/STIM_039.jpg	100
2450.341	0.493	493.2	0back	Block4	0back/STIM_000.jpg	99
2454.746	0.59	590.3	0back	Block4	0back/STIM_000.jpg	99
2458.294	0.736	736.0	0back	Block4	0back/STIM_000.jpg	100
2462.264	0.513	512.9	0back	Block4	0back/STIM_001.jpg	100
2465.152	0.413	412.6	0back	Block4	0back/STIM_001.jpg	99
2468.233	0.462	461.6	0back	Block4	0back/STIM_001.jpg	99
2472.355	0.424	424.5	0back	Block4	0back/STIM_002.jpg	99
2475.035	0.681	681.4	0back	Block4	0back/STIM_002.jpg	100
2478.357	0.603	602.7	0back	Block4	0back/STIM_002.jpg	100
2481.579	0.449	449.2	0back	Block4	0back/STIM_003.jpg	99
2485.675	0.477	477.4	0back	Block4	0back/STIM_003.jpg	100
2489.867	0.564	564.2	0back	Block4	0back/STIM_003.jpg	100
2493.183	0.537	536.7	0back	Block4	0back/STIM_004.jpg	100
2497.491	0.54	540.2	0back	Block4	0back/STIM_004.jpg	100
2500.486	0.507	506.9	0back	Block4	0back/STIM_004.jpg	100
2504.116	0.434	434.2	0back	Block4	0back/STIM_005.jpg	100
2507.066	0.713	713.2	0back	Block4	0back/STIM_005.jpg	99
2509.985	0.622	622.2	0back	Block4	0back/STIM_005.jpg	99
2512.618	0.515	515.2	0back	Block4	0back/STIM_006.jpg	99
2515.915	0.603	603.0	0back	Block4	0back/STIM_006.jpg	99
2520.336	0.696	696.1	0back	Block4	0back/STIM_006.jpg	100
2524.658	0.537	537.1	0back	Block4	0back/STIM_007.jpg	99
2527.597	0.418	417.7	0back	Block4	0back/STIM_007.jpg	100
2530.641	0.456	456.1	0back	Block4	0back/STIM_007.jpg	99
2533.406	0.773	772.8	0back	Block4	0back/STIM_008.jpg	100
2537.812	0.543	542.6	0back	Block4	0back/STIM_008.jpg	99
2540.909	0.641	640.6	0back	Block4	0back/STIM_008.jpg	99
2545.312	0.586	585.5	0back	Block4	0back/STIM_009.jpg	99
2548.937	0.548	547.5	0back	Block4	0back/STIM_009.jpg	99
2552.315	0.605	605.0	0back	Block4	0back/STIM_009.jpg	99
2556.477	0.559	559.1	0back	Block4	0back/STIM_010.jpg	100
2560.553	0.41	409.6	0back	Block4	0back/STIM_010.jpg	99
2564.182	0.403	402.6	0back	Block4	0back/STIM_010.jpg	100
2567.934	0.656	656.0	0back	Block4	0back/STIM_011.jpg	100
2572.573	0.578	577.9	0back	Block4	0back/STIM_011.jpg	99
2575.946	0.631	631.0	0back	Block4	0back/STIM_011.jpg	100
2579.063	0.704	703.5	0back	Block4	0back/STIM_012.jpg	100
2582.64	0.509	508.8	0back	Block4	0back/STIM_012.jpg	99
2585.858	0.553	552.8	0back	Block4	0back/STIM_012.jpg	100
2588.625	0.396	395.8	0back	Block4	0back/STIM_013.jpg	100
2591.95	0.739	739.0	0back	Block4	0back/STIM_013.jpg	99
2595.359	0.424	424.2	0back	Block4	0back/STIM_013.jpg	99
2598.733	0.666	666.5	0back	Block4	0back/STIM_014.jpg	99
2601.641	0.62	619.7	0back	Block4	0back/STIM_014.jpg	99
2604.618	0.443	442.8	0back	Block4	0back/STIM_014.jpg	100
2607.381	0.733	733.2	0back	Block4	0back/STIM_015.jpg	99
2611.498	0.455	454.7	0back	Block4	0back/STIM_015.jpg	99
2615.269	0.463	462.8	0back	Block4	0back/STIM_015.jpg	100
2618.83	0.471	471.0	0back	Block4	0back/STIM_016.jpg	100
2622.414	0.773	773.2	0back	Block4	0back/STIM_016.jpg	100
2626.059	0.568	567.5	0back	Block4	0back/STIM_016.jpg	100
2629.334	0.458	458.0	0back	Block4	0back/STIM_017.jpg	99
2632.219	0.41	410.2	0back	Block4	0back/STIM_017.jpg	100
2636.062	0.672	672.0	0back	Block4	0back/STIM_017.jpg	100
2639.87	0.457	456.9	0back	Block4	0back/STIM_018.jpg	99
2642.548	0.677	676.9	0back	Block4	0back/STIM_018.jpg	100
2646.126	0.412	411.9	0back	Block4	0back/STIM_018.jpg	99
2650.335	0.527	526.9	0back	Block4	0back/STIM_019.jpg	100
2654.384	0.548	548.1	0back	Block4	0back/STIM_019.jpg	99
2657.079	0.46	459.5	0back	Block4	0back/STIM_019.jpg	99
