onset	duration	accuracy_binary	trial_type	learning_stage	stimulus
0.0	0.588	0	2back	Block1	2back/STIM_000.jpg
4.213	0.879	0	2back	Block1	2back/STIM_000.jpg
7.452	1.097	1	2back	Block1	2back/STIM_000.jpg
10.867	0.696	1	2back	Block1	2back/STIM_001.jpg
14.575	0.763	0	2back	Block1	2back/STIM_001.jpg
19.281	1.178	0	2back	Block1	2back/STIM_001.jpg
23.263	1.036	1	2back	Block1	2back/STIM_002.jpg
27.173	0.947	1	2back	Block1	2back/STIM_002.jpg
32.011	1.156	1	2back	Block1	2back/STIM_002.jpg
36.787	0.764	1	2back	Block1	2back/STIM_003.jpg
40.8	1.112	0	2back	Block1	2back/STIM_003.jpg
44.772	0.612	1	2back	Block1	2back/STIM_003.jpg
47.573	1.022	0	2back	Block1	2back/STIM_004.jpg
50.639	0.641	1	2back	Block1	2back/STIM_004.jpg
53.721	1.055	1	2back	Block1	2back/STIM_004.jpg
57.682	1.137	1	2back	Block1	2back/STIM_005.jpg
62.278	0.964	1	2back	Block1	2back/STIM_005.jpg
65.333	1.151	0	2back	Block1	2back/STIM_005.jpg
69.795	1.216	1	2back	Block1	2back/STIM_006.jpg
74.572	0.748	1	2back	Block1	2back/STIM_006.jpg
78.275	1.136	1	2back	Block1	2back/STIM_006.jpg
81.765	0.815	1	2back	Block1	2back/STIM_007.jpg
84.983	0.777	0	2back	Block1	2back/STIM_007.jpg
89.247	0.763	1	2back	Block1	2back/STIM_007.jpg
93.022	1.046	0	2back	Block1	2back/STIM_008.jpg
96.483	1.056	0	2back	Block1	2back/STIM_008.jpg
100.936	1.029	1	2back	Block1	2back/STIM_008.jpg
105.432	1.155	0	2back	Block1	2back/STIM_009.jpg
108.905	1.064	1	2back	Block1	2back/STIM_009.jpg
113.878	0.9	0	2back	Block1	2back/STIM_009.jpg
116.952	1.299	0	2back	Block1	2back/STIM_010.jpg
121.693	1.043	0	2back	Block1	2back/STIM_010.jpg
124.867	0.921	0	2back	Block1	2back/STIM_010.jpg
128.375	1.271	1	2back	Block1	2back/STIM_011.jpg
133.6	1.208	1	2back	Block1	2back/STIM_011.jpg
137.101	0.549	0	2back	Block1	2back/STIM_011.jpg
141.077	0.972	1	2back	Block1	2back/STIM_012.jpg
145.515	1.092	0	2back	Block1	2back/STIM_012.jpg
148.761	0.848	1	2back	Block1	2back/STIM_012.jpg
153.001	1.19	0	2back	Block1	2back/STIM_013.jpg
156.248	0.729	1	2back	Block1	2back/STIM_013.jpg
160.947	0.804	1	2back	Block1	2back/STIM_013.jpg
164.843	1.031	1	2back	Block1	2back/STIM_014.jpg
169.168	0.706	0	2back	Block1	2back/STIM_014.jpg
171.978	1.165	1	2back	Block1	2back/STIM_014.jpg
176.371	0.971	1	2back	Block1	2back/STIM_015.jpg
180.659	0.829	1	2back	Block1	2back/STIM_015.jpg
185.124	1.19	1	2back	Block1	2back/STIM_015.jpg
189.041	1.199	0	2back	Block1	2back/STIM_016.jpg
193.251	1.068	1	2back	Block1	2back/STIM_016.jpg
197.115	0.776	1	2back	Block1	2back/STIM_016.jpg
200.86	1.306	0	2back	Block1	2back/STIM_017.jpg
206.06	0.915	0	2back	Block1	2back/STIM_017.jpg
209.674	1.164	0	2back	Block1	2back/STIM_017.jpg
214.781	1.293	1	2back	Block1	2back/STIM_018.jpg
218.373	0.599	1	2back	Block1	2back/STIM_018.jpg
222.084	0.928	1	2back	Block1	2back/STIM_018.jpg
226.548	1.144	1	2back	Block1	2back/STIM_019.jpg
231.621	0.61	1	2back	Block1	2back/STIM_019.jpg
234.413	0.916	1	2back	Block1	2back/STIM_019.jpg
237.948	1.017	1	2back	Block1	2back/STIM_020.jpg
242.243	0.916	0	2back	Block1	2back/STIM_020.jpg
246.991	0.797	1	2back	Block1	2back/STIM_020.jpg
250.548	0.894	1	2back	Block1	2back/STIM_021.jpg
253.626	0.742	1	2back	Block1	2back/STIM_021.jpg
256.978	0.957	1	2back	Block1	2back/STIM_021.jpg
261.667	0.727	1	2back	Block1	2back/STIM_022.jpg
266.319	0.895	1	2back	Block1	2back/STIM_022.jpg
270.553	0.62	1	2back	Block1	2back/STIM_022.jpg
274.399	0.691	0	2back	Block1	2back/STIM_023.jpg
278.512	0.644	1	2back	Block1	2back/STIM_023.jpg
282.608	0.943	1	2back	Block1	2back/STIM_023.jpg
286.028	0.904	0	2back	Block1	2back/STIM_024.jpg
290.52	0.594	1	2back	Block1	2back/STIM_024.jpg
294.471	0.693	0	2back	Block1	2back/STIM_024.jpg
298.584	0.752	1	2back	Block1	2back/STIM_025.jpg
303.2	1.14	1	2back	Block1	2back/STIM_025.jpg
307.888	0.586	1	2back	Block1	2back/STIM_025.jpg
311.039	0.981	1	2back	Block1	2back/STIM_026.jpg
315.17	1.028	0	2back	Block1	2back/STIM_026.jpg
319.546	0.597	0	2back	Block1	2back/STIM_026.jpg
322.329	0.961	1	2back	Block1	2back/STIM_027.jpg
325.67	0.725	1	2back	Block1	2back/STIM_027.jpg
328.647	1.007	1	2back	Block1	2back/STIM_027.jpg
332.294	1.191	1	2back	Block1	2back/STIM_028.jpg
337.235	0.887	1	2back	Block1	2back/STIM_028.jpg
340.613	0.884	0	2back	Block1	2back/STIM_028.jpg
344.4	1.279	0	2back	Block1	2back/STIM_029.jpg
349.281	0.831	1	2back	Block1	2back/STIM_029.jpg
353.489	0.752	1	2back	Block1	2back/STIM_029.jpg
357.109	1.103	1	2back	Block1	2back/STIM_030.jpg
360.735	0.728	1	2back	Block1	2back/STIM_030.jpg
364.071	1.213	1	2back	Block1	2back/STIM_030.jpg
369.04	1.294	1	2back	Block1	2back/STIM_031.jpg
374.173	0.89	1	2back	Block1	2back/STIM_031.jpg
378.349	0.753	1	2back	Block1	2back/STIM_031.jpg
381.466	0.763	1	2back	Block1	2back/STIM_032.jpg
385.142	1.096	0	2back	Block1	2back/STIM_032.jpg
389.571	0.66	0	2back	Block1	2back/STIM_032.jpg
393.063	0.912	1	2back	Block1	2back/STIM_033.jpg
396.269	1.158	0	2back	Block1	2back/STIM_033.jpg
400.911	0.667	1	2back	Block1	2back/STIM_033.jpg
405.297	0.925	1	2back	Block1	2back/STIM_034.jpg
409.499	0.855	1	2back	Block1	2back/STIM_034.jpg
413.338	0.716	1	2back	Block1	2back/STIM_034.jpg
416.589	1.044	0	2back	Block1	2back/STIM_035.jpg
421.357	0.666	0	2back	Block1	2back/STIM_035.jpg
425.259	0.93	0	2back	Block1	2back/STIM_035.jpg
429.756	0.772	1	2back	Block1	2back/STIM_036.jpg
433.882	0.669	1	2back	Block1	2back/STIM_036.jpg
437.639	1.126	0	2back	Block1	2back/STIM_036.jpg
441.985	0.91	1	2back	Block1	2back/STIM_037.jpg
445.096	0.89	0	2back	Block1	2back/STIM_037.jpg
448.094	0.957	1	2back	Block1	2back/STIM_037.jpg
452.566	0.638	1	2back	Block1	2back/STIM_038.jpg
456.888	0.752	1	2back	Block1	2back/STIM_038.jpg
461.445	0.539	1	2back	Block1	2back/STIM_038.jpg
464.948	0.617	1	2back	Block1	2back/STIM_039.jpg
469.057	0.633	0	2back	Block1	2back/STIM_039.jpg
472.405	0.95	1	2back	Block1	2back/STIM_039.jpg
476.497	0.602	1	0back	Block1	0back/STIM_000.jpg
479.332	0.408	1	0back	Block1	0back/STIM_000.jpg
482.539	0.578	1	0back	Block1	0back/STIM_000.jpg
486.61	0.715	0	0back	Block1	0back/STIM_001.jpg
490.861	0.481	1	0back	Block1	0back/STIM_001.jpg
494.12	0.444	1	0back	Block1	0back/STIM_001.jpg
497.38	0.629	1	0back	Block1	0back/STIM_002.jpg
501.205	0.434	0	0back	Block1	0back/STIM_002.jpg
505.426	0.563	1	0back	Block1	0back/STIM_002.jpg
508.865	0.745	0	0back	Block1	0back/STIM_003.jpg
512.036	0.508	1	0back	Block1	0back/STIM_003.jpg
515.94	0.688	0	0back	Block1	0back/STIM_003.jpg
519.733	0.676	0	0back	Block1	0back/STIM_004.jpg
523.458	0.549	0	0back	Block1	0back/STIM_004.jpg
526.345	0.509	1	0back	Block1	0back/STIM_004.jpg
529.826	0.759	1	0back	Block1	0back/STIM_005.jpg
533.717	0.453	0	0back	Block1	0back/STIM_005.jpg
536.455	0.581	1	0back	Block1	0back/STIM_005.jpg
539.229	0.746	0	0back	Block1	0back/STIM_006.jpg
543.296	0.735	1	0back	Block1	0back/STIM_006.jpg
547.734	0.446	0	0back	Block1	0back/STIM_006.jpg
552.0	0.432	1	0back	Block1	0back/STIM_007.jpg
554.488	0.714	1	0back	Block1	0back/STIM_007.jpg
557.392	0.497	1	0back	Block1	0back/STIM_007.jpg
560.888	0.718	1	0back	Block1	0back/STIM_008.jpg
564.166	0.526	0	0back	Block1	0back/STIM_008.jpg
567.361	0.67	1	0back	Block1	0back/STIM_008.jpg
570.495	0.668	1	0back	Block1	0back/STIM_009.jpg
574.879	0.499	1	0back	Block1	0back/STIM_009.jpg
578.954	0.445	1	0back	Block1	0back/STIM_009.jpg
582.688	0.621	1	0back	Block1	0back/STIM_010.jpg
586.059	0.725	1	0back	Block1	0back/STIM_010.jpg
589.902	0.738	0	0back	Block1	0back/STIM_010.jpg
594.491	0.498	1	0back	Block1	0back/STIM_011.jpg
598.518	0.442	1	0back	Block1	0back/STIM_011.jpg
602.282	0.68	1	0back	Block1	0back/STIM_011.jpg
605.158	0.461	0	0back	Block1	0back/STIM_012.jpg
608.503	0.505	1	0back	Block1	0back/STIM_012.jpg
611.814	0.675	1	0back	Block1	0back/STIM_012.jpg
616.456	0.774	1	0back	Block1	0back/STIM_013.jpg
620.742	0.505	1	0back	Block1	0back/STIM_013.jpg
624.904	0.531	1	0back	Block1	0back/STIM_013.jpg
628.007	0.458	0	0back	Block1	0back/STIM_014.jpg
632.387	0.683	1	0back	Block1	0back/STIM_014.jpg
636.128	0.448	0	0back	Block1	0back/STIM_014.jpg
640.489	0.757	1	0back	Block1	0back/STIM_015.jpg
644.745	0.691	1	0back	Block1	0back/STIM_015.jpg
648.63	0.434	1	0back	Block1	0back/STIM_015.jpg
651.535	0.637	1	0back	Block1	0back/STIM_016.jpg
655.445	0.539	0	0back	Block1	0back/STIM_016.jpg
659.15	0.571	1	0back	Block1	0back/STIM_016.jpg
663.443	0.578	1	0back	Block1	0back/STIM_017.jpg
666.727	0.41	1	0back	Block1	0back/STIM_017.jpg
669.698	0.487	1	0back	Block1	0back/STIM_017.jpg
673.72	0.666	1	0back	Block1	0back/STIM_018.jpg
677.79	0.389	0	0back	Block1	0back/STIM_018.jpg
680.502	0.665	1	0back	Block1	0back/STIM_018.jpg
683.486	0.75	1	0back	Block1	0back/STIM_019.jpg
686.625	0.746	1	0back	Block1	0back/STIM_019.jpg
690.909	0.403	1	0back	Block1	0back/STIM_019.jpg
693.982	0.679	1	2back	Block2	2back/STIM_000.jpg
697.203	0.812	1	2back	Block2	2back/STIM_000.jpg
700.48	0.746	1	2back	Block2	2back/STIM_000.jpg
704.093	1.044	1	2back	Block2	2back/STIM_001.jpg
709.115	0.686	0	2back	Block2	2back/STIM_001.jpg
712.184	0.483	1	2back	Block2	2back/STIM_001.jpg
715.518	0.555	1	2back	Block2	2back/STIM_002.jpg
719.903	0.93	1	2back	Block2	2back/STIM_002.jpg
723.152	0.569	0	2back	Block2	2back/STIM_002.jpg
726.362	0.983	0	2back	Block2	2back/STIM_003.jpg
730.284	0.844	0	2back	Block2	2back/STIM_003.jpg
733.303	0.86	1	2back	Block2	2back/STIM_003.jpg
736.615	0.657	1	2back	Block2	2back/STIM_004.jpg
740.717	0.64	1	2back	Block2	2back/STIM_004.jpg
745.295	0.881	1	2back	Block2	2back/STIM_004.jpg
748.98	0.699	1	2back	Block2	2back/STIM_005.jpg
751.725	0.545	0	2back	Block2	2back/STIM_005.jpg
755.143	0.907	1	2back	Block2	2back/STIM_005.jpg
758.504	0.538	1	2back	Block2	2back/STIM_006.jpg
762.902	0.543	0	2back	Block2	2back/STIM_006.jpg
766.849	0.578	1	2back	Block2	2back/STIM_006.jpg
770.586	0.709	1	2back	Block2	2back/STIM_007.jpg
773.316	1.038	1	2back	Block2	2back/STIM_007.jpg
778.206	0.503	1	2back	Block2	2back/STIM_007.jpg
782.62	1.104	0	2back	Block2	2back/STIM_008.jpg
787.27	0.534	1	2back	Block2	2back/STIM_008.jpg
791.597	0.494	1	2back	Block2	2back/STIM_008.jpg
795.558	0.76	1	2back	Block2	2back/STIM_009.jpg
799.7	0.652	0	2back	Block2	2back/STIM_009.jpg
804.304	0.87	0	2back	Block2	2back/STIM_009.jpg
808.969	0.715	1	2back	Block2	2back/STIM_010.jpg
812.473	1.054	1	2back	Block2	2back/STIM_010.jpg
815.917	0.926	1	2back	Block2	2back/STIM_010.jpg
820.76	0.943	0	2back	Block2	2back/STIM_011.jpg
823.94	0.578	1	2back	Block2	2back/STIM_011.jpg
826.627	0.971	1	2back	Block2	2back/STIM_011.jpg
831.546	1.112	1	2back	Block2	2back/STIM_012.jpg
836.413	0.971	0	2back	Block2	2back/STIM_012.jpg
839.697	0.47	0	2back	Block2	2back/STIM_012.jpg
843.98	1.145	1	2back	Block2	2back/STIM_013.jpg
847.794	0.87	1	2back	Block2	2back/STIM_013.jpg
851.27	0.566	0	2back	Block2	2back/STIM_013.jpg
855.438	0.744	0	2back	Block2	2back/STIM_014.jpg
859.341	0.597	1	2back	Block2	2back/STIM_014.jpg
862.28	0.833	1	2back	Block2	2back/STIM_014.jpg
865.155	0.692	0	2back	Block2	2back/STIM_015.jpg
868.011	0.649	1	2back	Block2	2back/STIM_015.jpg
872.513	0.92	1	2back	Block2	2back/STIM_015.jpg
875.462	0.51	1	2back	Block2	2back/STIM_016.jpg
878.892	0.882	1	2back	Block2	2back/STIM_016.jpg
883.547	0.752	1	2back	Block2	2back/STIM_016.jpg
886.499	0.847	1	2back	Block2	2back/STIM_017.jpg
890.371	0.76	1	2back	Block2	2back/STIM_017.jpg
893.351	0.937	1	2back	Block2	2back/STIM_017.jpg
896.604	0.814	1	2back	Block2	2back/STIM_018.jpg
900.476	0.964	1	2back	Block2	2back/STIM_018.jpg
904.407	0.96	1	2back	Block2	2back/STIM_018.jpg
907.969	1.032	0	2back	Block2	2back/STIM_019.jpg
911.092	1.07	0	2back	Block2	2back/STIM_019.jpg
915.449	0.734	0	2back	Block2	2back/STIM_019.jpg
920.16	0.944	1	2back	Block2	2back/STIM_020.jpg
924.159	0.739	0	2back	Block2	2back/STIM_020.jpg
928.496	0.526	1	2back	Block2	2back/STIM_020.jpg
932.792	1.078	0	2back	Block2	2back/STIM_021.jpg
937.372	0.955	0	2back	Block2	2back/STIM_021.jpg
940.754	0.796	0	2back	Block2	2back/STIM_021.jpg
944.934	0.896	0	2back	Block2	2back/STIM_022.jpg
947.915	0.503	0	2back	Block2	2back/STIM_022.jpg
951.918	0.783	1	2back	Block2	2back/STIM_022.jpg
956.432	0.597	0	2back	Block2	2back/STIM_023.jpg
959.953	0.52	1	2back	Block2	2back/STIM_023.jpg
963.781	0.665	1	2back	Block2	2back/STIM_023.jpg
966.469	1.007	1	2back	Block2	2back/STIM_024.jpg
970.207	0.941	1	2back	Block2	2back/STIM_024.jpg
973.658	0.547	0	2back	Block2	2back/STIM_024.jpg
977.162	0.823	1	2back	Block2	2back/STIM_025.jpg
980.352	0.907	1	2back	Block2	2back/STIM_025.jpg
985.241	0.529	1	2back	Block2	2back/STIM_025.jpg
989.225	1.069	1	2back	Block2	2back/STIM_026.jpg
993.575	0.904	1	2back	Block2	2back/STIM_026.jpg
998.104	0.745	1	2back	Block2	2back/STIM_026.jpg
1002.825	1.068	0	2back	Block2	2back/STIM_027.jpg
1007.038	0.596	1	2back	Block2	2back/STIM_027.jpg
1010.924	0.766	1	2back	Block2	2back/STIM_027.jpg
1014.909	1.036	1	2back	Block2	2back/STIM_028.jpg
1018.512	1.078	1	2back	Block2	2back/STIM_028.jpg
1022.858	0.806	1	2back	Block2	2back/STIM_028.jpg
1025.853	0.593	1	2back	Block2	2back/STIM_029.jpg
1028.775	0.525	1	2back	Block2	2back/STIM_029.jpg
1031.874	0.566	1	2back	Block2	2back/STIM_029.jpg
1034.601	0.948	1	2back	Block2	2back/STIM_030.jpg
1038.065	0.821	1	2back	Block2	2back/STIM_030.jpg
1041.141	0.83	1	2back	Block2	2back/STIM_030.jpg
1043.981	0.698	1	2back	Block2	2back/STIM_031.jpg
1047.374	0.815	1	2back	Block2	2back/STIM_031.jpg
1051.556	0.819	1	2back	Block2	2back/STIM_031.jpg
1055.727	0.656	1	2back	Block2	2back/STIM_032.jpg
1059.301	0.538	1	2back	Block2	2back/STIM_032.jpg
1062.796	0.902	1	2back	Block2	2back/STIM_032.jpg
1067.055	0.945	0	2back	Block2	2back/STIM_033.jpg
1071.731	0.979	1	2back	Block2	2back/STIM_033.jpg
1074.713	0.509	0	2back	Block2	2back/STIM_033.jpg
1078.496	0.948	0	2back	Block2	2back/STIM_034.jpg
1083.227	0.535	1	2back	Block2	2back/STIM_034.jpg
1085.941	0.854	0	2back	Block2	2back/STIM_034.jpg
1089.448	0.525	1	2back	Block2	2back/STIM_035.jpg
1093.661	0.667	1	2back	Block2	2back/STIM_035.jpg
1098.303	0.701	1	2back	Block2	2back/STIM_035.jpg
1101.818	0.787	0	2back	Block2	2back/STIM_036.jpg
1105.208	0.91	1	2back	Block2	2back/STIM_036.jpg
1109.83	0.952	1	2back	Block2	2back/STIM_036.jpg
1114.441	0.986	1	2back	Block2	2back/STIM_037.jpg
1118.555	0.69	1	2back	Block2	2back/STIM_037.jpg
1121.945	0.507	1	2back	Block2	2back/STIM_037.jpg
1124.763	0.67	0	2back	Block2	2back/STIM_038.jpg
1129.368	0.895	1	2back	Block2	2back/STIM_038.jpg
1132.417	0.712	0	2back	Block2	2back/STIM_038.jpg
1135.17	0.824	0	2back	Block2	2back/STIM_039.jpg
1139.027	0.728	1	2back	Block2	2back/STIM_039.jpg
1143.679	0.985	0	2back	Block2	2back/STIM_039.jpg
1147.629	0.597	1	0back	Block2	0back/STIM_000.jpg
1150.651	0.662	1	0back	Block2	0back/STIM_000.jpg
1154.264	0.662	1	0back	Block2	0back/STIM_000.jpg
1158.479	0.566	1	0back	Block2	0back/STIM_001.jpg
1161.342	0.591	1	0back	Block2	0back/STIM_001.jpg
1165.462	0.667	1	0back	Block2	0back/STIM_001.jpg
1169.837	0.417	1	0back	Block2	0back/STIM_002.jpg
1173.327	0.734	1	0back	Block2	0back/STIM_002.jpg
1176.322	0.442	1	0back	Block2	0back/STIM_002.jpg
1179.271	0.618	1	0back	Block2	0back/STIM_003.jpg
1183.622	0.743	1	0back	Block2	0back/STIM_003.jpg
1187.488	0.531	1	0back	Block2	0back/STIM_003.jpg
1191.805	0.777	1	0back	Block2	0back/STIM_004.jpg
1195.775	0.613	1	0back	Block2	0back/STIM_004.jpg
1199.164	0.48	0	0back	Block2	0back/STIM_004.jpg
1202.68	0.526	1	0back	Block2	0back/STIM_005.jpg
1205.21	0.466	1	0back	Block2	0back/STIM_005.jpg
1209.616	0.517	1	0back	Block2	0back/STIM_005.jpg
1213.236	0.619	1	0back	Block2	0back/STIM_006.jpg
1216.672	0.55	1	0back	Block2	0back/STIM_006.jpg
1220.618	0.454	0	0back	Block2	0back/STIM_006.jpg
1223.974	0.724	1	0back	Block2	0back/STIM_007.jpg
1228.437	0.577	1	0back	Block2	0back/STIM_007.jpg
1232.506	0.7	0	0back	Block2	0back/STIM_007.jpg
1236.55	0.733	1	0back	Block2	0back/STIM_008.jpg
1239.291	0.457	0	0back	Block2	0back/STIM_008.jpg
1242.858	0.421	1	0back	Block2	0back/STIM_008.jpg
1247.197	0.472	1	0back	Block2	0back/STIM_009.jpg
1250.039	0.561	1	0back	Block2	0back/STIM_009.jpg
1253.13	0.499	1	0back	Block2	0back/STIM_009.jpg
1255.806	0.48	0	0back	Block2	0back/STIM_010.jpg
1260.062	0.573	1	0back	Block2	0back/STIM_010.jpg
1263.146	0.526	0	0back	Block2	0back/STIM_010.jpg
1266.442	0.774	1	0back	Block2	0back/STIM_011.jpg
1269.759	0.442	1	0back	Block2	0back/STIM_011.jpg
1272.847	0.43	0	0back	Block2	0back/STIM_011.jpg
1275.783	0.76	1	0back	Block2	0back/STIM_012.jpg
1280.243	0.537	1	0back	Block2	0back/STIM_012.jpg
1283.096	0.662	0	0back	Block2	0back/STIM_012.jpg
1286.146	0.466	1	0back	Block2	0back/STIM_013.jpg
1288.662	0.704	1	0back	Block2	0back/STIM_013.jpg
1293.137	0.71	1	0back	Block2	0back/STIM_013.jpg
1297.577	0.775	1	0back	Block2	0back/STIM_014.jpg
1300.736	0.748	1	0back	Block2	0back/STIM_014.jpg
1304.289	0.583	1	0back	Block2	0back/STIM_014.jpg
1308.167	0.68	1	0back	Block2	0back/STIM_015.jpg
1312.165	0.411	1	0back	Block2	0back/STIM_015.jpg
1315.503	0.72	1	0back	Block2	0back/STIM_015.jpg
1319.988	0.692	1	0back	Block2	0back/STIM_016.jpg
1323.815	0.505	1	0back	Block2	0back/STIM_016.jpg
1326.797	0.542	1	0back	Block2	0back/STIM_016.jpg
1329.358	0.437	1	0back	Block2	0back/STIM_017.jpg
1333.239	0.494	1	0back	Block2	0back/STIM_017.jpg
1336.342	0.703	1	0back	Block2	0back/STIM_017.jpg
1340.28	0.646	1	0back	Block2	0back/STIM_018.jpg
1343.257	0.534	0	0back	Block2	0back/STIM_018.jpg
1346.487	0.56	1	0back	Block2	0back/STIM_018.jpg
1349.775	0.572	0	0back	Block2	0back/STIM_019.jpg
1354.331	0.724	1	0back	Block2	0back/STIM_019.jpg
1358.126	0.726	1	0back	Block2	0back/STIM_019.jpg
1361.12	0.59	1	2back	Block3	2back/STIM_000.jpg
1364.1	0.505	1	2back	Block3	2back/STIM_000.jpg
1367.12	0.88	1	2back	Block3	2back/STIM_000.jpg
1370.955	0.437	0	2back	Block3	2back/STIM_001.jpg
1375.24	0.787	0	2back	Block3	2back/STIM_001.jpg
1379.308	0.833	1	2back	Block3	2back/STIM_001.jpg
1382.876	0.949	1	2back	Block3	2back/STIM_002.jpg
1386.537	0.882	1	2back	Block3	2back/STIM_002.jpg
1390.112	0.628	1	2back	Block3	2back/STIM_002.jpg
1394.474	0.469	0	2back	Block3	2back/STIM_003.jpg
1398.55	0.885	1	2back	Block3	2back/STIM_003.jpg
1402.416	0.633	1	2back	Block3	2back/STIM_003.jpg
1406.378	0.491	1	2back	Block3	2back/STIM_004.jpg
1409.343	0.936	1	2back	Block3	2back/STIM_004.jpg
1412.898	0.814	1	2back	Block3	2back/STIM_004.jpg
1416.519	0.549	0	2back	Block3	2back/STIM_005.jpg
1419.728	0.839	1	2back	Block3	2back/STIM_005.jpg
1423.669	0.856	1	2back	Block3	2back/STIM_005.jpg
1427.437	0.695	0	2back	Block3	2back/STIM_006.jpg
1431.936	0.622	1	2back	Block3	2back/STIM_006.jpg
1435.208	0.475	1	2back	Block3	2back/STIM_006.jpg
1438.087	0.446	1	2back	Block3	2back/STIM_007.jpg
1440.601	0.821	0	2back	Block3	2back/STIM_007.jpg
1445.387	0.584	1	2back	Block3	2back/STIM_007.jpg
1448.136	0.524	0	2back	Block3	2back/STIM_008.jpg
1451.087	0.844	0	2back	Block3	2back/STIM_008.jpg
1455.112	0.927	1	2back	Block3	2back/STIM_008.jpg
1458.288	0.859	0	2back	Block3	2back/STIM_009.jpg
1461.246	0.433	1	2back	Block3	2back/STIM_009.jpg
1463.79	0.489	1	2back	Block3	2back/STIM_009.jpg
1467.287	0.668	1	2back	Block3	2back/STIM_010.jpg
1470.243	0.899	1	2back	Block3	2back/STIM_010.jpg
1473.593	0.88	1	2back	Block3	2back/STIM_010.jpg
1477.476	0.563	1	2back	Block3	2back/STIM_011.jpg
1481.764	0.706	1	2back	Block3	2back/STIM_011.jpg
1485.492	0.605	1	2back	Block3	2back/STIM_011.jpg
1488.211	0.94	1	2back	Block3	2back/STIM_012.jpg
1492.795	0.686	1	2back	Block3	2back/STIM_012.jpg
1497.227	0.577	1	2back	Block3	2back/STIM_012.jpg
1501.668	0.602	0	2back	Block3	2back/STIM_013.jpg
1505.983	0.8	0	2back	Block3	2back/STIM_013.jpg
1508.915	0.798	0	2back	Block3	2back/STIM_013.jpg
1512.103	0.466	1	2back	Block3	2back/STIM_014.jpg
1515.17	0.526	1	2back	Block3	2back/STIM_014.jpg
1518.966	0.671	0	2back	Block3	2back/STIM_014.jpg
1522.037	0.865	1	2back	Block3	2back/STIM_015.jpg
1526.418	0.537	1	2back	Block3	2back/STIM_015.jpg
1529.349	0.673	0	2back	Block3	2back/STIM_015.jpg
1533.585	0.733	1	2back	Block3	2back/STIM_016.jpg
1537.615	0.416	1	2back	Block3	2back/STIM_016.jpg
1541.988	0.911	1	2back	Block3	2back/STIM_016.jpg
1546.861	0.423	1	2back	Block3	2back/STIM_017.jpg
1549.297	0.594	1	2back	Block3	2back/STIM_017.jpg
1552.321	0.789	0	2back	Block3	2back/STIM_017.jpg
1557.052	0.607	1	2back	Block3	2back/STIM_018.jpg
1560.726	0.74	1	2back	Block3	2back/STIM_018.jpg
1564.718	0.605	1	2back	Block3	2back/STIM_018.jpg
1568.041	0.738	1	2back	Block3	2back/STIM_019.jpg
1571.502	0.542	1	2back	Block3	2back/STIM_019.jpg
1575.601	0.408	1	2back	Block3	2back/STIM_019.jpg
1579.925	0.506	1	2back	Block3	2back/STIM_020.jpg
1583.984	0.534	0	2back	Block3	2back/STIM_020.jpg
1588.454	0.653	1	2back	Block3	2back/STIM_020.jpg
1592.241	0.766	1	2back	Block3	2back/STIM_021.jpg
1596.521	0.461	1	2back	Block3	2back/STIM_021.jpg
1599.168	0.727	1	2back	Block3	2back/STIM_021.jpg
1603.003	0.536	0	2back	Block3	2back/STIM_022.jpg
1605.75	0.866	1	2back	Block3	2back/STIM_022.jpg
1610.071	0.938	1	2back	Block3	2back/STIM_022.jpg
1613.931	0.522	0	2back	Block3	2back/STIM_023.jpg
1616.941	0.436	0	2back	Block3	2back/STIM_023.jpg
1620.643	0.586	0	2back	Block3	2back/STIM_023.jpg
1625.173	0.527	1	2back	Block3	2back/STIM_024.jpg
1629.273	0.728	0	2back	Block3	2back/STIM_024.jpg
1633.136	0.734	0	2back	Block3	2back/STIM_024.jpg
1637.705	0.473	1	2back	Block3	2back/STIM_025.jpg
1641.774	0.88	1	2back	Block3	2back/STIM_025.jpg
1645.886	0.52	1	2back	Block3	2back/STIM_025.jpg
1648.521	0.74	0	2back	Block3	2back/STIM_026.jpg
1652.308	0.692	1	2back	Block3	2back/STIM_026.jpg
1655.139	0.916	1	2back	Block3	2back/STIM_026.jpg
1658.896	0.892	1	2back	Block3	2back/STIM_027.jpg
1663.562	0.628	1	2back	Block3	2back/STIM_027.jpg
1667.144	0.557	1	2back	Block3	2back/STIM_027.jpg
1671.112	0.85	1	2back	Block3	2back/STIM_028.jpg
1674.638	0.472	1	2back	Block3	2back/STIM_028.jpg
1678.841	0.841	1	2back	Block3	2back/STIM_028.jpg
1683.106	0.772	1	2back	Block3	2back/STIM_029.jpg
1686.109	0.801	1	2back	Block3	2back/STIM_029.jpg
1690.015	0.599	1	2back	Block3	2back/STIM_029.jpg
1692.652	0.506	1	2back	Block3	2back/STIM_030.jpg
1695.687	0.756	1	2back	Block3	2back/STIM_030.jpg
1698.879	0.713	1	2back	Block3	2back/STIM_030.jpg
1702.876	0.441	1	2back	Block3	2back/STIM_031.jpg
1705.702	0.681	1	2back	Block3	2back/STIM_031.jpg
1708.583	0.791	1	2back	Block3	2back/STIM_031.jpg
1712.518	0.444	1	2back	Block3	2back/STIM_032.jpg
1716.053	0.408	1	2back	Block3	2back/STIM_032.jpg
1719.386	0.851	1	2back	Block3	2back/STIM_032.jpg
1722.376	0.754	1	2back	Block3	2back/STIM_033.jpg
1726.637	0.924	1	2back	Block3	2back/STIM_033.jpg
1729.833	0.51	1	2back	Block3	2back/STIM_033.jpg
1733.771	0.931	1	2back	Block3	2back/STIM_034.jpg
1737.16	0.612	1	2back	Block3	2back/STIM_034.jpg
1740.87	0.512	1	2back	Block3	2back/STIM_034.jpg
1743.415	0.731	1	2back	Block3	2back/STIM_035.jpg
1747.936	0.924	0	2back	Block3	2back/STIM_035.jpg
1752.521	0.713	1	2back	Block3	2back/STIM_035.jpg
1756.477	0.804	0	2back	Block3	2back/STIM_036.jpg
1760.439	0.733	1	2back	Block3	2back/STIM_036.jpg
1764.296	0.412	1	2back	Block3	2back/STIM_036.jpg
1767.605	0.939	1	2back	Block3	2back/STIM_037.jpg
1770.95	0.638	1	2back	Block3	2back/STIM_037.jpg
1774.148	0.894	1	2back	Block3	2back/STIM_037.jpg
1778.402	0.75	0	2back	Block3	2back/STIM_038.jpg
1783.009	0.788	1	2back	Block3	2back/STIM_038.jpg
1787.755	0.894	1	2back	Block3	2back/STIM_038.jpg
1790.723	0.47	0	2back	Block3	2back/STIM_039.jpg
1793.913	0.714	1	2back	Block3	2back/STIM_039.jpg
1797.525	0.481	1	2back	Block3	2back/STIM_039.jpg
1801.692	0.551	1	0back	Block3	0back/STIM_000.jpg
1804.567	0.561	1	0back	Block3	0back/STIM_000.jpg
1807.641	0.576	1	0back	Block3	0back/STIM_000.jpg
1810.52	0.39	0	0back	Block3	0back/STIM_001.jpg
1813.734	0.478	1	0back	Block3	0back/STIM_001.jpg
1817.05	0.528	1	0back	Block3	0back/STIM_001.jpg
1820.866	0.526	0	0back	Block3	0back/STIM_002.jpg
1823.827	0.589	1	0back	Block3	0back/STIM_002.jpg
1827.177	0.579	1	0back	Block3	0back/STIM_002.jpg
1831.002	0.436	1	0back	Block3	0back/STIM_003.jpg
1833.855	0.596	1	0back	Block3	0back/STIM_003.jpg
1836.617	0.541	1	0back	Block3	0back/STIM_003.jpg
1840.443	0.624	1	0back	Block3	0back/STIM_004.jpg
1843.761	0.684	0	0back	Block3	0back/STIM_004.jpg
1847.474	0.488	1	0back	Block3	0back/STIM_004.jpg
1851.146	0.63	0	0back	Block3	0back/STIM_005.jpg
1853.999	0.475	1	0back	Block3	0back/STIM_005.jpg
1858.133	0.769	1	0back	Block3	0back/STIM_005.jpg
1862.808	0.686	0	0back	Block3	0back/STIM_006.jpg
1865.784	0.645	1	0back	Block3	0back/STIM_006.jpg
1869.269	0.572	0	0back	Block3	0back/STIM_006.jpg
1873.401	0.449	1	0back	Block3	0back/STIM_007.jpg
1876.194	0.556	0	0back	Block3	0back/STIM_007.jpg
1880.23	0.64	0	0back	Block3	0back/STIM_007.jpg
1884.591	0.613	0	0back	Block3	0back/STIM_008.jpg
1888.014	0.458	1	0back	Block3	0back/STIM_008.jpg
1890.522	0.715	1	0back	Block3	0back/STIM_008.jpg
1893.749	0.482	1	0back	Block3	0back/STIM_009.jpg
1897.261	0.508	1	0back	Block3	0back/STIM_009.jpg
1901.697	0.721	1	0back	Block3	0back/STIM_009.jpg
1905.168	0.449	1	0back	Block3	0back/STIM_010.jpg
1909.479	0.413	1	0back	Block3	0back/STIM_010.jpg
1913.363	0.448	1	0back	Block3	0back/STIM_010.jpg
1917.023	0.669	1	0back	Block3	0back/STIM_011.jpg
1920.714	0.491	0	0back	Block3	0back/STIM_011.jpg
1924.621	0.699	0	0back	Block3	0back/STIM_011.jpg
1928.576	0.462	1	0back	Block3	0back/STIM_012.jpg
1931.489	0.406	0	0back	Block3	0back/STIM_012.jpg
1934.665	0.617	1	0back	Block3	0back/STIM_012.jpg
1938.767	0.638	1	0back	Block3	0back/STIM_013.jpg
1942.753	0.563	1	0back	Block3	0back/STIM_013.jpg
1945.721	0.455	0	0back	Block3	0back/STIM_013.jpg
1949.47	0.707	1	0back	Block3	0back/STIM_014.jpg
1953.671	0.73	0	0back	Block3	0back/STIM_014.jpg
1957.108	0.534	1	0back	Block3	0back/STIM_014.jpg
1960.954	0.496	0	0back	Block3	0back/STIM_015.jpg
1965.04	0.581	1	0back	Block3	0back/STIM_015.jpg
1969.223	0.528	1	0back	Block3	0back/STIM_015.jpg
1972.564	0.664	1	0back	Block3	0back/STIM_016.jpg
1976.879	0.543	1	0back	Block3	0back/STIM_016.jpg
1981.067	0.426	0	0back	Block3	0back/STIM_016.jpg
1984.036	0.718	1	0back	Block3	0back/STIM_017.jpg
1987.721	0.771	1	0back	Block3	0back/STIM_017.jpg
1990.79	0.627	0	0back	Block3	0back/STIM_017.jpg
1994.236	0.41	1	0back	Block3	0back/STIM_018.jpg
1998.207	0.775	1	0back	Block3	0back/STIM_018.jpg
2001.908	0.482	0	0back	Block3	0back/STIM_018.jpg
2005.47	0.632	1	0back	Block3	0back/STIM_019.jpg
2008.304	0.567	1	0back	Block3	0back/STIM_019.jpg
2012.671	0.561	0	0back	Block3	0back/STIM_019.jpg
2015.766	0.923	1	2back	Block4	2back/STIM_000.jpg
2019.65	0.521	1	2back	Block4	2back/STIM_000.jpg
2024.166	0.629	1	2back	Block4	2back/STIM_000.jpg
2028.134	0.714	1	2back	Block4	2back/STIM_001.jpg
2032.843	0.452	1	2back	Block4	2back/STIM_001.jpg
2036.577	0.435	1	2back	Block4	2back/STIM_001.jpg
2040.413	0.627	0	2back	Block4	2back/STIM_002.jpg
2043.56	0.652	1	2back	Block4	2back/STIM_002.jpg
2046.37	0.893	1	2back	Block4	2back/STIM_002.jpg
2051.183	0.432	1	2back	Block4	2back/STIM_003.jpg
2054.067	0.475	1	2back	Block4	2back/STIM_003.jpg
2057.62	0.555	1	2back	Block4	2back/STIM_003.jpg
2061.625	0.646	1	2back	Block4	2back/STIM_004.jpg
2065.349	0.856	1	2back	Block4	2back/STIM_004.jpg
2070.164	0.415	1	2back	Block4	2back/STIM_004.jpg
2074.015	0.474	1	2back	Block4	2back/STIM_005.jpg
2077.456	0.695	1	2back	Block4	2back/STIM_005.jpg
2081.864	0.546	0	2back	Block4	2back/STIM_005.jpg
2086.168	0.427	1	2back	Block4	2back/STIM_006.jpg
2090.467	0.874	0	2back	Block4	2back/STIM_006.jpg
2095.232	0.911	0	2back	Block4	2back/STIM_006.jpg
2098.237	0.413	1	2back	Block4	2back/STIM_007.jpg
2100.722	0.828	1	2back	Block4	2back/STIM_007.jpg
2104.525	0.7	1	2back	Block4	2back/STIM_007.jpg
2108.558	0.438	1	2back	Block4	2back/STIM_008.jpg
2111.469	0.898	1	2back	Block4	2back/STIM_008.jpg
2115.305	0.651	1	2back	Block4	2back/STIM_008.jpg
2118.732	0.585	1	2back	Block4	2back/STIM_009.jpg
2121.658	0.909	1	2back	Block4	2back/STIM_009.jpg
2126.199	0.523	1	2back	Block4	2back/STIM_009.jpg
2129.063	0.69	1	2back	Block4	2back/STIM_010.jpg
2133.23	0.938	1	2back	Block4	2back/STIM_010.jpg
2136.258	0.8	1	2back	Block4	2back/STIM_010.jpg
2140.132	0.442	1	2back	Block4	2back/STIM_011.jpg
2144.304	0.531	1	2back	Block4	2back/STIM_011.jpg
2146.889	0.812	1	2back	Block4	2back/STIM_011.jpg
2149.784	0.473	0	2back	Block4	2back/STIM_012.jpg
2153.718	0.665	1	2back	Block4	2back/STIM_012.jpg
2157.353	0.712	1	2back	Block4	2back/STIM_012.jpg
2160.174	0.463	1	2back	Block4	2back/STIM_013.jpg
2162.834	0.785	1	2back	Block4	2back/STIM_013.jpg
2166.309	0.672	1	2back	Block4	2back/STIM_013.jpg
2169.478	0.924	1	2back	Block4	2back/STIM_014.jpg
2173.174	0.482	1	2back	Block4	2back/STIM_014.jpg
2176.041	0.747	1	2back	Block4	2back/STIM_014.jpg
2180.299	0.646	0	2back	Block4	2back/STIM_015.jpg
2184.253	0.919	1	2back	Block4	2back/STIM_015.jpg
2187.912	0.672	0	2back	Block4	2back/STIM_015.jpg
2191.156	0.513	1	2back	Block4	2back/STIM_016.jpg
2194.768	0.884	0	2back	Block4	2back/STIM_016.jpg
2198.594	0.779	1	2back	Block4	2back/STIM_016.jpg
2201.564	0.807	0	2back	Block4	2back/STIM_017.jpg
2205.385	0.476	1	2back	Block4	2back/STIM_017.jpg
2208.455	0.471	1	2back	Block4	2back/STIM_017.jpg
2211.102	0.648	1	2back	Block4	2back/STIM_018.jpg
2214.912	0.635	1	2back	Block4	2back/STIM_018.jpg
2218.01	0.581	1	2back	Block4	2back/STIM_018.jpg
2221.088	0.905	1	2back	Block4	2back/STIM_019.jpg
2224.325	0.466	0	2back	Block4	2back/STIM_019.jpg
2228.428	0.805	1	2back	Block4	2back/STIM_019.jpg
2231.815	0.509	1	2back	Block4	2back/STIM_020.jpg
2236.181	0.706	1	2back	Block4	2back/STIM_020.jpg
2240.062	0.616	1	2back	Block4	2back/STIM_020.jpg
2243.41	0.511	1	2back	Block4	2back/STIM_021.jpg
2247.886	0.635	1	2back	Block4	2back/STIM_021.jpg
2250.536	0.638	0	2back	Block4	2back/STIM_021.jpg
2253.825	0.777	1	2back	Block4	2back/STIM_022.jpg
2257.082	0.791	1	2back	Block4	2back/STIM_022.jpg
2260.396	0.928	1	2back	Block4	2back/STIM_022.jpg
2264.031	0.798	1	2back	Block4	2back/STIM_023.jpg
2268.061	0.736	1	2back	Block4	2back/STIM_023.jpg
2271.303	0.542	0	2back	Block4	2back/STIM_023.jpg
2275.362	0.535	0	2back	Block4	2back/STIM_024.jpg
2278.18	0.844	1	2back	Block4	2back/STIM_024.jpg
2281.654	0.473	0	2back	Block4	2back/STIM_024.jpg
2284.338	0.676	1	2back	Block4	2back/STIM_025.jpg
2287.878	0.73	1	2back	Block4	2back/STIM_025.jpg
2290.88	0.478	1	2back	Block4	2back/STIM_025.jpg
2295.232	0.482	1	2back	Block4	2back/STIM_026.jpg
2299.313	0.769	1	2back	Block4	2back/STIM_026.jpg
2303.724	0.633	0	2back	Block4	2back/STIM_026.jpg
2306.446	0.518	1	2back	Block4	2back/STIM_027.jpg
2310.235	0.799	1	2back	Block4	2back/STIM_027.jpg
2314.942	0.701	1	2back	Block4	2back/STIM_027.jpg
2318.754	0.473	1	2back	Block4	2back/STIM_028.jpg
2321.567	0.51	1	2back	Block4	2back/STIM_028.jpg
2325.955	0.829	0	2back	Block4	2back/STIM_028.jpg
2330.217	0.834	1	2back	Block4	2back/STIM_029.jpg
2334.504	0.43	1	2back	Block4	2back/STIM_029.jpg
2338.291	0.811	1	2back	Block4	2back/STIM_029.jpg
2342.768	0.911	1	2back	Block4	2back/STIM_030.jpg
2346.676	0.461	1	2back	Block4	2back/STIM_030.jpg
2350.469	0.662	1	2back	Block4	2back/STIM_030.jpg
2354.603	0.924	1	2back	Block4	2back/STIM_031.jpg
2358.076	0.419	1	2back	Block4	2back/STIM_031.jpg
2360.716	0.707	1	2back	Block4	2back/STIM_031.jpg
2363.875	0.429	1	2back	Block4	2back/STIM_032.jpg
2366.811	0.6	1	2back	Block4	2back/STIM_032.jpg
2370.234	0.892	0	2back	Block4	2back/STIM_032.jpg
2374.036	0.777	1	2back	Block4	2back/STIM_033.jpg
2378.509	0.599	1	2back	Block4	2back/STIM_033.jpg
2383.002	0.522	1	2back	Block4	2back/STIM_033.jpg
2387.352	0.739	1	2back	Block4	2back/STIM_034.jpg
2390.46	0.413	1	2back	Block4	2back/STIM_034.jpg
2394.212	0.658	1	2back	Block4	2back/STIM_034.jpg
2397.139	0.416	1	2back	Block4	2back/STIM_035.jpg
2401.446	0.582	1	2back	Block4	2back/STIM_035.jpg
2404.209	0.566	1	2back	Block4	2back/STIM_035.jpg
2408.452	0.769	0	2back	Block4	2back/STIM_036.jpg
2412.817	0.909	1	2back	Block4	2back/STIM_036.jpg
2417.174	0.506	1	2back	Block4	2back/STIM_036.jpg
2421.082	0.522	1	2back	Block4	2back/STIM_037.jpg
2424.737	0.547	1	2back	Block4	2back/STIM_037.jpg
2428.499	0.504	0	2back	Block4	2back/STIM_037.jpg
2431.546	0.604	0	2back	Block4	2back/STIM_038.jpg
2434.721	0.452	1	2back	Block4	2back/STIM_038.jpg
2437.583	0.602	1	2back	Block4	2back/STIM_038.jpg
2440.741	0.727	1	2back	Block4	2back/STIM_039.jpg
2444.668	0.57	1	2back	Block4	2back/STIM_039.jpg
2447.75	0.475	1	2back	Block4	2back/STIM_039.jpg
2450.341	0.493	0	0back	Block4	0back/STIM_000.jpg
2454.746	0.59	1	0back	Block4	0back/STIM_000.jpg
2458.294	0.736	1	0back	Block4	0back/STIM_000.jpg
2462.264	0.513	1	0back	Block4	0back/STIM_001.jpg
2465.152	0.413	1	0back	Block4	0back/STIM_001.jpg
2468.233	0.462	1	0back	Block4	0back/STIM_001.jpg
2472.355	0.424	0	0back	Block4	0back/STIM_002.jpg
2475.035	0.681	1	0back	Block4	0back/STIM_002.jpg
2478.357	0.603	0	0back	Block4	0back/STIM_002.jpg
2481.579	0.449	1	0back	Block4	0back/STIM_003.jpg
2485.675	0.477	1	0back	Block4	0back/STIM_003.jpg
2489.867	0.564	1	0back	Block4	0back/STIM_003.jpg
2493.183	0.537	0	0back	Block4	0back/STIM_004.jpg
2497.491	0.54	1	0back	Block4	0back/STIM_004.jpg
2500.486	0.507	1	0back	Block4	0back/STIM_004.jpg
2504.116	0.434	1	0back	Block4	0back/STIM_005.jpg
2507.066	0.713	1	0back	Block4	0back/STIM_005.jpg
2509.985	0.622	1	0back	Block4	0back/STIM_005.jpg
2512.618	0.515	0	0back	Block4	0back/STIM_006.jpg
2515.915	0.603	1	0back	Block4	0back/STIM_006.jpg
2520.336	0.696	1	0back	Block4	0back/STIM_006.jpg
2524.658	0.537	1	0back	Block4	0back/STIM_007.jpg
2527.597	0.418	0	0back	Block4	0back/STIM_007.jpg
2530.641	0.456	1	0back	Block4	0back/STIM_007.jpg
2533.406	0.773	1	0back	Block4	0back/STIM_008.jpg
2537.812	0.543	1	0back	Block4	0back/STIM_008.jpg
2540.909	0.641	1	0back	Block4	0back/STIM_008.jpg
2545.312	0.586	0	0back	Block4	0back/STIM_009.jpg
2548.937	0.548	1	0back	Block4	0back/STIM_009.jpg
2552.315	0.605	1	0back	Block4	0back/STIM_009.jpg
2556.477	0.559	1	0back	Block4	0back/STIM_010.jpg
2560.553	0.41	0	0back	Block4	0back/STIM_010.jpg
2564.182	0.403	1	0back	Block4	0back/STIM_010.jpg
2567.934	0.656	1	0back	Block4	0back/STIM_011.jpg
2572.573	0.578	1	0back	Block4	0back/STIM_011.jpg
2575.946	0.631	0	0back	Block4	0back/STIM_011.jpg
2579.063	0.704	1	0back	Block4	0back/STIM_012.jpg
2582.64	0.509	1	0back	Block4	0back/STIM_012.jpg
2585.858	0.553	1	0back	Block4	0back/STIM_012.jpg
2588.625	0.396	1	0back	Block4	0back/STIM_013.jpg
2591.95	0.739	1	0back	Block4	0back/STIM_013.jpg
2595.359	0.424	1	0back	Block4	0back/STIM_013.jpg
2598.733	0.666	1	0back	Block4	0back/STIM_014.jpg
2601.641	0.62	1	0back	Block4	0back/STIM_014.jpg
2604.618	0.443	1	0back	Block4	0back/STIM_014.jpg
2607.381	0.733	0	0back	Block4	0back/STIM_015.jpg
2611.498	0.455	1	0back	Block4	0back/STIM_015.jpg
2615.269	0.463	1	0back	Block4	0back/STIM_015.jpg
2618.83	0.471	1	0back	Block4	0back/STIM_016.jpg
2622.414	0.773	0	0back	Block4	0back/STIM_016.jpg
2626.059	0.568	0	0back	Block4	0back/STIM_016.jpg
2629.334	0.458	1	0back	Block4	0back/STIM_017.jpg
2632.219	0.41	0	0back	Block4	0back/STIM_017.jpg
2636.062	0.672	1	0back	Block4	0back/STIM_017.jpg
2639.87	0.457	1	0back	Block4	0back/STIM_018.jpg
2642.548	0.677	1	0back	Block4	0back/STIM_018.jpg
2646.126	0.412	1	0back	Block4	0back/STIM_018.jpg
2650.335	0.527	1	0back	Block4	0back/STIM_019.jpg
2654.384	0.548	1	0back	Block4	0back/STIM_019.jpg
2657.079	0.46	1	0back	Block4	0back/STIM_019.jpg
