onset	duration	response_time_ms	trial_type	learning_stage	stimulus	response_port
0.0	0.856	855.7	2back	Block1	2back/STIM_000.jpg	100
4.477	0.981	980.6	2back	Block1	2back/STIM_000.jpg	99
7.706	0.577	577.1	2back	Block1	2back/STIM_000.jpg	100
10.441	1.287	1287.0	2back	Block1	2back/STIM_001.jpg	100
15.534	0.941	941.2	2back	Block1	2back/STIM_001.jpg	99
19.657	0.707	706.7	2back	Block1	2back/STIM_001.jpg	100
22.908	1.045	1045.2	2back	Block1	2back/STIM_002.jpg	99
27.659	0.693	693.1	2back	Block1	2back/STIM_002.jpg	100
31.815	0.942	942.3	2back	Block1	2back/STIM_002.jpg	99
34.975	1.398	1397.6	2back	Block1	2back/STIM_003.jpg	100
39.91	0.599	598.6	2back	Block1	2back/STIM_003.jpg	99
42.843	1.216	1215.9	2back	Block1	2back/STIM_003.jpg	100
47.374	1.428	1427.5	2back	Block1	2back/STIM_004.jpg	100
50.784	0.983	982.9	2back	Block1	2back/STIM_004.jpg	99
53.957	0.676	676.4	2back	Block1	2back/STIM_004.jpg	99
57.133	1.397	1396.7	2back	Block1	2back/STIM_005.jpg	100
60.637	0.719	719.1	2back	Block1	2back/STIM_005.jpg	99
63.721	0.836	835.7	2back	Block1	2back/STIM_005.jpg	99
67.259	0.944	943.8	2back	Block1	2back/STIM_006.jpg	100
70.596	0.665	664.7	2back	Block1	2back/STIM_006.jpg	99
74.162	1.228	1227.8	2back	Block1	2back/STIM_006.jpg	99
77.587	1.1	1100.2	2back	Block1	2back/STIM_007.jpg	99
81.519	1.297	1297.0	2back	Block1	2back/STIM_007.jpg	100
86.432	0.678	678.5	2back	Block1	2back/STIM_007.jpg	100
89.748	1.131	1131.0	2back	Block1	2back/STIM_008.jpg	100
94.241	1.046	1046.2	2back	Block1	2back/STIM_008.jpg	100
98.8	1.136	1135.5	2back	Block1	2back/STIM_008.jpg	99
102.256	1.347	1346.9	2back	Block1	2back/STIM_009.jpg	100
105.611	0.963	963.0	2back	Block1	2back/STIM_009.jpg	99
109.597	1.025	1024.8	2back	Block1	2back/STIM_009.jpg	100
113.924	0.75	749.9	2back	Block1	2back/STIM_010.jpg	99
118.009	1.206	1205.5	2back	Block1	2back/STIM_010.jpg	100
122.644	1.283	1282.8	2back	Block1	2back/STIM_010.jpg	99
126.703	0.711	711.2	2back	Block1	2back/STIM_011.jpg	100
131.168	0.885	885.3	2back	Block1	2back/STIM_011.jpg	99
134.355	0.703	703.4	2back	Block1	2back/STIM_011.jpg	100
137.633	1.072	1071.6	2back	Block1	2back/STIM_012.jpg	100
141.617	0.833	832.8	2back	Block1	2back/STIM_012.jpg	99
145.566	0.99	990.3	2back	Block1	2back/STIM_012.jpg	99
150.165	1.419	1418.9	2back	Block1	2back/STIM_013.jpg	100
154.659	1.322	1322.1	2back	Block1	2back/STIM_013.jpg	99
158.75	1.103	1103.2	2back	Block1	2back/STIM_013.jpg	99
163.066	0.785	785.4	2back	Block1	2back/STIM_014.jpg	99
165.999	0.789	789.1	2back	Block1	2back/STIM_014.jpg	99
169.196	0.954	954.5	2back	Block1	2back/STIM_014.jpg	100
173.487	1.136	1136.0	2back	Block1	2back/STIM_015.jpg	99
176.918	0.787	786.6	2back	Block1	2back/STIM_015.jpg	100
180.778	0.594	593.9	2back	Block1	2back/STIM_015.jpg	99
184.837	0.853	852.7	2back	Block1	2back/STIM_016.jpg	100
188.899	0.664	664.2	2back	Block1	2back/STIM_016.jpg	100
193.419	0.813	813.4	2back	Block1	2back/STIM_016.jpg	99
198.205	1.14	1140.2	2back	Block1	2back/STIM_017.jpg	99
201.95	0.738	737.5	2back	Block1	2back/STIM_017.jpg	99
206.442	0.814	814.1	2back	Block1	2back/STIM_017.jpg	100
211.126	1.366	1366.5	2back	Block1	2back/STIM_018.jpg	100
216.137	1.363	1363.2	2back	Block1	2back/STIM_018.jpg	100
221.139	1.126	1125.6	2back	Block1	2back/STIM_018.jpg	100
224.699	1.036	1036.4	2back	Block1	2back/STIM_019.jpg	100
229.066	0.656	655.5	2back	Block1	2back/STIM_019.jpg	100
233.232	0.567	567.2	2back	Block1	2back/STIM_019.jpg	100
235.92	1.232	1231.7	2back	Block1	2back/STIM_020.jpg	99
239.119	0.693	692.7	2back	Block1	2back/STIM_020.jpg	100
242.075	1.148	1148.0	2back	Block1	2back/STIM_020.jpg	99
246.784	0.69	689.5	2back	Block1	2back/STIM_021.jpg	99
250.879	1.062	1062.0	2back	Block1	2back/STIM_021.jpg	99
254.416	0.809	808.6	2back	Block1	2back/STIM_021.jpg	99
258.41	1.082	1081.9	2back	Block1	2back/STIM_022.jpg	99
263.306	0.792	792.5	2back	Block1	2back/STIM_022.jpg	100
266.246	0.659	659.0	2back	Block1	2back/STIM_022.jpg	99
270.801	0.95	949.9	2back	Block1	2back/STIM_023.jpg	100
275.708	1.31	1310.5	2back	Block1	2back/STIM_023.jpg	100
280.658	0.806	806.3	2back	Block1	2back/STIM_023.jpg	99
283.661	0.787	787.4	2back	Block1	2back/STIM_024.jpg	100
286.53	1.315	1315.1	2back	Block1	2back/STIM_024.jpg	99
291.5	0.848	847.6	2back	Block1	2back/STIM_024.jpg	100
295.945	0.847	847.1	2back	Block1	2back/STIM_025.jpg	99
299.234	1.239	1239.4	2back	Block1	2back/STIM_025.jpg	100
303.845	1.297	1296.9	2back	Block1	2back/STIM_025.jpg	99
307.405	1.059	1059.0	2back	Block1	2back/STIM_026.jpg	99
312.347	0.843	843.4	2back	Block1	2back/STIM_026.jpg	99
315.989	1.027	1026.6	2back	Block1	2back/STIM_026.jpg	99
320.982	0.8	799.5	2back	Block1	2back/STIM_027.jpg	99
325.536	1.218	1217.6	2back	Block1	2back/STIM_027.jpg	100
329.66	1.108	1107.5	2back	Block1	2back/STIM_027.jpg	99
333.39	0.735	735.0	2back	Block1	2back/STIM_028.jpg	99
336.415	0.975	975.0	2back	Block1	2back/STIM_028.jpg	100
340.161	1.097	1096.7	2back	Block1	2back/STIM_028.jpg	100
344.998	0.885	884.7	2back	Block1	2back/STIM_029.jpg	99
349.783	0.95	950.3	2back	Block1	2back/STIM_029.jpg	100
352.707	0.62	620.3	2back	Block1	2back/STIM_029.jpg	99
356.484	1.068	1068.0	2back	Block1	2back/STIM_030.jpg	100
360.184	0.804	803.6	2back	Block1	2back/STIM_030.jpg	100
364.941	0.929	928.7	2back	Block1	2back/STIM_030.jpg	99
368.471	1.219	1218.6	2back	Block1	2back/STIM_031.jpg	99
371.821	1.216	1215.7	2back	Block1	2back/STIM_031.jpg	100
376.019	1.182	1181.5	2back	Block1	2back/STIM_031.jpg	100
380.102	1.109	1108.7	2back	Block1	2back/STIM_032.jpg	99
384.023	0.989	988.9	2back	Block1	2back/STIM_032.jpg	100
387.364	1.293	1292.8	2back	Block1	2back/STIM_032.jpg	100
391.529	0.676	676.0	2back	Block1	2back/STIM_033.jpg	99
395.382	1.012	1011.7	2back	Block1	2back/STIM_033.jpg	100
399.971	0.844	844.0	2back	Block1	2back/STIM_033.jpg	99
403.612	0.698	697.6	2back	Block1	2back/STIM_034.jpg	99
406.917	0.936	935.7	2back	Block1	2back/STIM_034.jpg	100
410.777	1.274	1274.5	2back	Block1	2back/STIM_034.jpg	100
414.927	0.866	866.5	2back	Block1	2back/STIM_035.jpg	99
418.202	1.008	1008.0	2back	Block1	2back/STIM_035.jpg	99
421.489	0.745	745.3	2back	Block1	2back/STIM_035.jpg	100
425.997	1.163	1163.2	2back	Block1	2back/STIM_036.jpg	100
430.245	0.617	616.6	2back	Block1	2back/STIM_036.jpg	100
434.134	0.595	595.0	2back	Block1	2back/STIM_036.jpg	99
438.4	0.926	926.4	2back	Block1	2back/STIM_037.jpg	100
442.947	0.665	664.6	2back	Block1	2back/STIM_037.jpg	99
447.559	1.061	1060.8	2back	Block1	2back/STIM_037.jpg	100
452.504	0.972	971.5	2back	Block1	2back/STIM_038.jpg	99
455.489	1.191	1191.3	2back	Block1	2back/STIM_038.jpg	99
459.423	0.71	709.5	2back	Block1	2back/STIM_038.jpg	99
462.544	1.128	1128.4	2back	Block1	2back/STIM_039.jpg	100
466.635	0.837	837.1	2back	Block1	2back/STIM_039.jpg	99
470.123	1.12	1120.4	2back	Block1	2back/STIM_039.jpg	99
473.854	0.435	434.9	0back	Block1	0back/STIM_000.jpg	100
476.827	0.587	587.2	0back	Block1	0back/STIM_000.jpg	99
479.561	0.68	680.1	0back	Block1	0back/STIM_000.jpg	100
484.062	0.818	817.8	0back	Block1	0back/STIM_001.jpg	100
487.622	0.812	811.6	0back	Block1	0back/STIM_001.jpg	99
491.673	0.578	577.9	0back	Block1	0back/STIM_001.jpg	99
495.892	0.417	416.9	0back	Block1	0back/STIM_002.jpg	100
498.321	0.664	663.9	0back	Block1	0back/STIM_002.jpg	99
502.388	0.657	656.6	0back	Block1	0back/STIM_002.jpg	99
505.357	0.454	453.6	0back	Block1	0back/STIM_003.jpg	99
508.145	0.526	526.4	0back	Block1	0back/STIM_003.jpg	99
511.368	0.436	435.8	0back	Block1	0back/STIM_003.jpg	99
514.355	0.43	429.9	0back	Block1	0back/STIM_004.jpg	100
517.577	0.462	462.3	0back	Block1	0back/STIM_004.jpg	99
521.283	0.694	694.0	0back	Block1	0back/STIM_004.jpg	100
525.899	0.584	584.1	0back	Block1	0back/STIM_005.jpg	99
530.445	0.641	640.9	0back	Block1	0back/STIM_005.jpg	100
533.865	0.469	469.4	0back	Block1	0back/STIM_005.jpg	99
537.753	0.808	808.3	0back	Block1	0back/STIM_006.jpg	100
542.03	0.775	775.3	0back	Block1	0back/STIM_006.jpg	100
546.729	0.742	741.5	0back	Block1	0back/STIM_006.jpg	99
550.417	0.422	421.9	0back	Block1	0back/STIM_007.jpg	100
552.881	0.525	524.6	0back	Block1	0back/STIM_007.jpg	100
555.887	0.599	599.0	0back	Block1	0back/STIM_007.jpg	99
558.776	0.447	447.1	0back	Block1	0back/STIM_008.jpg	100
561.396	0.63	629.9	0back	Block1	0back/STIM_008.jpg	100
565.344	0.645	644.7	0back	Block1	0back/STIM_008.jpg	100
569.938	0.526	526.0	0back	Block1	0back/STIM_009.jpg	100
573.111	0.635	634.7	0back	Block1	0back/STIM_009.jpg	100
577.023	0.766	766.3	0back	Block1	0back/STIM_009.jpg	99
579.912	0.423	423.0	0back	Block1	0back/STIM_010.jpg	100
582.323	0.598	597.8	0back	Block1	0back/STIM_010.jpg	100
586.365	0.677	676.9	0back	Block1	0back/STIM_010.jpg	99
589.317	0.696	696.2	0back	Block1	0back/STIM_011.jpg	99
592.595	0.488	487.5	0back	Block1	0back/STIM_011.jpg	100
595.372	0.779	779.2	0back	Block1	0back/STIM_011.jpg	99
598.159	0.63	629.8	0back	Block1	0back/STIM_012.jpg	100
601.49	0.805	805.1	0back	Block1	0back/STIM_012.jpg	100
605.485	0.805	804.8	0back	Block1	0back/STIM_012.jpg	100
609.647	0.662	662.0	0back	Block1	0back/STIM_013.jpg	100
612.596	0.583	583.4	0back	Block1	0back/STIM_013.jpg	100
615.175	0.6	599.9	0back	Block1	0back/STIM_013.jpg	100
618.663	0.499	499.1	0back	Block1	0back/STIM_014.jpg	99
623.075	0.797	796.6	0back	Block1	0back/STIM_014.jpg	100
626.584	0.642	642.4	0back	Block1	0back/STIM_014.jpg	100
630.957	0.787	787.2	0back	Block1	0back/STIM_015.jpg	100
635.107	0.817	817.4	0back	Block1	0back/STIM_015.jpg	100
638.322	0.819	818.7	0back	Block1	0back/STIM_015.jpg	99
641.318	0.783	782.6	0back	Block1	0back/STIM_016.jpg	99
645.422	0.594	594.1	0back	Block1	0back/STIM_016.jpg	99
649.062	0.481	480.9	0back	Block1	0back/STIM_016.jpg	100
651.767	0.424	423.9	0back	Block1	0back/STIM_017.jpg	99
655.41	0.694	693.5	0back	Block1	0back/STIM_017.jpg	100
658.585	0.744	744.3	0back	Block1	0back/STIM_017.jpg	99
662.75	0.712	712.3	0back	Block1	0back/STIM_018.jpg	99
666.635	0.54	540.3	0back	Block1	0back/STIM_018.jpg	99
669.53	0.5	500.1	0back	Block1	0back/STIM_018.jpg	100
673.857	0.668	667.5	0back	Block1	0back/STIM_019.jpg	99
677.333	0.595	595.3	0back	Block1	0back/STIM_019.jpg	100
680.474	0.656	656.0	0back	Block1	0back/STIM_019.jpg	99
683.374	0.565	565.1	2back	Block2	2back/STIM_000.jpg	99
685.952	1.125	1124.9	2back	Block2	2back/STIM_000.jpg	100
690.809	0.651	650.7	2back	Block2	2back/STIM_000.jpg	99
694.925	1.023	1022.6	2back	Block2	2back/STIM_001.jpg	100
699.689	0.501	501.1	2back	Block2	2back/STIM_001.jpg	99
703.884	0.941	940.6	2back	Block2	2back/STIM_001.jpg	100
706.968	0.727	726.6	2back	Block2	2back/STIM_002.jpg	100
710.749	0.787	786.7	2back	Block2	2back/STIM_002.jpg	100
714.262	0.731	731.3	2back	Block2	2back/STIM_002.jpg	100
718.44	0.776	775.7	2back	Block2	2back/STIM_003.jpg	99
722.449	0.688	688.4	2back	Block2	2back/STIM_003.jpg	99
726.759	0.769	769.3	2back	Block2	2back/STIM_003.jpg	100
730.411	1.102	1101.6	2back	Block2	2back/STIM_004.jpg	99
733.739	1.082	1081.7	2back	Block2	2back/STIM_004.jpg	99
737.404	0.862	862.3	2back	Block2	2back/STIM_004.jpg	99
740.505	0.981	981.1	2back	Block2	2back/STIM_005.jpg	100
744.969	0.562	562.0	2back	Block2	2back/STIM_005.jpg	99
748.352	0.683	683.3	2back	Block2	2back/STIM_005.jpg	100
751.219	0.545	545.0	2back	Block2	2back/STIM_006.jpg	100
755.461	1.155	1154.7	2back	Block2	2back/STIM_006.jpg	100
760.096	0.897	897.2	2back	Block2	2back/STIM_006.jpg	100
763.321	0.628	627.7	2back	Block2	2back/STIM_007.jpg	100
766.919	0.629	629.2	2back	Block2	2back/STIM_007.jpg	99
769.758	0.512	512.5	2back	Block2	2back/STIM_007.jpg	99
774.067	0.962	961.6	2back	Block2	2back/STIM_008.jpg	99
778.566	1.086	1085.8	2back	Block2	2back/STIM_008.jpg	100
781.913	0.696	695.7	2back	Block2	2back/STIM_008.jpg	100
784.618	1.007	1006.6	2back	Block2	2back/STIM_009.jpg	100
789.46	0.883	882.9	2back	Block2	2back/STIM_009.jpg	100
792.926	0.873	873.1	2back	Block2	2back/STIM_009.jpg	100
796.979	0.543	543.2	2back	Block2	2back/STIM_010.jpg	100
800.184	0.795	795.4	2back	Block2	2back/STIM_010.jpg	99
804.151	0.929	929.3	2back	Block2	2back/STIM_010.jpg	99
807.49	1.124	1124.2	2back	Block2	2back/STIM_011.jpg	100
810.989	0.869	869.4	2back	Block2	2back/STIM_011.jpg	100
815.614	0.654	654.3	2back	Block2	2back/STIM_011.jpg	100
819.427	0.92	919.6	2back	Block2	2back/STIM_012.jpg	99
823.644	1.096	1096.3	2back	Block2	2back/STIM_012.jpg	100
828.506	0.647	647.2	2back	Block2	2back/STIM_012.jpg	100
831.871	1.156	1156.1	2back	Block2	2back/STIM_013.jpg	99
835.473	0.938	937.5	2back	Block2	2back/STIM_013.jpg	99
840.337	0.65	650.1	2back	Block2	2back/STIM_013.jpg	99
843.255	1.09	1090.0	2back	Block2	2back/STIM_014.jpg	99
847.542	0.655	654.6	2back	Block2	2back/STIM_014.jpg	99
850.764	0.903	902.8	2back	Block2	2back/STIM_014.jpg	100
854.289	0.654	654.4	2back	Block2	2back/STIM_015.jpg	100
858.777	0.97	969.8	2back	Block2	2back/STIM_015.jpg	99
862.826	0.717	717.3	2back	Block2	2back/STIM_015.jpg	99
865.592	1.14	1139.6	2back	Block2	2back/STIM_016.jpg	99
870.692	0.636	636.0	2back	Block2	2back/STIM_016.jpg	100
874.568	0.54	540.1	2back	Block2	2back/STIM_016.jpg	100
877.321	1.188	1187.9	2back	Block2	2back/STIM_017.jpg	100
882.447	0.532	531.9	2back	Block2	2back/STIM_017.jpg	100
886.227	0.724	723.6	2back	Block2	2back/STIM_017.jpg	99
888.977	0.778	778.3	2back	Block2	2back/STIM_018.jpg	100
892.229	0.661	661.2	2back	Block2	2back/STIM_018.jpg	99
895.212	0.769	769.3	2back	Block2	2back/STIM_018.jpg	99
899.439	1.046	1046.1	2back	Block2	2back/STIM_019.jpg	99
903.722	0.828	827.8	2back	Block2	2back/STIM_019.jpg	100
906.965	0.99	989.9	2back	Block2	2back/STIM_019.jpg	99
910.548	0.95	950.5	2back	Block2	2back/STIM_020.jpg	99
915.355	0.705	705.0	2back	Block2	2back/STIM_020.jpg	99
919.917	1.048	1047.5	2back	Block2	2back/STIM_020.jpg	100
923.885	0.975	975.2	2back	Block2	2back/STIM_021.jpg	99
928.598	0.818	817.8	2back	Block2	2back/STIM_021.jpg	100
931.695	0.948	948.5	2back	Block2	2back/STIM_021.jpg	100
935.194	1.171	1171.2	2back	Block2	2back/STIM_022.jpg	99
938.374	0.57	570.3	2back	Block2	2back/STIM_022.jpg	100
942.057	0.844	843.9	2back	Block2	2back/STIM_022.jpg	99
945.79	0.785	785.1	2back	Block2	2back/STIM_023.jpg	100
948.748	0.751	751.3	2back	Block2	2back/STIM_023.jpg	99
952.252	0.963	963.2	2back	Block2	2back/STIM_023.jpg	100
956.243	0.758	758.5	2back	Block2	2back/STIM_024.jpg	100
960.022	0.79	790.5	2back	Block2	2back/STIM_024.jpg	100
963.928	0.669	669.3	2back	Block2	2back/STIM_024.jpg	99
967.989	0.559	559.0	2back	Block2	2back/STIM_025.jpg	99
971.446	1.028	1028.1	2back	Block2	2back/STIM_025.jpg	100
976.275	0.589	589.3	2back	Block2	2back/STIM_025.jpg	99
980.664	0.971	970.7	2back	Block2	2back/STIM_026.jpg	99
985.271	1.009	1008.7	2back	Block2	2back/STIM_026.jpg	99
989.313	0.906	906.0	2back	Block2	2back/STIM_026.jpg	100
993.405	1.055	1055.1	2back	Block2	2back/STIM_027.jpg	99
997.099	0.778	777.5	2back	Block2	2back/STIM_027.jpg	100
1001.839	0.656	655.6	2back	Block2	2back/STIM_027.jpg	99
1006.09	0.654	653.9	2back	Block2	2back/STIM_028.jpg	100
1010.185	0.945	945.2	2back	Block2	2back/STIM_028.jpg	100
1014.461	1.064	1064.5	2back	Block2	2back/STIM_028.jpg	100
1018.748	0.947	946.7	2back	Block2	2back/STIM_029.jpg	100
1022.934	0.601	601.2	2back	Block2	2back/STIM_029.jpg	99
1026.161	0.7	699.9	2back	Block2	2back/STIM_029.jpg	99
1030.215	0.66	660.2	2back	Block2	2back/STIM_030.jpg	99
1033.265	0.744	744.3	2back	Block2	2back/STIM_030.jpg	99
1037.69	0.861	860.8	2back	Block2	2back/STIM_030.jpg	100
1042.058	1.047	1047.2	2back	Block2	2back/STIM_031.jpg	99
1046.255	1.103	1102.6	2back	Block2	2back/STIM_031.jpg	99
1049.903	0.889	888.7	2back	Block2	2back/STIM_031.jpg	100
1053.112	1.089	1088.7	2back	Block2	2back/STIM_032.jpg	99
1058.075	0.682	681.6	2back	Block2	2back/STIM_032.jpg	99
1062.266	0.696	695.7	2back	Block2	2back/STIM_032.jpg	100
1064.982	1.202	1202.4	2back	Block2	2back/STIM_033.jpg	99
1069.192	0.675	675.1	2back	Block2	2back/STIM_033.jpg	100
1073.591	0.729	728.6	2back	Block2	2back/STIM_033.jpg	100
1077.292	0.998	998.3	2back	Block2	2back/STIM_034.jpg	100
1082.006	0.715	714.7	2back	Block2	2back/STIM_034.jpg	100
1086.406	0.726	726.3	2back	Block2	2back/STIM_034.jpg	100
1090.767	0.586	586.4	2back	Block2	2back/STIM_035.jpg	100
1094.957	1.01	1009.5	2back	Block2	2back/STIM_035.jpg	100
1099.387	0.823	823.2	2back	Block2	2back/STIM_035.jpg	99
1102.95	1.0	999.7	2back	Block2	2back/STIM_036.jpg	99
1107.306	0.503	503.4	2back	Block2	2back/STIM_036.jpg	100
1110.734	0.547	547.1	2back	Block2	2back/STIM_036.jpg	100
1114.197	0.78	780.1	2back	Block2	2back/STIM_037.jpg	99
1117.442	1.144	1143.8	2back	Block2	2back/STIM_037.jpg	99
1121.589	0.92	920.3	2back	Block2	2back/STIM_037.jpg	100
1125.169	0.853	853.3	2back	Block2	2back/STIM_038.jpg	99
1128.146	0.826	826.2	2back	Block2	2back/STIM_038.jpg	99
1132.737	0.654	653.7	2back	Block2	2back/STIM_038.jpg	99
1135.663	0.81	810.4	2back	Block2	2back/STIM_039.jpg	100
1139.073	0.776	776.1	2back	Block2	2back/STIM_039.jpg	99
1143.552	0.97	969.9	2back	Block2	2back/STIM_039.jpg	100
1148.406	0.821	820.6	0back	Block2	0back/STIM_000.jpg	100
1153.067	0.591	590.9	0back	Block2	0back/STIM_000.jpg	99
1157.132	0.715	715.0	0back	Block2	0back/STIM_000.jpg	99
1160.605	0.756	755.8	0back	Block2	0back/STIM_001.jpg	99
1163.561	0.706	706.5	0back	Block2	0back/STIM_001.jpg	100
1167.537	0.719	719.4	0back	Block2	0back/STIM_001.jpg	99
1170.369	0.748	748.3	0back	Block2	0back/STIM_002.jpg	99
1173.101	0.552	552.2	0back	Block2	0back/STIM_002.jpg	99
1175.969	0.661	661.2	0back	Block2	0back/STIM_002.jpg	100
1180.299	0.536	535.6	0back	Block2	0back/STIM_003.jpg	99
1184.392	0.631	631.3	0back	Block2	0back/STIM_003.jpg	100
1188.973	0.713	713.2	0back	Block2	0back/STIM_003.jpg	100
1193.039	0.726	726.2	0back	Block2	0back/STIM_004.jpg	99
1197.664	0.809	809.1	0back	Block2	0back/STIM_004.jpg	100
1200.703	0.577	576.7	0back	Block2	0back/STIM_004.jpg	100
1204.43	0.802	801.9	0back	Block2	0back/STIM_005.jpg	99
1207.255	0.628	628.1	0back	Block2	0back/STIM_005.jpg	99
1210.494	0.49	490.4	0back	Block2	0back/STIM_005.jpg	100
1214.25	0.428	428.2	0back	Block2	0back/STIM_006.jpg	99
1218.235	0.505	505.5	0back	Block2	0back/STIM_006.jpg	99
1222.289	0.579	579.3	0back	Block2	0back/STIM_006.jpg	99
1226.804	0.823	823.1	0back	Block2	0back/STIM_007.jpg	99
1231.561	0.628	628.1	0back	Block2	0back/STIM_007.jpg	100
1235.479	0.706	706.2	0back	Block2	0back/STIM_007.jpg	100
1238.629	0.755	754.9	0back	Block2	0back/STIM_008.jpg	100
1242.889	0.734	733.6	0back	Block2	0back/STIM_008.jpg	100
1247.025	0.462	462.0	0back	Block2	0back/STIM_008.jpg	99
1250.806	0.785	784.7	0back	Block2	0back/STIM_009.jpg	100
1254.841	0.422	421.5	0back	Block2	0back/STIM_009.jpg	100
1257.611	0.746	745.7	0back	Block2	0back/STIM_009.jpg	99
1260.844	0.822	822.2	0back	Block2	0back/STIM_010.jpg	99
1264.656	0.439	439.4	0back	Block2	0back/STIM_010.jpg	100
1267.686	0.694	694.4	0back	Block2	0back/STIM_010.jpg	100
1271.91	0.612	611.5	0back	Block2	0back/STIM_011.jpg	99
1274.778	0.635	635.3	0back	Block2	0back/STIM_011.jpg	100
1277.527	0.672	671.8	0back	Block2	0back/STIM_011.jpg	100
1281.766	0.8	800.4	0back	Block2	0back/STIM_012.jpg	99
1285.866	0.57	569.5	0back	Block2	0back/STIM_012.jpg	99
1289.736	0.761	761.4	0back	Block2	0back/STIM_012.jpg	99
1293.233	0.71	709.7	0back	Block2	0back/STIM_013.jpg	100
1296.954	0.447	447.4	0back	Block2	0back/STIM_013.jpg	100
1299.457	0.438	437.5	0back	Block2	0back/STIM_013.jpg	100
1303.71	0.713	712.8	0back	Block2	0back/STIM_014.jpg	100
1307.771	0.528	528.3	0back	Block2	0back/STIM_014.jpg	99
1311.999	0.694	694.1	0back	Block2	0back/STIM_014.jpg	99
1315.873	0.729	728.8	0back	Block2	0back/STIM_015.jpg	99
1318.999	0.463	463.3	0back	Block2	0back/STIM_015.jpg	100
1321.85	0.582	582.4	0back	Block2	0back/STIM_015.jpg	100
1324.981	0.664	663.5	0back	Block2	0back/STIM_016.jpg	99
1328.241	0.717	717.2	0back	Block2	0back/STIM_016.jpg	99
1330.956	0.674	673.8	0back	Block2	0back/STIM_016.jpg	99
1334.63	0.44	440.4	0back	Block2	0back/STIM_017.jpg	100
1337.062	0.619	618.7	0back	Block2	0back/STIM_017.jpg	99
1340.763	0.427	427.2	0back	Block2	0back/STIM_017.jpg	99
1344.328	0.71	709.7	0back	Block2	0back/STIM_018.jpg	100
1348.624	0.509	509.5	0back	Block2	0back/STIM_018.jpg	99
1351.462	0.519	518.7	0back	Block2	0back/STIM_018.jpg	99
1355.51	0.458	457.8	0back	Block2	0back/STIM_019.jpg	100
1358.206	0.757	757.2	0back	Block2	0back/STIM_019.jpg	100
1362.545	0.633	632.9	0back	Block2	0back/STIM_019.jpg	99
1366.428	0.958	957.8	2back	Block3	2back/STIM_000.jpg	99
1371.041	0.949	948.8	2back	Block3	2back/STIM_000.jpg	100
1374.3	0.511	511.4	2back	Block3	2back/STIM_000.jpg	100
1378.015	0.482	481.5	2back	Block3	2back/STIM_001.jpg	99
1381.918	0.664	664.5	2back	Block3	2back/STIM_001.jpg	99
1385.268	0.655	654.8	2back	Block3	2back/STIM_001.jpg	99
1389.499	0.744	744.1	2back	Block3	2back/STIM_002.jpg	99
1392.457	0.493	492.9	2back	Block3	2back/STIM_002.jpg	99
1396.071	0.791	790.9	2back	Block3	2back/STIM_002.jpg	100
1399.436	0.709	709.0	2back	Block3	2back/STIM_003.jpg	99
1403.839	0.874	873.5	2back	Block3	2back/STIM_003.jpg	100
1406.822	0.777	777.1	2back	Block3	2back/STIM_003.jpg	99
1410.067	0.556	555.8	2back	Block3	2back/STIM_004.jpg	100
1413.948	0.686	686.2	2back	Block3	2back/STIM_004.jpg	99
1418.088	0.589	589.4	2back	Block3	2back/STIM_004.jpg	100
1421.526	0.848	848.5	2back	Block3	2back/STIM_005.jpg	99
1425.832	0.963	962.9	2back	Block3	2back/STIM_005.jpg	100
1428.789	0.814	813.5	2back	Block3	2back/STIM_005.jpg	99
1432.049	0.747	747.2	2back	Block3	2back/STIM_006.jpg	100
1435.646	0.783	782.6	2back	Block3	2back/STIM_006.jpg	100
1439.172	0.982	982.3	2back	Block3	2back/STIM_006.jpg	100
1443.511	0.602	601.6	2back	Block3	2back/STIM_007.jpg	100
1447.842	0.797	796.9	2back	Block3	2back/STIM_007.jpg	99
1451.174	0.754	753.9	2back	Block3	2back/STIM_007.jpg	100
1455.52	0.726	726.1	2back	Block3	2back/STIM_008.jpg	100
1459.977	0.905	904.9	2back	Block3	2back/STIM_008.jpg	100
1462.931	0.536	536.4	2back	Block3	2back/STIM_008.jpg	100
1466.769	0.759	758.7	2back	Block3	2back/STIM_009.jpg	100
1471.021	0.819	819.1	2back	Block3	2back/STIM_009.jpg	100
1474.42	0.973	973.1	2back	Block3	2back/STIM_009.jpg	99
1478.002	0.777	776.8	2back	Block3	2back/STIM_010.jpg	99
1481.59	0.605	604.6	2back	Block3	2back/STIM_010.jpg	99
1486.068	0.963	963.3	2back	Block3	2back/STIM_010.jpg	100
1490.479	0.648	648.0	2back	Block3	2back/STIM_011.jpg	99
1493.606	0.572	571.7	2back	Block3	2back/STIM_011.jpg	100
1496.163	0.977	977.4	2back	Block3	2back/STIM_011.jpg	100
1500.204	0.93	930.5	2back	Block3	2back/STIM_012.jpg	100
1504.567	0.754	753.6	2back	Block3	2back/STIM_012.jpg	100
1508.59	0.74	739.8	2back	Block3	2back/STIM_012.jpg	99
1512.784	0.871	871.1	2back	Block3	2back/STIM_013.jpg	99
1517.352	0.609	609.1	2back	Block3	2back/STIM_013.jpg	99
1521.693	0.818	817.9	2back	Block3	2back/STIM_013.jpg	100
1526.346	0.822	822.4	2back	Block3	2back/STIM_014.jpg	100
1530.752	0.795	795.1	2back	Block3	2back/STIM_014.jpg	100
1535.271	0.681	681.1	2back	Block3	2back/STIM_014.jpg	99
1539.448	0.661	660.8	2back	Block3	2back/STIM_015.jpg	99
1543.43	0.573	572.8	2back	Block3	2back/STIM_015.jpg	100
1547.481	0.751	751.0	2back	Block3	2back/STIM_015.jpg	99
1550.246	0.563	562.6	2back	Block3	2back/STIM_016.jpg	100
1553.063	0.71	709.9	2back	Block3	2back/STIM_016.jpg	99
1556.976	0.784	784.1	2back	Block3	2back/STIM_016.jpg	99
1561.4	0.91	910.4	2back	Block3	2back/STIM_017.jpg	100
1564.632	0.886	885.9	2back	Block3	2back/STIM_017.jpg	99
1569.064	0.948	948.0	2back	Block3	2back/STIM_017.jpg	100
1573.38	0.786	785.7	2back	Block3	2back/STIM_018.jpg	99
1577.057	0.807	807.2	2back	Block3	2back/STIM_018.jpg	100
1580.591	0.804	804.3	2back	Block3	2back/STIM_018.jpg	100
1584.886	0.954	953.6	2back	Block3	2back/STIM_019.jpg	99
1588.801	0.477	476.9	2back	Block3	2back/STIM_019.jpg	100
1592.722	0.786	785.6	2back	Block3	2back/STIM_019.jpg	100
1596.583	0.929	928.6	2back	Block3	2back/STIM_020.jpg	100
1600.656	0.849	849.1	2back	Block3	2back/STIM_020.jpg	99
1604.43	0.853	853.1	2back	Block3	2back/STIM_020.jpg	100
1608.535	0.669	668.9	2back	Block3	2back/STIM_021.jpg	100
1611.212	0.966	965.6	2back	Block3	2back/STIM_021.jpg	100
1615.442	0.539	538.6	2back	Block3	2back/STIM_021.jpg	100
1617.978	0.512	511.6	2back	Block3	2back/STIM_022.jpg	100
1621.009	0.517	516.6	2back	Block3	2back/STIM_022.jpg	100
1623.564	0.698	698.2	2back	Block3	2back/STIM_022.jpg	99
1627.215	0.749	748.7	2back	Block3	2back/STIM_023.jpg	100
1631.801	0.468	468.4	2back	Block3	2back/STIM_023.jpg	99
1635.811	0.87	870.0	2back	Block3	2back/STIM_023.jpg	100
1639.101	0.941	940.6	2back	Block3	2back/STIM_024.jpg	100
1642.761	0.958	958.0	2back	Block3	2back/STIM_024.jpg	99
1647.56	0.842	841.7	2back	Block3	2back/STIM_024.jpg	99
1650.986	0.661	660.7	2back	Block3	2back/STIM_025.jpg	99
1654.602	0.467	467.0	2back	Block3	2back/STIM_025.jpg	99
1658.948	0.522	522.2	2back	Block3	2back/STIM_025.jpg	99
1662.88	0.573	572.6	2back	Block3	2back/STIM_026.jpg	99
1665.813	0.462	461.7	2back	Block3	2back/STIM_026.jpg	100
1668.524	0.725	724.7	2back	Block3	2back/STIM_026.jpg	100
1671.858	0.494	493.9	2back	Block3	2back/STIM_027.jpg	100
1674.683	0.908	907.8	2back	Block3	2back/STIM_027.jpg	99
1679.371	0.754	753.9	2back	Block3	2back/STIM_027.jpg	100
1683.618	0.483	482.6	2back	Block3	2back/STIM_028.jpg	100
1688.063	0.445	444.6	2back	Block3	2back/STIM_028.jpg	100
1690.526	0.79	790.1	2back	Block3	2back/STIM_028.jpg	99
1694.783	0.524	523.7	2back	Block3	2back/STIM_029.jpg	100
1699.086	0.858	858.1	2back	Block3	2back/STIM_029.jpg	99
1703.094	0.602	602.2	2back	Block3	2back/STIM_029.jpg	100
1707.093	0.561	561.0	2back	Block3	2back/STIM_030.jpg	99
1709.744	0.917	916.6	2back	Block3	2back/STIM_030.jpg	100
1714.397	0.771	771.2	2back	Block3	2back/STIM_030.jpg	99
1718.913	0.845	845.0	2back	Block3	2back/STIM_031.jpg	100
1722.404	0.585	585.4	2back	Block3	2back/STIM_031.jpg	100
1725.156	0.613	612.6	2back	Block3	2back/STIM_031.jpg	100
1728.933	0.514	514.1	2back	Block3	2back/STIM_032.jpg	99
1732.875	0.952	952.1	2back	Block3	2back/STIM_032.jpg	100
1737.293	0.885	885.2	2back	Block3	2back/STIM_032.jpg	100
1740.295	0.683	683.0	2back	Block3	2back/STIM_033.jpg	99
1743.577	0.641	640.9	2back	Block3	2back/STIM_033.jpg	99
1746.894	0.489	488.7	2back	Block3	2back/STIM_033.jpg	100
1749.98	0.938	937.9	2back	Block3	2back/STIM_034.jpg	100
1754.828	0.824	823.9	2back	Block3	2back/STIM_034.jpg	99
1758.045	0.861	860.7	2back	Block3	2back/STIM_034.jpg	99
1761.822	0.555	554.6	2back	Block3	2back/STIM_035.jpg	100
1765.162	0.665	665.3	2back	Block3	2back/STIM_035.jpg	100
1769.704	0.444	444.4	2back	Block3	2back/STIM_035.jpg	99
1772.555	0.648	647.9	2back	Block3	2back/STIM_036.jpg	100
1776.497	0.753	752.8	2back	Block3	2back/STIM_036.jpg	99
1779.657	0.611	610.9	2back	Block3	2back/STIM_036.jpg	100
1783.851	0.511	511.2	2back	Block3	2back/STIM_037.jpg	99
1787.618	0.516	516.0	2back	Block3	2back/STIM_037.jpg	99
1791.793	0.844	844.5	2back	Block3	2back/STIM_037.jpg	100
1796.364	0.46	460.0	2back	Block3	2back/STIM_038.jpg	100
1798.841	0.65	650.5	2back	Block3	2back/STIM_038.jpg	99
1802.701	0.985	984.8	2back	Block3	2back/STIM_038.jpg	100
1807.11	0.656	656.0	2back	Block3	2back/STIM_039.jpg	100
1810.405	0.472	472.4	2back	Block3	2back/STIM_039.jpg	100
1814.852	0.437	437.0	2back	Block3	2back/STIM_039.jpg	100
1818.612	0.502	502.1	0back	Block3	0back/STIM_000.jpg	100
1822.018	0.601	600.9	0back	Block3	0back/STIM_000.jpg	100
1826.473	0.561	560.8	0back	Block3	0back/STIM_000.jpg	100
1829.779	0.715	714.9	0back	Block3	0back/STIM_001.jpg	100
1833.58	0.801	800.9	0back	Block3	0back/STIM_001.jpg	99
1837.705	0.54	540.1	0back	Block3	0back/STIM_001.jpg	100
1840.791	0.671	670.7	0back	Block3	0back/STIM_002.jpg	100
1844.979	0.473	473.3	0back	Block3	0back/STIM_002.jpg	100
1848.212	0.494	494.4	0back	Block3	0back/STIM_002.jpg	100
1851.202	0.758	758.1	0back	Block3	0back/STIM_003.jpg	99
1855.529	0.814	814.1	0back	Block3	0back/STIM_003.jpg	99
1858.511	0.447	447.2	0back	Block3	0back/STIM_003.jpg	99
1861.372	0.598	597.6	0back	Block3	0back/STIM_004.jpg	100
1865.435	0.523	522.7	0back	Block3	0back/STIM_004.jpg	100
1869.285	0.669	668.8	0back	Block3	0back/STIM_004.jpg	99
1872.554	0.574	574.1	0back	Block3	0back/STIM_005.jpg	100
1875.257	0.603	602.7	0back	Block3	0back/STIM_005.jpg	99
1878.12	0.654	653.7	0back	Block3	0back/STIM_005.jpg	100
1881.318	0.633	632.9	0back	Block3	0back/STIM_006.jpg	99
1884.07	0.672	672.4	0back	Block3	0back/STIM_006.jpg	99
1887.87	0.776	776.2	0back	Block3	0back/STIM_006.jpg	99
1892.06	0.477	476.8	0back	Block3	0back/STIM_007.jpg	99
1894.541	0.633	632.9	0back	Block3	0back/STIM_007.jpg	99
1898.371	0.782	782.5	0back	Block3	0back/STIM_007.jpg	99
1901.384	0.566	565.5	0back	Block3	0back/STIM_008.jpg	100
1904.525	0.672	671.9	0back	Block3	0back/STIM_008.jpg	100
1907.218	0.625	625.4	0back	Block3	0back/STIM_008.jpg	100
1911.054	0.794	793.5	0back	Block3	0back/STIM_009.jpg	100
1914.281	0.71	710.2	0back	Block3	0back/STIM_009.jpg	99
1918.503	0.511	511.4	0back	Block3	0back/STIM_009.jpg	100
1922.009	0.466	466.5	0back	Block3	0back/STIM_010.jpg	100
1926.405	0.456	456.4	0back	Block3	0back/STIM_010.jpg	100
1929.962	0.523	523.3	0back	Block3	0back/STIM_010.jpg	100
1934.021	0.519	519.1	0back	Block3	0back/STIM_011.jpg	99
1936.893	0.454	453.5	0back	Block3	0back/STIM_011.jpg	100
1941.291	0.52	519.5	0back	Block3	0back/STIM_011.jpg	99
1943.862	0.55	549.8	0back	Block3	0back/STIM_012.jpg	100
1947.355	0.438	437.9	0back	Block3	0back/STIM_012.jpg	99
1951.546	0.506	506.0	0back	Block3	0back/STIM_012.jpg	99
1954.464	0.446	446.4	0back	Block3	0back/STIM_013.jpg	99
1957.126	0.774	774.1	0back	Block3	0back/STIM_013.jpg	99
1960.853	0.517	517.3	0back	Block3	0back/STIM_013.jpg	99
1964.491	0.451	451.1	0back	Block3	0back/STIM_014.jpg	99
1967.738	0.453	452.8	0back	Block3	0back/STIM_014.jpg	99
1971.662	0.795	794.8	0back	Block3	0back/STIM_014.jpg	100
1975.967	0.627	627.1	0back	Block3	0back/STIM_015.jpg	99
1980.045	0.703	702.8	0back	Block3	0back/STIM_015.jpg	99
1984.336	0.814	814.4	0back	Block3	0back/STIM_015.jpg	99
1987.251	0.725	724.7	0back	Block3	0back/STIM_016.jpg	100
1990.226	0.735	735.3	0back	Block3	0back/STIM_016.jpg	100
1993.43	0.719	719.3	0back	Block3	0back/STIM_016.jpg	99
1997.419	0.468	468.5	0back	Block3	0back/STIM_017.jpg	99
2000.977	0.558	558.2	0back	Block3	0back/STIM_017.jpg	99
2004.515	0.472	471.7	0back	Block3	0back/STIM_017.jpg	100
2007.864	0.741	741.1	0back	Block3	0back/STIM_018.jpg	99
2011.699	0.681	681.3	0back	Block3	0back/STIM_018.jpg	100
2015.18	0.65	650.2	0back	Block3	0back/STIM_018.jpg	99
2019.612	0.77	770.4	0back	Block3	0back/STIM_019.jpg	99
2024.331	0.631	630.8	0back	Block3	0back/STIM_019.jpg	100
2028.275	0.7	699.9	0back	Block3	0back/STIM_019.jpg	99
2031.702	0.593	593.3	2back	Block4	2back/STIM_000.jpg	100
2034.484	0.911	911.1	2back	Block4	2back/STIM_000.jpg	100
2038.276	0.765	765.1	2back	Block4	2back/STIM_000.jpg	99
2041.589	0.807	806.7	2back	Block4	2back/STIM_001.jpg	99
2045.998	0.673	672.8	2back	Block4	2back/STIM_001.jpg	99
2049.018	0.637	636.8	2back	Block4	2back/STIM_001.jpg	99
2052.909	0.48	479.7	2back	Block4	2back/STIM_002.jpg	99
2056.212	0.505	504.6	2back	Block4	2back/STIM_002.jpg	99
2059.02	0.854	853.5	2back	Block4	2back/STIM_002.jpg	100
2063.169	0.548	547.7	2back	Block4	2back/STIM_003.jpg	99
2066.065	0.775	775.2	2back	Block4	2back/STIM_003.jpg	99
2069.731	0.579	579.1	2back	Block4	2back/STIM_003.jpg	100
2073.15	0.801	801.1	2back	Block4	2back/STIM_004.jpg	99
2076.523	0.626	625.8	2back	Block4	2back/STIM_004.jpg	100
2079.72	0.548	547.9	2back	Block4	2back/STIM_004.jpg	100
2083.562	0.596	595.7	2back	Block4	2back/STIM_005.jpg	99
2086.561	0.789	789.1	2back	Block4	2back/STIM_005.jpg	99
2089.653	0.508	508.5	2back	Block4	2back/STIM_005.jpg	100
2092.761	0.521	521.0	2back	Block4	2back/STIM_006.jpg	100
2096.121	0.534	534.5	2back	Block4	2back/STIM_006.jpg	99
2099.004	0.852	852.1	2back	Block4	2back/STIM_006.jpg	100
2102.417	0.814	813.8	2back	Block4	2back/STIM_007.jpg	100
2105.709	0.685	685.2	2back	Block4	2back/STIM_007.jpg	100
2109.353	0.585	585.3	2back	Block4	2back/STIM_007.jpg	99
2113.745	0.493	493.3	2back	Block4	2back/STIM_008.jpg	99
2117.148	0.619	618.7	2back	Block4	2back/STIM_008.jpg	100
2119.984	0.674	673.5	2back	Block4	2back/STIM_008.jpg	100
2123.089	0.87	870.0	2back	Block4	2back/STIM_009.jpg	99
2127.477	0.603	602.7	2back	Block4	2back/STIM_009.jpg	100
2130.559	0.435	435.3	2back	Block4	2back/STIM_009.jpg	99
2134.353	0.632	631.7	2back	Block4	2back/STIM_010.jpg	100
2137.667	0.832	831.9	2back	Block4	2back/STIM_010.jpg	99
2141.229	0.505	505.4	2back	Block4	2back/STIM_010.jpg	99
2144.67	0.501	501.3	2back	Block4	2back/STIM_011.jpg	100
2147.314	0.687	686.7	2back	Block4	2back/STIM_011.jpg	100
2150.472	0.7	700.5	2back	Block4	2back/STIM_011.jpg	99
2153.222	0.641	641.2	2back	Block4	2back/STIM_012.jpg	100
2157.491	0.602	602.5	2back	Block4	2back/STIM_012.jpg	100
2160.164	0.557	556.7	2back	Block4	2back/STIM_012.jpg	99
2162.859	1.009	1008.8	2back	Block4	2back/STIM_013.jpg	100
2166.594	0.766	766.3	2back	Block4	2back/STIM_013.jpg	100
2170.314	0.582	582.0	2back	Block4	2back/STIM_013.jpg	100
2173.669	0.739	739.3	2back	Block4	2back/STIM_014.jpg	99
2177.814	0.922	921.6	2back	Block4	2back/STIM_014.jpg	100
2181.609	0.879	878.8	2back	Block4	2back/STIM_014.jpg	99
2184.949	0.67	670.1	2back	Block4	2back/STIM_015.jpg	99
2188.689	0.983	982.8	2back	Block4	2back/STIM_015.jpg	99
2191.997	0.695	694.7	2back	Block4	2back/STIM_015.jpg	99
2196.076	0.932	932.3	2back	Block4	2back/STIM_016.jpg	99
2200.12	0.545	545.0	2back	Block4	2back/STIM_016.jpg	100
2204.413	0.947	946.9	2back	Block4	2back/STIM_016.jpg	99
2209.016	0.873	872.7	2back	Block4	2back/STIM_017.jpg	99
2213.543	0.861	860.9	2back	Block4	2back/STIM_017.jpg	99
2216.455	0.512	512.5	2back	Block4	2back/STIM_017.jpg	100
2220.251	0.486	485.7	2back	Block4	2back/STIM_018.jpg	100
2223.84	0.932	932.0	2back	Block4	2back/STIM_018.jpg	99
2227.281	0.944	944.4	2back	Block4	2back/STIM_018.jpg	99
2231.287	0.792	792.5	2back	Block4	2back/STIM_019.jpg	100
2234.643	0.814	814.1	2back	Block4	2back/STIM_019.jpg	99
2239.281	0.657	657.1	2back	Block4	2back/STIM_019.jpg	99
2242.794	0.88	879.5	2back	Block4	2back/STIM_020.jpg	100
2247.545	0.876	876.4	2back	Block4	2back/STIM_020.jpg	100
2250.925	0.991	991.4	2back	Block4	2back/STIM_020.jpg	99
2255.812	0.971	971.2	2back	Block4	2back/STIM_021.jpg	99
2258.894	0.969	968.7	2back	Block4	2back/STIM_021.jpg	99
2262.515	0.473	472.6	2back	Block4	2back/STIM_021.jpg	100
2266.611	0.832	832.0	2back	Block4	2back/STIM_022.jpg	100
2270.663	0.574	574.1	2back	Block4	2back/STIM_022.jpg	100
2274.404	0.854	853.9	2back	Block4	2back/STIM_022.jpg	100
2278.692	0.845	844.7	2back	Block4	2back/STIM_023.jpg	100
2282.277	0.769	769.4	2back	Block4	2back/STIM_023.jpg	99
2286.774	0.904	904.5	2back	Block4	2back/STIM_023.jpg	99
2291.037	0.936	936.4	2back	Block4	2back/STIM_024.jpg	100
2295.717	0.581	580.9	2back	Block4	2back/STIM_024.jpg	100
2300.008	0.96	960.4	2back	Block4	2back/STIM_024.jpg	100
2304.634	0.738	738.2	2back	Block4	2back/STIM_025.jpg	99
2308.432	0.877	877.4	2back	Block4	2back/STIM_025.jpg	99
2312.024	0.528	528.4	2back	Block4	2back/STIM_025.jpg	100
2315.033	0.742	741.6	2back	Block4	2back/STIM_026.jpg	99
2318.547	0.738	737.6	2back	Block4	2back/STIM_026.jpg	100
2322.141	0.564	563.8	2back	Block4	2back/STIM_026.jpg	99
2326.541	0.591	590.8	2back	Block4	2back/STIM_027.jpg	100
2330.049	0.994	994.2	2back	Block4	2back/STIM_027.jpg	99
2333.739	0.564	564.2	2back	Block4	2back/STIM_027.jpg	99
2337.528	0.93	929.5	2back	Block4	2back/STIM_028.jpg	100
2341.845	0.945	944.8	2back	Block4	2back/STIM_028.jpg	100
2344.84	0.502	501.8	2back	Block4	2back/STIM_028.jpg	100
2348.124	0.565	565.4	2back	Block4	2back/STIM_029.jpg	100
2352.533	0.434	434.0	2back	Block4	2back/STIM_029.jpg	100
2355.501	0.578	577.6	2back	Block4	2back/STIM_029.jpg	99
2358.566	0.693	692.7	2back	Block4	2back/STIM_030.jpg	99
2361.534	0.951	950.9	2back	Block4	2back/STIM_030.jpg	100
2365.233	0.987	986.9	2back	Block4	2back/STIM_030.jpg	100
2368.912	0.576	576.2	2back	Block4	2back/STIM_031.jpg	99
2372.92	0.603	603.4	2back	Block4	2back/STIM_031.jpg	100
2376.093	0.59	590.3	2back	Block4	2back/STIM_031.jpg	99
2380.275	0.645	644.7	2back	Block4	2back/STIM_032.jpg	100
2383.578	0.633	633.3	2back	Block4	2back/STIM_032.jpg	100
2387.339	0.721	721.2	2back	Block4	2back/STIM_032.jpg	100
2391.86	0.522	521.6	2back	Block4	2back/STIM_033.jpg	100
2396.356	0.78	780.4	2back	Block4	2back/STIM_033.jpg	99
2399.37	0.88	880.3	2back	Block4	2back/STIM_033.jpg	100
2403.839	0.743	742.9	2back	Block4	2back/STIM_034.jpg	100
2408.003	0.553	553.2	2back	Block4	2back/STIM_034.jpg	99
2411.521	0.551	550.7	2back	Block4	2back/STIM_034.jpg	99
2414.426	0.674	674.5	2back	Block4	2back/STIM_035.jpg	99
2417.652	0.649	649.4	2back	Block4	2back/STIM_035.jpg	100
2421.401	0.468	467.7	2back	Block4	2back/STIM_035.jpg	100
2425.153	0.931	930.6	2back	Block4	2back/STIM_036.jpg	99
2428.822	0.795	794.7	2back	Block4	2back/STIM_036.jpg	100
2432.941	0.818	818.2	2back	Block4	2back/STIM_036.jpg	100
2436.858	0.62	619.8	2back	Block4	2back/STIM_037.jpg	99
2440.913	1.008	1008.2	2back	Block4	2back/STIM_037.jpg	100
2445.375	0.738	738.3	2back	Block4	2back/STIM_037.jpg	99
2449.282	0.659	659.2	2back	Block4	2back/STIM_038.jpg	99
2453.909	0.723	723.0	2back	Block4	2back/STIM_038.jpg	99
2457.705	0.722	721.8	2back	Block4	2back/STIM_038.jpg	99
2461.537	0.575	574.8	2back	Block4	2back/STIM_039.jpg	99
2466.041	0.62	620.5	2back	Block4	2back/STIM_039.jpg	99
2469.059	0.978	978.0	2back	Block4	2back/STIM_039.jpg	100
2472.46	0.447	446.6	0back	Block4	0back/STIM_000.jpg	99
2475.163	0.683	682.8	0back	Block4	0back/STIM_000.jpg	99
2479.479	0.736	735.7	0back	Block4	0back/STIM_000.jpg	100
2483.141	0.531	531.0	0back	Block4	0back/STIM_001.jpg	100
2485.67	0.43	429.5	0back	Block4	0back/STIM_001.jpg	99
2488.857	0.602	602.5	0back	Block4	0back/STIM_001.jpg	99
2491.621	0.417	417.1	0back	Block4	0back/STIM_002.jpg	99
2495.314	0.454	453.7	0back	Block4	0back/STIM_002.jpg	100
2497.995	0.701	701.4	0back	Block4	0back/STIM_002.jpg	100
2501.319	0.618	617.9	0back	Block4	0back/STIM_003.jpg	99
2505.632	0.504	503.7	0back	Block4	0back/STIM_003.jpg	100
2508.863	0.421	421.4	0back	Block4	0back/STIM_003.jpg	100
2512.593	0.505	505.0	0back	Block4	0back/STIM_004.jpg	100
2515.1	0.414	413.5	0back	Block4	0back/STIM_004.jpg	100
2518.564	0.606	605.6	0back	Block4	0back/STIM_004.jpg	100
2522.844	0.49	490.2	0back	Block4	0back/STIM_005.jpg	100
2526.164	0.592	591.6	0back	Block4	0back/STIM_005.jpg	99
2530.32	0.669	668.6	0back	Block4	0back/STIM_005.jpg	99
2534.787	0.645	644.6	0back	Block4	0back/STIM_006.jpg	99
2537.534	0.454	454.2	0back	Block4	0back/STIM_006.jpg	99
2541.723	0.783	782.8	0back	Block4	0back/STIM_006.jpg	100
2546.443	0.619	618.9	0back	Block4	0back/STIM_007.jpg	99
2550.064	0.564	563.7	0back	Block4	0back/STIM_007.jpg	100
2552.715	0.616	615.9	0back	Block4	0back/STIM_007.jpg	99
2556.315	0.583	583.1	0back	Block4	0back/STIM_008.jpg	100
2559.524	0.752	751.7	0back	Block4	0back/STIM_008.jpg	99
2562.922	0.654	654.2	0back	Block4	0back/STIM_008.jpg	99
2567.197	0.756	756.3	0back	Block4	0back/STIM_009.jpg	99
2571.679	0.716	715.9	0back	Block4	0back/STIM_009.jpg	99
2576.105	0.584	584.4	0back	Block4	0back/STIM_009.jpg	99
2580.445	0.483	482.7	0back	Block4	0back/STIM_010.jpg	100
2584.399	0.508	508.4	0back	Block4	0back/STIM_010.jpg	99
2588.419	0.443	443.0	0back	Block4	0back/STIM_010.jpg	100
2591.502	0.455	455.3	0back	Block4	0back/STIM_011.jpg	100
2595.486	0.557	556.8	0back	Block4	0back/STIM_011.jpg	99
2598.172	0.724	723.5	0back	Block4	0back/STIM_011.jpg	100
2602.824	0.756	756.4	0back	Block4	0back/STIM_012.jpg	100
2607.057	0.618	618.0	0back	Block4	0back/STIM_012.jpg	99
2610.732	0.509	509.3	0back	Block4	0back/STIM_012.jpg	100
2613.342	0.594	594.2	0back	Block4	0back/STIM_013.jpg	100
2616.677	0.422	421.9	0back	Block4	0back/STIM_013.jpg	99
2620.735	0.66	660.1	0back	Block4	0back/STIM_013.jpg	99
2623.864	0.815	815.1	0back	Block4	0back/STIM_014.jpg	99
2627.964	0.538	537.5	0back	Block4	0back/STIM_014.jpg	99
2631.891	0.593	592.8	0back	Block4	0back/STIM_014.jpg	100
2635.206	0.664	663.7	0back	Block4	0back/STIM_015.jpg	99
2638.713	0.682	682.2	0back	Block4	0back/STIM_015.jpg	99
2642.471	0.555	554.8	0back	Block4	0back/STIM_015.jpg	100
2645.962	0.813	813.0	0back	Block4	0back/STIM_016.jpg	100
2649.026	0.418	418.2	0back	Block4	0back/STIM_016.jpg	100
2652.133	0.716	716.1	0back	Block4	0back/STIM_016.jpg	100
2656.366	0.484	483.8	0back	Block4	0back/STIM_017.jpg	99
2660.302	0.823	823.4	0back	Block4	0back/STIM_017.jpg	100
2663.931	0.761	761.1	0back	Block4	0back/STIM_017.jpg	100
2667.875	0.529	529.1	0back	Block4	0back/STIM_018.jpg	99
2671.389	0.731	730.9	0back	Block4	0back/STIM_018.jpg	100
2674.767	0.554	553.9	0back	Block4	0back/STIM_018.jpg	99
2679.02	0.427	426.7	0back	Block4	0back/STIM_019.jpg	100
2683.34	0.51	510.3	0back	Block4	0back/STIM_019.jpg	99
2687.483	0.555	555.1	0back	Block4	0back/STIM_019.jpg	99
