onset	duration	accuracy	trial_type	learning_stage	stimulus
0.0	2.894	correct	regulate	Run1	regulate/STIM_000.jpg
5.563	2.848	correct	regulate	Run1	regulate/STIM_000.jpg
11.831	2.502	incorrect	regulate	Run1	regulate/STIM_000.jpg
18.336	1.573	incorrect	regulate	Run1	regulate/STIM_000.jpg
23.834	2.188	incorrect	regulate	Run1	regulate/STIM_001.jpg
29.377	2.506	incorrect	regulate	Run1	regulate/STIM_001.jpg
34.102	1.812	incorrect	regulate	Run1	regulate/STIM_001.jpg
39.833	1.511	correct	regulate	Run1	regulate/STIM_001.jpg
45.01	1.775	incorrect	regulate	Run1	regulate/STIM_002.jpg
48.97	2.339	incorrect	regulate	Run1	regulate/STIM_002.jpg
53.561	1.763	correct	regulate	Run1	regulate/STIM_002.jpg
57.857	1.51	correct	regulate	Run1	regulate/STIM_002.jpg
62.842	3.235	correct	regulate	Run1	regulate/STIM_003.jpg
69.063	1.447	correct	regulate	Run1	regulate/STIM_003.jpg
72.967	1.455	correct	regulate	Run1	regulate/STIM_003.jpg
76.539	1.937	correct	regulate	Run1	regulate/STIM_003.jpg
80.725	1.478	correct	regulate	Run1	regulate/STIM_004.jpg
84.921	1.426	correct	regulate	Run1	regulate/STIM_004.jpg
89.8	2.203	correct	regulate	Run1	regulate/STIM_004.jpg
95.099	1.719	correct	regulate	Run1	regulate/STIM_004.jpg
100.788	3.283	correct	regulate	Run1	regulate/STIM_005.jpg
106.507	2.348	correct	regulate	Run1	regulate/STIM_005.jpg
112.755	2.025	correct	regulate	Run1	regulate/STIM_005.jpg
118.265	1.669	correct	regulate	Run1	regulate/STIM_005.jpg
123.17	3.199	correct	regulate	Run1	regulate/STIM_006.jpg
129.504	2.852	correct	regulate	Run1	regulate/STIM_006.jpg
135.14	2.424	correct	regulate	Run1	regulate/STIM_006.jpg
139.791	2.016	incorrect	regulate	Run1	regulate/STIM_006.jpg
145.025	1.805	correct	regulate	Run1	regulate/STIM_007.jpg
150.9	3.005	incorrect	regulate	Run1	regulate/STIM_007.jpg
157.136	2.689	correct	regulate	Run1	regulate/STIM_007.jpg
162.658	1.528	correct	regulate	Run1	regulate/STIM_007.jpg
167.165	1.916	correct	regulate	Run1	regulate/STIM_008.jpg
172.055	1.616	correct	regulate	Run1	regulate/STIM_008.jpg
175.859	2.564	correct	regulate	Run1	regulate/STIM_008.jpg
181.266	2.221	correct	regulate	Run1	regulate/STIM_008.jpg
187.035	3.327	correct	regulate	Run1	regulate/STIM_009.jpg
194.36	2.22	correct	regulate	Run1	regulate/STIM_009.jpg
199.411	1.679	correct	regulate	Run1	regulate/STIM_009.jpg
203.639	2.359	correct	regulate	Run1	regulate/STIM_009.jpg
208.366	2.695	correct	regulate	Run1	regulate/STIM_010.jpg
213.41	2.452	correct	regulate	Run1	regulate/STIM_010.jpg
218.847	1.408	incorrect	regulate	Run1	regulate/STIM_010.jpg
224.315	2.129	correct	regulate	Run1	regulate/STIM_010.jpg
229.771	1.553	correct	regulate	Run1	regulate/STIM_011.jpg
234.35	3.008	correct	regulate	Run1	regulate/STIM_011.jpg
241.419	2.886	incorrect	regulate	Run1	regulate/STIM_011.jpg
246.907	1.745	correct	regulate	Run1	regulate/STIM_011.jpg
250.964	2.606	correct	regulate	Run1	regulate/STIM_012.jpg
256.848	2.084	correct	regulate	Run1	regulate/STIM_012.jpg
263.0	2.33	correct	regulate	Run1	regulate/STIM_012.jpg
268.242	2.208	correct	regulate	Run1	regulate/STIM_012.jpg
274.548	1.52	correct	regulate	Run1	regulate/STIM_013.jpg
278.534	2.82	correct	regulate	Run1	regulate/STIM_013.jpg
284.976	2.891	correct	regulate	Run1	regulate/STIM_013.jpg
290.279	2.072	correct	regulate	Run1	regulate/STIM_013.jpg
295.774	1.48	correct	regulate	Run1	regulate/STIM_014.jpg
299.6	2.42	correct	regulate	Run1	regulate/STIM_014.jpg
304.863	1.766	incorrect	regulate	Run1	regulate/STIM_014.jpg
310.324	1.26	correct	regulate	Run1	regulate/STIM_014.jpg
314.329	2.618	correct	regulate	Run1	regulate/STIM_015.jpg
320.911	1.981	correct	regulate	Run1	regulate/STIM_015.jpg
325.88	2.937	correct	regulate	Run1	regulate/STIM_015.jpg
332.926	2.19	correct	regulate	Run1	regulate/STIM_015.jpg
338.01	3.068	correct	regulate	Run1	regulate/STIM_016.jpg
343.731	2.778	correct	regulate	Run1	regulate/STIM_016.jpg
348.907	2.156	correct	regulate	Run1	regulate/STIM_016.jpg
355.072	1.502	correct	regulate	Run1	regulate/STIM_016.jpg
360.194	2.721	incorrect	regulate	Run1	regulate/STIM_017.jpg
366.911	3.113	incorrect	regulate	Run1	regulate/STIM_017.jpg
372.644	2.843	incorrect	regulate	Run1	regulate/STIM_017.jpg
378.899	1.741	incorrect	regulate	Run1	regulate/STIM_017.jpg
383.893	2.233	incorrect	regulate	Run1	regulate/STIM_018.jpg
390.197	2.718	correct	regulate	Run1	regulate/STIM_018.jpg
396.548	2.035	correct	regulate	Run1	regulate/STIM_018.jpg
401.779	2.701	correct	regulate	Run1	regulate/STIM_018.jpg
408.556	2.71	correct	regulate	Run1	regulate/STIM_019.jpg
413.675	3.082	correct	regulate	Run1	regulate/STIM_019.jpg
418.897	1.693	correct	regulate	Run1	regulate/STIM_019.jpg
422.864	2.461	correct	regulate	Run1	regulate/STIM_019.jpg
428.199	3.27	incorrect	regulate	Run1	regulate/STIM_020.jpg
434.323	2.132	correct	regulate	Run1	regulate/STIM_020.jpg
439.867	2.396	incorrect	regulate	Run1	regulate/STIM_020.jpg
445.973	2.55	correct	regulate	Run1	regulate/STIM_020.jpg
451.99	2.239	correct	regulate	Run1	regulate/STIM_021.jpg
458.133	1.984	correct	regulate	Run1	regulate/STIM_021.jpg
463.546	2.382	incorrect	regulate	Run1	regulate/STIM_021.jpg
468.681	2.389	correct	regulate	Run1	regulate/STIM_021.jpg
474.386	2.456	correct	regulate	Run1	regulate/STIM_022.jpg
480.848	2.284	correct	regulate	Run1	regulate/STIM_022.jpg
486.576	2.661	correct	regulate	Run1	regulate/STIM_022.jpg
492.714	1.328	correct	regulate	Run1	regulate/STIM_022.jpg
496.389	3.152	correct	regulate	Run1	regulate/STIM_023.jpg
502.231	1.585	correct	regulate	Run1	regulate/STIM_023.jpg
507.687	2.914	correct	regulate	Run1	regulate/STIM_023.jpg
512.898	1.423	correct	regulate	Run1	regulate/STIM_023.jpg
517.498	2.207	correct	regulate	Run1	regulate/STIM_024.jpg
522.213	1.463	correct	regulate	Run1	regulate/STIM_024.jpg
527.169	2.176	correct	regulate	Run1	regulate/STIM_024.jpg
532.222	2.118	incorrect	regulate	Run1	regulate/STIM_024.jpg
537.069	2.126	correct	regulate	Run1	regulate/STIM_025.jpg
541.651	2.975	correct	regulate	Run1	regulate/STIM_025.jpg
548.567	1.955	correct	regulate	Run1	regulate/STIM_025.jpg
552.811	1.318	incorrect	regulate	Run1	regulate/STIM_025.jpg
556.274	1.696	correct	regulate	Run1	regulate/STIM_026.jpg
560.705	3.138	correct	regulate	Run1	regulate/STIM_026.jpg
566.451	1.435	correct	regulate	Run1	regulate/STIM_026.jpg
570.779	2.689	correct	regulate	Run1	regulate/STIM_026.jpg
576.781	2.346	incorrect	regulate	Run1	regulate/STIM_027.jpg
582.399	2.462	correct	regulate	Run1	regulate/STIM_027.jpg
588.001	2.886	correct	regulate	Run1	regulate/STIM_027.jpg
594.524	1.9	correct	regulate	Run1	regulate/STIM_027.jpg
599.22	1.638	correct	regulate	Run1	regulate/STIM_028.jpg
603.749	2.036	incorrect	regulate	Run1	regulate/STIM_028.jpg
608.579	2.718	correct	regulate	Run1	regulate/STIM_028.jpg
613.982	2.392	correct	regulate	Run1	regulate/STIM_028.jpg
619.02	2.138	correct	regulate	Run1	regulate/STIM_029.jpg
623.848	1.453	incorrect	regulate	Run1	regulate/STIM_029.jpg
627.692	1.798	correct	regulate	Run1	regulate/STIM_029.jpg
632.458	2.63	correct	regulate	Run1	regulate/STIM_029.jpg
638.26	1.005	correct	observe	Run1	observe/STIM_000.jpg
642.659	1.003	correct	observe	Run1	observe/STIM_000.jpg
646.855	1.315	correct	observe	Run1	observe/STIM_000.jpg
651.551	0.956	correct	observe	Run1	observe/STIM_000.jpg
654.913	0.924	incorrect	observe	Run1	observe/STIM_001.jpg
659.043	1.166	correct	observe	Run1	observe/STIM_001.jpg
663.049	0.895	correct	observe	Run1	observe/STIM_001.jpg
667.605	1.46	correct	observe	Run1	observe/STIM_001.jpg
671.166	0.78	correct	observe	Run1	observe/STIM_002.jpg
674.032	1.042	correct	observe	Run1	observe/STIM_002.jpg
678.139	1.312	correct	observe	Run1	observe/STIM_002.jpg
681.934	1.101	correct	observe	Run1	observe/STIM_002.jpg
685.176	1.344	correct	observe	Run1	observe/STIM_003.jpg
689.984	1.044	correct	observe	Run1	observe/STIM_003.jpg
694.657	1.47	incorrect	observe	Run1	observe/STIM_003.jpg
698.279	1.124	correct	observe	Run1	observe/STIM_003.jpg
701.954	1.452	correct	observe	Run1	observe/STIM_004.jpg
706.523	0.899	correct	observe	Run1	observe/STIM_004.jpg
709.948	1.283	correct	observe	Run1	observe/STIM_004.jpg
714.437	1.053	correct	observe	Run1	observe/STIM_004.jpg
718.045	1.377	correct	observe	Run1	observe/STIM_005.jpg
723.366	0.987	correct	observe	Run1	observe/STIM_005.jpg
728.329	1.236	incorrect	observe	Run1	observe/STIM_005.jpg
733.174	1.322	incorrect	observe	Run1	observe/STIM_005.jpg
737.248	1.213	correct	observe	Run1	observe/STIM_006.jpg
740.823	0.786	incorrect	observe	Run1	observe/STIM_006.jpg
743.876	1.115	correct	observe	Run1	observe/STIM_006.jpg
749.023	1.31	incorrect	observe	Run1	observe/STIM_006.jpg
753.748	1.051	correct	observe	Run1	observe/STIM_007.jpg
757.624	1.414	correct	observe	Run1	observe/STIM_007.jpg
762.302	1.503	correct	observe	Run1	observe/STIM_007.jpg
765.884	1.143	correct	observe	Run1	observe/STIM_007.jpg
769.586	1.313	correct	observe	Run1	observe/STIM_008.jpg
774.42	0.797	correct	observe	Run1	observe/STIM_008.jpg
779.185	0.786	correct	observe	Run1	observe/STIM_008.jpg
783.831	1.012	correct	observe	Run1	observe/STIM_008.jpg
788.786	1.107	correct	observe	Run1	observe/STIM_009.jpg
793.036	1.502	incorrect	observe	Run1	observe/STIM_009.jpg
797.939	0.854	correct	observe	Run1	observe/STIM_009.jpg
801.03	1.519	incorrect	observe	Run1	observe/STIM_009.jpg
805.651	0.895	correct	observe	Run1	observe/STIM_010.jpg
810.012	1.134	correct	observe	Run1	observe/STIM_010.jpg
814.579	1.428	incorrect	observe	Run1	observe/STIM_010.jpg
818.455	1.079	correct	observe	Run1	observe/STIM_010.jpg
823.511	1.506	correct	observe	Run1	observe/STIM_011.jpg
828.099	1.06	incorrect	observe	Run1	observe/STIM_011.jpg
832.541	1.092	correct	observe	Run1	observe/STIM_011.jpg
836.635	0.836	correct	observe	Run1	observe/STIM_011.jpg
840.738	1.39	correct	observe	Run1	observe/STIM_012.jpg
844.675	1.449	correct	observe	Run1	observe/STIM_012.jpg
848.519	1.381	correct	observe	Run1	observe/STIM_012.jpg
852.027	1.315	correct	observe	Run1	observe/STIM_012.jpg
856.658	1.361	correct	observe	Run1	observe/STIM_013.jpg
860.492	1.196	correct	observe	Run1	observe/STIM_013.jpg
865.407	0.849	correct	observe	Run1	observe/STIM_013.jpg
869.505	1.345	correct	observe	Run1	observe/STIM_013.jpg
873.575	1.513	correct	observe	Run1	observe/STIM_014.jpg
877.63	0.789	correct	observe	Run1	observe/STIM_014.jpg
881.045	0.833	correct	observe	Run1	observe/STIM_014.jpg
885.658	1.49	correct	observe	Run1	observe/STIM_014.jpg
890.824	1.038	correct	observe	Run1	observe/STIM_015.jpg
895.604	1.096	correct	observe	Run1	observe/STIM_015.jpg
900.439	1.39	correct	observe	Run1	observe/STIM_015.jpg
905.15	1.315	correct	observe	Run1	observe/STIM_015.jpg
909.035	1.073	correct	observe	Run1	observe/STIM_016.jpg
912.63	1.42	correct	observe	Run1	observe/STIM_016.jpg
916.452	0.806	correct	observe	Run1	observe/STIM_016.jpg
919.831	1.334	correct	observe	Run1	observe/STIM_016.jpg
923.287	0.843	correct	observe	Run1	observe/STIM_017.jpg
927.345	1.252	correct	observe	Run1	observe/STIM_017.jpg
932.355	1.071	correct	observe	Run1	observe/STIM_017.jpg
936.81	1.321	incorrect	observe	Run1	observe/STIM_017.jpg
941.71	1.158	correct	observe	Run1	observe/STIM_018.jpg
946.469	0.906	correct	observe	Run1	observe/STIM_018.jpg
951.106	0.88	correct	observe	Run1	observe/STIM_018.jpg
955.199	1.522	correct	observe	Run1	observe/STIM_018.jpg
960.074	0.981	correct	observe	Run1	observe/STIM_019.jpg
963.529	1.082	correct	observe	Run1	observe/STIM_019.jpg
967.171	1.24	correct	observe	Run1	observe/STIM_019.jpg
971.045	0.812	correct	observe	Run1	observe/STIM_019.jpg
974.289	1.392	correct	regulate	Run2	regulate/STIM_000.jpg
979.554	2.674	correct	regulate	Run2	regulate/STIM_000.jpg
986.132	2.169	correct	regulate	Run2	regulate/STIM_000.jpg
990.803	1.802	correct	regulate	Run2	regulate/STIM_000.jpg
994.829	2.192	correct	regulate	Run2	regulate/STIM_001.jpg
999.959	2.61	correct	regulate	Run2	regulate/STIM_001.jpg
1005.293	2.312	correct	regulate	Run2	regulate/STIM_001.jpg
1011.469	1.872	correct	regulate	Run2	regulate/STIM_001.jpg
1017.408	2.031	correct	regulate	Run2	regulate/STIM_002.jpg
1022.996	2.34	correct	regulate	Run2	regulate/STIM_002.jpg
1027.973	1.595	correct	regulate	Run2	regulate/STIM_002.jpg
1032.192	2.102	correct	regulate	Run2	regulate/STIM_002.jpg
1037.457	2.364	correct	regulate	Run2	regulate/STIM_003.jpg
1042.447	2.639	correct	regulate	Run2	regulate/STIM_003.jpg
1048.477	2.131	correct	regulate	Run2	regulate/STIM_003.jpg
1053.137	1.016	correct	regulate	Run2	regulate/STIM_003.jpg
1056.579	2.12	correct	regulate	Run2	regulate/STIM_004.jpg
1060.852	1.883	correct	regulate	Run2	regulate/STIM_004.jpg
1066.123	1.944	correct	regulate	Run2	regulate/STIM_004.jpg
1071.243	1.634	correct	regulate	Run2	regulate/STIM_004.jpg
1075.037	2.676	correct	regulate	Run2	regulate/STIM_005.jpg
1081.371	1.911	correct	regulate	Run2	regulate/STIM_005.jpg
1086.427	1.376	incorrect	regulate	Run2	regulate/STIM_005.jpg
1089.928	1.887	correct	regulate	Run2	regulate/STIM_005.jpg
1094.857	2.238	correct	regulate	Run2	regulate/STIM_006.jpg
1100.157	1.516	incorrect	regulate	Run2	regulate/STIM_006.jpg
1104.538	1.779	correct	regulate	Run2	regulate/STIM_006.jpg
1108.678	2.238	correct	regulate	Run2	regulate/STIM_006.jpg
1114.299	1.487	correct	regulate	Run2	regulate/STIM_007.jpg
1118.495	1.209	incorrect	regulate	Run2	regulate/STIM_007.jpg
1123.582	2.097	correct	regulate	Run2	regulate/STIM_007.jpg
1128.109	2.277	correct	regulate	Run2	regulate/STIM_007.jpg
1132.807	1.693	correct	regulate	Run2	regulate/STIM_008.jpg
1138.172	2.359	incorrect	regulate	Run2	regulate/STIM_008.jpg
1143.927	1.628	correct	regulate	Run2	regulate/STIM_008.jpg
1149.597	1.954	correct	regulate	Run2	regulate/STIM_008.jpg
1154.339	1.828	correct	regulate	Run2	regulate/STIM_009.jpg
1158.574	2.608	correct	regulate	Run2	regulate/STIM_009.jpg
1164.094	1.426	correct	regulate	Run2	regulate/STIM_009.jpg
1169.43	1.017	correct	regulate	Run2	regulate/STIM_009.jpg
1174.474	1.226	incorrect	regulate	Run2	regulate/STIM_010.jpg
1179.363	2.178	incorrect	regulate	Run2	regulate/STIM_010.jpg
1184.696	2.285	correct	regulate	Run2	regulate/STIM_010.jpg
1190.659	2.041	correct	regulate	Run2	regulate/STIM_010.jpg
1195.948	2.614	correct	regulate	Run2	regulate/STIM_011.jpg
1201.905	1.309	correct	regulate	Run2	regulate/STIM_011.jpg
1205.745	2.286	correct	regulate	Run2	regulate/STIM_011.jpg
1211.346	2.164	correct	regulate	Run2	regulate/STIM_011.jpg
1216.561	2.628	correct	regulate	Run2	regulate/STIM_012.jpg
1221.838	2.464	correct	regulate	Run2	regulate/STIM_012.jpg
1228.179	2.476	correct	regulate	Run2	regulate/STIM_012.jpg
1234.26	1.208	correct	regulate	Run2	regulate/STIM_012.jpg
1239.48	1.398	correct	regulate	Run2	regulate/STIM_013.jpg
1243.564	2.192	correct	regulate	Run2	regulate/STIM_013.jpg
1248.285	1.174	correct	regulate	Run2	regulate/STIM_013.jpg
1252.164	2.327	correct	regulate	Run2	regulate/STIM_013.jpg
1257.829	2.82	correct	regulate	Run2	regulate/STIM_014.jpg
1263.546	1.76	correct	regulate	Run2	regulate/STIM_014.jpg
1267.717	2.03	correct	regulate	Run2	regulate/STIM_014.jpg
1271.882	1.684	incorrect	regulate	Run2	regulate/STIM_014.jpg
1276.862	2.838	correct	regulate	Run2	regulate/STIM_015.jpg
1282.773	2.583	correct	regulate	Run2	regulate/STIM_015.jpg
1288.403	1.509	correct	regulate	Run2	regulate/STIM_015.jpg
1292.171	1.926	correct	regulate	Run2	regulate/STIM_015.jpg
1296.905	2.461	correct	regulate	Run2	regulate/STIM_016.jpg
1301.56	2.53	correct	regulate	Run2	regulate/STIM_016.jpg
1307.01	1.823	correct	regulate	Run2	regulate/STIM_016.jpg
1312.727	1.794	correct	regulate	Run2	regulate/STIM_016.jpg
1316.691	2.442	incorrect	regulate	Run2	regulate/STIM_017.jpg
1321.732	1.6	correct	regulate	Run2	regulate/STIM_017.jpg
1326.27	1.091	correct	regulate	Run2	regulate/STIM_017.jpg
1330.771	2.142	correct	regulate	Run2	regulate/STIM_017.jpg
1336.3	1.349	correct	regulate	Run2	regulate/STIM_018.jpg
1339.999	2.604	correct	regulate	Run2	regulate/STIM_018.jpg
1345.088	2.402	incorrect	regulate	Run2	regulate/STIM_018.jpg
1349.634	2.038	correct	regulate	Run2	regulate/STIM_018.jpg
1355.329	1.379	correct	regulate	Run2	regulate/STIM_019.jpg
1359.675	1.851	correct	regulate	Run2	regulate/STIM_019.jpg
1364.692	2.192	correct	regulate	Run2	regulate/STIM_019.jpg
1370.95	1.952	correct	regulate	Run2	regulate/STIM_019.jpg
1375.36	2.535	correct	regulate	Run2	regulate/STIM_020.jpg
1380.618	2.366	correct	regulate	Run2	regulate/STIM_020.jpg
1385.941	2.064	correct	regulate	Run2	regulate/STIM_020.jpg
1390.336	2.226	correct	regulate	Run2	regulate/STIM_020.jpg
1395.583	2.139	correct	regulate	Run2	regulate/STIM_021.jpg
1400.886	2.512	correct	regulate	Run2	regulate/STIM_021.jpg
1405.654	1.827	correct	regulate	Run2	regulate/STIM_021.jpg
1409.924	1.304	correct	regulate	Run2	regulate/STIM_021.jpg
1415.136	2.494	correct	regulate	Run2	regulate/STIM_022.jpg
1419.958	1.939	correct	regulate	Run2	regulate/STIM_022.jpg
1425.702	1.889	correct	regulate	Run2	regulate/STIM_022.jpg
1429.823	2.2	correct	regulate	Run2	regulate/STIM_022.jpg
1434.493	2.347	correct	regulate	Run2	regulate/STIM_023.jpg
1440.07	2.498	incorrect	regulate	Run2	regulate/STIM_023.jpg
1444.969	1.645	correct	regulate	Run2	regulate/STIM_023.jpg
1450.007	2.018	correct	regulate	Run2	regulate/STIM_023.jpg
1454.807	1.799	correct	regulate	Run2	regulate/STIM_024.jpg
1458.928	2.559	incorrect	regulate	Run2	regulate/STIM_024.jpg
1463.616	1.938	correct	regulate	Run2	regulate/STIM_024.jpg
1467.818	1.184	correct	regulate	Run2	regulate/STIM_024.jpg
1472.597	2.108	correct	regulate	Run2	regulate/STIM_025.jpg
1477.169	2.016	correct	regulate	Run2	regulate/STIM_025.jpg
1483.15	2.494	incorrect	regulate	Run2	regulate/STIM_025.jpg
1488.215	1.913	correct	regulate	Run2	regulate/STIM_025.jpg
1493.586	2.303	correct	regulate	Run2	regulate/STIM_026.jpg
1499.43	2.142	correct	regulate	Run2	regulate/STIM_026.jpg
1505.503	1.735	correct	regulate	Run2	regulate/STIM_026.jpg
1509.797	1.4	correct	regulate	Run2	regulate/STIM_026.jpg
1514.28	2.718	correct	regulate	Run2	regulate/STIM_027.jpg
1519.761	2.311	correct	regulate	Run2	regulate/STIM_027.jpg
1525.56	2.411	correct	regulate	Run2	regulate/STIM_027.jpg
1531.043	1.834	incorrect	regulate	Run2	regulate/STIM_027.jpg
1535.315	1.533	correct	regulate	Run2	regulate/STIM_028.jpg
1540.852	2.653	correct	regulate	Run2	regulate/STIM_028.jpg
1546.323	1.252	correct	regulate	Run2	regulate/STIM_028.jpg
1550.513	1.895	correct	regulate	Run2	regulate/STIM_028.jpg
1554.886	2.453	correct	regulate	Run2	regulate/STIM_029.jpg
1559.847	2.099	correct	regulate	Run2	regulate/STIM_029.jpg
1565.879	2.065	correct	regulate	Run2	regulate/STIM_029.jpg
1571.159	1.276	correct	regulate	Run2	regulate/STIM_029.jpg
1576.193	1.292	correct	observe	Run2	observe/STIM_000.jpg
1581.104	1.486	incorrect	observe	Run2	observe/STIM_000.jpg
1586.069	0.772	incorrect	observe	Run2	observe/STIM_000.jpg
1589.473	1.352	correct	observe	Run2	observe/STIM_000.jpg
1594.111	0.821	incorrect	observe	Run2	observe/STIM_001.jpg
1597.905	0.897	correct	observe	Run2	observe/STIM_001.jpg
1602.146	0.838	incorrect	observe	Run2	observe/STIM_001.jpg
1605.548	1.391	correct	observe	Run2	observe/STIM_001.jpg
1609.772	1.036	correct	observe	Run2	observe/STIM_002.jpg
1613.143	1.472	correct	observe	Run2	observe/STIM_002.jpg
1617.78	1.406	correct	observe	Run2	observe/STIM_002.jpg
1622.672	0.978	correct	observe	Run2	observe/STIM_002.jpg
1626.066	1.178	correct	observe	Run2	observe/STIM_003.jpg
1629.576	1.346	correct	observe	Run2	observe/STIM_003.jpg
1634.518	1.459	correct	observe	Run2	observe/STIM_003.jpg
1638.496	1.2	correct	observe	Run2	observe/STIM_003.jpg
1642.443	1.057	correct	observe	Run2	observe/STIM_004.jpg
1645.616	0.995	correct	observe	Run2	observe/STIM_004.jpg
1650.133	0.981	correct	observe	Run2	observe/STIM_004.jpg
1654.406	1.257	correct	observe	Run2	observe/STIM_004.jpg
1659.365	1.338	correct	observe	Run2	observe/STIM_005.jpg
1663.289	1.166	correct	observe	Run2	observe/STIM_005.jpg
1666.529	1.333	correct	observe	Run2	observe/STIM_005.jpg
1670.701	1.058	correct	observe	Run2	observe/STIM_005.jpg
1674.575	1.093	correct	observe	Run2	observe/STIM_006.jpg
1678.204	0.934	correct	observe	Run2	observe/STIM_006.jpg
1681.547	1.086	correct	observe	Run2	observe/STIM_006.jpg
1685.665	0.938	correct	observe	Run2	observe/STIM_006.jpg
1690.151	1.114	incorrect	observe	Run2	observe/STIM_007.jpg
1693.543	1.314	correct	observe	Run2	observe/STIM_007.jpg
1697.594	1.122	correct	observe	Run2	observe/STIM_007.jpg
1700.898	1.101	correct	observe	Run2	observe/STIM_007.jpg
1704.326	0.89	correct	observe	Run2	observe/STIM_008.jpg
1707.681	1.186	correct	observe	Run2	observe/STIM_008.jpg
1711.895	1.12	incorrect	observe	Run2	observe/STIM_008.jpg
1715.996	1.419	correct	observe	Run2	observe/STIM_008.jpg
1719.743	1.288	correct	observe	Run2	observe/STIM_009.jpg
1723.098	1.328	incorrect	observe	Run2	observe/STIM_009.jpg
1727.896	1.323	correct	observe	Run2	observe/STIM_009.jpg
1732.095	1.11	correct	observe	Run2	observe/STIM_009.jpg
1737.127	1.348	correct	observe	Run2	observe/STIM_010.jpg
1741.812	1.147	incorrect	observe	Run2	observe/STIM_010.jpg
1745.373	1.45	correct	observe	Run2	observe/STIM_010.jpg
1750.68	1.418	incorrect	observe	Run2	observe/STIM_010.jpg
1755.608	0.954	correct	observe	Run2	observe/STIM_011.jpg
1760.169	1.469	correct	observe	Run2	observe/STIM_011.jpg
1764.593	1.455	correct	observe	Run2	observe/STIM_011.jpg
1769.392	1.473	correct	observe	Run2	observe/STIM_011.jpg
1774.625	1.427	incorrect	observe	Run2	observe/STIM_012.jpg
1779.397	1.229	correct	observe	Run2	observe/STIM_012.jpg
1782.742	0.934	correct	observe	Run2	observe/STIM_012.jpg
1786.952	1.374	correct	observe	Run2	observe/STIM_012.jpg
1791.421	1.227	correct	observe	Run2	observe/STIM_013.jpg
1796.517	1.422	correct	observe	Run2	observe/STIM_013.jpg
1800.076	1.422	correct	observe	Run2	observe/STIM_013.jpg
1805.171	1.508	correct	observe	Run2	observe/STIM_013.jpg
1808.818	1.334	correct	observe	Run2	observe/STIM_014.jpg
1812.59	1.273	correct	observe	Run2	observe/STIM_014.jpg
1816.861	1.062	correct	observe	Run2	observe/STIM_014.jpg
1821.644	0.809	correct	observe	Run2	observe/STIM_014.jpg
1824.626	0.943	correct	observe	Run2	observe/STIM_015.jpg
1828.57	1.034	incorrect	observe	Run2	observe/STIM_015.jpg
1831.95	0.811	correct	observe	Run2	observe/STIM_015.jpg
1835.9	1.24	correct	observe	Run2	observe/STIM_015.jpg
1840.987	1.276	correct	observe	Run2	observe/STIM_016.jpg
1845.524	1.389	correct	observe	Run2	observe/STIM_016.jpg
1849.801	1.034	correct	observe	Run2	observe/STIM_016.jpg
1853.415	0.821	correct	observe	Run2	observe/STIM_016.jpg
1856.762	1.298	incorrect	observe	Run2	observe/STIM_017.jpg
1862.066	0.874	correct	observe	Run2	observe/STIM_017.jpg
1866.696	1.115	correct	observe	Run2	observe/STIM_017.jpg
1870.729	1.43	correct	observe	Run2	observe/STIM_017.jpg
1876.167	0.984	correct	observe	Run2	observe/STIM_018.jpg
1879.474	0.936	incorrect	observe	Run2	observe/STIM_018.jpg
1883.349	0.992	correct	observe	Run2	observe/STIM_018.jpg
1886.526	1.291	correct	observe	Run2	observe/STIM_018.jpg
1890.188	1.333	correct	observe	Run2	observe/STIM_019.jpg
1894.719	1.407	correct	observe	Run2	observe/STIM_019.jpg
1899.603	0.772	correct	observe	Run2	observe/STIM_019.jpg
1902.578	1.378	correct	observe	Run2	observe/STIM_019.jpg
1906.396	1.364	correct	regulate	Run3	regulate/STIM_000.jpg
1910.721	2.33	correct	regulate	Run3	regulate/STIM_000.jpg
1915.707	1.193	correct	regulate	Run3	regulate/STIM_000.jpg
1919.701	1.366	correct	regulate	Run3	regulate/STIM_000.jpg
1924.077	1.398	correct	regulate	Run3	regulate/STIM_001.jpg
1927.658	1.052	correct	regulate	Run3	regulate/STIM_001.jpg
1930.947	1.549	correct	regulate	Run3	regulate/STIM_001.jpg
1935.388	2.178	correct	regulate	Run3	regulate/STIM_001.jpg
1940.418	1.645	incorrect	regulate	Run3	regulate/STIM_002.jpg
1944.38	1.919	correct	regulate	Run3	regulate/STIM_002.jpg
1950.321	1.334	correct	regulate	Run3	regulate/STIM_002.jpg
1954.822	1.976	correct	regulate	Run3	regulate/STIM_002.jpg
1959.847	2.28	correct	regulate	Run3	regulate/STIM_003.jpg
1965.003	1.08	incorrect	regulate	Run3	regulate/STIM_003.jpg
1969.76	1.588	correct	regulate	Run3	regulate/STIM_003.jpg
1975.377	1.886	correct	regulate	Run3	regulate/STIM_003.jpg
1980.524	1.014	incorrect	regulate	Run3	regulate/STIM_004.jpg
1984.601	2.061	correct	regulate	Run3	regulate/STIM_004.jpg
1989.503	1.95	correct	regulate	Run3	regulate/STIM_004.jpg
1994.933	1.918	correct	regulate	Run3	regulate/STIM_004.jpg
2000.035	2.002	correct	regulate	Run3	regulate/STIM_005.jpg
2004.374	2.123	correct	regulate	Run3	regulate/STIM_005.jpg
2009.783	1.62	correct	regulate	Run3	regulate/STIM_005.jpg
2014.374	1.8	correct	regulate	Run3	regulate/STIM_005.jpg
2019.208	1.273	correct	regulate	Run3	regulate/STIM_006.jpg
2023.245	1.589	correct	regulate	Run3	regulate/STIM_006.jpg
2027.029	1.228	correct	regulate	Run3	regulate/STIM_006.jpg
2031.432	1.152	correct	regulate	Run3	regulate/STIM_006.jpg
2035.395	2.166	correct	regulate	Run3	regulate/STIM_007.jpg
2040.528	1.277	correct	regulate	Run3	regulate/STIM_007.jpg
2044.609	1.66	correct	regulate	Run3	regulate/STIM_007.jpg
2049.483	2.291	correct	regulate	Run3	regulate/STIM_007.jpg
2055.763	2.339	correct	regulate	Run3	regulate/STIM_008.jpg
2060.844	2.298	correct	regulate	Run3	regulate/STIM_008.jpg
2067.034	1.091	correct	regulate	Run3	regulate/STIM_008.jpg
2071.468	1.812	correct	regulate	Run3	regulate/STIM_008.jpg
2077.028	1.113	incorrect	regulate	Run3	regulate/STIM_009.jpg
2081.183	1.906	correct	regulate	Run3	regulate/STIM_009.jpg
2085.393	2.217	correct	regulate	Run3	regulate/STIM_009.jpg
2090.533	1.747	correct	regulate	Run3	regulate/STIM_009.jpg
2096.184	1.647	correct	regulate	Run3	regulate/STIM_010.jpg
2101.802	1.632	correct	regulate	Run3	regulate/STIM_010.jpg
2106.27	1.562	correct	regulate	Run3	regulate/STIM_010.jpg
2110.1	1.016	incorrect	regulate	Run3	regulate/STIM_010.jpg
2114.818	2.192	correct	regulate	Run3	regulate/STIM_011.jpg
2119.825	1.03	correct	regulate	Run3	regulate/STIM_011.jpg
2123.096	1.276	correct	regulate	Run3	regulate/STIM_011.jpg
2128.245	1.083	correct	regulate	Run3	regulate/STIM_011.jpg
2132.543	1.496	correct	regulate	Run3	regulate/STIM_012.jpg
2137.288	1.917	correct	regulate	Run3	regulate/STIM_012.jpg
2142.757	1.182	correct	regulate	Run3	regulate/STIM_012.jpg
2147.271	2.04	correct	regulate	Run3	regulate/STIM_012.jpg
2151.995	1.247	correct	regulate	Run3	regulate/STIM_013.jpg
2155.992	1.712	correct	regulate	Run3	regulate/STIM_013.jpg
2160.784	1.81	correct	regulate	Run3	regulate/STIM_013.jpg
2165.039	2.131	correct	regulate	Run3	regulate/STIM_013.jpg
2169.865	1.701	correct	regulate	Run3	regulate/STIM_014.jpg
2174.858	1.838	incorrect	regulate	Run3	regulate/STIM_014.jpg
2179.471	1.752	correct	regulate	Run3	regulate/STIM_014.jpg
2184.955	1.556	correct	regulate	Run3	regulate/STIM_014.jpg
2190.489	2.122	correct	regulate	Run3	regulate/STIM_015.jpg
2195.193	2.144	correct	regulate	Run3	regulate/STIM_015.jpg
2200.557	1.647	correct	regulate	Run3	regulate/STIM_015.jpg
2206.112	1.678	correct	regulate	Run3	regulate/STIM_015.jpg
2210.737	1.519	correct	regulate	Run3	regulate/STIM_016.jpg
2215.637	1.997	correct	regulate	Run3	regulate/STIM_016.jpg
2220.577	2.103	correct	regulate	Run3	regulate/STIM_016.jpg
2225.77	2.128	correct	regulate	Run3	regulate/STIM_016.jpg
2230.821	1.05	correct	regulate	Run3	regulate/STIM_017.jpg
2235.199	2.214	correct	regulate	Run3	regulate/STIM_017.jpg
2239.807	2.083	correct	regulate	Run3	regulate/STIM_017.jpg
2244.364	1.208	correct	regulate	Run3	regulate/STIM_017.jpg
2249.575	1.053	correct	regulate	Run3	regulate/STIM_018.jpg
2252.834	2.0	correct	regulate	Run3	regulate/STIM_018.jpg
2258.89	2.079	correct	regulate	Run3	regulate/STIM_018.jpg
2264.513	2.213	correct	regulate	Run3	regulate/STIM_018.jpg
2270.022	2.292	correct	regulate	Run3	regulate/STIM_019.jpg
2276.342	2.001	correct	regulate	Run3	regulate/STIM_019.jpg
2280.79	1.089	correct	regulate	Run3	regulate/STIM_019.jpg
2285.032	1.4	correct	regulate	Run3	regulate/STIM_019.jpg
2289.861	1.564	correct	regulate	Run3	regulate/STIM_020.jpg
2293.955	1.716	correct	regulate	Run3	regulate/STIM_020.jpg
2297.872	2.16	incorrect	regulate	Run3	regulate/STIM_020.jpg
2303.16	2.227	correct	regulate	Run3	regulate/STIM_020.jpg
2307.6	1.916	correct	regulate	Run3	regulate/STIM_021.jpg
2312.637	1.62	correct	regulate	Run3	regulate/STIM_021.jpg
2316.494	1.855	correct	regulate	Run3	regulate/STIM_021.jpg
2321.452	1.186	correct	regulate	Run3	regulate/STIM_021.jpg
2326.077	1.729	correct	regulate	Run3	regulate/STIM_022.jpg
2330.365	1.397	correct	regulate	Run3	regulate/STIM_022.jpg
2334.443	1.031	correct	regulate	Run3	regulate/STIM_022.jpg
2338.885	1.06	correct	regulate	Run3	regulate/STIM_022.jpg
2343.157	1.475	correct	regulate	Run3	regulate/STIM_023.jpg
2348.635	1.602	correct	regulate	Run3	regulate/STIM_023.jpg
2354.24	2.279	correct	regulate	Run3	regulate/STIM_023.jpg
2358.961	1.711	correct	regulate	Run3	regulate/STIM_023.jpg
2364.404	1.803	correct	regulate	Run3	regulate/STIM_024.jpg
2369.298	1.769	correct	regulate	Run3	regulate/STIM_024.jpg
2373.834	1.738	correct	regulate	Run3	regulate/STIM_024.jpg
2378.398	1.143	correct	regulate	Run3	regulate/STIM_024.jpg
2382.645	1.995	incorrect	regulate	Run3	regulate/STIM_025.jpg
2386.907	1.414	correct	regulate	Run3	regulate/STIM_025.jpg
2391.96	1.603	correct	regulate	Run3	regulate/STIM_025.jpg
2397.012	1.807	correct	regulate	Run3	regulate/STIM_025.jpg
2401.049	2.064	correct	regulate	Run3	regulate/STIM_026.jpg
2406.22	1.465	correct	regulate	Run3	regulate/STIM_026.jpg
2409.896	1.179	correct	regulate	Run3	regulate/STIM_026.jpg
2413.347	2.044	correct	regulate	Run3	regulate/STIM_026.jpg
2417.575	1.285	correct	regulate	Run3	regulate/STIM_027.jpg
2422.49	1.444	correct	regulate	Run3	regulate/STIM_027.jpg
2426.357	1.085	correct	regulate	Run3	regulate/STIM_027.jpg
2429.725	1.508	correct	regulate	Run3	regulate/STIM_027.jpg
2433.669	2.316	correct	regulate	Run3	regulate/STIM_028.jpg
2439.925	2.04	correct	regulate	Run3	regulate/STIM_028.jpg
2445.569	1.985	correct	regulate	Run3	regulate/STIM_028.jpg
2451.035	1.419	correct	regulate	Run3	regulate/STIM_028.jpg
2455.877	2.09	correct	regulate	Run3	regulate/STIM_029.jpg
2461.116	2.225	incorrect	regulate	Run3	regulate/STIM_029.jpg
2466.488	2.094	correct	regulate	Run3	regulate/STIM_029.jpg
2472.617	2.301	correct	regulate	Run3	regulate/STIM_029.jpg
2477.112	1.425	correct	observe	Run3	observe/STIM_000.jpg
2482.294	1.031	correct	observe	Run3	observe/STIM_000.jpg
2485.698	0.982	correct	observe	Run3	observe/STIM_000.jpg
2489.43	0.92	incorrect	observe	Run3	observe/STIM_000.jpg
2493.339	1.004	correct	observe	Run3	observe/STIM_001.jpg
2497.404	1.158	correct	observe	Run3	observe/STIM_001.jpg
2501.698	1.484	correct	observe	Run3	observe/STIM_001.jpg
2506.795	1.186	incorrect	observe	Run3	observe/STIM_001.jpg
2510.268	1.484	correct	observe	Run3	observe/STIM_002.jpg
2514.544	0.986	correct	observe	Run3	observe/STIM_002.jpg
2518.619	0.948	correct	observe	Run3	observe/STIM_002.jpg
2522.077	1.307	incorrect	observe	Run3	observe/STIM_002.jpg
2525.966	0.866	correct	observe	Run3	observe/STIM_003.jpg
2528.951	1.334	correct	observe	Run3	observe/STIM_003.jpg
2534.097	1.109	correct	observe	Run3	observe/STIM_003.jpg
2538.071	0.817	correct	observe	Run3	observe/STIM_003.jpg
2542.804	1.151	incorrect	observe	Run3	observe/STIM_004.jpg
2546.938	1.138	correct	observe	Run3	observe/STIM_004.jpg
2551.909	1.013	correct	observe	Run3	observe/STIM_004.jpg
2556.524	1.36	correct	observe	Run3	observe/STIM_004.jpg
2561.541	0.801	correct	observe	Run3	observe/STIM_005.jpg
2564.545	1.182	correct	observe	Run3	observe/STIM_005.jpg
2568.308	0.842	correct	observe	Run3	observe/STIM_005.jpg
2573.107	0.822	correct	observe	Run3	observe/STIM_005.jpg
2576.895	1.078	correct	observe	Run3	observe/STIM_006.jpg
2580.955	1.103	correct	observe	Run3	observe/STIM_006.jpg
2586.058	0.786	correct	observe	Run3	observe/STIM_006.jpg
2589.396	0.812	correct	observe	Run3	observe/STIM_006.jpg
2592.615	1.163	correct	observe	Run3	observe/STIM_007.jpg
2597.761	0.83	correct	observe	Run3	observe/STIM_007.jpg
2601.99	1.13	correct	observe	Run3	observe/STIM_007.jpg
2605.768	0.869	incorrect	observe	Run3	observe/STIM_007.jpg
2609.122	1.516	correct	observe	Run3	observe/STIM_008.jpg
2614.103	1.044	correct	observe	Run3	observe/STIM_008.jpg
2617.661	1.366	correct	observe	Run3	observe/STIM_008.jpg
2621.206	1.488	correct	observe	Run3	observe/STIM_008.jpg
2625.803	1.474	correct	observe	Run3	observe/STIM_009.jpg
2631.043	0.9	correct	observe	Run3	observe/STIM_009.jpg
2635.957	1.485	correct	observe	Run3	observe/STIM_009.jpg
2640.978	1.49	correct	observe	Run3	observe/STIM_009.jpg
2644.647	1.341	correct	observe	Run3	observe/STIM_010.jpg
2648.532	1.02	correct	observe	Run3	observe/STIM_010.jpg
2651.971	1.25	correct	observe	Run3	observe/STIM_010.jpg
2656.619	1.501	correct	observe	Run3	observe/STIM_010.jpg
2660.604	1.278	correct	observe	Run3	observe/STIM_011.jpg
2665.721	1.291	correct	observe	Run3	observe/STIM_011.jpg
2670.745	1.347	incorrect	observe	Run3	observe/STIM_011.jpg
2675.83	1.442	incorrect	observe	Run3	observe/STIM_011.jpg
2679.783	0.89	correct	observe	Run3	observe/STIM_012.jpg
2683.049	0.766	incorrect	observe	Run3	observe/STIM_012.jpg
2687.305	1.044	correct	observe	Run3	observe/STIM_012.jpg
2692.326	1.026	incorrect	observe	Run3	observe/STIM_012.jpg
2695.963	1.099	correct	observe	Run3	observe/STIM_013.jpg
2701.075	1.097	correct	observe	Run3	observe/STIM_013.jpg
2705.363	1.241	correct	observe	Run3	observe/STIM_013.jpg
2709.461	1.291	correct	observe	Run3	observe/STIM_013.jpg
2712.951	1.292	correct	observe	Run3	observe/STIM_014.jpg
2718.258	1.381	correct	observe	Run3	observe/STIM_014.jpg
2721.76	1.427	correct	observe	Run3	observe/STIM_014.jpg
2726.189	0.984	correct	observe	Run3	observe/STIM_014.jpg
2731.213	1.077	incorrect	observe	Run3	observe/STIM_015.jpg
2735.209	1.336	correct	observe	Run3	observe/STIM_015.jpg
2740.489	1.479	correct	observe	Run3	observe/STIM_015.jpg
2744.092	1.117	correct	observe	Run3	observe/STIM_015.jpg
2748.986	0.965	correct	observe	Run3	observe/STIM_016.jpg
2753.198	0.782	correct	observe	Run3	observe/STIM_016.jpg
2757.192	0.994	correct	observe	Run3	observe/STIM_016.jpg
2761.939	1.298	correct	observe	Run3	observe/STIM_016.jpg
2765.672	1.09	correct	observe	Run3	observe/STIM_017.jpg
2769.232	1.266	correct	observe	Run3	observe/STIM_017.jpg
2773.644	1.404	incorrect	observe	Run3	observe/STIM_017.jpg
2777.629	1.321	correct	observe	Run3	observe/STIM_017.jpg
2781.069	1.443	correct	observe	Run3	observe/STIM_018.jpg
2785.447	0.973	correct	observe	Run3	observe/STIM_018.jpg
2789.635	1.209	correct	observe	Run3	observe/STIM_018.jpg
2793.994	1.521	correct	observe	Run3	observe/STIM_018.jpg
2797.768	1.341	correct	observe	Run3	observe/STIM_019.jpg
2802.348	0.841	correct	observe	Run3	observe/STIM_019.jpg
2805.937	0.871	correct	observe	Run3	observe/STIM_019.jpg
2810.345	1.363	correct	observe	Run3	observe/STIM_019.jpg
