onset	duration	response_time_ms	trial_type	learning_stage	stimulus	response_port
0.0	2.894	2894.4	regulate	Run1	regulate/STIM_000.jpg	99
5.563	2.848	2848.4	regulate	Run1	regulate/STIM_000.jpg	99
11.831	2.502	2502.4	regulate	Run1	regulate/STIM_000.jpg	100
18.336	1.573	1573.1	regulate	Run1	regulate/STIM_000.jpg	100
23.834	2.188	2188.4	regulate	Run1	regulate/STIM_001.jpg	99
29.377	2.506	2506.5	regulate	Run1	regulate/STIM_001.jpg	100
34.102	1.812	1812.1	regulate	Run1	regulate/STIM_001.jpg	100
39.833	1.511	1511.4	regulate	Run1	regulate/STIM_001.jpg	99
45.01	1.775	1774.6	regulate	Run1	regulate/STIM_002.jpg	100
48.97	2.339	2338.6	regulate	Run1	regulate/STIM_002.jpg	99
53.561	1.763	1762.6	regulate	Run1	regulate/STIM_002.jpg	99
57.857	1.51	1509.6	regulate	Run1	regulate/STIM_002.jpg	100
62.842	3.235	3235.1	regulate	Run1	regulate/STIM_003.jpg	99
69.063	1.447	1447.2	regulate	Run1	regulate/STIM_003.jpg	99
72.967	1.455	1455.0	regulate	Run1	regulate/STIM_003.jpg	99
76.539	1.937	1936.6	regulate	Run1	regulate/STIM_003.jpg	100
80.725	1.478	1478.1	regulate	Run1	regulate/STIM_004.jpg	100
84.921	1.426	1425.5	regulate	Run1	regulate/STIM_004.jpg	99
89.8	2.203	2203.3	regulate	Run1	regulate/STIM_004.jpg	100
95.099	1.719	1719.1	regulate	Run1	regulate/STIM_004.jpg	99
100.788	3.283	3282.8	regulate	Run1	regulate/STIM_005.jpg	99
106.507	2.348	2348.1	regulate	Run1	regulate/STIM_005.jpg	100
112.755	2.025	2024.6	regulate	Run1	regulate/STIM_005.jpg	100
118.265	1.669	1669.1	regulate	Run1	regulate/STIM_005.jpg	99
123.17	3.199	3198.6	regulate	Run1	regulate/STIM_006.jpg	99
129.504	2.852	2851.6	regulate	Run1	regulate/STIM_006.jpg	100
135.14	2.424	2424.5	regulate	Run1	regulate/STIM_006.jpg	99
139.791	2.016	2016.1	regulate	Run1	regulate/STIM_006.jpg	99
145.025	1.805	1805.3	regulate	Run1	regulate/STIM_007.jpg	100
150.9	3.005	3004.9	regulate	Run1	regulate/STIM_007.jpg	100
157.136	2.689	2689.1	regulate	Run1	regulate/STIM_007.jpg	99
162.658	1.528	1528.0	regulate	Run1	regulate/STIM_007.jpg	100
167.165	1.916	1915.5	regulate	Run1	regulate/STIM_008.jpg	99
172.055	1.616	1616.3	regulate	Run1	regulate/STIM_008.jpg	100
175.859	2.564	2563.9	regulate	Run1	regulate/STIM_008.jpg	100
181.266	2.221	2220.7	regulate	Run1	regulate/STIM_008.jpg	100
187.035	3.327	3326.6	regulate	Run1	regulate/STIM_009.jpg	100
194.36	2.22	2219.7	regulate	Run1	regulate/STIM_009.jpg	99
199.411	1.679	1679.4	regulate	Run1	regulate/STIM_009.jpg	99
203.639	2.359	2358.8	regulate	Run1	regulate/STIM_009.jpg	100
208.366	2.695	2695.3	regulate	Run1	regulate/STIM_010.jpg	99
213.41	2.452	2451.6	regulate	Run1	regulate/STIM_010.jpg	100
218.847	1.408	1408.0	regulate	Run1	regulate/STIM_010.jpg	100
224.315	2.129	2129.1	regulate	Run1	regulate/STIM_010.jpg	99
229.771	1.553	1553.1	regulate	Run1	regulate/STIM_011.jpg	100
234.35	3.008	3008.3	regulate	Run1	regulate/STIM_011.jpg	99
241.419	2.886	2885.5	regulate	Run1	regulate/STIM_011.jpg	99
246.907	1.745	1744.8	regulate	Run1	regulate/STIM_011.jpg	99
250.964	2.606	2605.7	regulate	Run1	regulate/STIM_012.jpg	100
256.848	2.084	2084.2	regulate	Run1	regulate/STIM_012.jpg	99
263.0	2.33	2329.6	regulate	Run1	regulate/STIM_012.jpg	100
268.242	2.208	2207.6	regulate	Run1	regulate/STIM_012.jpg	99
274.548	1.52	1519.7	regulate	Run1	regulate/STIM_013.jpg	100
278.534	2.82	2819.8	regulate	Run1	regulate/STIM_013.jpg	99
284.976	2.891	2891.1	regulate	Run1	regulate/STIM_013.jpg	100
290.279	2.072	2071.9	regulate	Run1	regulate/STIM_013.jpg	100
295.774	1.48	1479.8	regulate	Run1	regulate/STIM_014.jpg	99
299.6	2.42	2419.9	regulate	Run1	regulate/STIM_014.jpg	99
304.863	1.766	1765.9	regulate	Run1	regulate/STIM_014.jpg	99
310.324	1.26	1259.6	regulate	Run1	regulate/STIM_014.jpg	99
314.329	2.618	2618.2	regulate	Run1	regulate/STIM_015.jpg	99
320.911	1.981	1981.3	regulate	Run1	regulate/STIM_015.jpg	100
325.88	2.937	2937.1	regulate	Run1	regulate/STIM_015.jpg	100
332.926	2.19	2189.8	regulate	Run1	regulate/STIM_015.jpg	99
338.01	3.068	3068.1	regulate	Run1	regulate/STIM_016.jpg	99
343.731	2.778	2778.2	regulate	Run1	regulate/STIM_016.jpg	99
348.907	2.156	2156.1	regulate	Run1	regulate/STIM_016.jpg	100
355.072	1.502	1502.2	regulate	Run1	regulate/STIM_016.jpg	99
360.194	2.721	2720.8	regulate	Run1	regulate/STIM_017.jpg	99
366.911	3.113	3112.6	regulate	Run1	regulate/STIM_017.jpg	100
372.644	2.843	2843.3	regulate	Run1	regulate/STIM_017.jpg	100
378.899	1.741	1740.6	regulate	Run1	regulate/STIM_017.jpg	99
383.893	2.233	2232.8	regulate	Run1	regulate/STIM_018.jpg	99
390.197	2.718	2718.5	regulate	Run1	regulate/STIM_018.jpg	99
396.548	2.035	2035.1	regulate	Run1	regulate/STIM_018.jpg	99
401.779	2.701	2701.4	regulate	Run1	regulate/STIM_018.jpg	100
408.556	2.71	2709.5	regulate	Run1	regulate/STIM_019.jpg	100
413.675	3.082	3081.6	regulate	Run1	regulate/STIM_019.jpg	99
418.897	1.693	1692.8	regulate	Run1	regulate/STIM_019.jpg	99
422.864	2.461	2461.0	regulate	Run1	regulate/STIM_019.jpg	99
428.199	3.27	3269.9	regulate	Run1	regulate/STIM_020.jpg	100
434.323	2.132	2131.9	regulate	Run1	regulate/STIM_020.jpg	100
439.867	2.396	2395.5	regulate	Run1	regulate/STIM_020.jpg	100
445.973	2.55	2549.7	regulate	Run1	regulate/STIM_020.jpg	99
451.99	2.239	2239.0	regulate	Run1	regulate/STIM_021.jpg	100
458.133	1.984	1983.5	regulate	Run1	regulate/STIM_021.jpg	99
463.546	2.382	2382.3	regulate	Run1	regulate/STIM_021.jpg	99
468.681	2.389	2389.0	regulate	Run1	regulate/STIM_021.jpg	99
474.386	2.456	2455.7	regulate	Run1	regulate/STIM_022.jpg	100
480.848	2.284	2284.0	regulate	Run1	regulate/STIM_022.jpg	99
486.576	2.661	2661.4	regulate	Run1	regulate/STIM_022.jpg	100
492.714	1.328	1327.6	regulate	Run1	regulate/STIM_022.jpg	100
496.389	3.152	3151.8	regulate	Run1	regulate/STIM_023.jpg	99
502.231	1.585	1585.4	regulate	Run1	regulate/STIM_023.jpg	100
507.687	2.914	2914.4	regulate	Run1	regulate/STIM_023.jpg	100
512.898	1.423	1422.9	regulate	Run1	regulate/STIM_023.jpg	99
517.498	2.207	2207.1	regulate	Run1	regulate/STIM_024.jpg	100
522.213	1.463	1462.9	regulate	Run1	regulate/STIM_024.jpg	99
527.169	2.176	2176.1	regulate	Run1	regulate/STIM_024.jpg	99
532.222	2.118	2118.1	regulate	Run1	regulate/STIM_024.jpg	100
537.069	2.126	2126.1	regulate	Run1	regulate/STIM_025.jpg	99
541.651	2.975	2974.7	regulate	Run1	regulate/STIM_025.jpg	99
548.567	1.955	1955.2	regulate	Run1	regulate/STIM_025.jpg	100
552.811	1.318	1318.2	regulate	Run1	regulate/STIM_025.jpg	99
556.274	1.696	1696.4	regulate	Run1	regulate/STIM_026.jpg	99
560.705	3.138	3137.7	regulate	Run1	regulate/STIM_026.jpg	100
566.451	1.435	1434.8	regulate	Run1	regulate/STIM_026.jpg	100
570.779	2.689	2688.8	regulate	Run1	regulate/STIM_026.jpg	99
576.781	2.346	2346.4	regulate	Run1	regulate/STIM_027.jpg	99
582.399	2.462	2462.2	regulate	Run1	regulate/STIM_027.jpg	100
588.001	2.886	2885.9	regulate	Run1	regulate/STIM_027.jpg	100
594.524	1.9	1899.5	regulate	Run1	regulate/STIM_027.jpg	99
599.22	1.638	1637.6	regulate	Run1	regulate/STIM_028.jpg	100
603.749	2.036	2035.9	regulate	Run1	regulate/STIM_028.jpg	99
608.579	2.718	2717.8	regulate	Run1	regulate/STIM_028.jpg	99
613.982	2.392	2391.9	regulate	Run1	regulate/STIM_028.jpg	99
619.02	2.138	2137.9	regulate	Run1	regulate/STIM_029.jpg	99
623.848	1.453	1453.2	regulate	Run1	regulate/STIM_029.jpg	99
627.692	1.798	1797.9	regulate	Run1	regulate/STIM_029.jpg	100
632.458	2.63	2630.1	regulate	Run1	regulate/STIM_029.jpg	100
638.26	1.005	1005.2	observe	Run1	observe/STIM_000.jpg	99
642.659	1.003	1002.7	observe	Run1	observe/STIM_000.jpg	100
646.855	1.315	1315.3	observe	Run1	observe/STIM_000.jpg	99
651.551	0.956	956.1	observe	Run1	observe/STIM_000.jpg	99
654.913	0.924	923.5	observe	Run1	observe/STIM_001.jpg	99
659.043	1.166	1166.3	observe	Run1	observe/STIM_001.jpg	100
663.049	0.895	894.8	observe	Run1	observe/STIM_001.jpg	99
667.605	1.46	1460.2	observe	Run1	observe/STIM_001.jpg	100
671.166	0.78	780.3	observe	Run1	observe/STIM_002.jpg	100
674.032	1.042	1041.9	observe	Run1	observe/STIM_002.jpg	100
678.139	1.312	1311.5	observe	Run1	observe/STIM_002.jpg	100
681.934	1.101	1101.4	observe	Run1	observe/STIM_002.jpg	99
685.176	1.344	1343.8	observe	Run1	observe/STIM_003.jpg	100
689.984	1.044	1044.2	observe	Run1	observe/STIM_003.jpg	100
694.657	1.47	1470.3	observe	Run1	observe/STIM_003.jpg	100
698.279	1.124	1124.0	observe	Run1	observe/STIM_003.jpg	99
701.954	1.452	1452.3	observe	Run1	observe/STIM_004.jpg	100
706.523	0.899	899.3	observe	Run1	observe/STIM_004.jpg	100
709.948	1.283	1283.1	observe	Run1	observe/STIM_004.jpg	100
714.437	1.053	1053.0	observe	Run1	observe/STIM_004.jpg	99
718.045	1.377	1376.7	observe	Run1	observe/STIM_005.jpg	100
723.366	0.987	987.3	observe	Run1	observe/STIM_005.jpg	100
728.329	1.236	1236.4	observe	Run1	observe/STIM_005.jpg	100
733.174	1.322	1321.7	observe	Run1	observe/STIM_005.jpg	99
737.248	1.213	1213.2	observe	Run1	observe/STIM_006.jpg	99
740.823	0.786	786.1	observe	Run1	observe/STIM_006.jpg	100
743.876	1.115	1114.8	observe	Run1	observe/STIM_006.jpg	100
749.023	1.31	1309.6	observe	Run1	observe/STIM_006.jpg	99
753.748	1.051	1050.7	observe	Run1	observe/STIM_007.jpg	99
757.624	1.414	1414.3	observe	Run1	observe/STIM_007.jpg	100
762.302	1.503	1502.8	observe	Run1	observe/STIM_007.jpg	99
765.884	1.143	1143.1	observe	Run1	observe/STIM_007.jpg	100
769.586	1.313	1312.6	observe	Run1	observe/STIM_008.jpg	100
774.42	0.797	797.4	observe	Run1	observe/STIM_008.jpg	99
779.185	0.786	785.9	observe	Run1	observe/STIM_008.jpg	99
783.831	1.012	1012.5	observe	Run1	observe/STIM_008.jpg	99
788.786	1.107	1106.6	observe	Run1	observe/STIM_009.jpg	99
793.036	1.502	1502.3	observe	Run1	observe/STIM_009.jpg	99
797.939	0.854	854.5	observe	Run1	observe/STIM_009.jpg	100
801.03	1.519	1519.3	observe	Run1	observe/STIM_009.jpg	99
805.651	0.895	894.9	observe	Run1	observe/STIM_010.jpg	99
810.012	1.134	1134.4	observe	Run1	observe/STIM_010.jpg	99
814.579	1.428	1428.4	observe	Run1	observe/STIM_010.jpg	100
818.455	1.079	1079.4	observe	Run1	observe/STIM_010.jpg	100
823.511	1.506	1505.8	observe	Run1	observe/STIM_011.jpg	99
828.099	1.06	1060.3	observe	Run1	observe/STIM_011.jpg	100
832.541	1.092	1091.5	observe	Run1	observe/STIM_011.jpg	100
836.635	0.836	836.4	observe	Run1	observe/STIM_011.jpg	99
840.738	1.39	1389.5	observe	Run1	observe/STIM_012.jpg	99
844.675	1.449	1448.6	observe	Run1	observe/STIM_012.jpg	100
848.519	1.381	1380.6	observe	Run1	observe/STIM_012.jpg	100
852.027	1.315	1315.1	observe	Run1	observe/STIM_012.jpg	99
856.658	1.361	1360.8	observe	Run1	observe/STIM_013.jpg	100
860.492	1.196	1195.7	observe	Run1	observe/STIM_013.jpg	99
865.407	0.849	848.9	observe	Run1	observe/STIM_013.jpg	100
869.505	1.345	1345.1	observe	Run1	observe/STIM_013.jpg	100
873.575	1.513	1513.0	observe	Run1	observe/STIM_014.jpg	99
877.63	0.789	788.7	observe	Run1	observe/STIM_014.jpg	99
881.045	0.833	832.9	observe	Run1	observe/STIM_014.jpg	100
885.658	1.49	1489.6	observe	Run1	observe/STIM_014.jpg	100
890.824	1.038	1038.0	observe	Run1	observe/STIM_015.jpg	99
895.604	1.096	1096.2	observe	Run1	observe/STIM_015.jpg	99
900.439	1.39	1390.1	observe	Run1	observe/STIM_015.jpg	100
905.15	1.315	1314.8	observe	Run1	observe/STIM_015.jpg	99
909.035	1.073	1072.7	observe	Run1	observe/STIM_016.jpg	100
912.63	1.42	1420.5	observe	Run1	observe/STIM_016.jpg	99
916.452	0.806	805.9	observe	Run1	observe/STIM_016.jpg	100
919.831	1.334	1334.5	observe	Run1	observe/STIM_016.jpg	99
923.287	0.843	842.6	observe	Run1	observe/STIM_017.jpg	100
927.345	1.252	1252.3	observe	Run1	observe/STIM_017.jpg	99
932.355	1.071	1071.3	observe	Run1	observe/STIM_017.jpg	100
936.81	1.321	1320.9	observe	Run1	observe/STIM_017.jpg	99
941.71	1.158	1157.5	observe	Run1	observe/STIM_018.jpg	99
946.469	0.906	905.7	observe	Run1	observe/STIM_018.jpg	99
951.106	0.88	880.5	observe	Run1	observe/STIM_018.jpg	99
955.199	1.522	1522.4	observe	Run1	observe/STIM_018.jpg	99
960.074	0.981	980.8	observe	Run1	observe/STIM_019.jpg	100
963.529	1.082	1082.0	observe	Run1	observe/STIM_019.jpg	100
967.171	1.24	1240.5	observe	Run1	observe/STIM_019.jpg	99
971.045	0.812	812.1	observe	Run1	observe/STIM_019.jpg	99
974.289	1.392	1391.5	regulate	Run2	regulate/STIM_000.jpg	100
979.554	2.674	2673.5	regulate	Run2	regulate/STIM_000.jpg	99
986.132	2.169	2169.3	regulate	Run2	regulate/STIM_000.jpg	100
990.803	1.802	1802.0	regulate	Run2	regulate/STIM_000.jpg	100
994.829	2.192	2192.4	regulate	Run2	regulate/STIM_001.jpg	100
999.959	2.61	2609.6	regulate	Run2	regulate/STIM_001.jpg	100
1005.293	2.312	2311.8	regulate	Run2	regulate/STIM_001.jpg	100
1011.469	1.872	1871.9	regulate	Run2	regulate/STIM_001.jpg	99
1017.408	2.031	2031.0	regulate	Run2	regulate/STIM_002.jpg	100
1022.996	2.34	2339.5	regulate	Run2	regulate/STIM_002.jpg	99
1027.973	1.595	1595.2	regulate	Run2	regulate/STIM_002.jpg	100
1032.192	2.102	2102.1	regulate	Run2	regulate/STIM_002.jpg	100
1037.457	2.364	2363.8	regulate	Run2	regulate/STIM_003.jpg	99
1042.447	2.639	2639.3	regulate	Run2	regulate/STIM_003.jpg	100
1048.477	2.131	2130.9	regulate	Run2	regulate/STIM_003.jpg	99
1053.137	1.016	1016.1	regulate	Run2	regulate/STIM_003.jpg	100
1056.579	2.12	2120.2	regulate	Run2	regulate/STIM_004.jpg	99
1060.852	1.883	1883.3	regulate	Run2	regulate/STIM_004.jpg	100
1066.123	1.944	1943.5	regulate	Run2	regulate/STIM_004.jpg	99
1071.243	1.634	1634.3	regulate	Run2	regulate/STIM_004.jpg	100
1075.037	2.676	2675.9	regulate	Run2	regulate/STIM_005.jpg	99
1081.371	1.911	1910.7	regulate	Run2	regulate/STIM_005.jpg	99
1086.427	1.376	1375.9	regulate	Run2	regulate/STIM_005.jpg	99
1089.928	1.887	1886.7	regulate	Run2	regulate/STIM_005.jpg	99
1094.857	2.238	2238.0	regulate	Run2	regulate/STIM_006.jpg	100
1100.157	1.516	1515.7	regulate	Run2	regulate/STIM_006.jpg	100
1104.538	1.779	1778.6	regulate	Run2	regulate/STIM_006.jpg	99
1108.678	2.238	2238.5	regulate	Run2	regulate/STIM_006.jpg	100
1114.299	1.487	1487.3	regulate	Run2	regulate/STIM_007.jpg	100
1118.495	1.209	1209.0	regulate	Run2	regulate/STIM_007.jpg	99
1123.582	2.097	2096.9	regulate	Run2	regulate/STIM_007.jpg	100
1128.109	2.277	2276.7	regulate	Run2	regulate/STIM_007.jpg	99
1132.807	1.693	1693.2	regulate	Run2	regulate/STIM_008.jpg	100
1138.172	2.359	2359.0	regulate	Run2	regulate/STIM_008.jpg	100
1143.927	1.628	1628.2	regulate	Run2	regulate/STIM_008.jpg	100
1149.597	1.954	1953.8	regulate	Run2	regulate/STIM_008.jpg	99
1154.339	1.828	1827.8	regulate	Run2	regulate/STIM_009.jpg	100
1158.574	2.608	2607.9	regulate	Run2	regulate/STIM_009.jpg	100
1164.094	1.426	1426.4	regulate	Run2	regulate/STIM_009.jpg	99
1169.43	1.017	1017.0	regulate	Run2	regulate/STIM_009.jpg	100
1174.474	1.226	1225.7	regulate	Run2	regulate/STIM_010.jpg	100
1179.363	2.178	2178.5	regulate	Run2	regulate/STIM_010.jpg	99
1184.696	2.285	2285.3	regulate	Run2	regulate/STIM_010.jpg	99
1190.659	2.041	2041.1	regulate	Run2	regulate/STIM_010.jpg	100
1195.948	2.614	2614.1	regulate	Run2	regulate/STIM_011.jpg	100
1201.905	1.309	1309.1	regulate	Run2	regulate/STIM_011.jpg	99
1205.745	2.286	2285.6	regulate	Run2	regulate/STIM_011.jpg	100
1211.346	2.164	2163.5	regulate	Run2	regulate/STIM_011.jpg	100
1216.561	2.628	2627.7	regulate	Run2	regulate/STIM_012.jpg	100
1221.838	2.464	2464.1	regulate	Run2	regulate/STIM_012.jpg	99
1228.179	2.476	2476.0	regulate	Run2	regulate/STIM_012.jpg	99
1234.26	1.208	1208.2	regulate	Run2	regulate/STIM_012.jpg	99
1239.48	1.398	1397.8	regulate	Run2	regulate/STIM_013.jpg	99
1243.564	2.192	2191.5	regulate	Run2	regulate/STIM_013.jpg	100
1248.285	1.174	1173.8	regulate	Run2	regulate/STIM_013.jpg	100
1252.164	2.327	2327.4	regulate	Run2	regulate/STIM_013.jpg	99
1257.829	2.82	2820.5	regulate	Run2	regulate/STIM_014.jpg	99
1263.546	1.76	1760.3	regulate	Run2	regulate/STIM_014.jpg	100
1267.717	2.03	2030.5	regulate	Run2	regulate/STIM_014.jpg	99
1271.882	1.684	1684.0	regulate	Run2	regulate/STIM_014.jpg	99
1276.862	2.838	2838.5	regulate	Run2	regulate/STIM_015.jpg	100
1282.773	2.583	2583.0	regulate	Run2	regulate/STIM_015.jpg	99
1288.403	1.509	1509.0	regulate	Run2	regulate/STIM_015.jpg	100
1292.171	1.926	1926.2	regulate	Run2	regulate/STIM_015.jpg	100
1296.905	2.461	2460.8	regulate	Run2	regulate/STIM_016.jpg	99
1301.56	2.53	2530.0	regulate	Run2	regulate/STIM_016.jpg	100
1307.01	1.823	1822.7	regulate	Run2	regulate/STIM_016.jpg	100
1312.727	1.794	1793.8	regulate	Run2	regulate/STIM_016.jpg	100
1316.691	2.442	2442.4	regulate	Run2	regulate/STIM_017.jpg	99
1321.732	1.6	1600.0	regulate	Run2	regulate/STIM_017.jpg	99
1326.27	1.091	1090.7	regulate	Run2	regulate/STIM_017.jpg	99
1330.771	2.142	2142.0	regulate	Run2	regulate/STIM_017.jpg	100
1336.3	1.349	1349.1	regulate	Run2	regulate/STIM_018.jpg	99
1339.999	2.604	2603.8	regulate	Run2	regulate/STIM_018.jpg	100
1345.088	2.402	2402.4	regulate	Run2	regulate/STIM_018.jpg	99
1349.634	2.038	2038.5	regulate	Run2	regulate/STIM_018.jpg	100
1355.329	1.379	1379.2	regulate	Run2	regulate/STIM_019.jpg	100
1359.675	1.851	1850.8	regulate	Run2	regulate/STIM_019.jpg	99
1364.692	2.192	2192.1	regulate	Run2	regulate/STIM_019.jpg	100
1370.95	1.952	1952.4	regulate	Run2	regulate/STIM_019.jpg	100
1375.36	2.535	2534.8	regulate	Run2	regulate/STIM_020.jpg	99
1380.618	2.366	2365.5	regulate	Run2	regulate/STIM_020.jpg	100
1385.941	2.064	2064.1	regulate	Run2	regulate/STIM_020.jpg	99
1390.336	2.226	2225.5	regulate	Run2	regulate/STIM_020.jpg	100
1395.583	2.139	2139.4	regulate	Run2	regulate/STIM_021.jpg	99
1400.886	2.512	2512.5	regulate	Run2	regulate/STIM_021.jpg	100
1405.654	1.827	1826.9	regulate	Run2	regulate/STIM_021.jpg	100
1409.924	1.304	1303.7	regulate	Run2	regulate/STIM_021.jpg	100
1415.136	2.494	2493.8	regulate	Run2	regulate/STIM_022.jpg	100
1419.958	1.939	1939.1	regulate	Run2	regulate/STIM_022.jpg	100
1425.702	1.889	1888.9	regulate	Run2	regulate/STIM_022.jpg	100
1429.823	2.2	2200.2	regulate	Run2	regulate/STIM_022.jpg	100
1434.493	2.347	2346.8	regulate	Run2	regulate/STIM_023.jpg	99
1440.07	2.498	2498.4	regulate	Run2	regulate/STIM_023.jpg	100
1444.969	1.645	1644.9	regulate	Run2	regulate/STIM_023.jpg	99
1450.007	2.018	2017.8	regulate	Run2	regulate/STIM_023.jpg	100
1454.807	1.799	1799.2	regulate	Run2	regulate/STIM_024.jpg	99
1458.928	2.559	2559.1	regulate	Run2	regulate/STIM_024.jpg	100
1463.616	1.938	1937.7	regulate	Run2	regulate/STIM_024.jpg	99
1467.818	1.184	1184.2	regulate	Run2	regulate/STIM_024.jpg	99
1472.597	2.108	2108.2	regulate	Run2	regulate/STIM_025.jpg	100
1477.169	2.016	2015.7	regulate	Run2	regulate/STIM_025.jpg	99
1483.15	2.494	2494.0	regulate	Run2	regulate/STIM_025.jpg	99
1488.215	1.913	1912.9	regulate	Run2	regulate/STIM_025.jpg	99
1493.586	2.303	2302.6	regulate	Run2	regulate/STIM_026.jpg	100
1499.43	2.142	2142.4	regulate	Run2	regulate/STIM_026.jpg	100
1505.503	1.735	1734.6	regulate	Run2	regulate/STIM_026.jpg	99
1509.797	1.4	1400.3	regulate	Run2	regulate/STIM_026.jpg	100
1514.28	2.718	2717.7	regulate	Run2	regulate/STIM_027.jpg	99
1519.761	2.311	2311.0	regulate	Run2	regulate/STIM_027.jpg	99
1525.56	2.411	2411.3	regulate	Run2	regulate/STIM_027.jpg	99
1531.043	1.834	1834.1	regulate	Run2	regulate/STIM_027.jpg	99
1535.315	1.533	1532.8	regulate	Run2	regulate/STIM_028.jpg	100
1540.852	2.653	2653.1	regulate	Run2	regulate/STIM_028.jpg	100
1546.323	1.252	1251.6	regulate	Run2	regulate/STIM_028.jpg	100
1550.513	1.895	1894.7	regulate	Run2	regulate/STIM_028.jpg	99
1554.886	2.453	2452.8	regulate	Run2	regulate/STIM_029.jpg	100
1559.847	2.099	2098.7	regulate	Run2	regulate/STIM_029.jpg	100
1565.879	2.065	2064.9	regulate	Run2	regulate/STIM_029.jpg	99
1571.159	1.276	1276.5	regulate	Run2	regulate/STIM_029.jpg	99
1576.193	1.292	1291.9	observe	Run2	observe/STIM_000.jpg	99
1581.104	1.486	1486.0	observe	Run2	observe/STIM_000.jpg	99
1586.069	0.772	772.3	observe	Run2	observe/STIM_000.jpg	100
1589.473	1.352	1352.2	observe	Run2	observe/STIM_000.jpg	100
1594.111	0.821	820.8	observe	Run2	observe/STIM_001.jpg	99
1597.905	0.897	896.7	observe	Run2	observe/STIM_001.jpg	100
1602.146	0.838	837.9	observe	Run2	observe/STIM_001.jpg	99
1605.548	1.391	1391.1	observe	Run2	observe/STIM_001.jpg	99
1609.772	1.036	1035.5	observe	Run2	observe/STIM_002.jpg	99
1613.143	1.472	1471.7	observe	Run2	observe/STIM_002.jpg	100
1617.78	1.406	1406.3	observe	Run2	observe/STIM_002.jpg	100
1622.672	0.978	977.6	observe	Run2	observe/STIM_002.jpg	100
1626.066	1.178	1178.5	observe	Run2	observe/STIM_003.jpg	99
1629.576	1.346	1345.7	observe	Run2	observe/STIM_003.jpg	99
1634.518	1.459	1459.3	observe	Run2	observe/STIM_003.jpg	100
1638.496	1.2	1200.0	observe	Run2	observe/STIM_003.jpg	99
1642.443	1.057	1056.7	observe	Run2	observe/STIM_004.jpg	99
1645.616	0.995	995.1	observe	Run2	observe/STIM_004.jpg	100
1650.133	0.981	981.1	observe	Run2	observe/STIM_004.jpg	100
1654.406	1.257	1256.7	observe	Run2	observe/STIM_004.jpg	100
1659.365	1.338	1338.2	observe	Run2	observe/STIM_005.jpg	99
1663.289	1.166	1166.4	observe	Run2	observe/STIM_005.jpg	100
1666.529	1.333	1333.2	observe	Run2	observe/STIM_005.jpg	100
1670.701	1.058	1058.1	observe	Run2	observe/STIM_005.jpg	99
1674.575	1.093	1093.2	observe	Run2	observe/STIM_006.jpg	99
1678.204	0.934	933.7	observe	Run2	observe/STIM_006.jpg	100
1681.547	1.086	1085.8	observe	Run2	observe/STIM_006.jpg	100
1685.665	0.938	938.0	observe	Run2	observe/STIM_006.jpg	99
1690.151	1.114	1114.1	observe	Run2	observe/STIM_007.jpg	100
1693.543	1.314	1313.6	observe	Run2	observe/STIM_007.jpg	100
1697.594	1.122	1121.6	observe	Run2	observe/STIM_007.jpg	100
1700.898	1.101	1101.2	observe	Run2	observe/STIM_007.jpg	100
1704.326	0.89	890.4	observe	Run2	observe/STIM_008.jpg	99
1707.681	1.186	1186.2	observe	Run2	observe/STIM_008.jpg	100
1711.895	1.12	1119.6	observe	Run2	observe/STIM_008.jpg	100
1715.996	1.419	1419.2	observe	Run2	observe/STIM_008.jpg	100
1719.743	1.288	1288.0	observe	Run2	observe/STIM_009.jpg	100
1723.098	1.328	1328.3	observe	Run2	observe/STIM_009.jpg	99
1727.896	1.323	1322.8	observe	Run2	observe/STIM_009.jpg	100
1732.095	1.11	1110.2	observe	Run2	observe/STIM_009.jpg	100
1737.127	1.348	1348.0	observe	Run2	observe/STIM_010.jpg	99
1741.812	1.147	1147.4	observe	Run2	observe/STIM_010.jpg	100
1745.373	1.45	1450.1	observe	Run2	observe/STIM_010.jpg	100
1750.68	1.418	1417.6	observe	Run2	observe/STIM_010.jpg	99
1755.608	0.954	954.4	observe	Run2	observe/STIM_011.jpg	99
1760.169	1.469	1468.7	observe	Run2	observe/STIM_011.jpg	100
1764.593	1.455	1454.9	observe	Run2	observe/STIM_011.jpg	100
1769.392	1.473	1472.7	observe	Run2	observe/STIM_011.jpg	100
1774.625	1.427	1427.4	observe	Run2	observe/STIM_012.jpg	100
1779.397	1.229	1228.7	observe	Run2	observe/STIM_012.jpg	100
1782.742	0.934	934.5	observe	Run2	observe/STIM_012.jpg	99
1786.952	1.374	1373.7	observe	Run2	observe/STIM_012.jpg	99
1791.421	1.227	1226.6	observe	Run2	observe/STIM_013.jpg	100
1796.517	1.422	1421.9	observe	Run2	observe/STIM_013.jpg	100
1800.076	1.422	1422.5	observe	Run2	observe/STIM_013.jpg	100
1805.171	1.508	1508.2	observe	Run2	observe/STIM_013.jpg	99
1808.818	1.334	1334.0	observe	Run2	observe/STIM_014.jpg	99
1812.59	1.273	1273.2	observe	Run2	observe/STIM_014.jpg	99
1816.861	1.062	1061.6	observe	Run2	observe/STIM_014.jpg	100
1821.644	0.809	808.6	observe	Run2	observe/STIM_014.jpg	100
1824.626	0.943	943.1	observe	Run2	observe/STIM_015.jpg	99
1828.57	1.034	1034.2	observe	Run2	observe/STIM_015.jpg	99
1831.95	0.811	810.6	observe	Run2	observe/STIM_015.jpg	100
1835.9	1.24	1240.4	observe	Run2	observe/STIM_015.jpg	100
1840.987	1.276	1276.4	observe	Run2	observe/STIM_016.jpg	100
1845.524	1.389	1389.1	observe	Run2	observe/STIM_016.jpg	100
1849.801	1.034	1034.5	observe	Run2	observe/STIM_016.jpg	100
1853.415	0.821	821.4	observe	Run2	observe/STIM_016.jpg	99
1856.762	1.298	1297.5	observe	Run2	observe/STIM_017.jpg	100
1862.066	0.874	873.5	observe	Run2	observe/STIM_017.jpg	99
1866.696	1.115	1114.9	observe	Run2	observe/STIM_017.jpg	99
1870.729	1.43	1429.9	observe	Run2	observe/STIM_017.jpg	99
1876.167	0.984	983.5	observe	Run2	observe/STIM_018.jpg	99
1879.474	0.936	935.9	observe	Run2	observe/STIM_018.jpg	99
1883.349	0.992	992.3	observe	Run2	observe/STIM_018.jpg	99
1886.526	1.291	1290.8	observe	Run2	observe/STIM_018.jpg	100
1890.188	1.333	1332.7	observe	Run2	observe/STIM_019.jpg	100
1894.719	1.407	1407.1	observe	Run2	observe/STIM_019.jpg	100
1899.603	0.772	771.9	observe	Run2	observe/STIM_019.jpg	99
1902.578	1.378	1378.0	observe	Run2	observe/STIM_019.jpg	99
1906.396	1.364	1364.0	regulate	Run3	regulate/STIM_000.jpg	100
1910.721	2.33	2330.3	regulate	Run3	regulate/STIM_000.jpg	99
1915.707	1.193	1192.7	regulate	Run3	regulate/STIM_000.jpg	99
1919.701	1.366	1365.7	regulate	Run3	regulate/STIM_000.jpg	99
1924.077	1.398	1397.8	regulate	Run3	regulate/STIM_001.jpg	99
1927.658	1.052	1052.4	regulate	Run3	regulate/STIM_001.jpg	99
1930.947	1.549	1549.1	regulate	Run3	regulate/STIM_001.jpg	99
1935.388	2.178	2178.3	regulate	Run3	regulate/STIM_001.jpg	99
1940.418	1.645	1644.8	regulate	Run3	regulate/STIM_002.jpg	100
1944.38	1.919	1918.6	regulate	Run3	regulate/STIM_002.jpg	100
1950.321	1.334	1334.5	regulate	Run3	regulate/STIM_002.jpg	100
1954.822	1.976	1976.5	regulate	Run3	regulate/STIM_002.jpg	100
1959.847	2.28	2280.0	regulate	Run3	regulate/STIM_003.jpg	100
1965.003	1.08	1080.4	regulate	Run3	regulate/STIM_003.jpg	99
1969.76	1.588	1587.5	regulate	Run3	regulate/STIM_003.jpg	100
1975.377	1.886	1886.0	regulate	Run3	regulate/STIM_003.jpg	99
1980.524	1.014	1013.7	regulate	Run3	regulate/STIM_004.jpg	100
1984.601	2.061	2060.7	regulate	Run3	regulate/STIM_004.jpg	100
1989.503	1.95	1950.1	regulate	Run3	regulate/STIM_004.jpg	99
1994.933	1.918	1918.3	regulate	Run3	regulate/STIM_004.jpg	99
2000.035	2.002	2001.8	regulate	Run3	regulate/STIM_005.jpg	100
2004.374	2.123	2123.4	regulate	Run3	regulate/STIM_005.jpg	100
2009.783	1.62	1620.1	regulate	Run3	regulate/STIM_005.jpg	99
2014.374	1.8	1799.7	regulate	Run3	regulate/STIM_005.jpg	100
2019.208	1.273	1273.2	regulate	Run3	regulate/STIM_006.jpg	99
2023.245	1.589	1589.2	regulate	Run3	regulate/STIM_006.jpg	99
2027.029	1.228	1228.3	regulate	Run3	regulate/STIM_006.jpg	99
2031.432	1.152	1151.7	regulate	Run3	regulate/STIM_006.jpg	100
2035.395	2.166	2165.8	regulate	Run3	regulate/STIM_007.jpg	99
2040.528	1.277	1277.4	regulate	Run3	regulate/STIM_007.jpg	99
2044.609	1.66	1660.5	regulate	Run3	regulate/STIM_007.jpg	99
2049.483	2.291	2291.3	regulate	Run3	regulate/STIM_007.jpg	99
2055.763	2.339	2338.7	regulate	Run3	regulate/STIM_008.jpg	99
2060.844	2.298	2298.5	regulate	Run3	regulate/STIM_008.jpg	100
2067.034	1.091	1091.3	regulate	Run3	regulate/STIM_008.jpg	100
2071.468	1.812	1812.5	regulate	Run3	regulate/STIM_008.jpg	100
2077.028	1.113	1113.0	regulate	Run3	regulate/STIM_009.jpg	100
2081.183	1.906	1906.4	regulate	Run3	regulate/STIM_009.jpg	100
2085.393	2.217	2217.4	regulate	Run3	regulate/STIM_009.jpg	100
2090.533	1.747	1747.0	regulate	Run3	regulate/STIM_009.jpg	99
2096.184	1.647	1646.8	regulate	Run3	regulate/STIM_010.jpg	99
2101.802	1.632	1631.5	regulate	Run3	regulate/STIM_010.jpg	100
2106.27	1.562	1562.3	regulate	Run3	regulate/STIM_010.jpg	99
2110.1	1.016	1015.6	regulate	Run3	regulate/STIM_010.jpg	100
2114.818	2.192	2192.2	regulate	Run3	regulate/STIM_011.jpg	100
2119.825	1.03	1029.6	regulate	Run3	regulate/STIM_011.jpg	99
2123.096	1.276	1276.4	regulate	Run3	regulate/STIM_011.jpg	99
2128.245	1.083	1082.6	regulate	Run3	regulate/STIM_011.jpg	99
2132.543	1.496	1496.3	regulate	Run3	regulate/STIM_012.jpg	100
2137.288	1.917	1916.6	regulate	Run3	regulate/STIM_012.jpg	99
2142.757	1.182	1181.9	regulate	Run3	regulate/STIM_012.jpg	99
2147.271	2.04	2039.9	regulate	Run3	regulate/STIM_012.jpg	99
2151.995	1.247	1246.7	regulate	Run3	regulate/STIM_013.jpg	100
2155.992	1.712	1712.0	regulate	Run3	regulate/STIM_013.jpg	99
2160.784	1.81	1809.5	regulate	Run3	regulate/STIM_013.jpg	99
2165.039	2.131	2131.2	regulate	Run3	regulate/STIM_013.jpg	100
2169.865	1.701	1701.3	regulate	Run3	regulate/STIM_014.jpg	99
2174.858	1.838	1838.3	regulate	Run3	regulate/STIM_014.jpg	99
2179.471	1.752	1751.9	regulate	Run3	regulate/STIM_014.jpg	100
2184.955	1.556	1556.1	regulate	Run3	regulate/STIM_014.jpg	99
2190.489	2.122	2121.5	regulate	Run3	regulate/STIM_015.jpg	99
2195.193	2.144	2144.5	regulate	Run3	regulate/STIM_015.jpg	99
2200.557	1.647	1646.7	regulate	Run3	regulate/STIM_015.jpg	99
2206.112	1.678	1678.1	regulate	Run3	regulate/STIM_015.jpg	100
2210.737	1.519	1518.9	regulate	Run3	regulate/STIM_016.jpg	100
2215.637	1.997	1996.8	regulate	Run3	regulate/STIM_016.jpg	99
2220.577	2.103	2102.8	regulate	Run3	regulate/STIM_016.jpg	99
2225.77	2.128	2127.7	regulate	Run3	regulate/STIM_016.jpg	100
2230.821	1.05	1049.8	regulate	Run3	regulate/STIM_017.jpg	100
2235.199	2.214	2214.3	regulate	Run3	regulate/STIM_017.jpg	100
2239.807	2.083	2083.4	regulate	Run3	regulate/STIM_017.jpg	99
2244.364	1.208	1208.5	regulate	Run3	regulate/STIM_017.jpg	100
2249.575	1.053	1053.4	regulate	Run3	regulate/STIM_018.jpg	100
2252.834	2.0	1999.7	regulate	Run3	regulate/STIM_018.jpg	99
2258.89	2.079	2078.7	regulate	Run3	regulate/STIM_018.jpg	100
2264.513	2.213	2212.7	regulate	Run3	regulate/STIM_018.jpg	100
2270.022	2.292	2292.2	regulate	Run3	regulate/STIM_019.jpg	99
2276.342	2.001	2001.1	regulate	Run3	regulate/STIM_019.jpg	100
2280.79	1.089	1088.6	regulate	Run3	regulate/STIM_019.jpg	100
2285.032	1.4	1400.1	regulate	Run3	regulate/STIM_019.jpg	99
2289.861	1.564	1563.7	regulate	Run3	regulate/STIM_020.jpg	99
2293.955	1.716	1716.1	regulate	Run3	regulate/STIM_020.jpg	99
2297.872	2.16	2159.8	regulate	Run3	regulate/STIM_020.jpg	99
2303.16	2.227	2227.3	regulate	Run3	regulate/STIM_020.jpg	100
2307.6	1.916	1916.0	regulate	Run3	regulate/STIM_021.jpg	100
2312.637	1.62	1619.6	regulate	Run3	regulate/STIM_021.jpg	100
2316.494	1.855	1855.2	regulate	Run3	regulate/STIM_021.jpg	99
2321.452	1.186	1185.5	regulate	Run3	regulate/STIM_021.jpg	99
2326.077	1.729	1729.3	regulate	Run3	regulate/STIM_022.jpg	100
2330.365	1.397	1396.9	regulate	Run3	regulate/STIM_022.jpg	99
2334.443	1.031	1030.6	regulate	Run3	regulate/STIM_022.jpg	99
2338.885	1.06	1059.7	regulate	Run3	regulate/STIM_022.jpg	100
2343.157	1.475	1475.0	regulate	Run3	regulate/STIM_023.jpg	99
2348.635	1.602	1601.8	regulate	Run3	regulate/STIM_023.jpg	100
2354.24	2.279	2278.9	regulate	Run3	regulate/STIM_023.jpg	100
2358.961	1.711	1711.1	regulate	Run3	regulate/STIM_023.jpg	100
2364.404	1.803	1802.7	regulate	Run3	regulate/STIM_024.jpg	99
2369.298	1.769	1769.3	regulate	Run3	regulate/STIM_024.jpg	100
2373.834	1.738	1737.8	regulate	Run3	regulate/STIM_024.jpg	99
2378.398	1.143	1142.6	regulate	Run3	regulate/STIM_024.jpg	100
2382.645	1.995	1995.2	regulate	Run3	regulate/STIM_025.jpg	100
2386.907	1.414	1413.9	regulate	Run3	regulate/STIM_025.jpg	100
2391.96	1.603	1603.2	regulate	Run3	regulate/STIM_025.jpg	100
2397.012	1.807	1807.2	regulate	Run3	regulate/STIM_025.jpg	100
2401.049	2.064	2063.7	regulate	Run3	regulate/STIM_026.jpg	99
2406.22	1.465	1465.3	regulate	Run3	regulate/STIM_026.jpg	99
2409.896	1.179	1179.3	regulate	Run3	regulate/STIM_026.jpg	100
2413.347	2.044	2043.8	regulate	Run3	regulate/STIM_026.jpg	99
2417.575	1.285	1284.7	regulate	Run3	regulate/STIM_027.jpg	99
2422.49	1.444	1444.2	regulate	Run3	regulate/STIM_027.jpg	99
2426.357	1.085	1085.1	regulate	Run3	regulate/STIM_027.jpg	100
2429.725	1.508	1508.4	regulate	Run3	regulate/STIM_027.jpg	100
2433.669	2.316	2315.5	regulate	Run3	regulate/STIM_028.jpg	99
2439.925	2.04	2040.0	regulate	Run3	regulate/STIM_028.jpg	100
2445.569	1.985	1985.1	regulate	Run3	regulate/STIM_028.jpg	100
2451.035	1.419	1419.4	regulate	Run3	regulate/STIM_028.jpg	100
2455.877	2.09	2089.9	regulate	Run3	regulate/STIM_029.jpg	100
2461.116	2.225	2225.2	regulate	Run3	regulate/STIM_029.jpg	99
2466.488	2.094	2094.3	regulate	Run3	regulate/STIM_029.jpg	99
2472.617	2.301	2300.7	regulate	Run3	regulate/STIM_029.jpg	99
2477.112	1.425	1425.2	observe	Run3	observe/STIM_000.jpg	100
2482.294	1.031	1031.0	observe	Run3	observe/STIM_000.jpg	100
2485.698	0.982	981.5	observe	Run3	observe/STIM_000.jpg	100
2489.43	0.92	920.1	observe	Run3	observe/STIM_000.jpg	100
2493.339	1.004	1004.1	observe	Run3	observe/STIM_001.jpg	100
2497.404	1.158	1158.3	observe	Run3	observe/STIM_001.jpg	100
2501.698	1.484	1483.8	observe	Run3	observe/STIM_001.jpg	99
2506.795	1.186	1185.6	observe	Run3	observe/STIM_001.jpg	99
2510.268	1.484	1483.8	observe	Run3	observe/STIM_002.jpg	100
2514.544	0.986	986.0	observe	Run3	observe/STIM_002.jpg	99
2518.619	0.948	948.3	observe	Run3	observe/STIM_002.jpg	100
2522.077	1.307	1306.9	observe	Run3	observe/STIM_002.jpg	99
2525.966	0.866	865.9	observe	Run3	observe/STIM_003.jpg	99
2528.951	1.334	1334.5	observe	Run3	observe/STIM_003.jpg	99
2534.097	1.109	1108.8	observe	Run3	observe/STIM_003.jpg	99
2538.071	0.817	817.4	observe	Run3	observe/STIM_003.jpg	100
2542.804	1.151	1150.9	observe	Run3	observe/STIM_004.jpg	99
2546.938	1.138	1138.5	observe	Run3	observe/STIM_004.jpg	100
2551.909	1.013	1013.4	observe	Run3	observe/STIM_004.jpg	99
2556.524	1.36	1360.0	observe	Run3	observe/STIM_004.jpg	99
2561.541	0.801	801.0	observe	Run3	observe/STIM_005.jpg	99
2564.545	1.182	1182.4	observe	Run3	observe/STIM_005.jpg	99
2568.308	0.842	841.7	observe	Run3	observe/STIM_005.jpg	99
2573.107	0.822	822.4	observe	Run3	observe/STIM_005.jpg	100
2576.895	1.078	1077.8	observe	Run3	observe/STIM_006.jpg	100
2580.955	1.103	1102.6	observe	Run3	observe/STIM_006.jpg	100
2586.058	0.786	786.1	observe	Run3	observe/STIM_006.jpg	99
2589.396	0.812	812.4	observe	Run3	observe/STIM_006.jpg	99
2592.615	1.163	1163.1	observe	Run3	observe/STIM_007.jpg	100
2597.761	0.83	829.6	observe	Run3	observe/STIM_007.jpg	99
2601.99	1.13	1129.6	observe	Run3	observe/STIM_007.jpg	99
2605.768	0.869	869.0	observe	Run3	observe/STIM_007.jpg	100
2609.122	1.516	1516.2	observe	Run3	observe/STIM_008.jpg	99
2614.103	1.044	1043.5	observe	Run3	observe/STIM_008.jpg	99
2617.661	1.366	1365.7	observe	Run3	observe/STIM_008.jpg	99
2621.206	1.488	1488.4	observe	Run3	observe/STIM_008.jpg	100
2625.803	1.474	1474.4	observe	Run3	observe/STIM_009.jpg	100
2631.043	0.9	900.0	observe	Run3	observe/STIM_009.jpg	99
2635.957	1.485	1485.4	observe	Run3	observe/STIM_009.jpg	99
2640.978	1.49	1490.5	observe	Run3	observe/STIM_009.jpg	100
2644.647	1.341	1340.9	observe	Run3	observe/STIM_010.jpg	100
2648.532	1.02	1020.2	observe	Run3	observe/STIM_010.jpg	99
2651.971	1.25	1249.9	observe	Run3	observe/STIM_010.jpg	100
2656.619	1.501	1500.9	observe	Run3	observe/STIM_010.jpg	100
2660.604	1.278	1277.8	observe	Run3	observe/STIM_011.jpg	100
2665.721	1.291	1291.4	observe	Run3	observe/STIM_011.jpg	100
2670.745	1.347	1347.3	observe	Run3	observe/STIM_011.jpg	100
2675.83	1.442	1442.2	observe	Run3	observe/STIM_011.jpg	100
2679.783	0.89	889.9	observe	Run3	observe/STIM_012.jpg	99
2683.049	0.766	765.8	observe	Run3	observe/STIM_012.jpg	99
2687.305	1.044	1044.3	observe	Run3	observe/STIM_012.jpg	99
2692.326	1.026	1025.6	observe	Run3	observe/STIM_012.jpg	99
2695.963	1.099	1099.4	observe	Run3	observe/STIM_013.jpg	99
2701.075	1.097	1096.8	observe	Run3	observe/STIM_013.jpg	100
2705.363	1.241	1241.3	observe	Run3	observe/STIM_013.jpg	99
2709.461	1.291	1290.6	observe	Run3	observe/STIM_013.jpg	99
2712.951	1.292	1292.4	observe	Run3	observe/STIM_014.jpg	100
2718.258	1.381	1380.8	observe	Run3	observe/STIM_014.jpg	100
2721.76	1.427	1427.4	observe	Run3	observe/STIM_014.jpg	99
2726.189	0.984	984.0	observe	Run3	observe/STIM_014.jpg	100
2731.213	1.077	1076.8	observe	Run3	observe/STIM_015.jpg	99
2735.209	1.336	1335.8	observe	Run3	observe/STIM_015.jpg	99
2740.489	1.479	1479.3	observe	Run3	observe/STIM_015.jpg	99
2744.092	1.117	1116.7	observe	Run3	observe/STIM_015.jpg	99
2748.986	0.965	964.7	observe	Run3	observe/STIM_016.jpg	99
2753.198	0.782	782.3	observe	Run3	observe/STIM_016.jpg	99
2757.192	0.994	993.6	observe	Run3	observe/STIM_016.jpg	100
2761.939	1.298	1297.7	observe	Run3	observe/STIM_016.jpg	99
2765.672	1.09	1090.4	observe	Run3	observe/STIM_017.jpg	99
2769.232	1.266	1265.7	observe	Run3	observe/STIM_017.jpg	99
2773.644	1.404	1404.3	observe	Run3	observe/STIM_017.jpg	100
2777.629	1.321	1321.0	observe	Run3	observe/STIM_017.jpg	99
2781.069	1.443	1443.2	observe	Run3	observe/STIM_018.jpg	100
2785.447	0.973	973.3	observe	Run3	observe/STIM_018.jpg	99
2789.635	1.209	1208.8	observe	Run3	observe/STIM_018.jpg	100
2793.994	1.521	1521.0	observe	Run3	observe/STIM_018.jpg	99
2797.768	1.341	1341.0	observe	Run3	observe/STIM_019.jpg	100
2802.348	0.841	840.8	observe	Run3	observe/STIM_019.jpg	99
2805.937	0.871	870.8	observe	Run3	observe/STIM_019.jpg	100
2810.345	1.363	1362.9	observe	Run3	observe/STIM_019.jpg	99
