onset	duration	response_time_ms	trial_type	learning_stage	stimulus	response_port
0.0	3.239	3238.8	regulate	Run1	regulate/STIM_000.jpg	99
5.65	2.587	2587.1	regulate	Run1	regulate/STIM_000.jpg	99
10.346	2.165	2164.6	regulate	Run1	regulate/STIM_000.jpg	100
15.462	1.818	1818.4	regulate	Run1	regulate/STIM_000.jpg	100
20.154	2.242	2242.3	regulate	Run1	regulate/STIM_001.jpg	99
24.743	1.902	1902.1	regulate	Run1	regulate/STIM_001.jpg	100
29.48	2.159	2158.9	regulate	Run1	regulate/STIM_001.jpg	100
34.058	1.582	1581.9	regulate	Run1	regulate/STIM_001.jpg	99
39.174	3.038	3037.5	regulate	Run1	regulate/STIM_002.jpg	100
45.815	2.821	2821.3	regulate	Run1	regulate/STIM_002.jpg	99
52.271	1.652	1651.9	regulate	Run1	regulate/STIM_002.jpg	99
56.345	2.128	2128.5	regulate	Run1	regulate/STIM_002.jpg	100
61.337	2.339	2338.6	regulate	Run1	regulate/STIM_003.jpg	99
66.624	2.289	2288.9	regulate	Run1	regulate/STIM_003.jpg	99
72.389	2.765	2765.3	regulate	Run1	regulate/STIM_003.jpg	99
78.732	2.349	2348.8	regulate	Run1	regulate/STIM_003.jpg	100
83.967	1.787	1787.3	regulate	Run1	regulate/STIM_004.jpg	100
89.145	2.173	2173.0	regulate	Run1	regulate/STIM_004.jpg	99
95.301	2.586	2586.3	regulate	Run1	regulate/STIM_004.jpg	100
101.509	2.693	2692.8	regulate	Run1	regulate/STIM_004.jpg	99
106.66	3.038	3038.2	regulate	Run1	regulate/STIM_005.jpg	99
111.913	2.604	2603.7	regulate	Run1	regulate/STIM_005.jpg	100
117.813	1.374	1373.7	regulate	Run1	regulate/STIM_005.jpg	100
121.63	2.122	2122.3	regulate	Run1	regulate/STIM_005.jpg	99
125.885	1.759	1759.4	regulate	Run1	regulate/STIM_006.jpg	99
131.377	1.526	1525.9	regulate	Run1	regulate/STIM_006.jpg	100
135.695	2.126	2126.4	regulate	Run1	regulate/STIM_006.jpg	99
140.66	2.496	2496.4	regulate	Run1	regulate/STIM_006.jpg	99
145.803	2.267	2266.8	regulate	Run1	regulate/STIM_007.jpg	100
152.022	2.37	2370.0	regulate	Run1	regulate/STIM_007.jpg	100
157.279	2.148	2148.0	regulate	Run1	regulate/STIM_007.jpg	99
161.546	2.087	2086.9	regulate	Run1	regulate/STIM_007.jpg	100
167.077	1.801	1801.1	regulate	Run1	regulate/STIM_008.jpg	99
172.574	2.628	2628.4	regulate	Run1	regulate/STIM_008.jpg	100
178.884	1.789	1788.8	regulate	Run1	regulate/STIM_008.jpg	100
184.115	2.29	2289.7	regulate	Run1	regulate/STIM_008.jpg	100
189.683	3.098	3098.1	regulate	Run1	regulate/STIM_009.jpg	100
194.795	1.405	1404.8	regulate	Run1	regulate/STIM_009.jpg	99
199.329	2.675	2674.6	regulate	Run1	regulate/STIM_009.jpg	99
205.256	1.208	1207.8	regulate	Run1	regulate/STIM_009.jpg	100
209.361	3.158	3158.3	regulate	Run1	regulate/STIM_010.jpg	99
215.186	2.934	2933.6	regulate	Run1	regulate/STIM_010.jpg	100
220.655	1.611	1611.4	regulate	Run1	regulate/STIM_010.jpg	100
225.838	2.65	2650.4	regulate	Run1	regulate/STIM_010.jpg	99
230.559	1.568	1567.9	regulate	Run1	regulate/STIM_011.jpg	100
236.063	2.346	2345.8	regulate	Run1	regulate/STIM_011.jpg	99
241.715	1.694	1694.3	regulate	Run1	regulate/STIM_011.jpg	99
247.328	2.141	2141.0	regulate	Run1	regulate/STIM_011.jpg	99
253.167	2.298	2297.9	regulate	Run1	regulate/STIM_012.jpg	100
258.137	1.867	1867.0	regulate	Run1	regulate/STIM_012.jpg	99
262.692	1.802	1801.7	regulate	Run1	regulate/STIM_012.jpg	100
266.745	2.273	2273.4	regulate	Run1	regulate/STIM_012.jpg	99
271.228	1.85	1850.2	regulate	Run1	regulate/STIM_013.jpg	100
276.633	1.364	1364.5	regulate	Run1	regulate/STIM_013.jpg	99
280.634	1.627	1626.7	regulate	Run1	regulate/STIM_013.jpg	100
285.698	2.699	2698.9	regulate	Run1	regulate/STIM_013.jpg	100
290.768	2.912	2911.6	regulate	Run1	regulate/STIM_014.jpg	99
296.601	2.94	2939.6	regulate	Run1	regulate/STIM_014.jpg	99
302.892	1.948	1947.5	regulate	Run1	regulate/STIM_014.jpg	99
307.011	1.352	1352.2	regulate	Run1	regulate/STIM_014.jpg	99
310.997	1.843	1842.8	regulate	Run1	regulate/STIM_015.jpg	99
315.611	1.998	1998.0	regulate	Run1	regulate/STIM_015.jpg	100
320.233	1.59	1590.4	regulate	Run1	regulate/STIM_015.jpg	100
325.394	2.002	2001.7	regulate	Run1	regulate/STIM_015.jpg	99
329.488	2.362	2362.2	regulate	Run1	regulate/STIM_016.jpg	99
335.613	1.677	1676.8	regulate	Run1	regulate/STIM_016.jpg	99
339.648	1.611	1611.4	regulate	Run1	regulate/STIM_016.jpg	100
343.408	2.519	2518.9	regulate	Run1	regulate/STIM_016.jpg	99
349.212	3.009	3008.6	regulate	Run1	regulate/STIM_017.jpg	99
355.086	2.637	2636.9	regulate	Run1	regulate/STIM_017.jpg	100
360.351	2.678	2678.0	regulate	Run1	regulate/STIM_017.jpg	100
365.295	2.613	2613.4	regulate	Run1	regulate/STIM_017.jpg	99
371.183	3.014	3014.4	regulate	Run1	regulate/STIM_018.jpg	99
377.011	1.451	1451.0	regulate	Run1	regulate/STIM_018.jpg	99
380.78	2.745	2744.9	regulate	Run1	regulate/STIM_018.jpg	99
385.591	1.474	1473.6	regulate	Run1	regulate/STIM_018.jpg	100
390.068	2.332	2331.5	regulate	Run1	regulate/STIM_019.jpg	100
396.295	2.926	2925.5	regulate	Run1	regulate/STIM_019.jpg	99
402.133	2.502	2502.3	regulate	Run1	regulate/STIM_019.jpg	99
408.509	2.556	2555.7	regulate	Run1	regulate/STIM_019.jpg	99
414.336	2.809	2809.2	regulate	Run1	regulate/STIM_020.jpg	100
420.931	2.995	2994.9	regulate	Run1	regulate/STIM_020.jpg	100
427.385	1.383	1382.9	regulate	Run1	regulate/STIM_020.jpg	100
432.355	1.913	1913.2	regulate	Run1	regulate/STIM_020.jpg	99
437.874	2.502	2502.3	regulate	Run1	regulate/STIM_021.jpg	100
444.034	2.408	2407.7	regulate	Run1	regulate/STIM_021.jpg	99
448.448	2.193	2192.9	regulate	Run1	regulate/STIM_021.jpg	99
453.003	2.219	2219.3	regulate	Run1	regulate/STIM_021.jpg	99
459.132	1.937	1936.7	regulate	Run1	regulate/STIM_022.jpg	100
463.729	1.563	1563.4	regulate	Run1	regulate/STIM_022.jpg	99
467.446	2.128	2128.0	regulate	Run1	regulate/STIM_022.jpg	100
472.15	1.216	1216.3	regulate	Run1	regulate/STIM_022.jpg	100
476.297	1.801	1801.0	regulate	Run1	regulate/STIM_023.jpg	99
482.097	2.027	2026.9	regulate	Run1	regulate/STIM_023.jpg	100
486.46	2.764	2764.1	regulate	Run1	regulate/STIM_023.jpg	100
492.003	1.256	1256.4	regulate	Run1	regulate/STIM_023.jpg	99
495.863	2.736	2735.5	regulate	Run1	regulate/STIM_024.jpg	100
501.411	1.742	1742.5	regulate	Run1	regulate/STIM_024.jpg	99
506.195	2.442	2441.7	regulate	Run1	regulate/STIM_024.jpg	99
511.512	1.478	1478.4	regulate	Run1	regulate/STIM_024.jpg	100
516.895	1.717	1717.3	regulate	Run1	regulate/STIM_025.jpg	99
522.558	2.727	2726.8	regulate	Run1	regulate/STIM_025.jpg	99
529.043	2.461	2460.6	regulate	Run1	regulate/STIM_025.jpg	100
533.886	2.477	2477.3	regulate	Run1	regulate/STIM_025.jpg	99
538.971	3.021	3021.0	regulate	Run1	regulate/STIM_026.jpg	99
544.121	2.545	2545.3	regulate	Run1	regulate/STIM_026.jpg	100
549.218	2.238	2238.4	regulate	Run1	regulate/STIM_026.jpg	100
553.779	1.222	1222.2	regulate	Run1	regulate/STIM_026.jpg	99
557.393	2.009	2009.2	regulate	Run1	regulate/STIM_027.jpg	99
563.093	1.905	1904.9	regulate	Run1	regulate/STIM_027.jpg	100
567.283	2.774	2773.5	regulate	Run1	regulate/STIM_027.jpg	100
572.84	2.412	2412.4	regulate	Run1	regulate/STIM_027.jpg	99
578.95	2.273	2273.0	regulate	Run1	regulate/STIM_028.jpg	100
584.193	1.71	1710.0	regulate	Run1	regulate/STIM_028.jpg	99
588.667	2.12	2119.5	regulate	Run1	regulate/STIM_028.jpg	99
592.987	1.917	1916.8	regulate	Run1	regulate/STIM_028.jpg	99
598.727	2.843	2843.4	regulate	Run1	regulate/STIM_029.jpg	99
603.92	1.422	1422.4	regulate	Run1	regulate/STIM_029.jpg	99
608.74	1.406	1406.1	regulate	Run1	regulate/STIM_029.jpg	100
612.843	2.312	2312.0	regulate	Run1	regulate/STIM_029.jpg	100
618.021	0.768	768.5	observe	Run1	observe/STIM_000.jpg	99
622.357	1.235	1234.9	observe	Run1	observe/STIM_000.jpg	100
626.796	1.206	1206.3	observe	Run1	observe/STIM_000.jpg	99
630.37	1.265	1264.8	observe	Run1	observe/STIM_000.jpg	99
633.971	0.903	902.9	observe	Run1	observe/STIM_001.jpg	99
638.222	1.23	1229.9	observe	Run1	observe/STIM_001.jpg	100
641.773	1.143	1143.3	observe	Run1	observe/STIM_001.jpg	99
646.624	1.097	1096.9	observe	Run1	observe/STIM_001.jpg	100
650.8	1.465	1464.7	observe	Run1	observe/STIM_002.jpg	100
655.748	1.359	1358.8	observe	Run1	observe/STIM_002.jpg	100
660.912	1.152	1152.0	observe	Run1	observe/STIM_002.jpg	100
665.617	1.437	1436.6	observe	Run1	observe/STIM_002.jpg	99
670.951	1.478	1477.6	observe	Run1	observe/STIM_003.jpg	100
674.438	0.804	803.8	observe	Run1	observe/STIM_003.jpg	100
678.729	1.15	1149.6	observe	Run1	observe/STIM_003.jpg	100
683.393	0.893	893.2	observe	Run1	observe/STIM_003.jpg	99
686.728	0.794	794.2	observe	Run1	observe/STIM_004.jpg	100
691.423	1.433	1432.8	observe	Run1	observe/STIM_004.jpg	100
696.656	1.008	1007.9	observe	Run1	observe/STIM_004.jpg	100
700.448	1.178	1178.3	observe	Run1	observe/STIM_004.jpg	99
704.693	0.84	840.2	observe	Run1	observe/STIM_005.jpg	100
709.519	1.468	1468.4	observe	Run1	observe/STIM_005.jpg	100
714.457	1.053	1053.4	observe	Run1	observe/STIM_005.jpg	100
719.366	1.171	1170.7	observe	Run1	observe/STIM_005.jpg	99
723.852	1.071	1070.8	observe	Run1	observe/STIM_006.jpg	99
727.207	1.218	1218.3	observe	Run1	observe/STIM_006.jpg	100
731.491	1.189	1188.7	observe	Run1	observe/STIM_006.jpg	100
736.244	0.963	963.4	observe	Run1	observe/STIM_006.jpg	99
740.722	0.763	762.6	observe	Run1	observe/STIM_007.jpg	99
743.973	0.761	760.9	observe	Run1	observe/STIM_007.jpg	100
747.491	1.012	1012.2	observe	Run1	observe/STIM_007.jpg	99
752.193	1.283	1283.2	observe	Run1	observe/STIM_007.jpg	100
756.322	1.318	1317.7	observe	Run1	observe/STIM_008.jpg	100
760.051	0.984	983.6	observe	Run1	observe/STIM_008.jpg	99
763.609	0.932	931.9	observe	Run1	observe/STIM_008.jpg	99
766.754	1.093	1093.2	observe	Run1	observe/STIM_008.jpg	99
771.591	1.266	1265.7	observe	Run1	observe/STIM_009.jpg	99
776.342	1.201	1200.9	observe	Run1	observe/STIM_009.jpg	99
780.627	1.052	1052.5	observe	Run1	observe/STIM_009.jpg	100
785.454	0.803	802.7	observe	Run1	observe/STIM_009.jpg	99
789.509	0.768	768.1	observe	Run1	observe/STIM_010.jpg	99
793.071	1.428	1428.3	observe	Run1	observe/STIM_010.jpg	99
797.354	1.48	1479.9	observe	Run1	observe/STIM_010.jpg	100
802.692	1.03	1030.2	observe	Run1	observe/STIM_010.jpg	100
806.175	1.293	1293.2	observe	Run1	observe/STIM_011.jpg	99
810.41	0.939	939.1	observe	Run1	observe/STIM_011.jpg	100
815.108	1.148	1147.5	observe	Run1	observe/STIM_011.jpg	100
819.345	0.969	969.3	observe	Run1	observe/STIM_011.jpg	99
824.312	0.935	935.4	observe	Run1	observe/STIM_012.jpg	99
828.288	0.773	773.1	observe	Run1	observe/STIM_012.jpg	100
831.89	1.207	1206.7	observe	Run1	observe/STIM_012.jpg	100
836.471	0.876	876.4	observe	Run1	observe/STIM_012.jpg	99
839.495	1.187	1186.6	observe	Run1	observe/STIM_013.jpg	100
844.281	1.151	1150.7	observe	Run1	observe/STIM_013.jpg	99
847.994	1.337	1336.9	observe	Run1	observe/STIM_013.jpg	100
851.716	1.36	1359.6	observe	Run1	observe/STIM_013.jpg	100
856.059	1.079	1078.8	observe	Run1	observe/STIM_014.jpg	99
859.791	0.76	760.3	observe	Run1	observe/STIM_014.jpg	99
863.663	1.354	1354.1	observe	Run1	observe/STIM_014.jpg	100
867.902	0.994	994.4	observe	Run1	observe/STIM_014.jpg	100
872.606	1.405	1404.7	observe	Run1	observe/STIM_015.jpg	99
877.534	1.124	1123.8	observe	Run1	observe/STIM_015.jpg	99
882.054	0.859	859.3	observe	Run1	observe/STIM_015.jpg	100
885.373	0.847	846.7	observe	Run1	observe/STIM_015.jpg	99
888.858	1.283	1282.6	observe	Run1	observe/STIM_016.jpg	100
892.606	0.928	927.7	observe	Run1	observe/STIM_016.jpg	99
896.749	1.074	1074.1	observe	Run1	observe/STIM_016.jpg	100
901.505	0.762	762.3	observe	Run1	observe/STIM_016.jpg	99
905.068	1.39	1390.4	observe	Run1	observe/STIM_017.jpg	100
909.151	1.099	1099.3	observe	Run1	observe/STIM_017.jpg	99
913.382	1.107	1107.2	observe	Run1	observe/STIM_017.jpg	100
917.187	1.504	1504.1	observe	Run1	observe/STIM_017.jpg	99
922.519	1.399	1398.6	observe	Run1	observe/STIM_018.jpg	99
927.074	1.18	1179.9	observe	Run1	observe/STIM_018.jpg	99
931.664	1.04	1039.5	observe	Run1	observe/STIM_018.jpg	99
935.263	1.166	1165.8	observe	Run1	observe/STIM_018.jpg	99
939.042	1.317	1316.7	observe	Run1	observe/STIM_019.jpg	100
942.858	0.958	958.1	observe	Run1	observe/STIM_019.jpg	100
946.124	1.202	1202.1	observe	Run1	observe/STIM_019.jpg	99
951.231	1.159	1158.9	observe	Run1	observe/STIM_019.jpg	99
955.774	1.614	1613.8	regulate	Run2	regulate/STIM_000.jpg	100
959.725	1.876	1875.7	regulate	Run2	regulate/STIM_000.jpg	99
964.767	2.022	2022.4	regulate	Run2	regulate/STIM_000.jpg	100
970.468	1.013	1013.1	regulate	Run2	regulate/STIM_000.jpg	100
974.632	2.639	2638.9	regulate	Run2	regulate/STIM_001.jpg	100
980.158	2.156	2155.6	regulate	Run2	regulate/STIM_001.jpg	100
985.381	2.397	2397.3	regulate	Run2	regulate/STIM_001.jpg	100
990.651	2.12	2119.6	regulate	Run2	regulate/STIM_001.jpg	99
996.758	2.637	2637.0	regulate	Run2	regulate/STIM_002.jpg	100
1002.238	2.182	2181.5	regulate	Run2	regulate/STIM_002.jpg	99
1007.948	1.519	1518.7	regulate	Run2	regulate/STIM_002.jpg	100
1011.906	2.272	2271.8	regulate	Run2	regulate/STIM_002.jpg	100
1017.587	1.853	1853.0	regulate	Run2	regulate/STIM_003.jpg	99
1021.924	2.419	2418.6	regulate	Run2	regulate/STIM_003.jpg	100
1026.67	2.425	2425.1	regulate	Run2	regulate/STIM_003.jpg	99
1032.407	2.192	2191.5	regulate	Run2	regulate/STIM_003.jpg	100
1036.807	1.754	1754.2	regulate	Run2	regulate/STIM_004.jpg	99
1041.391	2.064	2064.4	regulate	Run2	regulate/STIM_004.jpg	100
1045.931	2.259	2259.3	regulate	Run2	regulate/STIM_004.jpg	99
1050.585	2.052	2052.5	regulate	Run2	regulate/STIM_004.jpg	100
1054.65	1.941	1941.1	regulate	Run2	regulate/STIM_005.jpg	99
1059.683	1.326	1326.5	regulate	Run2	regulate/STIM_005.jpg	99
1064.303	1.23	1230.3	regulate	Run2	regulate/STIM_005.jpg	99
1068.963	1.825	1824.8	regulate	Run2	regulate/STIM_005.jpg	99
1073.833	1.937	1937.1	regulate	Run2	regulate/STIM_006.jpg	100
1078.71	2.269	2269.2	regulate	Run2	regulate/STIM_006.jpg	100
1083.123	1.823	1823.0	regulate	Run2	regulate/STIM_006.jpg	99
1088.888	1.426	1425.8	regulate	Run2	regulate/STIM_006.jpg	100
1093.946	1.963	1963.4	regulate	Run2	regulate/STIM_007.jpg	100
1098.756	2.506	2506.0	regulate	Run2	regulate/STIM_007.jpg	99
1103.494	2.079	2079.3	regulate	Run2	regulate/STIM_007.jpg	100
1108.246	2.203	2203.1	regulate	Run2	regulate/STIM_007.jpg	99
1114.011	1.721	1721.0	regulate	Run2	regulate/STIM_008.jpg	100
1118.37	2.336	2336.5	regulate	Run2	regulate/STIM_008.jpg	100
1123.182	1.957	1956.7	regulate	Run2	regulate/STIM_008.jpg	100
1128.638	1.158	1157.6	regulate	Run2	regulate/STIM_008.jpg	99
1131.994	1.248	1248.1	regulate	Run2	regulate/STIM_009.jpg	100
1136.543	2.524	2523.5	regulate	Run2	regulate/STIM_009.jpg	100
1142.754	1.179	1179.2	regulate	Run2	regulate/STIM_009.jpg	99
1147.84	2.276	2275.8	regulate	Run2	regulate/STIM_009.jpg	100
1153.994	1.386	1386.2	regulate	Run2	regulate/STIM_010.jpg	100
1158.074	2.056	2055.8	regulate	Run2	regulate/STIM_010.jpg	99
1162.22	1.56	1559.9	regulate	Run2	regulate/STIM_010.jpg	99
1167.017	1.942	1942.1	regulate	Run2	regulate/STIM_010.jpg	100
1172.57	2.595	2594.6	regulate	Run2	regulate/STIM_011.jpg	100
1178.788	1.36	1360.0	regulate	Run2	regulate/STIM_011.jpg	99
1182.242	1.33	1330.4	regulate	Run2	regulate/STIM_011.jpg	100
1187.563	1.989	1989.3	regulate	Run2	regulate/STIM_011.jpg	100
1192.733	1.946	1946.1	regulate	Run2	regulate/STIM_012.jpg	100
1197.247	2.087	2086.6	regulate	Run2	regulate/STIM_012.jpg	99
1201.608	2.081	2080.6	regulate	Run2	regulate/STIM_012.jpg	99
1207.237	1.304	1304.4	regulate	Run2	regulate/STIM_012.jpg	99
1211.644	2.488	2487.8	regulate	Run2	regulate/STIM_013.jpg	99
1217.887	1.924	1924.0	regulate	Run2	regulate/STIM_013.jpg	100
1222.3	1.966	1965.9	regulate	Run2	regulate/STIM_013.jpg	100
1226.684	1.304	1303.8	regulate	Run2	regulate/STIM_013.jpg	99
1231.427	2.053	2053.2	regulate	Run2	regulate/STIM_014.jpg	99
1236.459	2.611	2610.7	regulate	Run2	regulate/STIM_014.jpg	100
1241.792	1.277	1276.9	regulate	Run2	regulate/STIM_014.jpg	99
1246.647	2.295	2294.6	regulate	Run2	regulate/STIM_014.jpg	99
1251.36	1.303	1303.2	regulate	Run2	regulate/STIM_015.jpg	100
1255.341	1.453	1452.8	regulate	Run2	regulate/STIM_015.jpg	99
1259.626	1.458	1458.0	regulate	Run2	regulate/STIM_015.jpg	100
1264.672	1.404	1403.6	regulate	Run2	regulate/STIM_015.jpg	100
1269.114	1.322	1322.2	regulate	Run2	regulate/STIM_016.jpg	99
1272.872	2.159	2158.9	regulate	Run2	regulate/STIM_016.jpg	100
1277.492	1.507	1507.4	regulate	Run2	regulate/STIM_016.jpg	100
1281.585	2.14	2140.4	regulate	Run2	regulate/STIM_016.jpg	100
1286.966	2.235	2235.2	regulate	Run2	regulate/STIM_017.jpg	99
1292.226	1.302	1301.9	regulate	Run2	regulate/STIM_017.jpg	99
1295.535	1.371	1371.0	regulate	Run2	regulate/STIM_017.jpg	99
1299.694	1.626	1626.4	regulate	Run2	regulate/STIM_017.jpg	100
1304.648	1.651	1651.4	regulate	Run2	regulate/STIM_018.jpg	99
1308.867	2.574	2573.8	regulate	Run2	regulate/STIM_018.jpg	100
1314.367	1.651	1650.6	regulate	Run2	regulate/STIM_018.jpg	99
1319.974	2.129	2129.1	regulate	Run2	regulate/STIM_018.jpg	100
1324.231	1.251	1250.9	regulate	Run2	regulate/STIM_019.jpg	100
1327.627	1.532	1531.7	regulate	Run2	regulate/STIM_019.jpg	99
1332.292	2.258	2258.1	regulate	Run2	regulate/STIM_019.jpg	100
1336.62	1.923	1923.2	regulate	Run2	regulate/STIM_019.jpg	100
1341.521	1.999	1999.0	regulate	Run2	regulate/STIM_020.jpg	99
1345.896	1.422	1422.0	regulate	Run2	regulate/STIM_020.jpg	100
1349.447	1.768	1768.3	regulate	Run2	regulate/STIM_020.jpg	99
1353.488	1.996	1995.6	regulate	Run2	regulate/STIM_020.jpg	100
1359.083	2.787	2786.7	regulate	Run2	regulate/STIM_021.jpg	99
1364.453	1.349	1349.2	regulate	Run2	regulate/STIM_021.jpg	100
1369.395	2.443	2443.0	regulate	Run2	regulate/STIM_021.jpg	100
1374.734	2.064	2063.8	regulate	Run2	regulate/STIM_021.jpg	100
1379.524	2.708	2707.7	regulate	Run2	regulate/STIM_022.jpg	100
1384.482	1.206	1205.8	regulate	Run2	regulate/STIM_022.jpg	100
1388.165	2.211	2211.0	regulate	Run2	regulate/STIM_022.jpg	100
1392.488	1.298	1298.5	regulate	Run2	regulate/STIM_022.jpg	100
1397.39	1.473	1473.2	regulate	Run2	regulate/STIM_023.jpg	99
1401.255	1.534	1534.1	regulate	Run2	regulate/STIM_023.jpg	100
1405.917	1.964	1963.6	regulate	Run2	regulate/STIM_023.jpg	99
1411.068	2.055	2055.3	regulate	Run2	regulate/STIM_023.jpg	100
1416.826	2.134	2133.7	regulate	Run2	regulate/STIM_024.jpg	99
1422.257	2.594	2593.7	regulate	Run2	regulate/STIM_024.jpg	100
1428.604	1.239	1238.7	regulate	Run2	regulate/STIM_024.jpg	99
1432.679	1.606	1606.2	regulate	Run2	regulate/STIM_024.jpg	99
1437.385	1.663	1663.0	regulate	Run2	regulate/STIM_025.jpg	100
1442.526	1.972	1972.2	regulate	Run2	regulate/STIM_025.jpg	99
1446.724	2.436	2436.4	regulate	Run2	regulate/STIM_025.jpg	99
1451.814	1.106	1106.4	regulate	Run2	regulate/STIM_025.jpg	99
1456.677	1.454	1454.1	regulate	Run2	regulate/STIM_026.jpg	100
1461.939	1.238	1237.8	regulate	Run2	regulate/STIM_026.jpg	100
1465.982	1.623	1622.8	regulate	Run2	regulate/STIM_026.jpg	99
1470.512	1.213	1212.6	regulate	Run2	regulate/STIM_026.jpg	100
1474.944	2.75	2750.5	regulate	Run2	regulate/STIM_027.jpg	99
1480.679	1.844	1843.6	regulate	Run2	regulate/STIM_027.jpg	99
1485.775	2.038	2037.6	regulate	Run2	regulate/STIM_027.jpg	99
1491.489	1.531	1531.4	regulate	Run2	regulate/STIM_027.jpg	99
1496.505	2.404	2403.8	regulate	Run2	regulate/STIM_028.jpg	100
1501.887	1.779	1778.6	regulate	Run2	regulate/STIM_028.jpg	100
1505.98	1.821	1820.9	regulate	Run2	regulate/STIM_028.jpg	100
1509.861	2.05	2050.3	regulate	Run2	regulate/STIM_028.jpg	99
1514.737	2.592	2591.5	regulate	Run2	regulate/STIM_029.jpg	100
1519.699	1.838	1837.8	regulate	Run2	regulate/STIM_029.jpg	100
1523.613	1.803	1802.8	regulate	Run2	regulate/STIM_029.jpg	99
1527.574	1.911	1911.2	regulate	Run2	regulate/STIM_029.jpg	99
1532.21	0.988	987.8	observe	Run2	observe/STIM_000.jpg	99
1537.127	1.266	1265.8	observe	Run2	observe/STIM_000.jpg	99
1541.192	0.806	806.4	observe	Run2	observe/STIM_000.jpg	100
1545.306	1.082	1082.2	observe	Run2	observe/STIM_000.jpg	100
1550.068	1.022	1021.9	observe	Run2	observe/STIM_001.jpg	99
1554.275	0.942	942.1	observe	Run2	observe/STIM_001.jpg	100
1558.404	1.217	1217.0	observe	Run2	observe/STIM_001.jpg	99
1562.868	1.147	1146.6	observe	Run2	observe/STIM_001.jpg	99
1567.041	0.988	987.6	observe	Run2	observe/STIM_002.jpg	99
1570.291	0.839	838.9	observe	Run2	observe/STIM_002.jpg	100
1574.659	1.269	1268.7	observe	Run2	observe/STIM_002.jpg	100
1579.504	0.882	882.1	observe	Run2	observe/STIM_002.jpg	100
1582.895	1.461	1461.3	observe	Run2	observe/STIM_003.jpg	99
1586.926	0.795	794.8	observe	Run2	observe/STIM_003.jpg	99
1590.767	1.47	1469.7	observe	Run2	observe/STIM_003.jpg	100
1596.216	1.079	1078.6	observe	Run2	observe/STIM_003.jpg	99
1600.492	0.839	838.8	observe	Run2	observe/STIM_004.jpg	99
1605.052	1.359	1358.9	observe	Run2	observe/STIM_004.jpg	100
1609.579	0.772	771.8	observe	Run2	observe/STIM_004.jpg	100
1613.085	0.915	915.3	observe	Run2	observe/STIM_004.jpg	100
1616.384	1.061	1060.7	observe	Run2	observe/STIM_005.jpg	99
1621.197	1.035	1034.9	observe	Run2	observe/STIM_005.jpg	100
1624.728	1.163	1163.0	observe	Run2	observe/STIM_005.jpg	100
1628.832	1.248	1248.2	observe	Run2	observe/STIM_005.jpg	99
1633.1	0.981	980.7	observe	Run2	observe/STIM_006.jpg	99
1638.009	0.96	960.3	observe	Run2	observe/STIM_006.jpg	100
1642.771	0.938	937.7	observe	Run2	observe/STIM_006.jpg	100
1645.873	1.452	1451.8	observe	Run2	observe/STIM_006.jpg	99
1651.051	0.973	973.0	observe	Run2	observe/STIM_007.jpg	100
1655.666	1.4	1399.8	observe	Run2	observe/STIM_007.jpg	100
1659.654	1.026	1026.3	observe	Run2	observe/STIM_007.jpg	100
1663.295	1.436	1436.0	observe	Run2	observe/STIM_007.jpg	100
1667.525	1.081	1080.8	observe	Run2	observe/STIM_008.jpg	99
1671.261	0.85	849.5	observe	Run2	observe/STIM_008.jpg	100
1674.238	1.068	1068.5	observe	Run2	observe/STIM_008.jpg	100
1678.057	0.985	984.9	observe	Run2	observe/STIM_008.jpg	100
1682.953	1.245	1245.4	observe	Run2	observe/STIM_009.jpg	100
1688.127	1.305	1305.4	observe	Run2	observe/STIM_009.jpg	99
1693.144	1.072	1072.0	observe	Run2	observe/STIM_009.jpg	100
1697.224	1.289	1289.1	observe	Run2	observe/STIM_009.jpg	100
1700.615	1.207	1207.4	observe	Run2	observe/STIM_010.jpg	99
1705.592	0.855	855.1	observe	Run2	observe/STIM_010.jpg	100
1709.463	0.838	837.7	observe	Run2	observe/STIM_010.jpg	100
1712.679	1.19	1190.3	observe	Run2	observe/STIM_010.jpg	99
1716.958	1.378	1377.5	observe	Run2	observe/STIM_011.jpg	99
1722.286	0.93	930.2	observe	Run2	observe/STIM_011.jpg	100
1726.66	1.289	1289.0	observe	Run2	observe/STIM_011.jpg	100
1731.71	0.758	757.5	observe	Run2	observe/STIM_011.jpg	100
1735.901	1.292	1291.6	observe	Run2	observe/STIM_012.jpg	100
1739.608	1.058	1058.5	observe	Run2	observe/STIM_012.jpg	100
1743.478	0.757	756.9	observe	Run2	observe/STIM_012.jpg	99
1746.811	0.763	763.4	observe	Run2	observe/STIM_012.jpg	99
1750.489	1.205	1204.9	observe	Run2	observe/STIM_013.jpg	100
1755.564	1.491	1490.7	observe	Run2	observe/STIM_013.jpg	100
1759.606	1.258	1258.5	observe	Run2	observe/STIM_013.jpg	100
1764.649	0.842	841.7	observe	Run2	observe/STIM_013.jpg	99
1768.026	0.764	763.5	observe	Run2	observe/STIM_014.jpg	99
1771.226	1.415	1415.4	observe	Run2	observe/STIM_014.jpg	99
1775.121	0.882	881.5	observe	Run2	observe/STIM_014.jpg	100
1779.315	1.333	1333.3	observe	Run2	observe/STIM_014.jpg	100
1782.65	0.778	777.5	observe	Run2	observe/STIM_015.jpg	99
1787.247	1.269	1269.3	observe	Run2	observe/STIM_015.jpg	99
1792.225	1.243	1243.3	observe	Run2	observe/STIM_015.jpg	100
1795.856	1.5	1500.1	observe	Run2	observe/STIM_015.jpg	100
1801.042	1.265	1265.4	observe	Run2	observe/STIM_016.jpg	100
1805.808	0.87	869.5	observe	Run2	observe/STIM_016.jpg	100
1810.236	1.02	1020.0	observe	Run2	observe/STIM_016.jpg	100
1813.303	1.488	1487.9	observe	Run2	observe/STIM_016.jpg	99
1818.625	0.954	953.9	observe	Run2	observe/STIM_017.jpg	100
1821.759	1.311	1311.0	observe	Run2	observe/STIM_017.jpg	99
1825.427	1.315	1314.9	observe	Run2	observe/STIM_017.jpg	99
1830.603	0.767	766.8	observe	Run2	observe/STIM_017.jpg	99
1834.808	1.496	1495.8	observe	Run2	observe/STIM_018.jpg	99
1838.732	1.305	1305.3	observe	Run2	observe/STIM_018.jpg	99
1843.353	0.853	852.7	observe	Run2	observe/STIM_018.jpg	99
1848.052	0.79	790.4	observe	Run2	observe/STIM_018.jpg	100
1852.49	0.879	878.6	observe	Run2	observe/STIM_019.jpg	100
1856.444	1.446	1446.3	observe	Run2	observe/STIM_019.jpg	100
1861.739	1.18	1180.4	observe	Run2	observe/STIM_019.jpg	99
1865.1	0.866	865.5	observe	Run2	observe/STIM_019.jpg	99
1868.477	0.998	997.8	regulate	Run3	regulate/STIM_000.jpg	100
1872.793	1.348	1348.5	regulate	Run3	regulate/STIM_000.jpg	99
1877.007	2.188	2187.9	regulate	Run3	regulate/STIM_000.jpg	99
1881.239	1.012	1011.6	regulate	Run3	regulate/STIM_000.jpg	99
1884.576	1.61	1609.8	regulate	Run3	regulate/STIM_001.jpg	99
1888.946	1.704	1703.6	regulate	Run3	regulate/STIM_001.jpg	99
1892.895	1.788	1788.5	regulate	Run3	regulate/STIM_001.jpg	99
1897.967	2.164	2164.3	regulate	Run3	regulate/STIM_001.jpg	99
1902.453	1.109	1108.8	regulate	Run3	regulate/STIM_002.jpg	100
1906.076	1.875	1875.2	regulate	Run3	regulate/STIM_002.jpg	100
1911.414	2.034	2034.5	regulate	Run3	regulate/STIM_002.jpg	100
1916.203	0.989	989.4	regulate	Run3	regulate/STIM_002.jpg	100
1919.732	1.58	1580.4	regulate	Run3	regulate/STIM_003.jpg	100
1925.304	2.182	2181.7	regulate	Run3	regulate/STIM_003.jpg	99
1930.323	2.123	2123.0	regulate	Run3	regulate/STIM_003.jpg	100
1935.519	1.732	1731.8	regulate	Run3	regulate/STIM_003.jpg	99
1939.685	1.967	1967.4	regulate	Run3	regulate/STIM_004.jpg	100
1944.855	2.271	2270.8	regulate	Run3	regulate/STIM_004.jpg	100
1950.193	1.644	1644.3	regulate	Run3	regulate/STIM_004.jpg	99
1953.94	1.215	1214.9	regulate	Run3	regulate/STIM_004.jpg	99
1957.269	1.917	1916.6	regulate	Run3	regulate/STIM_005.jpg	100
1961.447	1.694	1693.5	regulate	Run3	regulate/STIM_005.jpg	100
1965.666	1.091	1091.2	regulate	Run3	regulate/STIM_005.jpg	99
1969.203	2.276	2275.6	regulate	Run3	regulate/STIM_005.jpg	100
1974.153	1.447	1447.4	regulate	Run3	regulate/STIM_006.jpg	99
1977.963	1.75	1749.9	regulate	Run3	regulate/STIM_006.jpg	99
1983.659	1.298	1297.7	regulate	Run3	regulate/STIM_006.jpg	99
1988.713	2.029	2029.3	regulate	Run3	regulate/STIM_006.jpg	100
1994.547	2.027	2027.4	regulate	Run3	regulate/STIM_007.jpg	99
1999.133	1.591	1590.9	regulate	Run3	regulate/STIM_007.jpg	99
2002.925	1.754	1754.0	regulate	Run3	regulate/STIM_007.jpg	99
2008.209	1.68	1679.5	regulate	Run3	regulate/STIM_007.jpg	99
2013.462	1.832	1832.2	regulate	Run3	regulate/STIM_008.jpg	99
2018.753	2.181	2181.0	regulate	Run3	regulate/STIM_008.jpg	100
2024.616	1.839	1838.6	regulate	Run3	regulate/STIM_008.jpg	100
2028.844	1.326	1326.0	regulate	Run3	regulate/STIM_008.jpg	100
2033.197	1.222	1221.7	regulate	Run3	regulate/STIM_009.jpg	100
2037.752	0.992	991.6	regulate	Run3	regulate/STIM_009.jpg	100
2042.298	1.0	1000.2	regulate	Run3	regulate/STIM_009.jpg	100
2045.675	1.986	1986.3	regulate	Run3	regulate/STIM_009.jpg	99
2050.634	1.579	1579.1	regulate	Run3	regulate/STIM_010.jpg	99
2056.076	1.401	1401.4	regulate	Run3	regulate/STIM_010.jpg	100
2060.772	1.168	1167.6	regulate	Run3	regulate/STIM_010.jpg	99
2064.41	1.771	1771.1	regulate	Run3	regulate/STIM_010.jpg	100
2069.042	2.005	2004.6	regulate	Run3	regulate/STIM_011.jpg	100
2073.165	1.661	1660.6	regulate	Run3	regulate/STIM_011.jpg	99
2077.712	1.957	1956.9	regulate	Run3	regulate/STIM_011.jpg	99
2082.811	1.203	1203.4	regulate	Run3	regulate/STIM_011.jpg	99
2087.328	1.666	1665.5	regulate	Run3	regulate/STIM_012.jpg	100
2091.481	1.133	1132.6	regulate	Run3	regulate/STIM_012.jpg	99
2095.649	1.592	1591.6	regulate	Run3	regulate/STIM_012.jpg	99
2101.033	1.607	1606.6	regulate	Run3	regulate/STIM_012.jpg	99
2105.685	1.392	1391.8	regulate	Run3	regulate/STIM_013.jpg	100
2109.376	2.007	2006.9	regulate	Run3	regulate/STIM_013.jpg	99
2114.336	1.103	1102.9	regulate	Run3	regulate/STIM_013.jpg	99
2119.078	1.079	1078.7	regulate	Run3	regulate/STIM_013.jpg	100
2123.88	2.144	2143.7	regulate	Run3	regulate/STIM_014.jpg	99
2128.313	2.06	2059.7	regulate	Run3	regulate/STIM_014.jpg	99
2133.548	1.023	1022.7	regulate	Run3	regulate/STIM_014.jpg	100
2137.08	1.191	1191.4	regulate	Run3	regulate/STIM_014.jpg	99
2141.107	2.088	2087.6	regulate	Run3	regulate/STIM_015.jpg	99
2147.093	2.22	2219.9	regulate	Run3	regulate/STIM_015.jpg	99
2151.754	1.6	1600.5	regulate	Run3	regulate/STIM_015.jpg	99
2155.429	2.163	2162.6	regulate	Run3	regulate/STIM_015.jpg	100
2160.801	1.214	1214.4	regulate	Run3	regulate/STIM_016.jpg	100
2165.715	1.118	1118.2	regulate	Run3	regulate/STIM_016.jpg	99
2169.723	2.206	2206.2	regulate	Run3	regulate/STIM_016.jpg	99
2175.844	1.531	1530.6	regulate	Run3	regulate/STIM_016.jpg	100
2179.433	1.733	1733.4	regulate	Run3	regulate/STIM_017.jpg	100
2185.041	1.077	1077.1	regulate	Run3	regulate/STIM_017.jpg	100
2188.861	1.506	1505.7	regulate	Run3	regulate/STIM_017.jpg	99
2193.405	2.144	2143.8	regulate	Run3	regulate/STIM_017.jpg	100
2198.806	1.188	1188.0	regulate	Run3	regulate/STIM_018.jpg	100
2203.806	1.063	1062.6	regulate	Run3	regulate/STIM_018.jpg	99
2207.916	2.228	2228.0	regulate	Run3	regulate/STIM_018.jpg	100
2213.104	1.857	1856.8	regulate	Run3	regulate/STIM_018.jpg	100
2217.795	1.55	1550.5	regulate	Run3	regulate/STIM_019.jpg	99
2222.886	2.057	2057.4	regulate	Run3	regulate/STIM_019.jpg	100
2228.276	1.209	1209.2	regulate	Run3	regulate/STIM_019.jpg	100
2232.447	2.142	2142.2	regulate	Run3	regulate/STIM_019.jpg	99
2237.875	1.209	1209.0	regulate	Run3	regulate/STIM_020.jpg	99
2241.833	1.048	1047.5	regulate	Run3	regulate/STIM_020.jpg	99
2245.887	1.22	1219.7	regulate	Run3	regulate/STIM_020.jpg	99
2249.194	1.861	1861.0	regulate	Run3	regulate/STIM_020.jpg	100
2254.858	1.825	1825.3	regulate	Run3	regulate/STIM_021.jpg	100
2258.922	2.188	2188.4	regulate	Run3	regulate/STIM_021.jpg	100
2265.09	1.722	1721.9	regulate	Run3	regulate/STIM_021.jpg	99
2268.909	2.221	2221.2	regulate	Run3	regulate/STIM_021.jpg	99
2273.236	2.23	2229.5	regulate	Run3	regulate/STIM_022.jpg	100
2277.498	1.129	1129.3	regulate	Run3	regulate/STIM_022.jpg	99
2282.312	1.038	1038.1	regulate	Run3	regulate/STIM_022.jpg	99
2286.582	1.641	1640.7	regulate	Run3	regulate/STIM_022.jpg	100
2291.19	1.049	1048.7	regulate	Run3	regulate/STIM_023.jpg	99
2295.274	1.758	1758.0	regulate	Run3	regulate/STIM_023.jpg	100
2299.993	1.906	1906.4	regulate	Run3	regulate/STIM_023.jpg	100
2305.274	1.868	1867.7	regulate	Run3	regulate/STIM_023.jpg	100
2309.344	1.017	1017.4	regulate	Run3	regulate/STIM_024.jpg	99
2312.86	2.087	2087.2	regulate	Run3	regulate/STIM_024.jpg	100
2318.913	1.309	1308.8	regulate	Run3	regulate/STIM_024.jpg	99
2322.725	1.529	1529.0	regulate	Run3	regulate/STIM_024.jpg	100
2328.034	2.28	2279.6	regulate	Run3	regulate/STIM_025.jpg	100
2333.328	2.237	2237.4	regulate	Run3	regulate/STIM_025.jpg	100
2337.913	1.529	1529.1	regulate	Run3	regulate/STIM_025.jpg	100
2343.204	1.0	1000.5	regulate	Run3	regulate/STIM_025.jpg	100
2346.583	1.053	1052.9	regulate	Run3	regulate/STIM_026.jpg	99
2351.407	1.167	1166.7	regulate	Run3	regulate/STIM_026.jpg	99
2356.404	1.913	1913.1	regulate	Run3	regulate/STIM_026.jpg	100
2361.36	2.271	2270.9	regulate	Run3	regulate/STIM_026.jpg	99
2366.5	1.849	1849.4	regulate	Run3	regulate/STIM_027.jpg	99
2370.842	1.163	1163.4	regulate	Run3	regulate/STIM_027.jpg	99
2375.155	1.316	1316.4	regulate	Run3	regulate/STIM_027.jpg	100
2378.547	1.86	1860.1	regulate	Run3	regulate/STIM_027.jpg	100
2384.394	1.013	1012.8	regulate	Run3	regulate/STIM_028.jpg	99
2389.37	1.307	1307.4	regulate	Run3	regulate/STIM_028.jpg	100
2393.291	1.733	1732.7	regulate	Run3	regulate/STIM_028.jpg	100
2398.769	1.562	1561.9	regulate	Run3	regulate/STIM_028.jpg	100
2402.448	1.954	1954.5	regulate	Run3	regulate/STIM_029.jpg	100
2406.891	1.113	1112.6	regulate	Run3	regulate/STIM_029.jpg	99
2411.156	2.092	2092.5	regulate	Run3	regulate/STIM_029.jpg	99
2416.349	2.125	2125.4	regulate	Run3	regulate/STIM_029.jpg	99
2422.0	1.305	1304.6	observe	Run3	observe/STIM_000.jpg	100
2426.15	1.01	1010.2	observe	Run3	observe/STIM_000.jpg	100
2429.677	1.36	1360.5	observe	Run3	observe/STIM_000.jpg	100
2434.257	1.403	1402.7	observe	Run3	observe/STIM_000.jpg	100
2438.909	0.882	881.8	observe	Run3	observe/STIM_001.jpg	100
2443.08	1.219	1219.1	observe	Run3	observe/STIM_001.jpg	100
2447.568	1.16	1159.6	observe	Run3	observe/STIM_001.jpg	99
2452.676	0.997	996.7	observe	Run3	observe/STIM_001.jpg	99
2457.407	0.953	952.8	observe	Run3	observe/STIM_002.jpg	100
2460.932	1.011	1010.7	observe	Run3	observe/STIM_002.jpg	99
2464.028	1.259	1259.3	observe	Run3	observe/STIM_002.jpg	100
2467.59	1.047	1047.2	observe	Run3	observe/STIM_002.jpg	99
2471.181	0.941	940.7	observe	Run3	observe/STIM_003.jpg	99
2475.458	1.017	1016.7	observe	Run3	observe/STIM_003.jpg	99
2478.635	1.37	1369.6	observe	Run3	observe/STIM_003.jpg	99
2483.586	1.284	1283.5	observe	Run3	observe/STIM_003.jpg	100
2486.97	0.772	772.2	observe	Run3	observe/STIM_004.jpg	99
2489.899	0.782	782.1	observe	Run3	observe/STIM_004.jpg	100
2493.874	1.507	1506.6	observe	Run3	observe/STIM_004.jpg	99
2497.877	0.917	917.4	observe	Run3	observe/STIM_004.jpg	99
2502.045	1.452	1451.5	observe	Run3	observe/STIM_005.jpg	99
2506.41	1.113	1112.6	observe	Run3	observe/STIM_005.jpg	99
2510.677	1.341	1341.4	observe	Run3	observe/STIM_005.jpg	99
2514.988	1.162	1161.9	observe	Run3	observe/STIM_005.jpg	100
2519.096	1.248	1248.2	observe	Run3	observe/STIM_006.jpg	100
2522.543	1.222	1222.1	observe	Run3	observe/STIM_006.jpg	100
2525.911	0.81	810.2	observe	Run3	observe/STIM_006.jpg	99
2529.78	0.951	950.8	observe	Run3	observe/STIM_006.jpg	99
2534.356	1.181	1181.3	observe	Run3	observe/STIM_007.jpg	100
2537.548	1.462	1462.2	observe	Run3	observe/STIM_007.jpg	99
2541.314	1.237	1237.2	observe	Run3	observe/STIM_007.jpg	99
2546.266	1.022	1021.7	observe	Run3	observe/STIM_007.jpg	100
2551.232	0.885	885.0	observe	Run3	observe/STIM_008.jpg	99
2554.934	1.262	1261.8	observe	Run3	observe/STIM_008.jpg	99
2559.483	1.248	1247.6	observe	Run3	observe/STIM_008.jpg	99
2563.169	1.201	1201.1	observe	Run3	observe/STIM_008.jpg	100
2567.445	1.319	1318.6	observe	Run3	observe/STIM_009.jpg	100
2571.448	0.963	962.8	observe	Run3	observe/STIM_009.jpg	99
2575.789	1.247	1247.0	observe	Run3	observe/STIM_009.jpg	99
2579.902	1.094	1093.7	observe	Run3	observe/STIM_009.jpg	100
2584.931	1.226	1226.3	observe	Run3	observe/STIM_010.jpg	100
2589.494	1.401	1401.4	observe	Run3	observe/STIM_010.jpg	99
2594.535	1.382	1381.6	observe	Run3	observe/STIM_010.jpg	100
2599.709	0.957	957.4	observe	Run3	observe/STIM_010.jpg	100
2604.415	1.174	1174.5	observe	Run3	observe/STIM_011.jpg	100
2607.87	1.176	1175.7	observe	Run3	observe/STIM_011.jpg	100
2612.262	1.343	1343.3	observe	Run3	observe/STIM_011.jpg	100
2616.704	1.209	1209.1	observe	Run3	observe/STIM_011.jpg	100
2620.974	1.429	1429.1	observe	Run3	observe/STIM_012.jpg	99
2624.869	1.136	1135.7	observe	Run3	observe/STIM_012.jpg	99
2629.228	1.384	1383.5	observe	Run3	observe/STIM_012.jpg	99
2634.232	0.969	969.0	observe	Run3	observe/STIM_012.jpg	99
2639.105	0.978	978.1	observe	Run3	observe/STIM_013.jpg	99
2643.82	1.29	1289.9	observe	Run3	observe/STIM_013.jpg	100
2647.67	1.213	1213.2	observe	Run3	observe/STIM_013.jpg	99
2651.703	1.008	1008.4	observe	Run3	observe/STIM_013.jpg	99
2655.989	1.201	1200.6	observe	Run3	observe/STIM_014.jpg	100
2659.619	0.757	756.8	observe	Run3	observe/STIM_014.jpg	100
2663.018	1.122	1121.7	observe	Run3	observe/STIM_014.jpg	99
2666.951	1.253	1252.7	observe	Run3	observe/STIM_014.jpg	100
2671.643	1.293	1293.3	observe	Run3	observe/STIM_015.jpg	99
2676.328	1.112	1111.8	observe	Run3	observe/STIM_015.jpg	99
2680.001	1.112	1111.8	observe	Run3	observe/STIM_015.jpg	99
2684.863	1.225	1225.4	observe	Run3	observe/STIM_015.jpg	99
2688.09	0.906	905.5	observe	Run3	observe/STIM_016.jpg	99
2691.935	1.196	1196.4	observe	Run3	observe/STIM_016.jpg	99
2695.937	1.0	999.6	observe	Run3	observe/STIM_016.jpg	100
2700.73	1.03	1030.2	observe	Run3	observe/STIM_016.jpg	99
2704.693	1.151	1151.3	observe	Run3	observe/STIM_017.jpg	99
2708.641	1.452	1452.5	observe	Run3	observe/STIM_017.jpg	99
2712.981	1.015	1014.9	observe	Run3	observe/STIM_017.jpg	100
2716.886	1.328	1328.0	observe	Run3	observe/STIM_017.jpg	99
2720.433	0.962	962.4	observe	Run3	observe/STIM_018.jpg	100
2723.926	1.469	1469.0	observe	Run3	observe/STIM_018.jpg	99
2728.229	0.898	898.1	observe	Run3	observe/STIM_018.jpg	100
2732.982	1.307	1307.4	observe	Run3	observe/STIM_018.jpg	99
2737.902	1.323	1323.3	observe	Run3	observe/STIM_019.jpg	100
2742.046	0.928	928.0	observe	Run3	observe/STIM_019.jpg	99
2746.526	1.286	1286.4	observe	Run3	observe/STIM_019.jpg	100
2751.502	1.249	1248.9	observe	Run3	observe/STIM_019.jpg	99
