onset	duration	accuracy	trial_type	learning_stage	stimulus
0.0	3.239	correct	regulate	Run1	regulate/STIM_000.jpg
5.65	2.587	correct	regulate	Run1	regulate/STIM_000.jpg
10.346	2.165	correct	regulate	Run1	regulate/STIM_000.jpg
15.462	1.818	correct	regulate	Run1	regulate/STIM_000.jpg
20.154	2.242	correct	regulate	Run1	regulate/STIM_001.jpg
24.743	1.902	correct	regulate	Run1	regulate/STIM_001.jpg
29.48	2.159	incorrect	regulate	Run1	regulate/STIM_001.jpg
34.058	1.582	correct	regulate	Run1	regulate/STIM_001.jpg
39.174	3.038	correct	regulate	Run1	regulate/STIM_002.jpg
45.815	2.821	correct	regulate	Run1	regulate/STIM_002.jpg
52.271	1.652	correct	regulate	Run1	regulate/STIM_002.jpg
56.345	2.128	correct	regulate	Run1	regulate/STIM_002.jpg
61.337	2.339	correct	regulate	Run1	regulate/STIM_003.jpg
66.624	2.289	correct	regulate	Run1	regulate/STIM_003.jpg
72.389	2.765	correct	regulate	Run1	regulate/STIM_003.jpg
78.732	2.349	correct	regulate	Run1	regulate/STIM_003.jpg
83.967	1.787	correct	regulate	Run1	regulate/STIM_004.jpg
89.145	2.173	correct	regulate	Run1	regulate/STIM_004.jpg
95.301	2.586	correct	regulate	Run1	regulate/STIM_004.jpg
101.509	2.693	correct	regulate	Run1	regulate/STIM_004.jpg
106.66	3.038	correct	regulate	Run1	regulate/STIM_005.jpg
111.913	2.604	correct	regulate	Run1	regulate/STIM_005.jpg
117.813	1.374	correct	regulate	Run1	regulate/STIM_005.jpg
121.63	2.122	correct	regulate	Run1	regulate/STIM_005.jpg
125.885	1.759	correct	regulate	Run1	regulate/STIM_006.jpg
131.377	1.526	correct	regulate	Run1	regulate/STIM_006.jpg
135.695	2.126	correct	regulate	Run1	regulate/STIM_006.jpg
140.66	2.496	correct	regulate	Run1	regulate/STIM_006.jpg
145.803	2.267	correct	regulate	Run1	regulate/STIM_007.jpg
152.022	2.37	correct	regulate	Run1	regulate/STIM_007.jpg
157.279	2.148	correct	regulate	Run1	regulate/STIM_007.jpg
161.546	2.087	correct	regulate	Run1	regulate/STIM_007.jpg
167.077	1.801	correct	regulate	Run1	regulate/STIM_008.jpg
172.574	2.628	correct	regulate	Run1	regulate/STIM_008.jpg
178.884	1.789	correct	regulate	Run1	regulate/STIM_008.jpg
184.115	2.29	correct	regulate	Run1	regulate/STIM_008.jpg
189.683	3.098	correct	regulate	Run1	regulate/STIM_009.jpg
194.795	1.405	correct	regulate	Run1	regulate/STIM_009.jpg
199.329	2.675	correct	regulate	Run1	regulate/STIM_009.jpg
205.256	1.208	correct	regulate	Run1	regulate/STIM_009.jpg
209.361	3.158	correct	regulate	Run1	regulate/STIM_010.jpg
215.186	2.934	correct	regulate	Run1	regulate/STIM_010.jpg
220.655	1.611	correct	regulate	Run1	regulate/STIM_010.jpg
225.838	2.65	correct	regulate	Run1	regulate/STIM_010.jpg
230.559	1.568	correct	regulate	Run1	regulate/STIM_011.jpg
236.063	2.346	correct	regulate	Run1	regulate/STIM_011.jpg
241.715	1.694	correct	regulate	Run1	regulate/STIM_011.jpg
247.328	2.141	correct	regulate	Run1	regulate/STIM_011.jpg
253.167	2.298	correct	regulate	Run1	regulate/STIM_012.jpg
258.137	1.867	correct	regulate	Run1	regulate/STIM_012.jpg
262.692	1.802	correct	regulate	Run1	regulate/STIM_012.jpg
266.745	2.273	correct	regulate	Run1	regulate/STIM_012.jpg
271.228	1.85	correct	regulate	Run1	regulate/STIM_013.jpg
276.633	1.364	correct	regulate	Run1	regulate/STIM_013.jpg
280.634	1.627	correct	regulate	Run1	regulate/STIM_013.jpg
285.698	2.699	correct	regulate	Run1	regulate/STIM_013.jpg
290.768	2.912	correct	regulate	Run1	regulate/STIM_014.jpg
296.601	2.94	correct	regulate	Run1	regulate/STIM_014.jpg
302.892	1.948	correct	regulate	Run1	regulate/STIM_014.jpg
307.011	1.352	correct	regulate	Run1	regulate/STIM_014.jpg
310.997	1.843	correct	regulate	Run1	regulate/STIM_015.jpg
315.611	1.998	correct	regulate	Run1	regulate/STIM_015.jpg
320.233	1.59	correct	regulate	Run1	regulate/STIM_015.jpg
325.394	2.002	correct	regulate	Run1	regulate/STIM_015.jpg
329.488	2.362	correct	regulate	Run1	regulate/STIM_016.jpg
335.613	1.677	correct	regulate	Run1	regulate/STIM_016.jpg
339.648	1.611	correct	regulate	Run1	regulate/STIM_016.jpg
343.408	2.519	correct	regulate	Run1	regulate/STIM_016.jpg
349.212	3.009	incorrect	regulate	Run1	regulate/STIM_017.jpg
355.086	2.637	correct	regulate	Run1	regulate/STIM_017.jpg
360.351	2.678	correct	regulate	Run1	regulate/STIM_017.jpg
365.295	2.613	incorrect	regulate	Run1	regulate/STIM_017.jpg
371.183	3.014	correct	regulate	Run1	regulate/STIM_018.jpg
377.011	1.451	correct	regulate	Run1	regulate/STIM_018.jpg
380.78	2.745	correct	regulate	Run1	regulate/STIM_018.jpg
385.591	1.474	correct	regulate	Run1	regulate/STIM_018.jpg
390.068	2.332	correct	regulate	Run1	regulate/STIM_019.jpg
396.295	2.926	correct	regulate	Run1	regulate/STIM_019.jpg
402.133	2.502	correct	regulate	Run1	regulate/STIM_019.jpg
408.509	2.556	correct	regulate	Run1	regulate/STIM_019.jpg
414.336	2.809	correct	regulate	Run1	regulate/STIM_020.jpg
420.931	2.995	correct	regulate	Run1	regulate/STIM_020.jpg
427.385	1.383	correct	regulate	Run1	regulate/STIM_020.jpg
432.355	1.913	correct	regulate	Run1	regulate/STIM_020.jpg
437.874	2.502	correct	regulate	Run1	regulate/STIM_021.jpg
444.034	2.408	correct	regulate	Run1	regulate/STIM_021.jpg
448.448	2.193	correct	regulate	Run1	regulate/STIM_021.jpg
453.003	2.219	correct	regulate	Run1	regulate/STIM_021.jpg
459.132	1.937	correct	regulate	Run1	regulate/STIM_022.jpg
463.729	1.563	correct	regulate	Run1	regulate/STIM_022.jpg
467.446	2.128	correct	regulate	Run1	regulate/STIM_022.jpg
472.15	1.216	correct	regulate	Run1	regulate/STIM_022.jpg
476.297	1.801	correct	regulate	Run1	regulate/STIM_023.jpg
482.097	2.027	correct	regulate	Run1	regulate/STIM_023.jpg
486.46	2.764	correct	regulate	Run1	regulate/STIM_023.jpg
492.003	1.256	correct	regulate	Run1	regulate/STIM_023.jpg
495.863	2.736	correct	regulate	Run1	regulate/STIM_024.jpg
501.411	1.742	correct	regulate	Run1	regulate/STIM_024.jpg
506.195	2.442	correct	regulate	Run1	regulate/STIM_024.jpg
511.512	1.478	correct	regulate	Run1	regulate/STIM_024.jpg
516.895	1.717	correct	regulate	Run1	regulate/STIM_025.jpg
522.558	2.727	correct	regulate	Run1	regulate/STIM_025.jpg
529.043	2.461	correct	regulate	Run1	regulate/STIM_025.jpg
533.886	2.477	correct	regulate	Run1	regulate/STIM_025.jpg
538.971	3.021	correct	regulate	Run1	regulate/STIM_026.jpg
544.121	2.545	correct	regulate	Run1	regulate/STIM_026.jpg
549.218	2.238	correct	regulate	Run1	regulate/STIM_026.jpg
553.779	1.222	correct	regulate	Run1	regulate/STIM_026.jpg
557.393	2.009	correct	regulate	Run1	regulate/STIM_027.jpg
563.093	1.905	correct	regulate	Run1	regulate/STIM_027.jpg
567.283	2.774	correct	regulate	Run1	regulate/STIM_027.jpg
572.84	2.412	correct	regulate	Run1	regulate/STIM_027.jpg
578.95	2.273	correct	regulate	Run1	regulate/STIM_028.jpg
584.193	1.71	correct	regulate	Run1	regulate/STIM_028.jpg
588.667	2.12	correct	regulate	Run1	regulate/STIM_028.jpg
592.987	1.917	correct	regulate	Run1	regulate/STIM_028.jpg
598.727	2.843	correct	regulate	Run1	regulate/STIM_029.jpg
603.92	1.422	correct	regulate	Run1	regulate/STIM_029.jpg
608.74	1.406	correct	regulate	Run1	regulate/STIM_029.jpg
612.843	2.312	correct	regulate	Run1	regulate/STIM_029.jpg
618.021	0.768	correct	observe	Run1	observe/STIM_000.jpg
622.357	1.235	correct	observe	Run1	observe/STIM_000.jpg
626.796	1.206	correct	observe	Run1	observe/STIM_000.jpg
630.37	1.265	correct	observe	Run1	observe/STIM_000.jpg
633.971	0.903	correct	observe	Run1	observe/STIM_001.jpg
638.222	1.23	correct	observe	Run1	observe/STIM_001.jpg
641.773	1.143	correct	observe	Run1	observe/STIM_001.jpg
646.624	1.097	correct	observe	Run1	observe/STIM_001.jpg
650.8	1.465	correct	observe	Run1	observe/STIM_002.jpg
655.748	1.359	correct	observe	Run1	observe/STIM_002.jpg
660.912	1.152	correct	observe	Run1	observe/STIM_002.jpg
665.617	1.437	correct	observe	Run1	observe/STIM_002.jpg
670.951	1.478	correct	observe	Run1	observe/STIM_003.jpg
674.438	0.804	correct	observe	Run1	observe/STIM_003.jpg
678.729	1.15	correct	observe	Run1	observe/STIM_003.jpg
683.393	0.893	correct	observe	Run1	observe/STIM_003.jpg
686.728	0.794	correct	observe	Run1	observe/STIM_004.jpg
691.423	1.433	correct	observe	Run1	observe/STIM_004.jpg
696.656	1.008	correct	observe	Run1	observe/STIM_004.jpg
700.448	1.178	correct	observe	Run1	observe/STIM_004.jpg
704.693	0.84	correct	observe	Run1	observe/STIM_005.jpg
709.519	1.468	correct	observe	Run1	observe/STIM_005.jpg
714.457	1.053	correct	observe	Run1	observe/STIM_005.jpg
719.366	1.171	correct	observe	Run1	observe/STIM_005.jpg
723.852	1.071	correct	observe	Run1	observe/STIM_006.jpg
727.207	1.218	correct	observe	Run1	observe/STIM_006.jpg
731.491	1.189	correct	observe	Run1	observe/STIM_006.jpg
736.244	0.963	correct	observe	Run1	observe/STIM_006.jpg
740.722	0.763	correct	observe	Run1	observe/STIM_007.jpg
743.973	0.761	correct	observe	Run1	observe/STIM_007.jpg
747.491	1.012	correct	observe	Run1	observe/STIM_007.jpg
752.193	1.283	correct	observe	Run1	observe/STIM_007.jpg
756.322	1.318	correct	observe	Run1	observe/STIM_008.jpg
760.051	0.984	correct	observe	Run1	observe/STIM_008.jpg
763.609	0.932	correct	observe	Run1	observe/STIM_008.jpg
766.754	1.093	correct	observe	Run1	observe/STIM_008.jpg
771.591	1.266	correct	observe	Run1	observe/STIM_009.jpg
776.342	1.201	incorrect	observe	Run1	observe/STIM_009.jpg
780.627	1.052	correct	observe	Run1	observe/STIM_009.jpg
785.454	0.803	correct	observe	Run1	observe/STIM_009.jpg
789.509	0.768	correct	observe	Run1	observe/STIM_010.jpg
793.071	1.428	correct	observe	Run1	observe/STIM_010.jpg
797.354	1.48	incorrect	observe	Run1	observe/STIM_010.jpg
802.692	1.03	correct	observe	Run1	observe/STIM_010.jpg
806.175	1.293	correct	observe	Run1	observe/STIM_011.jpg
810.41	0.939	correct	observe	Run1	observe/STIM_011.jpg
815.108	1.148	correct	observe	Run1	observe/STIM_011.jpg
819.345	0.969	correct	observe	Run1	observe/STIM_011.jpg
824.312	0.935	correct	observe	Run1	observe/STIM_012.jpg
828.288	0.773	correct	observe	Run1	observe/STIM_012.jpg
831.89	1.207	correct	observe	Run1	observe/STIM_012.jpg
836.471	0.876	correct	observe	Run1	observe/STIM_012.jpg
839.495	1.187	correct	observe	Run1	observe/STIM_013.jpg
844.281	1.151	correct	observe	Run1	observe/STIM_013.jpg
847.994	1.337	correct	observe	Run1	observe/STIM_013.jpg
851.716	1.36	correct	observe	Run1	observe/STIM_013.jpg
856.059	1.079	correct	observe	Run1	observe/STIM_014.jpg
859.791	0.76	correct	observe	Run1	observe/STIM_014.jpg
863.663	1.354	correct	observe	Run1	observe/STIM_014.jpg
867.902	0.994	correct	observe	Run1	observe/STIM_014.jpg
872.606	1.405	correct	observe	Run1	observe/STIM_015.jpg
877.534	1.124	correct	observe	Run1	observe/STIM_015.jpg
882.054	0.859	correct	observe	Run1	observe/STIM_015.jpg
885.373	0.847	correct	observe	Run1	observe/STIM_015.jpg
888.858	1.283	correct	observe	Run1	observe/STIM_016.jpg
892.606	0.928	correct	observe	Run1	observe/STIM_016.jpg
896.749	1.074	correct	observe	Run1	observe/STIM_016.jpg
901.505	0.762	correct	observe	Run1	observe/STIM_016.jpg
905.068	1.39	correct	observe	Run1	observe/STIM_017.jpg
909.151	1.099	correct	observe	Run1	observe/STIM_017.jpg
913.382	1.107	correct	observe	Run1	observe/STIM_017.jpg
917.187	1.504	correct	observe	Run1	observe/STIM_017.jpg
922.519	1.399	correct	observe	Run1	observe/STIM_018.jpg
927.074	1.18	correct	observe	Run1	observe/STIM_018.jpg
931.664	1.04	correct	observe	Run1	observe/STIM_018.jpg
935.263	1.166	correct	observe	Run1	observe/STIM_018.jpg
939.042	1.317	correct	observe	Run1	observe/STIM_019.jpg
942.858	0.958	correct	observe	Run1	observe/STIM_019.jpg
946.124	1.202	correct	observe	Run1	observe/STIM_019.jpg
951.231	1.159	correct	observe	Run1	observe/STIM_019.jpg
955.774	1.614	correct	regulate	Run2	regulate/STIM_000.jpg
959.725	1.876	correct	regulate	Run2	regulate/STIM_000.jpg
964.767	2.022	correct	regulate	Run2	regulate/STIM_000.jpg
970.468	1.013	correct	regulate	Run2	regulate/STIM_000.jpg
974.632	2.639	correct	regulate	Run2	regulate/STIM_001.jpg
980.158	2.156	correct	regulate	Run2	regulate/STIM_001.jpg
985.381	2.397	correct	regulate	Run2	regulate/STIM_001.jpg
990.651	2.12	correct	regulate	Run2	regulate/STIM_001.jpg
996.758	2.637	correct	regulate	Run2	regulate/STIM_002.jpg
1002.238	2.182	correct	regulate	Run2	regulate/STIM_002.jpg
1007.948	1.519	correct	regulate	Run2	regulate/STIM_002.jpg
1011.906	2.272	correct	regulate	Run2	regulate/STIM_002.jpg
1017.587	1.853	correct	regulate	Run2	regulate/STIM_003.jpg
1021.924	2.419	correct	regulate	Run2	regulate/STIM_003.jpg
1026.67	2.425	correct	regulate	Run2	regulate/STIM_003.jpg
1032.407	2.192	correct	regulate	Run2	regulate/STIM_003.jpg
1036.807	1.754	correct	regulate	Run2	regulate/STIM_004.jpg
1041.391	2.064	correct	regulate	Run2	regulate/STIM_004.jpg
1045.931	2.259	correct	regulate	Run2	regulate/STIM_004.jpg
1050.585	2.052	correct	regulate	Run2	regulate/STIM_004.jpg
1054.65	1.941	correct	regulate	Run2	regulate/STIM_005.jpg
1059.683	1.326	correct	regulate	Run2	regulate/STIM_005.jpg
1064.303	1.23	correct	regulate	Run2	regulate/STIM_005.jpg
1068.963	1.825	correct	regulate	Run2	regulate/STIM_005.jpg
1073.833	1.937	correct	regulate	Run2	regulate/STIM_006.jpg
1078.71	2.269	correct	regulate	Run2	regulate/STIM_006.jpg
1083.123	1.823	correct	regulate	Run2	regulate/STIM_006.jpg
1088.888	1.426	correct	regulate	Run2	regulate/STIM_006.jpg
1093.946	1.963	correct	regulate	Run2	regulate/STIM_007.jpg
1098.756	2.506	correct	regulate	Run2	regulate/STIM_007.jpg
1103.494	2.079	correct	regulate	Run2	regulate/STIM_007.jpg
1108.246	2.203	correct	regulate	Run2	regulate/STIM_007.jpg
1114.011	1.721	correct	regulate	Run2	regulate/STIM_008.jpg
1118.37	2.336	correct	regulate	Run2	regulate/STIM_008.jpg
1123.182	1.957	correct	regulate	Run2	regulate/STIM_008.jpg
1128.638	1.158	correct	regulate	Run2	regulate/STIM_008.jpg
1131.994	1.248	correct	regulate	Run2	regulate/STIM_009.jpg
1136.543	2.524	correct	regulate	Run2	regulate/STIM_009.jpg
1142.754	1.179	correct	regulate	Run2	regulate/STIM_009.jpg
1147.84	2.276	correct	regulate	Run2	regulate/STIM_009.jpg
1153.994	1.386	correct	regulate	Run2	regulate/STIM_010.jpg
1158.074	2.056	correct	regulate	Run2	regulate/STIM_010.jpg
1162.22	1.56	correct	regulate	Run2	regulate/STIM_010.jpg
1167.017	1.942	correct	regulate	Run2	regulate/STIM_010.jpg
1172.57	2.595	correct	regulate	Run2	regulate/STIM_011.jpg
1178.788	1.36	correct	regulate	Run2	regulate/STIM_011.jpg
1182.242	1.33	correct	regulate	Run2	regulate/STIM_011.jpg
1187.563	1.989	correct	regulate	Run2	regulate/STIM_011.jpg
1192.733	1.946	correct	regulate	Run2	regulate/STIM_012.jpg
1197.247	2.087	correct	regulate	Run2	regulate/STIM_012.jpg
1201.608	2.081	correct	regulate	Run2	regulate/STIM_012.jpg
1207.237	1.304	correct	regulate	Run2	regulate/STIM_012.jpg
1211.644	2.488	correct	regulate	Run2	regulate/STIM_013.jpg
1217.887	1.924	correct	regulate	Run2	regulate/STIM_013.jpg
1222.3	1.966	correct	regulate	Run2	regulate/STIM_013.jpg
1226.684	1.304	correct	regulate	Run2	regulate/STIM_013.jpg
1231.427	2.053	correct	regulate	Run2	regulate/STIM_014.jpg
1236.459	2.611	correct	regulate	Run2	regulate/STIM_014.jpg
1241.792	1.277	correct	regulate	Run2	regulate/STIM_014.jpg
1246.647	2.295	incorrect	regulate	Run2	regulate/STIM_014.jpg
1251.36	1.303	correct	regulate	Run2	regulate/STIM_015.jpg
1255.341	1.453	correct	regulate	Run2	regulate/STIM_015.jpg
1259.626	1.458	correct	regulate	Run2	regulate/STIM_015.jpg
1264.672	1.404	correct	regulate	Run2	regulate/STIM_015.jpg
1269.114	1.322	correct	regulate	Run2	regulate/STIM_016.jpg
1272.872	2.159	correct	regulate	Run2	regulate/STIM_016.jpg
1277.492	1.507	correct	regulate	Run2	regulate/STIM_016.jpg
1281.585	2.14	correct	regulate	Run2	regulate/STIM_016.jpg
1286.966	2.235	correct	regulate	Run2	regulate/STIM_017.jpg
1292.226	1.302	correct	regulate	Run2	regulate/STIM_017.jpg
1295.535	1.371	correct	regulate	Run2	regulate/STIM_017.jpg
1299.694	1.626	correct	regulate	Run2	regulate/STIM_017.jpg
1304.648	1.651	correct	regulate	Run2	regulate/STIM_018.jpg
1308.867	2.574	correct	regulate	Run2	regulate/STIM_018.jpg
1314.367	1.651	incorrect	regulate	Run2	regulate/STIM_018.jpg
1319.974	2.129	correct	regulate	Run2	regulate/STIM_018.jpg
1324.231	1.251	correct	regulate	Run2	regulate/STIM_019.jpg
1327.627	1.532	correct	regulate	Run2	regulate/STIM_019.jpg
1332.292	2.258	correct	regulate	Run2	regulate/STIM_019.jpg
1336.62	1.923	correct	regulate	Run2	regulate/STIM_019.jpg
1341.521	1.999	correct	regulate	Run2	regulate/STIM_020.jpg
1345.896	1.422	correct	regulate	Run2	regulate/STIM_020.jpg
1349.447	1.768	correct	regulate	Run2	regulate/STIM_020.jpg
1353.488	1.996	correct	regulate	Run2	regulate/STIM_020.jpg
1359.083	2.787	correct	regulate	Run2	regulate/STIM_021.jpg
1364.453	1.349	correct	regulate	Run2	regulate/STIM_021.jpg
1369.395	2.443	correct	regulate	Run2	regulate/STIM_021.jpg
1374.734	2.064	correct	regulate	Run2	regulate/STIM_021.jpg
1379.524	2.708	correct	regulate	Run2	regulate/STIM_022.jpg
1384.482	1.206	correct	regulate	Run2	regulate/STIM_022.jpg
1388.165	2.211	correct	regulate	Run2	regulate/STIM_022.jpg
1392.488	1.298	correct	regulate	Run2	regulate/STIM_022.jpg
1397.39	1.473	correct	regulate	Run2	regulate/STIM_023.jpg
1401.255	1.534	correct	regulate	Run2	regulate/STIM_023.jpg
1405.917	1.964	correct	regulate	Run2	regulate/STIM_023.jpg
1411.068	2.055	correct	regulate	Run2	regulate/STIM_023.jpg
1416.826	2.134	correct	regulate	Run2	regulate/STIM_024.jpg
1422.257	2.594	correct	regulate	Run2	regulate/STIM_024.jpg
1428.604	1.239	correct	regulate	Run2	regulate/STIM_024.jpg
1432.679	1.606	correct	regulate	Run2	regulate/STIM_024.jpg
1437.385	1.663	correct	regulate	Run2	regulate/STIM_025.jpg
1442.526	1.972	correct	regulate	Run2	regulate/STIM_025.jpg
1446.724	2.436	correct	regulate	Run2	regulate/STIM_025.jpg
1451.814	1.106	correct	regulate	Run2	regulate/STIM_025.jpg
1456.677	1.454	correct	regulate	Run2	regulate/STIM_026.jpg
1461.939	1.238	correct	regulate	Run2	regulate/STIM_026.jpg
1465.982	1.623	correct	regulate	Run2	regulate/STIM_026.jpg
1470.512	1.213	correct	regulate	Run2	regulate/STIM_026.jpg
1474.944	2.75	correct	regulate	Run2	regulate/STIM_027.jpg
1480.679	1.844	correct	regulate	Run2	regulate/STIM_027.jpg
1485.775	2.038	correct	regulate	Run2	regulate/STIM_027.jpg
1491.489	1.531	correct	regulate	Run2	regulate/STIM_027.jpg
1496.505	2.404	correct	regulate	Run2	regulate/STIM_028.jpg
1501.887	1.779	correct	regulate	Run2	regulate/STIM_028.jpg
1505.98	1.821	correct	regulate	Run2	regulate/STIM_028.jpg
1509.861	2.05	correct	regulate	Run2	regulate/STIM_028.jpg
1514.737	2.592	correct	regulate	Run2	regulate/STIM_029.jpg
1519.699	1.838	correct	regulate	Run2	regulate/STIM_029.jpg
1523.613	1.803	correct	regulate	Run2	regulate/STIM_029.jpg
1527.574	1.911	correct	regulate	Run2	regulate/STIM_029.jpg
1532.21	0.988	correct	observe	Run2	observe/STIM_000.jpg
1537.127	1.266	incorrect	observe	Run2	observe/STIM_000.jpg
1541.192	0.806	correct	observe	Run2	observe/STIM_000.jpg
1545.306	1.082	correct	observe	Run2	observe/STIM_000.jpg
1550.068	1.022	incorrect	observe	Run2	observe/STIM_001.jpg
1554.275	0.942	correct	observe	Run2	observe/STIM_001.jpg
1558.404	1.217	correct	observe	Run2	observe/STIM_001.jpg
1562.868	1.147	correct	observe	Run2	observe/STIM_001.jpg
1567.041	0.988	correct	observe	Run2	observe/STIM_002.jpg
1570.291	0.839	correct	observe	Run2	observe/STIM_002.jpg
1574.659	1.269	correct	observe	Run2	observe/STIM_002.jpg
1579.504	0.882	correct	observe	Run2	observe/STIM_002.jpg
1582.895	1.461	correct	observe	Run2	observe/STIM_003.jpg
1586.926	0.795	correct	observe	Run2	observe/STIM_003.jpg
1590.767	1.47	correct	observe	Run2	observe/STIM_003.jpg
1596.216	1.079	correct	observe	Run2	observe/STIM_003.jpg
1600.492	0.839	correct	observe	Run2	observe/STIM_004.jpg
1605.052	1.359	correct	observe	Run2	observe/STIM_004.jpg
1609.579	0.772	correct	observe	Run2	observe/STIM_004.jpg
1613.085	0.915	correct	observe	Run2	observe/STIM_004.jpg
1616.384	1.061	correct	observe	Run2	observe/STIM_005.jpg
1621.197	1.035	correct	observe	Run2	observe/STIM_005.jpg
1624.728	1.163	correct	observe	Run2	observe/STIM_005.jpg
1628.832	1.248	correct	observe	Run2	observe/STIM_005.jpg
1633.1	0.981	correct	observe	Run2	observe/STIM_006.jpg
1638.009	0.96	correct	observe	Run2	observe/STIM_006.jpg
1642.771	0.938	correct	observe	Run2	observe/STIM_006.jpg
1645.873	1.452	correct	observe	Run2	observe/STIM_006.jpg
1651.051	0.973	correct	observe	Run2	observe/STIM_007.jpg
1655.666	1.4	correct	observe	Run2	observe/STIM_007.jpg
1659.654	1.026	correct	observe	Run2	observe/STIM_007.jpg
1663.295	1.436	correct	observe	Run2	observe/STIM_007.jpg
1667.525	1.081	correct	observe	Run2	observe/STIM_008.jpg
1671.261	0.85	correct	observe	Run2	observe/STIM_008.jpg
1674.238	1.068	correct	observe	Run2	observe/STIM_008.jpg
1678.057	0.985	correct	observe	Run2	observe/STIM_008.jpg
1682.953	1.245	correct	observe	Run2	observe/STIM_009.jpg
1688.127	1.305	correct	observe	Run2	observe/STIM_009.jpg
1693.144	1.072	correct	observe	Run2	observe/STIM_009.jpg
1697.224	1.289	correct	observe	Run2	observe/STIM_009.jpg
1700.615	1.207	correct	observe	Run2	observe/STIM_010.jpg
1705.592	0.855	correct	observe	Run2	observe/STIM_010.jpg
1709.463	0.838	correct	observe	Run2	observe/STIM_010.jpg
1712.679	1.19	correct	observe	Run2	observe/STIM_010.jpg
1716.958	1.378	correct	observe	Run2	observe/STIM_011.jpg
1722.286	0.93	correct	observe	Run2	observe/STIM_011.jpg
1726.66	1.289	correct	observe	Run2	observe/STIM_011.jpg
1731.71	0.758	correct	observe	Run2	observe/STIM_011.jpg
1735.901	1.292	correct	observe	Run2	observe/STIM_012.jpg
1739.608	1.058	correct	observe	Run2	observe/STIM_012.jpg
1743.478	0.757	correct	observe	Run2	observe/STIM_012.jpg
1746.811	0.763	correct	observe	Run2	observe/STIM_012.jpg
1750.489	1.205	correct	observe	Run2	observe/STIM_013.jpg
1755.564	1.491	correct	observe	Run2	observe/STIM_013.jpg
1759.606	1.258	correct	observe	Run2	observe/STIM_013.jpg
1764.649	0.842	correct	observe	Run2	observe/STIM_013.jpg
1768.026	0.764	correct	observe	Run2	observe/STIM_014.jpg
1771.226	1.415	correct	observe	Run2	observe/STIM_014.jpg
1775.121	0.882	correct	observe	Run2	observe/STIM_014.jpg
1779.315	1.333	correct	observe	Run2	observe/STIM_014.jpg
1782.65	0.778	correct	observe	Run2	observe/STIM_015.jpg
1787.247	1.269	correct	observe	Run2	observe/STIM_015.jpg
1792.225	1.243	correct	observe	Run2	observe/STIM_015.jpg
1795.856	1.5	correct	observe	Run2	observe/STIM_015.jpg
1801.042	1.265	correct	observe	Run2	observe/STIM_016.jpg
1805.808	0.87	correct	observe	Run2	observe/STIM_016.jpg
1810.236	1.02	correct	observe	Run2	observe/STIM_016.jpg
1813.303	1.488	correct	observe	Run2	observe/STIM_016.jpg
1818.625	0.954	correct	observe	Run2	observe/STIM_017.jpg
1821.759	1.311	correct	observe	Run2	observe/STIM_017.jpg
1825.427	1.315	correct	observe	Run2	observe/STIM_017.jpg
1830.603	0.767	correct	observe	Run2	observe/STIM_017.jpg
1834.808	1.496	correct	observe	Run2	observe/STIM_018.jpg
1838.732	1.305	correct	observe	Run2	observe/STIM_018.jpg
1843.353	0.853	correct	observe	Run2	observe/STIM_018.jpg
1848.052	0.79	correct	observe	Run2	observe/STIM_018.jpg
1852.49	0.879	correct	observe	Run2	observe/STIM_019.jpg
1856.444	1.446	correct	observe	Run2	observe/STIM_019.jpg
1861.739	1.18	correct	observe	Run2	observe/STIM_019.jpg
1865.1	0.866	correct	observe	Run2	observe/STIM_019.jpg
1868.477	0.998	correct	regulate	Run3	regulate/STIM_000.jpg
1872.793	1.348	correct	regulate	Run3	regulate/STIM_000.jpg
1877.007	2.188	correct	regulate	Run3	regulate/STIM_000.jpg
1881.239	1.012	correct	regulate	Run3	regulate/STIM_000.jpg
1884.576	1.61	correct	regulate	Run3	regulate/STIM_001.jpg
1888.946	1.704	correct	regulate	Run3	regulate/STIM_001.jpg
1892.895	1.788	correct	regulate	Run3	regulate/STIM_001.jpg
1897.967	2.164	correct	regulate	Run3	regulate/STIM_001.jpg
1902.453	1.109	correct	regulate	Run3	regulate/STIM_002.jpg
1906.076	1.875	correct	regulate	Run3	regulate/STIM_002.jpg
1911.414	2.034	correct	regulate	Run3	regulate/STIM_002.jpg
1916.203	0.989	correct	regulate	Run3	regulate/STIM_002.jpg
1919.732	1.58	correct	regulate	Run3	regulate/STIM_003.jpg
1925.304	2.182	correct	regulate	Run3	regulate/STIM_003.jpg
1930.323	2.123	correct	regulate	Run3	regulate/STIM_003.jpg
1935.519	1.732	correct	regulate	Run3	regulate/STIM_003.jpg
1939.685	1.967	correct	regulate	Run3	regulate/STIM_004.jpg
1944.855	2.271	correct	regulate	Run3	regulate/STIM_004.jpg
1950.193	1.644	correct	regulate	Run3	regulate/STIM_004.jpg
1953.94	1.215	correct	regulate	Run3	regulate/STIM_004.jpg
1957.269	1.917	correct	regulate	Run3	regulate/STIM_005.jpg
1961.447	1.694	correct	regulate	Run3	regulate/STIM_005.jpg
1965.666	1.091	correct	regulate	Run3	regulate/STIM_005.jpg
1969.203	2.276	correct	regulate	Run3	regulate/STIM_005.jpg
1974.153	1.447	correct	regulate	Run3	regulate/STIM_006.jpg
1977.963	1.75	correct	regulate	Run3	regulate/STIM_006.jpg
1983.659	1.298	correct	regulate	Run3	regulate/STIM_006.jpg
1988.713	2.029	correct	regulate	Run3	regulate/STIM_006.jpg
1994.547	2.027	correct	regulate	Run3	regulate/STIM_007.jpg
1999.133	1.591	correct	regulate	Run3	regulate/STIM_007.jpg
2002.925	1.754	correct	regulate	Run3	regulate/STIM_007.jpg
2008.209	1.68	correct	regulate	Run3	regulate/STIM_007.jpg
2013.462	1.832	correct	regulate	Run3	regulate/STIM_008.jpg
2018.753	2.181	correct	regulate	Run3	regulate/STIM_008.jpg
2024.616	1.839	correct	regulate	Run3	regulate/STIM_008.jpg
2028.844	1.326	correct	regulate	Run3	regulate/STIM_008.jpg
2033.197	1.222	correct	regulate	Run3	regulate/STIM_009.jpg
2037.752	0.992	correct	regulate	Run3	regulate/STIM_009.jpg
2042.298	1.0	correct	regulate	Run3	regulate/STIM_009.jpg
2045.675	1.986	correct	regulate	Run3	regulate/STIM_009.jpg
2050.634	1.579	correct	regulate	Run3	regulate/STIM_010.jpg
2056.076	1.401	correct	regulate	Run3	regulate/STIM_010.jpg
2060.772	1.168	correct	regulate	Run3	regulate/STIM_010.jpg
2064.41	1.771	correct	regulate	Run3	regulate/STIM_010.jpg
2069.042	2.005	correct	regulate	Run3	regulate/STIM_011.jpg
2073.165	1.661	correct	regulate	Run3	regulate/STIM_011.jpg
2077.712	1.957	correct	regulate	Run3	regulate/STIM_011.jpg
2082.811	1.203	correct	regulate	Run3	regulate/STIM_011.jpg
2087.328	1.666	correct	regulate	Run3	regulate/STIM_012.jpg
2091.481	1.133	correct	regulate	Run3	regulate/STIM_012.jpg
2095.649	1.592	correct	regulate	Run3	regulate/STIM_012.jpg
2101.033	1.607	correct	regulate	Run3	regulate/STIM_012.jpg
2105.685	1.392	correct	regulate	Run3	regulate/STIM_013.jpg
2109.376	2.007	correct	regulate	Run3	regulate/STIM_013.jpg
2114.336	1.103	correct	regulate	Run3	regulate/STIM_013.jpg
2119.078	1.079	correct	regulate	Run3	regulate/STIM_013.jpg
2123.88	2.144	correct	regulate	Run3	regulate/STIM_014.jpg
2128.313	2.06	incorrect	regulate	Run3	regulate/STIM_014.jpg
2133.548	1.023	correct	regulate	Run3	regulate/STIM_014.jpg
2137.08	1.191	correct	regulate	Run3	regulate/STIM_014.jpg
2141.107	2.088	correct	regulate	Run3	regulate/STIM_015.jpg
2147.093	2.22	correct	regulate	Run3	regulate/STIM_015.jpg
2151.754	1.6	correct	regulate	Run3	regulate/STIM_015.jpg
2155.429	2.163	correct	regulate	Run3	regulate/STIM_015.jpg
2160.801	1.214	correct	regulate	Run3	regulate/STIM_016.jpg
2165.715	1.118	correct	regulate	Run3	regulate/STIM_016.jpg
2169.723	2.206	correct	regulate	Run3	regulate/STIM_016.jpg
2175.844	1.531	correct	regulate	Run3	regulate/STIM_016.jpg
2179.433	1.733	correct	regulate	Run3	regulate/STIM_017.jpg
2185.041	1.077	correct	regulate	Run3	regulate/STIM_017.jpg
2188.861	1.506	correct	regulate	Run3	regulate/STIM_017.jpg
2193.405	2.144	correct	regulate	Run3	regulate/STIM_017.jpg
2198.806	1.188	correct	regulate	Run3	regulate/STIM_018.jpg
2203.806	1.063	correct	regulate	Run3	regulate/STIM_018.jpg
2207.916	2.228	correct	regulate	Run3	regulate/STIM_018.jpg
2213.104	1.857	correct	regulate	Run3	regulate/STIM_018.jpg
2217.795	1.55	correct	regulate	Run3	regulate/STIM_019.jpg
2222.886	2.057	correct	regulate	Run3	regulate/STIM_019.jpg
2228.276	1.209	correct	regulate	Run3	regulate/STIM_019.jpg
2232.447	2.142	correct	regulate	Run3	regulate/STIM_019.jpg
2237.875	1.209	correct	regulate	Run3	regulate/STIM_020.jpg
2241.833	1.048	correct	regulate	Run3	regulate/STIM_020.jpg
2245.887	1.22	correct	regulate	Run3	regulate/STIM_020.jpg
2249.194	1.861	correct	regulate	Run3	regulate/STIM_020.jpg
2254.858	1.825	correct	regulate	Run3	regulate/STIM_021.jpg
2258.922	2.188	correct	regulate	Run3	regulate/STIM_021.jpg
2265.09	1.722	correct	regulate	Run3	regulate/STIM_021.jpg
2268.909	2.221	correct	regulate	Run3	regulate/STIM_021.jpg
2273.236	2.23	correct	regulate	Run3	regulate/STIM_022.jpg
2277.498	1.129	correct	regulate	Run3	regulate/STIM_022.jpg
2282.312	1.038	correct	regulate	Run3	regulate/STIM_022.jpg
2286.582	1.641	correct	regulate	Run3	regulate/STIM_022.jpg
2291.19	1.049	correct	regulate	Run3	regulate/STIM_023.jpg
2295.274	1.758	correct	regulate	Run3	regulate/STIM_023.jpg
2299.993	1.906	correct	regulate	Run3	regulate/STIM_023.jpg
2305.274	1.868	correct	regulate	Run3	regulate/STIM_023.jpg
2309.344	1.017	correct	regulate	Run3	regulate/STIM_024.jpg
2312.86	2.087	correct	regulate	Run3	regulate/STIM_024.jpg
2318.913	1.309	correct	regulate	Run3	regulate/STIM_024.jpg
2322.725	1.529	correct	regulate	Run3	regulate/STIM_024.jpg
2328.034	2.28	correct	regulate	Run3	regulate/STIM_025.jpg
2333.328	2.237	correct	regulate	Run3	regulate/STIM_025.jpg
2337.913	1.529	correct	regulate	Run3	regulate/STIM_025.jpg
2343.204	1.0	correct	regulate	Run3	regulate/STIM_025.jpg
2346.583	1.053	correct	regulate	Run3	regulate/STIM_026.jpg
2351.407	1.167	correct	regulate	Run3	regulate/STIM_026.jpg
2356.404	1.913	correct	regulate	Run3	regulate/STIM_026.jpg
2361.36	2.271	correct	regulate	Run3	regulate/STIM_026.jpg
2366.5	1.849	correct	regulate	Run3	regulate/STIM_027.jpg
2370.842	1.163	correct	regulate	Run3	regulate/STIM_027.jpg
2375.155	1.316	correct	regulate	Run3	regulate/STIM_027.jpg
2378.547	1.86	correct	regulate	Run3	regulate/STIM_027.jpg
2384.394	1.013	correct	regulate	Run3	regulate/STIM_028.jpg
2389.37	1.307	correct	regulate	Run3	regulate/STIM_028.jpg
2393.291	1.733	correct	regulate	Run3	regulate/STIM_028.jpg
2398.769	1.562	correct	regulate	Run3	regulate/STIM_028.jpg
2402.448	1.954	correct	regulate	Run3	regulate/STIM_029.jpg
2406.891	1.113	correct	regulate	Run3	regulate/STIM_029.jpg
2411.156	2.092	correct	regulate	Run3	regulate/STIM_029.jpg
2416.349	2.125	correct	regulate	Run3	regulate/STIM_029.jpg
2422.0	1.305	correct	observe	Run3	observe/STIM_000.jpg
2426.15	1.01	correct	observe	Run3	observe/STIM_000.jpg
2429.677	1.36	correct	observe	Run3	observe/STIM_000.jpg
2434.257	1.403	correct	observe	Run3	observe/STIM_000.jpg
2438.909	0.882	correct	observe	Run3	observe/STIM_001.jpg
2443.08	1.219	correct	observe	Run3	observe/STIM_001.jpg
2447.568	1.16	correct	observe	Run3	observe/STIM_001.jpg
2452.676	0.997	correct	observe	Run3	observe/STIM_001.jpg
2457.407	0.953	correct	observe	Run3	observe/STIM_002.jpg
2460.932	1.011	correct	observe	Run3	observe/STIM_002.jpg
2464.028	1.259	correct	observe	Run3	observe/STIM_002.jpg
2467.59	1.047	correct	observe	Run3	observe/STIM_002.jpg
2471.181	0.941	correct	observe	Run3	observe/STIM_003.jpg
2475.458	1.017	correct	observe	Run3	observe/STIM_003.jpg
2478.635	1.37	correct	observe	Run3	observe/STIM_003.jpg
2483.586	1.284	correct	observe	Run3	observe/STIM_003.jpg
2486.97	0.772	correct	observe	Run3	observe/STIM_004.jpg
2489.899	0.782	correct	observe	Run3	observe/STIM_004.jpg
2493.874	1.507	correct	observe	Run3	observe/STIM_004.jpg
2497.877	0.917	correct	observe	Run3	observe/STIM_004.jpg
2502.045	1.452	correct	observe	Run3	observe/STIM_005.jpg
2506.41	1.113	correct	observe	Run3	observe/STIM_005.jpg
2510.677	1.341	correct	observe	Run3	observe/STIM_005.jpg
2514.988	1.162	correct	observe	Run3	observe/STIM_005.jpg
2519.096	1.248	correct	observe	Run3	observe/STIM_006.jpg
2522.543	1.222	correct	observe	Run3	observe/STIM_006.jpg
2525.911	0.81	correct	observe	Run3	observe/STIM_006.jpg
2529.78	0.951	correct	observe	Run3	observe/STIM_006.jpg
2534.356	1.181	correct	observe	Run3	observe/STIM_007.jpg
2537.548	1.462	correct	observe	Run3	observe/STIM_007.jpg
2541.314	1.237	correct	observe	Run3	observe/STIM_007.jpg
2546.266	1.022	correct	observe	Run3	observe/STIM_007.jpg
2551.232	0.885	correct	observe	Run3	observe/STIM_008.jpg
2554.934	1.262	correct	observe	Run3	observe/STIM_008.jpg
2559.483	1.248	correct	observe	Run3	observe/STIM_008.jpg
2563.169	1.201	correct	observe	Run3	observe/STIM_008.jpg
2567.445	1.319	correct	observe	Run3	observe/STIM_009.jpg
2571.448	0.963	correct	observe	Run3	observe/STIM_009.jpg
2575.789	1.247	correct	observe	Run3	observe/STIM_009.jpg
2579.902	1.094	correct	observe	Run3	observe/STIM_009.jpg
2584.931	1.226	correct	observe	Run3	observe/STIM_010.jpg
2589.494	1.401	correct	observe	Run3	observe/STIM_010.jpg
2594.535	1.382	correct	observe	Run3	observe/STIM_010.jpg
2599.709	0.957	correct	observe	Run3	observe/STIM_010.jpg
2604.415	1.174	correct	observe	Run3	observe/STIM_011.jpg
2607.87	1.176	correct	observe	Run3	observe/STIM_011.jpg
2612.262	1.343	incorrect	observe	Run3	observe/STIM_011.jpg
2616.704	1.209	correct	observe	Run3	observe/STIM_011.jpg
2620.974	1.429	correct	observe	Run3	observe/STIM_012.jpg
2624.869	1.136	correct	observe	Run3	observe/STIM_012.jpg
2629.228	1.384	correct	observe	Run3	observe/STIM_012.jpg
2634.232	0.969	correct	observe	Run3	observe/STIM_012.jpg
2639.105	0.978	correct	observe	Run3	observe/STIM_013.jpg
2643.82	1.29	correct	observe	Run3	observe/STIM_013.jpg
2647.67	1.213	correct	observe	Run3	observe/STIM_013.jpg
2651.703	1.008	correct	observe	Run3	observe/STIM_013.jpg
2655.989	1.201	correct	observe	Run3	observe/STIM_014.jpg
2659.619	0.757	correct	observe	Run3	observe/STIM_014.jpg
2663.018	1.122	correct	observe	Run3	observe/STIM_014.jpg
2666.951	1.253	correct	observe	Run3	observe/STIM_014.jpg
2671.643	1.293	correct	observe	Run3	observe/STIM_015.jpg
2676.328	1.112	correct	observe	Run3	observe/STIM_015.jpg
2680.001	1.112	correct	observe	Run3	observe/STIM_015.jpg
2684.863	1.225	correct	observe	Run3	observe/STIM_015.jpg
2688.09	0.906	correct	observe	Run3	observe/STIM_016.jpg
2691.935	1.196	correct	observe	Run3	observe/STIM_016.jpg
2695.937	1.0	correct	observe	Run3	observe/STIM_016.jpg
2700.73	1.03	correct	observe	Run3	observe/STIM_016.jpg
2704.693	1.151	correct	observe	Run3	observe/STIM_017.jpg
2708.641	1.452	correct	observe	Run3	observe/STIM_017.jpg
2712.981	1.015	incorrect	observe	Run3	observe/STIM_017.jpg
2716.886	1.328	correct	observe	Run3	observe/STIM_017.jpg
2720.433	0.962	correct	observe	Run3	observe/STIM_018.jpg
2723.926	1.469	correct	observe	Run3	observe/STIM_018.jpg
2728.229	0.898	correct	observe	Run3	observe/STIM_018.jpg
2732.982	1.307	correct	observe	Run3	observe/STIM_018.jpg
2737.902	1.323	correct	observe	Run3	observe/STIM_019.jpg
2742.046	0.928	correct	observe	Run3	observe/STIM_019.jpg
2746.526	1.286	correct	observe	Run3	observe/STIM_019.jpg
2751.502	1.249	correct	observe	Run3	observe/STIM_019.jpg
