onset	duration	accuracy_binary	trial_type	learning_stage	stimulus
0.0	3.239	1	regulate	Run1	regulate/STIM_000.jpg
5.65	2.587	1	regulate	Run1	regulate/STIM_000.jpg
10.346	2.165	1	regulate	Run1	regulate/STIM_000.jpg
15.462	1.818	1	regulate	Run1	regulate/STIM_000.jpg
20.154	2.242	1	regulate	Run1	regulate/STIM_001.jpg
24.743	1.902	1	regulate	Run1	regulate/STIM_001.jpg
29.48	2.159	0	regulate	Run1	regulate/STIM_001.jpg
34.058	1.582	1	regulate	Run1	regulate/STIM_001.jpg
39.174	3.038	1	regulate	Run1	regulate/STIM_002.jpg
45.815	2.821	1	regulate	Run1	regulate/STIM_002.jpg
52.271	1.652	1	regulate	Run1	regulate/STIM_002.jpg
56.345	2.128	1	regulate	Run1	regulate/STIM_002.jpg
61.337	2.339	1	regulate	Run1	regulate/STIM_003.jpg
66.624	2.289	1	regulate	Run1	regulate/STIM_003.jpg
72.389	2.765	1	regulate	Run1	regulate/STIM_003.jpg
78.732	2.349	1	regulate	Run1	regulate/STIM_003.jpg
83.967	1.787	1	regulate	Run1	regulate/STIM_004.jpg
89.145	2.173	1	regulate	Run1	regulate/STIM_004.jpg
95.301	2.586	1	regulate	Run1	regulate/STIM_004.jpg
101.509	2.693	1	regulate	Run1	regulate/STIM_004.jpg
106.66	3.038	1	regulate	Run1	regulate/STIM_005.jpg
111.913	2.604	1	regulate	Run1	regulate/STIM_005.jpg
117.813	1.374	1	regulate	Run1	regulate/STIM_005.jpg
121.63	2.122	1	regulate	Run1	regulate/STIM_005.jpg
125.885	1.759	1	regulate	Run1	regulate/STIM_006.jpg
131.377	1.526	1	regulate	Run1	regulate/STIM_006.jpg
135.695	2.126	1	regulate	Run1	regulate/STIM_006.jpg
140.66	2.496	1	regulate	Run1	regulate/STIM_006.jpg
145.803	2.267	1	regulate	Run1	regulate/STIM_007.jpg
152.022	2.37	1	regulate	Run1	regulate/STIM_007.jpg
157.279	2.148	1	regulate	Run1	regulate/STIM_007.jpg
161.546	2.087	1	regulate	Run1	regulate/STIM_007.jpg
167.077	1.801	1	regulate	Run1	regulate/STIM_008.jpg
172.574	2.628	1	regulate	Run1	regulate/STIM_008.jpg
178.884	1.789	1	regulate	Run1	regulate/STIM_008.jpg
184.115	2.29	1	regulate	Run1	regulate/STIM_008.jpg
189.683	3.098	1	regulate	Run1	regulate/STIM_009.jpg
194.795	1.405	1	regulate	Run1	regulate/STIM_009.jpg
199.329	2.675	1	regulate	Run1	regulate/STIM_009.jpg
205.256	1.208	1	regulate	Run1	regulate/STIM_009.jpg
209.361	3.158	1	regulate	Run1	regulate/STIM_010.jpg
215.186	2.934	1	regulate	Run1	regulate/STIM_010.jpg
220.655	1.611	1	regulate	Run1	regulate/STIM_010.jpg
225.838	2.65	1	regulate	Run1	regulate/STIM_010.jpg
230.559	1.568	1	regulate	Run1	regulate/STIM_011.jpg
236.063	2.346	1	regulate	Run1	regulate/STIM_011.jpg
241.715	1.694	1	regulate	Run1	regulate/STIM_011.jpg
247.328	2.141	1	regulate	Run1	regulate/STIM_011.jpg
253.167	2.298	1	regulate	Run1	regulate/STIM_012.jpg
258.137	1.867	1	regulate	Run1	regulate/STIM_012.jpg
262.692	1.802	1	regulate	Run1	regulate/STIM_012.jpg
266.745	2.273	1	regulate	Run1	regulate/STIM_012.jpg
271.228	1.85	1	regulate	Run1	regulate/STIM_013.jpg
276.633	1.364	1	regulate	Run1	regulate/STIM_013.jpg
280.634	1.627	1	regulate	Run1	regulate/STIM_013.jpg
285.698	2.699	1	regulate	Run1	regulate/STIM_013.jpg
290.768	2.912	1	regulate	Run1	regulate/STIM_014.jpg
296.601	2.94	1	regulate	Run1	regulate/STIM_014.jpg
302.892	1.948	1	regulate	Run1	regulate/STIM_014.jpg
307.011	1.352	1	regulate	Run1	regulate/STIM_014.jpg
310.997	1.843	1	regulate	Run1	regulate/STIM_015.jpg
315.611	1.998	1	regulate	Run1	regulate/STIM_015.jpg
320.233	1.59	1	regulate	Run1	regulate/STIM_015.jpg
325.394	2.002	1	regulate	Run1	regulate/STIM_015.jpg
329.488	2.362	1	regulate	Run1	regulate/STIM_016.jpg
335.613	1.677	1	regulate	Run1	regulate/STIM_016.jpg
339.648	1.611	1	regulate	Run1	regulate/STIM_016.jpg
343.408	2.519	1	regulate	Run1	regulate/STIM_016.jpg
349.212	3.009	0	regulate	Run1	regulate/STIM_017.jpg
355.086	2.637	1	regulate	Run1	regulate/STIM_017.jpg
360.351	2.678	1	regulate	Run1	regulate/STIM_017.jpg
365.295	2.613	0	regulate	Run1	regulate/STIM_017.jpg
371.183	3.014	1	regulate	Run1	regulate/STIM_018.jpg
377.011	1.451	1	regulate	Run1	regulate/STIM_018.jpg
380.78	2.745	1	regulate	Run1	regulate/STIM_018.jpg
385.591	1.474	1	regulate	Run1	regulate/STIM_018.jpg
390.068	2.332	1	regulate	Run1	regulate/STIM_019.jpg
396.295	2.926	1	regulate	Run1	regulate/STIM_019.jpg
402.133	2.502	1	regulate	Run1	regulate/STIM_019.jpg
408.509	2.556	1	regulate	Run1	regulate/STIM_019.jpg
414.336	2.809	1	regulate	Run1	regulate/STIM_020.jpg
420.931	2.995	1	regulate	Run1	regulate/STIM_020.jpg
427.385	1.383	1	regulate	Run1	regulate/STIM_020.jpg
432.355	1.913	1	regulate	Run1	regulate/STIM_020.jpg
437.874	2.502	1	regulate	Run1	regulate/STIM_021.jpg
444.034	2.408	1	regulate	Run1	regulate/STIM_021.jpg
448.448	2.193	1	regulate	Run1	regulate/STIM_021.jpg
453.003	2.219	1	regulate	Run1	regulate/STIM_021.jpg
459.132	1.937	1	regulate	Run1	regulate/STIM_022.jpg
463.729	1.563	1	regulate	Run1	regulate/STIM_022.jpg
467.446	2.128	1	regulate	Run1	regulate/STIM_022.jpg
472.15	1.216	1	regulate	Run1	regulate/STIM_022.jpg
476.297	1.801	1	regulate	Run1	regulate/STIM_023.jpg
482.097	2.027	1	regulate	Run1	regulate/STIM_023.jpg
486.46	2.764	1	regulate	Run1	regulate/STIM_023.jpg
492.003	1.256	1	regulate	Run1	regulate/STIM_023.jpg
495.863	2.736	1	regulate	Run1	regulate/STIM_024.jpg
501.411	1.742	1	regulate	Run1	regulate/STIM_024.jpg
506.195	2.442	1	regulate	Run1	regulate/STIM_024.jpg
511.512	1.478	1	regulate	Run1	regulate/STIM_024.jpg
516.895	1.717	1	regulate	Run1	regulate/STIM_025.jpg
522.558	2.727	1	regulate	Run1	regulate/STIM_025.jpg
529.043	2.461	1	regulate	Run1	regulate/STIM_025.jpg
533.886	2.477	1	regulate	Run1	regulate/STIM_025.jpg
538.971	3.021	1	regulate	Run1	regulate/STIM_026.jpg
544.121	2.545	1	regulate	Run1	regulate/STIM_026.jpg
549.218	2.238	1	regulate	Run1	regulate/STIM_026.jpg
553.779	1.222	1	regulate	Run1	regulate/STIM_026.jpg
557.393	2.009	1	regulate	Run1	regulate/STIM_027.jpg
563.093	1.905	1	regulate	Run1	regulate/STIM_027.jpg
567.283	2.774	1	regulate	Run1	regulate/STIM_027.jpg
572.84	2.412	1	regulate	Run1	regulate/STIM_027.jpg
578.95	2.273	1	regulate	Run1	regulate/STIM_028.jpg
584.193	1.71	1	regulate	Run1	regulate/STIM_028.jpg
588.667	2.12	1	regulate	Run1	regulate/STIM_028.jpg
592.987	1.917	1	regulate	Run1	regulate/STIM_028.jpg
598.727	2.843	1	regulate	Run1	regulate/STIM_029.jpg
603.92	1.422	1	regulate	Run1	regulate/STIM_029.jpg
608.74	1.406	1	regulate	Run1	regulate/STIM_029.jpg
612.843	2.312	1	regulate	Run1	regulate/STIM_029.jpg
618.021	0.768	1	observe	Run1	observe/STIM_000.jpg
622.357	1.235	1	observe	Run1	observe/STIM_000.jpg
626.796	1.206	1	observe	Run1	observe/STIM_000.jpg
630.37	1.265	1	observe	Run1	observe/STIM_000.jpg
633.971	0.903	1	observe	Run1	observe/STIM_001.jpg
638.222	1.23	1	observe	Run1	observe/STIM_001.jpg
641.773	1.143	1	observe	Run1	observe/STIM_001.jpg
646.624	1.097	1	observe	Run1	observe/STIM_001.jpg
650.8	1.465	1	observe	Run1	observe/STIM_002.jpg
655.748	1.359	1	observe	Run1	observe/STIM_002.jpg
660.912	1.152	1	observe	Run1	observe/STIM_002.jpg
665.617	1.437	1	observe	Run1	observe/STIM_002.jpg
670.951	1.478	1	observe	Run1	observe/STIM_003.jpg
674.438	0.804	1	observe	Run1	observe/STIM_003.jpg
678.729	1.15	1	observe	Run1	observe/STIM_003.jpg
683.393	0.893	1	observe	Run1	observe/STIM_003.jpg
686.728	0.794	1	observe	Run1	observe/STIM_004.jpg
691.423	1.433	1	observe	Run1	observe/STIM_004.jpg
696.656	1.008	1	observe	Run1	observe/STIM_004.jpg
700.448	1.178	1	observe	Run1	observe/STIM_004.jpg
704.693	0.84	1	observe	Run1	observe/STIM_005.jpg
709.519	1.468	1	observe	Run1	observe/STIM_005.jpg
714.457	1.053	1	observe	Run1	observe/STIM_005.jpg
719.366	1.171	1	observe	Run1	observe/STIM_005.jpg
723.852	1.071	1	observe	Run1	observe/STIM_006.jpg
727.207	1.218	1	observe	Run1	observe/STIM_006.jpg
731.491	1.189	1	observe	Run1	observe/STIM_006.jpg
736.244	0.963	1	observe	Run1	observe/STIM_006.jpg
740.722	0.763	1	observe	Run1	observe/STIM_007.jpg
743.973	0.761	1	observe	Run1	observe/STIM_007.jpg
747.491	1.012	1	observe	Run1	observe/STIM_007.jpg
752.193	1.283	1	observe	Run1	observe/STIM_007.jpg
756.322	1.318	1	observe	Run1	observe/STIM_008.jpg
760.051	0.984	1	observe	Run1	observe/STIM_008.jpg
763.609	0.932	1	observe	Run1	observe/STIM_008.jpg
766.754	1.093	1	observe	Run1	observe/STIM_008.jpg
771.591	1.266	1	observe	Run1	observe/STIM_009.jpg
776.342	1.201	0	observe	Run1	observe/STIM_009.jpg
780.627	1.052	1	observe	Run1	observe/STIM_009.jpg
785.454	0.803	1	observe	Run1	observe/STIM_009.jpg
789.509	0.768	1	observe	Run1	observe/STIM_010.jpg
793.071	1.428	1	observe	Run1	observe/STIM_010.jpg
797.354	1.48	0	observe	Run1	observe/STIM_010.jpg
802.692	1.03	1	observe	Run1	observe/STIM_010.jpg
806.175	1.293	1	observe	Run1	observe/STIM_011.jpg
810.41	0.939	1	observe	Run1	observe/STIM_011.jpg
815.108	1.148	1	observe	Run1	observe/STIM_011.jpg
819.345	0.969	1	observe	Run1	observe/STIM_011.jpg
824.312	0.935	1	observe	Run1	observe/STIM_012.jpg
828.288	0.773	1	observe	Run1	observe/STIM_012.jpg
831.89	1.207	1	observe	Run1	observe/STIM_012.jpg
836.471	0.876	1	observe	Run1	observe/STIM_012.jpg
839.495	1.187	1	observe	Run1	observe/STIM_013.jpg
844.281	1.151	1	observe	Run1	observe/STIM_013.jpg
847.994	1.337	1	observe	Run1	observe/STIM_013.jpg
851.716	1.36	1	observe	Run1	observe/STIM_013.jpg
856.059	1.079	1	observe	Run1	observe/STIM_014.jpg
859.791	0.76	1	observe	Run1	observe/STIM_014.jpg
863.663	1.354	1	observe	Run1	observe/STIM_014.jpg
867.902	0.994	1	observe	Run1	observe/STIM_014.jpg
872.606	1.405	1	observe	Run1	observe/STIM_015.jpg
877.534	1.124	1	observe	Run1	observe/STIM_015.jpg
882.054	0.859	1	observe	Run1	observe/STIM_015.jpg
885.373	0.847	1	observe	Run1	observe/STIM_015.jpg
888.858	1.283	1	observe	Run1	observe/STIM_016.jpg
892.606	0.928	1	observe	Run1	observe/STIM_016.jpg
896.749	1.074	1	observe	Run1	observe/STIM_016.jpg
901.505	0.762	1	observe	Run1	observe/STIM_016.jpg
905.068	1.39	1	observe	Run1	observe/STIM_017.jpg
909.151	1.099	1	observe	Run1	observe/STIM_017.jpg
913.382	1.107	1	observe	Run1	observe/STIM_017.jpg
917.187	1.504	1	observe	Run1	observe/STIM_017.jpg
922.519	1.399	1	observe	Run1	observe/STIM_018.jpg
927.074	1.18	1	observe	Run1	observe/STIM_018.jpg
931.664	1.04	1	observe	Run1	observe/STIM_018.jpg
935.263	1.166	1	observe	Run1	observe/STIM_018.jpg
939.042	1.317	1	observe	Run1	observe/STIM_019.jpg
942.858	0.958	1	observe	Run1	observe/STIM_019.jpg
946.124	1.202	1	observe	Run1	observe/STIM_019.jpg
951.231	1.159	1	observe	Run1	observe/STIM_019.jpg
955.774	1.614	1	regulate	Run2	regulate/STIM_000.jpg
959.725	1.876	1	regulate	Run2	regulate/STIM_000.jpg
964.767	2.022	1	regulate	Run2	regulate/STIM_000.jpg
970.468	1.013	1	regulate	Run2	regulate/STIM_000.jpg
974.632	2.639	1	regulate	Run2	regulate/STIM_001.jpg
980.158	2.156	1	regulate	Run2	regulate/STIM_001.jpg
985.381	2.397	1	regulate	Run2	regulate/STIM_001.jpg
990.651	2.12	1	regulate	Run2	regulate/STIM_001.jpg
996.758	2.637	1	regulate	Run2	regulate/STIM_002.jpg
1002.238	2.182	1	regulate	Run2	regulate/STIM_002.jpg
1007.948	1.519	1	regulate	Run2	regulate/STIM_002.jpg
1011.906	2.272	1	regulate	Run2	regulate/STIM_002.jpg
1017.587	1.853	1	regulate	Run2	regulate/STIM_003.jpg
1021.924	2.419	1	regulate	Run2	regulate/STIM_003.jpg
1026.67	2.425	1	regulate	Run2	regulate/STIM_003.jpg
1032.407	2.192	1	regulate	Run2	regulate/STIM_003.jpg
1036.807	1.754	1	regulate	Run2	regulate/STIM_004.jpg
1041.391	2.064	1	regulate	Run2	regulate/STIM_004.jpg
1045.931	2.259	1	regulate	Run2	regulate/STIM_004.jpg
1050.585	2.052	1	regulate	Run2	regulate/STIM_004.jpg
1054.65	1.941	1	regulate	Run2	regulate/STIM_005.jpg
1059.683	1.326	1	regulate	Run2	regulate/STIM_005.jpg
1064.303	1.23	1	regulate	Run2	regulate/STIM_005.jpg
1068.963	1.825	1	regulate	Run2	regulate/STIM_005.jpg
1073.833	1.937	1	regulate	Run2	regulate/STIM_006.jpg
1078.71	2.269	1	regulate	Run2	regulate/STIM_006.jpg
1083.123	1.823	1	regulate	Run2	regulate/STIM_006.jpg
1088.888	1.426	1	regulate	Run2	regulate/STIM_006.jpg
1093.946	1.963	1	regulate	Run2	regulate/STIM_007.jpg
1098.756	2.506	1	regulate	Run2	regulate/STIM_007.jpg
1103.494	2.079	1	regulate	Run2	regulate/STIM_007.jpg
1108.246	2.203	1	regulate	Run2	regulate/STIM_007.jpg
1114.011	1.721	1	regulate	Run2	regulate/STIM_008.jpg
1118.37	2.336	1	regulate	Run2	regulate/STIM_008.jpg
1123.182	1.957	1	regulate	Run2	regulate/STIM_008.jpg
1128.638	1.158	1	regulate	Run2	regulate/STIM_008.jpg
1131.994	1.248	1	regulate	Run2	regulate/STIM_009.jpg
1136.543	2.524	1	regulate	Run2	regulate/STIM_009.jpg
1142.754	1.179	1	regulate	Run2	regulate/STIM_009.jpg
1147.84	2.276	1	regulate	Run2	regulate/STIM_009.jpg
1153.994	1.386	1	regulate	Run2	regulate/STIM_010.jpg
1158.074	2.056	1	regulate	Run2	regulate/STIM_010.jpg
1162.22	1.56	1	regulate	Run2	regulate/STIM_010.jpg
1167.017	1.942	1	regulate	Run2	regulate/STIM_010.jpg
1172.57	2.595	1	regulate	Run2	regulate/STIM_011.jpg
1178.788	1.36	1	regulate	Run2	regulate/STIM_011.jpg
1182.242	1.33	1	regulate	Run2	regulate/STIM_011.jpg
1187.563	1.989	1	regulate	Run2	regulate/STIM_011.jpg
1192.733	1.946	1	regulate	Run2	regulate/STIM_012.jpg
1197.247	2.087	1	regulate	Run2	regulate/STIM_012.jpg
1201.608	2.081	1	regulate	Run2	regulate/STIM_012.jpg
1207.237	1.304	1	regulate	Run2	regulate/STIM_012.jpg
1211.644	2.488	1	regulate	Run2	regulate/STIM_013.jpg
1217.887	1.924	1	regulate	Run2	regulate/STIM_013.jpg
1222.3	1.966	1	regulate	Run2	regulate/STIM_013.jpg
1226.684	1.304	1	regulate	Run2	regulate/STIM_013.jpg
1231.427	2.053	1	regulate	Run2	regulate/STIM_014.jpg
1236.459	2.611	1	regulate	Run2	regulate/STIM_014.jpg
1241.792	1.277	1	regulate	Run2	regulate/STIM_014.jpg
1246.647	2.295	0	regulate	Run2	regulate/STIM_014.jpg
1251.36	1.303	1	regulate	Run2	regulate/STIM_015.jpg
1255.341	1.453	1	regulate	Run2	regulate/STIM_015.jpg
1259.626	1.458	1	regulate	Run2	regulate/STIM_015.jpg
1264.672	1.404	1	regulate	Run2	regulate/STIM_015.jpg
1269.114	1.322	1	regulate	Run2	regulate/STIM_016.jpg
1272.872	2.159	1	regulate	Run2	regulate/STIM_016.jpg
1277.492	1.507	1	regulate	Run2	regulate/STIM_016.jpg
1281.585	2.14	1	regulate	Run2	regulate/STIM_016.jpg
1286.966	2.235	1	regulate	Run2	regulate/STIM_017.jpg
1292.226	1.302	1	regulate	Run2	regulate/STIM_017.jpg
1295.535	1.371	1	regulate	Run2	regulate/STIM_017.jpg
1299.694	1.626	1	regulate	Run2	regulate/STIM_017.jpg
1304.648	1.651	1	regulate	Run2	regulate/STIM_018.jpg
1308.867	2.574	1	regulate	Run2	regulate/STIM_018.jpg
1314.367	1.651	0	regulate	Run2	regulate/STIM_018.jpg
1319.974	2.129	1	regulate	Run2	regulate/STIM_018.jpg
1324.231	1.251	1	regulate	Run2	regulate/STIM_019.jpg
1327.627	1.532	1	regulate	Run2	regulate/STIM_019.jpg
1332.292	2.258	1	regulate	Run2	regulate/STIM_019.jpg
1336.62	1.923	1	regulate	Run2	regulate/STIM_019.jpg
1341.521	1.999	1	regulate	Run2	regulate/STIM_020.jpg
1345.896	1.422	1	regulate	Run2	regulate/STIM_020.jpg
1349.447	1.768	1	regulate	Run2	regulate/STIM_020.jpg
1353.488	1.996	1	regulate	Run2	regulate/STIM_020.jpg
1359.083	2.787	1	regulate	Run2	regulate/STIM_021.jpg
1364.453	1.349	1	regulate	Run2	regulate/STIM_021.jpg
1369.395	2.443	1	regulate	Run2	regulate/STIM_021.jpg
1374.734	2.064	1	regulate	Run2	regulate/STIM_021.jpg
1379.524	2.708	1	regulate	Run2	regulate/STIM_022.jpg
1384.482	1.206	1	regulate	Run2	regulate/STIM_022.jpg
1388.165	2.211	1	regulate	Run2	regulate/STIM_022.jpg
1392.488	1.298	1	regulate	Run2	regulate/STIM_022.jpg
1397.39	1.473	1	regulate	Run2	regulate/STIM_023.jpg
1401.255	1.534	1	regulate	Run2	regulate/STIM_023.jpg
1405.917	1.964	1	regulate	Run2	regulate/STIM_023.jpg
1411.068	2.055	1	regulate	Run2	regulate/STIM_023.jpg
1416.826	2.134	1	regulate	Run2	regulate/STIM_024.jpg
1422.257	2.594	1	regulate	Run2	regulate/STIM_024.jpg
1428.604	1.239	1	regulate	Run2	regulate/STIM_024.jpg
1432.679	1.606	1	regulate	Run2	regulate/STIM_024.jpg
1437.385	1.663	1	regulate	Run2	regulate/STIM_025.jpg
1442.526	1.972	1	regulate	Run2	regulate/STIM_025.jpg
1446.724	2.436	1	regulate	Run2	regulate/STIM_025.jpg
1451.814	1.106	1	regulate	Run2	regulate/STIM_025.jpg
1456.677	1.454	1	regulate	Run2	regulate/STIM_026.jpg
1461.939	1.238	1	regulate	Run2	regulate/STIM_026.jpg
1465.982	1.623	1	regulate	Run2	regulate/STIM_026.jpg
1470.512	1.213	1	regulate	Run2	regulate/STIM_026.jpg
1474.944	2.75	1	regulate	Run2	regulate/STIM_027.jpg
1480.679	1.844	1	regulate	Run2	regulate/STIM_027.jpg
1485.775	2.038	1	regulate	Run2	regulate/STIM_027.jpg
1491.489	1.531	1	regulate	Run2	regulate/STIM_027.jpg
1496.505	2.404	1	regulate	Run2	regulate/STIM_028.jpg
1501.887	1.779	1	regulate	Run2	regulate/STIM_028.jpg
1505.98	1.821	1	regulate	Run2	regulate/STIM_028.jpg
1509.861	2.05	1	regulate	Run2	regulate/STIM_028.jpg
1514.737	2.592	1	regulate	Run2	regulate/STIM_029.jpg
1519.699	1.838	1	regulate	Run2	regulate/STIM_029.jpg
1523.613	1.803	1	regulate	Run2	regulate/STIM_029.jpg
1527.574	1.911	1	regulate	Run2	regulate/STIM_029.jpg
1532.21	0.988	1	observe	Run2	observe/STIM_000.jpg
1537.127	1.266	0	observe	Run2	observe/STIM_000.jpg
1541.192	0.806	1	observe	Run2	observe/STIM_000.jpg
1545.306	1.082	1	observe	Run2	observe/STIM_000.jpg
1550.068	1.022	0	observe	Run2	observe/STIM_001.jpg
1554.275	0.942	1	observe	Run2	observe/STIM_001.jpg
1558.404	1.217	1	observe	Run2	observe/STIM_001.jpg
1562.868	1.147	1	observe	Run2	observe/STIM_001.jpg
1567.041	0.988	1	observe	Run2	observe/STIM_002.jpg
1570.291	0.839	1	observe	Run2	observe/STIM_002.jpg
1574.659	1.269	1	observe	Run2	observe/STIM_002.jpg
1579.504	0.882	1	observe	Run2	observe/STIM_002.jpg
1582.895	1.461	1	observe	Run2	observe/STIM_003.jpg
1586.926	0.795	1	observe	Run2	observe/STIM_003.jpg
1590.767	1.47	1	observe	Run2	observe/STIM_003.jpg
1596.216	1.079	1	observe	Run2	observe/STIM_003.jpg
1600.492	0.839	1	observe	Run2	observe/STIM_004.jpg
1605.052	1.359	1	observe	Run2	observe/STIM_004.jpg
1609.579	0.772	1	observe	Run2	observe/STIM_004.jpg
1613.085	0.915	1	observe	Run2	observe/STIM_004.jpg
1616.384	1.061	1	observe	Run2	observe/STIM_005.jpg
1621.197	1.035	1	observe	Run2	observe/STIM_005.jpg
1624.728	1.163	1	observe	Run2	observe/STIM_005.jpg
1628.832	1.248	1	observe	Run2	observe/STIM_005.jpg
1633.1	0.981	1	observe	Run2	observe/STIM_006.jpg
1638.009	0.96	1	observe	Run2	observe/STIM_006.jpg
1642.771	0.938	1	observe	Run2	observe/STIM_006.jpg
1645.873	1.452	1	observe	Run2	observe/STIM_006.jpg
1651.051	0.973	1	observe	Run2	observe/STIM_007.jpg
1655.666	1.4	1	observe	Run2	observe/STIM_007.jpg
1659.654	1.026	1	observe	Run2	observe/STIM_007.jpg
1663.295	1.436	1	observe	Run2	observe/STIM_007.jpg
1667.525	1.081	1	observe	Run2	observe/STIM_008.jpg
1671.261	0.85	1	observe	Run2	observe/STIM_008.jpg
1674.238	1.068	1	observe	Run2	observe/STIM_008.jpg
1678.057	0.985	1	observe	Run2	observe/STIM_008.jpg
1682.953	1.245	1	observe	Run2	observe/STIM_009.jpg
1688.127	1.305	1	observe	Run2	observe/STIM_009.jpg
1693.144	1.072	1	observe	Run2	observe/STIM_009.jpg
1697.224	1.289	1	observe	Run2	observe/STIM_009.jpg
1700.615	1.207	1	observe	Run2	observe/STIM_010.jpg
1705.592	0.855	1	observe	Run2	observe/STIM_010.jpg
1709.463	0.838	1	observe	Run2	observe/STIM_010.jpg
1712.679	1.19	1	observe	Run2	observe/STIM_010.jpg
1716.958	1.378	1	observe	Run2	observe/STIM_011.jpg
1722.286	0.93	1	observe	Run2	observe/STIM_011.jpg
1726.66	1.289	1	observe	Run2	observe/STIM_011.jpg
1731.71	0.758	1	observe	Run2	observe/STIM_011.jpg
1735.901	1.292	1	observe	Run2	observe/STIM_012.jpg
1739.608	1.058	1	observe	Run2	observe/STIM_012.jpg
1743.478	0.757	1	observe	Run2	observe/STIM_012.jpg
1746.811	0.763	1	observe	Run2	observe/STIM_012.jpg
1750.489	1.205	1	observe	Run2	observe/STIM_013.jpg
1755.564	1.491	1	observe	Run2	observe/STIM_013.jpg
1759.606	1.258	1	observe	Run2	observe/STIM_013.jpg
1764.649	0.842	1	observe	Run2	observe/STIM_013.jpg
1768.026	0.764	1	observe	Run2	observe/STIM_014.jpg
1771.226	1.415	1	observe	Run2	observe/STIM_014.jpg
1775.121	0.882	1	observe	Run2	observe/STIM_014.jpg
1779.315	1.333	1	observe	Run2	observe/STIM_014.jpg
1782.65	0.778	1	observe	Run2	observe/STIM_015.jpg
1787.247	1.269	1	observe	Run2	observe/STIM_015.jpg
1792.225	1.243	1	observe	Run2	observe/STIM_015.jpg
1795.856	1.5	1	observe	Run2	observe/STIM_015.jpg
1801.042	1.265	1	observe	Run2	observe/STIM_016.jpg
1805.808	0.87	1	observe	Run2	observe/STIM_016.jpg
1810.236	1.02	1	observe	Run2	observe/STIM_016.jpg
1813.303	1.488	1	observe	Run2	observe/STIM_016.jpg
1818.625	0.954	1	observe	Run2	observe/STIM_017.jpg
1821.759	1.311	1	observe	Run2	observe/STIM_017.jpg
1825.427	1.315	1	observe	Run2	observe/STIM_017.jpg
1830.603	0.767	1	observe	Run2	observe/STIM_017.jpg
1834.808	1.496	1	observe	Run2	observe/STIM_018.jpg
1838.732	1.305	1	observe	Run2	observe/STIM_018.jpg
1843.353	0.853	1	observe	Run2	observe/STIM_018.jpg
1848.052	0.79	1	observe	Run2	observe/STIM_018.jpg
1852.49	0.879	1	observe	Run2	observe/STIM_019.jpg
1856.444	1.446	1	observe	Run2	observe/STIM_019.jpg
1861.739	1.18	1	observe	Run2	observe/STIM_019.jpg
1865.1	0.866	1	observe	Run2	observe/STIM_019.jpg
1868.477	0.998	1	regulate	Run3	regulate/STIM_000.jpg
1872.793	1.348	1	regulate	Run3	regulate/STIM_000.jpg
1877.007	2.188	1	regulate	Run3	regulate/STIM_000.jpg
1881.239	1.012	1	regulate	Run3	regulate/STIM_000.jpg
1884.576	1.61	1	regulate	Run3	regulate/STIM_001.jpg
1888.946	1.704	1	regulate	Run3	regulate/STIM_001.jpg
1892.895	1.788	1	regulate	Run3	regulate/STIM_001.jpg
1897.967	2.164	1	regulate	Run3	regulate/STIM_001.jpg
1902.453	1.109	1	regulate	Run3	regulate/STIM_002.jpg
1906.076	1.875	1	regulate	Run3	regulate/STIM_002.jpg
1911.414	2.034	1	regulate	Run3	regulate/STIM_002.jpg
1916.203	0.989	1	regulate	Run3	regulate/STIM_002.jpg
1919.732	1.58	1	regulate	Run3	regulate/STIM_003.jpg
1925.304	2.182	1	regulate	Run3	regulate/STIM_003.jpg
1930.323	2.123	1	regulate	Run3	regulate/STIM_003.jpg
1935.519	1.732	1	regulate	Run3	regulate/STIM_003.jpg
1939.685	1.967	1	regulate	Run3	regulate/STIM_004.jpg
1944.855	2.271	1	regulate	Run3	regulate/STIM_004.jpg
1950.193	1.644	1	regulate	Run3	regulate/STIM_004.jpg
1953.94	1.215	1	regulate	Run3	regulate/STIM_004.jpg
1957.269	1.917	1	regulate	Run3	regulate/STIM_005.jpg
1961.447	1.694	1	regulate	Run3	regulate/STIM_005.jpg
1965.666	1.091	1	regulate	Run3	regulate/STIM_005.jpg
1969.203	2.276	1	regulate	Run3	regulate/STIM_005.jpg
1974.153	1.447	1	regulate	Run3	regulate/STIM_006.jpg
1977.963	1.75	1	regulate	Run3	regulate/STIM_006.jpg
1983.659	1.298	1	regulate	Run3	regulate/STIM_006.jpg
1988.713	2.029	1	regulate	Run3	regulate/STIM_006.jpg
1994.547	2.027	1	regulate	Run3	regulate/STIM_007.jpg
1999.133	1.591	1	regulate	Run3	regulate/STIM_007.jpg
2002.925	1.754	1	regulate	Run3	regulate/STIM_007.jpg
2008.209	1.68	1	regulate	Run3	regulate/STIM_007.jpg
2013.462	1.832	1	regulate	Run3	regulate/STIM_008.jpg
2018.753	2.181	1	regulate	Run3	regulate/STIM_008.jpg
2024.616	1.839	1	regulate	Run3	regulate/STIM_008.jpg
2028.844	1.326	1	regulate	Run3	regulate/STIM_008.jpg
2033.197	1.222	1	regulate	Run3	regulate/STIM_009.jpg
2037.752	0.992	1	regulate	Run3	regulate/STIM_009.jpg
2042.298	1.0	1	regulate	Run3	regulate/STIM_009.jpg
2045.675	1.986	1	regulate	Run3	regulate/STIM_009.jpg
2050.634	1.579	1	regulate	Run3	regulate/STIM_010.jpg
2056.076	1.401	1	regulate	Run3	regulate/STIM_010.jpg
2060.772	1.168	1	regulate	Run3	regulate/STIM_010.jpg
2064.41	1.771	1	regulate	Run3	regulate/STIM_010.jpg
2069.042	2.005	1	regulate	Run3	regulate/STIM_011.jpg
2073.165	1.661	1	regulate	Run3	regulate/STIM_011.jpg
2077.712	1.957	1	regulate	Run3	regulate/STIM_011.jpg
2082.811	1.203	1	regulate	Run3	regulate/STIM_011.jpg
2087.328	1.666	1	regulate	Run3	regulate/STIM_012.jpg
2091.481	1.133	1	regulate	Run3	regulate/STIM_012.jpg
2095.649	1.592	1	regulate	Run3	regulate/STIM_012.jpg
2101.033	1.607	1	regulate	Run3	regulate/STIM_012.jpg
2105.685	1.392	1	regulate	Run3	regulate/STIM_013.jpg
2109.376	2.007	1	regulate	Run3	regulate/STIM_013.jpg
2114.336	1.103	1	regulate	Run3	regulate/STIM_013.jpg
2119.078	1.079	1	regulate	Run3	regulate/STIM_013.jpg
2123.88	2.144	1	regulate	Run3	regulate/STIM_014.jpg
2128.313	2.06	0	regulate	Run3	regulate/STIM_014.jpg
2133.548	1.023	1	regulate	Run3	regulate/STIM_014.jpg
2137.08	1.191	1	regulate	Run3	regulate/STIM_014.jpg
2141.107	2.088	1	regulate	Run3	regulate/STIM_015.jpg
2147.093	2.22	1	regulate	Run3	regulate/STIM_015.jpg
2151.754	1.6	1	regulate	Run3	regulate/STIM_015.jpg
2155.429	2.163	1	regulate	Run3	regulate/STIM_015.jpg
2160.801	1.214	1	regulate	Run3	regulate/STIM_016.jpg
2165.715	1.118	1	regulate	Run3	regulate/STIM_016.jpg
2169.723	2.206	1	regulate	Run3	regulate/STIM_016.jpg
2175.844	1.531	1	regulate	Run3	regulate/STIM_016.jpg
2179.433	1.733	1	regulate	Run3	regulate/STIM_017.jpg
2185.041	1.077	1	regulate	Run3	regulate/STIM_017.jpg
2188.861	1.506	1	regulate	Run3	regulate/STIM_017.jpg
2193.405	2.144	1	regulate	Run3	regulate/STIM_017.jpg
2198.806	1.188	1	regulate	Run3	regulate/STIM_018.jpg
2203.806	1.063	1	regulate	Run3	regulate/STIM_018.jpg
2207.916	2.228	1	regulate	Run3	regulate/STIM_018.jpg
2213.104	1.857	1	regulate	Run3	regulate/STIM_018.jpg
2217.795	1.55	1	regulate	Run3	regulate/STIM_019.jpg
2222.886	2.057	1	regulate	Run3	regulate/STIM_019.jpg
2228.276	1.209	1	regulate	Run3	regulate/STIM_019.jpg
2232.447	2.142	1	regulate	Run3	regulate/STIM_019.jpg
2237.875	1.209	1	regulate	Run3	regulate/STIM_020.jpg
2241.833	1.048	1	regulate	Run3	regulate/STIM_020.jpg
2245.887	1.22	1	regulate	Run3	regulate/STIM_020.jpg
2249.194	1.861	1	regulate	Run3	regulate/STIM_020.jpg
2254.858	1.825	1	regulate	Run3	regulate/STIM_021.jpg
2258.922	2.188	1	regulate	Run3	regulate/STIM_021.jpg
2265.09	1.722	1	regulate	Run3	regulate/STIM_021.jpg
2268.909	2.221	1	regulate	Run3	regulate/STIM_021.jpg
2273.236	2.23	1	regulate	Run3	regulate/STIM_022.jpg
2277.498	1.129	1	regulate	Run3	regulate/STIM_022.jpg
2282.312	1.038	1	regulate	Run3	regulate/STIM_022.jpg
2286.582	1.641	1	regulate	Run3	regulate/STIM_022.jpg
2291.19	1.049	1	regulate	Run3	regulate/STIM_023.jpg
2295.274	1.758	1	regulate	Run3	regulate/STIM_023.jpg
2299.993	1.906	1	regulate	Run3	regulate/STIM_023.jpg
2305.274	1.868	1	regulate	Run3	regulate/STIM_023.jpg
2309.344	1.017	1	regulate	Run3	regulate/STIM_024.jpg
2312.86	2.087	1	regulate	Run3	regulate/STIM_024.jpg
2318.913	1.309	1	regulate	Run3	regulate/STIM_024.jpg
2322.725	1.529	1	regulate	Run3	regulate/STIM_024.jpg
2328.034	2.28	1	regulate	Run3	regulate/STIM_025.jpg
2333.328	2.237	1	regulate	Run3	regulate/STIM_025.jpg
2337.913	1.529	1	regulate	Run3	regulate/STIM_025.jpg
2343.204	1.0	1	regulate	Run3	regulate/STIM_025.jpg
2346.583	1.053	1	regulate	Run3	regulate/STIM_026.jpg
2351.407	1.167	1	regulate	Run3	regulate/STIM_026.jpg
2356.404	1.913	1	regulate	Run3	regulate/STIM_026.jpg
2361.36	2.271	1	regulate	Run3	regulate/STIM_026.jpg
2366.5	1.849	1	regulate	Run3	regulate/STIM_027.jpg
2370.842	1.163	1	regulate	Run3	regulate/STIM_027.jpg
2375.155	1.316	1	regulate	Run3	regulate/STIM_027.jpg
2378.547	1.86	1	regulate	Run3	regulate/STIM_027.jpg
2384.394	1.013	1	regulate	Run3	regulate/STIM_028.jpg
2389.37	1.307	1	regulate	Run3	regulate/STIM_028.jpg
2393.291	1.733	1	regulate	Run3	regulate/STIM_028.jpg
2398.769	1.562	1	regulate	Run3	regulate/STIM_028.jpg
2402.448	1.954	1	regulate	Run3	regulate/STIM_029.jpg
2406.891	1.113	1	regulate	Run3	regulate/STIM_029.jpg
2411.156	2.092	1	regulate	Run3	regulate/STIM_029.jpg
2416.349	2.125	1	regulate	Run3	regulate/STIM_029.jpg
2422.0	1.305	1	observe	Run3	observe/STIM_000.jpg
2426.15	1.01	1	observe	Run3	observe/STIM_000.jpg
2429.677	1.36	1	observe	Run3	observe/STIM_000.jpg
2434.257	1.403	1	observe	Run3	observe/STIM_000.jpg
2438.909	0.882	1	observe	Run3	observe/STIM_001.jpg
2443.08	1.219	1	observe	Run3	observe/STIM_001.jpg
2447.568	1.16	1	observe	Run3	observe/STIM_001.jpg
2452.676	0.997	1	observe	Run3	observe/STIM_001.jpg
2457.407	0.953	1	observe	Run3	observe/STIM_002.jpg
2460.932	1.011	1	observe	Run3	observe/STIM_002.jpg
2464.028	1.259	1	observe	Run3	observe/STIM_002.jpg
2467.59	1.047	1	observe	Run3	observe/STIM_002.jpg
2471.181	0.941	1	observe	Run3	observe/STIM_003.jpg
2475.458	1.017	1	observe	Run3	observe/STIM_003.jpg
2478.635	1.37	1	observe	Run3	observe/STIM_003.jpg
2483.586	1.284	1	observe	Run3	observe/STIM_003.jpg
2486.97	0.772	1	observe	Run3	observe/STIM_004.jpg
2489.899	0.782	1	observe	Run3	observe/STIM_004.jpg
2493.874	1.507	1	observe	Run3	observe/STIM_004.jpg
2497.877	0.917	1	observe	Run3	observe/STIM_004.jpg
2502.045	1.452	1	observe	Run3	observe/STIM_005.jpg
2506.41	1.113	1	observe	Run3	observe/STIM_005.jpg
2510.677	1.341	1	observe	Run3	observe/STIM_005.jpg
2514.988	1.162	1	observe	Run3	observe/STIM_005.jpg
2519.096	1.248	1	observe	Run3	observe/STIM_006.jpg
2522.543	1.222	1	observe	Run3	observe/STIM_006.jpg
2525.911	0.81	1	observe	Run3	observe/STIM_006.jpg
2529.78	0.951	1	observe	Run3	observe/STIM_006.jpg
2534.356	1.181	1	observe	Run3	observe/STIM_007.jpg
2537.548	1.462	1	observe	Run3	observe/STIM_007.jpg
2541.314	1.237	1	observe	Run3	observe/STIM_007.jpg
2546.266	1.022	1	observe	Run3	observe/STIM_007.jpg
2551.232	0.885	1	observe	Run3	observe/STIM_008.jpg
2554.934	1.262	1	observe	Run3	observe/STIM_008.jpg
2559.483	1.248	1	observe	Run3	observe/STIM_008.jpg
2563.169	1.201	1	observe	Run3	observe/STIM_008.jpg
2567.445	1.319	1	observe	Run3	observe/STIM_009.jpg
2571.448	0.963	1	observe	Run3	observe/STIM_009.jpg
2575.789	1.247	1	observe	Run3	observe/STIM_009.jpg
2579.902	1.094	1	observe	Run3	observe/STIM_009.jpg
2584.931	1.226	1	observe	Run3	observe/STIM_010.jpg
2589.494	1.401	1	observe	Run3	observe/STIM_010.jpg
2594.535	1.382	1	observe	Run3	observe/STIM_010.jpg
2599.709	0.957	1	observe	Run3	observe/STIM_010.jpg
2604.415	1.174	1	observe	Run3	observe/STIM_011.jpg
2607.87	1.176	1	observe	Run3	observe/STIM_011.jpg
2612.262	1.343	0	observe	Run3	observe/STIM_011.jpg
2616.704	1.209	1	observe	Run3	observe/STIM_011.jpg
2620.974	1.429	1	observe	Run3	observe/STIM_012.jpg
2624.869	1.136	1	observe	Run3	observe/STIM_012.jpg
2629.228	1.384	1	observe	Run3	observe/STIM_012.jpg
2634.232	0.969	1	observe	Run3	observe/STIM_012.jpg
2639.105	0.978	1	observe	Run3	observe/STIM_013.jpg
2643.82	1.29	1	observe	Run3	observe/STIM_013.jpg
2647.67	1.213	1	observe	Run3	observe/STIM_013.jpg
2651.703	1.008	1	observe	Run3	observe/STIM_013.jpg
2655.989	1.201	1	observe	Run3	observe/STIM_014.jpg
2659.619	0.757	1	observe	Run3	observe/STIM_014.jpg
2663.018	1.122	1	observe	Run3	observe/STIM_014.jpg
2666.951	1.253	1	observe	Run3	observe/STIM_014.jpg
2671.643	1.293	1	observe	Run3	observe/STIM_015.jpg
2676.328	1.112	1	observe	Run3	observe/STIM_015.jpg
2680.001	1.112	1	observe	Run3	observe/STIM_015.jpg
2684.863	1.225	1	observe	Run3	observe/STIM_015.jpg
2688.09	0.906	1	observe	Run3	observe/STIM_016.jpg
2691.935	1.196	1	observe	Run3	observe/STIM_016.jpg
2695.937	1.0	1	observe	Run3	observe/STIM_016.jpg
2700.73	1.03	1	observe	Run3	observe/STIM_016.jpg
2704.693	1.151	1	observe	Run3	observe/STIM_017.jpg
2708.641	1.452	1	observe	Run3	observe/STIM_017.jpg
2712.981	1.015	0	observe	Run3	observe/STIM_017.jpg
2716.886	1.328	1	observe	Run3	observe/STIM_017.jpg
2720.433	0.962	1	observe	Run3	observe/STIM_018.jpg
2723.926	1.469	1	observe	Run3	observe/STIM_018.jpg
2728.229	0.898	1	observe	Run3	observe/STIM_018.jpg
2732.982	1.307	1	observe	Run3	observe/STIM_018.jpg
2737.902	1.323	1	observe	Run3	observe/STIM_019.jpg
2742.046	0.928	1	observe	Run3	observe/STIM_019.jpg
2746.526	1.286	1	observe	Run3	observe/STIM_019.jpg
2751.502	1.249	1	observe	Run3	observe/STIM_019.jpg
