onset	duration	accuracy	trial_type	learning_stage	stimulus
0.0	1.08	correct	incongruent	Block1	incongruent/STIM_000.jpg
4.055	0.968	correct	incongruent	Block1	incongruent/STIM_000.jpg
8.689	0.981	incorrect	incongruent	Block1	incongruent/STIM_000.jpg
12.791	1.258	incorrect	incongruent	Block1	incongruent/STIM_000.jpg
16.944	1.059	correct	incongruent	Block1	incongruent/STIM_000.jpg
21.142	1.505	correct	incongruent	Block1	incongruent/STIM_001.jpg
25.455	1.502	correct	incongruent	Block1	incongruent/STIM_001.jpg
29.764	0.987	correct	incongruent	Block1	incongruent/STIM_001.jpg
34.553	1.28	correct	incongruent	Block1	incongruent/STIM_001.jpg
39.752	0.933	correct	incongruent	Block1	incongruent/STIM_001.jpg
42.804	1.189	incorrect	incongruent	Block1	incongruent/STIM_002.jpg
46.905	0.983	correct	incongruent	Block1	incongruent/STIM_002.jpg
50.803	1.18	correct	incongruent	Block1	incongruent/STIM_002.jpg
54.708	1.267	correct	incongruent	Block1	incongruent/STIM_002.jpg
59.914	0.717	correct	incongruent	Block1	incongruent/STIM_002.jpg
63.241	1.516	correct	incongruent	Block1	incongruent/STIM_003.jpg
67.395	1.127	correct	incongruent	Block1	incongruent/STIM_003.jpg
71.179	0.822	correct	incongruent	Block1	incongruent/STIM_003.jpg
75.626	1.082	correct	incongruent	Block1	incongruent/STIM_003.jpg
80.437	0.712	correct	incongruent	Block1	incongruent/STIM_003.jpg
83.67	1.222	correct	incongruent	Block1	incongruent/STIM_004.jpg
86.965	0.833	correct	incongruent	Block1	incongruent/STIM_004.jpg
90.754	0.847	correct	incongruent	Block1	incongruent/STIM_004.jpg
95.36	1.339	correct	incongruent	Block1	incongruent/STIM_004.jpg
99.479	1.006	correct	incongruent	Block1	incongruent/STIM_004.jpg
103.638	1.168	correct	incongruent	Block1	incongruent/STIM_005.jpg
107.002	1.402	correct	incongruent	Block1	incongruent/STIM_005.jpg
112.279	0.924	correct	incongruent	Block1	incongruent/STIM_005.jpg
116.945	0.706	correct	incongruent	Block1	incongruent/STIM_005.jpg
121.28	1.19	correct	incongruent	Block1	incongruent/STIM_005.jpg
126.121	1.265	incorrect	incongruent	Block1	incongruent/STIM_006.jpg
129.916	0.78	correct	incongruent	Block1	incongruent/STIM_006.jpg
134.542	1.364	correct	incongruent	Block1	incongruent/STIM_006.jpg
138.991	1.346	correct	incongruent	Block1	incongruent/STIM_006.jpg
142.72	1.083	correct	incongruent	Block1	incongruent/STIM_006.jpg
147.252	0.958	correct	incongruent	Block1	incongruent/STIM_007.jpg
151.401	1.306	correct	incongruent	Block1	incongruent/STIM_007.jpg
155.296	1.403	correct	incongruent	Block1	incongruent/STIM_007.jpg
160.314	1.216	incorrect	incongruent	Block1	incongruent/STIM_007.jpg
165.123	0.769	correct	incongruent	Block1	incongruent/STIM_007.jpg
168.382	1.417	correct	incongruent	Block1	incongruent/STIM_008.jpg
172.893	0.867	correct	incongruent	Block1	incongruent/STIM_008.jpg
176.576	1.303	incorrect	incongruent	Block1	incongruent/STIM_008.jpg
181.051	0.913	correct	incongruent	Block1	incongruent/STIM_008.jpg
184.557	1.064	correct	incongruent	Block1	incongruent/STIM_008.jpg
188.384	0.808	correct	incongruent	Block1	incongruent/STIM_009.jpg
192.131	1.131	correct	incongruent	Block1	incongruent/STIM_009.jpg
195.314	0.909	correct	incongruent	Block1	incongruent/STIM_009.jpg
198.856	1.162	correct	incongruent	Block1	incongruent/STIM_009.jpg
202.139	1.236	correct	incongruent	Block1	incongruent/STIM_009.jpg
207.241	1.326	correct	incongruent	Block1	incongruent/STIM_010.jpg
212.548	1.208	correct	incongruent	Block1	incongruent/STIM_010.jpg
216.512	1.3	correct	incongruent	Block1	incongruent/STIM_010.jpg
220.37	1.118	correct	incongruent	Block1	incongruent/STIM_010.jpg
225.205	0.644	correct	incongruent	Block1	incongruent/STIM_010.jpg
228.485	1.573	correct	incongruent	Block1	incongruent/STIM_011.jpg
232.976	0.808	correct	incongruent	Block1	incongruent/STIM_011.jpg
236.301	0.856	correct	incongruent	Block1	incongruent/STIM_011.jpg
240.314	1.326	correct	incongruent	Block1	incongruent/STIM_011.jpg
244.473	0.688	correct	incongruent	Block1	incongruent/STIM_011.jpg
248.639	1.565	correct	incongruent	Block1	incongruent/STIM_012.jpg
253.967	1.13	correct	incongruent	Block1	incongruent/STIM_012.jpg
258.068	0.754	incorrect	incongruent	Block1	incongruent/STIM_012.jpg
261.443	1.188	correct	incongruent	Block1	incongruent/STIM_012.jpg
265.693	1.237	correct	incongruent	Block1	incongruent/STIM_012.jpg
270.339	1.418	correct	incongruent	Block1	incongruent/STIM_013.jpg
275.412	1.419	correct	incongruent	Block1	incongruent/STIM_013.jpg
280.728	0.956	correct	incongruent	Block1	incongruent/STIM_013.jpg
285.166	0.772	correct	incongruent	Block1	incongruent/STIM_013.jpg
289.528	1.28	correct	incongruent	Block1	incongruent/STIM_013.jpg
294.793	0.816	correct	incongruent	Block1	incongruent/STIM_014.jpg
298.105	1.285	correct	incongruent	Block1	incongruent/STIM_014.jpg
301.732	0.752	incorrect	incongruent	Block1	incongruent/STIM_014.jpg
305.761	1.096	correct	incongruent	Block1	incongruent/STIM_014.jpg
309.351	1.221	correct	incongruent	Block1	incongruent/STIM_014.jpg
314.146	0.807	correct	incongruent	Block1	incongruent/STIM_015.jpg
317.025	1.352	correct	incongruent	Block1	incongruent/STIM_015.jpg
322.265	0.75	correct	incongruent	Block1	incongruent/STIM_015.jpg
325.178	0.898	correct	incongruent	Block1	incongruent/STIM_015.jpg
329.119	0.891	correct	incongruent	Block1	incongruent/STIM_015.jpg
333.014	0.907	correct	incongruent	Block1	incongruent/STIM_016.jpg
336.326	0.751	correct	incongruent	Block1	incongruent/STIM_016.jpg
339.824	1.02	correct	incongruent	Block1	incongruent/STIM_016.jpg
343.415	0.815	correct	incongruent	Block1	incongruent/STIM_016.jpg
346.406	0.68	correct	incongruent	Block1	incongruent/STIM_016.jpg
350.303	0.782	correct	incongruent	Block1	incongruent/STIM_017.jpg
353.693	1.507	correct	incongruent	Block1	incongruent/STIM_017.jpg
358.898	1.117	correct	incongruent	Block1	incongruent/STIM_017.jpg
362.34	1.219	correct	incongruent	Block1	incongruent/STIM_017.jpg
365.694	0.814	correct	incongruent	Block1	incongruent/STIM_017.jpg
369.483	1.496	correct	incongruent	Block1	incongruent/STIM_018.jpg
373.549	1.466	correct	incongruent	Block1	incongruent/STIM_018.jpg
378.27	0.734	correct	incongruent	Block1	incongruent/STIM_018.jpg
381.99	1.365	correct	incongruent	Block1	incongruent/STIM_018.jpg
386.795	0.949	correct	incongruent	Block1	incongruent/STIM_018.jpg
390.134	1.16	correct	incongruent	Block1	incongruent/STIM_019.jpg
394.737	1.352	correct	incongruent	Block1	incongruent/STIM_019.jpg
399.003	1.229	incorrect	incongruent	Block1	incongruent/STIM_019.jpg
403.3	1.032	correct	incongruent	Block1	incongruent/STIM_019.jpg
406.443	0.761	correct	incongruent	Block1	incongruent/STIM_019.jpg
410.801	0.934	correct	incongruent	Block1	incongruent/STIM_020.jpg
414.135	1.373	correct	incongruent	Block1	incongruent/STIM_020.jpg
419.486	0.708	correct	incongruent	Block1	incongruent/STIM_020.jpg
422.277	0.818	correct	incongruent	Block1	incongruent/STIM_020.jpg
426.256	0.72	correct	incongruent	Block1	incongruent/STIM_020.jpg
429.253	0.858	correct	incongruent	Block1	incongruent/STIM_021.jpg
433.237	1.009	correct	incongruent	Block1	incongruent/STIM_021.jpg
437.315	0.96	correct	incongruent	Block1	incongruent/STIM_021.jpg
440.696	0.697	correct	incongruent	Block1	incongruent/STIM_021.jpg
444.292	0.873	correct	incongruent	Block1	incongruent/STIM_021.jpg
448.644	1.61	correct	incongruent	Block1	incongruent/STIM_022.jpg
452.631	1.149	correct	incongruent	Block1	incongruent/STIM_022.jpg
456.978	1.251	correct	incongruent	Block1	incongruent/STIM_022.jpg
461.533	0.707	correct	incongruent	Block1	incongruent/STIM_022.jpg
464.754	0.654	correct	incongruent	Block1	incongruent/STIM_022.jpg
467.544	1.454	correct	incongruent	Block1	incongruent/STIM_023.jpg
472.755	0.811	correct	incongruent	Block1	incongruent/STIM_023.jpg
477.177	1.181	correct	incongruent	Block1	incongruent/STIM_023.jpg
481.652	1.165	incorrect	incongruent	Block1	incongruent/STIM_023.jpg
485.86	0.834	correct	incongruent	Block1	incongruent/STIM_023.jpg
489.014	0.814	correct	incongruent	Block1	incongruent/STIM_024.jpg
493.537	1.403	correct	incongruent	Block1	incongruent/STIM_024.jpg
498.515	0.87	correct	incongruent	Block1	incongruent/STIM_024.jpg
503.219	1.019	correct	incongruent	Block1	incongruent/STIM_024.jpg
506.817	0.725	correct	incongruent	Block1	incongruent/STIM_024.jpg
510.262	1.241	correct	incongruent	Block1	incongruent/STIM_025.jpg
514.884	1.422	correct	incongruent	Block1	incongruent/STIM_025.jpg
518.35	0.754	incorrect	incongruent	Block1	incongruent/STIM_025.jpg
521.839	0.842	correct	incongruent	Block1	incongruent/STIM_025.jpg
526.067	0.695	correct	incongruent	Block1	incongruent/STIM_025.jpg
530.054	0.969	correct	incongruent	Block1	incongruent/STIM_026.jpg
534.985	0.86	correct	incongruent	Block1	incongruent/STIM_026.jpg
539.691	0.778	correct	incongruent	Block1	incongruent/STIM_026.jpg
544.278	0.828	correct	incongruent	Block1	incongruent/STIM_026.jpg
547.247	1.117	correct	incongruent	Block1	incongruent/STIM_026.jpg
551.673	1.525	correct	incongruent	Block1	incongruent/STIM_027.jpg
555.398	1.401	correct	incongruent	Block1	incongruent/STIM_027.jpg
558.902	0.89	correct	incongruent	Block1	incongruent/STIM_027.jpg
563.246	1.331	correct	incongruent	Block1	incongruent/STIM_027.jpg
568.046	0.79	correct	incongruent	Block1	incongruent/STIM_027.jpg
572.535	1.62	correct	incongruent	Block1	incongruent/STIM_028.jpg
576.524	0.766	correct	incongruent	Block1	incongruent/STIM_028.jpg
580.275	1.367	correct	incongruent	Block1	incongruent/STIM_028.jpg
584.578	1.312	correct	incongruent	Block1	incongruent/STIM_028.jpg
588.777	1.119	correct	incongruent	Block1	incongruent/STIM_028.jpg
592.704	1.544	correct	incongruent	Block1	incongruent/STIM_029.jpg
598.107	0.802	correct	incongruent	Block1	incongruent/STIM_029.jpg
601.954	1.299	correct	incongruent	Block1	incongruent/STIM_029.jpg
606.743	1.236	correct	incongruent	Block1	incongruent/STIM_029.jpg
611.809	1.051	correct	incongruent	Block1	incongruent/STIM_029.jpg
615.387	0.743	correct	congruent	Block1	congruent/STIM_000.jpg
619.431	0.588	correct	congruent	Block1	congruent/STIM_000.jpg
623.834	0.944	correct	congruent	Block1	congruent/STIM_000.jpg
626.88	0.806	correct	congruent	Block1	congruent/STIM_000.jpg
631.041	0.597	correct	congruent	Block1	congruent/STIM_000.jpg
635.551	0.629	correct	congruent	Block1	congruent/STIM_001.jpg
639.68	0.808	correct	congruent	Block1	congruent/STIM_001.jpg
642.685	0.82	incorrect	congruent	Block1	congruent/STIM_001.jpg
646.363	0.838	correct	congruent	Block1	congruent/STIM_001.jpg
650.65	0.788	correct	congruent	Block1	congruent/STIM_001.jpg
654.282	0.621	correct	congruent	Block1	congruent/STIM_002.jpg
657.449	0.671	correct	congruent	Block1	congruent/STIM_002.jpg
660.602	0.556	correct	congruent	Block1	congruent/STIM_002.jpg
663.283	0.82	correct	congruent	Block1	congruent/STIM_002.jpg
667.06	0.568	correct	congruent	Block1	congruent/STIM_002.jpg
669.952	0.92	correct	congruent	Block1	congruent/STIM_003.jpg
674.336	0.662	incorrect	congruent	Block1	congruent/STIM_003.jpg
678.255	0.72	correct	congruent	Block1	congruent/STIM_003.jpg
682.713	0.928	correct	congruent	Block1	congruent/STIM_003.jpg
685.742	0.705	correct	congruent	Block1	congruent/STIM_003.jpg
689.827	0.88	correct	congruent	Block1	congruent/STIM_004.jpg
692.844	0.661	correct	congruent	Block1	congruent/STIM_004.jpg
695.722	0.82	correct	congruent	Block1	congruent/STIM_004.jpg
700.078	0.555	correct	congruent	Block1	congruent/STIM_004.jpg
703.31	0.798	correct	congruent	Block1	congruent/STIM_004.jpg
706.705	0.783	correct	congruent	Block1	congruent/STIM_005.jpg
709.612	0.677	correct	congruent	Block1	congruent/STIM_005.jpg
713.511	0.706	correct	congruent	Block1	congruent/STIM_005.jpg
716.34	0.66	correct	congruent	Block1	congruent/STIM_005.jpg
719.101	0.653	correct	congruent	Block1	congruent/STIM_005.jpg
722.783	0.84	correct	congruent	Block1	congruent/STIM_006.jpg
725.767	0.754	correct	congruent	Block1	congruent/STIM_006.jpg
729.774	0.674	correct	congruent	Block1	congruent/STIM_006.jpg
733.911	0.668	incorrect	congruent	Block1	congruent/STIM_006.jpg
737.145	0.825	correct	congruent	Block1	congruent/STIM_006.jpg
739.986	0.874	correct	congruent	Block1	congruent/STIM_007.jpg
742.936	0.934	correct	congruent	Block1	congruent/STIM_007.jpg
746.14	0.59	correct	congruent	Block1	congruent/STIM_007.jpg
749.748	0.679	correct	congruent	Block1	congruent/STIM_007.jpg
753.154	0.936	correct	congruent	Block1	congruent/STIM_007.jpg
757.914	0.845	correct	congruent	Block1	congruent/STIM_008.jpg
762.011	0.632	correct	congruent	Block1	congruent/STIM_008.jpg
766.289	0.685	correct	congruent	Block1	congruent/STIM_008.jpg
769.009	0.945	correct	congruent	Block1	congruent/STIM_008.jpg
773.444	0.711	correct	congruent	Block1	congruent/STIM_008.jpg
777.811	0.643	correct	congruent	Block1	congruent/STIM_009.jpg
782.239	0.672	correct	congruent	Block1	congruent/STIM_009.jpg
785.089	0.648	correct	congruent	Block1	congruent/STIM_009.jpg
789.433	0.809	correct	congruent	Block1	congruent/STIM_009.jpg
793.335	0.75	correct	congruent	Block1	congruent/STIM_009.jpg
796.846	0.578	correct	congruent	Block1	congruent/STIM_010.jpg
799.847	0.877	correct	congruent	Block1	congruent/STIM_010.jpg
803.749	0.642	correct	congruent	Block1	congruent/STIM_010.jpg
808.184	0.932	correct	congruent	Block1	congruent/STIM_010.jpg
811.899	0.873	correct	congruent	Block1	congruent/STIM_010.jpg
816.705	0.599	correct	congruent	Block1	congruent/STIM_011.jpg
821.209	0.588	correct	congruent	Block1	congruent/STIM_011.jpg
824.93	0.682	correct	congruent	Block1	congruent/STIM_011.jpg
828.627	0.558	correct	congruent	Block1	congruent/STIM_011.jpg
831.953	0.594	correct	congruent	Block1	congruent/STIM_011.jpg
835.542	0.967	correct	congruent	Block1	congruent/STIM_012.jpg
840.024	0.904	correct	congruent	Block1	congruent/STIM_012.jpg
843.577	0.665	correct	congruent	Block1	congruent/STIM_012.jpg
847.72	0.763	correct	congruent	Block1	congruent/STIM_012.jpg
850.709	0.899	correct	congruent	Block1	congruent/STIM_012.jpg
853.973	0.901	correct	congruent	Block1	congruent/STIM_013.jpg
858.847	0.981	correct	congruent	Block1	congruent/STIM_013.jpg
863.117	0.573	correct	congruent	Block1	congruent/STIM_013.jpg
867.588	0.941	correct	congruent	Block1	congruent/STIM_013.jpg
870.796	0.952	correct	congruent	Block1	congruent/STIM_013.jpg
874.538	0.611	correct	congruent	Block1	congruent/STIM_014.jpg
878.2	0.72	correct	congruent	Block1	congruent/STIM_014.jpg
882.502	0.836	correct	congruent	Block1	congruent/STIM_014.jpg
886.21	0.935	correct	congruent	Block1	congruent/STIM_014.jpg
889.46	0.702	correct	congruent	Block1	congruent/STIM_014.jpg
893.505	0.578	correct	congruent	Block1	congruent/STIM_015.jpg
896.91	0.722	correct	congruent	Block1	congruent/STIM_015.jpg
899.751	0.721	correct	congruent	Block1	congruent/STIM_015.jpg
902.76	0.769	correct	congruent	Block1	congruent/STIM_015.jpg
907.449	0.68	correct	congruent	Block1	congruent/STIM_015.jpg
911.605	0.979	correct	congruent	Block1	congruent/STIM_016.jpg
915.95	0.967	correct	congruent	Block1	congruent/STIM_016.jpg
920.501	0.577	correct	congruent	Block1	congruent/STIM_016.jpg
923.455	0.804	correct	congruent	Block1	congruent/STIM_016.jpg
927.68	0.979	correct	congruent	Block1	congruent/STIM_016.jpg
932.177	0.913	correct	congruent	Block1	congruent/STIM_017.jpg
936.286	0.609	correct	congruent	Block1	congruent/STIM_017.jpg
939.433	0.92	correct	congruent	Block1	congruent/STIM_017.jpg
942.867	0.798	correct	congruent	Block1	congruent/STIM_017.jpg
946.012	0.68	correct	congruent	Block1	congruent/STIM_017.jpg
950.635	0.7	correct	congruent	Block1	congruent/STIM_018.jpg
954.573	0.626	correct	congruent	Block1	congruent/STIM_018.jpg
958.725	0.695	correct	congruent	Block1	congruent/STIM_018.jpg
961.926	0.952	correct	congruent	Block1	congruent/STIM_018.jpg
965.899	0.757	correct	congruent	Block1	congruent/STIM_018.jpg
968.667	0.598	correct	congruent	Block1	congruent/STIM_019.jpg
972.994	0.649	correct	congruent	Block1	congruent/STIM_019.jpg
976.127	0.742	correct	congruent	Block1	congruent/STIM_019.jpg
979.839	0.711	correct	congruent	Block1	congruent/STIM_019.jpg
983.325	0.566	correct	congruent	Block1	congruent/STIM_019.jpg
985.904	0.619	correct	congruent	Block1	congruent/STIM_020.jpg
989.975	0.81	correct	congruent	Block1	congruent/STIM_020.jpg
993.338	0.659	correct	congruent	Block1	congruent/STIM_020.jpg
997.053	0.75	correct	congruent	Block1	congruent/STIM_020.jpg
1001.513	0.703	correct	congruent	Block1	congruent/STIM_020.jpg
1005.592	0.835	correct	congruent	Block1	congruent/STIM_021.jpg
1010.403	0.848	correct	congruent	Block1	congruent/STIM_021.jpg
1013.466	0.928	correct	congruent	Block1	congruent/STIM_021.jpg
1018.026	0.716	correct	congruent	Block1	congruent/STIM_021.jpg
1022.391	0.775	incorrect	congruent	Block1	congruent/STIM_021.jpg
1025.573	0.814	correct	congruent	Block1	congruent/STIM_022.jpg
1029.592	0.63	correct	congruent	Block1	congruent/STIM_022.jpg
1032.81	0.699	correct	congruent	Block1	congruent/STIM_022.jpg
1036.114	0.852	correct	congruent	Block1	congruent/STIM_022.jpg
1040.545	0.832	correct	congruent	Block1	congruent/STIM_022.jpg
1044.299	0.961	correct	congruent	Block1	congruent/STIM_023.jpg
1048.308	0.902	correct	congruent	Block1	congruent/STIM_023.jpg
1051.441	0.755	correct	congruent	Block1	congruent/STIM_023.jpg
1055.442	0.712	correct	congruent	Block1	congruent/STIM_023.jpg
1059.21	0.956	correct	congruent	Block1	congruent/STIM_023.jpg
1062.649	0.672	correct	congruent	Block1	congruent/STIM_024.jpg
1067.008	0.754	correct	congruent	Block1	congruent/STIM_024.jpg
1070.956	0.765	correct	congruent	Block1	congruent/STIM_024.jpg
1074.238	0.736	correct	congruent	Block1	congruent/STIM_024.jpg
1077.362	0.766	correct	congruent	Block1	congruent/STIM_024.jpg
1081.768	0.604	correct	congruent	Block1	congruent/STIM_025.jpg
1084.386	0.627	correct	congruent	Block1	congruent/STIM_025.jpg
1087.867	0.825	correct	congruent	Block1	congruent/STIM_025.jpg
1091.764	0.685	correct	congruent	Block1	congruent/STIM_025.jpg
1096.405	0.651	correct	congruent	Block1	congruent/STIM_025.jpg
1100.896	0.784	correct	congruent	Block1	congruent/STIM_026.jpg
1104.217	0.963	correct	congruent	Block1	congruent/STIM_026.jpg
1108.782	0.754	correct	congruent	Block1	congruent/STIM_026.jpg
1112.028	0.795	correct	congruent	Block1	congruent/STIM_026.jpg
1116.209	0.978	correct	congruent	Block1	congruent/STIM_026.jpg
1119.356	0.808	correct	congruent	Block1	congruent/STIM_027.jpg
1123.612	0.946	correct	congruent	Block1	congruent/STIM_027.jpg
1128.282	0.759	correct	congruent	Block1	congruent/STIM_027.jpg
1132.949	0.709	correct	congruent	Block1	congruent/STIM_027.jpg
1136.597	0.757	correct	congruent	Block1	congruent/STIM_027.jpg
1140.879	0.592	correct	congruent	Block1	congruent/STIM_028.jpg
1144.799	0.864	correct	congruent	Block1	congruent/STIM_028.jpg
1149.536	0.775	correct	congruent	Block1	congruent/STIM_028.jpg
1153.139	0.928	correct	congruent	Block1	congruent/STIM_028.jpg
1157.73	0.758	correct	congruent	Block1	congruent/STIM_028.jpg
1161.227	0.931	correct	congruent	Block1	congruent/STIM_029.jpg
1165.616	0.763	correct	congruent	Block1	congruent/STIM_029.jpg
1169.829	0.627	correct	congruent	Block1	congruent/STIM_029.jpg
1174.172	0.906	correct	congruent	Block1	congruent/STIM_029.jpg
1177.516	0.893	correct	congruent	Block1	congruent/STIM_029.jpg
1181.939	1.265	correct	incongruent	Block2	incongruent/STIM_000.jpg
1187.163	1.283	correct	incongruent	Block2	incongruent/STIM_000.jpg
1191.289	1.114	correct	incongruent	Block2	incongruent/STIM_000.jpg
1194.687	0.877	correct	incongruent	Block2	incongruent/STIM_000.jpg
1197.817	0.882	correct	incongruent	Block2	incongruent/STIM_000.jpg
1200.733	0.788	correct	incongruent	Block2	incongruent/STIM_001.jpg
1205.17	0.632	correct	incongruent	Block2	incongruent/STIM_001.jpg
1208.106	1.159	correct	incongruent	Block2	incongruent/STIM_001.jpg
1213.009	0.753	correct	incongruent	Block2	incongruent/STIM_001.jpg
1216.898	1.042	correct	incongruent	Block2	incongruent/STIM_001.jpg
1221.821	0.651	correct	incongruent	Block2	incongruent/STIM_002.jpg
1225.218	0.914	correct	incongruent	Block2	incongruent/STIM_002.jpg
1229.393	0.801	correct	incongruent	Block2	incongruent/STIM_002.jpg
1233.537	0.609	correct	incongruent	Block2	incongruent/STIM_002.jpg
1237.99	0.675	correct	incongruent	Block2	incongruent/STIM_002.jpg
1240.961	1.154	correct	incongruent	Block2	incongruent/STIM_003.jpg
1244.508	0.96	correct	incongruent	Block2	incongruent/STIM_003.jpg
1248.612	1.121	correct	incongruent	Block2	incongruent/STIM_003.jpg
1253.094	1.106	correct	incongruent	Block2	incongruent/STIM_003.jpg
1257.996	0.834	correct	incongruent	Block2	incongruent/STIM_003.jpg
1261.975	1.384	correct	incongruent	Block2	incongruent/STIM_004.jpg
1266.273	0.906	correct	incongruent	Block2	incongruent/STIM_004.jpg
1269.7	0.962	correct	incongruent	Block2	incongruent/STIM_004.jpg
1273.199	1.099	correct	incongruent	Block2	incongruent/STIM_004.jpg
1277.171	1.053	correct	incongruent	Block2	incongruent/STIM_004.jpg
1281.062	1.222	correct	incongruent	Block2	incongruent/STIM_005.jpg
1284.532	1.238	correct	incongruent	Block2	incongruent/STIM_005.jpg
1288.996	0.923	correct	incongruent	Block2	incongruent/STIM_005.jpg
1293.867	0.57	correct	incongruent	Block2	incongruent/STIM_005.jpg
1297.687	0.878	correct	incongruent	Block2	incongruent/STIM_005.jpg
1300.771	1.09	correct	incongruent	Block2	incongruent/STIM_006.jpg
1304.796	0.677	correct	incongruent	Block2	incongruent/STIM_006.jpg
1307.639	0.799	correct	incongruent	Block2	incongruent/STIM_006.jpg
1311.967	0.957	correct	incongruent	Block2	incongruent/STIM_006.jpg
1315.635	1.148	correct	incongruent	Block2	incongruent/STIM_006.jpg
1320.157	0.776	correct	incongruent	Block2	incongruent/STIM_007.jpg
1323.221	0.93	correct	incongruent	Block2	incongruent/STIM_007.jpg
1327.56	0.907	correct	incongruent	Block2	incongruent/STIM_007.jpg
1331.167	0.822	correct	incongruent	Block2	incongruent/STIM_007.jpg
1334.801	0.761	correct	incongruent	Block2	incongruent/STIM_007.jpg
1339.287	1.191	correct	incongruent	Block2	incongruent/STIM_008.jpg
1343.992	0.969	correct	incongruent	Block2	incongruent/STIM_008.jpg
1348.278	1.092	correct	incongruent	Block2	incongruent/STIM_008.jpg
1352.376	0.681	correct	incongruent	Block2	incongruent/STIM_008.jpg
1355.413	0.917	correct	incongruent	Block2	incongruent/STIM_008.jpg
1359.607	1.007	correct	incongruent	Block2	incongruent/STIM_009.jpg
1363.695	1.036	correct	incongruent	Block2	incongruent/STIM_009.jpg
1367.621	0.764	correct	incongruent	Block2	incongruent/STIM_009.jpg
1371.979	1.133	correct	incongruent	Block2	incongruent/STIM_009.jpg
1375.332	0.657	correct	incongruent	Block2	incongruent/STIM_009.jpg
1379.911	0.659	correct	incongruent	Block2	incongruent/STIM_010.jpg
1383.745	1.156	correct	incongruent	Block2	incongruent/STIM_010.jpg
1388.563	1.065	correct	incongruent	Block2	incongruent/STIM_010.jpg
1392.766	1.052	correct	incongruent	Block2	incongruent/STIM_010.jpg
1395.955	0.652	correct	incongruent	Block2	incongruent/STIM_010.jpg
1399.016	1.174	correct	incongruent	Block2	incongruent/STIM_011.jpg
1402.266	0.654	correct	incongruent	Block2	incongruent/STIM_011.jpg
1405.548	1.083	correct	incongruent	Block2	incongruent/STIM_011.jpg
1408.805	0.699	correct	incongruent	Block2	incongruent/STIM_011.jpg
1412.883	0.878	correct	incongruent	Block2	incongruent/STIM_011.jpg
1416.41	1.285	correct	incongruent	Block2	incongruent/STIM_012.jpg
1421.688	0.619	incorrect	incongruent	Block2	incongruent/STIM_012.jpg
1425.626	0.607	correct	incongruent	Block2	incongruent/STIM_012.jpg
1430.111	0.998	correct	incongruent	Block2	incongruent/STIM_012.jpg
1433.731	1.089	correct	incongruent	Block2	incongruent/STIM_012.jpg
1436.944	0.837	correct	incongruent	Block2	incongruent/STIM_013.jpg
1441.69	1.113	correct	incongruent	Block2	incongruent/STIM_013.jpg
1446.531	0.61	incorrect	incongruent	Block2	incongruent/STIM_013.jpg
1449.306	1.073	correct	incongruent	Block2	incongruent/STIM_013.jpg
1452.926	0.932	correct	incongruent	Block2	incongruent/STIM_013.jpg
1457.244	1.292	correct	incongruent	Block2	incongruent/STIM_014.jpg
1460.667	0.856	correct	incongruent	Block2	incongruent/STIM_014.jpg
1464.061	0.796	correct	incongruent	Block2	incongruent/STIM_014.jpg
1468.714	1.007	correct	incongruent	Block2	incongruent/STIM_014.jpg
1472.511	0.57	correct	incongruent	Block2	incongruent/STIM_014.jpg
1475.237	0.961	correct	incongruent	Block2	incongruent/STIM_015.jpg
1478.374	0.616	correct	incongruent	Block2	incongruent/STIM_015.jpg
1482.604	0.645	correct	incongruent	Block2	incongruent/STIM_015.jpg
1486.427	0.731	correct	incongruent	Block2	incongruent/STIM_015.jpg
1490.181	0.923	correct	incongruent	Block2	incongruent/STIM_015.jpg
1494.008	1.22	correct	incongruent	Block2	incongruent/STIM_016.jpg
1497.393	0.901	correct	incongruent	Block2	incongruent/STIM_016.jpg
1501.033	1.184	correct	incongruent	Block2	incongruent/STIM_016.jpg
1506.015	1.138	correct	incongruent	Block2	incongruent/STIM_016.jpg
1510.137	1.025	correct	incongruent	Block2	incongruent/STIM_016.jpg
1514.588	1.304	correct	incongruent	Block2	incongruent/STIM_017.jpg
1519.042	1.245	correct	incongruent	Block2	incongruent/STIM_017.jpg
1524.112	1.159	correct	incongruent	Block2	incongruent/STIM_017.jpg
1528.372	1.004	correct	incongruent	Block2	incongruent/STIM_017.jpg
1531.831	0.94	correct	incongruent	Block2	incongruent/STIM_017.jpg
1535.338	1.034	correct	incongruent	Block2	incongruent/STIM_018.jpg
1538.506	1.11	correct	incongruent	Block2	incongruent/STIM_018.jpg
1542.35	0.954	correct	incongruent	Block2	incongruent/STIM_018.jpg
1546.037	1.056	correct	incongruent	Block2	incongruent/STIM_018.jpg
1549.897	1.089	correct	incongruent	Block2	incongruent/STIM_018.jpg
1553.432	1.038	correct	incongruent	Block2	incongruent/STIM_019.jpg
1557.511	0.948	correct	incongruent	Block2	incongruent/STIM_019.jpg
1562.053	0.767	correct	incongruent	Block2	incongruent/STIM_019.jpg
1565.553	0.85	correct	incongruent	Block2	incongruent/STIM_019.jpg
1569.473	0.639	correct	incongruent	Block2	incongruent/STIM_019.jpg
1572.545	0.986	correct	incongruent	Block2	incongruent/STIM_020.jpg
1577.199	0.903	correct	incongruent	Block2	incongruent/STIM_020.jpg
1581.773	0.844	correct	incongruent	Block2	incongruent/STIM_020.jpg
1586.09	0.725	correct	incongruent	Block2	incongruent/STIM_020.jpg
1588.908	0.694	correct	incongruent	Block2	incongruent/STIM_020.jpg
1593.271	1.328	correct	incongruent	Block2	incongruent/STIM_021.jpg
1597.924	0.963	correct	incongruent	Block2	incongruent/STIM_021.jpg
1601.225	0.792	correct	incongruent	Block2	incongruent/STIM_021.jpg
1604.613	1.093	correct	incongruent	Block2	incongruent/STIM_021.jpg
1609.443	1.131	correct	incongruent	Block2	incongruent/STIM_021.jpg
1613.589	0.91	correct	incongruent	Block2	incongruent/STIM_022.jpg
1617.038	1.212	incorrect	incongruent	Block2	incongruent/STIM_022.jpg
1621.023	0.575	correct	incongruent	Block2	incongruent/STIM_022.jpg
1623.774	0.636	correct	incongruent	Block2	incongruent/STIM_022.jpg
1626.834	0.683	correct	incongruent	Block2	incongruent/STIM_022.jpg
1631.159	1.052	correct	incongruent	Block2	incongruent/STIM_023.jpg
1635.705	0.75	correct	incongruent	Block2	incongruent/STIM_023.jpg
1639.772	0.701	correct	incongruent	Block2	incongruent/STIM_023.jpg
1642.76	0.572	correct	incongruent	Block2	incongruent/STIM_023.jpg
1646.063	0.602	correct	incongruent	Block2	incongruent/STIM_023.jpg
1649.204	0.684	correct	incongruent	Block2	incongruent/STIM_024.jpg
1652.265	0.772	correct	incongruent	Block2	incongruent/STIM_024.jpg
1655.063	1.002	correct	incongruent	Block2	incongruent/STIM_024.jpg
1658.872	0.776	incorrect	incongruent	Block2	incongruent/STIM_024.jpg
1663.102	0.82	correct	incongruent	Block2	incongruent/STIM_024.jpg
1666.931	1.064	correct	incongruent	Block2	incongruent/STIM_025.jpg
1670.266	0.626	correct	incongruent	Block2	incongruent/STIM_025.jpg
1672.993	0.787	correct	incongruent	Block2	incongruent/STIM_025.jpg
1677.78	0.75	correct	incongruent	Block2	incongruent/STIM_025.jpg
1681.957	0.693	correct	incongruent	Block2	incongruent/STIM_025.jpg
1685.877	1.1	correct	incongruent	Block2	incongruent/STIM_026.jpg
1689.164	1.227	correct	incongruent	Block2	incongruent/STIM_026.jpg
1693.157	0.629	correct	incongruent	Block2	incongruent/STIM_026.jpg
1697.781	0.662	correct	incongruent	Block2	incongruent/STIM_026.jpg
1702.289	0.854	correct	incongruent	Block2	incongruent/STIM_026.jpg
1705.902	0.983	correct	incongruent	Block2	incongruent/STIM_027.jpg
1709.525	1.142	correct	incongruent	Block2	incongruent/STIM_027.jpg
1713.028	1.047	correct	incongruent	Block2	incongruent/STIM_027.jpg
1716.781	0.893	correct	incongruent	Block2	incongruent/STIM_027.jpg
1719.96	0.92	correct	incongruent	Block2	incongruent/STIM_027.jpg
1724.226	1.388	correct	incongruent	Block2	incongruent/STIM_028.jpg
1728.192	1.294	correct	incongruent	Block2	incongruent/STIM_028.jpg
1733.462	1.083	correct	incongruent	Block2	incongruent/STIM_028.jpg
1736.79	1.054	correct	incongruent	Block2	incongruent/STIM_028.jpg
1740.231	0.679	correct	incongruent	Block2	incongruent/STIM_028.jpg
1744.518	0.671	correct	incongruent	Block2	incongruent/STIM_029.jpg
1748.342	0.911	correct	incongruent	Block2	incongruent/STIM_029.jpg
1751.953	0.817	correct	incongruent	Block2	incongruent/STIM_029.jpg
1756.528	0.557	correct	incongruent	Block2	incongruent/STIM_029.jpg
1759.591	1.073	correct	incongruent	Block2	incongruent/STIM_029.jpg
1764.502	0.569	correct	congruent	Block2	congruent/STIM_000.jpg
1768.071	0.749	correct	congruent	Block2	congruent/STIM_000.jpg
1771.023	0.733	correct	congruent	Block2	congruent/STIM_000.jpg
1775.734	0.59	correct	congruent	Block2	congruent/STIM_000.jpg
1780.097	0.572	correct	congruent	Block2	congruent/STIM_000.jpg
1783.658	0.564	correct	congruent	Block2	congruent/STIM_001.jpg
1786.861	0.717	correct	congruent	Block2	congruent/STIM_001.jpg
1790.886	0.806	correct	congruent	Block2	congruent/STIM_001.jpg
1795.18	0.674	correct	congruent	Block2	congruent/STIM_001.jpg
1799.249	0.66	correct	congruent	Block2	congruent/STIM_001.jpg
1803.886	0.699	correct	congruent	Block2	congruent/STIM_002.jpg
1808.398	0.596	correct	congruent	Block2	congruent/STIM_002.jpg
1811.136	0.974	correct	congruent	Block2	congruent/STIM_002.jpg
1815.574	0.58	correct	congruent	Block2	congruent/STIM_002.jpg
1820.054	0.614	correct	congruent	Block2	congruent/STIM_002.jpg
1824.199	0.555	correct	congruent	Block2	congruent/STIM_003.jpg
1827.568	0.65	correct	congruent	Block2	congruent/STIM_003.jpg
1830.861	0.896	correct	congruent	Block2	congruent/STIM_003.jpg
1834.781	0.709	correct	congruent	Block2	congruent/STIM_003.jpg
1838.018	0.924	correct	congruent	Block2	congruent/STIM_003.jpg
1842.423	0.664	correct	congruent	Block2	congruent/STIM_004.jpg
1846.707	0.573	correct	congruent	Block2	congruent/STIM_004.jpg
1849.603	0.978	correct	congruent	Block2	congruent/STIM_004.jpg
1852.61	0.588	correct	congruent	Block2	congruent/STIM_004.jpg
1856.264	0.952	correct	congruent	Block2	congruent/STIM_004.jpg
1860.29	0.697	correct	congruent	Block2	congruent/STIM_005.jpg
1864.534	0.858	correct	congruent	Block2	congruent/STIM_005.jpg
1867.675	0.81	correct	congruent	Block2	congruent/STIM_005.jpg
1871.513	0.575	correct	congruent	Block2	congruent/STIM_005.jpg
1875.988	0.965	incorrect	congruent	Block2	congruent/STIM_005.jpg
1879.943	0.562	correct	congruent	Block2	congruent/STIM_006.jpg
1884.344	0.577	correct	congruent	Block2	congruent/STIM_006.jpg
1888.446	0.792	incorrect	congruent	Block2	congruent/STIM_006.jpg
1891.642	0.682	correct	congruent	Block2	congruent/STIM_006.jpg
1894.829	0.838	correct	congruent	Block2	congruent/STIM_006.jpg
1898.662	0.913	correct	congruent	Block2	congruent/STIM_007.jpg
1902.002	0.666	correct	congruent	Block2	congruent/STIM_007.jpg
1906.284	0.865	correct	congruent	Block2	congruent/STIM_007.jpg
1909.49	0.708	incorrect	congruent	Block2	congruent/STIM_007.jpg
1912.384	0.628	incorrect	congruent	Block2	congruent/STIM_007.jpg
1916.673	0.982	correct	congruent	Block2	congruent/STIM_008.jpg
1920.695	0.878	correct	congruent	Block2	congruent/STIM_008.jpg
1925.47	0.762	correct	congruent	Block2	congruent/STIM_008.jpg
1929.349	0.839	correct	congruent	Block2	congruent/STIM_008.jpg
1934.1	0.94	correct	congruent	Block2	congruent/STIM_008.jpg
1938.01	0.796	correct	congruent	Block2	congruent/STIM_009.jpg
1942.239	0.981	incorrect	congruent	Block2	congruent/STIM_009.jpg
1946.433	0.715	correct	congruent	Block2	congruent/STIM_009.jpg
1949.526	0.58	correct	congruent	Block2	congruent/STIM_009.jpg
1952.829	0.837	correct	congruent	Block2	congruent/STIM_009.jpg
1956.371	0.822	correct	congruent	Block2	congruent/STIM_010.jpg
1959.328	0.976	correct	congruent	Block2	congruent/STIM_010.jpg
1963.131	0.702	correct	congruent	Block2	congruent/STIM_010.jpg
1966.704	0.694	correct	congruent	Block2	congruent/STIM_010.jpg
1970.653	0.769	correct	congruent	Block2	congruent/STIM_010.jpg
1974.979	0.88	correct	congruent	Block2	congruent/STIM_011.jpg
1978.556	0.948	incorrect	congruent	Block2	congruent/STIM_011.jpg
1982.904	0.97	correct	congruent	Block2	congruent/STIM_011.jpg
1986.829	0.677	correct	congruent	Block2	congruent/STIM_011.jpg
1991.265	0.707	correct	congruent	Block2	congruent/STIM_011.jpg
1994.122	0.824	correct	congruent	Block2	congruent/STIM_012.jpg
1997.121	0.941	correct	congruent	Block2	congruent/STIM_012.jpg
2001.052	0.949	correct	congruent	Block2	congruent/STIM_012.jpg
2005.395	0.636	correct	congruent	Block2	congruent/STIM_012.jpg
2008.142	0.698	correct	congruent	Block2	congruent/STIM_012.jpg
2012.7	0.641	correct	congruent	Block2	congruent/STIM_013.jpg
2015.43	0.955	correct	congruent	Block2	congruent/STIM_013.jpg
2019.79	0.82	correct	congruent	Block2	congruent/STIM_013.jpg
2024.532	0.933	correct	congruent	Block2	congruent/STIM_013.jpg
2027.477	0.59	correct	congruent	Block2	congruent/STIM_013.jpg
2030.616	0.664	correct	congruent	Block2	congruent/STIM_014.jpg
2034.475	0.921	correct	congruent	Block2	congruent/STIM_014.jpg
2037.98	0.588	correct	congruent	Block2	congruent/STIM_014.jpg
2040.605	0.75	correct	congruent	Block2	congruent/STIM_014.jpg
2043.59	0.632	correct	congruent	Block2	congruent/STIM_014.jpg
2047.146	0.971	correct	congruent	Block2	congruent/STIM_015.jpg
2051.099	0.665	correct	congruent	Block2	congruent/STIM_015.jpg
2055.288	0.619	correct	congruent	Block2	congruent/STIM_015.jpg
2059.882	0.548	correct	congruent	Block2	congruent/STIM_015.jpg
2063.274	0.907	correct	congruent	Block2	congruent/STIM_015.jpg
2066.394	0.882	correct	congruent	Block2	congruent/STIM_016.jpg
2069.337	0.89	correct	congruent	Block2	congruent/STIM_016.jpg
2072.655	0.92	correct	congruent	Block2	congruent/STIM_016.jpg
2075.949	0.698	correct	congruent	Block2	congruent/STIM_016.jpg
2079.968	0.922	correct	congruent	Block2	congruent/STIM_016.jpg
2084.658	0.583	correct	congruent	Block2	congruent/STIM_017.jpg
2087.243	0.917	correct	congruent	Block2	congruent/STIM_017.jpg
2090.585	0.597	correct	congruent	Block2	congruent/STIM_017.jpg
2093.254	0.879	correct	congruent	Block2	congruent/STIM_017.jpg
2097.726	0.778	correct	congruent	Block2	congruent/STIM_017.jpg
2100.958	0.733	correct	congruent	Block2	congruent/STIM_018.jpg
2105.572	0.896	correct	congruent	Block2	congruent/STIM_018.jpg
2110.034	0.887	correct	congruent	Block2	congruent/STIM_018.jpg
2114.558	0.575	correct	congruent	Block2	congruent/STIM_018.jpg
2118.257	0.911	correct	congruent	Block2	congruent/STIM_018.jpg
2123.163	0.641	correct	congruent	Block2	congruent/STIM_019.jpg
2126.22	0.593	correct	congruent	Block2	congruent/STIM_019.jpg
2129.986	0.688	correct	congruent	Block2	congruent/STIM_019.jpg
2132.714	0.556	correct	congruent	Block2	congruent/STIM_019.jpg
2137.212	0.606	correct	congruent	Block2	congruent/STIM_019.jpg
2139.949	0.944	correct	congruent	Block2	congruent/STIM_020.jpg
2144.228	0.819	correct	congruent	Block2	congruent/STIM_020.jpg
2148.009	0.957	correct	congruent	Block2	congruent/STIM_020.jpg
2152.208	0.825	correct	congruent	Block2	congruent/STIM_020.jpg
2157.016	0.966	correct	congruent	Block2	congruent/STIM_020.jpg
2160.127	0.811	correct	congruent	Block2	congruent/STIM_021.jpg
2163.882	0.69	correct	congruent	Block2	congruent/STIM_021.jpg
2167.081	0.638	correct	congruent	Block2	congruent/STIM_021.jpg
2170.662	0.602	correct	congruent	Block2	congruent/STIM_021.jpg
2174.696	0.716	correct	congruent	Block2	congruent/STIM_021.jpg
2178.663	0.808	correct	congruent	Block2	congruent/STIM_022.jpg
2181.583	0.966	correct	congruent	Block2	congruent/STIM_022.jpg
2185.023	0.618	correct	congruent	Block2	congruent/STIM_022.jpg
2188.422	0.589	correct	congruent	Block2	congruent/STIM_022.jpg
2192.296	0.659	correct	congruent	Block2	congruent/STIM_022.jpg
2195.617	0.96	correct	congruent	Block2	congruent/STIM_023.jpg
2198.918	0.601	correct	congruent	Block2	congruent/STIM_023.jpg
2202.433	0.781	correct	congruent	Block2	congruent/STIM_023.jpg
2205.704	0.672	correct	congruent	Block2	congruent/STIM_023.jpg
2210.311	0.969	correct	congruent	Block2	congruent/STIM_023.jpg
2214.23	0.934	correct	congruent	Block2	congruent/STIM_024.jpg
2218.558	0.686	correct	congruent	Block2	congruent/STIM_024.jpg
2223.165	0.913	correct	congruent	Block2	congruent/STIM_024.jpg
2227.427	0.793	correct	congruent	Block2	congruent/STIM_024.jpg
2230.984	0.772	correct	congruent	Block2	congruent/STIM_024.jpg
2234.216	0.873	correct	congruent	Block2	congruent/STIM_025.jpg
2237.767	0.69	correct	congruent	Block2	congruent/STIM_025.jpg
2240.924	0.58	correct	congruent	Block2	congruent/STIM_025.jpg
2243.919	0.676	correct	congruent	Block2	congruent/STIM_025.jpg
2246.643	0.974	correct	congruent	Block2	congruent/STIM_025.jpg
2250.28	0.648	correct	congruent	Block2	congruent/STIM_026.jpg
2254.684	0.894	correct	congruent	Block2	congruent/STIM_026.jpg
2258.597	0.76	correct	congruent	Block2	congruent/STIM_026.jpg
2261.845	0.678	correct	congruent	Block2	congruent/STIM_026.jpg
2265.334	0.575	correct	congruent	Block2	congruent/STIM_026.jpg
2268.921	0.89	correct	congruent	Block2	congruent/STIM_027.jpg
2273.425	0.981	correct	congruent	Block2	congruent/STIM_027.jpg
2277.9	0.688	correct	congruent	Block2	congruent/STIM_027.jpg
2281.797	0.968	correct	congruent	Block2	congruent/STIM_027.jpg
2285.439	0.717	correct	congruent	Block2	congruent/STIM_027.jpg
2288.243	0.549	correct	congruent	Block2	congruent/STIM_028.jpg
2292.508	0.821	correct	congruent	Block2	congruent/STIM_028.jpg
2295.983	0.723	correct	congruent	Block2	congruent/STIM_028.jpg
2299.805	0.837	correct	congruent	Block2	congruent/STIM_028.jpg
2304.388	0.821	correct	congruent	Block2	congruent/STIM_028.jpg
2307.238	0.8	correct	congruent	Block2	congruent/STIM_029.jpg
2310.35	0.665	correct	congruent	Block2	congruent/STIM_029.jpg
2314.648	0.717	correct	congruent	Block2	congruent/STIM_029.jpg
2319.102	0.732	correct	congruent	Block2	congruent/STIM_029.jpg
2322.068	0.807	correct	congruent	Block2	congruent/STIM_029.jpg
2325.194	0.552	correct	incongruent	Block3	incongruent/STIM_000.jpg
2328.723	0.797	correct	incongruent	Block3	incongruent/STIM_000.jpg
2332.951	0.918	correct	incongruent	Block3	incongruent/STIM_000.jpg
2337.029	0.568	correct	incongruent	Block3	incongruent/STIM_000.jpg
2339.8	0.553	correct	incongruent	Block3	incongruent/STIM_000.jpg
2343.502	0.846	correct	incongruent	Block3	incongruent/STIM_001.jpg
2347.283	0.731	correct	incongruent	Block3	incongruent/STIM_001.jpg
2350.762	1.106	correct	incongruent	Block3	incongruent/STIM_001.jpg
2354.838	0.804	incorrect	incongruent	Block3	incongruent/STIM_001.jpg
2359.37	0.93	correct	incongruent	Block3	incongruent/STIM_001.jpg
2363.512	0.69	correct	incongruent	Block3	incongruent/STIM_002.jpg
2367.8	0.99	correct	incongruent	Block3	incongruent/STIM_002.jpg
2371.116	1.103	correct	incongruent	Block3	incongruent/STIM_002.jpg
2375.514	0.625	correct	incongruent	Block3	incongruent/STIM_002.jpg
2378.506	0.919	correct	incongruent	Block3	incongruent/STIM_002.jpg
2381.85	0.963	correct	incongruent	Block3	incongruent/STIM_003.jpg
2385.163	0.725	correct	incongruent	Block3	incongruent/STIM_003.jpg
2389.645	1.143	correct	incongruent	Block3	incongruent/STIM_003.jpg
2393.925	0.812	correct	incongruent	Block3	incongruent/STIM_003.jpg
2398.223	0.679	correct	incongruent	Block3	incongruent/STIM_003.jpg
2402.14	0.79	correct	incongruent	Block3	incongruent/STIM_004.jpg
2405.974	0.808	correct	incongruent	Block3	incongruent/STIM_004.jpg
2410.089	1.017	correct	incongruent	Block3	incongruent/STIM_004.jpg
2414.511	1.148	correct	incongruent	Block3	incongruent/STIM_004.jpg
2418.973	0.571	correct	incongruent	Block3	incongruent/STIM_004.jpg
2423.312	1.046	correct	incongruent	Block3	incongruent/STIM_005.jpg
2427.097	0.761	correct	incongruent	Block3	incongruent/STIM_005.jpg
2429.89	0.892	correct	incongruent	Block3	incongruent/STIM_005.jpg
2433.056	0.732	correct	incongruent	Block3	incongruent/STIM_005.jpg
2435.929	0.936	correct	incongruent	Block3	incongruent/STIM_005.jpg
2440.123	0.938	correct	incongruent	Block3	incongruent/STIM_006.jpg
2444.5	0.921	correct	incongruent	Block3	incongruent/STIM_006.jpg
2447.552	0.558	correct	incongruent	Block3	incongruent/STIM_006.jpg
2450.997	0.648	correct	incongruent	Block3	incongruent/STIM_006.jpg
2455.017	0.972	correct	incongruent	Block3	incongruent/STIM_006.jpg
2459.097	0.782	correct	incongruent	Block3	incongruent/STIM_007.jpg
2462.418	0.745	correct	incongruent	Block3	incongruent/STIM_007.jpg
2465.758	1.029	correct	incongruent	Block3	incongruent/STIM_007.jpg
2469.102	1.134	correct	incongruent	Block3	incongruent/STIM_007.jpg
2472.727	0.867	correct	incongruent	Block3	incongruent/STIM_007.jpg
2476.707	0.84	correct	incongruent	Block3	incongruent/STIM_008.jpg
2480.88	0.56	correct	incongruent	Block3	incongruent/STIM_008.jpg
2484.746	0.866	correct	incongruent	Block3	incongruent/STIM_008.jpg
2487.779	1.122	correct	incongruent	Block3	incongruent/STIM_008.jpg
2491.075	0.969	correct	incongruent	Block3	incongruent/STIM_008.jpg
2494.239	1.004	correct	incongruent	Block3	incongruent/STIM_009.jpg
2499.232	0.862	correct	incongruent	Block3	incongruent/STIM_009.jpg
2503.995	1.108	correct	incongruent	Block3	incongruent/STIM_009.jpg
2508.999	0.934	correct	incongruent	Block3	incongruent/STIM_009.jpg
2512.949	0.937	correct	incongruent	Block3	incongruent/STIM_009.jpg
2516.456	0.785	correct	incongruent	Block3	incongruent/STIM_010.jpg
2521.08	0.857	correct	incongruent	Block3	incongruent/STIM_010.jpg
2524.163	0.748	correct	incongruent	Block3	incongruent/STIM_010.jpg
2528.046	0.905	correct	incongruent	Block3	incongruent/STIM_010.jpg
2532.617	0.855	correct	incongruent	Block3	incongruent/STIM_010.jpg
2536.691	1.108	correct	incongruent	Block3	incongruent/STIM_011.jpg
2541.534	0.974	correct	incongruent	Block3	incongruent/STIM_011.jpg
2546.12	0.96	correct	incongruent	Block3	incongruent/STIM_011.jpg
2550.49	0.546	correct	incongruent	Block3	incongruent/STIM_011.jpg
2554.258	0.854	correct	incongruent	Block3	incongruent/STIM_011.jpg
2557.874	0.967	correct	incongruent	Block3	incongruent/STIM_012.jpg
2561.231	0.738	correct	incongruent	Block3	incongruent/STIM_012.jpg
2565.581	1.063	correct	incongruent	Block3	incongruent/STIM_012.jpg
2569.605	1.083	correct	incongruent	Block3	incongruent/STIM_012.jpg
2574.6	0.926	correct	incongruent	Block3	incongruent/STIM_012.jpg
2578.676	1.139	correct	incongruent	Block3	incongruent/STIM_013.jpg
2582.957	0.603	correct	incongruent	Block3	incongruent/STIM_013.jpg
2586.333	0.592	correct	incongruent	Block3	incongruent/STIM_013.jpg
2590.256	1.131	correct	incongruent	Block3	incongruent/STIM_013.jpg
2594.109	1.031	correct	incongruent	Block3	incongruent/STIM_013.jpg
2598.491	1.112	correct	incongruent	Block3	incongruent/STIM_014.jpg
2602.515	0.61	correct	incongruent	Block3	incongruent/STIM_014.jpg
2606.762	0.935	correct	incongruent	Block3	incongruent/STIM_014.jpg
2611.005	1.031	correct	incongruent	Block3	incongruent/STIM_014.jpg
2614.161	0.564	correct	incongruent	Block3	incongruent/STIM_014.jpg
2617.846	1.126	correct	incongruent	Block3	incongruent/STIM_015.jpg
2620.978	0.582	correct	incongruent	Block3	incongruent/STIM_015.jpg
2623.697	0.733	correct	incongruent	Block3	incongruent/STIM_015.jpg
2627.166	0.964	correct	incongruent	Block3	incongruent/STIM_015.jpg
2631.787	1.086	correct	incongruent	Block3	incongruent/STIM_015.jpg
2636.036	1.086	correct	incongruent	Block3	incongruent/STIM_016.jpg
2640.926	0.911	correct	incongruent	Block3	incongruent/STIM_016.jpg
2644.495	1.021	correct	incongruent	Block3	incongruent/STIM_016.jpg
2648.176	1.14	correct	incongruent	Block3	incongruent/STIM_016.jpg
2653.129	0.922	correct	incongruent	Block3	incongruent/STIM_016.jpg
2656.332	0.876	correct	incongruent	Block3	incongruent/STIM_017.jpg
2659.992	0.85	correct	incongruent	Block3	incongruent/STIM_017.jpg
2664.777	0.843	correct	incongruent	Block3	incongruent/STIM_017.jpg
2668.593	0.616	correct	incongruent	Block3	incongruent/STIM_017.jpg
2671.58	1.002	correct	incongruent	Block3	incongruent/STIM_017.jpg
2676.311	0.965	incorrect	incongruent	Block3	incongruent/STIM_018.jpg
2680.262	0.863	correct	incongruent	Block3	incongruent/STIM_018.jpg
2683.31	1.054	correct	incongruent	Block3	incongruent/STIM_018.jpg
2687.336	1.001	correct	incongruent	Block3	incongruent/STIM_018.jpg
2692.135	1.03	correct	incongruent	Block3	incongruent/STIM_018.jpg
2696.559	0.594	correct	incongruent	Block3	incongruent/STIM_019.jpg
2699.551	0.648	correct	incongruent	Block3	incongruent/STIM_019.jpg
2704.055	0.623	correct	incongruent	Block3	incongruent/STIM_019.jpg
2708.435	0.626	correct	incongruent	Block3	incongruent/STIM_019.jpg
2712.03	1.072	correct	incongruent	Block3	incongruent/STIM_019.jpg
2715.379	0.682	correct	incongruent	Block3	incongruent/STIM_020.jpg
2719.353	0.937	correct	incongruent	Block3	incongruent/STIM_020.jpg
2723.698	0.74	correct	incongruent	Block3	incongruent/STIM_020.jpg
2727.989	1.006	correct	incongruent	Block3	incongruent/STIM_020.jpg
2732.165	0.831	correct	incongruent	Block3	incongruent/STIM_020.jpg
2736.328	0.788	correct	incongruent	Block3	incongruent/STIM_021.jpg
2739.958	1.105	correct	incongruent	Block3	incongruent/STIM_021.jpg
2744.444	0.848	correct	incongruent	Block3	incongruent/STIM_021.jpg
2747.929	0.98	correct	incongruent	Block3	incongruent/STIM_021.jpg
2751.205	1.031	correct	incongruent	Block3	incongruent/STIM_021.jpg
2754.815	1.076	correct	incongruent	Block3	incongruent/STIM_022.jpg
2758.514	0.627	correct	incongruent	Block3	incongruent/STIM_022.jpg
2761.856	0.979	correct	incongruent	Block3	incongruent/STIM_022.jpg
2765.504	0.538	correct	incongruent	Block3	incongruent/STIM_022.jpg
2768.083	0.969	correct	incongruent	Block3	incongruent/STIM_022.jpg
2771.257	0.639	correct	incongruent	Block3	incongruent/STIM_023.jpg
2774.948	0.685	correct	incongruent	Block3	incongruent/STIM_023.jpg
2779.079	0.592	correct	incongruent	Block3	incongruent/STIM_023.jpg
2783.23	1.004	correct	incongruent	Block3	incongruent/STIM_023.jpg
2786.652	0.872	correct	incongruent	Block3	incongruent/STIM_023.jpg
2791.321	0.539	correct	incongruent	Block3	incongruent/STIM_024.jpg
2795.788	0.556	correct	incongruent	Block3	incongruent/STIM_024.jpg
2798.355	0.913	correct	incongruent	Block3	incongruent/STIM_024.jpg
2801.919	1.033	correct	incongruent	Block3	incongruent/STIM_024.jpg
2806.854	0.929	correct	incongruent	Block3	incongruent/STIM_024.jpg
2810.523	0.881	correct	incongruent	Block3	incongruent/STIM_025.jpg
2814.964	0.664	correct	incongruent	Block3	incongruent/STIM_025.jpg
2817.754	0.626	correct	incongruent	Block3	incongruent/STIM_025.jpg
2821.224	0.898	correct	incongruent	Block3	incongruent/STIM_025.jpg
2824.472	1.014	correct	incongruent	Block3	incongruent/STIM_025.jpg
2829.081	0.682	correct	incongruent	Block3	incongruent/STIM_026.jpg
2831.817	1.008	correct	incongruent	Block3	incongruent/STIM_026.jpg
2835.093	0.978	correct	incongruent	Block3	incongruent/STIM_026.jpg
2838.692	0.61	correct	incongruent	Block3	incongruent/STIM_026.jpg
2841.753	0.588	correct	incongruent	Block3	incongruent/STIM_026.jpg
2845.265	1.044	correct	incongruent	Block3	incongruent/STIM_027.jpg
2848.913	1.055	correct	incongruent	Block3	incongruent/STIM_027.jpg
2852.304	0.9	correct	incongruent	Block3	incongruent/STIM_027.jpg
2855.399	0.882	correct	incongruent	Block3	incongruent/STIM_027.jpg
2858.496	0.768	correct	incongruent	Block3	incongruent/STIM_027.jpg
2862.683	0.882	correct	incongruent	Block3	incongruent/STIM_028.jpg
2866.295	1.03	correct	incongruent	Block3	incongruent/STIM_028.jpg
2869.384	1.143	correct	incongruent	Block3	incongruent/STIM_028.jpg
2874.31	1.036	correct	incongruent	Block3	incongruent/STIM_028.jpg
2878.241	0.808	correct	incongruent	Block3	incongruent/STIM_028.jpg
2881.851	0.847	correct	incongruent	Block3	incongruent/STIM_029.jpg
2885.841	0.861	correct	incongruent	Block3	incongruent/STIM_029.jpg
2890.259	1.081	incorrect	incongruent	Block3	incongruent/STIM_029.jpg
2893.789	0.612	correct	incongruent	Block3	incongruent/STIM_029.jpg
2897.706	0.944	correct	incongruent	Block3	incongruent/STIM_029.jpg
2901.505	0.728	correct	congruent	Block3	congruent/STIM_000.jpg
2905.837	0.957	correct	congruent	Block3	congruent/STIM_000.jpg
2909.837	0.638	correct	congruent	Block3	congruent/STIM_000.jpg
2913.128	0.819	correct	congruent	Block3	congruent/STIM_000.jpg
2916.878	0.853	correct	congruent	Block3	congruent/STIM_000.jpg
2921.594	0.834	correct	congruent	Block3	congruent/STIM_001.jpg
2926.104	0.863	correct	congruent	Block3	congruent/STIM_001.jpg
2929.199	0.555	correct	congruent	Block3	congruent/STIM_001.jpg
2932.322	0.705	correct	congruent	Block3	congruent/STIM_001.jpg
2936.984	0.617	correct	congruent	Block3	congruent/STIM_001.jpg
2940.287	0.816	correct	congruent	Block3	congruent/STIM_002.jpg
2943.324	0.618	correct	congruent	Block3	congruent/STIM_002.jpg
2947.283	0.892	correct	congruent	Block3	congruent/STIM_002.jpg
2950.474	0.85	correct	congruent	Block3	congruent/STIM_002.jpg
2955.212	0.551	correct	congruent	Block3	congruent/STIM_002.jpg
2959.0	0.678	correct	congruent	Block3	congruent/STIM_003.jpg
2961.992	0.95	correct	congruent	Block3	congruent/STIM_003.jpg
2965.937	0.572	correct	congruent	Block3	congruent/STIM_003.jpg
2970.044	0.746	correct	congruent	Block3	congruent/STIM_003.jpg
2973.811	0.658	correct	congruent	Block3	congruent/STIM_003.jpg
2978.412	0.881	correct	congruent	Block3	congruent/STIM_004.jpg
2982.497	0.818	correct	congruent	Block3	congruent/STIM_004.jpg
2987.052	0.549	correct	congruent	Block3	congruent/STIM_004.jpg
2990.392	0.719	correct	congruent	Block3	congruent/STIM_004.jpg
2994.54	0.806	correct	congruent	Block3	congruent/STIM_004.jpg
2997.812	0.554	correct	congruent	Block3	congruent/STIM_005.jpg
3001.788	0.858	correct	congruent	Block3	congruent/STIM_005.jpg
3005.968	0.835	correct	congruent	Block3	congruent/STIM_005.jpg
3010.452	0.68	correct	congruent	Block3	congruent/STIM_005.jpg
3013.357	0.703	incorrect	congruent	Block3	congruent/STIM_005.jpg
3016.259	0.712	correct	congruent	Block3	congruent/STIM_006.jpg
3019.736	0.728	correct	congruent	Block3	congruent/STIM_006.jpg
3022.483	0.898	correct	congruent	Block3	congruent/STIM_006.jpg
3027.335	0.567	correct	congruent	Block3	congruent/STIM_006.jpg
3030.375	0.809	correct	congruent	Block3	congruent/STIM_006.jpg
3033.355	0.667	correct	congruent	Block3	congruent/STIM_007.jpg
3036.642	0.618	correct	congruent	Block3	congruent/STIM_007.jpg
3040.526	0.848	correct	congruent	Block3	congruent/STIM_007.jpg
3044.475	0.651	correct	congruent	Block3	congruent/STIM_007.jpg
3047.679	0.571	correct	congruent	Block3	congruent/STIM_007.jpg
3051.68	0.855	correct	congruent	Block3	congruent/STIM_008.jpg
3055.547	0.632	correct	congruent	Block3	congruent/STIM_008.jpg
3058.464	0.621	incorrect	congruent	Block3	congruent/STIM_008.jpg
3062.841	0.768	correct	congruent	Block3	congruent/STIM_008.jpg
3065.677	0.874	correct	congruent	Block3	congruent/STIM_008.jpg
3070.291	0.889	correct	congruent	Block3	congruent/STIM_009.jpg
3073.598	0.684	correct	congruent	Block3	congruent/STIM_009.jpg
3076.599	0.98	correct	congruent	Block3	congruent/STIM_009.jpg
3080.241	0.848	correct	congruent	Block3	congruent/STIM_009.jpg
3084.118	0.973	correct	congruent	Block3	congruent/STIM_009.jpg
3087.204	0.624	correct	congruent	Block3	congruent/STIM_010.jpg
3091.262	0.953	correct	congruent	Block3	congruent/STIM_010.jpg
3095.254	0.869	correct	congruent	Block3	congruent/STIM_010.jpg
3098.711	0.557	correct	congruent	Block3	congruent/STIM_010.jpg
3103.126	0.811	correct	congruent	Block3	congruent/STIM_010.jpg
3107.824	0.82	correct	congruent	Block3	congruent/STIM_011.jpg
3110.733	0.642	correct	congruent	Block3	congruent/STIM_011.jpg
3113.802	0.629	correct	congruent	Block3	congruent/STIM_011.jpg
3116.826	0.973	correct	congruent	Block3	congruent/STIM_011.jpg
3121.24	0.582	correct	congruent	Block3	congruent/STIM_011.jpg
3124.618	0.761	correct	congruent	Block3	congruent/STIM_012.jpg
3128.982	0.81	correct	congruent	Block3	congruent/STIM_012.jpg
3133.694	0.696	correct	congruent	Block3	congruent/STIM_012.jpg
3137.67	0.874	correct	congruent	Block3	congruent/STIM_012.jpg
3142.517	0.659	correct	congruent	Block3	congruent/STIM_012.jpg
3146.827	0.901	correct	congruent	Block3	congruent/STIM_013.jpg
3150.02	0.945	correct	congruent	Block3	congruent/STIM_013.jpg
3154.898	0.646	correct	congruent	Block3	congruent/STIM_013.jpg
3157.769	0.856	correct	congruent	Block3	congruent/STIM_013.jpg
3161.699	0.731	correct	congruent	Block3	congruent/STIM_013.jpg
3164.651	0.847	correct	congruent	Block3	congruent/STIM_014.jpg
3167.742	0.94	correct	congruent	Block3	congruent/STIM_014.jpg
3171.413	0.635	correct	congruent	Block3	congruent/STIM_014.jpg
3175.005	0.598	correct	congruent	Block3	congruent/STIM_014.jpg
3179.511	0.951	correct	congruent	Block3	congruent/STIM_014.jpg
3182.879	0.685	correct	congruent	Block3	congruent/STIM_015.jpg
3186.929	0.863	correct	congruent	Block3	congruent/STIM_015.jpg
3190.262	0.784	correct	congruent	Block3	congruent/STIM_015.jpg
3193.349	0.983	correct	congruent	Block3	congruent/STIM_015.jpg
3197.886	0.719	correct	congruent	Block3	congruent/STIM_015.jpg
3201.594	0.841	correct	congruent	Block3	congruent/STIM_016.jpg
3205.108	0.684	correct	congruent	Block3	congruent/STIM_016.jpg
3209.242	0.68	correct	congruent	Block3	congruent/STIM_016.jpg
3213.646	0.888	correct	congruent	Block3	congruent/STIM_016.jpg
3217.503	0.937	correct	congruent	Block3	congruent/STIM_016.jpg
3221.096	0.824	correct	congruent	Block3	congruent/STIM_017.jpg
3225.745	0.679	correct	congruent	Block3	congruent/STIM_017.jpg
3229.927	0.77	correct	congruent	Block3	congruent/STIM_017.jpg
3234.689	0.61	correct	congruent	Block3	congruent/STIM_017.jpg
3238.943	0.713	correct	congruent	Block3	congruent/STIM_017.jpg
3242.991	0.68	correct	congruent	Block3	congruent/STIM_018.jpg
3246.115	0.877	correct	congruent	Block3	congruent/STIM_018.jpg
3249.516	0.798	correct	congruent	Block3	congruent/STIM_018.jpg
3254.095	0.832	incorrect	congruent	Block3	congruent/STIM_018.jpg
3258.866	0.595	correct	congruent	Block3	congruent/STIM_018.jpg
3263.169	0.755	incorrect	congruent	Block3	congruent/STIM_019.jpg
3267.513	0.71	correct	congruent	Block3	congruent/STIM_019.jpg
3270.955	0.671	correct	congruent	Block3	congruent/STIM_019.jpg
3274.297	0.586	correct	congruent	Block3	congruent/STIM_019.jpg
3277.022	0.83	correct	congruent	Block3	congruent/STIM_019.jpg
3281.02	0.686	correct	congruent	Block3	congruent/STIM_020.jpg
3285.653	0.642	correct	congruent	Block3	congruent/STIM_020.jpg
3288.498	0.67	correct	congruent	Block3	congruent/STIM_020.jpg
3292.835	0.559	correct	congruent	Block3	congruent/STIM_020.jpg
3295.79	0.849	correct	congruent	Block3	congruent/STIM_020.jpg
3298.837	0.613	correct	congruent	Block3	congruent/STIM_021.jpg
3303.381	0.642	correct	congruent	Block3	congruent/STIM_021.jpg
3307.635	0.78	correct	congruent	Block3	congruent/STIM_021.jpg
3312.186	0.796	correct	congruent	Block3	congruent/STIM_021.jpg
3315.283	0.702	correct	congruent	Block3	congruent/STIM_021.jpg
3319.574	0.754	correct	congruent	Block3	congruent/STIM_022.jpg
3322.607	0.679	correct	congruent	Block3	congruent/STIM_022.jpg
3326.407	0.865	correct	congruent	Block3	congruent/STIM_022.jpg
3329.984	0.623	correct	congruent	Block3	congruent/STIM_022.jpg
3334.001	0.961	correct	congruent	Block3	congruent/STIM_022.jpg
3338.948	0.76	correct	congruent	Block3	congruent/STIM_023.jpg
3342.925	0.609	correct	congruent	Block3	congruent/STIM_023.jpg
3345.817	0.84	correct	congruent	Block3	congruent/STIM_023.jpg
3349.279	0.945	correct	congruent	Block3	congruent/STIM_023.jpg
3353.907	0.899	correct	congruent	Block3	congruent/STIM_023.jpg
3357.379	0.807	correct	congruent	Block3	congruent/STIM_024.jpg
3361.683	0.603	correct	congruent	Block3	congruent/STIM_024.jpg
3364.768	0.786	correct	congruent	Block3	congruent/STIM_024.jpg
3369.532	0.614	correct	congruent	Block3	congruent/STIM_024.jpg
3372.302	0.679	correct	congruent	Block3	congruent/STIM_024.jpg
3375.254	0.891	correct	congruent	Block3	congruent/STIM_025.jpg
3379.66	0.732	correct	congruent	Block3	congruent/STIM_025.jpg
3384.097	0.645	correct	congruent	Block3	congruent/STIM_025.jpg
3388.675	0.96	correct	congruent	Block3	congruent/STIM_025.jpg
3391.81	0.67	correct	congruent	Block3	congruent/STIM_025.jpg
3396.425	0.909	correct	congruent	Block3	congruent/STIM_026.jpg
3400.228	0.962	correct	congruent	Block3	congruent/STIM_026.jpg
3403.361	0.782	correct	congruent	Block3	congruent/STIM_026.jpg
3407.64	0.823	correct	congruent	Block3	congruent/STIM_026.jpg
3412.135	0.601	correct	congruent	Block3	congruent/STIM_026.jpg
3415.321	0.598	incorrect	congruent	Block3	congruent/STIM_027.jpg
3417.982	0.722	correct	congruent	Block3	congruent/STIM_027.jpg
3421.509	0.913	correct	congruent	Block3	congruent/STIM_027.jpg
3424.549	0.609	correct	congruent	Block3	congruent/STIM_027.jpg
3428.84	0.58	correct	congruent	Block3	congruent/STIM_027.jpg
3432.781	0.743	correct	congruent	Block3	congruent/STIM_028.jpg
3436.03	0.636	correct	congruent	Block3	congruent/STIM_028.jpg
3439.153	0.933	correct	congruent	Block3	congruent/STIM_028.jpg
3442.823	0.86	correct	congruent	Block3	congruent/STIM_028.jpg
3447.606	0.843	correct	congruent	Block3	congruent/STIM_028.jpg
3452.323	0.782	correct	congruent	Block3	congruent/STIM_029.jpg
3456.365	0.72	correct	congruent	Block3	congruent/STIM_029.jpg
3460.22	0.768	incorrect	congruent	Block3	congruent/STIM_029.jpg
3464.677	0.67	correct	congruent	Block3	congruent/STIM_029.jpg
3467.986	0.652	correct	congruent	Block3	congruent/STIM_029.jpg
