onset	duration	response_time_ms	trial_type	learning_stage	stimulus	response_port
0.0	1.08	1080.1	incongruent	Block1	incongruent/STIM_000.jpg	100
4.055	0.968	967.6	incongruent	Block1	incongruent/STIM_000.jpg	100
8.689	0.981	980.6	incongruent	Block1	incongruent/STIM_000.jpg	100
12.791	1.258	1257.6	incongruent	Block1	incongruent/STIM_000.jpg	100
16.944	1.059	1058.9	incongruent	Block1	incongruent/STIM_000.jpg	100
21.142	1.505	1504.7	incongruent	Block1	incongruent/STIM_001.jpg	99
25.455	1.502	1501.9	incongruent	Block1	incongruent/STIM_001.jpg	100
29.764	0.987	987.0	incongruent	Block1	incongruent/STIM_001.jpg	99
34.553	1.28	1279.6	incongruent	Block1	incongruent/STIM_001.jpg	100
39.752	0.933	933.3	incongruent	Block1	incongruent/STIM_001.jpg	99
42.804	1.189	1189.4	incongruent	Block1	incongruent/STIM_002.jpg	100
46.905	0.983	982.6	incongruent	Block1	incongruent/STIM_002.jpg	100
50.803	1.18	1180.2	incongruent	Block1	incongruent/STIM_002.jpg	100
54.708	1.267	1266.8	incongruent	Block1	incongruent/STIM_002.jpg	100
59.914	0.717	717.4	incongruent	Block1	incongruent/STIM_002.jpg	99
63.241	1.516	1515.9	incongruent	Block1	incongruent/STIM_003.jpg	99
67.395	1.127	1126.6	incongruent	Block1	incongruent/STIM_003.jpg	100
71.179	0.822	822.5	incongruent	Block1	incongruent/STIM_003.jpg	100
75.626	1.082	1082.2	incongruent	Block1	incongruent/STIM_003.jpg	99
80.437	0.712	712.3	incongruent	Block1	incongruent/STIM_003.jpg	99
83.67	1.222	1221.9	incongruent	Block1	incongruent/STIM_004.jpg	100
86.965	0.833	833.3	incongruent	Block1	incongruent/STIM_004.jpg	100
90.754	0.847	847.1	incongruent	Block1	incongruent/STIM_004.jpg	99
95.36	1.339	1339.2	incongruent	Block1	incongruent/STIM_004.jpg	100
99.479	1.006	1005.6	incongruent	Block1	incongruent/STIM_004.jpg	99
103.638	1.168	1168.5	incongruent	Block1	incongruent/STIM_005.jpg	100
107.002	1.402	1401.9	incongruent	Block1	incongruent/STIM_005.jpg	99
112.279	0.924	923.9	incongruent	Block1	incongruent/STIM_005.jpg	100
116.945	0.706	706.1	incongruent	Block1	incongruent/STIM_005.jpg	99
121.28	1.19	1190.0	incongruent	Block1	incongruent/STIM_005.jpg	100
126.121	1.265	1265.2	incongruent	Block1	incongruent/STIM_006.jpg	99
129.916	0.78	780.5	incongruent	Block1	incongruent/STIM_006.jpg	99
134.542	1.364	1364.1	incongruent	Block1	incongruent/STIM_006.jpg	99
138.991	1.346	1346.1	incongruent	Block1	incongruent/STIM_006.jpg	100
142.72	1.083	1083.1	incongruent	Block1	incongruent/STIM_006.jpg	100
147.252	0.958	958.2	incongruent	Block1	incongruent/STIM_007.jpg	100
151.401	1.306	1305.8	incongruent	Block1	incongruent/STIM_007.jpg	99
155.296	1.403	1403.4	incongruent	Block1	incongruent/STIM_007.jpg	100
160.314	1.216	1216.1	incongruent	Block1	incongruent/STIM_007.jpg	100
165.123	0.769	769.2	incongruent	Block1	incongruent/STIM_007.jpg	100
168.382	1.417	1416.6	incongruent	Block1	incongruent/STIM_008.jpg	100
172.893	0.867	867.1	incongruent	Block1	incongruent/STIM_008.jpg	99
176.576	1.303	1303.3	incongruent	Block1	incongruent/STIM_008.jpg	99
181.051	0.913	912.6	incongruent	Block1	incongruent/STIM_008.jpg	99
184.557	1.064	1063.8	incongruent	Block1	incongruent/STIM_008.jpg	99
188.384	0.808	808.3	incongruent	Block1	incongruent/STIM_009.jpg	99
192.131	1.131	1131.4	incongruent	Block1	incongruent/STIM_009.jpg	99
195.314	0.909	909.0	incongruent	Block1	incongruent/STIM_009.jpg	100
198.856	1.162	1161.8	incongruent	Block1	incongruent/STIM_009.jpg	100
202.139	1.236	1236.2	incongruent	Block1	incongruent/STIM_009.jpg	99
207.241	1.326	1326.1	incongruent	Block1	incongruent/STIM_010.jpg	99
212.548	1.208	1207.9	incongruent	Block1	incongruent/STIM_010.jpg	99
216.512	1.3	1299.6	incongruent	Block1	incongruent/STIM_010.jpg	99
220.37	1.118	1118.0	incongruent	Block1	incongruent/STIM_010.jpg	99
225.205	0.644	643.5	incongruent	Block1	incongruent/STIM_010.jpg	100
228.485	1.573	1573.1	incongruent	Block1	incongruent/STIM_011.jpg	100
232.976	0.808	808.2	incongruent	Block1	incongruent/STIM_011.jpg	100
236.301	0.856	855.8	incongruent	Block1	incongruent/STIM_011.jpg	100
240.314	1.326	1326.5	incongruent	Block1	incongruent/STIM_011.jpg	100
244.473	0.688	687.8	incongruent	Block1	incongruent/STIM_011.jpg	99
248.639	1.565	1564.7	incongruent	Block1	incongruent/STIM_012.jpg	100
253.967	1.13	1130.3	incongruent	Block1	incongruent/STIM_012.jpg	100
258.068	0.754	754.3	incongruent	Block1	incongruent/STIM_012.jpg	100
261.443	1.188	1188.3	incongruent	Block1	incongruent/STIM_012.jpg	100
265.693	1.237	1237.4	incongruent	Block1	incongruent/STIM_012.jpg	99
270.339	1.418	1418.0	incongruent	Block1	incongruent/STIM_013.jpg	100
275.412	1.419	1418.9	incongruent	Block1	incongruent/STIM_013.jpg	99
280.728	0.956	956.1	incongruent	Block1	incongruent/STIM_013.jpg	99
285.166	0.772	771.5	incongruent	Block1	incongruent/STIM_013.jpg	99
289.528	1.28	1279.5	incongruent	Block1	incongruent/STIM_013.jpg	100
294.793	0.816	815.7	incongruent	Block1	incongruent/STIM_014.jpg	99
298.105	1.285	1285.4	incongruent	Block1	incongruent/STIM_014.jpg	100
301.732	0.752	751.5	incongruent	Block1	incongruent/STIM_014.jpg	100
305.761	1.096	1095.5	incongruent	Block1	incongruent/STIM_014.jpg	100
309.351	1.221	1220.6	incongruent	Block1	incongruent/STIM_014.jpg	99
314.146	0.807	807.4	incongruent	Block1	incongruent/STIM_015.jpg	99
317.025	1.352	1352.1	incongruent	Block1	incongruent/STIM_015.jpg	100
322.265	0.75	750.1	incongruent	Block1	incongruent/STIM_015.jpg	100
325.178	0.898	897.8	incongruent	Block1	incongruent/STIM_015.jpg	100
329.119	0.891	890.8	incongruent	Block1	incongruent/STIM_015.jpg	100
333.014	0.907	907.0	incongruent	Block1	incongruent/STIM_016.jpg	99
336.326	0.751	750.9	incongruent	Block1	incongruent/STIM_016.jpg	99
339.824	1.02	1020.2	incongruent	Block1	incongruent/STIM_016.jpg	99
343.415	0.815	815.0	incongruent	Block1	incongruent/STIM_016.jpg	100
346.406	0.68	680.0	incongruent	Block1	incongruent/STIM_016.jpg	100
350.303	0.782	782.2	incongruent	Block1	incongruent/STIM_017.jpg	99
353.693	1.507	1506.9	incongruent	Block1	incongruent/STIM_017.jpg	99
358.898	1.117	1116.9	incongruent	Block1	incongruent/STIM_017.jpg	99
362.34	1.219	1218.7	incongruent	Block1	incongruent/STIM_017.jpg	99
365.694	0.814	813.8	incongruent	Block1	incongruent/STIM_017.jpg	100
369.483	1.496	1495.6	incongruent	Block1	incongruent/STIM_018.jpg	99
373.549	1.466	1466.4	incongruent	Block1	incongruent/STIM_018.jpg	99
378.27	0.734	733.8	incongruent	Block1	incongruent/STIM_018.jpg	100
381.99	1.365	1365.0	incongruent	Block1	incongruent/STIM_018.jpg	100
386.795	0.949	949.3	incongruent	Block1	incongruent/STIM_018.jpg	100
390.134	1.16	1159.6	incongruent	Block1	incongruent/STIM_019.jpg	100
394.737	1.352	1352.1	incongruent	Block1	incongruent/STIM_019.jpg	100
399.003	1.229	1229.3	incongruent	Block1	incongruent/STIM_019.jpg	100
403.3	1.032	1032.1	incongruent	Block1	incongruent/STIM_019.jpg	99
406.443	0.761	760.6	incongruent	Block1	incongruent/STIM_019.jpg	99
410.801	0.934	933.8	incongruent	Block1	incongruent/STIM_020.jpg	99
414.135	1.373	1373.1	incongruent	Block1	incongruent/STIM_020.jpg	99
419.486	0.708	708.0	incongruent	Block1	incongruent/STIM_020.jpg	100
422.277	0.818	818.1	incongruent	Block1	incongruent/STIM_020.jpg	100
426.256	0.72	720.3	incongruent	Block1	incongruent/STIM_020.jpg	99
429.253	0.858	857.9	incongruent	Block1	incongruent/STIM_021.jpg	100
433.237	1.009	1009.2	incongruent	Block1	incongruent/STIM_021.jpg	99
437.315	0.96	960.4	incongruent	Block1	incongruent/STIM_021.jpg	99
440.696	0.697	697.4	incongruent	Block1	incongruent/STIM_021.jpg	99
444.292	0.873	873.3	incongruent	Block1	incongruent/STIM_021.jpg	100
448.644	1.61	1610.0	incongruent	Block1	incongruent/STIM_022.jpg	100
452.631	1.149	1148.8	incongruent	Block1	incongruent/STIM_022.jpg	99
456.978	1.251	1251.4	incongruent	Block1	incongruent/STIM_022.jpg	99
461.533	0.707	707.4	incongruent	Block1	incongruent/STIM_022.jpg	100
464.754	0.654	653.9	incongruent	Block1	incongruent/STIM_022.jpg	99
467.544	1.454	1454.5	incongruent	Block1	incongruent/STIM_023.jpg	99
472.755	0.811	811.4	incongruent	Block1	incongruent/STIM_023.jpg	99
477.177	1.181	1181.0	incongruent	Block1	incongruent/STIM_023.jpg	99
481.652	1.165	1165.1	incongruent	Block1	incongruent/STIM_023.jpg	100
485.86	0.834	834.4	incongruent	Block1	incongruent/STIM_023.jpg	99
489.014	0.814	813.9	incongruent	Block1	incongruent/STIM_024.jpg	99
493.537	1.403	1403.4	incongruent	Block1	incongruent/STIM_024.jpg	100
498.515	0.87	869.7	incongruent	Block1	incongruent/STIM_024.jpg	99
503.219	1.019	1019.1	incongruent	Block1	incongruent/STIM_024.jpg	99
506.817	0.725	724.9	incongruent	Block1	incongruent/STIM_024.jpg	99
510.262	1.241	1241.3	incongruent	Block1	incongruent/STIM_025.jpg	100
514.884	1.422	1422.3	incongruent	Block1	incongruent/STIM_025.jpg	99
518.35	0.754	754.4	incongruent	Block1	incongruent/STIM_025.jpg	99
521.839	0.842	842.5	incongruent	Block1	incongruent/STIM_025.jpg	100
526.067	0.695	694.6	incongruent	Block1	incongruent/STIM_025.jpg	99
530.054	0.969	969.4	incongruent	Block1	incongruent/STIM_026.jpg	100
534.985	0.86	859.7	incongruent	Block1	incongruent/STIM_026.jpg	99
539.691	0.778	778.0	incongruent	Block1	incongruent/STIM_026.jpg	99
544.278	0.828	828.0	incongruent	Block1	incongruent/STIM_026.jpg	100
547.247	1.117	1116.8	incongruent	Block1	incongruent/STIM_026.jpg	100
551.673	1.525	1524.6	incongruent	Block1	incongruent/STIM_027.jpg	99
555.398	1.401	1400.6	incongruent	Block1	incongruent/STIM_027.jpg	100
558.902	0.89	890.2	incongruent	Block1	incongruent/STIM_027.jpg	99
563.246	1.331	1331.0	incongruent	Block1	incongruent/STIM_027.jpg	100
568.046	0.79	789.6	incongruent	Block1	incongruent/STIM_027.jpg	99
572.535	1.62	1620.2	incongruent	Block1	incongruent/STIM_028.jpg	99
576.524	0.766	766.1	incongruent	Block1	incongruent/STIM_028.jpg	99
580.275	1.367	1367.1	incongruent	Block1	incongruent/STIM_028.jpg	99
584.578	1.312	1312.0	incongruent	Block1	incongruent/STIM_028.jpg	99
588.777	1.119	1119.0	incongruent	Block1	incongruent/STIM_028.jpg	100
592.704	1.544	1543.5	incongruent	Block1	incongruent/STIM_029.jpg	99
598.107	0.802	801.7	incongruent	Block1	incongruent/STIM_029.jpg	100
601.954	1.299	1299.0	incongruent	Block1	incongruent/STIM_029.jpg	100
606.743	1.236	1236.1	incongruent	Block1	incongruent/STIM_029.jpg	99
611.809	1.051	1051.1	incongruent	Block1	incongruent/STIM_029.jpg	100
615.387	0.743	742.7	congruent	Block1	congruent/STIM_000.jpg	99
619.431	0.588	588.1	congruent	Block1	congruent/STIM_000.jpg	99
623.834	0.944	943.8	congruent	Block1	congruent/STIM_000.jpg	100
626.88	0.806	805.7	congruent	Block1	congruent/STIM_000.jpg	100
631.041	0.597	596.7	congruent	Block1	congruent/STIM_000.jpg	99
635.551	0.629	628.8	congruent	Block1	congruent/STIM_001.jpg	99
639.68	0.808	807.6	congruent	Block1	congruent/STIM_001.jpg	99
642.685	0.82	819.8	congruent	Block1	congruent/STIM_001.jpg	99
646.363	0.838	837.9	congruent	Block1	congruent/STIM_001.jpg	100
650.65	0.788	787.7	congruent	Block1	congruent/STIM_001.jpg	100
654.282	0.621	621.3	congruent	Block1	congruent/STIM_002.jpg	99
657.449	0.671	671.2	congruent	Block1	congruent/STIM_002.jpg	99
660.602	0.556	555.7	congruent	Block1	congruent/STIM_002.jpg	100
663.283	0.82	820.3	congruent	Block1	congruent/STIM_002.jpg	100
667.06	0.568	567.5	congruent	Block1	congruent/STIM_002.jpg	100
669.952	0.92	919.5	congruent	Block1	congruent/STIM_003.jpg	99
674.336	0.662	662.4	congruent	Block1	congruent/STIM_003.jpg	99
678.255	0.72	720.5	congruent	Block1	congruent/STIM_003.jpg	99
682.713	0.928	928.2	congruent	Block1	congruent/STIM_003.jpg	99
685.742	0.705	704.9	congruent	Block1	congruent/STIM_003.jpg	99
689.827	0.88	879.6	congruent	Block1	congruent/STIM_004.jpg	100
692.844	0.661	660.7	congruent	Block1	congruent/STIM_004.jpg	99
695.722	0.82	819.5	congruent	Block1	congruent/STIM_004.jpg	100
700.078	0.555	554.8	congruent	Block1	congruent/STIM_004.jpg	99
703.31	0.798	798.2	congruent	Block1	congruent/STIM_004.jpg	99
706.705	0.783	783.0	congruent	Block1	congruent/STIM_005.jpg	99
709.612	0.677	676.6	congruent	Block1	congruent/STIM_005.jpg	99
713.511	0.706	705.7	congruent	Block1	congruent/STIM_005.jpg	100
716.34	0.66	659.7	congruent	Block1	congruent/STIM_005.jpg	99
719.101	0.653	652.8	congruent	Block1	congruent/STIM_005.jpg	100
722.783	0.84	840.0	congruent	Block1	congruent/STIM_006.jpg	99
725.767	0.754	753.8	congruent	Block1	congruent/STIM_006.jpg	99
729.774	0.674	673.5	congruent	Block1	congruent/STIM_006.jpg	100
733.911	0.668	667.9	congruent	Block1	congruent/STIM_006.jpg	99
737.145	0.825	825.4	congruent	Block1	congruent/STIM_006.jpg	99
739.986	0.874	874.0	congruent	Block1	congruent/STIM_007.jpg	100
742.936	0.934	934.4	congruent	Block1	congruent/STIM_007.jpg	100
746.14	0.59	589.7	congruent	Block1	congruent/STIM_007.jpg	99
749.748	0.679	679.3	congruent	Block1	congruent/STIM_007.jpg	99
753.154	0.936	936.1	congruent	Block1	congruent/STIM_007.jpg	100
757.914	0.845	845.2	congruent	Block1	congruent/STIM_008.jpg	100
762.011	0.632	631.6	congruent	Block1	congruent/STIM_008.jpg	99
766.289	0.685	685.4	congruent	Block1	congruent/STIM_008.jpg	99
769.009	0.945	944.9	congruent	Block1	congruent/STIM_008.jpg	100
773.444	0.711	711.0	congruent	Block1	congruent/STIM_008.jpg	100
777.811	0.643	643.3	congruent	Block1	congruent/STIM_009.jpg	99
782.239	0.672	672.5	congruent	Block1	congruent/STIM_009.jpg	100
785.089	0.648	648.4	congruent	Block1	congruent/STIM_009.jpg	100
789.433	0.809	808.7	congruent	Block1	congruent/STIM_009.jpg	100
793.335	0.75	749.6	congruent	Block1	congruent/STIM_009.jpg	99
796.846	0.578	578.1	congruent	Block1	congruent/STIM_010.jpg	100
799.847	0.877	876.8	congruent	Block1	congruent/STIM_010.jpg	100
803.749	0.642	641.8	congruent	Block1	congruent/STIM_010.jpg	99
808.184	0.932	931.5	congruent	Block1	congruent/STIM_010.jpg	99
811.899	0.873	873.0	congruent	Block1	congruent/STIM_010.jpg	100
816.705	0.599	598.9	congruent	Block1	congruent/STIM_011.jpg	100
821.209	0.588	587.5	congruent	Block1	congruent/STIM_011.jpg	100
824.93	0.682	682.2	congruent	Block1	congruent/STIM_011.jpg	100
828.627	0.558	558.1	congruent	Block1	congruent/STIM_011.jpg	100
831.953	0.594	594.1	congruent	Block1	congruent/STIM_011.jpg	100
835.542	0.967	966.8	congruent	Block1	congruent/STIM_012.jpg	100
840.024	0.904	904.0	congruent	Block1	congruent/STIM_012.jpg	100
843.577	0.665	665.2	congruent	Block1	congruent/STIM_012.jpg	100
847.72	0.763	762.7	congruent	Block1	congruent/STIM_012.jpg	100
850.709	0.899	899.0	congruent	Block1	congruent/STIM_012.jpg	100
853.973	0.901	901.4	congruent	Block1	congruent/STIM_013.jpg	99
858.847	0.981	980.9	congruent	Block1	congruent/STIM_013.jpg	100
863.117	0.573	573.4	congruent	Block1	congruent/STIM_013.jpg	99
867.588	0.941	940.6	congruent	Block1	congruent/STIM_013.jpg	100
870.796	0.952	951.9	congruent	Block1	congruent/STIM_013.jpg	99
874.538	0.611	611.0	congruent	Block1	congruent/STIM_014.jpg	100
878.2	0.72	719.7	congruent	Block1	congruent/STIM_014.jpg	99
882.502	0.836	835.5	congruent	Block1	congruent/STIM_014.jpg	99
886.21	0.935	934.9	congruent	Block1	congruent/STIM_014.jpg	100
889.46	0.702	702.4	congruent	Block1	congruent/STIM_014.jpg	99
893.505	0.578	578.1	congruent	Block1	congruent/STIM_015.jpg	99
896.91	0.722	722.3	congruent	Block1	congruent/STIM_015.jpg	99
899.751	0.721	721.3	congruent	Block1	congruent/STIM_015.jpg	99
902.76	0.769	769.1	congruent	Block1	congruent/STIM_015.jpg	100
907.449	0.68	680.5	congruent	Block1	congruent/STIM_015.jpg	100
911.605	0.979	978.9	congruent	Block1	congruent/STIM_016.jpg	100
915.95	0.967	967.2	congruent	Block1	congruent/STIM_016.jpg	99
920.501	0.577	576.7	congruent	Block1	congruent/STIM_016.jpg	99
923.455	0.804	804.3	congruent	Block1	congruent/STIM_016.jpg	99
927.68	0.979	979.0	congruent	Block1	congruent/STIM_016.jpg	100
932.177	0.913	912.6	congruent	Block1	congruent/STIM_017.jpg	100
936.286	0.609	609.0	congruent	Block1	congruent/STIM_017.jpg	99
939.433	0.92	920.4	congruent	Block1	congruent/STIM_017.jpg	100
942.867	0.798	797.7	congruent	Block1	congruent/STIM_017.jpg	100
946.012	0.68	680.1	congruent	Block1	congruent/STIM_017.jpg	99
950.635	0.7	700.5	congruent	Block1	congruent/STIM_018.jpg	100
954.573	0.626	625.6	congruent	Block1	congruent/STIM_018.jpg	99
958.725	0.695	694.9	congruent	Block1	congruent/STIM_018.jpg	99
961.926	0.952	951.5	congruent	Block1	congruent/STIM_018.jpg	100
965.899	0.757	757.2	congruent	Block1	congruent/STIM_018.jpg	99
968.667	0.598	597.9	congruent	Block1	congruent/STIM_019.jpg	100
972.994	0.649	648.6	congruent	Block1	congruent/STIM_019.jpg	99
976.127	0.742	741.8	congruent	Block1	congruent/STIM_019.jpg	99
979.839	0.711	711.1	congruent	Block1	congruent/STIM_019.jpg	100
983.325	0.566	565.9	congruent	Block1	congruent/STIM_019.jpg	99
985.904	0.619	619.3	congruent	Block1	congruent/STIM_020.jpg	99
989.975	0.81	810.1	congruent	Block1	congruent/STIM_020.jpg	100
993.338	0.659	659.3	congruent	Block1	congruent/STIM_020.jpg	100
997.053	0.75	750.3	congruent	Block1	congruent/STIM_020.jpg	99
1001.513	0.703	702.9	congruent	Block1	congruent/STIM_020.jpg	100
1005.592	0.835	834.9	congruent	Block1	congruent/STIM_021.jpg	100
1010.403	0.848	847.7	congruent	Block1	congruent/STIM_021.jpg	99
1013.466	0.928	928.4	congruent	Block1	congruent/STIM_021.jpg	99
1018.026	0.716	715.5	congruent	Block1	congruent/STIM_021.jpg	100
1022.391	0.775	774.9	congruent	Block1	congruent/STIM_021.jpg	99
1025.573	0.814	814.0	congruent	Block1	congruent/STIM_022.jpg	100
1029.592	0.63	630.4	congruent	Block1	congruent/STIM_022.jpg	100
1032.81	0.699	699.1	congruent	Block1	congruent/STIM_022.jpg	99
1036.114	0.852	851.8	congruent	Block1	congruent/STIM_022.jpg	99
1040.545	0.832	831.8	congruent	Block1	congruent/STIM_022.jpg	100
1044.299	0.961	960.7	congruent	Block1	congruent/STIM_023.jpg	100
1048.308	0.902	902.2	congruent	Block1	congruent/STIM_023.jpg	100
1051.441	0.755	754.7	congruent	Block1	congruent/STIM_023.jpg	99
1055.442	0.712	712.0	congruent	Block1	congruent/STIM_023.jpg	100
1059.21	0.956	956.2	congruent	Block1	congruent/STIM_023.jpg	100
1062.649	0.672	671.7	congruent	Block1	congruent/STIM_024.jpg	100
1067.008	0.754	754.0	congruent	Block1	congruent/STIM_024.jpg	99
1070.956	0.765	764.9	congruent	Block1	congruent/STIM_024.jpg	100
1074.238	0.736	736.4	congruent	Block1	congruent/STIM_024.jpg	99
1077.362	0.766	766.1	congruent	Block1	congruent/STIM_024.jpg	100
1081.768	0.604	604.4	congruent	Block1	congruent/STIM_025.jpg	99
1084.386	0.627	626.8	congruent	Block1	congruent/STIM_025.jpg	99
1087.867	0.825	825.3	congruent	Block1	congruent/STIM_025.jpg	100
1091.764	0.685	685.3	congruent	Block1	congruent/STIM_025.jpg	100
1096.405	0.651	650.9	congruent	Block1	congruent/STIM_025.jpg	100
1100.896	0.784	783.5	congruent	Block1	congruent/STIM_026.jpg	99
1104.217	0.963	962.8	congruent	Block1	congruent/STIM_026.jpg	99
1108.782	0.754	753.9	congruent	Block1	congruent/STIM_026.jpg	99
1112.028	0.795	794.6	congruent	Block1	congruent/STIM_026.jpg	100
1116.209	0.978	977.9	congruent	Block1	congruent/STIM_026.jpg	100
1119.356	0.808	807.5	congruent	Block1	congruent/STIM_027.jpg	100
1123.612	0.946	946.1	congruent	Block1	congruent/STIM_027.jpg	99
1128.282	0.759	759.0	congruent	Block1	congruent/STIM_027.jpg	100
1132.949	0.709	709.1	congruent	Block1	congruent/STIM_027.jpg	100
1136.597	0.757	756.6	congruent	Block1	congruent/STIM_027.jpg	99
1140.879	0.592	592.0	congruent	Block1	congruent/STIM_028.jpg	99
1144.799	0.864	864.1	congruent	Block1	congruent/STIM_028.jpg	99
1149.536	0.775	774.9	congruent	Block1	congruent/STIM_028.jpg	99
1153.139	0.928	928.3	congruent	Block1	congruent/STIM_028.jpg	99
1157.73	0.758	758.1	congruent	Block1	congruent/STIM_028.jpg	99
1161.227	0.931	931.2	congruent	Block1	congruent/STIM_029.jpg	100
1165.616	0.763	762.9	congruent	Block1	congruent/STIM_029.jpg	99
1169.829	0.627	627.3	congruent	Block1	congruent/STIM_029.jpg	100
1174.172	0.906	906.0	congruent	Block1	congruent/STIM_029.jpg	99
1177.516	0.893	893.0	congruent	Block1	congruent/STIM_029.jpg	100
1181.939	1.265	1264.9	incongruent	Block2	incongruent/STIM_000.jpg	99
1187.163	1.283	1282.8	incongruent	Block2	incongruent/STIM_000.jpg	100
1191.289	1.114	1114.2	incongruent	Block2	incongruent/STIM_000.jpg	100
1194.687	0.877	877.2	incongruent	Block2	incongruent/STIM_000.jpg	99
1197.817	0.882	881.9	incongruent	Block2	incongruent/STIM_000.jpg	100
1200.733	0.788	787.8	incongruent	Block2	incongruent/STIM_001.jpg	100
1205.17	0.632	631.7	incongruent	Block2	incongruent/STIM_001.jpg	99
1208.106	1.159	1158.6	incongruent	Block2	incongruent/STIM_001.jpg	100
1213.009	0.753	752.8	incongruent	Block2	incongruent/STIM_001.jpg	100
1216.898	1.042	1042.1	incongruent	Block2	incongruent/STIM_001.jpg	99
1221.821	0.651	651.1	incongruent	Block2	incongruent/STIM_002.jpg	100
1225.218	0.914	914.5	incongruent	Block2	incongruent/STIM_002.jpg	100
1229.393	0.801	800.8	incongruent	Block2	incongruent/STIM_002.jpg	99
1233.537	0.609	608.8	incongruent	Block2	incongruent/STIM_002.jpg	99
1237.99	0.675	675.0	incongruent	Block2	incongruent/STIM_002.jpg	100
1240.961	1.154	1153.6	incongruent	Block2	incongruent/STIM_003.jpg	100
1244.508	0.96	959.7	incongruent	Block2	incongruent/STIM_003.jpg	99
1248.612	1.121	1121.4	incongruent	Block2	incongruent/STIM_003.jpg	99
1253.094	1.106	1105.9	incongruent	Block2	incongruent/STIM_003.jpg	99
1257.996	0.834	834.2	incongruent	Block2	incongruent/STIM_003.jpg	100
1261.975	1.384	1384.3	incongruent	Block2	incongruent/STIM_004.jpg	100
1266.273	0.906	906.0	incongruent	Block2	incongruent/STIM_004.jpg	99
1269.7	0.962	962.3	incongruent	Block2	incongruent/STIM_004.jpg	100
1273.199	1.099	1098.8	incongruent	Block2	incongruent/STIM_004.jpg	99
1277.171	1.053	1052.6	incongruent	Block2	incongruent/STIM_004.jpg	99
1281.062	1.222	1222.4	incongruent	Block2	incongruent/STIM_005.jpg	99
1284.532	1.238	1237.5	incongruent	Block2	incongruent/STIM_005.jpg	99
1288.996	0.923	923.0	incongruent	Block2	incongruent/STIM_005.jpg	100
1293.867	0.57	569.9	incongruent	Block2	incongruent/STIM_005.jpg	100
1297.687	0.878	877.8	incongruent	Block2	incongruent/STIM_005.jpg	100
1300.771	1.09	1090.3	incongruent	Block2	incongruent/STIM_006.jpg	99
1304.796	0.677	677.3	incongruent	Block2	incongruent/STIM_006.jpg	100
1307.639	0.799	798.6	incongruent	Block2	incongruent/STIM_006.jpg	99
1311.967	0.957	957.4	incongruent	Block2	incongruent/STIM_006.jpg	99
1315.635	1.148	1147.9	incongruent	Block2	incongruent/STIM_006.jpg	100
1320.157	0.776	776.2	incongruent	Block2	incongruent/STIM_007.jpg	99
1323.221	0.93	929.9	incongruent	Block2	incongruent/STIM_007.jpg	99
1327.56	0.907	906.9	incongruent	Block2	incongruent/STIM_007.jpg	99
1331.167	0.822	822.5	incongruent	Block2	incongruent/STIM_007.jpg	100
1334.801	0.761	761.0	incongruent	Block2	incongruent/STIM_007.jpg	100
1339.287	1.191	1191.1	incongruent	Block2	incongruent/STIM_008.jpg	99
1343.992	0.969	968.8	incongruent	Block2	incongruent/STIM_008.jpg	100
1348.278	1.092	1092.1	incongruent	Block2	incongruent/STIM_008.jpg	99
1352.376	0.681	681.0	incongruent	Block2	incongruent/STIM_008.jpg	99
1355.413	0.917	916.6	incongruent	Block2	incongruent/STIM_008.jpg	100
1359.607	1.007	1007.4	incongruent	Block2	incongruent/STIM_009.jpg	99
1363.695	1.036	1036.0	incongruent	Block2	incongruent/STIM_009.jpg	100
1367.621	0.764	764.4	incongruent	Block2	incongruent/STIM_009.jpg	100
1371.979	1.133	1132.7	incongruent	Block2	incongruent/STIM_009.jpg	99
1375.332	0.657	657.0	incongruent	Block2	incongruent/STIM_009.jpg	99
1379.911	0.659	658.9	incongruent	Block2	incongruent/STIM_010.jpg	100
1383.745	1.156	1156.2	incongruent	Block2	incongruent/STIM_010.jpg	100
1388.563	1.065	1064.6	incongruent	Block2	incongruent/STIM_010.jpg	100
1392.766	1.052	1052.2	incongruent	Block2	incongruent/STIM_010.jpg	99
1395.955	0.652	652.1	incongruent	Block2	incongruent/STIM_010.jpg	99
1399.016	1.174	1174.4	incongruent	Block2	incongruent/STIM_011.jpg	99
1402.266	0.654	653.9	incongruent	Block2	incongruent/STIM_011.jpg	100
1405.548	1.083	1083.4	incongruent	Block2	incongruent/STIM_011.jpg	99
1408.805	0.699	699.2	incongruent	Block2	incongruent/STIM_011.jpg	99
1412.883	0.878	877.7	incongruent	Block2	incongruent/STIM_011.jpg	99
1416.41	1.285	1285.3	incongruent	Block2	incongruent/STIM_012.jpg	100
1421.688	0.619	619.3	incongruent	Block2	incongruent/STIM_012.jpg	100
1425.626	0.607	606.9	incongruent	Block2	incongruent/STIM_012.jpg	99
1430.111	0.998	998.2	incongruent	Block2	incongruent/STIM_012.jpg	99
1433.731	1.089	1089.2	incongruent	Block2	incongruent/STIM_012.jpg	100
1436.944	0.837	837.4	incongruent	Block2	incongruent/STIM_013.jpg	99
1441.69	1.113	1112.7	incongruent	Block2	incongruent/STIM_013.jpg	99
1446.531	0.61	610.2	incongruent	Block2	incongruent/STIM_013.jpg	99
1449.306	1.073	1073.1	incongruent	Block2	incongruent/STIM_013.jpg	100
1452.926	0.932	931.6	incongruent	Block2	incongruent/STIM_013.jpg	99
1457.244	1.292	1292.5	incongruent	Block2	incongruent/STIM_014.jpg	100
1460.667	0.856	856.5	incongruent	Block2	incongruent/STIM_014.jpg	99
1464.061	0.796	795.6	incongruent	Block2	incongruent/STIM_014.jpg	99
1468.714	1.007	1007.0	incongruent	Block2	incongruent/STIM_014.jpg	99
1472.511	0.57	570.3	incongruent	Block2	incongruent/STIM_014.jpg	99
1475.237	0.961	960.8	incongruent	Block2	incongruent/STIM_015.jpg	99
1478.374	0.616	615.9	incongruent	Block2	incongruent/STIM_015.jpg	99
1482.604	0.645	645.1	incongruent	Block2	incongruent/STIM_015.jpg	99
1486.427	0.731	730.9	incongruent	Block2	incongruent/STIM_015.jpg	100
1490.181	0.923	923.4	incongruent	Block2	incongruent/STIM_015.jpg	100
1494.008	1.22	1220.1	incongruent	Block2	incongruent/STIM_016.jpg	99
1497.393	0.901	900.8	incongruent	Block2	incongruent/STIM_016.jpg	99
1501.033	1.184	1184.3	incongruent	Block2	incongruent/STIM_016.jpg	100
1506.015	1.138	1138.4	incongruent	Block2	incongruent/STIM_016.jpg	100
1510.137	1.025	1025.0	incongruent	Block2	incongruent/STIM_016.jpg	100
1514.588	1.304	1303.5	incongruent	Block2	incongruent/STIM_017.jpg	99
1519.042	1.245	1244.6	incongruent	Block2	incongruent/STIM_017.jpg	99
1524.112	1.159	1158.8	incongruent	Block2	incongruent/STIM_017.jpg	100
1528.372	1.004	1003.8	incongruent	Block2	incongruent/STIM_017.jpg	99
1531.831	0.94	939.6	incongruent	Block2	incongruent/STIM_017.jpg	99
1535.338	1.034	1033.7	incongruent	Block2	incongruent/STIM_018.jpg	99
1538.506	1.11	1110.2	incongruent	Block2	incongruent/STIM_018.jpg	99
1542.35	0.954	954.5	incongruent	Block2	incongruent/STIM_018.jpg	100
1546.037	1.056	1055.6	incongruent	Block2	incongruent/STIM_018.jpg	100
1549.897	1.089	1089.3	incongruent	Block2	incongruent/STIM_018.jpg	99
1553.432	1.038	1037.8	incongruent	Block2	incongruent/STIM_019.jpg	99
1557.511	0.948	948.4	incongruent	Block2	incongruent/STIM_019.jpg	99
1562.053	0.767	766.7	incongruent	Block2	incongruent/STIM_019.jpg	100
1565.553	0.85	849.8	incongruent	Block2	incongruent/STIM_019.jpg	100
1569.473	0.639	639.3	incongruent	Block2	incongruent/STIM_019.jpg	99
1572.545	0.986	986.5	incongruent	Block2	incongruent/STIM_020.jpg	99
1577.199	0.903	903.3	incongruent	Block2	incongruent/STIM_020.jpg	99
1581.773	0.844	844.1	incongruent	Block2	incongruent/STIM_020.jpg	99
1586.09	0.725	725.4	incongruent	Block2	incongruent/STIM_020.jpg	100
1588.908	0.694	694.2	incongruent	Block2	incongruent/STIM_020.jpg	99
1593.271	1.328	1328.2	incongruent	Block2	incongruent/STIM_021.jpg	99
1597.924	0.963	963.3	incongruent	Block2	incongruent/STIM_021.jpg	100
1601.225	0.792	791.5	incongruent	Block2	incongruent/STIM_021.jpg	100
1604.613	1.093	1092.9	incongruent	Block2	incongruent/STIM_021.jpg	100
1609.443	1.131	1131.3	incongruent	Block2	incongruent/STIM_021.jpg	100
1613.589	0.91	910.0	incongruent	Block2	incongruent/STIM_022.jpg	99
1617.038	1.212	1211.8	incongruent	Block2	incongruent/STIM_022.jpg	100
1621.023	0.575	574.8	incongruent	Block2	incongruent/STIM_022.jpg	99
1623.774	0.636	636.4	incongruent	Block2	incongruent/STIM_022.jpg	100
1626.834	0.683	682.9	incongruent	Block2	incongruent/STIM_022.jpg	99
1631.159	1.052	1051.9	incongruent	Block2	incongruent/STIM_023.jpg	100
1635.705	0.75	749.9	incongruent	Block2	incongruent/STIM_023.jpg	100
1639.772	0.701	700.7	incongruent	Block2	incongruent/STIM_023.jpg	99
1642.76	0.572	572.3	incongruent	Block2	incongruent/STIM_023.jpg	100
1646.063	0.602	601.8	incongruent	Block2	incongruent/STIM_023.jpg	100
1649.204	0.684	684.1	incongruent	Block2	incongruent/STIM_024.jpg	99
1652.265	0.772	771.9	incongruent	Block2	incongruent/STIM_024.jpg	99
1655.063	1.002	1002.4	incongruent	Block2	incongruent/STIM_024.jpg	100
1658.872	0.776	776.0	incongruent	Block2	incongruent/STIM_024.jpg	99
1663.102	0.82	820.4	incongruent	Block2	incongruent/STIM_024.jpg	100
1666.931	1.064	1064.1	incongruent	Block2	incongruent/STIM_025.jpg	99
1670.266	0.626	626.2	incongruent	Block2	incongruent/STIM_025.jpg	99
1672.993	0.787	787.1	incongruent	Block2	incongruent/STIM_025.jpg	99
1677.78	0.75	749.9	incongruent	Block2	incongruent/STIM_025.jpg	100
1681.957	0.693	692.9	incongruent	Block2	incongruent/STIM_025.jpg	99
1685.877	1.1	1099.5	incongruent	Block2	incongruent/STIM_026.jpg	100
1689.164	1.227	1226.6	incongruent	Block2	incongruent/STIM_026.jpg	100
1693.157	0.629	628.6	incongruent	Block2	incongruent/STIM_026.jpg	99
1697.781	0.662	662.0	incongruent	Block2	incongruent/STIM_026.jpg	100
1702.289	0.854	854.0	incongruent	Block2	incongruent/STIM_026.jpg	99
1705.902	0.983	982.9	incongruent	Block2	incongruent/STIM_027.jpg	99
1709.525	1.142	1141.9	incongruent	Block2	incongruent/STIM_027.jpg	99
1713.028	1.047	1046.7	incongruent	Block2	incongruent/STIM_027.jpg	100
1716.781	0.893	892.9	incongruent	Block2	incongruent/STIM_027.jpg	100
1719.96	0.92	919.6	incongruent	Block2	incongruent/STIM_027.jpg	99
1724.226	1.388	1388.0	incongruent	Block2	incongruent/STIM_028.jpg	99
1728.192	1.294	1293.9	incongruent	Block2	incongruent/STIM_028.jpg	100
1733.462	1.083	1082.7	incongruent	Block2	incongruent/STIM_028.jpg	99
1736.79	1.054	1053.6	incongruent	Block2	incongruent/STIM_028.jpg	99
1740.231	0.679	678.7	incongruent	Block2	incongruent/STIM_028.jpg	99
1744.518	0.671	670.9	incongruent	Block2	incongruent/STIM_029.jpg	99
1748.342	0.911	910.8	incongruent	Block2	incongruent/STIM_029.jpg	100
1751.953	0.817	817.1	incongruent	Block2	incongruent/STIM_029.jpg	99
1756.528	0.557	557.3	incongruent	Block2	incongruent/STIM_029.jpg	99
1759.591	1.073	1073.2	incongruent	Block2	incongruent/STIM_029.jpg	100
1764.502	0.569	568.7	congruent	Block2	congruent/STIM_000.jpg	99
1768.071	0.749	749.3	congruent	Block2	congruent/STIM_000.jpg	99
1771.023	0.733	733.2	congruent	Block2	congruent/STIM_000.jpg	100
1775.734	0.59	590.4	congruent	Block2	congruent/STIM_000.jpg	100
1780.097	0.572	571.6	congruent	Block2	congruent/STIM_000.jpg	99
1783.658	0.564	564.1	congruent	Block2	congruent/STIM_001.jpg	99
1786.861	0.717	717.2	congruent	Block2	congruent/STIM_001.jpg	100
1790.886	0.806	806.0	congruent	Block2	congruent/STIM_001.jpg	99
1795.18	0.674	673.9	congruent	Block2	congruent/STIM_001.jpg	99
1799.249	0.66	660.5	congruent	Block2	congruent/STIM_001.jpg	100
1803.886	0.699	698.6	congruent	Block2	congruent/STIM_002.jpg	99
1808.398	0.596	595.9	congruent	Block2	congruent/STIM_002.jpg	100
1811.136	0.974	973.6	congruent	Block2	congruent/STIM_002.jpg	99
1815.574	0.58	580.4	congruent	Block2	congruent/STIM_002.jpg	99
1820.054	0.614	613.8	congruent	Block2	congruent/STIM_002.jpg	100
1824.199	0.555	555.2	congruent	Block2	congruent/STIM_003.jpg	99
1827.568	0.65	650.5	congruent	Block2	congruent/STIM_003.jpg	100
1830.861	0.896	895.9	congruent	Block2	congruent/STIM_003.jpg	99
1834.781	0.709	708.9	congruent	Block2	congruent/STIM_003.jpg	100
1838.018	0.924	924.2	congruent	Block2	congruent/STIM_003.jpg	99
1842.423	0.664	664.0	congruent	Block2	congruent/STIM_004.jpg	99
1846.707	0.573	572.9	congruent	Block2	congruent/STIM_004.jpg	100
1849.603	0.978	978.0	congruent	Block2	congruent/STIM_004.jpg	99
1852.61	0.588	588.2	congruent	Block2	congruent/STIM_004.jpg	100
1856.264	0.952	952.2	congruent	Block2	congruent/STIM_004.jpg	100
1860.29	0.697	697.2	congruent	Block2	congruent/STIM_005.jpg	100
1864.534	0.858	857.7	congruent	Block2	congruent/STIM_005.jpg	100
1867.675	0.81	809.8	congruent	Block2	congruent/STIM_005.jpg	99
1871.513	0.575	575.4	congruent	Block2	congruent/STIM_005.jpg	99
1875.988	0.965	964.6	congruent	Block2	congruent/STIM_005.jpg	99
1879.943	0.562	561.8	congruent	Block2	congruent/STIM_006.jpg	99
1884.344	0.577	576.9	congruent	Block2	congruent/STIM_006.jpg	100
1888.446	0.792	791.6	congruent	Block2	congruent/STIM_006.jpg	100
1891.642	0.682	681.5	congruent	Block2	congruent/STIM_006.jpg	99
1894.829	0.838	838.2	congruent	Block2	congruent/STIM_006.jpg	100
1898.662	0.913	912.6	congruent	Block2	congruent/STIM_007.jpg	99
1902.002	0.666	666.0	congruent	Block2	congruent/STIM_007.jpg	99
1906.284	0.865	864.6	congruent	Block2	congruent/STIM_007.jpg	99
1909.49	0.708	708.2	congruent	Block2	congruent/STIM_007.jpg	99
1912.384	0.628	627.5	congruent	Block2	congruent/STIM_007.jpg	100
1916.673	0.982	982.2	congruent	Block2	congruent/STIM_008.jpg	99
1920.695	0.878	877.5	congruent	Block2	congruent/STIM_008.jpg	100
1925.47	0.762	762.4	congruent	Block2	congruent/STIM_008.jpg	100
1929.349	0.839	839.4	congruent	Block2	congruent/STIM_008.jpg	100
1934.1	0.94	940.3	congruent	Block2	congruent/STIM_008.jpg	100
1938.01	0.796	796.3	congruent	Block2	congruent/STIM_009.jpg	99
1942.239	0.981	980.7	congruent	Block2	congruent/STIM_009.jpg	99
1946.433	0.715	715.1	congruent	Block2	congruent/STIM_009.jpg	100
1949.526	0.58	580.5	congruent	Block2	congruent/STIM_009.jpg	99
1952.829	0.837	837.4	congruent	Block2	congruent/STIM_009.jpg	99
1956.371	0.822	822.0	congruent	Block2	congruent/STIM_010.jpg	99
1959.328	0.976	975.5	congruent	Block2	congruent/STIM_010.jpg	99
1963.131	0.702	702.1	congruent	Block2	congruent/STIM_010.jpg	99
1966.704	0.694	694.0	congruent	Block2	congruent/STIM_010.jpg	99
1970.653	0.769	768.7	congruent	Block2	congruent/STIM_010.jpg	100
1974.979	0.88	879.8	congruent	Block2	congruent/STIM_011.jpg	100
1978.556	0.948	947.9	congruent	Block2	congruent/STIM_011.jpg	100
1982.904	0.97	969.9	congruent	Block2	congruent/STIM_011.jpg	99
1986.829	0.677	677.2	congruent	Block2	congruent/STIM_011.jpg	99
1991.265	0.707	707.4	congruent	Block2	congruent/STIM_011.jpg	99
1994.122	0.824	823.5	congruent	Block2	congruent/STIM_012.jpg	99
1997.121	0.941	940.6	congruent	Block2	congruent/STIM_012.jpg	99
2001.052	0.949	948.7	congruent	Block2	congruent/STIM_012.jpg	100
2005.395	0.636	635.9	congruent	Block2	congruent/STIM_012.jpg	99
2008.142	0.698	697.9	congruent	Block2	congruent/STIM_012.jpg	100
2012.7	0.641	641.2	congruent	Block2	congruent/STIM_013.jpg	100
2015.43	0.955	955.2	congruent	Block2	congruent/STIM_013.jpg	99
2019.79	0.82	820.4	congruent	Block2	congruent/STIM_013.jpg	99
2024.532	0.933	933.2	congruent	Block2	congruent/STIM_013.jpg	99
2027.477	0.59	589.7	congruent	Block2	congruent/STIM_013.jpg	99
2030.616	0.664	664.0	congruent	Block2	congruent/STIM_014.jpg	99
2034.475	0.921	921.3	congruent	Block2	congruent/STIM_014.jpg	100
2037.98	0.588	588.3	congruent	Block2	congruent/STIM_014.jpg	100
2040.605	0.75	749.7	congruent	Block2	congruent/STIM_014.jpg	99
2043.59	0.632	632.1	congruent	Block2	congruent/STIM_014.jpg	100
2047.146	0.971	971.2	congruent	Block2	congruent/STIM_015.jpg	99
2051.099	0.665	665.0	congruent	Block2	congruent/STIM_015.jpg	99
2055.288	0.619	618.7	congruent	Block2	congruent/STIM_015.jpg	100
2059.882	0.548	548.5	congruent	Block2	congruent/STIM_015.jpg	99
2063.274	0.907	907.3	congruent	Block2	congruent/STIM_015.jpg	100
2066.394	0.882	882.1	congruent	Block2	congruent/STIM_016.jpg	100
2069.337	0.89	890.0	congruent	Block2	congruent/STIM_016.jpg	99
2072.655	0.92	919.6	congruent	Block2	congruent/STIM_016.jpg	99
2075.949	0.698	698.0	congruent	Block2	congruent/STIM_016.jpg	100
2079.968	0.922	922.1	congruent	Block2	congruent/STIM_016.jpg	99
2084.658	0.583	583.3	congruent	Block2	congruent/STIM_017.jpg	100
2087.243	0.917	917.0	congruent	Block2	congruent/STIM_017.jpg	99
2090.585	0.597	596.8	congruent	Block2	congruent/STIM_017.jpg	99
2093.254	0.879	879.0	congruent	Block2	congruent/STIM_017.jpg	100
2097.726	0.778	778.1	congruent	Block2	congruent/STIM_017.jpg	100
2100.958	0.733	733.1	congruent	Block2	congruent/STIM_018.jpg	99
2105.572	0.896	895.6	congruent	Block2	congruent/STIM_018.jpg	99
2110.034	0.887	886.7	congruent	Block2	congruent/STIM_018.jpg	99
2114.558	0.575	574.7	congruent	Block2	congruent/STIM_018.jpg	100
2118.257	0.911	911.1	congruent	Block2	congruent/STIM_018.jpg	99
2123.163	0.641	641.1	congruent	Block2	congruent/STIM_019.jpg	99
2126.22	0.593	593.4	congruent	Block2	congruent/STIM_019.jpg	99
2129.986	0.688	688.1	congruent	Block2	congruent/STIM_019.jpg	99
2132.714	0.556	556.3	congruent	Block2	congruent/STIM_019.jpg	99
2137.212	0.606	605.6	congruent	Block2	congruent/STIM_019.jpg	99
2139.949	0.944	944.0	congruent	Block2	congruent/STIM_020.jpg	100
2144.228	0.819	818.7	congruent	Block2	congruent/STIM_020.jpg	100
2148.009	0.957	956.8	congruent	Block2	congruent/STIM_020.jpg	100
2152.208	0.825	825.2	congruent	Block2	congruent/STIM_020.jpg	99
2157.016	0.966	965.5	congruent	Block2	congruent/STIM_020.jpg	100
2160.127	0.811	811.3	congruent	Block2	congruent/STIM_021.jpg	100
2163.882	0.69	689.9	congruent	Block2	congruent/STIM_021.jpg	99
2167.081	0.638	637.6	congruent	Block2	congruent/STIM_021.jpg	100
2170.662	0.602	602.5	congruent	Block2	congruent/STIM_021.jpg	100
2174.696	0.716	716.4	congruent	Block2	congruent/STIM_021.jpg	99
2178.663	0.808	807.6	congruent	Block2	congruent/STIM_022.jpg	100
2181.583	0.966	966.5	congruent	Block2	congruent/STIM_022.jpg	99
2185.023	0.618	618.3	congruent	Block2	congruent/STIM_022.jpg	100
2188.422	0.589	589.1	congruent	Block2	congruent/STIM_022.jpg	99
2192.296	0.659	659.0	congruent	Block2	congruent/STIM_022.jpg	100
2195.617	0.96	960.4	congruent	Block2	congruent/STIM_023.jpg	100
2198.918	0.601	600.7	congruent	Block2	congruent/STIM_023.jpg	99
2202.433	0.781	781.3	congruent	Block2	congruent/STIM_023.jpg	100
2205.704	0.672	671.8	congruent	Block2	congruent/STIM_023.jpg	99
2210.311	0.969	969.4	congruent	Block2	congruent/STIM_023.jpg	99
2214.23	0.934	933.5	congruent	Block2	congruent/STIM_024.jpg	99
2218.558	0.686	686.0	congruent	Block2	congruent/STIM_024.jpg	99
2223.165	0.913	912.9	congruent	Block2	congruent/STIM_024.jpg	100
2227.427	0.793	793.0	congruent	Block2	congruent/STIM_024.jpg	100
2230.984	0.772	772.2	congruent	Block2	congruent/STIM_024.jpg	100
2234.216	0.873	873.3	congruent	Block2	congruent/STIM_025.jpg	100
2237.767	0.69	690.5	congruent	Block2	congruent/STIM_025.jpg	99
2240.924	0.58	579.8	congruent	Block2	congruent/STIM_025.jpg	100
2243.919	0.676	675.9	congruent	Block2	congruent/STIM_025.jpg	99
2246.643	0.974	974.3	congruent	Block2	congruent/STIM_025.jpg	99
2250.28	0.648	648.1	congruent	Block2	congruent/STIM_026.jpg	100
2254.684	0.894	894.1	congruent	Block2	congruent/STIM_026.jpg	100
2258.597	0.76	759.5	congruent	Block2	congruent/STIM_026.jpg	99
2261.845	0.678	678.2	congruent	Block2	congruent/STIM_026.jpg	99
2265.334	0.575	575.2	congruent	Block2	congruent/STIM_026.jpg	100
2268.921	0.89	889.8	congruent	Block2	congruent/STIM_027.jpg	99
2273.425	0.981	980.9	congruent	Block2	congruent/STIM_027.jpg	99
2277.9	0.688	688.4	congruent	Block2	congruent/STIM_027.jpg	99
2281.797	0.968	968.3	congruent	Block2	congruent/STIM_027.jpg	100
2285.439	0.717	716.6	congruent	Block2	congruent/STIM_027.jpg	100
2288.243	0.549	549.4	congruent	Block2	congruent/STIM_028.jpg	100
2292.508	0.821	820.9	congruent	Block2	congruent/STIM_028.jpg	99
2295.983	0.723	723.4	congruent	Block2	congruent/STIM_028.jpg	100
2299.805	0.837	836.8	congruent	Block2	congruent/STIM_028.jpg	100
2304.388	0.821	820.9	congruent	Block2	congruent/STIM_028.jpg	99
2307.238	0.8	799.6	congruent	Block2	congruent/STIM_029.jpg	99
2310.35	0.665	664.9	congruent	Block2	congruent/STIM_029.jpg	100
2314.648	0.717	716.9	congruent	Block2	congruent/STIM_029.jpg	100
2319.102	0.732	731.5	congruent	Block2	congruent/STIM_029.jpg	100
2322.068	0.807	807.3	congruent	Block2	congruent/STIM_029.jpg	100
2325.194	0.552	552.5	incongruent	Block3	incongruent/STIM_000.jpg	100
2328.723	0.797	797.4	incongruent	Block3	incongruent/STIM_000.jpg	100
2332.951	0.918	918.5	incongruent	Block3	incongruent/STIM_000.jpg	99
2337.029	0.568	567.8	incongruent	Block3	incongruent/STIM_000.jpg	100
2339.8	0.553	552.7	incongruent	Block3	incongruent/STIM_000.jpg	99
2343.502	0.846	845.9	incongruent	Block3	incongruent/STIM_001.jpg	99
2347.283	0.731	731.3	incongruent	Block3	incongruent/STIM_001.jpg	99
2350.762	1.106	1106.5	incongruent	Block3	incongruent/STIM_001.jpg	99
2354.838	0.804	804.1	incongruent	Block3	incongruent/STIM_001.jpg	99
2359.37	0.93	929.7	incongruent	Block3	incongruent/STIM_001.jpg	99
2363.512	0.69	690.3	incongruent	Block3	incongruent/STIM_002.jpg	99
2367.8	0.99	990.3	incongruent	Block3	incongruent/STIM_002.jpg	100
2371.116	1.103	1102.6	incongruent	Block3	incongruent/STIM_002.jpg	99
2375.514	0.625	625.1	incongruent	Block3	incongruent/STIM_002.jpg	99
2378.506	0.919	919.4	incongruent	Block3	incongruent/STIM_002.jpg	99
2381.85	0.963	963.0	incongruent	Block3	incongruent/STIM_003.jpg	100
2385.163	0.725	724.8	incongruent	Block3	incongruent/STIM_003.jpg	99
2389.645	1.143	1143.0	incongruent	Block3	incongruent/STIM_003.jpg	99
2393.925	0.812	812.1	incongruent	Block3	incongruent/STIM_003.jpg	99
2398.223	0.679	679.0	incongruent	Block3	incongruent/STIM_003.jpg	99
2402.14	0.79	790.1	incongruent	Block3	incongruent/STIM_004.jpg	100
2405.974	0.808	808.2	incongruent	Block3	incongruent/STIM_004.jpg	99
2410.089	1.017	1016.6	incongruent	Block3	incongruent/STIM_004.jpg	99
2414.511	1.148	1148.3	incongruent	Block3	incongruent/STIM_004.jpg	99
2418.973	0.571	570.9	incongruent	Block3	incongruent/STIM_004.jpg	99
2423.312	1.046	1046.5	incongruent	Block3	incongruent/STIM_005.jpg	99
2427.097	0.761	761.0	incongruent	Block3	incongruent/STIM_005.jpg	99
2429.89	0.892	892.2	incongruent	Block3	incongruent/STIM_005.jpg	100
2433.056	0.732	731.5	incongruent	Block3	incongruent/STIM_005.jpg	99
2435.929	0.936	936.5	incongruent	Block3	incongruent/STIM_005.jpg	100
2440.123	0.938	938.4	incongruent	Block3	incongruent/STIM_006.jpg	99
2444.5	0.921	920.9	incongruent	Block3	incongruent/STIM_006.jpg	99
2447.552	0.558	557.5	incongruent	Block3	incongruent/STIM_006.jpg	99
2450.997	0.648	648.5	incongruent	Block3	incongruent/STIM_006.jpg	99
2455.017	0.972	972.4	incongruent	Block3	incongruent/STIM_006.jpg	99
2459.097	0.782	782.3	incongruent	Block3	incongruent/STIM_007.jpg	99
2462.418	0.745	744.9	incongruent	Block3	incongruent/STIM_007.jpg	99
2465.758	1.029	1029.0	incongruent	Block3	incongruent/STIM_007.jpg	100
2469.102	1.134	1134.0	incongruent	Block3	incongruent/STIM_007.jpg	99
2472.727	0.867	866.8	incongruent	Block3	incongruent/STIM_007.jpg	100
2476.707	0.84	840.5	incongruent	Block3	incongruent/STIM_008.jpg	99
2480.88	0.56	560.3	incongruent	Block3	incongruent/STIM_008.jpg	99
2484.746	0.866	865.9	incongruent	Block3	incongruent/STIM_008.jpg	99
2487.779	1.122	1122.0	incongruent	Block3	incongruent/STIM_008.jpg	100
2491.075	0.969	968.9	incongruent	Block3	incongruent/STIM_008.jpg	100
2494.239	1.004	1003.6	incongruent	Block3	incongruent/STIM_009.jpg	100
2499.232	0.862	862.3	incongruent	Block3	incongruent/STIM_009.jpg	100
2503.995	1.108	1108.4	incongruent	Block3	incongruent/STIM_009.jpg	99
2508.999	0.934	933.9	incongruent	Block3	incongruent/STIM_009.jpg	100
2512.949	0.937	937.2	incongruent	Block3	incongruent/STIM_009.jpg	99
2516.456	0.785	784.7	incongruent	Block3	incongruent/STIM_010.jpg	100
2521.08	0.857	857.3	incongruent	Block3	incongruent/STIM_010.jpg	100
2524.163	0.748	747.5	incongruent	Block3	incongruent/STIM_010.jpg	100
2528.046	0.905	905.0	incongruent	Block3	incongruent/STIM_010.jpg	99
2532.617	0.855	854.8	incongruent	Block3	incongruent/STIM_010.jpg	100
2536.691	1.108	1107.9	incongruent	Block3	incongruent/STIM_011.jpg	99
2541.534	0.974	974.1	incongruent	Block3	incongruent/STIM_011.jpg	99
2546.12	0.96	959.5	incongruent	Block3	incongruent/STIM_011.jpg	100
2550.49	0.546	545.7	incongruent	Block3	incongruent/STIM_011.jpg	99
2554.258	0.854	853.8	incongruent	Block3	incongruent/STIM_011.jpg	99
2557.874	0.967	967.3	incongruent	Block3	incongruent/STIM_012.jpg	100
2561.231	0.738	738.5	incongruent	Block3	incongruent/STIM_012.jpg	99
2565.581	1.063	1062.8	incongruent	Block3	incongruent/STIM_012.jpg	99
2569.605	1.083	1083.3	incongruent	Block3	incongruent/STIM_012.jpg	100
2574.6	0.926	926.2	incongruent	Block3	incongruent/STIM_012.jpg	99
2578.676	1.139	1138.6	incongruent	Block3	incongruent/STIM_013.jpg	99
2582.957	0.603	603.1	incongruent	Block3	incongruent/STIM_013.jpg	99
2586.333	0.592	591.6	incongruent	Block3	incongruent/STIM_013.jpg	99
2590.256	1.131	1130.9	incongruent	Block3	incongruent/STIM_013.jpg	99
2594.109	1.031	1030.6	incongruent	Block3	incongruent/STIM_013.jpg	100
2598.491	1.112	1111.8	incongruent	Block3	incongruent/STIM_014.jpg	100
2602.515	0.61	610.0	incongruent	Block3	incongruent/STIM_014.jpg	100
2606.762	0.935	935.0	incongruent	Block3	incongruent/STIM_014.jpg	100
2611.005	1.031	1030.6	incongruent	Block3	incongruent/STIM_014.jpg	99
2614.161	0.564	564.0	incongruent	Block3	incongruent/STIM_014.jpg	99
2617.846	1.126	1126.2	incongruent	Block3	incongruent/STIM_015.jpg	99
2620.978	0.582	582.5	incongruent	Block3	incongruent/STIM_015.jpg	100
2623.697	0.733	733.3	incongruent	Block3	incongruent/STIM_015.jpg	100
2627.166	0.964	964.3	incongruent	Block3	incongruent/STIM_015.jpg	100
2631.787	1.086	1086.3	incongruent	Block3	incongruent/STIM_015.jpg	99
2636.036	1.086	1085.5	incongruent	Block3	incongruent/STIM_016.jpg	100
2640.926	0.911	911.3	incongruent	Block3	incongruent/STIM_016.jpg	99
2644.495	1.021	1020.9	incongruent	Block3	incongruent/STIM_016.jpg	99
2648.176	1.14	1140.1	incongruent	Block3	incongruent/STIM_016.jpg	100
2653.129	0.922	922.4	incongruent	Block3	incongruent/STIM_016.jpg	99
2656.332	0.876	875.7	incongruent	Block3	incongruent/STIM_017.jpg	100
2659.992	0.85	850.3	incongruent	Block3	incongruent/STIM_017.jpg	100
2664.777	0.843	842.7	incongruent	Block3	incongruent/STIM_017.jpg	100
2668.593	0.616	616.5	incongruent	Block3	incongruent/STIM_017.jpg	100
2671.58	1.002	1002.4	incongruent	Block3	incongruent/STIM_017.jpg	100
2676.311	0.965	964.6	incongruent	Block3	incongruent/STIM_018.jpg	100
2680.262	0.863	863.3	incongruent	Block3	incongruent/STIM_018.jpg	99
2683.31	1.054	1053.5	incongruent	Block3	incongruent/STIM_018.jpg	99
2687.336	1.001	1001.1	incongruent	Block3	incongruent/STIM_018.jpg	100
2692.135	1.03	1030.3	incongruent	Block3	incongruent/STIM_018.jpg	99
2696.559	0.594	593.7	incongruent	Block3	incongruent/STIM_019.jpg	100
2699.551	0.648	648.2	incongruent	Block3	incongruent/STIM_019.jpg	99
2704.055	0.623	623.2	incongruent	Block3	incongruent/STIM_019.jpg	100
2708.435	0.626	625.8	incongruent	Block3	incongruent/STIM_019.jpg	100
2712.03	1.072	1072.5	incongruent	Block3	incongruent/STIM_019.jpg	99
2715.379	0.682	682.3	incongruent	Block3	incongruent/STIM_020.jpg	100
2719.353	0.937	936.8	incongruent	Block3	incongruent/STIM_020.jpg	99
2723.698	0.74	740.4	incongruent	Block3	incongruent/STIM_020.jpg	99
2727.989	1.006	1006.0	incongruent	Block3	incongruent/STIM_020.jpg	99
2732.165	0.831	831.2	incongruent	Block3	incongruent/STIM_020.jpg	100
2736.328	0.788	787.9	incongruent	Block3	incongruent/STIM_021.jpg	100
2739.958	1.105	1105.0	incongruent	Block3	incongruent/STIM_021.jpg	99
2744.444	0.848	848.0	incongruent	Block3	incongruent/STIM_021.jpg	99
2747.929	0.98	980.0	incongruent	Block3	incongruent/STIM_021.jpg	100
2751.205	1.031	1031.3	incongruent	Block3	incongruent/STIM_021.jpg	99
2754.815	1.076	1075.8	incongruent	Block3	incongruent/STIM_022.jpg	99
2758.514	0.627	626.7	incongruent	Block3	incongruent/STIM_022.jpg	99
2761.856	0.979	978.7	incongruent	Block3	incongruent/STIM_022.jpg	99
2765.504	0.538	538.2	incongruent	Block3	incongruent/STIM_022.jpg	100
2768.083	0.969	969.2	incongruent	Block3	incongruent/STIM_022.jpg	99
2771.257	0.639	638.9	incongruent	Block3	incongruent/STIM_023.jpg	99
2774.948	0.685	684.9	incongruent	Block3	incongruent/STIM_023.jpg	99
2779.079	0.592	592.0	incongruent	Block3	incongruent/STIM_023.jpg	99
2783.23	1.004	1003.9	incongruent	Block3	incongruent/STIM_023.jpg	100
2786.652	0.872	871.6	incongruent	Block3	incongruent/STIM_023.jpg	99
2791.321	0.539	539.2	incongruent	Block3	incongruent/STIM_024.jpg	99
2795.788	0.556	555.6	incongruent	Block3	incongruent/STIM_024.jpg	99
2798.355	0.913	913.2	incongruent	Block3	incongruent/STIM_024.jpg	100
2801.919	1.033	1033.1	incongruent	Block3	incongruent/STIM_024.jpg	100
2806.854	0.929	928.7	incongruent	Block3	incongruent/STIM_024.jpg	100
2810.523	0.881	881.3	incongruent	Block3	incongruent/STIM_025.jpg	100
2814.964	0.664	663.7	incongruent	Block3	incongruent/STIM_025.jpg	100
2817.754	0.626	625.5	incongruent	Block3	incongruent/STIM_025.jpg	100
2821.224	0.898	897.7	incongruent	Block3	incongruent/STIM_025.jpg	99
2824.472	1.014	1014.1	incongruent	Block3	incongruent/STIM_025.jpg	99
2829.081	0.682	681.7	incongruent	Block3	incongruent/STIM_026.jpg	99
2831.817	1.008	1008.1	incongruent	Block3	incongruent/STIM_026.jpg	100
2835.093	0.978	978.5	incongruent	Block3	incongruent/STIM_026.jpg	100
2838.692	0.61	609.5	incongruent	Block3	incongruent/STIM_026.jpg	100
2841.753	0.588	587.7	incongruent	Block3	incongruent/STIM_026.jpg	100
2845.265	1.044	1044.2	incongruent	Block3	incongruent/STIM_027.jpg	99
2848.913	1.055	1054.9	incongruent	Block3	incongruent/STIM_027.jpg	100
2852.304	0.9	899.8	incongruent	Block3	incongruent/STIM_027.jpg	100
2855.399	0.882	882.1	incongruent	Block3	incongruent/STIM_027.jpg	99
2858.496	0.768	767.6	incongruent	Block3	incongruent/STIM_027.jpg	99
2862.683	0.882	881.5	incongruent	Block3	incongruent/STIM_028.jpg	99
2866.295	1.03	1029.5	incongruent	Block3	incongruent/STIM_028.jpg	100
2869.384	1.143	1143.1	incongruent	Block3	incongruent/STIM_028.jpg	99
2874.31	1.036	1036.1	incongruent	Block3	incongruent/STIM_028.jpg	100
2878.241	0.808	808.4	incongruent	Block3	incongruent/STIM_028.jpg	100
2881.851	0.847	846.8	incongruent	Block3	incongruent/STIM_029.jpg	100
2885.841	0.861	861.3	incongruent	Block3	incongruent/STIM_029.jpg	100
2890.259	1.081	1080.7	incongruent	Block3	incongruent/STIM_029.jpg	99
2893.789	0.612	612.3	incongruent	Block3	incongruent/STIM_029.jpg	99
2897.706	0.944	943.7	incongruent	Block3	incongruent/STIM_029.jpg	100
2901.505	0.728	728.0	congruent	Block3	congruent/STIM_000.jpg	100
2905.837	0.957	957.1	congruent	Block3	congruent/STIM_000.jpg	99
2909.837	0.638	638.2	congruent	Block3	congruent/STIM_000.jpg	100
2913.128	0.819	818.9	congruent	Block3	congruent/STIM_000.jpg	100
2916.878	0.853	853.4	congruent	Block3	congruent/STIM_000.jpg	99
2921.594	0.834	834.0	congruent	Block3	congruent/STIM_001.jpg	99
2926.104	0.863	863.0	congruent	Block3	congruent/STIM_001.jpg	100
2929.199	0.555	555.1	congruent	Block3	congruent/STIM_001.jpg	99
2932.322	0.705	705.1	congruent	Block3	congruent/STIM_001.jpg	99
2936.984	0.617	617.1	congruent	Block3	congruent/STIM_001.jpg	99
2940.287	0.816	815.6	congruent	Block3	congruent/STIM_002.jpg	99
2943.324	0.618	618.2	congruent	Block3	congruent/STIM_002.jpg	100
2947.283	0.892	891.5	congruent	Block3	congruent/STIM_002.jpg	100
2950.474	0.85	850.3	congruent	Block3	congruent/STIM_002.jpg	99
2955.212	0.551	550.6	congruent	Block3	congruent/STIM_002.jpg	99
2959.0	0.678	678.2	congruent	Block3	congruent/STIM_003.jpg	100
2961.992	0.95	949.9	congruent	Block3	congruent/STIM_003.jpg	99
2965.937	0.572	572.2	congruent	Block3	congruent/STIM_003.jpg	99
2970.044	0.746	746.0	congruent	Block3	congruent/STIM_003.jpg	100
2973.811	0.658	657.5	congruent	Block3	congruent/STIM_003.jpg	99
2978.412	0.881	880.7	congruent	Block3	congruent/STIM_004.jpg	99
2982.497	0.818	817.5	congruent	Block3	congruent/STIM_004.jpg	99
2987.052	0.549	549.1	congruent	Block3	congruent/STIM_004.jpg	99
2990.392	0.719	718.7	congruent	Block3	congruent/STIM_004.jpg	99
2994.54	0.806	806.0	congruent	Block3	congruent/STIM_004.jpg	100
2997.812	0.554	554.3	congruent	Block3	congruent/STIM_005.jpg	99
3001.788	0.858	857.7	congruent	Block3	congruent/STIM_005.jpg	100
3005.968	0.835	835.2	congruent	Block3	congruent/STIM_005.jpg	99
3010.452	0.68	679.7	congruent	Block3	congruent/STIM_005.jpg	99
3013.357	0.703	703.3	congruent	Block3	congruent/STIM_005.jpg	100
3016.259	0.712	711.7	congruent	Block3	congruent/STIM_006.jpg	99
3019.736	0.728	727.8	congruent	Block3	congruent/STIM_006.jpg	100
3022.483	0.898	897.9	congruent	Block3	congruent/STIM_006.jpg	100
3027.335	0.567	567.4	congruent	Block3	congruent/STIM_006.jpg	100
3030.375	0.809	809.3	congruent	Block3	congruent/STIM_006.jpg	99
3033.355	0.667	666.7	congruent	Block3	congruent/STIM_007.jpg	100
3036.642	0.618	618.3	congruent	Block3	congruent/STIM_007.jpg	100
3040.526	0.848	848.3	congruent	Block3	congruent/STIM_007.jpg	100
3044.475	0.651	651.0	congruent	Block3	congruent/STIM_007.jpg	99
3047.679	0.571	571.3	congruent	Block3	congruent/STIM_007.jpg	100
3051.68	0.855	854.7	congruent	Block3	congruent/STIM_008.jpg	100
3055.547	0.632	632.0	congruent	Block3	congruent/STIM_008.jpg	100
3058.464	0.621	620.9	congruent	Block3	congruent/STIM_008.jpg	100
3062.841	0.768	767.6	congruent	Block3	congruent/STIM_008.jpg	99
3065.677	0.874	874.5	congruent	Block3	congruent/STIM_008.jpg	100
3070.291	0.889	889.0	congruent	Block3	congruent/STIM_009.jpg	99
3073.598	0.684	684.3	congruent	Block3	congruent/STIM_009.jpg	99
3076.599	0.98	980.4	congruent	Block3	congruent/STIM_009.jpg	100
3080.241	0.848	848.4	congruent	Block3	congruent/STIM_009.jpg	100
3084.118	0.973	972.7	congruent	Block3	congruent/STIM_009.jpg	100
3087.204	0.624	624.1	congruent	Block3	congruent/STIM_010.jpg	99
3091.262	0.953	953.1	congruent	Block3	congruent/STIM_010.jpg	99
3095.254	0.869	868.8	congruent	Block3	congruent/STIM_010.jpg	100
3098.711	0.557	556.9	congruent	Block3	congruent/STIM_010.jpg	99
3103.126	0.811	811.1	congruent	Block3	congruent/STIM_010.jpg	99
3107.824	0.82	819.5	congruent	Block3	congruent/STIM_011.jpg	99
3110.733	0.642	642.3	congruent	Block3	congruent/STIM_011.jpg	100
3113.802	0.629	629.0	congruent	Block3	congruent/STIM_011.jpg	99
3116.826	0.973	973.4	congruent	Block3	congruent/STIM_011.jpg	99
3121.24	0.582	582.0	congruent	Block3	congruent/STIM_011.jpg	99
3124.618	0.761	760.8	congruent	Block3	congruent/STIM_012.jpg	100
3128.982	0.81	809.7	congruent	Block3	congruent/STIM_012.jpg	100
3133.694	0.696	695.5	congruent	Block3	congruent/STIM_012.jpg	100
3137.67	0.874	874.5	congruent	Block3	congruent/STIM_012.jpg	100
3142.517	0.659	659.2	congruent	Block3	congruent/STIM_012.jpg	100
3146.827	0.901	900.6	congruent	Block3	congruent/STIM_013.jpg	100
3150.02	0.945	945.4	congruent	Block3	congruent/STIM_013.jpg	99
3154.898	0.646	646.5	congruent	Block3	congruent/STIM_013.jpg	100
3157.769	0.856	856.4	congruent	Block3	congruent/STIM_013.jpg	99
3161.699	0.731	730.6	congruent	Block3	congruent/STIM_013.jpg	99
3164.651	0.847	846.9	congruent	Block3	congruent/STIM_014.jpg	100
3167.742	0.94	940.4	congruent	Block3	congruent/STIM_014.jpg	99
3171.413	0.635	634.7	congruent	Block3	congruent/STIM_014.jpg	100
3175.005	0.598	597.8	congruent	Block3	congruent/STIM_014.jpg	100
3179.511	0.951	950.9	congruent	Block3	congruent/STIM_014.jpg	100
3182.879	0.685	684.6	congruent	Block3	congruent/STIM_015.jpg	99
3186.929	0.863	862.7	congruent	Block3	congruent/STIM_015.jpg	100
3190.262	0.784	784.2	congruent	Block3	congruent/STIM_015.jpg	99
3193.349	0.983	983.0	congruent	Block3	congruent/STIM_015.jpg	99
3197.886	0.719	719.0	congruent	Block3	congruent/STIM_015.jpg	99
3201.594	0.841	840.6	congruent	Block3	congruent/STIM_016.jpg	99
3205.108	0.684	683.7	congruent	Block3	congruent/STIM_016.jpg	100
3209.242	0.68	680.5	congruent	Block3	congruent/STIM_016.jpg	100
3213.646	0.888	888.4	congruent	Block3	congruent/STIM_016.jpg	100
3217.503	0.937	937.2	congruent	Block3	congruent/STIM_016.jpg	99
3221.096	0.824	824.1	congruent	Block3	congruent/STIM_017.jpg	99
3225.745	0.679	678.8	congruent	Block3	congruent/STIM_017.jpg	100
3229.927	0.77	770.0	congruent	Block3	congruent/STIM_017.jpg	100
3234.689	0.61	610.1	congruent	Block3	congruent/STIM_017.jpg	100
3238.943	0.713	713.4	congruent	Block3	congruent/STIM_017.jpg	99
3242.991	0.68	680.3	congruent	Block3	congruent/STIM_018.jpg	99
3246.115	0.877	876.6	congruent	Block3	congruent/STIM_018.jpg	100
3249.516	0.798	797.5	congruent	Block3	congruent/STIM_018.jpg	100
3254.095	0.832	832.0	congruent	Block3	congruent/STIM_018.jpg	99
3258.866	0.595	594.7	congruent	Block3	congruent/STIM_018.jpg	99
3263.169	0.755	755.4	congruent	Block3	congruent/STIM_019.jpg	99
3267.513	0.71	709.6	congruent	Block3	congruent/STIM_019.jpg	100
3270.955	0.671	671.0	congruent	Block3	congruent/STIM_019.jpg	99
3274.297	0.586	585.6	congruent	Block3	congruent/STIM_019.jpg	99
3277.022	0.83	829.6	congruent	Block3	congruent/STIM_019.jpg	99
3281.02	0.686	686.5	congruent	Block3	congruent/STIM_020.jpg	99
3285.653	0.642	641.8	congruent	Block3	congruent/STIM_020.jpg	100
3288.498	0.67	669.6	congruent	Block3	congruent/STIM_020.jpg	100
3292.835	0.559	558.9	congruent	Block3	congruent/STIM_020.jpg	99
3295.79	0.849	848.9	congruent	Block3	congruent/STIM_020.jpg	99
3298.837	0.613	612.6	congruent	Block3	congruent/STIM_021.jpg	100
3303.381	0.642	641.8	congruent	Block3	congruent/STIM_021.jpg	99
3307.635	0.78	780.3	congruent	Block3	congruent/STIM_021.jpg	99
3312.186	0.796	795.7	congruent	Block3	congruent/STIM_021.jpg	99
3315.283	0.702	702.4	congruent	Block3	congruent/STIM_021.jpg	100
3319.574	0.754	754.1	congruent	Block3	congruent/STIM_022.jpg	99
3322.607	0.679	678.6	congruent	Block3	congruent/STIM_022.jpg	99
3326.407	0.865	865.1	congruent	Block3	congruent/STIM_022.jpg	100
3329.984	0.623	622.7	congruent	Block3	congruent/STIM_022.jpg	99
3334.001	0.961	961.1	congruent	Block3	congruent/STIM_022.jpg	99
3338.948	0.76	759.9	congruent	Block3	congruent/STIM_023.jpg	99
3342.925	0.609	609.2	congruent	Block3	congruent/STIM_023.jpg	99
3345.817	0.84	839.9	congruent	Block3	congruent/STIM_023.jpg	100
3349.279	0.945	945.1	congruent	Block3	congruent/STIM_023.jpg	100
3353.907	0.899	899.2	congruent	Block3	congruent/STIM_023.jpg	100
3357.379	0.807	806.8	congruent	Block3	congruent/STIM_024.jpg	99
3361.683	0.603	602.9	congruent	Block3	congruent/STIM_024.jpg	99
3364.768	0.786	785.8	congruent	Block3	congruent/STIM_024.jpg	99
3369.532	0.614	613.5	congruent	Block3	congruent/STIM_024.jpg	99
3372.302	0.679	679.2	congruent	Block3	congruent/STIM_024.jpg	100
3375.254	0.891	890.8	congruent	Block3	congruent/STIM_025.jpg	99
3379.66	0.732	732.4	congruent	Block3	congruent/STIM_025.jpg	99
3384.097	0.645	645.1	congruent	Block3	congruent/STIM_025.jpg	99
3388.675	0.96	960.1	congruent	Block3	congruent/STIM_025.jpg	100
3391.81	0.67	670.4	congruent	Block3	congruent/STIM_025.jpg	100
3396.425	0.909	909.4	congruent	Block3	congruent/STIM_026.jpg	99
3400.228	0.962	962.5	congruent	Block3	congruent/STIM_026.jpg	99
3403.361	0.782	781.9	congruent	Block3	congruent/STIM_026.jpg	100
3407.64	0.823	822.6	congruent	Block3	congruent/STIM_026.jpg	99
3412.135	0.601	600.7	congruent	Block3	congruent/STIM_026.jpg	99
3415.321	0.598	597.9	congruent	Block3	congruent/STIM_027.jpg	100
3417.982	0.722	722.4	congruent	Block3	congruent/STIM_027.jpg	99
3421.509	0.913	912.8	congruent	Block3	congruent/STIM_027.jpg	99
3424.549	0.609	608.9	congruent	Block3	congruent/STIM_027.jpg	99
3428.84	0.58	580.1	congruent	Block3	congruent/STIM_027.jpg	99
3432.781	0.743	743.4	congruent	Block3	congruent/STIM_028.jpg	99
3436.03	0.636	636.5	congruent	Block3	congruent/STIM_028.jpg	100
3439.153	0.933	932.6	congruent	Block3	congruent/STIM_028.jpg	100
3442.823	0.86	859.7	congruent	Block3	congruent/STIM_028.jpg	100
3447.606	0.843	842.7	congruent	Block3	congruent/STIM_028.jpg	99
3452.323	0.782	781.7	congruent	Block3	congruent/STIM_029.jpg	99
3456.365	0.72	719.9	congruent	Block3	congruent/STIM_029.jpg	100
3460.22	0.768	767.7	congruent	Block3	congruent/STIM_029.jpg	99
3464.677	0.67	670.2	congruent	Block3	congruent/STIM_029.jpg	99
3467.986	0.652	652.5	congruent	Block3	congruent/STIM_029.jpg	100
