onset	duration	response_time_ms	trial_type	learning_stage	stimulus	response_port
0.0	1.058	1058.3	incongruent	Block1	incongruent/STIM_000.jpg	100
4.244	1.043	1043.2	incongruent	Block1	incongruent/STIM_000.jpg	100
7.966	0.652	651.8	incongruent	Block1	incongruent/STIM_000.jpg	100
12.631	0.848	848.0	incongruent	Block1	incongruent/STIM_000.jpg	100
16.025	0.722	721.5	incongruent	Block1	incongruent/STIM_000.jpg	100
20.543	1.254	1254.2	incongruent	Block1	incongruent/STIM_001.jpg	99
24.383	0.818	818.0	incongruent	Block1	incongruent/STIM_001.jpg	100
28.352	1.042	1042.0	incongruent	Block1	incongruent/STIM_001.jpg	99
31.843	0.687	686.6	incongruent	Block1	incongruent/STIM_001.jpg	100
34.68	0.706	706.5	incongruent	Block1	incongruent/STIM_001.jpg	99
38.535	0.74	740.5	incongruent	Block1	incongruent/STIM_002.jpg	100
42.43	1.088	1088.5	incongruent	Block1	incongruent/STIM_002.jpg	100
47.192	1.192	1192.3	incongruent	Block1	incongruent/STIM_002.jpg	100
52.47	0.892	892.0	incongruent	Block1	incongruent/STIM_002.jpg	100
55.522	0.762	762.4	incongruent	Block1	incongruent/STIM_002.jpg	99
58.516	1.294	1293.9	incongruent	Block1	incongruent/STIM_003.jpg	99
62.72	1.211	1210.7	incongruent	Block1	incongruent/STIM_003.jpg	100
67.528	0.752	752.2	incongruent	Block1	incongruent/STIM_003.jpg	100
71.413	1.127	1127.4	incongruent	Block1	incongruent/STIM_003.jpg	99
75.456	0.735	735.3	incongruent	Block1	incongruent/STIM_003.jpg	99
80.03	0.672	672.1	incongruent	Block1	incongruent/STIM_004.jpg	100
83.724	0.825	824.8	incongruent	Block1	incongruent/STIM_004.jpg	100
87.244	0.913	912.8	incongruent	Block1	incongruent/STIM_004.jpg	99
90.982	1.125	1125.1	incongruent	Block1	incongruent/STIM_004.jpg	100
95.691	0.567	567.2	incongruent	Block1	incongruent/STIM_004.jpg	99
98.964	1.125	1125.1	incongruent	Block1	incongruent/STIM_005.jpg	100
103.057	0.958	957.6	incongruent	Block1	incongruent/STIM_005.jpg	99
107.178	1.246	1246.2	incongruent	Block1	incongruent/STIM_005.jpg	100
111.874	0.568	568.2	incongruent	Block1	incongruent/STIM_005.jpg	99
116.387	0.648	647.7	incongruent	Block1	incongruent/STIM_005.jpg	100
120.289	1.289	1289.0	incongruent	Block1	incongruent/STIM_006.jpg	99
125.011	0.793	793.1	incongruent	Block1	incongruent/STIM_006.jpg	99
128.181	0.926	925.8	incongruent	Block1	incongruent/STIM_006.jpg	99
132.941	1.069	1069.2	incongruent	Block1	incongruent/STIM_006.jpg	100
136.425	0.978	977.7	incongruent	Block1	incongruent/STIM_006.jpg	100
139.647	1.132	1132.5	incongruent	Block1	incongruent/STIM_007.jpg	100
143.999	0.682	681.7	incongruent	Block1	incongruent/STIM_007.jpg	99
148.066	0.951	950.7	incongruent	Block1	incongruent/STIM_007.jpg	100
151.242	0.81	810.2	incongruent	Block1	incongruent/STIM_007.jpg	100
155.982	0.758	758.5	incongruent	Block1	incongruent/STIM_007.jpg	100
159.09	1.363	1362.7	incongruent	Block1	incongruent/STIM_008.jpg	100
164.177	0.997	996.7	incongruent	Block1	incongruent/STIM_008.jpg	99
169.156	1.007	1007.3	incongruent	Block1	incongruent/STIM_008.jpg	99
172.781	0.829	829.3	incongruent	Block1	incongruent/STIM_008.jpg	99
176.595	0.698	698.0	incongruent	Block1	incongruent/STIM_008.jpg	99
180.251	1.055	1055.2	incongruent	Block1	incongruent/STIM_009.jpg	99
185.128	1.213	1213.1	incongruent	Block1	incongruent/STIM_009.jpg	99
188.654	0.692	691.5	incongruent	Block1	incongruent/STIM_009.jpg	100
192.783	0.607	607.3	incongruent	Block1	incongruent/STIM_009.jpg	100
197.328	0.916	916.5	incongruent	Block1	incongruent/STIM_009.jpg	99
201.188	1.302	1301.9	incongruent	Block1	incongruent/STIM_010.jpg	99
206.049	0.853	853.4	incongruent	Block1	incongruent/STIM_010.jpg	99
210.519	0.977	976.7	incongruent	Block1	incongruent/STIM_010.jpg	99
215.556	0.677	677.1	incongruent	Block1	incongruent/STIM_010.jpg	99
220.097	0.521	520.6	incongruent	Block1	incongruent/STIM_010.jpg	100
224.125	0.735	734.9	incongruent	Block1	incongruent/STIM_011.jpg	100
227.669	0.789	789.4	incongruent	Block1	incongruent/STIM_011.jpg	100
231.655	0.942	942.3	incongruent	Block1	incongruent/STIM_011.jpg	100
235.949	0.724	723.7	incongruent	Block1	incongruent/STIM_011.jpg	100
239.569	0.67	669.6	incongruent	Block1	incongruent/STIM_011.jpg	99
243.018	1.084	1084.3	incongruent	Block1	incongruent/STIM_012.jpg	100
246.772	1.214	1214.4	incongruent	Block1	incongruent/STIM_012.jpg	100
250.81	0.742	742.1	incongruent	Block1	incongruent/STIM_012.jpg	100
255.242	0.853	853.0	incongruent	Block1	incongruent/STIM_012.jpg	100
259.748	0.653	652.6	incongruent	Block1	incongruent/STIM_012.jpg	99
263.37	0.995	995.4	incongruent	Block1	incongruent/STIM_013.jpg	100
267.586	0.77	770.5	incongruent	Block1	incongruent/STIM_013.jpg	99
271.7	1.119	1119.2	incongruent	Block1	incongruent/STIM_013.jpg	99
276.309	0.92	919.6	incongruent	Block1	incongruent/STIM_013.jpg	99
280.539	0.991	991.4	incongruent	Block1	incongruent/STIM_013.jpg	100
283.711	0.914	913.9	incongruent	Block1	incongruent/STIM_014.jpg	99
287.082	0.736	735.9	incongruent	Block1	incongruent/STIM_014.jpg	100
290.609	0.964	963.9	incongruent	Block1	incongruent/STIM_014.jpg	100
293.941	1.046	1045.8	incongruent	Block1	incongruent/STIM_014.jpg	100
298.956	0.909	908.7	incongruent	Block1	incongruent/STIM_014.jpg	99
302.05	1.382	1382.4	incongruent	Block1	incongruent/STIM_015.jpg	99
305.599	0.65	650.2	incongruent	Block1	incongruent/STIM_015.jpg	100
309.998	1.179	1178.8	incongruent	Block1	incongruent/STIM_015.jpg	100
313.311	0.574	573.5	incongruent	Block1	incongruent/STIM_015.jpg	100
316.237	0.628	627.9	incongruent	Block1	incongruent/STIM_015.jpg	100
319.162	0.912	912.1	incongruent	Block1	incongruent/STIM_016.jpg	99
322.691	1.116	1116.2	incongruent	Block1	incongruent/STIM_016.jpg	99
326.514	1.115	1115.3	incongruent	Block1	incongruent/STIM_016.jpg	99
329.743	0.757	757.4	incongruent	Block1	incongruent/STIM_016.jpg	100
332.744	0.699	699.4	incongruent	Block1	incongruent/STIM_016.jpg	100
335.904	0.776	775.9	incongruent	Block1	incongruent/STIM_017.jpg	99
339.386	0.616	616.1	incongruent	Block1	incongruent/STIM_017.jpg	99
343.434	1.165	1165.3	incongruent	Block1	incongruent/STIM_017.jpg	99
347.21	0.654	654.3	incongruent	Block1	incongruent/STIM_017.jpg	99
350.203	0.941	941.2	incongruent	Block1	incongruent/STIM_017.jpg	100
353.984	0.794	794.3	incongruent	Block1	incongruent/STIM_018.jpg	99
357.683	0.708	708.3	incongruent	Block1	incongruent/STIM_018.jpg	99
360.772	0.993	993.1	incongruent	Block1	incongruent/STIM_018.jpg	100
365.336	0.69	690.3	incongruent	Block1	incongruent/STIM_018.jpg	100
369.559	1.059	1058.6	incongruent	Block1	incongruent/STIM_018.jpg	100
372.78	1.254	1253.6	incongruent	Block1	incongruent/STIM_019.jpg	100
377.014	1.139	1139.2	incongruent	Block1	incongruent/STIM_019.jpg	100
381.12	0.968	968.1	incongruent	Block1	incongruent/STIM_019.jpg	100
384.395	0.848	847.7	incongruent	Block1	incongruent/STIM_019.jpg	99
387.91	0.635	635.1	incongruent	Block1	incongruent/STIM_019.jpg	99
390.873	0.7	700.3	incongruent	Block1	incongruent/STIM_020.jpg	99
394.749	0.994	994.1	incongruent	Block1	incongruent/STIM_020.jpg	99
398.59	1.242	1242.1	incongruent	Block1	incongruent/STIM_020.jpg	100
403.885	0.996	996.3	incongruent	Block1	incongruent/STIM_020.jpg	100
408.162	0.717	717.0	incongruent	Block1	incongruent/STIM_020.jpg	99
412.875	0.929	928.8	incongruent	Block1	incongruent/STIM_021.jpg	100
417.403	1.249	1248.6	incongruent	Block1	incongruent/STIM_021.jpg	99
421.448	1.074	1074.4	incongruent	Block1	incongruent/STIM_021.jpg	99
424.987	0.606	605.6	incongruent	Block1	incongruent/STIM_021.jpg	99
428.498	0.61	610.0	incongruent	Block1	incongruent/STIM_021.jpg	100
432.074	0.666	666.1	incongruent	Block1	incongruent/STIM_022.jpg	100
435.306	0.97	970.3	incongruent	Block1	incongruent/STIM_022.jpg	99
438.937	0.687	686.7	incongruent	Block1	incongruent/STIM_022.jpg	99
442.424	0.799	799.0	incongruent	Block1	incongruent/STIM_022.jpg	100
446.495	0.969	969.0	incongruent	Block1	incongruent/STIM_022.jpg	99
450.888	1.067	1066.8	incongruent	Block1	incongruent/STIM_023.jpg	99
454.434	0.872	871.8	incongruent	Block1	incongruent/STIM_023.jpg	99
458.825	0.685	684.7	incongruent	Block1	incongruent/STIM_023.jpg	99
462.062	1.049	1049.4	incongruent	Block1	incongruent/STIM_023.jpg	100
466.737	0.755	755.4	incongruent	Block1	incongruent/STIM_023.jpg	99
471.284	1.006	1005.7	incongruent	Block1	incongruent/STIM_024.jpg	99
474.59	1.194	1194.1	incongruent	Block1	incongruent/STIM_024.jpg	100
479.672	0.994	993.8	incongruent	Block1	incongruent/STIM_024.jpg	99
484.604	0.568	568.2	incongruent	Block1	incongruent/STIM_024.jpg	99
488.985	0.594	594.0	incongruent	Block1	incongruent/STIM_024.jpg	99
493.035	0.946	945.7	incongruent	Block1	incongruent/STIM_025.jpg	100
497.629	1.071	1070.8	incongruent	Block1	incongruent/STIM_025.jpg	99
501.317	0.793	793.1	incongruent	Block1	incongruent/STIM_025.jpg	99
506.154	0.708	707.8	incongruent	Block1	incongruent/STIM_025.jpg	100
509.19	1.049	1049.4	incongruent	Block1	incongruent/STIM_025.jpg	99
514.033	1.214	1213.6	incongruent	Block1	incongruent/STIM_026.jpg	100
518.799	1.116	1116.3	incongruent	Block1	incongruent/STIM_026.jpg	99
522.738	0.829	828.7	incongruent	Block1	incongruent/STIM_026.jpg	99
527.483	0.724	724.3	incongruent	Block1	incongruent/STIM_026.jpg	100
530.642	0.888	887.6	incongruent	Block1	incongruent/STIM_026.jpg	100
534.907	1.175	1175.4	incongruent	Block1	incongruent/STIM_027.jpg	99
538.837	1.026	1026.5	incongruent	Block1	incongruent/STIM_027.jpg	100
543.451	1.037	1037.1	incongruent	Block1	incongruent/STIM_027.jpg	99
547.011	1.156	1156.4	incongruent	Block1	incongruent/STIM_027.jpg	100
551.427	0.745	745.2	incongruent	Block1	incongruent/STIM_027.jpg	99
555.432	0.952	951.8	incongruent	Block1	incongruent/STIM_028.jpg	99
558.866	1.148	1147.5	incongruent	Block1	incongruent/STIM_028.jpg	99
563.658	1.042	1042.2	incongruent	Block1	incongruent/STIM_028.jpg	99
568.569	0.706	706.2	incongruent	Block1	incongruent/STIM_028.jpg	99
572.753	1.052	1051.8	incongruent	Block1	incongruent/STIM_028.jpg	100
577.154	0.678	678.4	incongruent	Block1	incongruent/STIM_029.jpg	99
581.082	0.797	796.8	incongruent	Block1	incongruent/STIM_029.jpg	100
585.837	1.114	1114.0	incongruent	Block1	incongruent/STIM_029.jpg	100
590.902	0.852	852.1	incongruent	Block1	incongruent/STIM_029.jpg	99
595.178	0.997	996.7	incongruent	Block1	incongruent/STIM_029.jpg	100
598.412	0.542	541.6	congruent	Block1	congruent/STIM_000.jpg	99
602.28	0.83	830.4	congruent	Block1	congruent/STIM_000.jpg	99
605.941	0.607	606.7	congruent	Block1	congruent/STIM_000.jpg	100
610.286	0.542	541.8	congruent	Block1	congruent/STIM_000.jpg	100
614.134	0.709	708.7	congruent	Block1	congruent/STIM_000.jpg	99
617.058	0.535	535.2	congruent	Block1	congruent/STIM_001.jpg	99
620.655	0.768	767.7	congruent	Block1	congruent/STIM_001.jpg	99
625.065	0.789	788.9	congruent	Block1	congruent/STIM_001.jpg	99
628.683	0.676	676.3	congruent	Block1	congruent/STIM_001.jpg	100
632.279	0.82	820.2	congruent	Block1	congruent/STIM_001.jpg	100
635.919	0.585	584.8	congruent	Block1	congruent/STIM_002.jpg	99
638.993	0.824	824.5	congruent	Block1	congruent/STIM_002.jpg	99
642.331	0.782	782.4	congruent	Block1	congruent/STIM_002.jpg	100
646.863	0.64	639.5	congruent	Block1	congruent/STIM_002.jpg	100
651.547	0.626	625.7	congruent	Block1	congruent/STIM_002.jpg	100
655.314	0.803	803.2	congruent	Block1	congruent/STIM_003.jpg	99
658.905	0.546	545.5	congruent	Block1	congruent/STIM_003.jpg	99
661.951	0.5	499.6	congruent	Block1	congruent/STIM_003.jpg	99
666.147	0.57	569.6	congruent	Block1	congruent/STIM_003.jpg	99
669.716	0.543	542.7	congruent	Block1	congruent/STIM_003.jpg	99
674.133	0.821	820.6	congruent	Block1	congruent/STIM_004.jpg	100
677.56	0.619	618.6	congruent	Block1	congruent/STIM_004.jpg	99
680.424	0.464	464.3	congruent	Block1	congruent/STIM_004.jpg	100
684.198	0.686	686.0	congruent	Block1	congruent/STIM_004.jpg	99
688.744	0.64	640.3	congruent	Block1	congruent/STIM_004.jpg	99
693.313	0.607	606.9	congruent	Block1	congruent/STIM_005.jpg	99
696.827	0.527	526.6	congruent	Block1	congruent/STIM_005.jpg	99
699.51	0.535	534.6	congruent	Block1	congruent/STIM_005.jpg	100
703.613	0.683	682.7	congruent	Block1	congruent/STIM_005.jpg	99
708.185	0.609	608.8	congruent	Block1	congruent/STIM_005.jpg	100
712.84	0.771	771.3	congruent	Block1	congruent/STIM_006.jpg	99
717.567	0.478	478.1	congruent	Block1	congruent/STIM_006.jpg	99
720.523	0.685	684.7	congruent	Block1	congruent/STIM_006.jpg	100
724.499	0.655	655.3	congruent	Block1	congruent/STIM_006.jpg	99
727.3	0.472	472.4	congruent	Block1	congruent/STIM_006.jpg	99
730.061	0.671	671.2	congruent	Block1	congruent/STIM_007.jpg	100
732.883	0.629	629.0	congruent	Block1	congruent/STIM_007.jpg	100
735.824	0.81	810.0	congruent	Block1	congruent/STIM_007.jpg	99
739.444	0.777	777.2	congruent	Block1	congruent/STIM_007.jpg	99
743.475	0.666	666.2	congruent	Block1	congruent/STIM_007.jpg	100
747.482	0.599	599.3	congruent	Block1	congruent/STIM_008.jpg	100
750.194	0.75	750.4	congruent	Block1	congruent/STIM_008.jpg	99
754.835	0.669	668.9	congruent	Block1	congruent/STIM_008.jpg	99
758.555	0.628	628.5	congruent	Block1	congruent/STIM_008.jpg	100
762.9	0.513	512.8	congruent	Block1	congruent/STIM_008.jpg	100
765.737	0.614	614.4	congruent	Block1	congruent/STIM_009.jpg	99
770.057	0.768	767.6	congruent	Block1	congruent/STIM_009.jpg	100
774.544	0.586	586.1	congruent	Block1	congruent/STIM_009.jpg	100
778.971	0.516	516.2	congruent	Block1	congruent/STIM_009.jpg	100
781.801	0.664	664.0	congruent	Block1	congruent/STIM_009.jpg	99
785.244	0.77	769.7	congruent	Block1	congruent/STIM_010.jpg	100
790.008	0.502	501.9	congruent	Block1	congruent/STIM_010.jpg	100
793.372	0.73	729.6	congruent	Block1	congruent/STIM_010.jpg	99
797.104	0.683	682.6	congruent	Block1	congruent/STIM_010.jpg	99
801.123	0.711	711.4	congruent	Block1	congruent/STIM_010.jpg	100
805.405	0.473	472.7	congruent	Block1	congruent/STIM_011.jpg	100
809.752	0.728	727.9	congruent	Block1	congruent/STIM_011.jpg	100
812.698	0.701	701.3	congruent	Block1	congruent/STIM_011.jpg	100
815.724	0.818	818.0	congruent	Block1	congruent/STIM_011.jpg	100
819.922	0.65	649.7	congruent	Block1	congruent/STIM_011.jpg	100
824.479	0.577	577.2	congruent	Block1	congruent/STIM_012.jpg	100
828.569	0.734	734.2	congruent	Block1	congruent/STIM_012.jpg	100
832.376	0.777	777.1	congruent	Block1	congruent/STIM_012.jpg	100
836.758	0.666	666.5	congruent	Block1	congruent/STIM_012.jpg	100
839.769	0.71	710.4	congruent	Block1	congruent/STIM_012.jpg	100
844.22	0.546	546.5	congruent	Block1	congruent/STIM_013.jpg	99
848.253	0.578	578.3	congruent	Block1	congruent/STIM_013.jpg	100
851.777	0.622	621.5	congruent	Block1	congruent/STIM_013.jpg	99
854.979	0.636	636.0	congruent	Block1	congruent/STIM_013.jpg	100
857.989	0.799	799.0	congruent	Block1	congruent/STIM_013.jpg	99
861.889	0.483	483.4	congruent	Block1	congruent/STIM_014.jpg	100
865.407	0.487	486.6	congruent	Block1	congruent/STIM_014.jpg	99
869.471	0.825	825.3	congruent	Block1	congruent/STIM_014.jpg	99
873.237	0.618	618.5	congruent	Block1	congruent/STIM_014.jpg	100
877.864	0.606	606.3	congruent	Block1	congruent/STIM_014.jpg	99
880.834	0.558	558.1	congruent	Block1	congruent/STIM_015.jpg	99
883.856	0.746	745.7	congruent	Block1	congruent/STIM_015.jpg	99
888.196	0.615	615.4	congruent	Block1	congruent/STIM_015.jpg	99
891.999	0.79	789.7	congruent	Block1	congruent/STIM_015.jpg	100
895.46	0.583	583.3	congruent	Block1	congruent/STIM_015.jpg	100
898.17	0.637	637.1	congruent	Block1	congruent/STIM_016.jpg	100
901.505	0.752	752.4	congruent	Block1	congruent/STIM_016.jpg	99
904.64	0.76	760.3	congruent	Block1	congruent/STIM_016.jpg	99
908.297	0.73	729.6	congruent	Block1	congruent/STIM_016.jpg	99
912.918	0.599	599.3	congruent	Block1	congruent/STIM_016.jpg	100
917.302	0.636	636.4	congruent	Block1	congruent/STIM_017.jpg	100
920.921	0.498	498.1	congruent	Block1	congruent/STIM_017.jpg	99
923.782	0.705	704.6	congruent	Block1	congruent/STIM_017.jpg	100
928.187	0.815	815.3	congruent	Block1	congruent/STIM_017.jpg	100
932.914	0.663	662.9	congruent	Block1	congruent/STIM_017.jpg	99
936.038	0.624	623.6	congruent	Block1	congruent/STIM_018.jpg	100
938.845	0.786	786.2	congruent	Block1	congruent/STIM_018.jpg	99
943.575	0.647	646.6	congruent	Block1	congruent/STIM_018.jpg	99
946.334	0.693	693.4	congruent	Block1	congruent/STIM_018.jpg	100
950.713	0.711	711.1	congruent	Block1	congruent/STIM_018.jpg	99
955.038	0.755	754.9	congruent	Block1	congruent/STIM_019.jpg	100
958.157	0.526	526.5	congruent	Block1	congruent/STIM_019.jpg	99
961.207	0.576	576.3	congruent	Block1	congruent/STIM_019.jpg	99
965.24	0.509	508.9	congruent	Block1	congruent/STIM_019.jpg	100
969.38	0.766	765.5	congruent	Block1	congruent/STIM_019.jpg	99
973.202	0.7	699.9	congruent	Block1	congruent/STIM_020.jpg	99
977.485	0.824	823.7	congruent	Block1	congruent/STIM_020.jpg	100
982.347	0.606	606.0	congruent	Block1	congruent/STIM_020.jpg	100
986.46	0.536	536.0	congruent	Block1	congruent/STIM_020.jpg	99
989.265	0.586	585.5	congruent	Block1	congruent/STIM_020.jpg	100
992.666	0.789	788.8	congruent	Block1	congruent/STIM_021.jpg	100
995.58	0.558	558.5	congruent	Block1	congruent/STIM_021.jpg	99
998.946	0.699	699.2	congruent	Block1	congruent/STIM_021.jpg	99
1002.811	0.493	493.1	congruent	Block1	congruent/STIM_021.jpg	100
1006.656	0.7	699.8	congruent	Block1	congruent/STIM_021.jpg	99
1009.95	0.562	561.7	congruent	Block1	congruent/STIM_022.jpg	100
1013.306	0.527	527.4	congruent	Block1	congruent/STIM_022.jpg	100
1015.878	0.558	558.3	congruent	Block1	congruent/STIM_022.jpg	99
1019.899	0.687	686.6	congruent	Block1	congruent/STIM_022.jpg	99
1023.408	0.767	767.4	congruent	Block1	congruent/STIM_022.jpg	100
1026.273	0.686	686.5	congruent	Block1	congruent/STIM_023.jpg	100
1029.052	0.55	549.8	congruent	Block1	congruent/STIM_023.jpg	100
1032.904	0.706	706.4	congruent	Block1	congruent/STIM_023.jpg	99
1036.436	0.823	823.2	congruent	Block1	congruent/STIM_023.jpg	100
1039.771	0.573	573.1	congruent	Block1	congruent/STIM_023.jpg	100
1042.651	0.716	715.6	congruent	Block1	congruent/STIM_024.jpg	100
1047.341	0.689	689.0	congruent	Block1	congruent/STIM_024.jpg	99
1050.555	0.69	689.8	congruent	Block1	congruent/STIM_024.jpg	100
1055.02	0.696	695.5	congruent	Block1	congruent/STIM_024.jpg	99
1057.905	0.628	628.3	congruent	Block1	congruent/STIM_024.jpg	100
1061.339	0.596	596.5	congruent	Block1	congruent/STIM_025.jpg	99
1064.325	0.534	534.1	congruent	Block1	congruent/STIM_025.jpg	99
1067.256	0.758	758.2	congruent	Block1	congruent/STIM_025.jpg	100
1072.035	0.557	556.8	congruent	Block1	congruent/STIM_025.jpg	100
1075.727	0.517	517.3	congruent	Block1	congruent/STIM_025.jpg	100
1079.914	0.69	689.7	congruent	Block1	congruent/STIM_026.jpg	99
1084.285	0.517	516.8	congruent	Block1	congruent/STIM_026.jpg	99
1088.229	0.663	662.9	congruent	Block1	congruent/STIM_026.jpg	99
1091.853	0.815	815.2	congruent	Block1	congruent/STIM_026.jpg	100
1095.749	0.763	762.8	congruent	Block1	congruent/STIM_026.jpg	100
1099.243	0.513	513.1	congruent	Block1	congruent/STIM_027.jpg	100
1101.843	0.549	548.7	congruent	Block1	congruent/STIM_027.jpg	99
1105.261	0.61	609.8	congruent	Block1	congruent/STIM_027.jpg	100
1109.507	0.731	731.4	congruent	Block1	congruent/STIM_027.jpg	100
1112.653	0.775	775.4	congruent	Block1	congruent/STIM_027.jpg	99
1116.489	0.509	508.9	congruent	Block1	congruent/STIM_028.jpg	99
1119.506	0.551	550.8	congruent	Block1	congruent/STIM_028.jpg	99
1122.541	0.81	810.0	congruent	Block1	congruent/STIM_028.jpg	99
1126.937	0.536	536.0	congruent	Block1	congruent/STIM_028.jpg	99
1131.365	0.768	767.7	congruent	Block1	congruent/STIM_028.jpg	99
1135.587	0.528	527.7	congruent	Block1	congruent/STIM_029.jpg	100
1139.854	0.632	632.5	congruent	Block1	congruent/STIM_029.jpg	99
1143.492	0.576	575.6	congruent	Block1	congruent/STIM_029.jpg	100
1147.983	0.794	794.5	congruent	Block1	congruent/STIM_029.jpg	99
1151.139	0.765	764.6	congruent	Block1	congruent/STIM_029.jpg	100
1154.641	0.803	802.9	incongruent	Block2	incongruent/STIM_000.jpg	99
1159.098	0.961	960.9	incongruent	Block2	incongruent/STIM_000.jpg	100
1163.249	0.614	613.6	incongruent	Block2	incongruent/STIM_000.jpg	100
1166.53	0.744	743.6	incongruent	Block2	incongruent/STIM_000.jpg	99
1170.237	0.501	501.3	incongruent	Block2	incongruent/STIM_000.jpg	100
1174.122	0.572	571.7	incongruent	Block2	incongruent/STIM_001.jpg	100
1178.66	0.888	888.1	incongruent	Block2	incongruent/STIM_001.jpg	99
1182.155	0.649	648.7	incongruent	Block2	incongruent/STIM_001.jpg	100
1186.645	0.969	969.0	incongruent	Block2	incongruent/STIM_001.jpg	100
1191.093	0.676	676.5	incongruent	Block2	incongruent/STIM_001.jpg	99
1195.75	0.785	785.3	incongruent	Block2	incongruent/STIM_002.jpg	100
1200.46	0.929	929.3	incongruent	Block2	incongruent/STIM_002.jpg	100
1203.56	0.91	910.4	incongruent	Block2	incongruent/STIM_002.jpg	99
1206.878	0.936	936.1	incongruent	Block2	incongruent/STIM_002.jpg	99
1211.696	0.754	754.5	incongruent	Block2	incongruent/STIM_002.jpg	100
1216.18	0.741	740.9	incongruent	Block2	incongruent/STIM_003.jpg	100
1219.875	0.581	581.3	incongruent	Block2	incongruent/STIM_003.jpg	99
1223.846	0.899	899.1	incongruent	Block2	incongruent/STIM_003.jpg	99
1227.094	0.458	458.4	incongruent	Block2	incongruent/STIM_003.jpg	99
1230.909	0.951	950.6	incongruent	Block2	incongruent/STIM_003.jpg	100
1235.044	1.073	1073.3	incongruent	Block2	incongruent/STIM_004.jpg	100
1239.479	1.004	1003.5	incongruent	Block2	incongruent/STIM_004.jpg	99
1243.71	0.978	977.6	incongruent	Block2	incongruent/STIM_004.jpg	100
1248.717	0.934	933.5	incongruent	Block2	incongruent/STIM_004.jpg	99
1252.188	0.793	793.0	incongruent	Block2	incongruent/STIM_004.jpg	99
1256.656	1.033	1033.3	incongruent	Block2	incongruent/STIM_005.jpg	99
1259.962	0.963	962.9	incongruent	Block2	incongruent/STIM_005.jpg	99
1264.519	0.874	873.9	incongruent	Block2	incongruent/STIM_005.jpg	100
1267.842	0.632	632.5	incongruent	Block2	incongruent/STIM_005.jpg	100
1272.002	0.905	904.6	incongruent	Block2	incongruent/STIM_005.jpg	100
1276.198	1.11	1109.7	incongruent	Block2	incongruent/STIM_006.jpg	99
1281.07	0.625	625.3	incongruent	Block2	incongruent/STIM_006.jpg	100
1283.955	0.99	989.8	incongruent	Block2	incongruent/STIM_006.jpg	99
1288.059	0.48	480.1	incongruent	Block2	incongruent/STIM_006.jpg	99
1290.96	0.539	539.1	incongruent	Block2	incongruent/STIM_006.jpg	100
1293.733	0.822	821.6	incongruent	Block2	incongruent/STIM_007.jpg	99
1296.83	0.564	564.3	incongruent	Block2	incongruent/STIM_007.jpg	99
1300.773	0.847	846.6	incongruent	Block2	incongruent/STIM_007.jpg	99
1304.408	0.684	684.4	incongruent	Block2	incongruent/STIM_007.jpg	100
1307.926	0.966	966.5	incongruent	Block2	incongruent/STIM_007.jpg	100
1311.777	0.932	932.3	incongruent	Block2	incongruent/STIM_008.jpg	99
1315.007	0.864	864.1	incongruent	Block2	incongruent/STIM_008.jpg	100
1318.324	0.648	648.1	incongruent	Block2	incongruent/STIM_008.jpg	99
1322.007	0.802	802.1	incongruent	Block2	incongruent/STIM_008.jpg	99
1325.413	0.889	888.8	incongruent	Block2	incongruent/STIM_008.jpg	100
1328.607	0.712	712.4	incongruent	Block2	incongruent/STIM_009.jpg	99
1332.589	0.658	658.0	incongruent	Block2	incongruent/STIM_009.jpg	100
1335.505	0.715	714.8	incongruent	Block2	incongruent/STIM_009.jpg	100
1339.412	0.831	830.6	incongruent	Block2	incongruent/STIM_009.jpg	99
1344.31	0.786	785.7	incongruent	Block2	incongruent/STIM_009.jpg	99
1347.724	0.661	660.9	incongruent	Block2	incongruent/STIM_010.jpg	100
1351.462	0.764	763.6	incongruent	Block2	incongruent/STIM_010.jpg	100
1356.104	0.779	779.0	incongruent	Block2	incongruent/STIM_010.jpg	100
1360.024	0.703	702.7	incongruent	Block2	incongruent/STIM_010.jpg	99
1364.359	0.577	576.8	incongruent	Block2	incongruent/STIM_010.jpg	99
1367.688	1.122	1121.8	incongruent	Block2	incongruent/STIM_011.jpg	99
1370.987	1.034	1033.9	incongruent	Block2	incongruent/STIM_011.jpg	100
1374.634	0.515	515.4	incongruent	Block2	incongruent/STIM_011.jpg	99
1379.136	0.612	611.7	incongruent	Block2	incongruent/STIM_011.jpg	99
1383.513	0.838	838.0	incongruent	Block2	incongruent/STIM_011.jpg	99
1388.295	0.857	857.3	incongruent	Block2	incongruent/STIM_012.jpg	100
1392.588	0.81	809.8	incongruent	Block2	incongruent/STIM_012.jpg	100
1395.94	0.697	697.2	incongruent	Block2	incongruent/STIM_012.jpg	99
1398.861	0.528	527.7	incongruent	Block2	incongruent/STIM_012.jpg	99
1402.623	0.762	762.3	incongruent	Block2	incongruent/STIM_012.jpg	100
1407.257	0.915	915.3	incongruent	Block2	incongruent/STIM_013.jpg	99
1410.778	1.01	1009.6	incongruent	Block2	incongruent/STIM_013.jpg	99
1415.122	0.794	793.5	incongruent	Block2	incongruent/STIM_013.jpg	99
1418.437	0.667	666.6	incongruent	Block2	incongruent/STIM_013.jpg	100
1423.137	0.572	572.0	incongruent	Block2	incongruent/STIM_013.jpg	99
1426.793	1.062	1062.1	incongruent	Block2	incongruent/STIM_014.jpg	100
1430.89	0.965	964.7	incongruent	Block2	incongruent/STIM_014.jpg	99
1435.829	0.774	773.8	incongruent	Block2	incongruent/STIM_014.jpg	99
1439.307	0.461	461.1	incongruent	Block2	incongruent/STIM_014.jpg	99
1441.829	0.763	763.2	incongruent	Block2	incongruent/STIM_014.jpg	99
1446.304	0.552	552.0	incongruent	Block2	incongruent/STIM_015.jpg	99
1450.473	0.628	628.1	incongruent	Block2	incongruent/STIM_015.jpg	99
1455.119	0.758	757.8	incongruent	Block2	incongruent/STIM_015.jpg	99
1459.04	0.669	668.6	incongruent	Block2	incongruent/STIM_015.jpg	100
1462.87	0.596	595.5	incongruent	Block2	incongruent/STIM_015.jpg	100
1465.674	0.989	988.7	incongruent	Block2	incongruent/STIM_016.jpg	99
1470.598	0.747	747.4	incongruent	Block2	incongruent/STIM_016.jpg	99
1473.59	0.522	521.6	incongruent	Block2	incongruent/STIM_016.jpg	100
1476.542	0.799	799.1	incongruent	Block2	incongruent/STIM_016.jpg	100
1480.216	0.958	957.6	incongruent	Block2	incongruent/STIM_016.jpg	100
1485.123	0.91	909.8	incongruent	Block2	incongruent/STIM_017.jpg	99
1489.292	1.01	1010.3	incongruent	Block2	incongruent/STIM_017.jpg	99
1494.095	0.663	663.1	incongruent	Block2	incongruent/STIM_017.jpg	100
1497.377	0.681	681.3	incongruent	Block2	incongruent/STIM_017.jpg	99
1501.321	0.722	721.7	incongruent	Block2	incongruent/STIM_017.jpg	99
1504.591	1.089	1089.4	incongruent	Block2	incongruent/STIM_018.jpg	99
1509.629	0.825	825.0	incongruent	Block2	incongruent/STIM_018.jpg	99
1513.436	0.81	810.3	incongruent	Block2	incongruent/STIM_018.jpg	100
1518.093	0.65	650.1	incongruent	Block2	incongruent/STIM_018.jpg	100
1520.903	0.652	652.4	incongruent	Block2	incongruent/STIM_018.jpg	99
1524.323	0.695	694.9	incongruent	Block2	incongruent/STIM_019.jpg	99
1527.834	0.818	818.1	incongruent	Block2	incongruent/STIM_019.jpg	99
1532.287	0.943	943.4	incongruent	Block2	incongruent/STIM_019.jpg	100
1535.986	0.733	732.6	incongruent	Block2	incongruent/STIM_019.jpg	100
1538.86	0.544	544.1	incongruent	Block2	incongruent/STIM_019.jpg	99
1542.869	1.098	1098.0	incongruent	Block2	incongruent/STIM_020.jpg	99
1547.831	0.531	531.3	incongruent	Block2	incongruent/STIM_020.jpg	99
1551.647	0.655	654.6	incongruent	Block2	incongruent/STIM_020.jpg	99
1555.774	0.526	526.0	incongruent	Block2	incongruent/STIM_020.jpg	100
1559.851	0.854	854.0	incongruent	Block2	incongruent/STIM_020.jpg	99
1562.876	0.823	823.0	incongruent	Block2	incongruent/STIM_021.jpg	99
1566.578	0.92	920.5	incongruent	Block2	incongruent/STIM_021.jpg	100
1570.608	0.724	724.3	incongruent	Block2	incongruent/STIM_021.jpg	100
1574.265	0.462	462.0	incongruent	Block2	incongruent/STIM_021.jpg	100
1576.808	0.546	545.8	incongruent	Block2	incongruent/STIM_021.jpg	100
1580.607	0.88	879.6	incongruent	Block2	incongruent/STIM_022.jpg	99
1583.627	0.687	687.3	incongruent	Block2	incongruent/STIM_022.jpg	100
1586.449	0.997	997.0	incongruent	Block2	incongruent/STIM_022.jpg	99
1590.893	0.538	538.4	incongruent	Block2	incongruent/STIM_022.jpg	100
1595.137	0.792	791.8	incongruent	Block2	incongruent/STIM_022.jpg	99
1598.832	0.947	946.8	incongruent	Block2	incongruent/STIM_023.jpg	100
1603.464	0.89	889.8	incongruent	Block2	incongruent/STIM_023.jpg	100
1608.382	0.685	685.1	incongruent	Block2	incongruent/STIM_023.jpg	99
1612.2	0.644	643.9	incongruent	Block2	incongruent/STIM_023.jpg	100
1616.193	0.695	694.8	incongruent	Block2	incongruent/STIM_023.jpg	100
1619.923	0.9	899.6	incongruent	Block2	incongruent/STIM_024.jpg	99
1623.221	0.713	713.2	incongruent	Block2	incongruent/STIM_024.jpg	99
1626.217	0.556	556.1	incongruent	Block2	incongruent/STIM_024.jpg	100
1630.524	0.637	636.7	incongruent	Block2	incongruent/STIM_024.jpg	99
1634.339	0.897	897.3	incongruent	Block2	incongruent/STIM_024.jpg	100
1637.902	1.084	1084.4	incongruent	Block2	incongruent/STIM_025.jpg	99
1641.919	0.829	829.1	incongruent	Block2	incongruent/STIM_025.jpg	99
1645.372	0.978	977.6	incongruent	Block2	incongruent/STIM_025.jpg	99
1649.918	0.678	677.6	incongruent	Block2	incongruent/STIM_025.jpg	100
1653.44	0.734	733.7	incongruent	Block2	incongruent/STIM_025.jpg	99
1657.968	0.825	824.8	incongruent	Block2	incongruent/STIM_026.jpg	100
1662.463	0.829	829.0	incongruent	Block2	incongruent/STIM_026.jpg	100
1666.427	0.722	722.2	incongruent	Block2	incongruent/STIM_026.jpg	99
1670.082	0.671	671.4	incongruent	Block2	incongruent/STIM_026.jpg	100
1672.867	0.7	699.5	incongruent	Block2	incongruent/STIM_026.jpg	99
1677.234	0.731	731.2	incongruent	Block2	incongruent/STIM_027.jpg	99
1680.129	0.661	660.8	incongruent	Block2	incongruent/STIM_027.jpg	99
1683.839	0.584	584.1	incongruent	Block2	incongruent/STIM_027.jpg	100
1688.147	0.853	852.9	incongruent	Block2	incongruent/STIM_027.jpg	100
1692.446	0.662	662.3	incongruent	Block2	incongruent/STIM_027.jpg	99
1696.886	0.786	786.5	incongruent	Block2	incongruent/STIM_028.jpg	99
1700.627	1.088	1088.3	incongruent	Block2	incongruent/STIM_028.jpg	100
1705.334	1.024	1023.9	incongruent	Block2	incongruent/STIM_028.jpg	99
1708.628	0.534	534.2	incongruent	Block2	incongruent/STIM_028.jpg	99
1711.492	0.814	814.2	incongruent	Block2	incongruent/STIM_028.jpg	99
1716.189	0.852	851.6	incongruent	Block2	incongruent/STIM_029.jpg	99
1720.337	0.809	809.0	incongruent	Block2	incongruent/STIM_029.jpg	100
1724.672	0.831	831.1	incongruent	Block2	incongruent/STIM_029.jpg	99
1729.15	0.585	585.4	incongruent	Block2	incongruent/STIM_029.jpg	99
1733.34	0.94	940.2	incongruent	Block2	incongruent/STIM_029.jpg	100
1737.875	0.697	697.2	congruent	Block2	congruent/STIM_000.jpg	99
1740.961	0.506	505.7	congruent	Block2	congruent/STIM_000.jpg	99
1744.941	0.804	804.0	congruent	Block2	congruent/STIM_000.jpg	100
1747.94	0.577	576.9	congruent	Block2	congruent/STIM_000.jpg	100
1751.338	0.691	691.1	congruent	Block2	congruent/STIM_000.jpg	99
1754.73	0.823	822.8	congruent	Block2	congruent/STIM_001.jpg	99
1758.883	0.729	729.2	congruent	Block2	congruent/STIM_001.jpg	100
1762.759	0.51	509.7	congruent	Block2	congruent/STIM_001.jpg	99
1765.439	0.568	567.6	congruent	Block2	congruent/STIM_001.jpg	99
1768.342	0.527	526.9	congruent	Block2	congruent/STIM_001.jpg	100
1771.134	0.732	732.3	congruent	Block2	congruent/STIM_002.jpg	99
1775.639	0.525	525.2	congruent	Block2	congruent/STIM_002.jpg	100
1779.132	0.62	620.3	congruent	Block2	congruent/STIM_002.jpg	99
1783.071	0.828	828.1	congruent	Block2	congruent/STIM_002.jpg	99
1787.261	0.737	736.7	congruent	Block2	congruent/STIM_002.jpg	100
1790.499	0.477	477.2	congruent	Block2	congruent/STIM_003.jpg	99
1793.609	0.638	638.5	congruent	Block2	congruent/STIM_003.jpg	100
1797.412	0.715	715.3	congruent	Block2	congruent/STIM_003.jpg	99
1800.862	0.704	704.0	congruent	Block2	congruent/STIM_003.jpg	100
1805.491	0.781	781.2	congruent	Block2	congruent/STIM_003.jpg	99
1810.141	0.812	812.5	congruent	Block2	congruent/STIM_004.jpg	99
1814.916	0.598	597.6	congruent	Block2	congruent/STIM_004.jpg	100
1818.09	0.752	752.1	congruent	Block2	congruent/STIM_004.jpg	99
1822.609	0.493	493.1	congruent	Block2	congruent/STIM_004.jpg	100
1825.919	0.592	592.0	congruent	Block2	congruent/STIM_004.jpg	100
1828.814	0.807	806.7	congruent	Block2	congruent/STIM_005.jpg	100
1832.425	0.552	551.8	congruent	Block2	congruent/STIM_005.jpg	100
1836.063	0.71	710.1	congruent	Block2	congruent/STIM_005.jpg	99
1840.524	0.67	670.4	congruent	Block2	congruent/STIM_005.jpg	99
1843.448	0.472	472.5	congruent	Block2	congruent/STIM_005.jpg	99
1846.344	0.55	549.9	congruent	Block2	congruent/STIM_006.jpg	99
1849.175	0.66	659.8	congruent	Block2	congruent/STIM_006.jpg	100
1853.496	0.555	554.9	congruent	Block2	congruent/STIM_006.jpg	100
1857.846	0.796	795.5	congruent	Block2	congruent/STIM_006.jpg	99
1861.058	0.492	492.1	congruent	Block2	congruent/STIM_006.jpg	100
1863.9	0.62	620.5	congruent	Block2	congruent/STIM_007.jpg	99
1867.276	0.762	762.0	congruent	Block2	congruent/STIM_007.jpg	99
1870.777	0.704	704.3	congruent	Block2	congruent/STIM_007.jpg	99
1873.791	0.755	754.9	congruent	Block2	congruent/STIM_007.jpg	99
1877.179	0.58	580.3	congruent	Block2	congruent/STIM_007.jpg	100
1880.4	0.787	787.4	congruent	Block2	congruent/STIM_008.jpg	99
1883.315	0.581	581.4	congruent	Block2	congruent/STIM_008.jpg	100
1885.967	0.821	820.6	congruent	Block2	congruent/STIM_008.jpg	100
1890.226	0.812	811.7	congruent	Block2	congruent/STIM_008.jpg	100
1894.269	0.748	747.6	congruent	Block2	congruent/STIM_008.jpg	100
1898.176	0.779	779.4	congruent	Block2	congruent/STIM_009.jpg	99
1902.228	0.814	814.4	congruent	Block2	congruent/STIM_009.jpg	99
1906.442	0.788	788.3	congruent	Block2	congruent/STIM_009.jpg	100
1909.491	0.482	482.3	congruent	Block2	congruent/STIM_009.jpg	99
1912.936	0.656	655.5	congruent	Block2	congruent/STIM_009.jpg	99
1915.79	0.684	683.7	congruent	Block2	congruent/STIM_010.jpg	99
1918.604	0.645	645.3	congruent	Block2	congruent/STIM_010.jpg	99
1921.556	0.503	502.9	congruent	Block2	congruent/STIM_010.jpg	99
1926.023	0.766	765.7	congruent	Block2	congruent/STIM_010.jpg	99
1929.035	0.505	504.6	congruent	Block2	congruent/STIM_010.jpg	100
1933.227	0.801	801.4	congruent	Block2	congruent/STIM_011.jpg	100
1937.802	0.58	580.3	congruent	Block2	congruent/STIM_011.jpg	100
1942.209	0.615	614.6	congruent	Block2	congruent/STIM_011.jpg	99
1946.785	0.494	493.7	congruent	Block2	congruent/STIM_011.jpg	99
1949.993	0.516	515.8	congruent	Block2	congruent/STIM_011.jpg	99
1952.946	0.491	490.8	congruent	Block2	congruent/STIM_012.jpg	99
1957.202	0.584	583.8	congruent	Block2	congruent/STIM_012.jpg	99
1961.688	0.621	621.2	congruent	Block2	congruent/STIM_012.jpg	100
1965.84	0.723	723.0	congruent	Block2	congruent/STIM_012.jpg	99
1969.725	0.613	612.7	congruent	Block2	congruent/STIM_012.jpg	100
1973.65	0.661	661.3	congruent	Block2	congruent/STIM_013.jpg	100
1977.65	0.602	601.9	congruent	Block2	congruent/STIM_013.jpg	99
1980.321	0.667	667.0	congruent	Block2	congruent/STIM_013.jpg	99
1983.25	0.667	667.1	congruent	Block2	congruent/STIM_013.jpg	99
1986.261	0.798	798.0	congruent	Block2	congruent/STIM_013.jpg	99
1989.907	0.664	664.0	congruent	Block2	congruent/STIM_014.jpg	99
1992.758	0.658	657.6	congruent	Block2	congruent/STIM_014.jpg	100
1997.348	0.737	737.0	congruent	Block2	congruent/STIM_014.jpg	100
2000.994	0.695	694.8	congruent	Block2	congruent/STIM_014.jpg	99
2004.758	0.72	720.4	congruent	Block2	congruent/STIM_014.jpg	100
2008.57	0.702	701.7	congruent	Block2	congruent/STIM_015.jpg	99
2011.718	0.605	605.3	congruent	Block2	congruent/STIM_015.jpg	99
2014.386	0.71	710.5	congruent	Block2	congruent/STIM_015.jpg	100
2018.836	0.486	485.7	congruent	Block2	congruent/STIM_015.jpg	99
2022.745	0.791	790.6	congruent	Block2	congruent/STIM_015.jpg	100
2025.664	0.668	667.6	congruent	Block2	congruent/STIM_016.jpg	100
2029.108	0.787	787.4	congruent	Block2	congruent/STIM_016.jpg	99
2033.668	0.804	804.1	congruent	Block2	congruent/STIM_016.jpg	99
2037.139	0.824	824.4	congruent	Block2	congruent/STIM_016.jpg	100
2041.383	0.783	782.7	congruent	Block2	congruent/STIM_016.jpg	99
2044.265	0.614	614.5	congruent	Block2	congruent/STIM_017.jpg	100
2047.691	0.64	639.6	congruent	Block2	congruent/STIM_017.jpg	99
2051.056	0.569	569.2	congruent	Block2	congruent/STIM_017.jpg	99
2054.051	0.653	652.7	congruent	Block2	congruent/STIM_017.jpg	100
2057.859	0.544	544.2	congruent	Block2	congruent/STIM_017.jpg	100
2061.706	0.623	623.2	congruent	Block2	congruent/STIM_018.jpg	99
2065.626	0.545	544.8	congruent	Block2	congruent/STIM_018.jpg	99
2068.507	0.686	686.3	congruent	Block2	congruent/STIM_018.jpg	99
2072.68	0.521	521.0	congruent	Block2	congruent/STIM_018.jpg	100
2075.449	0.587	586.6	congruent	Block2	congruent/STIM_018.jpg	99
2078.582	0.605	605.1	congruent	Block2	congruent/STIM_019.jpg	99
2083.159	0.574	574.0	congruent	Block2	congruent/STIM_019.jpg	99
2087.431	0.554	553.6	congruent	Block2	congruent/STIM_019.jpg	99
2091.322	0.627	627.4	congruent	Block2	congruent/STIM_019.jpg	99
2095.868	0.671	670.7	congruent	Block2	congruent/STIM_019.jpg	99
2098.735	0.622	622.3	congruent	Block2	congruent/STIM_020.jpg	100
2103.115	0.812	812.0	congruent	Block2	congruent/STIM_020.jpg	100
2106.925	0.557	556.7	congruent	Block2	congruent/STIM_020.jpg	100
2111.085	0.621	621.1	congruent	Block2	congruent/STIM_020.jpg	99
2115.451	0.789	789.4	congruent	Block2	congruent/STIM_020.jpg	100
2120.291	0.716	715.7	congruent	Block2	congruent/STIM_021.jpg	100
2124.653	0.558	557.9	congruent	Block2	congruent/STIM_021.jpg	99
2127.462	0.72	720.4	congruent	Block2	congruent/STIM_021.jpg	100
2131.463	0.491	490.7	congruent	Block2	congruent/STIM_021.jpg	100
2135.625	0.612	612.4	congruent	Block2	congruent/STIM_021.jpg	99
2138.782	0.723	723.4	congruent	Block2	congruent/STIM_022.jpg	100
2142.927	0.826	825.8	congruent	Block2	congruent/STIM_022.jpg	99
2146.139	0.697	697.3	congruent	Block2	congruent/STIM_022.jpg	100
2150.859	0.515	515.1	congruent	Block2	congruent/STIM_022.jpg	99
2153.829	0.722	722.1	congruent	Block2	congruent/STIM_022.jpg	100
2157.476	0.803	803.4	congruent	Block2	congruent/STIM_023.jpg	100
2161.239	0.487	486.7	congruent	Block2	congruent/STIM_023.jpg	99
2164.958	0.506	506.3	congruent	Block2	congruent/STIM_023.jpg	100
2168.07	0.692	692.3	congruent	Block2	congruent/STIM_023.jpg	99
2172.3	0.539	538.6	congruent	Block2	congruent/STIM_023.jpg	99
2176.601	0.667	667.0	congruent	Block2	congruent/STIM_024.jpg	99
2180.156	0.824	824.2	congruent	Block2	congruent/STIM_024.jpg	99
2183.922	0.579	579.2	congruent	Block2	congruent/STIM_024.jpg	100
2187.137	0.637	637.0	congruent	Block2	congruent/STIM_024.jpg	100
2190.92	0.749	749.2	congruent	Block2	congruent/STIM_024.jpg	100
2195.724	0.779	779.4	congruent	Block2	congruent/STIM_025.jpg	100
2200.153	0.61	610.5	congruent	Block2	congruent/STIM_025.jpg	99
2202.932	0.788	788.1	congruent	Block2	congruent/STIM_025.jpg	100
2207.747	0.47	469.9	congruent	Block2	congruent/STIM_025.jpg	99
2212.09	0.75	749.7	congruent	Block2	congruent/STIM_025.jpg	99
2216.387	0.811	810.7	congruent	Block2	congruent/STIM_026.jpg	100
2220.053	0.821	820.7	congruent	Block2	congruent/STIM_026.jpg	100
2224.332	0.803	803.1	congruent	Block2	congruent/STIM_026.jpg	99
2227.565	0.762	761.5	congruent	Block2	congruent/STIM_026.jpg	99
2231.952	0.657	657.2	congruent	Block2	congruent/STIM_026.jpg	100
2236.574	0.644	644.2	congruent	Block2	congruent/STIM_027.jpg	99
2240.385	0.686	685.9	congruent	Block2	congruent/STIM_027.jpg	99
2243.294	0.483	482.9	congruent	Block2	congruent/STIM_027.jpg	99
2247.337	0.625	624.7	congruent	Block2	congruent/STIM_027.jpg	100
2250.815	0.49	489.7	congruent	Block2	congruent/STIM_027.jpg	100
2254.297	0.546	545.6	congruent	Block2	congruent/STIM_028.jpg	100
2257.774	0.769	769.4	congruent	Block2	congruent/STIM_028.jpg	99
2260.829	0.624	624.1	congruent	Block2	congruent/STIM_028.jpg	100
2264.44	0.597	597.1	congruent	Block2	congruent/STIM_028.jpg	100
2267.396	0.517	516.9	congruent	Block2	congruent/STIM_028.jpg	99
2270.277	0.662	661.6	congruent	Block2	congruent/STIM_029.jpg	99
2273.714	0.472	472.4	congruent	Block2	congruent/STIM_029.jpg	100
2276.228	0.737	736.7	congruent	Block2	congruent/STIM_029.jpg	100
2280.443	0.544	544.0	congruent	Block2	congruent/STIM_029.jpg	100
2283.443	0.801	801.2	congruent	Block2	congruent/STIM_029.jpg	100
2287.425	0.526	525.6	incongruent	Block3	incongruent/STIM_000.jpg	100
2291.405	0.802	802.0	incongruent	Block3	incongruent/STIM_000.jpg	100
2294.442	0.692	691.9	incongruent	Block3	incongruent/STIM_000.jpg	99
2298.613	0.791	790.6	incongruent	Block3	incongruent/STIM_000.jpg	100
2302.018	0.556	556.4	incongruent	Block3	incongruent/STIM_000.jpg	99
2305.826	0.904	903.6	incongruent	Block3	incongruent/STIM_001.jpg	99
2310.677	0.63	630.1	incongruent	Block3	incongruent/STIM_001.jpg	99
2313.566	0.561	561.1	incongruent	Block3	incongruent/STIM_001.jpg	99
2316.435	0.465	465.1	incongruent	Block3	incongruent/STIM_001.jpg	99
2320.708	0.776	776.2	incongruent	Block3	incongruent/STIM_001.jpg	99
2324.623	0.573	572.9	incongruent	Block3	incongruent/STIM_002.jpg	99
2329.088	0.739	739.0	incongruent	Block3	incongruent/STIM_002.jpg	100
2333.195	0.664	663.5	incongruent	Block3	incongruent/STIM_002.jpg	99
2337.512	0.947	946.8	incongruent	Block3	incongruent/STIM_002.jpg	99
2341.021	0.875	874.7	incongruent	Block3	incongruent/STIM_002.jpg	99
2344.176	0.477	477.3	incongruent	Block3	incongruent/STIM_003.jpg	100
2346.856	0.473	472.8	incongruent	Block3	incongruent/STIM_003.jpg	99
2350.109	0.704	703.8	incongruent	Block3	incongruent/STIM_003.jpg	99
2353.027	0.514	514.2	incongruent	Block3	incongruent/STIM_003.jpg	99
2357.559	0.583	582.9	incongruent	Block3	incongruent/STIM_003.jpg	99
2360.767	0.607	606.8	incongruent	Block3	incongruent/STIM_004.jpg	100
2363.816	0.904	904.4	incongruent	Block3	incongruent/STIM_004.jpg	99
2367.883	0.829	828.9	incongruent	Block3	incongruent/STIM_004.jpg	99
2372.451	0.482	481.7	incongruent	Block3	incongruent/STIM_004.jpg	99
2376.268	0.738	738.0	incongruent	Block3	incongruent/STIM_004.jpg	99
2381.044	0.609	609.3	incongruent	Block3	incongruent/STIM_005.jpg	99
2385.323	0.674	673.5	incongruent	Block3	incongruent/STIM_005.jpg	99
2388.326	0.548	548.2	incongruent	Block3	incongruent/STIM_005.jpg	100
2392.21	0.955	955.2	incongruent	Block3	incongruent/STIM_005.jpg	99
2396.532	0.911	911.0	incongruent	Block3	incongruent/STIM_005.jpg	100
2400.378	0.929	928.6	incongruent	Block3	incongruent/STIM_006.jpg	99
2404.286	0.621	620.8	incongruent	Block3	incongruent/STIM_006.jpg	99
2408.129	0.797	796.7	incongruent	Block3	incongruent/STIM_006.jpg	99
2411.857	0.614	613.7	incongruent	Block3	incongruent/STIM_006.jpg	99
2414.772	0.507	507.2	incongruent	Block3	incongruent/STIM_006.jpg	99
2418.9	0.904	904.0	incongruent	Block3	incongruent/STIM_007.jpg	99
2421.964	0.797	796.7	incongruent	Block3	incongruent/STIM_007.jpg	99
2426.242	0.66	660.4	incongruent	Block3	incongruent/STIM_007.jpg	100
2430.685	0.839	838.9	incongruent	Block3	incongruent/STIM_007.jpg	99
2434.472	0.606	606.1	incongruent	Block3	incongruent/STIM_007.jpg	100
2437.168	0.792	792.4	incongruent	Block3	incongruent/STIM_008.jpg	99
2440.383	0.642	642.0	incongruent	Block3	incongruent/STIM_008.jpg	99
2444.417	0.674	673.7	incongruent	Block3	incongruent/STIM_008.jpg	99
2448.487	0.654	654.5	incongruent	Block3	incongruent/STIM_008.jpg	100
2452.912	0.472	472.0	incongruent	Block3	incongruent/STIM_008.jpg	100
2457.338	0.463	463.2	incongruent	Block3	incongruent/STIM_009.jpg	100
2460.671	0.533	533.3	incongruent	Block3	incongruent/STIM_009.jpg	100
2465.198	0.866	865.7	incongruent	Block3	incongruent/STIM_009.jpg	99
2470.124	0.578	577.7	incongruent	Block3	incongruent/STIM_009.jpg	100
2473.293	0.497	497.4	incongruent	Block3	incongruent/STIM_009.jpg	99
2476.769	0.927	927.3	incongruent	Block3	incongruent/STIM_010.jpg	100
2481.277	0.479	479.2	incongruent	Block3	incongruent/STIM_010.jpg	100
2484.212	0.567	567.1	incongruent	Block3	incongruent/STIM_010.jpg	100
2486.992	0.486	485.9	incongruent	Block3	incongruent/STIM_010.jpg	99
2490.147	0.838	837.8	incongruent	Block3	incongruent/STIM_010.jpg	100
2494.403	0.539	539.1	incongruent	Block3	incongruent/STIM_011.jpg	99
2498.743	0.603	602.8	incongruent	Block3	incongruent/STIM_011.jpg	99
2502.116	0.96	959.5	incongruent	Block3	incongruent/STIM_011.jpg	100
2505.375	0.702	701.9	incongruent	Block3	incongruent/STIM_011.jpg	99
2508.397	0.649	649.3	incongruent	Block3	incongruent/STIM_011.jpg	99
2513.05	0.959	958.6	incongruent	Block3	incongruent/STIM_012.jpg	100
2516.983	0.812	812.3	incongruent	Block3	incongruent/STIM_012.jpg	99
2521.141	0.744	743.8	incongruent	Block3	incongruent/STIM_012.jpg	99
2525.286	0.566	565.9	incongruent	Block3	incongruent/STIM_012.jpg	100
2528.251	0.8	800.1	incongruent	Block3	incongruent/STIM_012.jpg	99
2533.01	0.785	785.4	incongruent	Block3	incongruent/STIM_013.jpg	99
2536.176	0.863	862.9	incongruent	Block3	incongruent/STIM_013.jpg	99
2539.336	0.967	966.6	incongruent	Block3	incongruent/STIM_013.jpg	99
2543.123	0.525	525.3	incongruent	Block3	incongruent/STIM_013.jpg	99
2546.208	0.673	673.4	incongruent	Block3	incongruent/STIM_013.jpg	100
2550.376	0.798	797.6	incongruent	Block3	incongruent/STIM_014.jpg	100
2553.379	0.483	482.9	incongruent	Block3	incongruent/STIM_014.jpg	100
2556.01	0.757	756.6	incongruent	Block3	incongruent/STIM_014.jpg	100
2560.164	0.787	786.8	incongruent	Block3	incongruent/STIM_014.jpg	99
2564.04	0.754	753.7	incongruent	Block3	incongruent/STIM_014.jpg	99
2568.59	0.94	940.1	incongruent	Block3	incongruent/STIM_015.jpg	99
2572.479	0.603	602.6	incongruent	Block3	incongruent/STIM_015.jpg	100
2576.335	0.664	664.4	incongruent	Block3	incongruent/STIM_015.jpg	100
2579.796	0.585	584.9	incongruent	Block3	incongruent/STIM_015.jpg	100
2582.96	0.614	614.5	incongruent	Block3	incongruent/STIM_015.jpg	99
2586.986	0.58	580.0	incongruent	Block3	incongruent/STIM_016.jpg	100
2590.014	0.74	740.0	incongruent	Block3	incongruent/STIM_016.jpg	99
2593.803	0.587	587.0	incongruent	Block3	incongruent/STIM_016.jpg	99
2597.73	0.892	891.6	incongruent	Block3	incongruent/STIM_016.jpg	100
2602.568	0.844	844.4	incongruent	Block3	incongruent/STIM_016.jpg	99
2606.3	0.496	496.4	incongruent	Block3	incongruent/STIM_017.jpg	100
2609.749	0.611	611.1	incongruent	Block3	incongruent/STIM_017.jpg	100
2614.312	0.629	628.7	incongruent	Block3	incongruent/STIM_017.jpg	100
2617.71	0.858	858.2	incongruent	Block3	incongruent/STIM_017.jpg	100
2621.204	0.473	472.9	incongruent	Block3	incongruent/STIM_017.jpg	100
2624.656	0.544	543.8	incongruent	Block3	incongruent/STIM_018.jpg	100
2628.598	0.539	538.9	incongruent	Block3	incongruent/STIM_018.jpg	99
2631.609	0.566	566.2	incongruent	Block3	incongruent/STIM_018.jpg	99
2635.1	0.971	970.6	incongruent	Block3	incongruent/STIM_018.jpg	100
2639.664	0.527	527.3	incongruent	Block3	incongruent/STIM_018.jpg	99
2642.382	0.934	934.2	incongruent	Block3	incongruent/STIM_019.jpg	100
2647.383	0.735	735.3	incongruent	Block3	incongruent/STIM_019.jpg	99
2651.219	0.757	757.0	incongruent	Block3	incongruent/STIM_019.jpg	100
2654.105	0.906	906.4	incongruent	Block3	incongruent/STIM_019.jpg	100
2658.235	0.95	949.9	incongruent	Block3	incongruent/STIM_019.jpg	99
2663.136	0.794	794.4	incongruent	Block3	incongruent/STIM_020.jpg	100
2667.479	0.463	463.0	incongruent	Block3	incongruent/STIM_020.jpg	99
2671.974	0.956	956.1	incongruent	Block3	incongruent/STIM_020.jpg	99
2676.425	0.795	794.6	incongruent	Block3	incongruent/STIM_020.jpg	99
2679.409	0.748	747.9	incongruent	Block3	incongruent/STIM_020.jpg	100
2683.234	0.624	623.7	incongruent	Block3	incongruent/STIM_021.jpg	100
2686.436	0.583	582.6	incongruent	Block3	incongruent/STIM_021.jpg	99
2690.27	0.773	773.1	incongruent	Block3	incongruent/STIM_021.jpg	99
2693.395	0.542	542.0	incongruent	Block3	incongruent/STIM_021.jpg	100
2696.023	0.506	506.0	incongruent	Block3	incongruent/STIM_021.jpg	99
2699.096	0.596	595.7	incongruent	Block3	incongruent/STIM_022.jpg	99
2703.063	0.477	477.1	incongruent	Block3	incongruent/STIM_022.jpg	99
2706.962	0.63	629.5	incongruent	Block3	incongruent/STIM_022.jpg	99
2711.37	0.671	671.2	incongruent	Block3	incongruent/STIM_022.jpg	100
2714.929	0.676	675.7	incongruent	Block3	incongruent/STIM_022.jpg	99
2719.338	0.607	606.6	incongruent	Block3	incongruent/STIM_023.jpg	99
2722.256	0.867	866.6	incongruent	Block3	incongruent/STIM_023.jpg	99
2725.803	0.938	937.9	incongruent	Block3	incongruent/STIM_023.jpg	99
2729.04	0.715	714.9	incongruent	Block3	incongruent/STIM_023.jpg	100
2733.538	0.572	571.9	incongruent	Block3	incongruent/STIM_023.jpg	99
2737.477	0.593	593.3	incongruent	Block3	incongruent/STIM_024.jpg	99
2741.384	0.471	470.6	incongruent	Block3	incongruent/STIM_024.jpg	99
2745.33	0.77	769.6	incongruent	Block3	incongruent/STIM_024.jpg	100
2748.866	0.87	870.2	incongruent	Block3	incongruent/STIM_024.jpg	100
2752.133	0.788	788.2	incongruent	Block3	incongruent/STIM_024.jpg	100
2755.541	0.487	487.1	incongruent	Block3	incongruent/STIM_025.jpg	100
2758.579	0.714	714.3	incongruent	Block3	incongruent/STIM_025.jpg	100
2761.485	0.548	548.4	incongruent	Block3	incongruent/STIM_025.jpg	100
2765.421	0.485	484.7	incongruent	Block3	incongruent/STIM_025.jpg	99
2768.389	0.683	682.9	incongruent	Block3	incongruent/STIM_025.jpg	99
2772.674	0.962	962.0	incongruent	Block3	incongruent/STIM_026.jpg	99
2777.278	0.91	910.3	incongruent	Block3	incongruent/STIM_026.jpg	100
2781.278	0.75	749.7	incongruent	Block3	incongruent/STIM_026.jpg	100
2785.044	0.898	897.5	incongruent	Block3	incongruent/STIM_026.jpg	100
2788.437	0.713	713.2	incongruent	Block3	incongruent/STIM_026.jpg	100
2791.498	0.731	730.8	incongruent	Block3	incongruent/STIM_027.jpg	99
2794.957	0.669	669.0	incongruent	Block3	incongruent/STIM_027.jpg	100
2798.763	0.661	661.3	incongruent	Block3	incongruent/STIM_027.jpg	100
2801.963	0.502	502.5	incongruent	Block3	incongruent/STIM_027.jpg	99
2805.952	0.652	652.2	incongruent	Block3	incongruent/STIM_027.jpg	99
2809.213	0.625	625.2	incongruent	Block3	incongruent/STIM_028.jpg	99
2813.602	0.868	867.9	incongruent	Block3	incongruent/STIM_028.jpg	100
2818.241	0.632	632.2	incongruent	Block3	incongruent/STIM_028.jpg	99
2821.71	0.514	513.9	incongruent	Block3	incongruent/STIM_028.jpg	100
2825.611	0.456	456.3	incongruent	Block3	incongruent/STIM_028.jpg	100
2828.872	0.461	461.0	incongruent	Block3	incongruent/STIM_029.jpg	100
2833.336	0.736	736.5	incongruent	Block3	incongruent/STIM_029.jpg	100
2836.259	0.751	750.8	incongruent	Block3	incongruent/STIM_029.jpg	99
2839.359	0.848	847.9	incongruent	Block3	incongruent/STIM_029.jpg	99
2842.433	0.786	786.0	incongruent	Block3	incongruent/STIM_029.jpg	100
2847.07	0.752	751.6	congruent	Block3	congruent/STIM_000.jpg	100
2851.36	0.518	517.8	congruent	Block3	congruent/STIM_000.jpg	99
2855.024	0.691	691.4	congruent	Block3	congruent/STIM_000.jpg	100
2858.381	0.543	542.7	congruent	Block3	congruent/STIM_000.jpg	100
2861.056	0.803	803.0	congruent	Block3	congruent/STIM_000.jpg	99
2864.068	0.665	664.8	congruent	Block3	congruent/STIM_001.jpg	99
2868.768	0.626	626.2	congruent	Block3	congruent/STIM_001.jpg	100
2873.399	0.815	815.2	congruent	Block3	congruent/STIM_001.jpg	99
2878.091	0.809	809.0	congruent	Block3	congruent/STIM_001.jpg	99
2881.524	0.735	734.7	congruent	Block3	congruent/STIM_001.jpg	99
2885.187	0.76	760.3	congruent	Block3	congruent/STIM_002.jpg	99
2888.879	0.545	545.2	congruent	Block3	congruent/STIM_002.jpg	100
2891.774	0.814	813.8	congruent	Block3	congruent/STIM_002.jpg	100
2895.17	0.49	490.0	congruent	Block3	congruent/STIM_002.jpg	99
2899.228	0.739	738.9	congruent	Block3	congruent/STIM_002.jpg	99
2902.527	0.661	661.1	congruent	Block3	congruent/STIM_003.jpg	100
2906.099	0.475	475.2	congruent	Block3	congruent/STIM_003.jpg	99
2909.871	0.636	635.6	congruent	Block3	congruent/STIM_003.jpg	99
2913.898	0.718	717.5	congruent	Block3	congruent/STIM_003.jpg	100
2916.938	0.803	803.3	congruent	Block3	congruent/STIM_003.jpg	99
2919.852	0.637	637.0	congruent	Block3	congruent/STIM_004.jpg	99
2923.871	0.613	613.0	congruent	Block3	congruent/STIM_004.jpg	99
2928.147	0.547	547.1	congruent	Block3	congruent/STIM_004.jpg	99
2932.631	0.729	729.0	congruent	Block3	congruent/STIM_004.jpg	99
2937.266	0.481	481.3	congruent	Block3	congruent/STIM_004.jpg	100
2940.988	0.463	463.4	congruent	Block3	congruent/STIM_005.jpg	99
2943.969	0.561	560.8	congruent	Block3	congruent/STIM_005.jpg	100
2947.765	0.564	564.5	congruent	Block3	congruent/STIM_005.jpg	99
2951.756	0.766	766.5	congruent	Block3	congruent/STIM_005.jpg	99
2955.084	0.772	772.3	congruent	Block3	congruent/STIM_005.jpg	100
2959.26	0.512	512.1	congruent	Block3	congruent/STIM_006.jpg	99
2962.499	0.742	741.6	congruent	Block3	congruent/STIM_006.jpg	100
2966.222	0.686	685.5	congruent	Block3	congruent/STIM_006.jpg	100
2969.656	0.752	752.4	congruent	Block3	congruent/STIM_006.jpg	100
2974.408	0.716	715.6	congruent	Block3	congruent/STIM_006.jpg	99
2977.261	0.487	486.9	congruent	Block3	congruent/STIM_007.jpg	100
2981.164	0.468	468.4	congruent	Block3	congruent/STIM_007.jpg	100
2984.372	0.677	677.1	congruent	Block3	congruent/STIM_007.jpg	100
2988.354	0.737	736.8	congruent	Block3	congruent/STIM_007.jpg	99
2992.522	0.803	802.6	congruent	Block3	congruent/STIM_007.jpg	100
2996.961	0.63	629.8	congruent	Block3	congruent/STIM_008.jpg	100
3000.289	0.587	587.1	congruent	Block3	congruent/STIM_008.jpg	100
3003.878	0.588	587.6	congruent	Block3	congruent/STIM_008.jpg	100
3008.268	0.751	751.4	congruent	Block3	congruent/STIM_008.jpg	99
3012.405	0.527	526.7	congruent	Block3	congruent/STIM_008.jpg	100
3016.759	0.472	471.5	congruent	Block3	congruent/STIM_009.jpg	99
3020.6	0.526	526.0	congruent	Block3	congruent/STIM_009.jpg	99
3024.245	0.573	573.1	congruent	Block3	congruent/STIM_009.jpg	100
3027.715	0.685	684.7	congruent	Block3	congruent/STIM_009.jpg	100
3032.345	0.681	680.8	congruent	Block3	congruent/STIM_009.jpg	100
3036.187	0.58	579.5	congruent	Block3	congruent/STIM_010.jpg	99
3040.203	0.664	664.3	congruent	Block3	congruent/STIM_010.jpg	99
3043.544	0.676	676.0	congruent	Block3	congruent/STIM_010.jpg	100
3047.955	0.698	698.3	congruent	Block3	congruent/STIM_010.jpg	99
3052.282	0.826	826.5	congruent	Block3	congruent/STIM_010.jpg	99
3056.387	0.543	542.6	congruent	Block3	congruent/STIM_011.jpg	99
3059.809	0.714	714.1	congruent	Block3	congruent/STIM_011.jpg	100
3064.55	0.764	764.0	congruent	Block3	congruent/STIM_011.jpg	99
3069.313	0.583	583.4	congruent	Block3	congruent/STIM_011.jpg	99
3072.26	0.795	794.6	congruent	Block3	congruent/STIM_011.jpg	99
3076.793	0.726	726.0	congruent	Block3	congruent/STIM_012.jpg	100
3081.01	0.739	738.7	congruent	Block3	congruent/STIM_012.jpg	100
3085.379	0.805	805.2	congruent	Block3	congruent/STIM_012.jpg	100
3089.657	0.74	740.5	congruent	Block3	congruent/STIM_012.jpg	100
3093.247	0.604	604.3	congruent	Block3	congruent/STIM_012.jpg	100
3097.836	0.676	676.1	congruent	Block3	congruent/STIM_013.jpg	100
3102.202	0.747	746.6	congruent	Block3	congruent/STIM_013.jpg	99
3105.349	0.533	532.9	congruent	Block3	congruent/STIM_013.jpg	100
3108.233	0.625	625.1	congruent	Block3	congruent/STIM_013.jpg	99
3112.123	0.754	753.6	congruent	Block3	congruent/STIM_013.jpg	99
3116.347	0.795	795.4	congruent	Block3	congruent/STIM_014.jpg	100
3121.129	0.803	802.6	congruent	Block3	congruent/STIM_014.jpg	99
3125.233	0.723	723.2	congruent	Block3	congruent/STIM_014.jpg	100
3129.012	0.582	582.1	congruent	Block3	congruent/STIM_014.jpg	100
3132.096	0.676	675.8	congruent	Block3	congruent/STIM_014.jpg	100
3136.264	0.463	462.7	congruent	Block3	congruent/STIM_015.jpg	99
3140.759	0.544	544.1	congruent	Block3	congruent/STIM_015.jpg	100
3144.911	0.561	560.6	congruent	Block3	congruent/STIM_015.jpg	99
3148.164	0.64	639.6	congruent	Block3	congruent/STIM_015.jpg	99
3150.951	0.586	585.6	congruent	Block3	congruent/STIM_015.jpg	99
3155.195	0.817	816.8	congruent	Block3	congruent/STIM_016.jpg	99
3159.913	0.745	745.3	congruent	Block3	congruent/STIM_016.jpg	100
3163.86	0.649	649.1	congruent	Block3	congruent/STIM_016.jpg	100
3166.709	0.471	470.9	congruent	Block3	congruent/STIM_016.jpg	100
3171.056	0.571	570.6	congruent	Block3	congruent/STIM_016.jpg	99
3173.909	0.57	569.5	congruent	Block3	congruent/STIM_017.jpg	99
3177.444	0.798	797.7	congruent	Block3	congruent/STIM_017.jpg	100
3181.028	0.752	752.5	congruent	Block3	congruent/STIM_017.jpg	100
3184.523	0.521	521.2	congruent	Block3	congruent/STIM_017.jpg	100
3188.962	0.825	825.2	congruent	Block3	congruent/STIM_017.jpg	99
3192.067	0.679	678.9	congruent	Block3	congruent/STIM_018.jpg	99
3195.351	0.676	676.3	congruent	Block3	congruent/STIM_018.jpg	100
3198.682	0.578	577.5	congruent	Block3	congruent/STIM_018.jpg	100
3201.758	0.799	799.4	congruent	Block3	congruent/STIM_018.jpg	99
3204.807	0.788	787.8	congruent	Block3	congruent/STIM_018.jpg	99
3208.11	0.499	499.1	congruent	Block3	congruent/STIM_019.jpg	99
3211.666	0.806	805.9	congruent	Block3	congruent/STIM_019.jpg	100
3216.336	0.746	746.4	congruent	Block3	congruent/STIM_019.jpg	99
3219.145	0.721	720.6	congruent	Block3	congruent/STIM_019.jpg	99
3222.714	0.804	804.0	congruent	Block3	congruent/STIM_019.jpg	99
3226.638	0.711	710.7	congruent	Block3	congruent/STIM_020.jpg	99
3230.215	0.774	774.4	congruent	Block3	congruent/STIM_020.jpg	100
3233.132	0.526	526.3	congruent	Block3	congruent/STIM_020.jpg	100
3237.526	0.688	687.7	congruent	Block3	congruent/STIM_020.jpg	99
3240.661	0.496	496.1	congruent	Block3	congruent/STIM_020.jpg	99
3243.952	0.648	648.2	congruent	Block3	congruent/STIM_021.jpg	100
3246.945	0.759	758.9	congruent	Block3	congruent/STIM_021.jpg	99
3250.949	0.519	519.0	congruent	Block3	congruent/STIM_021.jpg	99
3253.908	0.532	532.1	congruent	Block3	congruent/STIM_021.jpg	99
3257.246	0.79	790.0	congruent	Block3	congruent/STIM_021.jpg	100
3260.383	0.475	474.7	congruent	Block3	congruent/STIM_022.jpg	99
3264.475	0.774	773.8	congruent	Block3	congruent/STIM_022.jpg	99
3268.254	0.799	799.1	congruent	Block3	congruent/STIM_022.jpg	100
3272.491	0.558	557.7	congruent	Block3	congruent/STIM_022.jpg	99
3277.094	0.82	819.5	congruent	Block3	congruent/STIM_022.jpg	99
3281.886	0.63	629.5	congruent	Block3	congruent/STIM_023.jpg	99
3285.004	0.606	605.5	congruent	Block3	congruent/STIM_023.jpg	99
3289.007	0.762	762.3	congruent	Block3	congruent/STIM_023.jpg	100
3292.714	0.813	812.8	congruent	Block3	congruent/STIM_023.jpg	100
3297.262	0.633	633.4	congruent	Block3	congruent/STIM_023.jpg	100
3300.398	0.829	829.2	congruent	Block3	congruent/STIM_024.jpg	99
3305.192	0.488	487.9	congruent	Block3	congruent/STIM_024.jpg	99
3309.438	0.677	676.6	congruent	Block3	congruent/STIM_024.jpg	99
3313.616	0.526	526.5	congruent	Block3	congruent/STIM_024.jpg	99
3316.775	0.766	765.7	congruent	Block3	congruent/STIM_024.jpg	100
3320.336	0.695	695.2	congruent	Block3	congruent/STIM_025.jpg	99
3323.502	0.73	729.7	congruent	Block3	congruent/STIM_025.jpg	99
3326.616	0.604	604.3	congruent	Block3	congruent/STIM_025.jpg	99
3330.34	0.632	632.1	congruent	Block3	congruent/STIM_025.jpg	100
3333.043	0.554	553.9	congruent	Block3	congruent/STIM_025.jpg	100
3335.837	0.783	783.4	congruent	Block3	congruent/STIM_026.jpg	99
3339.705	0.565	565.2	congruent	Block3	congruent/STIM_026.jpg	99
3343.09	0.753	753.0	congruent	Block3	congruent/STIM_026.jpg	100
3346.519	0.496	496.3	congruent	Block3	congruent/STIM_026.jpg	99
3350.339	0.804	803.7	congruent	Block3	congruent/STIM_026.jpg	99
3355.157	0.806	805.5	congruent	Block3	congruent/STIM_027.jpg	100
3358.041	0.682	681.6	congruent	Block3	congruent/STIM_027.jpg	99
3361.558	0.607	607.3	congruent	Block3	congruent/STIM_027.jpg	99
3365.517	0.743	742.6	congruent	Block3	congruent/STIM_027.jpg	99
3370.283	0.482	482.1	congruent	Block3	congruent/STIM_027.jpg	99
3374.289	0.578	578.0	congruent	Block3	congruent/STIM_028.jpg	99
3378.27	0.487	487.1	congruent	Block3	congruent/STIM_028.jpg	100
3381.005	0.592	592.5	congruent	Block3	congruent/STIM_028.jpg	100
3383.749	0.593	592.8	congruent	Block3	congruent/STIM_028.jpg	100
3386.921	0.613	613.2	congruent	Block3	congruent/STIM_028.jpg	99
3390.616	0.636	635.8	congruent	Block3	congruent/STIM_029.jpg	99
3394.509	0.479	478.6	congruent	Block3	congruent/STIM_029.jpg	100
3397.568	0.636	636.1	congruent	Block3	congruent/STIM_029.jpg	99
3401.552	0.482	481.7	congruent	Block3	congruent/STIM_029.jpg	99
3405.768	0.615	614.9	congruent	Block3	congruent/STIM_029.jpg	100
