onset	duration	accuracy	trial_type	learning_stage	stimulus
0.0	1.058	correct	incongruent	Block1	incongruent/STIM_000.jpg
4.244	1.043	correct	incongruent	Block1	incongruent/STIM_000.jpg
7.966	0.652	incorrect	incongruent	Block1	incongruent/STIM_000.jpg
12.631	0.848	correct	incongruent	Block1	incongruent/STIM_000.jpg
16.025	0.722	correct	incongruent	Block1	incongruent/STIM_000.jpg
20.543	1.254	incorrect	incongruent	Block1	incongruent/STIM_001.jpg
24.383	0.818	correct	incongruent	Block1	incongruent/STIM_001.jpg
28.352	1.042	correct	incongruent	Block1	incongruent/STIM_001.jpg
31.843	0.687	correct	incongruent	Block1	incongruent/STIM_001.jpg
34.68	0.706	correct	incongruent	Block1	incongruent/STIM_001.jpg
38.535	0.74	correct	incongruent	Block1	incongruent/STIM_002.jpg
42.43	1.088	correct	incongruent	Block1	incongruent/STIM_002.jpg
47.192	1.192	correct	incongruent	Block1	incongruent/STIM_002.jpg
52.47	0.892	correct	incongruent	Block1	incongruent/STIM_002.jpg
55.522	0.762	correct	incongruent	Block1	incongruent/STIM_002.jpg
58.516	1.294	incorrect	incongruent	Block1	incongruent/STIM_003.jpg
62.72	1.211	correct	incongruent	Block1	incongruent/STIM_003.jpg
67.528	0.752	correct	incongruent	Block1	incongruent/STIM_003.jpg
71.413	1.127	correct	incongruent	Block1	incongruent/STIM_003.jpg
75.456	0.735	correct	incongruent	Block1	incongruent/STIM_003.jpg
80.03	0.672	correct	incongruent	Block1	incongruent/STIM_004.jpg
83.724	0.825	correct	incongruent	Block1	incongruent/STIM_004.jpg
87.244	0.913	correct	incongruent	Block1	incongruent/STIM_004.jpg
90.982	1.125	correct	incongruent	Block1	incongruent/STIM_004.jpg
95.691	0.567	correct	incongruent	Block1	incongruent/STIM_004.jpg
98.964	1.125	correct	incongruent	Block1	incongruent/STIM_005.jpg
103.057	0.958	correct	incongruent	Block1	incongruent/STIM_005.jpg
107.178	1.246	correct	incongruent	Block1	incongruent/STIM_005.jpg
111.874	0.568	correct	incongruent	Block1	incongruent/STIM_005.jpg
116.387	0.648	correct	incongruent	Block1	incongruent/STIM_005.jpg
120.289	1.289	incorrect	incongruent	Block1	incongruent/STIM_006.jpg
125.011	0.793	correct	incongruent	Block1	incongruent/STIM_006.jpg
128.181	0.926	correct	incongruent	Block1	incongruent/STIM_006.jpg
132.941	1.069	correct	incongruent	Block1	incongruent/STIM_006.jpg
136.425	0.978	incorrect	incongruent	Block1	incongruent/STIM_006.jpg
139.647	1.132	correct	incongruent	Block1	incongruent/STIM_007.jpg
143.999	0.682	correct	incongruent	Block1	incongruent/STIM_007.jpg
148.066	0.951	correct	incongruent	Block1	incongruent/STIM_007.jpg
151.242	0.81	correct	incongruent	Block1	incongruent/STIM_007.jpg
155.982	0.758	correct	incongruent	Block1	incongruent/STIM_007.jpg
159.09	1.363	correct	incongruent	Block1	incongruent/STIM_008.jpg
164.177	0.997	correct	incongruent	Block1	incongruent/STIM_008.jpg
169.156	1.007	incorrect	incongruent	Block1	incongruent/STIM_008.jpg
172.781	0.829	correct	incongruent	Block1	incongruent/STIM_008.jpg
176.595	0.698	correct	incongruent	Block1	incongruent/STIM_008.jpg
180.251	1.055	correct	incongruent	Block1	incongruent/STIM_009.jpg
185.128	1.213	correct	incongruent	Block1	incongruent/STIM_009.jpg
188.654	0.692	correct	incongruent	Block1	incongruent/STIM_009.jpg
192.783	0.607	correct	incongruent	Block1	incongruent/STIM_009.jpg
197.328	0.916	correct	incongruent	Block1	incongruent/STIM_009.jpg
201.188	1.302	correct	incongruent	Block1	incongruent/STIM_010.jpg
206.049	0.853	correct	incongruent	Block1	incongruent/STIM_010.jpg
210.519	0.977	correct	incongruent	Block1	incongruent/STIM_010.jpg
215.556	0.677	correct	incongruent	Block1	incongruent/STIM_010.jpg
220.097	0.521	correct	incongruent	Block1	incongruent/STIM_010.jpg
224.125	0.735	correct	incongruent	Block1	incongruent/STIM_011.jpg
227.669	0.789	correct	incongruent	Block1	incongruent/STIM_011.jpg
231.655	0.942	correct	incongruent	Block1	incongruent/STIM_011.jpg
235.949	0.724	correct	incongruent	Block1	incongruent/STIM_011.jpg
239.569	0.67	correct	incongruent	Block1	incongruent/STIM_011.jpg
243.018	1.084	correct	incongruent	Block1	incongruent/STIM_012.jpg
246.772	1.214	incorrect	incongruent	Block1	incongruent/STIM_012.jpg
250.81	0.742	incorrect	incongruent	Block1	incongruent/STIM_012.jpg
255.242	0.853	correct	incongruent	Block1	incongruent/STIM_012.jpg
259.748	0.653	correct	incongruent	Block1	incongruent/STIM_012.jpg
263.37	0.995	correct	incongruent	Block1	incongruent/STIM_013.jpg
267.586	0.77	correct	incongruent	Block1	incongruent/STIM_013.jpg
271.7	1.119	correct	incongruent	Block1	incongruent/STIM_013.jpg
276.309	0.92	correct	incongruent	Block1	incongruent/STIM_013.jpg
280.539	0.991	correct	incongruent	Block1	incongruent/STIM_013.jpg
283.711	0.914	correct	incongruent	Block1	incongruent/STIM_014.jpg
287.082	0.736	correct	incongruent	Block1	incongruent/STIM_014.jpg
290.609	0.964	incorrect	incongruent	Block1	incongruent/STIM_014.jpg
293.941	1.046	correct	incongruent	Block1	incongruent/STIM_014.jpg
298.956	0.909	correct	incongruent	Block1	incongruent/STIM_014.jpg
302.05	1.382	correct	incongruent	Block1	incongruent/STIM_015.jpg
305.599	0.65	correct	incongruent	Block1	incongruent/STIM_015.jpg
309.998	1.179	correct	incongruent	Block1	incongruent/STIM_015.jpg
313.311	0.574	correct	incongruent	Block1	incongruent/STIM_015.jpg
316.237	0.628	correct	incongruent	Block1	incongruent/STIM_015.jpg
319.162	0.912	correct	incongruent	Block1	incongruent/STIM_016.jpg
322.691	1.116	correct	incongruent	Block1	incongruent/STIM_016.jpg
326.514	1.115	correct	incongruent	Block1	incongruent/STIM_016.jpg
329.743	0.757	correct	incongruent	Block1	incongruent/STIM_016.jpg
332.744	0.699	correct	incongruent	Block1	incongruent/STIM_016.jpg
335.904	0.776	correct	incongruent	Block1	incongruent/STIM_017.jpg
339.386	0.616	correct	incongruent	Block1	incongruent/STIM_017.jpg
343.434	1.165	correct	incongruent	Block1	incongruent/STIM_017.jpg
347.21	0.654	correct	incongruent	Block1	incongruent/STIM_017.jpg
350.203	0.941	correct	incongruent	Block1	incongruent/STIM_017.jpg
353.984	0.794	correct	incongruent	Block1	incongruent/STIM_018.jpg
357.683	0.708	correct	incongruent	Block1	incongruent/STIM_018.jpg
360.772	0.993	correct	incongruent	Block1	incongruent/STIM_018.jpg
365.336	0.69	correct	incongruent	Block1	incongruent/STIM_018.jpg
369.559	1.059	correct	incongruent	Block1	incongruent/STIM_018.jpg
372.78	1.254	correct	incongruent	Block1	incongruent/STIM_019.jpg
377.014	1.139	correct	incongruent	Block1	incongruent/STIM_019.jpg
381.12	0.968	incorrect	incongruent	Block1	incongruent/STIM_019.jpg
384.395	0.848	correct	incongruent	Block1	incongruent/STIM_019.jpg
387.91	0.635	correct	incongruent	Block1	incongruent/STIM_019.jpg
390.873	0.7	correct	incongruent	Block1	incongruent/STIM_020.jpg
394.749	0.994	correct	incongruent	Block1	incongruent/STIM_020.jpg
398.59	1.242	correct	incongruent	Block1	incongruent/STIM_020.jpg
403.885	0.996	correct	incongruent	Block1	incongruent/STIM_020.jpg
408.162	0.717	correct	incongruent	Block1	incongruent/STIM_020.jpg
412.875	0.929	correct	incongruent	Block1	incongruent/STIM_021.jpg
417.403	1.249	correct	incongruent	Block1	incongruent/STIM_021.jpg
421.448	1.074	correct	incongruent	Block1	incongruent/STIM_021.jpg
424.987	0.606	correct	incongruent	Block1	incongruent/STIM_021.jpg
428.498	0.61	correct	incongruent	Block1	incongruent/STIM_021.jpg
432.074	0.666	correct	incongruent	Block1	incongruent/STIM_022.jpg
435.306	0.97	correct	incongruent	Block1	incongruent/STIM_022.jpg
438.937	0.687	correct	incongruent	Block1	incongruent/STIM_022.jpg
442.424	0.799	correct	incongruent	Block1	incongruent/STIM_022.jpg
446.495	0.969	correct	incongruent	Block1	incongruent/STIM_022.jpg
450.888	1.067	correct	incongruent	Block1	incongruent/STIM_023.jpg
454.434	0.872	correct	incongruent	Block1	incongruent/STIM_023.jpg
458.825	0.685	correct	incongruent	Block1	incongruent/STIM_023.jpg
462.062	1.049	incorrect	incongruent	Block1	incongruent/STIM_023.jpg
466.737	0.755	correct	incongruent	Block1	incongruent/STIM_023.jpg
471.284	1.006	correct	incongruent	Block1	incongruent/STIM_024.jpg
474.59	1.194	correct	incongruent	Block1	incongruent/STIM_024.jpg
479.672	0.994	correct	incongruent	Block1	incongruent/STIM_024.jpg
484.604	0.568	correct	incongruent	Block1	incongruent/STIM_024.jpg
488.985	0.594	correct	incongruent	Block1	incongruent/STIM_024.jpg
493.035	0.946	correct	incongruent	Block1	incongruent/STIM_025.jpg
497.629	1.071	correct	incongruent	Block1	incongruent/STIM_025.jpg
501.317	0.793	incorrect	incongruent	Block1	incongruent/STIM_025.jpg
506.154	0.708	correct	incongruent	Block1	incongruent/STIM_025.jpg
509.19	1.049	correct	incongruent	Block1	incongruent/STIM_025.jpg
514.033	1.214	correct	incongruent	Block1	incongruent/STIM_026.jpg
518.799	1.116	correct	incongruent	Block1	incongruent/STIM_026.jpg
522.738	0.829	correct	incongruent	Block1	incongruent/STIM_026.jpg
527.483	0.724	correct	incongruent	Block1	incongruent/STIM_026.jpg
530.642	0.888	correct	incongruent	Block1	incongruent/STIM_026.jpg
534.907	1.175	correct	incongruent	Block1	incongruent/STIM_027.jpg
538.837	1.026	correct	incongruent	Block1	incongruent/STIM_027.jpg
543.451	1.037	correct	incongruent	Block1	incongruent/STIM_027.jpg
547.011	1.156	correct	incongruent	Block1	incongruent/STIM_027.jpg
551.427	0.745	correct	incongruent	Block1	incongruent/STIM_027.jpg
555.432	0.952	correct	incongruent	Block1	incongruent/STIM_028.jpg
558.866	1.148	correct	incongruent	Block1	incongruent/STIM_028.jpg
563.658	1.042	correct	incongruent	Block1	incongruent/STIM_028.jpg
568.569	0.706	correct	incongruent	Block1	incongruent/STIM_028.jpg
572.753	1.052	correct	incongruent	Block1	incongruent/STIM_028.jpg
577.154	0.678	correct	incongruent	Block1	incongruent/STIM_029.jpg
581.082	0.797	correct	incongruent	Block1	incongruent/STIM_029.jpg
585.837	1.114	correct	incongruent	Block1	incongruent/STIM_029.jpg
590.902	0.852	correct	incongruent	Block1	incongruent/STIM_029.jpg
595.178	0.997	correct	incongruent	Block1	incongruent/STIM_029.jpg
598.412	0.542	correct	congruent	Block1	congruent/STIM_000.jpg
602.28	0.83	correct	congruent	Block1	congruent/STIM_000.jpg
605.941	0.607	correct	congruent	Block1	congruent/STIM_000.jpg
610.286	0.542	correct	congruent	Block1	congruent/STIM_000.jpg
614.134	0.709	correct	congruent	Block1	congruent/STIM_000.jpg
617.058	0.535	correct	congruent	Block1	congruent/STIM_001.jpg
620.655	0.768	correct	congruent	Block1	congruent/STIM_001.jpg
625.065	0.789	incorrect	congruent	Block1	congruent/STIM_001.jpg
628.683	0.676	correct	congruent	Block1	congruent/STIM_001.jpg
632.279	0.82	correct	congruent	Block1	congruent/STIM_001.jpg
635.919	0.585	correct	congruent	Block1	congruent/STIM_002.jpg
638.993	0.824	correct	congruent	Block1	congruent/STIM_002.jpg
642.331	0.782	correct	congruent	Block1	congruent/STIM_002.jpg
646.863	0.64	incorrect	congruent	Block1	congruent/STIM_002.jpg
651.547	0.626	correct	congruent	Block1	congruent/STIM_002.jpg
655.314	0.803	correct	congruent	Block1	congruent/STIM_003.jpg
658.905	0.546	incorrect	congruent	Block1	congruent/STIM_003.jpg
661.951	0.5	correct	congruent	Block1	congruent/STIM_003.jpg
666.147	0.57	correct	congruent	Block1	congruent/STIM_003.jpg
669.716	0.543	correct	congruent	Block1	congruent/STIM_003.jpg
674.133	0.821	correct	congruent	Block1	congruent/STIM_004.jpg
677.56	0.619	correct	congruent	Block1	congruent/STIM_004.jpg
680.424	0.464	correct	congruent	Block1	congruent/STIM_004.jpg
684.198	0.686	correct	congruent	Block1	congruent/STIM_004.jpg
688.744	0.64	correct	congruent	Block1	congruent/STIM_004.jpg
693.313	0.607	correct	congruent	Block1	congruent/STIM_005.jpg
696.827	0.527	correct	congruent	Block1	congruent/STIM_005.jpg
699.51	0.535	correct	congruent	Block1	congruent/STIM_005.jpg
703.613	0.683	correct	congruent	Block1	congruent/STIM_005.jpg
708.185	0.609	correct	congruent	Block1	congruent/STIM_005.jpg
712.84	0.771	correct	congruent	Block1	congruent/STIM_006.jpg
717.567	0.478	correct	congruent	Block1	congruent/STIM_006.jpg
720.523	0.685	correct	congruent	Block1	congruent/STIM_006.jpg
724.499	0.655	correct	congruent	Block1	congruent/STIM_006.jpg
727.3	0.472	correct	congruent	Block1	congruent/STIM_006.jpg
730.061	0.671	correct	congruent	Block1	congruent/STIM_007.jpg
732.883	0.629	correct	congruent	Block1	congruent/STIM_007.jpg
735.824	0.81	correct	congruent	Block1	congruent/STIM_007.jpg
739.444	0.777	correct	congruent	Block1	congruent/STIM_007.jpg
743.475	0.666	correct	congruent	Block1	congruent/STIM_007.jpg
747.482	0.599	correct	congruent	Block1	congruent/STIM_008.jpg
750.194	0.75	correct	congruent	Block1	congruent/STIM_008.jpg
754.835	0.669	correct	congruent	Block1	congruent/STIM_008.jpg
758.555	0.628	correct	congruent	Block1	congruent/STIM_008.jpg
762.9	0.513	correct	congruent	Block1	congruent/STIM_008.jpg
765.737	0.614	correct	congruent	Block1	congruent/STIM_009.jpg
770.057	0.768	correct	congruent	Block1	congruent/STIM_009.jpg
774.544	0.586	correct	congruent	Block1	congruent/STIM_009.jpg
778.971	0.516	correct	congruent	Block1	congruent/STIM_009.jpg
781.801	0.664	correct	congruent	Block1	congruent/STIM_009.jpg
785.244	0.77	correct	congruent	Block1	congruent/STIM_010.jpg
790.008	0.502	correct	congruent	Block1	congruent/STIM_010.jpg
793.372	0.73	correct	congruent	Block1	congruent/STIM_010.jpg
797.104	0.683	correct	congruent	Block1	congruent/STIM_010.jpg
801.123	0.711	correct	congruent	Block1	congruent/STIM_010.jpg
805.405	0.473	correct	congruent	Block1	congruent/STIM_011.jpg
809.752	0.728	correct	congruent	Block1	congruent/STIM_011.jpg
812.698	0.701	correct	congruent	Block1	congruent/STIM_011.jpg
815.724	0.818	correct	congruent	Block1	congruent/STIM_011.jpg
819.922	0.65	correct	congruent	Block1	congruent/STIM_011.jpg
824.479	0.577	correct	congruent	Block1	congruent/STIM_012.jpg
828.569	0.734	correct	congruent	Block1	congruent/STIM_012.jpg
832.376	0.777	correct	congruent	Block1	congruent/STIM_012.jpg
836.758	0.666	correct	congruent	Block1	congruent/STIM_012.jpg
839.769	0.71	correct	congruent	Block1	congruent/STIM_012.jpg
844.22	0.546	correct	congruent	Block1	congruent/STIM_013.jpg
848.253	0.578	correct	congruent	Block1	congruent/STIM_013.jpg
851.777	0.622	correct	congruent	Block1	congruent/STIM_013.jpg
854.979	0.636	correct	congruent	Block1	congruent/STIM_013.jpg
857.989	0.799	correct	congruent	Block1	congruent/STIM_013.jpg
861.889	0.483	correct	congruent	Block1	congruent/STIM_014.jpg
865.407	0.487	correct	congruent	Block1	congruent/STIM_014.jpg
869.471	0.825	correct	congruent	Block1	congruent/STIM_014.jpg
873.237	0.618	correct	congruent	Block1	congruent/STIM_014.jpg
877.864	0.606	correct	congruent	Block1	congruent/STIM_014.jpg
880.834	0.558	correct	congruent	Block1	congruent/STIM_015.jpg
883.856	0.746	correct	congruent	Block1	congruent/STIM_015.jpg
888.196	0.615	correct	congruent	Block1	congruent/STIM_015.jpg
891.999	0.79	correct	congruent	Block1	congruent/STIM_015.jpg
895.46	0.583	correct	congruent	Block1	congruent/STIM_015.jpg
898.17	0.637	correct	congruent	Block1	congruent/STIM_016.jpg
901.505	0.752	correct	congruent	Block1	congruent/STIM_016.jpg
904.64	0.76	incorrect	congruent	Block1	congruent/STIM_016.jpg
908.297	0.73	correct	congruent	Block1	congruent/STIM_016.jpg
912.918	0.599	correct	congruent	Block1	congruent/STIM_016.jpg
917.302	0.636	correct	congruent	Block1	congruent/STIM_017.jpg
920.921	0.498	correct	congruent	Block1	congruent/STIM_017.jpg
923.782	0.705	correct	congruent	Block1	congruent/STIM_017.jpg
928.187	0.815	correct	congruent	Block1	congruent/STIM_017.jpg
932.914	0.663	correct	congruent	Block1	congruent/STIM_017.jpg
936.038	0.624	correct	congruent	Block1	congruent/STIM_018.jpg
938.845	0.786	correct	congruent	Block1	congruent/STIM_018.jpg
943.575	0.647	correct	congruent	Block1	congruent/STIM_018.jpg
946.334	0.693	correct	congruent	Block1	congruent/STIM_018.jpg
950.713	0.711	correct	congruent	Block1	congruent/STIM_018.jpg
955.038	0.755	correct	congruent	Block1	congruent/STIM_019.jpg
958.157	0.526	correct	congruent	Block1	congruent/STIM_019.jpg
961.207	0.576	correct	congruent	Block1	congruent/STIM_019.jpg
965.24	0.509	correct	congruent	Block1	congruent/STIM_019.jpg
969.38	0.766	correct	congruent	Block1	congruent/STIM_019.jpg
973.202	0.7	incorrect	congruent	Block1	congruent/STIM_020.jpg
977.485	0.824	correct	congruent	Block1	congruent/STIM_020.jpg
982.347	0.606	correct	congruent	Block1	congruent/STIM_020.jpg
986.46	0.536	correct	congruent	Block1	congruent/STIM_020.jpg
989.265	0.586	correct	congruent	Block1	congruent/STIM_020.jpg
992.666	0.789	correct	congruent	Block1	congruent/STIM_021.jpg
995.58	0.558	correct	congruent	Block1	congruent/STIM_021.jpg
998.946	0.699	correct	congruent	Block1	congruent/STIM_021.jpg
1002.811	0.493	correct	congruent	Block1	congruent/STIM_021.jpg
1006.656	0.7	incorrect	congruent	Block1	congruent/STIM_021.jpg
1009.95	0.562	correct	congruent	Block1	congruent/STIM_022.jpg
1013.306	0.527	correct	congruent	Block1	congruent/STIM_022.jpg
1015.878	0.558	correct	congruent	Block1	congruent/STIM_022.jpg
1019.899	0.687	correct	congruent	Block1	congruent/STIM_022.jpg
1023.408	0.767	correct	congruent	Block1	congruent/STIM_022.jpg
1026.273	0.686	correct	congruent	Block1	congruent/STIM_023.jpg
1029.052	0.55	correct	congruent	Block1	congruent/STIM_023.jpg
1032.904	0.706	correct	congruent	Block1	congruent/STIM_023.jpg
1036.436	0.823	correct	congruent	Block1	congruent/STIM_023.jpg
1039.771	0.573	correct	congruent	Block1	congruent/STIM_023.jpg
1042.651	0.716	correct	congruent	Block1	congruent/STIM_024.jpg
1047.341	0.689	correct	congruent	Block1	congruent/STIM_024.jpg
1050.555	0.69	correct	congruent	Block1	congruent/STIM_024.jpg
1055.02	0.696	correct	congruent	Block1	congruent/STIM_024.jpg
1057.905	0.628	correct	congruent	Block1	congruent/STIM_024.jpg
1061.339	0.596	correct	congruent	Block1	congruent/STIM_025.jpg
1064.325	0.534	correct	congruent	Block1	congruent/STIM_025.jpg
1067.256	0.758	correct	congruent	Block1	congruent/STIM_025.jpg
1072.035	0.557	correct	congruent	Block1	congruent/STIM_025.jpg
1075.727	0.517	correct	congruent	Block1	congruent/STIM_025.jpg
1079.914	0.69	correct	congruent	Block1	congruent/STIM_026.jpg
1084.285	0.517	correct	congruent	Block1	congruent/STIM_026.jpg
1088.229	0.663	correct	congruent	Block1	congruent/STIM_026.jpg
1091.853	0.815	correct	congruent	Block1	congruent/STIM_026.jpg
1095.749	0.763	correct	congruent	Block1	congruent/STIM_026.jpg
1099.243	0.513	correct	congruent	Block1	congruent/STIM_027.jpg
1101.843	0.549	correct	congruent	Block1	congruent/STIM_027.jpg
1105.261	0.61	correct	congruent	Block1	congruent/STIM_027.jpg
1109.507	0.731	correct	congruent	Block1	congruent/STIM_027.jpg
1112.653	0.775	correct	congruent	Block1	congruent/STIM_027.jpg
1116.489	0.509	correct	congruent	Block1	congruent/STIM_028.jpg
1119.506	0.551	correct	congruent	Block1	congruent/STIM_028.jpg
1122.541	0.81	correct	congruent	Block1	congruent/STIM_028.jpg
1126.937	0.536	correct	congruent	Block1	congruent/STIM_028.jpg
1131.365	0.768	correct	congruent	Block1	congruent/STIM_028.jpg
1135.587	0.528	correct	congruent	Block1	congruent/STIM_029.jpg
1139.854	0.632	correct	congruent	Block1	congruent/STIM_029.jpg
1143.492	0.576	correct	congruent	Block1	congruent/STIM_029.jpg
1147.983	0.794	correct	congruent	Block1	congruent/STIM_029.jpg
1151.139	0.765	correct	congruent	Block1	congruent/STIM_029.jpg
1154.641	0.803	correct	incongruent	Block2	incongruent/STIM_000.jpg
1159.098	0.961	correct	incongruent	Block2	incongruent/STIM_000.jpg
1163.249	0.614	correct	incongruent	Block2	incongruent/STIM_000.jpg
1166.53	0.744	correct	incongruent	Block2	incongruent/STIM_000.jpg
1170.237	0.501	correct	incongruent	Block2	incongruent/STIM_000.jpg
1174.122	0.572	correct	incongruent	Block2	incongruent/STIM_001.jpg
1178.66	0.888	correct	incongruent	Block2	incongruent/STIM_001.jpg
1182.155	0.649	correct	incongruent	Block2	incongruent/STIM_001.jpg
1186.645	0.969	correct	incongruent	Block2	incongruent/STIM_001.jpg
1191.093	0.676	correct	incongruent	Block2	incongruent/STIM_001.jpg
1195.75	0.785	correct	incongruent	Block2	incongruent/STIM_002.jpg
1200.46	0.929	correct	incongruent	Block2	incongruent/STIM_002.jpg
1203.56	0.91	correct	incongruent	Block2	incongruent/STIM_002.jpg
1206.878	0.936	correct	incongruent	Block2	incongruent/STIM_002.jpg
1211.696	0.754	correct	incongruent	Block2	incongruent/STIM_002.jpg
1216.18	0.741	correct	incongruent	Block2	incongruent/STIM_003.jpg
1219.875	0.581	correct	incongruent	Block2	incongruent/STIM_003.jpg
1223.846	0.899	incorrect	incongruent	Block2	incongruent/STIM_003.jpg
1227.094	0.458	correct	incongruent	Block2	incongruent/STIM_003.jpg
1230.909	0.951	correct	incongruent	Block2	incongruent/STIM_003.jpg
1235.044	1.073	correct	incongruent	Block2	incongruent/STIM_004.jpg
1239.479	1.004	correct	incongruent	Block2	incongruent/STIM_004.jpg
1243.71	0.978	correct	incongruent	Block2	incongruent/STIM_004.jpg
1248.717	0.934	correct	incongruent	Block2	incongruent/STIM_004.jpg
1252.188	0.793	correct	incongruent	Block2	incongruent/STIM_004.jpg
1256.656	1.033	correct	incongruent	Block2	incongruent/STIM_005.jpg
1259.962	0.963	correct	incongruent	Block2	incongruent/STIM_005.jpg
1264.519	0.874	correct	incongruent	Block2	incongruent/STIM_005.jpg
1267.842	0.632	correct	incongruent	Block2	incongruent/STIM_005.jpg
1272.002	0.905	correct	incongruent	Block2	incongruent/STIM_005.jpg
1276.198	1.11	correct	incongruent	Block2	incongruent/STIM_006.jpg
1281.07	0.625	correct	incongruent	Block2	incongruent/STIM_006.jpg
1283.955	0.99	correct	incongruent	Block2	incongruent/STIM_006.jpg
1288.059	0.48	correct	incongruent	Block2	incongruent/STIM_006.jpg
1290.96	0.539	correct	incongruent	Block2	incongruent/STIM_006.jpg
1293.733	0.822	correct	incongruent	Block2	incongruent/STIM_007.jpg
1296.83	0.564	correct	incongruent	Block2	incongruent/STIM_007.jpg
1300.773	0.847	correct	incongruent	Block2	incongruent/STIM_007.jpg
1304.408	0.684	correct	incongruent	Block2	incongruent/STIM_007.jpg
1307.926	0.966	correct	incongruent	Block2	incongruent/STIM_007.jpg
1311.777	0.932	incorrect	incongruent	Block2	incongruent/STIM_008.jpg
1315.007	0.864	correct	incongruent	Block2	incongruent/STIM_008.jpg
1318.324	0.648	correct	incongruent	Block2	incongruent/STIM_008.jpg
1322.007	0.802	correct	incongruent	Block2	incongruent/STIM_008.jpg
1325.413	0.889	correct	incongruent	Block2	incongruent/STIM_008.jpg
1328.607	0.712	correct	incongruent	Block2	incongruent/STIM_009.jpg
1332.589	0.658	correct	incongruent	Block2	incongruent/STIM_009.jpg
1335.505	0.715	correct	incongruent	Block2	incongruent/STIM_009.jpg
1339.412	0.831	correct	incongruent	Block2	incongruent/STIM_009.jpg
1344.31	0.786	correct	incongruent	Block2	incongruent/STIM_009.jpg
1347.724	0.661	correct	incongruent	Block2	incongruent/STIM_010.jpg
1351.462	0.764	correct	incongruent	Block2	incongruent/STIM_010.jpg
1356.104	0.779	correct	incongruent	Block2	incongruent/STIM_010.jpg
1360.024	0.703	correct	incongruent	Block2	incongruent/STIM_010.jpg
1364.359	0.577	correct	incongruent	Block2	incongruent/STIM_010.jpg
1367.688	1.122	correct	incongruent	Block2	incongruent/STIM_011.jpg
1370.987	1.034	correct	incongruent	Block2	incongruent/STIM_011.jpg
1374.634	0.515	correct	incongruent	Block2	incongruent/STIM_011.jpg
1379.136	0.612	correct	incongruent	Block2	incongruent/STIM_011.jpg
1383.513	0.838	correct	incongruent	Block2	incongruent/STIM_011.jpg
1388.295	0.857	correct	incongruent	Block2	incongruent/STIM_012.jpg
1392.588	0.81	correct	incongruent	Block2	incongruent/STIM_012.jpg
1395.94	0.697	correct	incongruent	Block2	incongruent/STIM_012.jpg
1398.861	0.528	correct	incongruent	Block2	incongruent/STIM_012.jpg
1402.623	0.762	correct	incongruent	Block2	incongruent/STIM_012.jpg
1407.257	0.915	correct	incongruent	Block2	incongruent/STIM_013.jpg
1410.778	1.01	correct	incongruent	Block2	incongruent/STIM_013.jpg
1415.122	0.794	incorrect	incongruent	Block2	incongruent/STIM_013.jpg
1418.437	0.667	correct	incongruent	Block2	incongruent/STIM_013.jpg
1423.137	0.572	correct	incongruent	Block2	incongruent/STIM_013.jpg
1426.793	1.062	correct	incongruent	Block2	incongruent/STIM_014.jpg
1430.89	0.965	correct	incongruent	Block2	incongruent/STIM_014.jpg
1435.829	0.774	correct	incongruent	Block2	incongruent/STIM_014.jpg
1439.307	0.461	correct	incongruent	Block2	incongruent/STIM_014.jpg
1441.829	0.763	correct	incongruent	Block2	incongruent/STIM_014.jpg
1446.304	0.552	correct	incongruent	Block2	incongruent/STIM_015.jpg
1450.473	0.628	correct	incongruent	Block2	incongruent/STIM_015.jpg
1455.119	0.758	correct	incongruent	Block2	incongruent/STIM_015.jpg
1459.04	0.669	correct	incongruent	Block2	incongruent/STIM_015.jpg
1462.87	0.596	correct	incongruent	Block2	incongruent/STIM_015.jpg
1465.674	0.989	correct	incongruent	Block2	incongruent/STIM_016.jpg
1470.598	0.747	correct	incongruent	Block2	incongruent/STIM_016.jpg
1473.59	0.522	correct	incongruent	Block2	incongruent/STIM_016.jpg
1476.542	0.799	correct	incongruent	Block2	incongruent/STIM_016.jpg
1480.216	0.958	correct	incongruent	Block2	incongruent/STIM_016.jpg
1485.123	0.91	correct	incongruent	Block2	incongruent/STIM_017.jpg
1489.292	1.01	correct	incongruent	Block2	incongruent/STIM_017.jpg
1494.095	0.663	correct	incongruent	Block2	incongruent/STIM_017.jpg
1497.377	0.681	correct	incongruent	Block2	incongruent/STIM_017.jpg
1501.321	0.722	correct	incongruent	Block2	incongruent/STIM_017.jpg
1504.591	1.089	correct	incongruent	Block2	incongruent/STIM_018.jpg
1509.629	0.825	correct	incongruent	Block2	incongruent/STIM_018.jpg
1513.436	0.81	correct	incongruent	Block2	incongruent/STIM_018.jpg
1518.093	0.65	correct	incongruent	Block2	incongruent/STIM_018.jpg
1520.903	0.652	correct	incongruent	Block2	incongruent/STIM_018.jpg
1524.323	0.695	correct	incongruent	Block2	incongruent/STIM_019.jpg
1527.834	0.818	correct	incongruent	Block2	incongruent/STIM_019.jpg
1532.287	0.943	correct	incongruent	Block2	incongruent/STIM_019.jpg
1535.986	0.733	correct	incongruent	Block2	incongruent/STIM_019.jpg
1538.86	0.544	correct	incongruent	Block2	incongruent/STIM_019.jpg
1542.869	1.098	correct	incongruent	Block2	incongruent/STIM_020.jpg
1547.831	0.531	correct	incongruent	Block2	incongruent/STIM_020.jpg
1551.647	0.655	correct	incongruent	Block2	incongruent/STIM_020.jpg
1555.774	0.526	correct	incongruent	Block2	incongruent/STIM_020.jpg
1559.851	0.854	correct	incongruent	Block2	incongruent/STIM_020.jpg
1562.876	0.823	correct	incongruent	Block2	incongruent/STIM_021.jpg
1566.578	0.92	correct	incongruent	Block2	incongruent/STIM_021.jpg
1570.608	0.724	correct	incongruent	Block2	incongruent/STIM_021.jpg
1574.265	0.462	correct	incongruent	Block2	incongruent/STIM_021.jpg
1576.808	0.546	correct	incongruent	Block2	incongruent/STIM_021.jpg
1580.607	0.88	correct	incongruent	Block2	incongruent/STIM_022.jpg
1583.627	0.687	incorrect	incongruent	Block2	incongruent/STIM_022.jpg
1586.449	0.997	correct	incongruent	Block2	incongruent/STIM_022.jpg
1590.893	0.538	correct	incongruent	Block2	incongruent/STIM_022.jpg
1595.137	0.792	correct	incongruent	Block2	incongruent/STIM_022.jpg
1598.832	0.947	correct	incongruent	Block2	incongruent/STIM_023.jpg
1603.464	0.89	correct	incongruent	Block2	incongruent/STIM_023.jpg
1608.382	0.685	correct	incongruent	Block2	incongruent/STIM_023.jpg
1612.2	0.644	correct	incongruent	Block2	incongruent/STIM_023.jpg
1616.193	0.695	correct	incongruent	Block2	incongruent/STIM_023.jpg
1619.923	0.9	correct	incongruent	Block2	incongruent/STIM_024.jpg
1623.221	0.713	correct	incongruent	Block2	incongruent/STIM_024.jpg
1626.217	0.556	correct	incongruent	Block2	incongruent/STIM_024.jpg
1630.524	0.637	incorrect	incongruent	Block2	incongruent/STIM_024.jpg
1634.339	0.897	correct	incongruent	Block2	incongruent/STIM_024.jpg
1637.902	1.084	correct	incongruent	Block2	incongruent/STIM_025.jpg
1641.919	0.829	correct	incongruent	Block2	incongruent/STIM_025.jpg
1645.372	0.978	correct	incongruent	Block2	incongruent/STIM_025.jpg
1649.918	0.678	correct	incongruent	Block2	incongruent/STIM_025.jpg
1653.44	0.734	correct	incongruent	Block2	incongruent/STIM_025.jpg
1657.968	0.825	correct	incongruent	Block2	incongruent/STIM_026.jpg
1662.463	0.829	correct	incongruent	Block2	incongruent/STIM_026.jpg
1666.427	0.722	correct	incongruent	Block2	incongruent/STIM_026.jpg
1670.082	0.671	correct	incongruent	Block2	incongruent/STIM_026.jpg
1672.867	0.7	correct	incongruent	Block2	incongruent/STIM_026.jpg
1677.234	0.731	correct	incongruent	Block2	incongruent/STIM_027.jpg
1680.129	0.661	correct	incongruent	Block2	incongruent/STIM_027.jpg
1683.839	0.584	correct	incongruent	Block2	incongruent/STIM_027.jpg
1688.147	0.853	correct	incongruent	Block2	incongruent/STIM_027.jpg
1692.446	0.662	correct	incongruent	Block2	incongruent/STIM_027.jpg
1696.886	0.786	correct	incongruent	Block2	incongruent/STIM_028.jpg
1700.627	1.088	correct	incongruent	Block2	incongruent/STIM_028.jpg
1705.334	1.024	correct	incongruent	Block2	incongruent/STIM_028.jpg
1708.628	0.534	correct	incongruent	Block2	incongruent/STIM_028.jpg
1711.492	0.814	correct	incongruent	Block2	incongruent/STIM_028.jpg
1716.189	0.852	correct	incongruent	Block2	incongruent/STIM_029.jpg
1720.337	0.809	correct	incongruent	Block2	incongruent/STIM_029.jpg
1724.672	0.831	correct	incongruent	Block2	incongruent/STIM_029.jpg
1729.15	0.585	incorrect	incongruent	Block2	incongruent/STIM_029.jpg
1733.34	0.94	correct	incongruent	Block2	incongruent/STIM_029.jpg
1737.875	0.697	correct	congruent	Block2	congruent/STIM_000.jpg
1740.961	0.506	correct	congruent	Block2	congruent/STIM_000.jpg
1744.941	0.804	correct	congruent	Block2	congruent/STIM_000.jpg
1747.94	0.577	correct	congruent	Block2	congruent/STIM_000.jpg
1751.338	0.691	correct	congruent	Block2	congruent/STIM_000.jpg
1754.73	0.823	correct	congruent	Block2	congruent/STIM_001.jpg
1758.883	0.729	incorrect	congruent	Block2	congruent/STIM_001.jpg
1762.759	0.51	correct	congruent	Block2	congruent/STIM_001.jpg
1765.439	0.568	correct	congruent	Block2	congruent/STIM_001.jpg
1768.342	0.527	correct	congruent	Block2	congruent/STIM_001.jpg
1771.134	0.732	correct	congruent	Block2	congruent/STIM_002.jpg
1775.639	0.525	incorrect	congruent	Block2	congruent/STIM_002.jpg
1779.132	0.62	correct	congruent	Block2	congruent/STIM_002.jpg
1783.071	0.828	correct	congruent	Block2	congruent/STIM_002.jpg
1787.261	0.737	correct	congruent	Block2	congruent/STIM_002.jpg
1790.499	0.477	correct	congruent	Block2	congruent/STIM_003.jpg
1793.609	0.638	correct	congruent	Block2	congruent/STIM_003.jpg
1797.412	0.715	correct	congruent	Block2	congruent/STIM_003.jpg
1800.862	0.704	correct	congruent	Block2	congruent/STIM_003.jpg
1805.491	0.781	correct	congruent	Block2	congruent/STIM_003.jpg
1810.141	0.812	correct	congruent	Block2	congruent/STIM_004.jpg
1814.916	0.598	correct	congruent	Block2	congruent/STIM_004.jpg
1818.09	0.752	correct	congruent	Block2	congruent/STIM_004.jpg
1822.609	0.493	correct	congruent	Block2	congruent/STIM_004.jpg
1825.919	0.592	correct	congruent	Block2	congruent/STIM_004.jpg
1828.814	0.807	correct	congruent	Block2	congruent/STIM_005.jpg
1832.425	0.552	correct	congruent	Block2	congruent/STIM_005.jpg
1836.063	0.71	correct	congruent	Block2	congruent/STIM_005.jpg
1840.524	0.67	correct	congruent	Block2	congruent/STIM_005.jpg
1843.448	0.472	correct	congruent	Block2	congruent/STIM_005.jpg
1846.344	0.55	correct	congruent	Block2	congruent/STIM_006.jpg
1849.175	0.66	correct	congruent	Block2	congruent/STIM_006.jpg
1853.496	0.555	correct	congruent	Block2	congruent/STIM_006.jpg
1857.846	0.796	correct	congruent	Block2	congruent/STIM_006.jpg
1861.058	0.492	correct	congruent	Block2	congruent/STIM_006.jpg
1863.9	0.62	correct	congruent	Block2	congruent/STIM_007.jpg
1867.276	0.762	correct	congruent	Block2	congruent/STIM_007.jpg
1870.777	0.704	correct	congruent	Block2	congruent/STIM_007.jpg
1873.791	0.755	incorrect	congruent	Block2	congruent/STIM_007.jpg
1877.179	0.58	incorrect	congruent	Block2	congruent/STIM_007.jpg
1880.4	0.787	correct	congruent	Block2	congruent/STIM_008.jpg
1883.315	0.581	incorrect	congruent	Block2	congruent/STIM_008.jpg
1885.967	0.821	correct	congruent	Block2	congruent/STIM_008.jpg
1890.226	0.812	correct	congruent	Block2	congruent/STIM_008.jpg
1894.269	0.748	correct	congruent	Block2	congruent/STIM_008.jpg
1898.176	0.779	correct	congruent	Block2	congruent/STIM_009.jpg
1902.228	0.814	incorrect	congruent	Block2	congruent/STIM_009.jpg
1906.442	0.788	correct	congruent	Block2	congruent/STIM_009.jpg
1909.491	0.482	correct	congruent	Block2	congruent/STIM_009.jpg
1912.936	0.656	correct	congruent	Block2	congruent/STIM_009.jpg
1915.79	0.684	correct	congruent	Block2	congruent/STIM_010.jpg
1918.604	0.645	correct	congruent	Block2	congruent/STIM_010.jpg
1921.556	0.503	correct	congruent	Block2	congruent/STIM_010.jpg
1926.023	0.766	correct	congruent	Block2	congruent/STIM_010.jpg
1929.035	0.505	correct	congruent	Block2	congruent/STIM_010.jpg
1933.227	0.801	correct	congruent	Block2	congruent/STIM_011.jpg
1937.802	0.58	incorrect	congruent	Block2	congruent/STIM_011.jpg
1942.209	0.615	correct	congruent	Block2	congruent/STIM_011.jpg
1946.785	0.494	correct	congruent	Block2	congruent/STIM_011.jpg
1949.993	0.516	correct	congruent	Block2	congruent/STIM_011.jpg
1952.946	0.491	correct	congruent	Block2	congruent/STIM_012.jpg
1957.202	0.584	correct	congruent	Block2	congruent/STIM_012.jpg
1961.688	0.621	correct	congruent	Block2	congruent/STIM_012.jpg
1965.84	0.723	correct	congruent	Block2	congruent/STIM_012.jpg
1969.725	0.613	correct	congruent	Block2	congruent/STIM_012.jpg
1973.65	0.661	correct	congruent	Block2	congruent/STIM_013.jpg
1977.65	0.602	correct	congruent	Block2	congruent/STIM_013.jpg
1980.321	0.667	correct	congruent	Block2	congruent/STIM_013.jpg
1983.25	0.667	correct	congruent	Block2	congruent/STIM_013.jpg
1986.261	0.798	correct	congruent	Block2	congruent/STIM_013.jpg
1989.907	0.664	correct	congruent	Block2	congruent/STIM_014.jpg
1992.758	0.658	correct	congruent	Block2	congruent/STIM_014.jpg
1997.348	0.737	correct	congruent	Block2	congruent/STIM_014.jpg
2000.994	0.695	correct	congruent	Block2	congruent/STIM_014.jpg
2004.758	0.72	correct	congruent	Block2	congruent/STIM_014.jpg
2008.57	0.702	correct	congruent	Block2	congruent/STIM_015.jpg
2011.718	0.605	correct	congruent	Block2	congruent/STIM_015.jpg
2014.386	0.71	correct	congruent	Block2	congruent/STIM_015.jpg
2018.836	0.486	correct	congruent	Block2	congruent/STIM_015.jpg
2022.745	0.791	correct	congruent	Block2	congruent/STIM_015.jpg
2025.664	0.668	correct	congruent	Block2	congruent/STIM_016.jpg
2029.108	0.787	correct	congruent	Block2	congruent/STIM_016.jpg
2033.668	0.804	correct	congruent	Block2	congruent/STIM_016.jpg
2037.139	0.824	correct	congruent	Block2	congruent/STIM_016.jpg
2041.383	0.783	correct	congruent	Block2	congruent/STIM_016.jpg
2044.265	0.614	correct	congruent	Block2	congruent/STIM_017.jpg
2047.691	0.64	correct	congruent	Block2	congruent/STIM_017.jpg
2051.056	0.569	correct	congruent	Block2	congruent/STIM_017.jpg
2054.051	0.653	correct	congruent	Block2	congruent/STIM_017.jpg
2057.859	0.544	correct	congruent	Block2	congruent/STIM_017.jpg
2061.706	0.623	correct	congruent	Block2	congruent/STIM_018.jpg
2065.626	0.545	correct	congruent	Block2	congruent/STIM_018.jpg
2068.507	0.686	correct	congruent	Block2	congruent/STIM_018.jpg
2072.68	0.521	correct	congruent	Block2	congruent/STIM_018.jpg
2075.449	0.587	correct	congruent	Block2	congruent/STIM_018.jpg
2078.582	0.605	correct	congruent	Block2	congruent/STIM_019.jpg
2083.159	0.574	correct	congruent	Block2	congruent/STIM_019.jpg
2087.431	0.554	correct	congruent	Block2	congruent/STIM_019.jpg
2091.322	0.627	correct	congruent	Block2	congruent/STIM_019.jpg
2095.868	0.671	correct	congruent	Block2	congruent/STIM_019.jpg
2098.735	0.622	correct	congruent	Block2	congruent/STIM_020.jpg
2103.115	0.812	correct	congruent	Block2	congruent/STIM_020.jpg
2106.925	0.557	correct	congruent	Block2	congruent/STIM_020.jpg
2111.085	0.621	correct	congruent	Block2	congruent/STIM_020.jpg
2115.451	0.789	correct	congruent	Block2	congruent/STIM_020.jpg
2120.291	0.716	correct	congruent	Block2	congruent/STIM_021.jpg
2124.653	0.558	correct	congruent	Block2	congruent/STIM_021.jpg
2127.462	0.72	correct	congruent	Block2	congruent/STIM_021.jpg
2131.463	0.491	correct	congruent	Block2	congruent/STIM_021.jpg
2135.625	0.612	correct	congruent	Block2	congruent/STIM_021.jpg
2138.782	0.723	correct	congruent	Block2	congruent/STIM_022.jpg
2142.927	0.826	correct	congruent	Block2	congruent/STIM_022.jpg
2146.139	0.697	correct	congruent	Block2	congruent/STIM_022.jpg
2150.859	0.515	correct	congruent	Block2	congruent/STIM_022.jpg
2153.829	0.722	correct	congruent	Block2	congruent/STIM_022.jpg
2157.476	0.803	correct	congruent	Block2	congruent/STIM_023.jpg
2161.239	0.487	correct	congruent	Block2	congruent/STIM_023.jpg
2164.958	0.506	correct	congruent	Block2	congruent/STIM_023.jpg
2168.07	0.692	correct	congruent	Block2	congruent/STIM_023.jpg
2172.3	0.539	correct	congruent	Block2	congruent/STIM_023.jpg
2176.601	0.667	correct	congruent	Block2	congruent/STIM_024.jpg
2180.156	0.824	correct	congruent	Block2	congruent/STIM_024.jpg
2183.922	0.579	correct	congruent	Block2	congruent/STIM_024.jpg
2187.137	0.637	correct	congruent	Block2	congruent/STIM_024.jpg
2190.92	0.749	correct	congruent	Block2	congruent/STIM_024.jpg
2195.724	0.779	correct	congruent	Block2	congruent/STIM_025.jpg
2200.153	0.61	correct	congruent	Block2	congruent/STIM_025.jpg
2202.932	0.788	correct	congruent	Block2	congruent/STIM_025.jpg
2207.747	0.47	correct	congruent	Block2	congruent/STIM_025.jpg
2212.09	0.75	incorrect	congruent	Block2	congruent/STIM_025.jpg
2216.387	0.811	correct	congruent	Block2	congruent/STIM_026.jpg
2220.053	0.821	correct	congruent	Block2	congruent/STIM_026.jpg
2224.332	0.803	correct	congruent	Block2	congruent/STIM_026.jpg
2227.565	0.762	correct	congruent	Block2	congruent/STIM_026.jpg
2231.952	0.657	correct	congruent	Block2	congruent/STIM_026.jpg
2236.574	0.644	correct	congruent	Block2	congruent/STIM_027.jpg
2240.385	0.686	correct	congruent	Block2	congruent/STIM_027.jpg
2243.294	0.483	correct	congruent	Block2	congruent/STIM_027.jpg
2247.337	0.625	correct	congruent	Block2	congruent/STIM_027.jpg
2250.815	0.49	correct	congruent	Block2	congruent/STIM_027.jpg
2254.297	0.546	correct	congruent	Block2	congruent/STIM_028.jpg
2257.774	0.769	correct	congruent	Block2	congruent/STIM_028.jpg
2260.829	0.624	correct	congruent	Block2	congruent/STIM_028.jpg
2264.44	0.597	correct	congruent	Block2	congruent/STIM_028.jpg
2267.396	0.517	correct	congruent	Block2	congruent/STIM_028.jpg
2270.277	0.662	correct	congruent	Block2	congruent/STIM_029.jpg
2273.714	0.472	correct	congruent	Block2	congruent/STIM_029.jpg
2276.228	0.737	correct	congruent	Block2	congruent/STIM_029.jpg
2280.443	0.544	correct	congruent	Block2	congruent/STIM_029.jpg
2283.443	0.801	correct	congruent	Block2	congruent/STIM_029.jpg
2287.425	0.526	correct	incongruent	Block3	incongruent/STIM_000.jpg
2291.405	0.802	correct	incongruent	Block3	incongruent/STIM_000.jpg
2294.442	0.692	correct	incongruent	Block3	incongruent/STIM_000.jpg
2298.613	0.791	correct	incongruent	Block3	incongruent/STIM_000.jpg
2302.018	0.556	correct	incongruent	Block3	incongruent/STIM_000.jpg
2305.826	0.904	correct	incongruent	Block3	incongruent/STIM_001.jpg
2310.677	0.63	correct	incongruent	Block3	incongruent/STIM_001.jpg
2313.566	0.561	correct	incongruent	Block3	incongruent/STIM_001.jpg
2316.435	0.465	incorrect	incongruent	Block3	incongruent/STIM_001.jpg
2320.708	0.776	correct	incongruent	Block3	incongruent/STIM_001.jpg
2324.623	0.573	correct	incongruent	Block3	incongruent/STIM_002.jpg
2329.088	0.739	correct	incongruent	Block3	incongruent/STIM_002.jpg
2333.195	0.664	correct	incongruent	Block3	incongruent/STIM_002.jpg
2337.512	0.947	correct	incongruent	Block3	incongruent/STIM_002.jpg
2341.021	0.875	correct	incongruent	Block3	incongruent/STIM_002.jpg
2344.176	0.477	correct	incongruent	Block3	incongruent/STIM_003.jpg
2346.856	0.473	correct	incongruent	Block3	incongruent/STIM_003.jpg
2350.109	0.704	correct	incongruent	Block3	incongruent/STIM_003.jpg
2353.027	0.514	correct	incongruent	Block3	incongruent/STIM_003.jpg
2357.559	0.583	correct	incongruent	Block3	incongruent/STIM_003.jpg
2360.767	0.607	correct	incongruent	Block3	incongruent/STIM_004.jpg
2363.816	0.904	correct	incongruent	Block3	incongruent/STIM_004.jpg
2367.883	0.829	correct	incongruent	Block3	incongruent/STIM_004.jpg
2372.451	0.482	correct	incongruent	Block3	incongruent/STIM_004.jpg
2376.268	0.738	correct	incongruent	Block3	incongruent/STIM_004.jpg
2381.044	0.609	correct	incongruent	Block3	incongruent/STIM_005.jpg
2385.323	0.674	correct	incongruent	Block3	incongruent/STIM_005.jpg
2388.326	0.548	correct	incongruent	Block3	incongruent/STIM_005.jpg
2392.21	0.955	correct	incongruent	Block3	incongruent/STIM_005.jpg
2396.532	0.911	correct	incongruent	Block3	incongruent/STIM_005.jpg
2400.378	0.929	correct	incongruent	Block3	incongruent/STIM_006.jpg
2404.286	0.621	correct	incongruent	Block3	incongruent/STIM_006.jpg
2408.129	0.797	correct	incongruent	Block3	incongruent/STIM_006.jpg
2411.857	0.614	correct	incongruent	Block3	incongruent/STIM_006.jpg
2414.772	0.507	correct	incongruent	Block3	incongruent/STIM_006.jpg
2418.9	0.904	correct	incongruent	Block3	incongruent/STIM_007.jpg
2421.964	0.797	correct	incongruent	Block3	incongruent/STIM_007.jpg
2426.242	0.66	correct	incongruent	Block3	incongruent/STIM_007.jpg
2430.685	0.839	correct	incongruent	Block3	incongruent/STIM_007.jpg
2434.472	0.606	correct	incongruent	Block3	incongruent/STIM_007.jpg
2437.168	0.792	correct	incongruent	Block3	incongruent/STIM_008.jpg
2440.383	0.642	correct	incongruent	Block3	incongruent/STIM_008.jpg
2444.417	0.674	correct	incongruent	Block3	incongruent/STIM_008.jpg
2448.487	0.654	correct	incongruent	Block3	incongruent/STIM_008.jpg
2452.912	0.472	correct	incongruent	Block3	incongruent/STIM_008.jpg
2457.338	0.463	correct	incongruent	Block3	incongruent/STIM_009.jpg
2460.671	0.533	correct	incongruent	Block3	incongruent/STIM_009.jpg
2465.198	0.866	correct	incongruent	Block3	incongruent/STIM_009.jpg
2470.124	0.578	correct	incongruent	Block3	incongruent/STIM_009.jpg
2473.293	0.497	correct	incongruent	Block3	incongruent/STIM_009.jpg
2476.769	0.927	correct	incongruent	Block3	incongruent/STIM_010.jpg
2481.277	0.479	correct	incongruent	Block3	incongruent/STIM_010.jpg
2484.212	0.567	correct	incongruent	Block3	incongruent/STIM_010.jpg
2486.992	0.486	correct	incongruent	Block3	incongruent/STIM_010.jpg
2490.147	0.838	correct	incongruent	Block3	incongruent/STIM_010.jpg
2494.403	0.539	correct	incongruent	Block3	incongruent/STIM_011.jpg
2498.743	0.603	correct	incongruent	Block3	incongruent/STIM_011.jpg
2502.116	0.96	correct	incongruent	Block3	incongruent/STIM_011.jpg
2505.375	0.702	correct	incongruent	Block3	incongruent/STIM_011.jpg
2508.397	0.649	correct	incongruent	Block3	incongruent/STIM_011.jpg
2513.05	0.959	correct	incongruent	Block3	incongruent/STIM_012.jpg
2516.983	0.812	correct	incongruent	Block3	incongruent/STIM_012.jpg
2521.141	0.744	correct	incongruent	Block3	incongruent/STIM_012.jpg
2525.286	0.566	correct	incongruent	Block3	incongruent/STIM_012.jpg
2528.251	0.8	correct	incongruent	Block3	incongruent/STIM_012.jpg
2533.01	0.785	correct	incongruent	Block3	incongruent/STIM_013.jpg
2536.176	0.863	correct	incongruent	Block3	incongruent/STIM_013.jpg
2539.336	0.967	correct	incongruent	Block3	incongruent/STIM_013.jpg
2543.123	0.525	correct	incongruent	Block3	incongruent/STIM_013.jpg
2546.208	0.673	correct	incongruent	Block3	incongruent/STIM_013.jpg
2550.376	0.798	correct	incongruent	Block3	incongruent/STIM_014.jpg
2553.379	0.483	correct	incongruent	Block3	incongruent/STIM_014.jpg
2556.01	0.757	correct	incongruent	Block3	incongruent/STIM_014.jpg
2560.164	0.787	correct	incongruent	Block3	incongruent/STIM_014.jpg
2564.04	0.754	correct	incongruent	Block3	incongruent/STIM_014.jpg
2568.59	0.94	correct	incongruent	Block3	incongruent/STIM_015.jpg
2572.479	0.603	correct	incongruent	Block3	incongruent/STIM_015.jpg
2576.335	0.664	correct	incongruent	Block3	incongruent/STIM_015.jpg
2579.796	0.585	correct	incongruent	Block3	incongruent/STIM_015.jpg
2582.96	0.614	correct	incongruent	Block3	incongruent/STIM_015.jpg
2586.986	0.58	correct	incongruent	Block3	incongruent/STIM_016.jpg
2590.014	0.74	correct	incongruent	Block3	incongruent/STIM_016.jpg
2593.803	0.587	correct	incongruent	Block3	incongruent/STIM_016.jpg
2597.73	0.892	correct	incongruent	Block3	incongruent/STIM_016.jpg
2602.568	0.844	correct	incongruent	Block3	incongruent/STIM_016.jpg
2606.3	0.496	correct	incongruent	Block3	incongruent/STIM_017.jpg
2609.749	0.611	correct	incongruent	Block3	incongruent/STIM_017.jpg
2614.312	0.629	correct	incongruent	Block3	incongruent/STIM_017.jpg
2617.71	0.858	correct	incongruent	Block3	incongruent/STIM_017.jpg
2621.204	0.473	correct	incongruent	Block3	incongruent/STIM_017.jpg
2624.656	0.544	incorrect	incongruent	Block3	incongruent/STIM_018.jpg
2628.598	0.539	correct	incongruent	Block3	incongruent/STIM_018.jpg
2631.609	0.566	correct	incongruent	Block3	incongruent/STIM_018.jpg
2635.1	0.971	correct	incongruent	Block3	incongruent/STIM_018.jpg
2639.664	0.527	correct	incongruent	Block3	incongruent/STIM_018.jpg
2642.382	0.934	correct	incongruent	Block3	incongruent/STIM_019.jpg
2647.383	0.735	correct	incongruent	Block3	incongruent/STIM_019.jpg
2651.219	0.757	correct	incongruent	Block3	incongruent/STIM_019.jpg
2654.105	0.906	correct	incongruent	Block3	incongruent/STIM_019.jpg
2658.235	0.95	correct	incongruent	Block3	incongruent/STIM_019.jpg
2663.136	0.794	correct	incongruent	Block3	incongruent/STIM_020.jpg
2667.479	0.463	correct	incongruent	Block3	incongruent/STIM_020.jpg
2671.974	0.956	correct	incongruent	Block3	incongruent/STIM_020.jpg
2676.425	0.795	correct	incongruent	Block3	incongruent/STIM_020.jpg
2679.409	0.748	correct	incongruent	Block3	incongruent/STIM_020.jpg
2683.234	0.624	correct	incongruent	Block3	incongruent/STIM_021.jpg
2686.436	0.583	correct	incongruent	Block3	incongruent/STIM_021.jpg
2690.27	0.773	correct	incongruent	Block3	incongruent/STIM_021.jpg
2693.395	0.542	correct	incongruent	Block3	incongruent/STIM_021.jpg
2696.023	0.506	correct	incongruent	Block3	incongruent/STIM_021.jpg
2699.096	0.596	correct	incongruent	Block3	incongruent/STIM_022.jpg
2703.063	0.477	correct	incongruent	Block3	incongruent/STIM_022.jpg
2706.962	0.63	correct	incongruent	Block3	incongruent/STIM_022.jpg
2711.37	0.671	correct	incongruent	Block3	incongruent/STIM_022.jpg
2714.929	0.676	correct	incongruent	Block3	incongruent/STIM_022.jpg
2719.338	0.607	correct	incongruent	Block3	incongruent/STIM_023.jpg
2722.256	0.867	correct	incongruent	Block3	incongruent/STIM_023.jpg
2725.803	0.938	correct	incongruent	Block3	incongruent/STIM_023.jpg
2729.04	0.715	correct	incongruent	Block3	incongruent/STIM_023.jpg
2733.538	0.572	correct	incongruent	Block3	incongruent/STIM_023.jpg
2737.477	0.593	correct	incongruent	Block3	incongruent/STIM_024.jpg
2741.384	0.471	correct	incongruent	Block3	incongruent/STIM_024.jpg
2745.33	0.77	correct	incongruent	Block3	incongruent/STIM_024.jpg
2748.866	0.87	correct	incongruent	Block3	incongruent/STIM_024.jpg
2752.133	0.788	correct	incongruent	Block3	incongruent/STIM_024.jpg
2755.541	0.487	correct	incongruent	Block3	incongruent/STIM_025.jpg
2758.579	0.714	correct	incongruent	Block3	incongruent/STIM_025.jpg
2761.485	0.548	correct	incongruent	Block3	incongruent/STIM_025.jpg
2765.421	0.485	correct	incongruent	Block3	incongruent/STIM_025.jpg
2768.389	0.683	correct	incongruent	Block3	incongruent/STIM_025.jpg
2772.674	0.962	incorrect	incongruent	Block3	incongruent/STIM_026.jpg
2777.278	0.91	correct	incongruent	Block3	incongruent/STIM_026.jpg
2781.278	0.75	correct	incongruent	Block3	incongruent/STIM_026.jpg
2785.044	0.898	correct	incongruent	Block3	incongruent/STIM_026.jpg
2788.437	0.713	correct	incongruent	Block3	incongruent/STIM_026.jpg
2791.498	0.731	correct	incongruent	Block3	incongruent/STIM_027.jpg
2794.957	0.669	correct	incongruent	Block3	incongruent/STIM_027.jpg
2798.763	0.661	correct	incongruent	Block3	incongruent/STIM_027.jpg
2801.963	0.502	correct	incongruent	Block3	incongruent/STIM_027.jpg
2805.952	0.652	correct	incongruent	Block3	incongruent/STIM_027.jpg
2809.213	0.625	correct	incongruent	Block3	incongruent/STIM_028.jpg
2813.602	0.868	correct	incongruent	Block3	incongruent/STIM_028.jpg
2818.241	0.632	correct	incongruent	Block3	incongruent/STIM_028.jpg
2821.71	0.514	correct	incongruent	Block3	incongruent/STIM_028.jpg
2825.611	0.456	correct	incongruent	Block3	incongruent/STIM_028.jpg
2828.872	0.461	correct	incongruent	Block3	incongruent/STIM_029.jpg
2833.336	0.736	correct	incongruent	Block3	incongruent/STIM_029.jpg
2836.259	0.751	incorrect	incongruent	Block3	incongruent/STIM_029.jpg
2839.359	0.848	correct	incongruent	Block3	incongruent/STIM_029.jpg
2842.433	0.786	correct	incongruent	Block3	incongruent/STIM_029.jpg
2847.07	0.752	correct	congruent	Block3	congruent/STIM_000.jpg
2851.36	0.518	correct	congruent	Block3	congruent/STIM_000.jpg
2855.024	0.691	correct	congruent	Block3	congruent/STIM_000.jpg
2858.381	0.543	correct	congruent	Block3	congruent/STIM_000.jpg
2861.056	0.803	correct	congruent	Block3	congruent/STIM_000.jpg
2864.068	0.665	correct	congruent	Block3	congruent/STIM_001.jpg
2868.768	0.626	correct	congruent	Block3	congruent/STIM_001.jpg
2873.399	0.815	correct	congruent	Block3	congruent/STIM_001.jpg
2878.091	0.809	correct	congruent	Block3	congruent/STIM_001.jpg
2881.524	0.735	correct	congruent	Block3	congruent/STIM_001.jpg
2885.187	0.76	correct	congruent	Block3	congruent/STIM_002.jpg
2888.879	0.545	correct	congruent	Block3	congruent/STIM_002.jpg
2891.774	0.814	correct	congruent	Block3	congruent/STIM_002.jpg
2895.17	0.49	correct	congruent	Block3	congruent/STIM_002.jpg
2899.228	0.739	correct	congruent	Block3	congruent/STIM_002.jpg
2902.527	0.661	correct	congruent	Block3	congruent/STIM_003.jpg
2906.099	0.475	correct	congruent	Block3	congruent/STIM_003.jpg
2909.871	0.636	correct	congruent	Block3	congruent/STIM_003.jpg
2913.898	0.718	correct	congruent	Block3	congruent/STIM_003.jpg
2916.938	0.803	correct	congruent	Block3	congruent/STIM_003.jpg
2919.852	0.637	correct	congruent	Block3	congruent/STIM_004.jpg
2923.871	0.613	correct	congruent	Block3	congruent/STIM_004.jpg
2928.147	0.547	correct	congruent	Block3	congruent/STIM_004.jpg
2932.631	0.729	correct	congruent	Block3	congruent/STIM_004.jpg
2937.266	0.481	correct	congruent	Block3	congruent/STIM_004.jpg
2940.988	0.463	correct	congruent	Block3	congruent/STIM_005.jpg
2943.969	0.561	correct	congruent	Block3	congruent/STIM_005.jpg
2947.765	0.564	correct	congruent	Block3	congruent/STIM_005.jpg
2951.756	0.766	correct	congruent	Block3	congruent/STIM_005.jpg
2955.084	0.772	incorrect	congruent	Block3	congruent/STIM_005.jpg
2959.26	0.512	correct	congruent	Block3	congruent/STIM_006.jpg
2962.499	0.742	correct	congruent	Block3	congruent/STIM_006.jpg
2966.222	0.686	correct	congruent	Block3	congruent/STIM_006.jpg
2969.656	0.752	correct	congruent	Block3	congruent/STIM_006.jpg
2974.408	0.716	correct	congruent	Block3	congruent/STIM_006.jpg
2977.261	0.487	correct	congruent	Block3	congruent/STIM_007.jpg
2981.164	0.468	correct	congruent	Block3	congruent/STIM_007.jpg
2984.372	0.677	correct	congruent	Block3	congruent/STIM_007.jpg
2988.354	0.737	correct	congruent	Block3	congruent/STIM_007.jpg
2992.522	0.803	correct	congruent	Block3	congruent/STIM_007.jpg
2996.961	0.63	correct	congruent	Block3	congruent/STIM_008.jpg
3000.289	0.587	correct	congruent	Block3	congruent/STIM_008.jpg
3003.878	0.588	incorrect	congruent	Block3	congruent/STIM_008.jpg
3008.268	0.751	correct	congruent	Block3	congruent/STIM_008.jpg
3012.405	0.527	correct	congruent	Block3	congruent/STIM_008.jpg
3016.759	0.472	correct	congruent	Block3	congruent/STIM_009.jpg
3020.6	0.526	correct	congruent	Block3	congruent/STIM_009.jpg
3024.245	0.573	correct	congruent	Block3	congruent/STIM_009.jpg
3027.715	0.685	correct	congruent	Block3	congruent/STIM_009.jpg
3032.345	0.681	correct	congruent	Block3	congruent/STIM_009.jpg
3036.187	0.58	correct	congruent	Block3	congruent/STIM_010.jpg
3040.203	0.664	correct	congruent	Block3	congruent/STIM_010.jpg
3043.544	0.676	correct	congruent	Block3	congruent/STIM_010.jpg
3047.955	0.698	correct	congruent	Block3	congruent/STIM_010.jpg
3052.282	0.826	correct	congruent	Block3	congruent/STIM_010.jpg
3056.387	0.543	correct	congruent	Block3	congruent/STIM_011.jpg
3059.809	0.714	correct	congruent	Block3	congruent/STIM_011.jpg
3064.55	0.764	correct	congruent	Block3	congruent/STIM_011.jpg
3069.313	0.583	correct	congruent	Block3	congruent/STIM_011.jpg
3072.26	0.795	correct	congruent	Block3	congruent/STIM_011.jpg
3076.793	0.726	correct	congruent	Block3	congruent/STIM_012.jpg
3081.01	0.739	correct	congruent	Block3	congruent/STIM_012.jpg
3085.379	0.805	correct	congruent	Block3	congruent/STIM_012.jpg
3089.657	0.74	correct	congruent	Block3	congruent/STIM_012.jpg
3093.247	0.604	correct	congruent	Block3	congruent/STIM_012.jpg
3097.836	0.676	correct	congruent	Block3	congruent/STIM_013.jpg
3102.202	0.747	correct	congruent	Block3	congruent/STIM_013.jpg
3105.349	0.533	correct	congruent	Block3	congruent/STIM_013.jpg
3108.233	0.625	correct	congruent	Block3	congruent/STIM_013.jpg
3112.123	0.754	correct	congruent	Block3	congruent/STIM_013.jpg
3116.347	0.795	correct	congruent	Block3	congruent/STIM_014.jpg
3121.129	0.803	correct	congruent	Block3	congruent/STIM_014.jpg
3125.233	0.723	correct	congruent	Block3	congruent/STIM_014.jpg
3129.012	0.582	correct	congruent	Block3	congruent/STIM_014.jpg
3132.096	0.676	correct	congruent	Block3	congruent/STIM_014.jpg
3136.264	0.463	correct	congruent	Block3	congruent/STIM_015.jpg
3140.759	0.544	incorrect	congruent	Block3	congruent/STIM_015.jpg
3144.911	0.561	correct	congruent	Block3	congruent/STIM_015.jpg
3148.164	0.64	correct	congruent	Block3	congruent/STIM_015.jpg
3150.951	0.586	correct	congruent	Block3	congruent/STIM_015.jpg
3155.195	0.817	correct	congruent	Block3	congruent/STIM_016.jpg
3159.913	0.745	correct	congruent	Block3	congruent/STIM_016.jpg
3163.86	0.649	correct	congruent	Block3	congruent/STIM_016.jpg
3166.709	0.471	correct	congruent	Block3	congruent/STIM_016.jpg
3171.056	0.571	incorrect	congruent	Block3	congruent/STIM_016.jpg
3173.909	0.57	correct	congruent	Block3	congruent/STIM_017.jpg
3177.444	0.798	correct	congruent	Block3	congruent/STIM_017.jpg
3181.028	0.752	correct	congruent	Block3	congruent/STIM_017.jpg
3184.523	0.521	correct	congruent	Block3	congruent/STIM_017.jpg
3188.962	0.825	correct	congruent	Block3	congruent/STIM_017.jpg
3192.067	0.679	correct	congruent	Block3	congruent/STIM_018.jpg
3195.351	0.676	correct	congruent	Block3	congruent/STIM_018.jpg
3198.682	0.578	correct	congruent	Block3	congruent/STIM_018.jpg
3201.758	0.799	incorrect	congruent	Block3	congruent/STIM_018.jpg
3204.807	0.788	correct	congruent	Block3	congruent/STIM_018.jpg
3208.11	0.499	incorrect	congruent	Block3	congruent/STIM_019.jpg
3211.666	0.806	correct	congruent	Block3	congruent/STIM_019.jpg
3216.336	0.746	correct	congruent	Block3	congruent/STIM_019.jpg
3219.145	0.721	correct	congruent	Block3	congruent/STIM_019.jpg
3222.714	0.804	correct	congruent	Block3	congruent/STIM_019.jpg
3226.638	0.711	correct	congruent	Block3	congruent/STIM_020.jpg
3230.215	0.774	correct	congruent	Block3	congruent/STIM_020.jpg
3233.132	0.526	correct	congruent	Block3	congruent/STIM_020.jpg
3237.526	0.688	correct	congruent	Block3	congruent/STIM_020.jpg
3240.661	0.496	correct	congruent	Block3	congruent/STIM_020.jpg
3243.952	0.648	correct	congruent	Block3	congruent/STIM_021.jpg
3246.945	0.759	correct	congruent	Block3	congruent/STIM_021.jpg
3250.949	0.519	correct	congruent	Block3	congruent/STIM_021.jpg
3253.908	0.532	correct	congruent	Block3	congruent/STIM_021.jpg
3257.246	0.79	correct	congruent	Block3	congruent/STIM_021.jpg
3260.383	0.475	correct	congruent	Block3	congruent/STIM_022.jpg
3264.475	0.774	correct	congruent	Block3	congruent/STIM_022.jpg
3268.254	0.799	correct	congruent	Block3	congruent/STIM_022.jpg
3272.491	0.558	correct	congruent	Block3	congruent/STIM_022.jpg
3277.094	0.82	correct	congruent	Block3	congruent/STIM_022.jpg
3281.886	0.63	correct	congruent	Block3	congruent/STIM_023.jpg
3285.004	0.606	correct	congruent	Block3	congruent/STIM_023.jpg
3289.007	0.762	correct	congruent	Block3	congruent/STIM_023.jpg
3292.714	0.813	correct	congruent	Block3	congruent/STIM_023.jpg
3297.262	0.633	correct	congruent	Block3	congruent/STIM_023.jpg
3300.398	0.829	correct	congruent	Block3	congruent/STIM_024.jpg
3305.192	0.488	correct	congruent	Block3	congruent/STIM_024.jpg
3309.438	0.677	correct	congruent	Block3	congruent/STIM_024.jpg
3313.616	0.526	correct	congruent	Block3	congruent/STIM_024.jpg
3316.775	0.766	correct	congruent	Block3	congruent/STIM_024.jpg
3320.336	0.695	correct	congruent	Block3	congruent/STIM_025.jpg
3323.502	0.73	correct	congruent	Block3	congruent/STIM_025.jpg
3326.616	0.604	correct	congruent	Block3	congruent/STIM_025.jpg
3330.34	0.632	correct	congruent	Block3	congruent/STIM_025.jpg
3333.043	0.554	correct	congruent	Block3	congruent/STIM_025.jpg
3335.837	0.783	correct	congruent	Block3	congruent/STIM_026.jpg
3339.705	0.565	correct	congruent	Block3	congruent/STIM_026.jpg
3343.09	0.753	correct	congruent	Block3	congruent/STIM_026.jpg
3346.519	0.496	correct	congruent	Block3	congruent/STIM_026.jpg
3350.339	0.804	correct	congruent	Block3	congruent/STIM_026.jpg
3355.157	0.806	incorrect	congruent	Block3	congruent/STIM_027.jpg
3358.041	0.682	correct	congruent	Block3	congruent/STIM_027.jpg
3361.558	0.607	correct	congruent	Block3	congruent/STIM_027.jpg
3365.517	0.743	correct	congruent	Block3	congruent/STIM_027.jpg
3370.283	0.482	correct	congruent	Block3	congruent/STIM_027.jpg
3374.289	0.578	correct	congruent	Block3	congruent/STIM_028.jpg
3378.27	0.487	correct	congruent	Block3	congruent/STIM_028.jpg
3381.005	0.592	correct	congruent	Block3	congruent/STIM_028.jpg
3383.749	0.593	correct	congruent	Block3	congruent/STIM_028.jpg
3386.921	0.613	correct	congruent	Block3	congruent/STIM_028.jpg
3390.616	0.636	correct	congruent	Block3	congruent/STIM_029.jpg
3394.509	0.479	correct	congruent	Block3	congruent/STIM_029.jpg
3397.568	0.636	incorrect	congruent	Block3	congruent/STIM_029.jpg
3401.552	0.482	correct	congruent	Block3	congruent/STIM_029.jpg
3405.768	0.615	correct	congruent	Block3	congruent/STIM_029.jpg
