onset	duration	accuracy	trial_type	learning_stage	stimulus
0.0	3.004	correct	regulate	Run1	regulate/STIM_000.jpg
6.373	2.492	correct	regulate	Run1	regulate/STIM_000.jpg
12.137	1.658	correct	regulate	Run1	regulate/STIM_000.jpg
16.793	2.265	correct	regulate	Run1	regulate/STIM_000.jpg
22.104	3.826	correct	regulate	Run1	regulate/STIM_001.jpg
28.802	2.028	correct	regulate	Run1	regulate/STIM_001.jpg
32.791	3.525	correct	regulate	Run1	regulate/STIM_001.jpg
39.236	2.297	correct	regulate	Run1	regulate/STIM_001.jpg
44.3	3.202	correct	regulate	Run1	regulate/STIM_002.jpg
50.702	3.019	correct	regulate	Run1	regulate/STIM_002.jpg
56.147	2.12	correct	regulate	Run1	regulate/STIM_002.jpg
61.961	2.014	correct	regulate	Run1	regulate/STIM_002.jpg
67.061	2.88	incorrect	regulate	Run1	regulate/STIM_003.jpg
72.991	2.05	correct	regulate	Run1	regulate/STIM_003.jpg
76.934	3.284	correct	regulate	Run1	regulate/STIM_003.jpg
82.226	2.013	incorrect	regulate	Run1	regulate/STIM_003.jpg
86.635	1.87	correct	regulate	Run1	regulate/STIM_004.jpg
92.103	3.033	correct	regulate	Run1	regulate/STIM_004.jpg
96.973	3.076	correct	regulate	Run1	regulate/STIM_004.jpg
101.646	1.97	correct	regulate	Run1	regulate/STIM_004.jpg
106.577	2.338	correct	regulate	Run1	regulate/STIM_005.jpg
110.98	2.832	correct	regulate	Run1	regulate/STIM_005.jpg
115.589	1.576	correct	regulate	Run1	regulate/STIM_005.jpg
119.517	3.26	correct	regulate	Run1	regulate/STIM_005.jpg
125.982	3.712	correct	regulate	Run1	regulate/STIM_006.jpg
133.055	2.178	incorrect	regulate	Run1	regulate/STIM_006.jpg
138.542	2.939	correct	regulate	Run1	regulate/STIM_006.jpg
144.806	1.982	correct	regulate	Run1	regulate/STIM_006.jpg
150.62	3.604	incorrect	regulate	Run1	regulate/STIM_007.jpg
157.734	3.205	correct	regulate	Run1	regulate/STIM_007.jpg
162.477	3.385	correct	regulate	Run1	regulate/STIM_007.jpg
169.232	2.697	correct	regulate	Run1	regulate/STIM_007.jpg
174.028	1.739	incorrect	regulate	Run1	regulate/STIM_008.jpg
178.075	3.748	correct	regulate	Run1	regulate/STIM_008.jpg
183.458	3.449	correct	regulate	Run1	regulate/STIM_008.jpg
188.818	2.055	incorrect	regulate	Run1	regulate/STIM_008.jpg
194.551	2.115	correct	regulate	Run1	regulate/STIM_009.jpg
198.682	3.64	correct	regulate	Run1	regulate/STIM_009.jpg
204.409	3.421	correct	regulate	Run1	regulate/STIM_009.jpg
211.289	2.472	correct	regulate	Run1	regulate/STIM_009.jpg
216.04	3.997	correct	regulate	Run1	regulate/STIM_010.jpg
222.122	2.752	incorrect	regulate	Run1	regulate/STIM_010.jpg
227.73	2.884	correct	regulate	Run1	regulate/STIM_010.jpg
233.083	2.555	correct	regulate	Run1	regulate/STIM_010.jpg
237.974	2.392	correct	regulate	Run1	regulate/STIM_011.jpg
242.972	2.748	correct	regulate	Run1	regulate/STIM_011.jpg
248.516	2.352	correct	regulate	Run1	regulate/STIM_011.jpg
253.879	2.612	incorrect	regulate	Run1	regulate/STIM_011.jpg
260.116	3.793	correct	regulate	Run1	regulate/STIM_012.jpg
266.209	1.574	correct	regulate	Run1	regulate/STIM_012.jpg
270.26	2.95	correct	regulate	Run1	regulate/STIM_012.jpg
276.186	1.908	correct	regulate	Run1	regulate/STIM_012.jpg
280.945	3.049	correct	regulate	Run1	regulate/STIM_013.jpg
285.744	2.07	correct	regulate	Run1	regulate/STIM_013.jpg
289.888	2.034	correct	regulate	Run1	regulate/STIM_013.jpg
293.776	2.351	correct	regulate	Run1	regulate/STIM_013.jpg
298.84	3.714	incorrect	regulate	Run1	regulate/STIM_014.jpg
305.564	1.972	incorrect	regulate	Run1	regulate/STIM_014.jpg
311.155	1.824	correct	regulate	Run1	regulate/STIM_014.jpg
316.543	3.04	correct	regulate	Run1	regulate/STIM_014.jpg
321.778	2.442	correct	regulate	Run1	regulate/STIM_015.jpg
326.62	3.78	correct	regulate	Run1	regulate/STIM_015.jpg
332.303	2.45	incorrect	regulate	Run1	regulate/STIM_015.jpg
336.568	2.49	correct	regulate	Run1	regulate/STIM_015.jpg
341.06	3.591	incorrect	regulate	Run1	regulate/STIM_016.jpg
347.168	3.468	incorrect	regulate	Run1	regulate/STIM_016.jpg
353.049	1.782	incorrect	regulate	Run1	regulate/STIM_016.jpg
356.639	1.984	incorrect	regulate	Run1	regulate/STIM_016.jpg
362.127	2.411	incorrect	regulate	Run1	regulate/STIM_017.jpg
367.54	2.938	incorrect	regulate	Run1	regulate/STIM_017.jpg
373.919	3.146	correct	regulate	Run1	regulate/STIM_017.jpg
379.737	3.012	correct	regulate	Run1	regulate/STIM_017.jpg
386.232	3.098	incorrect	regulate	Run1	regulate/STIM_018.jpg
391.691	2.907	correct	regulate	Run1	regulate/STIM_018.jpg
397.791	2.524	correct	regulate	Run1	regulate/STIM_018.jpg
402.604	2.299	correct	regulate	Run1	regulate/STIM_018.jpg
407.693	3.103	correct	regulate	Run1	regulate/STIM_019.jpg
413.595	2.399	correct	regulate	Run1	regulate/STIM_019.jpg
418.358	2.814	correct	regulate	Run1	regulate/STIM_019.jpg
423.039	2.492	correct	regulate	Run1	regulate/STIM_019.jpg
427.55	1.707	incorrect	regulate	Run1	regulate/STIM_020.jpg
432.011	2.321	correct	regulate	Run1	regulate/STIM_020.jpg
436.856	2.437	incorrect	regulate	Run1	regulate/STIM_020.jpg
442.179	1.694	incorrect	regulate	Run1	regulate/STIM_020.jpg
447.066	2.068	correct	regulate	Run1	regulate/STIM_021.jpg
451.933	3.046	incorrect	regulate	Run1	regulate/STIM_021.jpg
457.969	2.212	correct	regulate	Run1	regulate/STIM_021.jpg
463.557	2.796	incorrect	regulate	Run1	regulate/STIM_021.jpg
469.613	2.297	correct	regulate	Run1	regulate/STIM_022.jpg
474.444	2.707	correct	regulate	Run1	regulate/STIM_022.jpg
480.379	1.64	correct	regulate	Run1	regulate/STIM_022.jpg
484.943	3.379	correct	regulate	Run1	regulate/STIM_022.jpg
491.893	2.279	correct	regulate	Run1	regulate/STIM_023.jpg
496.656	2.338	incorrect	regulate	Run1	regulate/STIM_023.jpg
501.059	2.302	correct	regulate	Run1	regulate/STIM_023.jpg
506.169	3.039	correct	regulate	Run1	regulate/STIM_023.jpg
511.656	2.684	correct	regulate	Run1	regulate/STIM_024.jpg
517.832	2.433	correct	regulate	Run1	regulate/STIM_024.jpg
523.007	1.674	correct	regulate	Run1	regulate/STIM_024.jpg
528.073	2.477	correct	regulate	Run1	regulate/STIM_024.jpg
533.439	2.821	correct	regulate	Run1	regulate/STIM_025.jpg
538.128	3.62	correct	regulate	Run1	regulate/STIM_025.jpg
545.239	3.323	correct	regulate	Run1	regulate/STIM_025.jpg
550.818	3.264	correct	regulate	Run1	regulate/STIM_025.jpg
556.037	3.221	correct	regulate	Run1	regulate/STIM_026.jpg
562.634	1.792	correct	regulate	Run1	regulate/STIM_026.jpg
568.007	2.15	correct	regulate	Run1	regulate/STIM_026.jpg
572.426	2.636	incorrect	regulate	Run1	regulate/STIM_026.jpg
578.205	1.869	incorrect	regulate	Run1	regulate/STIM_027.jpg
583.176	3.302	correct	regulate	Run1	regulate/STIM_027.jpg
588.988	1.912	correct	regulate	Run1	regulate/STIM_027.jpg
593.322	1.545	correct	regulate	Run1	regulate/STIM_027.jpg
598.607	3.394	correct	regulate	Run1	regulate/STIM_028.jpg
605.494	1.865	correct	regulate	Run1	regulate/STIM_028.jpg
609.592	2.231	correct	regulate	Run1	regulate/STIM_028.jpg
615.499	1.655	incorrect	regulate	Run1	regulate/STIM_028.jpg
620.008	4.013	correct	regulate	Run1	regulate/STIM_029.jpg
625.993	1.828	correct	regulate	Run1	regulate/STIM_029.jpg
630.862	2.347	correct	regulate	Run1	regulate/STIM_029.jpg
635.109	3.344	correct	regulate	Run1	regulate/STIM_029.jpg
640.267	1.446	correct	observe	Run1	observe/STIM_000.jpg
644.329	1.038	correct	observe	Run1	observe/STIM_000.jpg
647.367	0.948	correct	observe	Run1	observe/STIM_000.jpg
651.167	1.498	correct	observe	Run1	observe/STIM_000.jpg
655.721	1.347	correct	observe	Run1	observe/STIM_001.jpg
660.116	1.536	correct	observe	Run1	observe/STIM_001.jpg
664.713	1.646	correct	observe	Run1	observe/STIM_001.jpg
668.686	1.636	correct	observe	Run1	observe/STIM_001.jpg
674.021	1.819	correct	observe	Run1	observe/STIM_002.jpg
678.039	1.391	correct	observe	Run1	observe/STIM_002.jpg
682.589	1.147	correct	observe	Run1	observe/STIM_002.jpg
687.139	1.318	correct	observe	Run1	observe/STIM_002.jpg
691.045	1.304	correct	observe	Run1	observe/STIM_003.jpg
694.594	1.031	correct	observe	Run1	observe/STIM_003.jpg
698.307	1.344	correct	observe	Run1	observe/STIM_003.jpg
703.282	0.95	correct	observe	Run1	observe/STIM_003.jpg
706.816	1.103	correct	observe	Run1	observe/STIM_004.jpg
711.088	0.972	correct	observe	Run1	observe/STIM_004.jpg
715.01	0.996	correct	observe	Run1	observe/STIM_004.jpg
719.706	1.07	correct	observe	Run1	observe/STIM_004.jpg
724.474	1.334	correct	observe	Run1	observe/STIM_005.jpg
728.673	1.631	correct	observe	Run1	observe/STIM_005.jpg
732.209	1.297	correct	observe	Run1	observe/STIM_005.jpg
735.891	1.092	correct	observe	Run1	observe/STIM_005.jpg
740.627	1.465	correct	observe	Run1	observe/STIM_006.jpg
745.157	1.247	correct	observe	Run1	observe/STIM_006.jpg
748.961	1.068	correct	observe	Run1	observe/STIM_006.jpg
753.837	1.351	correct	observe	Run1	observe/STIM_006.jpg
758.725	1.606	correct	observe	Run1	observe/STIM_007.jpg
763.165	1.655	incorrect	observe	Run1	observe/STIM_007.jpg
768.295	1.618	correct	observe	Run1	observe/STIM_007.jpg
773.524	1.085	incorrect	observe	Run1	observe/STIM_007.jpg
778.373	1.734	correct	observe	Run1	observe/STIM_008.jpg
783.786	0.884	correct	observe	Run1	observe/STIM_008.jpg
788.549	1.863	correct	observe	Run1	observe/STIM_008.jpg
792.746	1.062	correct	observe	Run1	observe/STIM_008.jpg
797.625	1.16	correct	observe	Run1	observe/STIM_009.jpg
801.717	0.957	correct	observe	Run1	observe/STIM_009.jpg
805.96	1.542	correct	observe	Run1	observe/STIM_009.jpg
811.339	1.775	incorrect	observe	Run1	observe/STIM_009.jpg
816.015	1.231	incorrect	observe	Run1	observe/STIM_010.jpg
820.754	0.963	correct	observe	Run1	observe/STIM_010.jpg
823.611	1.22	correct	observe	Run1	observe/STIM_010.jpg
827.713	1.783	correct	observe	Run1	observe/STIM_010.jpg
831.785	1.17	correct	observe	Run1	observe/STIM_011.jpg
836.121	1.139	correct	observe	Run1	observe/STIM_011.jpg
839.288	1.162	correct	observe	Run1	observe/STIM_011.jpg
843.215	1.194	correct	observe	Run1	observe/STIM_011.jpg
848.068	1.58	correct	observe	Run1	observe/STIM_012.jpg
853.041	1.028	correct	observe	Run1	observe/STIM_012.jpg
857.777	1.415	correct	observe	Run1	observe/STIM_012.jpg
862.655	1.722	incorrect	observe	Run1	observe/STIM_012.jpg
866.659	1.038	correct	observe	Run1	observe/STIM_013.jpg
870.815	1.378	incorrect	observe	Run1	observe/STIM_013.jpg
875.936	1.744	correct	observe	Run1	observe/STIM_013.jpg
879.656	1.726	correct	observe	Run1	observe/STIM_013.jpg
884.956	1.18	correct	observe	Run1	observe/STIM_014.jpg
888.413	0.99	correct	observe	Run1	observe/STIM_014.jpg
892.397	1.187	correct	observe	Run1	observe/STIM_014.jpg
895.781	1.231	correct	observe	Run1	observe/STIM_014.jpg
899.955	1.568	correct	observe	Run1	observe/STIM_015.jpg
904.621	1.702	correct	observe	Run1	observe/STIM_015.jpg
908.933	1.296	incorrect	observe	Run1	observe/STIM_015.jpg
913.935	1.344	correct	observe	Run1	observe/STIM_015.jpg
917.703	1.714	correct	observe	Run1	observe/STIM_016.jpg
922.956	1.836	incorrect	observe	Run1	observe/STIM_016.jpg
927.263	1.065	correct	observe	Run1	observe/STIM_016.jpg
931.44	1.541	correct	observe	Run1	observe/STIM_016.jpg
936.684	1.568	correct	observe	Run1	observe/STIM_017.jpg
941.693	0.968	correct	observe	Run1	observe/STIM_017.jpg
945.788	1.104	correct	observe	Run1	observe/STIM_017.jpg
950.264	1.581	incorrect	observe	Run1	observe/STIM_017.jpg
954.969	1.078	incorrect	observe	Run1	observe/STIM_018.jpg
958.72	1.106	correct	observe	Run1	observe/STIM_018.jpg
962.85	1.506	correct	observe	Run1	observe/STIM_018.jpg
967.22	1.338	correct	observe	Run1	observe/STIM_018.jpg
971.843	1.269	correct	observe	Run1	observe/STIM_019.jpg
975.681	1.1	correct	observe	Run1	observe/STIM_019.jpg
978.723	1.5	correct	observe	Run1	observe/STIM_019.jpg
982.858	1.182	correct	observe	Run1	observe/STIM_019.jpg
987.851	1.623	correct	regulate	Run2	regulate/STIM_000.jpg
991.562	2.242	correct	regulate	Run2	regulate/STIM_000.jpg
996.73	1.675	correct	regulate	Run2	regulate/STIM_000.jpg
1001.546	1.469	correct	regulate	Run2	regulate/STIM_000.jpg
1006.399	2.853	correct	regulate	Run2	regulate/STIM_001.jpg
1011.341	2.368	correct	regulate	Run2	regulate/STIM_001.jpg
1017.365	2.689	correct	regulate	Run2	regulate/STIM_001.jpg
1023.111	2.183	correct	regulate	Run2	regulate/STIM_001.jpg
1028.388	2.183	incorrect	regulate	Run2	regulate/STIM_002.jpg
1034.242	2.411	correct	regulate	Run2	regulate/STIM_002.jpg
1039.5	1.51	incorrect	regulate	Run2	regulate/STIM_002.jpg
1043.792	1.256	correct	regulate	Run2	regulate/STIM_002.jpg
1047.788	2.648	correct	regulate	Run2	regulate/STIM_003.jpg
1053.454	1.375	correct	regulate	Run2	regulate/STIM_003.jpg
1058.566	2.468	correct	regulate	Run2	regulate/STIM_003.jpg
1064.306	1.359	correct	regulate	Run2	regulate/STIM_003.jpg
1068.387	1.953	correct	regulate	Run2	regulate/STIM_004.jpg
1072.894	2.09	correct	regulate	Run2	regulate/STIM_004.jpg
1077.662	2.436	correct	regulate	Run2	regulate/STIM_004.jpg
1083.378	1.228	correct	regulate	Run2	regulate/STIM_004.jpg
1088.41	1.565	correct	regulate	Run2	regulate/STIM_005.jpg
1093.095	1.87	correct	regulate	Run2	regulate/STIM_005.jpg
1096.996	1.598	incorrect	regulate	Run2	regulate/STIM_005.jpg
1100.639	1.367	correct	regulate	Run2	regulate/STIM_005.jpg
1104.622	3.394	incorrect	regulate	Run2	regulate/STIM_006.jpg
1110.621	1.752	correct	regulate	Run2	regulate/STIM_006.jpg
1114.685	1.697	correct	regulate	Run2	regulate/STIM_006.jpg
1119.852	1.432	correct	regulate	Run2	regulate/STIM_006.jpg
1125.084	2.197	correct	regulate	Run2	regulate/STIM_007.jpg
1129.54	2.328	incorrect	regulate	Run2	regulate/STIM_007.jpg
1134.117	2.827	correct	regulate	Run2	regulate/STIM_007.jpg
1138.959	2.823	correct	regulate	Run2	regulate/STIM_007.jpg
1144.975	1.776	correct	regulate	Run2	regulate/STIM_008.jpg
1149.934	2.707	incorrect	regulate	Run2	regulate/STIM_008.jpg
1155.175	2.833	correct	regulate	Run2	regulate/STIM_008.jpg
1159.998	2.244	correct	regulate	Run2	regulate/STIM_008.jpg
1164.567	2.785	correct	regulate	Run2	regulate/STIM_009.jpg
1169.444	3.031	correct	regulate	Run2	regulate/STIM_009.jpg
1174.156	2.15	correct	regulate	Run2	regulate/STIM_009.jpg
1178.473	1.676	correct	regulate	Run2	regulate/STIM_009.jpg
1181.971	1.928	correct	regulate	Run2	regulate/STIM_010.jpg
1187.196	1.994	correct	regulate	Run2	regulate/STIM_010.jpg
1191.259	2.806	correct	regulate	Run2	regulate/STIM_010.jpg
1195.901	1.367	correct	regulate	Run2	regulate/STIM_010.jpg
1200.536	1.618	correct	regulate	Run2	regulate/STIM_011.jpg
1204.947	1.946	incorrect	regulate	Run2	regulate/STIM_011.jpg
1210.045	2.293	correct	regulate	Run2	regulate/STIM_011.jpg
1215.027	1.525	correct	regulate	Run2	regulate/STIM_011.jpg
1219.967	2.65	correct	regulate	Run2	regulate/STIM_012.jpg
1226.162	1.384	correct	regulate	Run2	regulate/STIM_012.jpg
1230.652	2.788	incorrect	regulate	Run2	regulate/STIM_012.jpg
1235.871	1.244	correct	regulate	Run2	regulate/STIM_012.jpg
1239.002	2.461	correct	regulate	Run2	regulate/STIM_013.jpg
1243.932	2.687	correct	regulate	Run2	regulate/STIM_013.jpg
1248.999	1.65	correct	regulate	Run2	regulate/STIM_013.jpg
1253.885	1.279	correct	regulate	Run2	regulate/STIM_013.jpg
1257.245	3.12	incorrect	regulate	Run2	regulate/STIM_014.jpg
1262.148	1.463	correct	regulate	Run2	regulate/STIM_014.jpg
1266.143	1.722	incorrect	regulate	Run2	regulate/STIM_014.jpg
1270.699	2.499	correct	regulate	Run2	regulate/STIM_014.jpg
1275.774	1.887	correct	regulate	Run2	regulate/STIM_015.jpg
1281.261	2.595	incorrect	regulate	Run2	regulate/STIM_015.jpg
1286.869	2.762	correct	regulate	Run2	regulate/STIM_015.jpg
1291.759	2.12	correct	regulate	Run2	regulate/STIM_015.jpg
1296.148	2.446	correct	regulate	Run2	regulate/STIM_016.jpg
1301.602	1.564	correct	regulate	Run2	regulate/STIM_016.jpg
1305.403	1.565	correct	regulate	Run2	regulate/STIM_016.jpg
1309.67	2.613	correct	regulate	Run2	regulate/STIM_016.jpg
1315.02	3.287	incorrect	regulate	Run2	regulate/STIM_017.jpg
1320.345	2.026	correct	regulate	Run2	regulate/STIM_017.jpg
1324.144	2.56	correct	regulate	Run2	regulate/STIM_017.jpg
1328.633	1.375	correct	regulate	Run2	regulate/STIM_017.jpg
1333.448	3.084	correct	regulate	Run2	regulate/STIM_018.jpg
1338.573	1.881	correct	regulate	Run2	regulate/STIM_018.jpg
1344.133	2.653	correct	regulate	Run2	regulate/STIM_018.jpg
1349.52	1.837	correct	regulate	Run2	regulate/STIM_018.jpg
1354.59	1.678	correct	regulate	Run2	regulate/STIM_019.jpg
1359.648	2.428	correct	regulate	Run2	regulate/STIM_019.jpg
1365.187	1.931	correct	regulate	Run2	regulate/STIM_019.jpg
1369.752	1.648	correct	regulate	Run2	regulate/STIM_019.jpg
1373.432	2.942	correct	regulate	Run2	regulate/STIM_020.jpg
1379.619	3.059	correct	regulate	Run2	regulate/STIM_020.jpg
1384.637	1.45	correct	regulate	Run2	regulate/STIM_020.jpg
1389.125	2.475	correct	regulate	Run2	regulate/STIM_020.jpg
1394.411	3.076	correct	regulate	Run2	regulate/STIM_021.jpg
1400.736	1.763	correct	regulate	Run2	regulate/STIM_021.jpg
1405.533	1.576	correct	regulate	Run2	regulate/STIM_021.jpg
1409.493	1.41	correct	regulate	Run2	regulate/STIM_021.jpg
1413.623	2.505	correct	regulate	Run2	regulate/STIM_022.jpg
1419.421	1.868	correct	regulate	Run2	regulate/STIM_022.jpg
1423.977	2.423	incorrect	regulate	Run2	regulate/STIM_022.jpg
1428.583	2.554	correct	regulate	Run2	regulate/STIM_022.jpg
1434.068	1.459	correct	regulate	Run2	regulate/STIM_023.jpg
1438.503	2.898	correct	regulate	Run2	regulate/STIM_023.jpg
1443.515	2.084	correct	regulate	Run2	regulate/STIM_023.jpg
1448.309	2.238	correct	regulate	Run2	regulate/STIM_023.jpg
1452.709	2.664	correct	regulate	Run2	regulate/STIM_024.jpg
1458.17	2.673	correct	regulate	Run2	regulate/STIM_024.jpg
1463.682	2.828	correct	regulate	Run2	regulate/STIM_024.jpg
1468.906	1.799	incorrect	regulate	Run2	regulate/STIM_024.jpg
1472.55	1.957	correct	regulate	Run2	regulate/STIM_025.jpg
1476.579	1.539	correct	regulate	Run2	regulate/STIM_025.jpg
1480.956	2.105	correct	regulate	Run2	regulate/STIM_025.jpg
1485.983	2.742	correct	regulate	Run2	regulate/STIM_025.jpg
1490.84	2.537	correct	regulate	Run2	regulate/STIM_026.jpg
1495.764	2.414	correct	regulate	Run2	regulate/STIM_026.jpg
1501.25	2.753	correct	regulate	Run2	regulate/STIM_026.jpg
1507.324	2.516	incorrect	regulate	Run2	regulate/STIM_026.jpg
1511.694	2.506	correct	regulate	Run2	regulate/STIM_027.jpg
1517.219	2.854	incorrect	regulate	Run2	regulate/STIM_027.jpg
1522.485	1.455	correct	regulate	Run2	regulate/STIM_027.jpg
1526.369	2.545	correct	regulate	Run2	regulate/STIM_027.jpg
1531.043	3.321	correct	regulate	Run2	regulate/STIM_028.jpg
1536.845	2.034	correct	regulate	Run2	regulate/STIM_028.jpg
1542.685	2.291	correct	regulate	Run2	regulate/STIM_028.jpg
1548.66	1.874	correct	regulate	Run2	regulate/STIM_028.jpg
1552.663	1.865	correct	regulate	Run2	regulate/STIM_029.jpg
1557.613	2.895	correct	regulate	Run2	regulate/STIM_029.jpg
1563.319	1.628	correct	regulate	Run2	regulate/STIM_029.jpg
1567.549	2.421	incorrect	regulate	Run2	regulate/STIM_029.jpg
1572.507	1.51	correct	observe	Run2	observe/STIM_000.jpg
1576.898	1.418	correct	observe	Run2	observe/STIM_000.jpg
1581.22	1.042	correct	observe	Run2	observe/STIM_000.jpg
1585.309	1.712	correct	observe	Run2	observe/STIM_000.jpg
1589.065	1.11	correct	observe	Run2	observe/STIM_001.jpg
1593.091	1.549	correct	observe	Run2	observe/STIM_001.jpg
1596.638	1.107	correct	observe	Run2	observe/STIM_001.jpg
1600.516	1.609	correct	observe	Run2	observe/STIM_001.jpg
1604.247	1.453	correct	observe	Run2	observe/STIM_002.jpg
1609.529	1.15	correct	observe	Run2	observe/STIM_002.jpg
1612.726	1.172	incorrect	observe	Run2	observe/STIM_002.jpg
1616.62	1.309	correct	observe	Run2	observe/STIM_002.jpg
1621.408	1.16	incorrect	observe	Run2	observe/STIM_003.jpg
1625.689	1.333	correct	observe	Run2	observe/STIM_003.jpg
1630.334	1.369	incorrect	observe	Run2	observe/STIM_003.jpg
1633.794	1.515	correct	observe	Run2	observe/STIM_003.jpg
1638.767	1.272	correct	observe	Run2	observe/STIM_004.jpg
1643.43	1.722	correct	observe	Run2	observe/STIM_004.jpg
1646.948	1.005	correct	observe	Run2	observe/STIM_004.jpg
1650.088	1.626	correct	observe	Run2	observe/STIM_004.jpg
1654.036	1.02	correct	observe	Run2	observe/STIM_005.jpg
1657.452	1.666	correct	observe	Run2	observe/STIM_005.jpg
1660.979	0.935	incorrect	observe	Run2	observe/STIM_005.jpg
1665.504	1.178	incorrect	observe	Run2	observe/STIM_005.jpg
1668.636	0.97	correct	observe	Run2	observe/STIM_006.jpg
1673.166	1.4	correct	observe	Run2	observe/STIM_006.jpg
1677.4	1.459	correct	observe	Run2	observe/STIM_006.jpg
1682.638	1.709	correct	observe	Run2	observe/STIM_006.jpg
1686.226	1.548	correct	observe	Run2	observe/STIM_007.jpg
1690.423	1.006	correct	observe	Run2	observe/STIM_007.jpg
1693.495	1.524	correct	observe	Run2	observe/STIM_007.jpg
1698.004	1.365	correct	observe	Run2	observe/STIM_007.jpg
1702.461	1.148	correct	observe	Run2	observe/STIM_008.jpg
1706.836	1.201	correct	observe	Run2	observe/STIM_008.jpg
1711.541	1.158	correct	observe	Run2	observe/STIM_008.jpg
1715.907	0.931	incorrect	observe	Run2	observe/STIM_008.jpg
1719.346	1.374	incorrect	observe	Run2	observe/STIM_009.jpg
1724.025	1.593	incorrect	observe	Run2	observe/STIM_009.jpg
1728.737	1.236	correct	observe	Run2	observe/STIM_009.jpg
1732.522	1.684	correct	observe	Run2	observe/STIM_009.jpg
1737.834	1.421	correct	observe	Run2	observe/STIM_010.jpg
1741.93	1.28	correct	observe	Run2	observe/STIM_010.jpg
1745.54	0.987	correct	observe	Run2	observe/STIM_010.jpg
1750.297	1.283	correct	observe	Run2	observe/STIM_010.jpg
1754.875	1.019	correct	observe	Run2	observe/STIM_011.jpg
1759.653	1.476	correct	observe	Run2	observe/STIM_011.jpg
1764.313	0.981	correct	observe	Run2	observe/STIM_011.jpg
1768.04	1.864	correct	observe	Run2	observe/STIM_011.jpg
1771.775	1.254	correct	observe	Run2	observe/STIM_012.jpg
1776.272	1.452	correct	observe	Run2	observe/STIM_012.jpg
1779.643	1.665	incorrect	observe	Run2	observe/STIM_012.jpg
1784.383	0.895	correct	observe	Run2	observe/STIM_012.jpg
1788.432	1.741	correct	observe	Run2	observe/STIM_013.jpg
1793.679	1.863	incorrect	observe	Run2	observe/STIM_013.jpg
1798.948	1.609	correct	observe	Run2	observe/STIM_013.jpg
1803.47	1.366	correct	observe	Run2	observe/STIM_013.jpg
1807.722	1.741	correct	observe	Run2	observe/STIM_014.jpg
1811.209	1.539	correct	observe	Run2	observe/STIM_014.jpg
1815.282	1.246	incorrect	observe	Run2	observe/STIM_014.jpg
1819.941	1.129	correct	observe	Run2	observe/STIM_014.jpg
1824.565	1.687	incorrect	observe	Run2	observe/STIM_015.jpg
1830.049	1.131	correct	observe	Run2	observe/STIM_015.jpg
1833.338	1.218	correct	observe	Run2	observe/STIM_015.jpg
1837.111	1.279	correct	observe	Run2	observe/STIM_015.jpg
1841.955	1.333	correct	observe	Run2	observe/STIM_016.jpg
1846.082	1.829	correct	observe	Run2	observe/STIM_016.jpg
1849.8	1.374	correct	observe	Run2	observe/STIM_016.jpg
1854.114	1.281	correct	observe	Run2	observe/STIM_016.jpg
1857.245	1.468	correct	observe	Run2	observe/STIM_017.jpg
1862.545	1.297	correct	observe	Run2	observe/STIM_017.jpg
1866.047	1.034	correct	observe	Run2	observe/STIM_017.jpg
1869.566	1.725	correct	observe	Run2	observe/STIM_017.jpg
1874.707	1.685	correct	observe	Run2	observe/STIM_018.jpg
1878.408	1.687	correct	observe	Run2	observe/STIM_018.jpg
1883.026	1.393	correct	observe	Run2	observe/STIM_018.jpg
1886.254	1.371	correct	observe	Run2	observe/STIM_018.jpg
1890.482	1.601	correct	observe	Run2	observe/STIM_019.jpg
1894.667	1.182	correct	observe	Run2	observe/STIM_019.jpg
1899.565	1.303	correct	observe	Run2	observe/STIM_019.jpg
1903.682	1.719	correct	observe	Run2	observe/STIM_019.jpg
1908.067	2.032	correct	regulate	Run3	regulate/STIM_000.jpg
1913.707	2.682	correct	regulate	Run3	regulate/STIM_000.jpg
1919.294	1.594	correct	regulate	Run3	regulate/STIM_000.jpg
1923.947	2.527	correct	regulate	Run3	regulate/STIM_000.jpg
1928.461	1.533	correct	regulate	Run3	regulate/STIM_001.jpg
1933.711	2.605	correct	regulate	Run3	regulate/STIM_001.jpg
1938.942	1.946	correct	regulate	Run3	regulate/STIM_001.jpg
1942.983	2.095	correct	regulate	Run3	regulate/STIM_001.jpg
1948.649	1.664	incorrect	regulate	Run3	regulate/STIM_002.jpg
1952.968	2.18	correct	regulate	Run3	regulate/STIM_002.jpg
1958.766	1.757	correct	regulate	Run3	regulate/STIM_002.jpg
1963.736	1.996	correct	regulate	Run3	regulate/STIM_002.jpg
1969.097	1.526	correct	regulate	Run3	regulate/STIM_003.jpg
1973.306	2.622	correct	regulate	Run3	regulate/STIM_003.jpg
1978.373	1.621	correct	regulate	Run3	regulate/STIM_003.jpg
1982.134	1.902	correct	regulate	Run3	regulate/STIM_003.jpg
1987.439	2.406	correct	regulate	Run3	regulate/STIM_004.jpg
1991.709	2.602	correct	regulate	Run3	regulate/STIM_004.jpg
1996.524	1.896	correct	regulate	Run3	regulate/STIM_004.jpg
2000.972	1.485	correct	regulate	Run3	regulate/STIM_004.jpg
2006.111	2.706	incorrect	regulate	Run3	regulate/STIM_005.jpg
2010.587	1.886	correct	regulate	Run3	regulate/STIM_005.jpg
2015.768	2.159	correct	regulate	Run3	regulate/STIM_005.jpg
2021.266	2.278	correct	regulate	Run3	regulate/STIM_005.jpg
2026.496	1.73	correct	regulate	Run3	regulate/STIM_006.jpg
2031.825	1.81	correct	regulate	Run3	regulate/STIM_006.jpg
2036.698	2.806	correct	regulate	Run3	regulate/STIM_006.jpg
2042.214	1.624	correct	regulate	Run3	regulate/STIM_006.jpg
2046.397	2.364	incorrect	regulate	Run3	regulate/STIM_007.jpg
2051.032	1.349	incorrect	regulate	Run3	regulate/STIM_007.jpg
2055.436	2.374	correct	regulate	Run3	regulate/STIM_007.jpg
2059.726	1.358	correct	regulate	Run3	regulate/STIM_007.jpg
2064.257	1.418	correct	regulate	Run3	regulate/STIM_008.jpg
2069.105	2.559	correct	regulate	Run3	regulate/STIM_008.jpg
2073.613	1.598	correct	regulate	Run3	regulate/STIM_008.jpg
2077.311	1.394	correct	regulate	Run3	regulate/STIM_008.jpg
2081.139	1.755	correct	regulate	Run3	regulate/STIM_009.jpg
2084.915	1.375	correct	regulate	Run3	regulate/STIM_009.jpg
2088.177	1.507	correct	regulate	Run3	regulate/STIM_009.jpg
2092.588	2.451	correct	regulate	Run3	regulate/STIM_009.jpg
2097.459	1.453	correct	regulate	Run3	regulate/STIM_010.jpg
2101.244	2.162	correct	regulate	Run3	regulate/STIM_010.jpg
2106.402	1.63	correct	regulate	Run3	regulate/STIM_010.jpg
2110.828	2.814	correct	regulate	Run3	regulate/STIM_010.jpg
2116.854	1.577	correct	regulate	Run3	regulate/STIM_011.jpg
2120.867	1.958	correct	regulate	Run3	regulate/STIM_011.jpg
2126.49	1.75	correct	regulate	Run3	regulate/STIM_011.jpg
2131.651	2.298	correct	regulate	Run3	regulate/STIM_011.jpg
2136.558	1.441	incorrect	regulate	Run3	regulate/STIM_012.jpg
2140.943	1.994	correct	regulate	Run3	regulate/STIM_012.jpg
2146.308	2.481	correct	regulate	Run3	regulate/STIM_012.jpg
2150.89	1.597	incorrect	regulate	Run3	regulate/STIM_012.jpg
2154.91	2.53	correct	regulate	Run3	regulate/STIM_013.jpg
2160.141	1.238	correct	regulate	Run3	regulate/STIM_013.jpg
2164.124	2.453	correct	regulate	Run3	regulate/STIM_013.jpg
2168.356	1.668	correct	regulate	Run3	regulate/STIM_013.jpg
2173.289	1.38	incorrect	regulate	Run3	regulate/STIM_014.jpg
2177.878	2.641	correct	regulate	Run3	regulate/STIM_014.jpg
2183.39	2.395	incorrect	regulate	Run3	regulate/STIM_014.jpg
2188.424	1.62	correct	regulate	Run3	regulate/STIM_014.jpg
2192.228	1.574	incorrect	regulate	Run3	regulate/STIM_015.jpg
2197.38	1.973	correct	regulate	Run3	regulate/STIM_015.jpg
2201.386	2.564	correct	regulate	Run3	regulate/STIM_015.jpg
2205.703	1.34	correct	regulate	Run3	regulate/STIM_015.jpg
2210.903	2.566	correct	regulate	Run3	regulate/STIM_016.jpg
2215.216	2.584	correct	regulate	Run3	regulate/STIM_016.jpg
2220.843	1.677	correct	regulate	Run3	regulate/STIM_016.jpg
2226.06	2.094	correct	regulate	Run3	regulate/STIM_016.jpg
2231.901	2.843	correct	regulate	Run3	regulate/STIM_017.jpg
2237.478	2.297	correct	regulate	Run3	regulate/STIM_017.jpg
2242.223	1.376	correct	regulate	Run3	regulate/STIM_017.jpg
2246.492	2.742	correct	regulate	Run3	regulate/STIM_017.jpg
2252.742	1.782	correct	regulate	Run3	regulate/STIM_018.jpg
2256.653	2.266	correct	regulate	Run3	regulate/STIM_018.jpg
2262.514	1.696	correct	regulate	Run3	regulate/STIM_018.jpg
2266.073	1.909	correct	regulate	Run3	regulate/STIM_018.jpg
2270.688	1.407	correct	regulate	Run3	regulate/STIM_019.jpg
2275.285	2.332	correct	regulate	Run3	regulate/STIM_019.jpg
2280.264	2.755	correct	regulate	Run3	regulate/STIM_019.jpg
2284.91	1.429	correct	regulate	Run3	regulate/STIM_019.jpg
2289.846	2.269	correct	regulate	Run3	regulate/STIM_020.jpg
2295.13	1.73	correct	regulate	Run3	regulate/STIM_020.jpg
2300.267	1.388	incorrect	regulate	Run3	regulate/STIM_020.jpg
2304.466	2.504	correct	regulate	Run3	regulate/STIM_020.jpg
2309.768	1.97	correct	regulate	Run3	regulate/STIM_021.jpg
2314.104	1.862	correct	regulate	Run3	regulate/STIM_021.jpg
2317.649	1.836	correct	regulate	Run3	regulate/STIM_021.jpg
2322.802	2.508	correct	regulate	Run3	regulate/STIM_021.jpg
2327.055	2.531	correct	regulate	Run3	regulate/STIM_022.jpg
2332.115	2.707	correct	regulate	Run3	regulate/STIM_022.jpg
2337.225	1.65	correct	regulate	Run3	regulate/STIM_022.jpg
2340.954	1.322	incorrect	regulate	Run3	regulate/STIM_022.jpg
2345.055	2.649	correct	regulate	Run3	regulate/STIM_023.jpg
2349.987	1.51	correct	regulate	Run3	regulate/STIM_023.jpg
2354.446	2.31	correct	regulate	Run3	regulate/STIM_023.jpg
2359.36	2.298	correct	regulate	Run3	regulate/STIM_023.jpg
2363.765	1.268	correct	regulate	Run3	regulate/STIM_024.jpg
2368.061	1.96	correct	regulate	Run3	regulate/STIM_024.jpg
2372.737	2.6	correct	regulate	Run3	regulate/STIM_024.jpg
2377.675	2.567	correct	regulate	Run3	regulate/STIM_024.jpg
2383.477	2.412	correct	regulate	Run3	regulate/STIM_025.jpg
2388.709	1.746	correct	regulate	Run3	regulate/STIM_025.jpg
2393.743	1.695	correct	regulate	Run3	regulate/STIM_025.jpg
2398.912	1.43	correct	regulate	Run3	regulate/STIM_025.jpg
2402.94	1.509	correct	regulate	Run3	regulate/STIM_026.jpg
2406.865	2.53	correct	regulate	Run3	regulate/STIM_026.jpg
2411.857	2.008	correct	regulate	Run3	regulate/STIM_026.jpg
2415.682	1.872	correct	regulate	Run3	regulate/STIM_026.jpg
2421.237	1.941	correct	regulate	Run3	regulate/STIM_027.jpg
2426.819	2.603	correct	regulate	Run3	regulate/STIM_027.jpg
2431.791	2.598	correct	regulate	Run3	regulate/STIM_027.jpg
2436.533	1.996	correct	regulate	Run3	regulate/STIM_027.jpg
2440.788	2.506	correct	regulate	Run3	regulate/STIM_028.jpg
2445.355	1.972	incorrect	regulate	Run3	regulate/STIM_028.jpg
2450.529	2.554	correct	regulate	Run3	regulate/STIM_028.jpg
2454.968	2.363	correct	regulate	Run3	regulate/STIM_028.jpg
2459.777	1.345	correct	regulate	Run3	regulate/STIM_029.jpg
2464.88	2.589	correct	regulate	Run3	regulate/STIM_029.jpg
2470.669	1.593	correct	regulate	Run3	regulate/STIM_029.jpg
2475.159	1.698	correct	regulate	Run3	regulate/STIM_029.jpg
2480.584	1.719	correct	observe	Run3	observe/STIM_000.jpg
2484.418	1.786	correct	observe	Run3	observe/STIM_000.jpg
2489.647	1.727	correct	observe	Run3	observe/STIM_000.jpg
2494.195	1.893	correct	observe	Run3	observe/STIM_000.jpg
2498.398	0.911	correct	observe	Run3	observe/STIM_001.jpg
2502.701	1.653	correct	observe	Run3	observe/STIM_001.jpg
2507.561	1.031	incorrect	observe	Run3	observe/STIM_001.jpg
2511.025	1.327	incorrect	observe	Run3	observe/STIM_001.jpg
2514.895	1.392	correct	observe	Run3	observe/STIM_002.jpg
2519.273	1.397	correct	observe	Run3	observe/STIM_002.jpg
2522.639	1.005	correct	observe	Run3	observe/STIM_002.jpg
2527.142	0.883	correct	observe	Run3	observe/STIM_002.jpg
2531.442	1.234	correct	observe	Run3	observe/STIM_003.jpg
2535.911	1.042	correct	observe	Run3	observe/STIM_003.jpg
2540.849	1.488	correct	observe	Run3	observe/STIM_003.jpg
2545.054	1.158	correct	observe	Run3	observe/STIM_003.jpg
2548.368	1.32	correct	observe	Run3	observe/STIM_004.jpg
2553.32	1.28	correct	observe	Run3	observe/STIM_004.jpg
2557.99	1.221	correct	observe	Run3	observe/STIM_004.jpg
2562.868	1.747	correct	observe	Run3	observe/STIM_004.jpg
2566.992	1.638	correct	observe	Run3	observe/STIM_005.jpg
2571.949	1.406	correct	observe	Run3	observe/STIM_005.jpg
2576.77	1.689	correct	observe	Run3	observe/STIM_005.jpg
2580.705	1.002	incorrect	observe	Run3	observe/STIM_005.jpg
2583.699	1.338	incorrect	observe	Run3	observe/STIM_006.jpg
2587.391	1.818	correct	observe	Run3	observe/STIM_006.jpg
2591.271	1.67	correct	observe	Run3	observe/STIM_006.jpg
2595.173	1.797	correct	observe	Run3	observe/STIM_006.jpg
2600.606	1.198	correct	observe	Run3	observe/STIM_007.jpg
2604.197	1.511	correct	observe	Run3	observe/STIM_007.jpg
2609.063	1.401	correct	observe	Run3	observe/STIM_007.jpg
2613.781	1.803	correct	observe	Run3	observe/STIM_007.jpg
2618.429	1.571	correct	observe	Run3	observe/STIM_008.jpg
2622.01	0.989	correct	observe	Run3	observe/STIM_008.jpg
2624.925	1.366	correct	observe	Run3	observe/STIM_008.jpg
2629.488	1.062	correct	observe	Run3	observe/STIM_008.jpg
2634.118	0.854	correct	observe	Run3	observe/STIM_009.jpg
2638.72	1.325	correct	observe	Run3	observe/STIM_009.jpg
2643.284	1.698	correct	observe	Run3	observe/STIM_009.jpg
2646.815	1.264	correct	observe	Run3	observe/STIM_009.jpg
2651.221	0.988	correct	observe	Run3	observe/STIM_010.jpg
2654.509	1.815	correct	observe	Run3	observe/STIM_010.jpg
2659.891	1.323	correct	observe	Run3	observe/STIM_010.jpg
2664.196	1.785	correct	observe	Run3	observe/STIM_010.jpg
2668.329	1.547	correct	observe	Run3	observe/STIM_011.jpg
2672.162	1.154	correct	observe	Run3	observe/STIM_011.jpg
2676.902	1.182	correct	observe	Run3	observe/STIM_011.jpg
2680.508	1.075	incorrect	observe	Run3	observe/STIM_011.jpg
2684.375	1.776	correct	observe	Run3	observe/STIM_012.jpg
2688.543	1.592	correct	observe	Run3	observe/STIM_012.jpg
2693.264	1.287	correct	observe	Run3	observe/STIM_012.jpg
2697.904	1.537	correct	observe	Run3	observe/STIM_012.jpg
2702.129	1.543	correct	observe	Run3	observe/STIM_013.jpg
2706.52	1.771	correct	observe	Run3	observe/STIM_013.jpg
2710.68	1.384	correct	observe	Run3	observe/STIM_013.jpg
2715.013	1.011	incorrect	observe	Run3	observe/STIM_013.jpg
2718.184	1.094	correct	observe	Run3	observe/STIM_014.jpg
2722.372	1.16	incorrect	observe	Run3	observe/STIM_014.jpg
2726.263	1.182	correct	observe	Run3	observe/STIM_014.jpg
2729.377	1.379	correct	observe	Run3	observe/STIM_014.jpg
2734.01	1.359	incorrect	observe	Run3	observe/STIM_015.jpg
2738.074	0.909	correct	observe	Run3	observe/STIM_015.jpg
2741.716	1.685	correct	observe	Run3	observe/STIM_015.jpg
2745.662	1.902	incorrect	observe	Run3	observe/STIM_015.jpg
2749.972	1.361	correct	observe	Run3	observe/STIM_016.jpg
2753.81	1.401	correct	observe	Run3	observe/STIM_016.jpg
2758.618	1.691	correct	observe	Run3	observe/STIM_016.jpg
2763.217	1.028	correct	observe	Run3	observe/STIM_016.jpg
2766.938	1.544	correct	observe	Run3	observe/STIM_017.jpg
2770.346	1.574	correct	observe	Run3	observe/STIM_017.jpg
2774.969	1.21	correct	observe	Run3	observe/STIM_017.jpg
2779.3	1.02	correct	observe	Run3	observe/STIM_017.jpg
2783.175	1.436	correct	observe	Run3	observe/STIM_018.jpg
2787.338	1.522	correct	observe	Run3	observe/STIM_018.jpg
2791.342	1.447	correct	observe	Run3	observe/STIM_018.jpg
2794.929	1.04	correct	observe	Run3	observe/STIM_018.jpg
2798.463	1.153	correct	observe	Run3	observe/STIM_019.jpg
2803.177	1.211	correct	observe	Run3	observe/STIM_019.jpg
2806.983	1.375	correct	observe	Run3	observe/STIM_019.jpg
2810.897	1.175	correct	observe	Run3	observe/STIM_019.jpg
