onset	duration	accuracy	trial_type	learning_stage	stimulus
0.0	2.747	correct	regulate	Run1	regulate/STIM_000.jpg
6.323	1.526	correct	regulate	Run1	regulate/STIM_000.jpg
11.271	2.806	correct	regulate	Run1	regulate/STIM_000.jpg
17.327	2.419	correct	regulate	Run1	regulate/STIM_000.jpg
22.696	1.555	correct	regulate	Run1	regulate/STIM_001.jpg
27.911	2.387	correct	regulate	Run1	regulate/STIM_001.jpg
33.997	2.081	correct	regulate	Run1	regulate/STIM_001.jpg
38.118	2.25	incorrect	regulate	Run1	regulate/STIM_001.jpg
42.456	3.074	correct	regulate	Run1	regulate/STIM_002.jpg
48.961	1.33	correct	regulate	Run1	regulate/STIM_002.jpg
54.169	1.788	correct	regulate	Run1	regulate/STIM_002.jpg
59.771	2.402	correct	regulate	Run1	regulate/STIM_002.jpg
64.975	2.48	incorrect	regulate	Run1	regulate/STIM_003.jpg
70.733	1.908	correct	regulate	Run1	regulate/STIM_003.jpg
74.891	2.492	incorrect	regulate	Run1	regulate/STIM_003.jpg
79.855	2.394	incorrect	regulate	Run1	regulate/STIM_003.jpg
85.169	1.887	correct	regulate	Run1	regulate/STIM_004.jpg
89.256	1.55	correct	regulate	Run1	regulate/STIM_004.jpg
93.398	2.844	correct	regulate	Run1	regulate/STIM_004.jpg
98.553	1.465	incorrect	regulate	Run1	regulate/STIM_004.jpg
102.462	3.149	correct	regulate	Run1	regulate/STIM_005.jpg
108.533	1.895	incorrect	regulate	Run1	regulate/STIM_005.jpg
113.293	2.07	correct	regulate	Run1	regulate/STIM_005.jpg
117.6	1.304	correct	regulate	Run1	regulate/STIM_005.jpg
122.306	1.808	correct	regulate	Run1	regulate/STIM_006.jpg
127.912	1.792	incorrect	regulate	Run1	regulate/STIM_006.jpg
132.428	2.118	incorrect	regulate	Run1	regulate/STIM_006.jpg
137.78	2.102	correct	regulate	Run1	regulate/STIM_006.jpg
142.953	1.43	incorrect	regulate	Run1	regulate/STIM_007.jpg
148.369	2.998	incorrect	regulate	Run1	regulate/STIM_007.jpg
154.073	2.454	correct	regulate	Run1	regulate/STIM_007.jpg
159.913	1.499	correct	regulate	Run1	regulate/STIM_007.jpg
165.164	2.248	incorrect	regulate	Run1	regulate/STIM_008.jpg
169.952	1.928	correct	regulate	Run1	regulate/STIM_008.jpg
175.27	2.186	correct	regulate	Run1	regulate/STIM_008.jpg
180.526	1.917	incorrect	regulate	Run1	regulate/STIM_008.jpg
185.831	2.796	correct	regulate	Run1	regulate/STIM_009.jpg
191.973	2.331	incorrect	regulate	Run1	regulate/STIM_009.jpg
196.592	2.42	correct	regulate	Run1	regulate/STIM_009.jpg
201.565	1.831	correct	regulate	Run1	regulate/STIM_009.jpg
205.55	2.101	correct	regulate	Run1	regulate/STIM_010.jpg
211.093	1.576	incorrect	regulate	Run1	regulate/STIM_010.jpg
216.11	1.376	correct	regulate	Run1	regulate/STIM_010.jpg
219.492	2.379	incorrect	regulate	Run1	regulate/STIM_010.jpg
224.503	3.187	correct	regulate	Run1	regulate/STIM_011.jpg
230.969	2.696	correct	regulate	Run1	regulate/STIM_011.jpg
237.408	1.824	correct	regulate	Run1	regulate/STIM_011.jpg
241.815	2.259	incorrect	regulate	Run1	regulate/STIM_011.jpg
247.077	2.024	correct	regulate	Run1	regulate/STIM_012.jpg
251.913	2.762	correct	regulate	Run1	regulate/STIM_012.jpg
257.343	1.774	correct	regulate	Run1	regulate/STIM_012.jpg
261.45	2.717	correct	regulate	Run1	regulate/STIM_012.jpg
267.941	1.874	correct	regulate	Run1	regulate/STIM_013.jpg
272.079	1.5	incorrect	regulate	Run1	regulate/STIM_013.jpg
276.318	2.34	correct	regulate	Run1	regulate/STIM_013.jpg
282.161	2.035	correct	regulate	Run1	regulate/STIM_013.jpg
286.63	2.552	incorrect	regulate	Run1	regulate/STIM_014.jpg
292.287	2.419	incorrect	regulate	Run1	regulate/STIM_014.jpg
297.301	2.709	correct	regulate	Run1	regulate/STIM_014.jpg
303.309	1.706	correct	regulate	Run1	regulate/STIM_014.jpg
308.343	2.973	correct	regulate	Run1	regulate/STIM_015.jpg
314.788	2.98	incorrect	regulate	Run1	regulate/STIM_015.jpg
320.509	2.219	incorrect	regulate	Run1	regulate/STIM_015.jpg
325.575	1.442	incorrect	regulate	Run1	regulate/STIM_015.jpg
329.145	1.694	incorrect	regulate	Run1	regulate/STIM_016.jpg
333.7	1.349	incorrect	regulate	Run1	regulate/STIM_016.jpg
338.383	1.301	incorrect	regulate	Run1	regulate/STIM_016.jpg
343.194	2.097	incorrect	regulate	Run1	regulate/STIM_016.jpg
347.63	2.022	incorrect	regulate	Run1	regulate/STIM_017.jpg
353.582	2.78	incorrect	regulate	Run1	regulate/STIM_017.jpg
358.8	1.63	correct	regulate	Run1	regulate/STIM_017.jpg
364.119	2.574	correct	regulate	Run1	regulate/STIM_017.jpg
369.756	1.889	incorrect	regulate	Run1	regulate/STIM_018.jpg
374.399	1.81	correct	regulate	Run1	regulate/STIM_018.jpg
379.977	2.073	correct	regulate	Run1	regulate/STIM_018.jpg
385.295	1.428	correct	regulate	Run1	regulate/STIM_018.jpg
389.623	3.238	correct	regulate	Run1	regulate/STIM_019.jpg
396.818	1.948	correct	regulate	Run1	regulate/STIM_019.jpg
402.401	2.041	correct	regulate	Run1	regulate/STIM_019.jpg
407.465	1.888	correct	regulate	Run1	regulate/STIM_019.jpg
412.81	1.672	incorrect	regulate	Run1	regulate/STIM_020.jpg
417.615	2.329	correct	regulate	Run1	regulate/STIM_020.jpg
421.954	2.028	incorrect	regulate	Run1	regulate/STIM_020.jpg
427.963	2.45	incorrect	regulate	Run1	regulate/STIM_020.jpg
432.785	1.446	correct	regulate	Run1	regulate/STIM_021.jpg
437.839	2.206	incorrect	regulate	Run1	regulate/STIM_021.jpg
442.413	1.549	correct	regulate	Run1	regulate/STIM_021.jpg
446.056	2.049	incorrect	regulate	Run1	regulate/STIM_021.jpg
451.564	3.247	incorrect	regulate	Run1	regulate/STIM_022.jpg
457.484	2.701	correct	regulate	Run1	regulate/STIM_022.jpg
462.225	2.115	incorrect	regulate	Run1	regulate/STIM_022.jpg
467.758	1.42	correct	regulate	Run1	regulate/STIM_022.jpg
472.001	2.091	correct	regulate	Run1	regulate/STIM_023.jpg
476.346	1.353	incorrect	regulate	Run1	regulate/STIM_023.jpg
481.312	2.299	incorrect	regulate	Run1	regulate/STIM_023.jpg
487.395	2.051	correct	regulate	Run1	regulate/STIM_023.jpg
492.823	2.453	correct	regulate	Run1	regulate/STIM_024.jpg
498.165	2.768	correct	regulate	Run1	regulate/STIM_024.jpg
504.377	1.564	correct	regulate	Run1	regulate/STIM_024.jpg
508.777	1.573	correct	regulate	Run1	regulate/STIM_024.jpg
512.607	1.456	correct	regulate	Run1	regulate/STIM_025.jpg
516.075	2.989	incorrect	regulate	Run1	regulate/STIM_025.jpg
521.819	1.661	correct	regulate	Run1	regulate/STIM_025.jpg
527.444	1.323	correct	regulate	Run1	regulate/STIM_025.jpg
531.106	2.898	correct	regulate	Run1	regulate/STIM_026.jpg
537.635	2.486	incorrect	regulate	Run1	regulate/STIM_026.jpg
544.094	2.287	correct	regulate	Run1	regulate/STIM_026.jpg
550.026	1.397	incorrect	regulate	Run1	regulate/STIM_026.jpg
554.652	1.461	incorrect	regulate	Run1	regulate/STIM_027.jpg
559.34	2.804	correct	regulate	Run1	regulate/STIM_027.jpg
564.817	2.145	correct	regulate	Run1	regulate/STIM_027.jpg
570.219	2.666	incorrect	regulate	Run1	regulate/STIM_027.jpg
575.153	2.706	correct	regulate	Run1	regulate/STIM_028.jpg
580.853	1.894	incorrect	regulate	Run1	regulate/STIM_028.jpg
585.047	1.917	correct	regulate	Run1	regulate/STIM_028.jpg
590.814	1.697	incorrect	regulate	Run1	regulate/STIM_028.jpg
596.411	2.061	correct	regulate	Run1	regulate/STIM_029.jpg
600.548	1.41	correct	regulate	Run1	regulate/STIM_029.jpg
605.896	2.785	correct	regulate	Run1	regulate/STIM_029.jpg
610.847	2.355	incorrect	regulate	Run1	regulate/STIM_029.jpg
615.954	0.771	correct	observe	Run1	observe/STIM_000.jpg
618.826	1.084	correct	observe	Run1	observe/STIM_000.jpg
622.276	1.454	correct	observe	Run1	observe/STIM_000.jpg
627.375	1.114	correct	observe	Run1	observe/STIM_000.jpg
630.558	0.913	correct	observe	Run1	observe/STIM_001.jpg
634.95	1.409	incorrect	observe	Run1	observe/STIM_001.jpg
638.729	1.424	correct	observe	Run1	observe/STIM_001.jpg
643.487	1.258	correct	observe	Run1	observe/STIM_001.jpg
647.897	1.008	correct	observe	Run1	observe/STIM_002.jpg
651.103	0.749	correct	observe	Run1	observe/STIM_002.jpg
655.738	1.112	correct	observe	Run1	observe/STIM_002.jpg
659.542	0.899	incorrect	observe	Run1	observe/STIM_002.jpg
664.241	0.755	correct	observe	Run1	observe/STIM_003.jpg
667.499	1.212	correct	observe	Run1	observe/STIM_003.jpg
671.261	0.913	correct	observe	Run1	observe/STIM_003.jpg
675.085	0.851	correct	observe	Run1	observe/STIM_003.jpg
678.117	1.365	correct	observe	Run1	observe/STIM_004.jpg
683.29	0.829	incorrect	observe	Run1	observe/STIM_004.jpg
686.897	1.141	correct	observe	Run1	observe/STIM_004.jpg
690.11	1.319	correct	observe	Run1	observe/STIM_004.jpg
694.883	1.063	correct	observe	Run1	observe/STIM_005.jpg
698.314	1.373	correct	observe	Run1	observe/STIM_005.jpg
701.824	1.324	correct	observe	Run1	observe/STIM_005.jpg
705.965	1.432	correct	observe	Run1	observe/STIM_005.jpg
711.0	1.029	correct	observe	Run1	observe/STIM_006.jpg
714.638	0.814	correct	observe	Run1	observe/STIM_006.jpg
717.872	1.196	correct	observe	Run1	observe/STIM_006.jpg
722.746	1.135	correct	observe	Run1	observe/STIM_006.jpg
726.353	1.169	correct	observe	Run1	observe/STIM_007.jpg
729.597	0.841	incorrect	observe	Run1	observe/STIM_007.jpg
733.393	1.207	correct	observe	Run1	observe/STIM_007.jpg
737.421	0.989	incorrect	observe	Run1	observe/STIM_007.jpg
742.086	0.896	correct	observe	Run1	observe/STIM_008.jpg
746.914	1.432	correct	observe	Run1	observe/STIM_008.jpg
750.926	1.355	correct	observe	Run1	observe/STIM_008.jpg
754.826	0.78	correct	observe	Run1	observe/STIM_008.jpg
758.895	1.213	correct	observe	Run1	observe/STIM_009.jpg
763.0	1.429	incorrect	observe	Run1	observe/STIM_009.jpg
767.374	1.123	incorrect	observe	Run1	observe/STIM_009.jpg
772.333	1.432	incorrect	observe	Run1	observe/STIM_009.jpg
776.912	1.052	incorrect	observe	Run1	observe/STIM_010.jpg
780.097	0.866	correct	observe	Run1	observe/STIM_010.jpg
784.048	1.144	incorrect	observe	Run1	observe/STIM_010.jpg
787.279	1.46	correct	observe	Run1	observe/STIM_010.jpg
791.952	1.014	incorrect	observe	Run1	observe/STIM_011.jpg
795.729	1.087	correct	observe	Run1	observe/STIM_011.jpg
799.543	1.112	incorrect	observe	Run1	observe/STIM_011.jpg
804.513	0.78	incorrect	observe	Run1	observe/STIM_011.jpg
808.259	1.096	correct	observe	Run1	observe/STIM_012.jpg
813.231	1.056	incorrect	observe	Run1	observe/STIM_012.jpg
817.57	1.434	correct	observe	Run1	observe/STIM_012.jpg
822.0	0.933	incorrect	observe	Run1	observe/STIM_012.jpg
826.08	1.223	correct	observe	Run1	observe/STIM_013.jpg
830.466	1.286	incorrect	observe	Run1	observe/STIM_013.jpg
833.858	1.162	incorrect	observe	Run1	observe/STIM_013.jpg
837.175	0.945	correct	observe	Run1	observe/STIM_013.jpg
841.186	1.08	correct	observe	Run1	observe/STIM_014.jpg
845.156	1.088	correct	observe	Run1	observe/STIM_014.jpg
848.278	1.327	correct	observe	Run1	observe/STIM_014.jpg
852.072	0.888	correct	observe	Run1	observe/STIM_014.jpg
855.601	1.463	correct	observe	Run1	observe/STIM_015.jpg
860.002	0.83	correct	observe	Run1	observe/STIM_015.jpg
863.022	1.026	incorrect	observe	Run1	observe/STIM_015.jpg
867.871	0.994	correct	observe	Run1	observe/STIM_015.jpg
872.036	1.155	correct	observe	Run1	observe/STIM_016.jpg
876.364	1.212	incorrect	observe	Run1	observe/STIM_016.jpg
880.109	0.751	correct	observe	Run1	observe/STIM_016.jpg
882.986	1.025	correct	observe	Run1	observe/STIM_016.jpg
887.85	1.401	correct	observe	Run1	observe/STIM_017.jpg
892.249	0.764	correct	observe	Run1	observe/STIM_017.jpg
895.682	1.151	correct	observe	Run1	observe/STIM_017.jpg
900.363	1.157	incorrect	observe	Run1	observe/STIM_017.jpg
903.664	0.775	incorrect	observe	Run1	observe/STIM_018.jpg
906.668	1.447	correct	observe	Run1	observe/STIM_018.jpg
911.9	1.314	correct	observe	Run1	observe/STIM_018.jpg
916.327	1.154	correct	observe	Run1	observe/STIM_018.jpg
921.262	1.484	correct	observe	Run1	observe/STIM_019.jpg
925.358	1.26	correct	observe	Run1	observe/STIM_019.jpg
929.158	1.382	correct	observe	Run1	observe/STIM_019.jpg
933.094	1.217	correct	observe	Run1	observe/STIM_019.jpg
936.581	1.61	correct	regulate	Run2	regulate/STIM_000.jpg
942.171	2.221	correct	regulate	Run2	regulate/STIM_000.jpg
946.421	2.16	correct	regulate	Run2	regulate/STIM_000.jpg
951.538	1.025	correct	regulate	Run2	regulate/STIM_000.jpg
955.433	2.126	correct	regulate	Run2	regulate/STIM_001.jpg
959.746	1.542	correct	regulate	Run2	regulate/STIM_001.jpg
963.394	2.284	correct	regulate	Run2	regulate/STIM_001.jpg
968.799	1.887	correct	regulate	Run2	regulate/STIM_001.jpg
972.772	2.685	incorrect	regulate	Run2	regulate/STIM_002.jpg
979.213	1.352	correct	regulate	Run2	regulate/STIM_002.jpg
983.457	1.786	incorrect	regulate	Run2	regulate/STIM_002.jpg
987.912	1.74	correct	regulate	Run2	regulate/STIM_002.jpg
992.661	1.82	correct	regulate	Run2	regulate/STIM_003.jpg
996.795	1.689	correct	regulate	Run2	regulate/STIM_003.jpg
1001.734	2.169	correct	regulate	Run2	regulate/STIM_003.jpg
1007.053	1.707	correct	regulate	Run2	regulate/STIM_003.jpg
1012.249	1.541	correct	regulate	Run2	regulate/STIM_004.jpg
1017.684	1.686	correct	regulate	Run2	regulate/STIM_004.jpg
1022.574	2.304	correct	regulate	Run2	regulate/STIM_004.jpg
1026.927	1.21	correct	regulate	Run2	regulate/STIM_004.jpg
1031.056	1.431	correct	regulate	Run2	regulate/STIM_005.jpg
1034.709	1.954	correct	regulate	Run2	regulate/STIM_005.jpg
1039.514	1.534	incorrect	regulate	Run2	regulate/STIM_005.jpg
1044.603	2.001	correct	regulate	Run2	regulate/STIM_005.jpg
1049.165	2.068	incorrect	regulate	Run2	regulate/STIM_006.jpg
1055.09	1.872	correct	regulate	Run2	regulate/STIM_006.jpg
1059.534	1.105	correct	regulate	Run2	regulate/STIM_006.jpg
1063.983	2.01	correct	regulate	Run2	regulate/STIM_006.jpg
1068.164	2.176	correct	regulate	Run2	regulate/STIM_007.jpg
1074.24	2.465	incorrect	regulate	Run2	regulate/STIM_007.jpg
1080.656	1.217	correct	regulate	Run2	regulate/STIM_007.jpg
1085.053	2.239	correct	regulate	Run2	regulate/STIM_007.jpg
1089.71	2.426	correct	regulate	Run2	regulate/STIM_008.jpg
1094.322	1.153	incorrect	regulate	Run2	regulate/STIM_008.jpg
1098.885	1.642	incorrect	regulate	Run2	regulate/STIM_008.jpg
1103.761	1.445	correct	regulate	Run2	regulate/STIM_008.jpg
1107.916	2.167	correct	regulate	Run2	regulate/STIM_009.jpg
1112.642	1.459	correct	regulate	Run2	regulate/STIM_009.jpg
1117.677	2.182	correct	regulate	Run2	regulate/STIM_009.jpg
1122.039	2.008	correct	regulate	Run2	regulate/STIM_009.jpg
1127.97	1.971	correct	regulate	Run2	regulate/STIM_010.jpg
1132.2	2.385	correct	regulate	Run2	regulate/STIM_010.jpg
1137.497	1.561	correct	regulate	Run2	regulate/STIM_010.jpg
1141.663	1.769	correct	regulate	Run2	regulate/STIM_010.jpg
1147.422	2.107	incorrect	regulate	Run2	regulate/STIM_011.jpg
1152.397	1.212	incorrect	regulate	Run2	regulate/STIM_011.jpg
1155.956	1.433	correct	regulate	Run2	regulate/STIM_011.jpg
1159.535	1.612	incorrect	regulate	Run2	regulate/STIM_011.jpg
1164.743	2.56	correct	regulate	Run2	regulate/STIM_012.jpg
1169.432	2.555	correct	regulate	Run2	regulate/STIM_012.jpg
1175.694	2.418	incorrect	regulate	Run2	regulate/STIM_012.jpg
1180.881	2.121	incorrect	regulate	Run2	regulate/STIM_012.jpg
1185.988	1.869	correct	regulate	Run2	regulate/STIM_013.jpg
1190.097	2.358	correct	regulate	Run2	regulate/STIM_013.jpg
1194.808	1.853	correct	regulate	Run2	regulate/STIM_013.jpg
1199.519	1.966	correct	regulate	Run2	regulate/STIM_013.jpg
1204.295	1.91	incorrect	regulate	Run2	regulate/STIM_014.jpg
1209.536	1.946	correct	regulate	Run2	regulate/STIM_014.jpg
1213.748	2.144	incorrect	regulate	Run2	regulate/STIM_014.jpg
1218.394	2.231	correct	regulate	Run2	regulate/STIM_014.jpg
1223.663	2.68	incorrect	regulate	Run2	regulate/STIM_015.jpg
1228.824	2.427	incorrect	regulate	Run2	regulate/STIM_015.jpg
1234.615	1.11	incorrect	regulate	Run2	regulate/STIM_015.jpg
1238.435	1.626	correct	regulate	Run2	regulate/STIM_015.jpg
1243.819	2.084	incorrect	regulate	Run2	regulate/STIM_016.jpg
1248.41	1.22	correct	regulate	Run2	regulate/STIM_016.jpg
1252.243	2.246	correct	regulate	Run2	regulate/STIM_016.jpg
1257.155	1.502	correct	regulate	Run2	regulate/STIM_016.jpg
1261.574	1.424	incorrect	regulate	Run2	regulate/STIM_017.jpg
1265.712	1.979	correct	regulate	Run2	regulate/STIM_017.jpg
1271.415	1.538	correct	regulate	Run2	regulate/STIM_017.jpg
1275.459	1.92	incorrect	regulate	Run2	regulate/STIM_017.jpg
1279.505	1.975	correct	regulate	Run2	regulate/STIM_018.jpg
1284.648	2.459	correct	regulate	Run2	regulate/STIM_018.jpg
1290.825	1.046	correct	regulate	Run2	regulate/STIM_018.jpg
1294.241	2.167	correct	regulate	Run2	regulate/STIM_018.jpg
1298.707	2.747	correct	regulate	Run2	regulate/STIM_019.jpg
1305.09	2.552	incorrect	regulate	Run2	regulate/STIM_019.jpg
1310.217	1.636	correct	regulate	Run2	regulate/STIM_019.jpg
1314.336	1.803	correct	regulate	Run2	regulate/STIM_019.jpg
1319.791	2.166	correct	regulate	Run2	regulate/STIM_020.jpg
1324.359	1.332	correct	regulate	Run2	regulate/STIM_020.jpg
1329.3	1.545	incorrect	regulate	Run2	regulate/STIM_020.jpg
1333.234	1.171	correct	regulate	Run2	regulate/STIM_020.jpg
1338.255	2.138	correct	regulate	Run2	regulate/STIM_021.jpg
1343.32	1.257	correct	regulate	Run2	regulate/STIM_021.jpg
1348.124	1.159	correct	regulate	Run2	regulate/STIM_021.jpg
1352.893	1.545	correct	regulate	Run2	regulate/STIM_021.jpg
1358.217	1.206	incorrect	regulate	Run2	regulate/STIM_022.jpg
1363.253	1.36	correct	regulate	Run2	regulate/STIM_022.jpg
1368.213	2.285	incorrect	regulate	Run2	regulate/STIM_022.jpg
1372.647	1.701	correct	regulate	Run2	regulate/STIM_022.jpg
1376.683	2.075	correct	regulate	Run2	regulate/STIM_023.jpg
1381.064	1.643	correct	regulate	Run2	regulate/STIM_023.jpg
1385.431	1.822	correct	regulate	Run2	regulate/STIM_023.jpg
1390.343	1.057	correct	regulate	Run2	regulate/STIM_023.jpg
1394.914	1.699	correct	regulate	Run2	regulate/STIM_024.jpg
1398.797	1.171	correct	regulate	Run2	regulate/STIM_024.jpg
1402.222	1.958	correct	regulate	Run2	regulate/STIM_024.jpg
1407.715	2.127	incorrect	regulate	Run2	regulate/STIM_024.jpg
1413.747	1.508	correct	regulate	Run2	regulate/STIM_025.jpg
1417.902	2.553	correct	regulate	Run2	regulate/STIM_025.jpg
1424.242	1.737	correct	regulate	Run2	regulate/STIM_025.jpg
1429.48	1.03	correct	regulate	Run2	regulate/STIM_025.jpg
1433.741	2.602	correct	regulate	Run2	regulate/STIM_026.jpg
1440.091	2.502	correct	regulate	Run2	regulate/STIM_026.jpg
1446.042	2.27	correct	regulate	Run2	regulate/STIM_026.jpg
1452.176	1.298	incorrect	regulate	Run2	regulate/STIM_026.jpg
1457.189	2.38	incorrect	regulate	Run2	regulate/STIM_027.jpg
1462.289	2.519	incorrect	regulate	Run2	regulate/STIM_027.jpg
1467.592	1.936	correct	regulate	Run2	regulate/STIM_027.jpg
1472.859	1.163	correct	regulate	Run2	regulate/STIM_027.jpg
1477.13	1.834	correct	regulate	Run2	regulate/STIM_028.jpg
1481.84	1.422	correct	regulate	Run2	regulate/STIM_028.jpg
1486.175	2.339	correct	regulate	Run2	regulate/STIM_028.jpg
1492.234	1.412	correct	regulate	Run2	regulate/STIM_028.jpg
1495.664	2.103	correct	regulate	Run2	regulate/STIM_029.jpg
1500.827	1.802	correct	regulate	Run2	regulate/STIM_029.jpg
1505.275	1.045	correct	regulate	Run2	regulate/STIM_029.jpg
1508.386	2.067	incorrect	regulate	Run2	regulate/STIM_029.jpg
1513.634	0.945	correct	observe	Run2	observe/STIM_000.jpg
1516.85	1.126	correct	observe	Run2	observe/STIM_000.jpg
1521.781	0.846	correct	observe	Run2	observe/STIM_000.jpg
1525.619	0.963	correct	observe	Run2	observe/STIM_000.jpg
1529.193	0.999	correct	observe	Run2	observe/STIM_001.jpg
1534.129	1.262	incorrect	observe	Run2	observe/STIM_001.jpg
1538.663	1.236	correct	observe	Run2	observe/STIM_001.jpg
1543.799	1.298	correct	observe	Run2	observe/STIM_001.jpg
1548.143	0.873	correct	observe	Run2	observe/STIM_002.jpg
1552.81	0.919	correct	observe	Run2	observe/STIM_002.jpg
1555.744	1.126	incorrect	observe	Run2	observe/STIM_002.jpg
1560.277	0.832	correct	observe	Run2	observe/STIM_002.jpg
1564.116	0.894	incorrect	observe	Run2	observe/STIM_003.jpg
1568.28	0.763	correct	observe	Run2	observe/STIM_003.jpg
1571.546	0.841	incorrect	observe	Run2	observe/STIM_003.jpg
1576.157	0.938	incorrect	observe	Run2	observe/STIM_003.jpg
1581.077	1.198	correct	observe	Run2	observe/STIM_004.jpg
1585.335	1.145	incorrect	observe	Run2	observe/STIM_004.jpg
1590.377	1.253	correct	observe	Run2	observe/STIM_004.jpg
1593.832	1.065	correct	observe	Run2	observe/STIM_004.jpg
1597.347	0.988	correct	observe	Run2	observe/STIM_005.jpg
1600.465	1.314	correct	observe	Run2	observe/STIM_005.jpg
1605.738	0.814	incorrect	observe	Run2	observe/STIM_005.jpg
1609.604	1.383	incorrect	observe	Run2	observe/STIM_005.jpg
1614.743	1.261	incorrect	observe	Run2	observe/STIM_006.jpg
1619.525	1.469	correct	observe	Run2	observe/STIM_006.jpg
1623.572	1.251	correct	observe	Run2	observe/STIM_006.jpg
1627.005	0.832	incorrect	observe	Run2	observe/STIM_006.jpg
1631.711	1.418	correct	observe	Run2	observe/STIM_007.jpg
1636.692	1.265	correct	observe	Run2	observe/STIM_007.jpg
1640.687	1.441	correct	observe	Run2	observe/STIM_007.jpg
1644.289	1.454	correct	observe	Run2	observe/STIM_007.jpg
1649.454	1.196	correct	observe	Run2	observe/STIM_008.jpg
1653.075	1.123	correct	observe	Run2	observe/STIM_008.jpg
1657.432	1.44	correct	observe	Run2	observe/STIM_008.jpg
1661.373	1.34	incorrect	observe	Run2	observe/STIM_008.jpg
1665.211	1.23	incorrect	observe	Run2	observe/STIM_009.jpg
1670.176	0.874	incorrect	observe	Run2	observe/STIM_009.jpg
1674.965	1.011	correct	observe	Run2	observe/STIM_009.jpg
1679.205	1.231	correct	observe	Run2	observe/STIM_009.jpg
1682.858	1.086	correct	observe	Run2	observe/STIM_010.jpg
1687.189	1.216	correct	observe	Run2	observe/STIM_010.jpg
1691.898	1.083	correct	observe	Run2	observe/STIM_010.jpg
1695.473	0.989	correct	observe	Run2	observe/STIM_010.jpg
1699.643	1.356	correct	observe	Run2	observe/STIM_011.jpg
1703.07	1.138	correct	observe	Run2	observe/STIM_011.jpg
1707.395	0.879	incorrect	observe	Run2	observe/STIM_011.jpg
1710.899	1.446	incorrect	observe	Run2	observe/STIM_011.jpg
1714.427	0.838	correct	observe	Run2	observe/STIM_012.jpg
1718.587	1.191	correct	observe	Run2	observe/STIM_012.jpg
1722.319	0.896	incorrect	observe	Run2	observe/STIM_012.jpg
1726.23	1.31	correct	observe	Run2	observe/STIM_012.jpg
1730.524	1.212	incorrect	observe	Run2	observe/STIM_013.jpg
1734.611	0.998	incorrect	observe	Run2	observe/STIM_013.jpg
1738.885	1.146	correct	observe	Run2	observe/STIM_013.jpg
1743.697	1.164	correct	observe	Run2	observe/STIM_013.jpg
1747.783	1.052	correct	observe	Run2	observe/STIM_014.jpg
1752.697	1.323	correct	observe	Run2	observe/STIM_014.jpg
1757.049	0.836	incorrect	observe	Run2	observe/STIM_014.jpg
1761.437	1.058	correct	observe	Run2	observe/STIM_014.jpg
1765.366	0.93	incorrect	observe	Run2	observe/STIM_015.jpg
1768.298	1.051	correct	observe	Run2	observe/STIM_015.jpg
1771.72	1.319	correct	observe	Run2	observe/STIM_015.jpg
1775.776	0.989	correct	observe	Run2	observe/STIM_015.jpg
1780.483	1.124	incorrect	observe	Run2	observe/STIM_016.jpg
1784.514	0.84	correct	observe	Run2	observe/STIM_016.jpg
1789.248	0.892	correct	observe	Run2	observe/STIM_016.jpg
1793.269	0.756	incorrect	observe	Run2	observe/STIM_016.jpg
1797.242	1.303	correct	observe	Run2	observe/STIM_017.jpg
1801.412	1.109	correct	observe	Run2	observe/STIM_017.jpg
1805.249	0.827	correct	observe	Run2	observe/STIM_017.jpg
1808.894	0.858	correct	observe	Run2	observe/STIM_017.jpg
1812.728	1.253	correct	observe	Run2	observe/STIM_018.jpg
1817.444	1.393	correct	observe	Run2	observe/STIM_018.jpg
1821.137	1.255	correct	observe	Run2	observe/STIM_018.jpg
1825.021	1.006	incorrect	observe	Run2	observe/STIM_018.jpg
1828.789	1.128	correct	observe	Run2	observe/STIM_019.jpg
1832.037	0.812	correct	observe	Run2	observe/STIM_019.jpg
1835.651	1.292	incorrect	observe	Run2	observe/STIM_019.jpg
1840.369	0.945	correct	observe	Run2	observe/STIM_019.jpg
1844.072	2.045	correct	regulate	Run3	regulate/STIM_000.jpg
1849.301	2.024	correct	regulate	Run3	regulate/STIM_000.jpg
1854.436	1.475	correct	regulate	Run3	regulate/STIM_000.jpg
1859.438	2.218	correct	regulate	Run3	regulate/STIM_000.jpg
1863.986	1.407	incorrect	regulate	Run3	regulate/STIM_001.jpg
1868.921	1.484	incorrect	regulate	Run3	regulate/STIM_001.jpg
1872.787	1.317	incorrect	regulate	Run3	regulate/STIM_001.jpg
1876.715	1.565	correct	regulate	Run3	regulate/STIM_001.jpg
1880.814	1.727	incorrect	regulate	Run3	regulate/STIM_002.jpg
1885.95	2.01	incorrect	regulate	Run3	regulate/STIM_002.jpg
1891.265	1.517	correct	regulate	Run3	regulate/STIM_002.jpg
1895.649	1.378	incorrect	regulate	Run3	regulate/STIM_002.jpg
1899.82	1.049	correct	regulate	Run3	regulate/STIM_003.jpg
1903.613	2.241	correct	regulate	Run3	regulate/STIM_003.jpg
1907.868	1.966	incorrect	regulate	Run3	regulate/STIM_003.jpg
1912.001	1.861	correct	regulate	Run3	regulate/STIM_003.jpg
1916.779	1.641	correct	regulate	Run3	regulate/STIM_004.jpg
1922.128	1.584	incorrect	regulate	Run3	regulate/STIM_004.jpg
1925.756	1.852	incorrect	regulate	Run3	regulate/STIM_004.jpg
1930.548	1.438	correct	regulate	Run3	regulate/STIM_004.jpg
1934.156	2.161	incorrect	regulate	Run3	regulate/STIM_005.jpg
1938.84	1.923	correct	regulate	Run3	regulate/STIM_005.jpg
1944.133	2.083	correct	regulate	Run3	regulate/STIM_005.jpg
1949.749	1.119	correct	regulate	Run3	regulate/STIM_005.jpg
1953.52	2.112	correct	regulate	Run3	regulate/STIM_006.jpg
1959.627	1.56	correct	regulate	Run3	regulate/STIM_006.jpg
1963.794	1.547	correct	regulate	Run3	regulate/STIM_006.jpg
1967.783	1.668	correct	regulate	Run3	regulate/STIM_006.jpg
1972.652	2.27	incorrect	regulate	Run3	regulate/STIM_007.jpg
1977.475	1.607	incorrect	regulate	Run3	regulate/STIM_007.jpg
1981.702	1.839	correct	regulate	Run3	regulate/STIM_007.jpg
1986.76	1.252	correct	regulate	Run3	regulate/STIM_007.jpg
1991.803	1.923	correct	regulate	Run3	regulate/STIM_008.jpg
1997.474	1.598	correct	regulate	Run3	regulate/STIM_008.jpg
2002.36	1.806	correct	regulate	Run3	regulate/STIM_008.jpg
2007.59	1.066	correct	regulate	Run3	regulate/STIM_008.jpg
2012.406	0.992	correct	regulate	Run3	regulate/STIM_009.jpg
2016.95	1.126	correct	regulate	Run3	regulate/STIM_009.jpg
2020.572	2.108	correct	regulate	Run3	regulate/STIM_009.jpg
2024.861	1.692	correct	regulate	Run3	regulate/STIM_009.jpg
2030.177	1.428	incorrect	regulate	Run3	regulate/STIM_010.jpg
2033.98	1.436	correct	regulate	Run3	regulate/STIM_010.jpg
2037.863	1.451	correct	regulate	Run3	regulate/STIM_010.jpg
2042.277	1.676	correct	regulate	Run3	regulate/STIM_010.jpg
2047.244	1.065	correct	regulate	Run3	regulate/STIM_011.jpg
2050.972	1.927	correct	regulate	Run3	regulate/STIM_011.jpg
2055.826	1.655	correct	regulate	Run3	regulate/STIM_011.jpg
2059.756	1.877	correct	regulate	Run3	regulate/STIM_011.jpg
2065.032	1.84	incorrect	regulate	Run3	regulate/STIM_012.jpg
2070.204	1.922	correct	regulate	Run3	regulate/STIM_012.jpg
2074.925	1.455	correct	regulate	Run3	regulate/STIM_012.jpg
2079.474	0.997	incorrect	regulate	Run3	regulate/STIM_012.jpg
2083.558	1.566	correct	regulate	Run3	regulate/STIM_013.jpg
2087.56	1.062	correct	regulate	Run3	regulate/STIM_013.jpg
2092.139	1.408	correct	regulate	Run3	regulate/STIM_013.jpg
2095.87	1.144	correct	regulate	Run3	regulate/STIM_013.jpg
2099.682	2.1	incorrect	regulate	Run3	regulate/STIM_014.jpg
2104.507	1.022	incorrect	regulate	Run3	regulate/STIM_014.jpg
2107.8	1.221	incorrect	regulate	Run3	regulate/STIM_014.jpg
2112.847	1.96	correct	regulate	Run3	regulate/STIM_014.jpg
2118.179	1.083	incorrect	regulate	Run3	regulate/STIM_015.jpg
2121.825	1.497	correct	regulate	Run3	regulate/STIM_015.jpg
2125.936	2.195	correct	regulate	Run3	regulate/STIM_015.jpg
2131.925	2.172	correct	regulate	Run3	regulate/STIM_015.jpg
2136.285	1.376	correct	regulate	Run3	regulate/STIM_016.jpg
2140.206	2.132	correct	regulate	Run3	regulate/STIM_016.jpg
2145.136	1.383	correct	regulate	Run3	regulate/STIM_016.jpg
2148.635	1.174	correct	regulate	Run3	regulate/STIM_016.jpg
2153.367	2.21	incorrect	regulate	Run3	regulate/STIM_017.jpg
2158.127	1.424	correct	regulate	Run3	regulate/STIM_017.jpg
2162.587	1.337	correct	regulate	Run3	regulate/STIM_017.jpg
2166.186	2.161	correct	regulate	Run3	regulate/STIM_017.jpg
2170.999	1.49	correct	regulate	Run3	regulate/STIM_018.jpg
2174.502	1.498	correct	regulate	Run3	regulate/STIM_018.jpg
2178.268	1.103	correct	regulate	Run3	regulate/STIM_018.jpg
2181.883	1.575	correct	regulate	Run3	regulate/STIM_018.jpg
2186.362	1.396	incorrect	regulate	Run3	regulate/STIM_019.jpg
2190.007	1.389	correct	regulate	Run3	regulate/STIM_019.jpg
2195.113	1.637	correct	regulate	Run3	regulate/STIM_019.jpg
2199.912	1.722	correct	regulate	Run3	regulate/STIM_019.jpg
2204.384	1.066	correct	regulate	Run3	regulate/STIM_020.jpg
2209.052	2.127	correct	regulate	Run3	regulate/STIM_020.jpg
2215.05	1.982	incorrect	regulate	Run3	regulate/STIM_020.jpg
2220.349	1.521	correct	regulate	Run3	regulate/STIM_020.jpg
2225.341	2.222	correct	regulate	Run3	regulate/STIM_021.jpg
2230.11	1.888	correct	regulate	Run3	regulate/STIM_021.jpg
2234.496	1.764	correct	regulate	Run3	regulate/STIM_021.jpg
2239.45	1.28	correct	regulate	Run3	regulate/STIM_021.jpg
2243.332	1.429	correct	regulate	Run3	regulate/STIM_022.jpg
2248.609	1.202	correct	regulate	Run3	regulate/STIM_022.jpg
2252.789	2.128	correct	regulate	Run3	regulate/STIM_022.jpg
2257.625	2.096	incorrect	regulate	Run3	regulate/STIM_022.jpg
2263.428	1.124	correct	regulate	Run3	regulate/STIM_023.jpg
2268.015	2.002	correct	regulate	Run3	regulate/STIM_023.jpg
2273.272	2.071	incorrect	regulate	Run3	regulate/STIM_023.jpg
2278.401	1.31	correct	regulate	Run3	regulate/STIM_023.jpg
2282.422	1.722	correct	regulate	Run3	regulate/STIM_024.jpg
2286.805	1.404	correct	regulate	Run3	regulate/STIM_024.jpg
2290.657	1.378	correct	regulate	Run3	regulate/STIM_024.jpg
2295.121	1.16	correct	regulate	Run3	regulate/STIM_024.jpg
2299.867	1.493	correct	regulate	Run3	regulate/STIM_025.jpg
2304.211	1.794	correct	regulate	Run3	regulate/STIM_025.jpg
2309.556	2.151	correct	regulate	Run3	regulate/STIM_025.jpg
2315.463	2.163	correct	regulate	Run3	regulate/STIM_025.jpg
2320.271	1.282	correct	regulate	Run3	regulate/STIM_026.jpg
2323.992	1.58	correct	regulate	Run3	regulate/STIM_026.jpg
2327.578	1.095	correct	regulate	Run3	regulate/STIM_026.jpg
2331.792	1.647	incorrect	regulate	Run3	regulate/STIM_026.jpg
2336.115	1.797	incorrect	regulate	Run3	regulate/STIM_027.jpg
2340.329	1.126	correct	regulate	Run3	regulate/STIM_027.jpg
2343.648	1.739	correct	regulate	Run3	regulate/STIM_027.jpg
2348.929	1.832	correct	regulate	Run3	regulate/STIM_027.jpg
2353.889	2.27	correct	regulate	Run3	regulate/STIM_028.jpg
2359.332	1.632	incorrect	regulate	Run3	regulate/STIM_028.jpg
2363.981	1.327	correct	regulate	Run3	regulate/STIM_028.jpg
2367.744	1.954	correct	regulate	Run3	regulate/STIM_028.jpg
2371.952	1.783	correct	regulate	Run3	regulate/STIM_029.jpg
2376.287	2.173	correct	regulate	Run3	regulate/STIM_029.jpg
2381.049	1.825	correct	regulate	Run3	regulate/STIM_029.jpg
2384.913	1.938	correct	regulate	Run3	regulate/STIM_029.jpg
2388.891	1.037	correct	observe	Run3	observe/STIM_000.jpg
2392.85	1.129	incorrect	observe	Run3	observe/STIM_000.jpg
2396.041	1.133	correct	observe	Run3	observe/STIM_000.jpg
2400.552	1.368	correct	observe	Run3	observe/STIM_000.jpg
2404.588	0.853	correct	observe	Run3	observe/STIM_001.jpg
2409.307	0.983	correct	observe	Run3	observe/STIM_001.jpg
2413.2	1.353	incorrect	observe	Run3	observe/STIM_001.jpg
2417.931	0.926	incorrect	observe	Run3	observe/STIM_001.jpg
2421.329	0.83	correct	observe	Run3	observe/STIM_002.jpg
2424.786	1.312	correct	observe	Run3	observe/STIM_002.jpg
2430.002	1.299	correct	observe	Run3	observe/STIM_002.jpg
2433.832	1.007	correct	observe	Run3	observe/STIM_002.jpg
2438.163	0.899	incorrect	observe	Run3	observe/STIM_003.jpg
2441.768	1.12	incorrect	observe	Run3	observe/STIM_003.jpg
2446.267	1.318	correct	observe	Run3	observe/STIM_003.jpg
2449.96	1.084	correct	observe	Run3	observe/STIM_003.jpg
2454.801	0.922	correct	observe	Run3	observe/STIM_004.jpg
2458.934	1.382	correct	observe	Run3	observe/STIM_004.jpg
2462.724	1.121	correct	observe	Run3	observe/STIM_004.jpg
2466.991	1.076	correct	observe	Run3	observe/STIM_004.jpg
2472.04	1.391	correct	observe	Run3	observe/STIM_005.jpg
2476.382	1.263	correct	observe	Run3	observe/STIM_005.jpg
2481.433	1.154	correct	observe	Run3	observe/STIM_005.jpg
2485.599	1.081	incorrect	observe	Run3	observe/STIM_005.jpg
2490.465	0.966	incorrect	observe	Run3	observe/STIM_006.jpg
2495.102	1.321	correct	observe	Run3	observe/STIM_006.jpg
2499.708	1.309	correct	observe	Run3	observe/STIM_006.jpg
2504.611	0.958	incorrect	observe	Run3	observe/STIM_006.jpg
2509.082	1.131	correct	observe	Run3	observe/STIM_007.jpg
2513.662	1.197	correct	observe	Run3	observe/STIM_007.jpg
2517.92	1.297	incorrect	observe	Run3	observe/STIM_007.jpg
2521.965	1.179	correct	observe	Run3	observe/STIM_007.jpg
2526.213	1.398	correct	observe	Run3	observe/STIM_008.jpg
2530.955	0.803	correct	observe	Run3	observe/STIM_008.jpg
2535.549	1.206	correct	observe	Run3	observe/STIM_008.jpg
2539.201	1.448	correct	observe	Run3	observe/STIM_008.jpg
2543.625	1.356	correct	observe	Run3	observe/STIM_009.jpg
2548.07	1.009	correct	observe	Run3	observe/STIM_009.jpg
2551.957	0.746	correct	observe	Run3	observe/STIM_009.jpg
2555.39	1.224	correct	observe	Run3	observe/STIM_009.jpg
2558.925	1.067	correct	observe	Run3	observe/STIM_010.jpg
2562.652	1.409	incorrect	observe	Run3	observe/STIM_010.jpg
2566.4	1.092	correct	observe	Run3	observe/STIM_010.jpg
2570.388	1.057	correct	observe	Run3	observe/STIM_010.jpg
2573.626	0.811	incorrect	observe	Run3	observe/STIM_011.jpg
2576.785	0.971	correct	observe	Run3	observe/STIM_011.jpg
2580.67	1.086	correct	observe	Run3	observe/STIM_011.jpg
2584.611	1.103	incorrect	observe	Run3	observe/STIM_011.jpg
2588.447	0.846	incorrect	observe	Run3	observe/STIM_012.jpg
2593.081	1.407	correct	observe	Run3	observe/STIM_012.jpg
2596.678	1.228	correct	observe	Run3	observe/STIM_012.jpg
2601.818	1.386	correct	observe	Run3	observe/STIM_012.jpg
2606.383	1.405	correct	observe	Run3	observe/STIM_013.jpg
2611.723	1.324	correct	observe	Run3	observe/STIM_013.jpg
2616.412	1.252	correct	observe	Run3	observe/STIM_013.jpg
2620.29	1.158	incorrect	observe	Run3	observe/STIM_013.jpg
2625.416	1.027	correct	observe	Run3	observe/STIM_014.jpg
2628.523	1.189	incorrect	observe	Run3	observe/STIM_014.jpg
2632.908	1.385	correct	observe	Run3	observe/STIM_014.jpg
2637.921	1.467	correct	observe	Run3	observe/STIM_014.jpg
2641.796	0.77	incorrect	observe	Run3	observe/STIM_015.jpg
2646.509	1.137	incorrect	observe	Run3	observe/STIM_015.jpg
2649.976	1.198	correct	observe	Run3	observe/STIM_015.jpg
2653.675	1.069	incorrect	observe	Run3	observe/STIM_015.jpg
2657.134	0.79	correct	observe	Run3	observe/STIM_016.jpg
2660.557	1.069	incorrect	observe	Run3	observe/STIM_016.jpg
2663.659	0.787	incorrect	observe	Run3	observe/STIM_016.jpg
2666.853	1.376	correct	observe	Run3	observe/STIM_016.jpg
2671.105	1.212	correct	observe	Run3	observe/STIM_017.jpg
2675.458	0.857	correct	observe	Run3	observe/STIM_017.jpg
2679.873	1.361	correct	observe	Run3	observe/STIM_017.jpg
2684.761	1.216	correct	observe	Run3	observe/STIM_017.jpg
2688.531	0.882	correct	observe	Run3	observe/STIM_018.jpg
2691.685	1.086	correct	observe	Run3	observe/STIM_018.jpg
2696.502	1.254	correct	observe	Run3	observe/STIM_018.jpg
2700.91	1.05	correct	observe	Run3	observe/STIM_018.jpg
2704.718	1.206	incorrect	observe	Run3	observe/STIM_019.jpg
2709.786	1.046	correct	observe	Run3	observe/STIM_019.jpg
2713.027	0.962	correct	observe	Run3	observe/STIM_019.jpg
2716.644	1.454	correct	observe	Run3	observe/STIM_019.jpg
