onset	duration	response_time_ms	trial_type	learning_stage	stimulus	response_port
0.0	3.004	3004.2	regulate	Run1	regulate/STIM_000.jpg	99
6.373	2.492	2492.4	regulate	Run1	regulate/STIM_000.jpg	100
12.137	1.658	1658.4	regulate	Run1	regulate/STIM_000.jpg	99
16.793	2.265	2265.2	regulate	Run1	regulate/STIM_000.jpg	100
22.104	3.826	3825.5	regulate	Run1	regulate/STIM_001.jpg	99
28.802	2.028	2027.7	regulate	Run1	regulate/STIM_001.jpg	99
32.791	3.525	3525.3	regulate	Run1	regulate/STIM_001.jpg	99
39.236	2.297	2296.8	regulate	Run1	regulate/STIM_001.jpg	100
44.3	3.202	3201.8	regulate	Run1	regulate/STIM_002.jpg	99
50.702	3.019	3019.3	regulate	Run1	regulate/STIM_002.jpg	99
56.147	2.12	2120.5	regulate	Run1	regulate/STIM_002.jpg	100
61.961	2.014	2013.5	regulate	Run1	regulate/STIM_002.jpg	100
67.061	2.88	2880.1	regulate	Run1	regulate/STIM_003.jpg	99
72.991	2.05	2050.4	regulate	Run1	regulate/STIM_003.jpg	100
76.934	3.284	3284.5	regulate	Run1	regulate/STIM_003.jpg	99
82.226	2.013	2013.0	regulate	Run1	regulate/STIM_003.jpg	100
86.635	1.87	1869.9	regulate	Run1	regulate/STIM_004.jpg	99
92.103	3.033	3033.2	regulate	Run1	regulate/STIM_004.jpg	100
96.973	3.076	3075.6	regulate	Run1	regulate/STIM_004.jpg	99
101.646	1.97	1969.7	regulate	Run1	regulate/STIM_004.jpg	100
106.577	2.338	2338.5	regulate	Run1	regulate/STIM_005.jpg	100
110.98	2.832	2832.0	regulate	Run1	regulate/STIM_005.jpg	100
115.589	1.576	1576.0	regulate	Run1	regulate/STIM_005.jpg	100
119.517	3.26	3259.5	regulate	Run1	regulate/STIM_005.jpg	99
125.982	3.712	3711.8	regulate	Run1	regulate/STIM_006.jpg	99
133.055	2.178	2178.2	regulate	Run1	regulate/STIM_006.jpg	99
138.542	2.939	2938.8	regulate	Run1	regulate/STIM_006.jpg	100
144.806	1.982	1981.9	regulate	Run1	regulate/STIM_006.jpg	99
150.62	3.604	3604.2	regulate	Run1	regulate/STIM_007.jpg	100
157.734	3.205	3204.6	regulate	Run1	regulate/STIM_007.jpg	100
162.477	3.385	3385.3	regulate	Run1	regulate/STIM_007.jpg	100
169.232	2.697	2697.1	regulate	Run1	regulate/STIM_007.jpg	99
174.028	1.739	1739.3	regulate	Run1	regulate/STIM_008.jpg	99
178.075	3.748	3747.5	regulate	Run1	regulate/STIM_008.jpg	100
183.458	3.449	3448.6	regulate	Run1	regulate/STIM_008.jpg	100
188.818	2.055	2054.8	regulate	Run1	regulate/STIM_008.jpg	100
194.551	2.115	2114.6	regulate	Run1	regulate/STIM_009.jpg	100
198.682	3.64	3640.1	regulate	Run1	regulate/STIM_009.jpg	99
204.409	3.421	3420.6	regulate	Run1	regulate/STIM_009.jpg	99
211.289	2.472	2471.8	regulate	Run1	regulate/STIM_009.jpg	99
216.04	3.997	3996.9	regulate	Run1	regulate/STIM_010.jpg	99
222.122	2.752	2752.5	regulate	Run1	regulate/STIM_010.jpg	99
227.73	2.884	2883.6	regulate	Run1	regulate/STIM_010.jpg	99
233.083	2.555	2555.1	regulate	Run1	regulate/STIM_010.jpg	99
237.974	2.392	2392.4	regulate	Run1	regulate/STIM_011.jpg	100
242.972	2.748	2747.9	regulate	Run1	regulate/STIM_011.jpg	99
248.516	2.352	2352.2	regulate	Run1	regulate/STIM_011.jpg	99
253.879	2.612	2612.1	regulate	Run1	regulate/STIM_011.jpg	100
260.116	3.793	3793.0	regulate	Run1	regulate/STIM_012.jpg	100
266.209	1.574	1574.1	regulate	Run1	regulate/STIM_012.jpg	99
270.26	2.95	2949.6	regulate	Run1	regulate/STIM_012.jpg	100
276.186	1.908	1908.4	regulate	Run1	regulate/STIM_012.jpg	100
280.945	3.049	3049.0	regulate	Run1	regulate/STIM_013.jpg	99
285.744	2.07	2069.6	regulate	Run1	regulate/STIM_013.jpg	100
289.888	2.034	2033.5	regulate	Run1	regulate/STIM_013.jpg	99
293.776	2.351	2350.7	regulate	Run1	regulate/STIM_013.jpg	99
298.84	3.714	3714.0	regulate	Run1	regulate/STIM_014.jpg	99
305.564	1.972	1971.5	regulate	Run1	regulate/STIM_014.jpg	100
311.155	1.824	1824.0	regulate	Run1	regulate/STIM_014.jpg	100
316.543	3.04	3039.5	regulate	Run1	regulate/STIM_014.jpg	100
321.778	2.442	2442.4	regulate	Run1	regulate/STIM_015.jpg	100
326.62	3.78	3780.2	regulate	Run1	regulate/STIM_015.jpg	100
332.303	2.45	2449.5	regulate	Run1	regulate/STIM_015.jpg	99
336.568	2.49	2489.9	regulate	Run1	regulate/STIM_015.jpg	99
341.06	3.591	3591.1	regulate	Run1	regulate/STIM_016.jpg	99
347.168	3.468	3467.9	regulate	Run1	regulate/STIM_016.jpg	100
353.049	1.782	1781.8	regulate	Run1	regulate/STIM_016.jpg	99
356.639	1.984	1984.0	regulate	Run1	regulate/STIM_016.jpg	99
362.127	2.411	2411.3	regulate	Run1	regulate/STIM_017.jpg	99
367.54	2.938	2937.7	regulate	Run1	regulate/STIM_017.jpg	99
373.919	3.146	3145.8	regulate	Run1	regulate/STIM_017.jpg	99
379.737	3.012	3012.4	regulate	Run1	regulate/STIM_017.jpg	100
386.232	3.098	3097.5	regulate	Run1	regulate/STIM_018.jpg	100
391.691	2.907	2906.7	regulate	Run1	regulate/STIM_018.jpg	99
397.791	2.524	2523.5	regulate	Run1	regulate/STIM_018.jpg	99
402.604	2.299	2298.9	regulate	Run1	regulate/STIM_018.jpg	100
407.693	3.103	3103.4	regulate	Run1	regulate/STIM_019.jpg	100
413.595	2.399	2399.3	regulate	Run1	regulate/STIM_019.jpg	100
418.358	2.814	2813.5	regulate	Run1	regulate/STIM_019.jpg	100
423.039	2.492	2492.5	regulate	Run1	regulate/STIM_019.jpg	99
427.55	1.707	1707.4	regulate	Run1	regulate/STIM_020.jpg	99
432.011	2.321	2320.8	regulate	Run1	regulate/STIM_020.jpg	99
436.856	2.437	2436.7	regulate	Run1	regulate/STIM_020.jpg	100
442.179	1.694	1693.8	regulate	Run1	regulate/STIM_020.jpg	100
447.066	2.068	2068.1	regulate	Run1	regulate/STIM_021.jpg	100
451.933	3.046	3045.8	regulate	Run1	regulate/STIM_021.jpg	99
457.969	2.212	2212.3	regulate	Run1	regulate/STIM_021.jpg	100
463.557	2.796	2796.3	regulate	Run1	regulate/STIM_021.jpg	100
469.613	2.297	2296.6	regulate	Run1	regulate/STIM_022.jpg	100
474.444	2.707	2707.1	regulate	Run1	regulate/STIM_022.jpg	99
480.379	1.64	1640.0	regulate	Run1	regulate/STIM_022.jpg	100
484.943	3.379	3379.2	regulate	Run1	regulate/STIM_022.jpg	99
491.893	2.279	2279.2	regulate	Run1	regulate/STIM_023.jpg	100
496.656	2.338	2338.0	regulate	Run1	regulate/STIM_023.jpg	99
501.059	2.302	2302.4	regulate	Run1	regulate/STIM_023.jpg	100
506.169	3.039	3039.3	regulate	Run1	regulate/STIM_023.jpg	100
511.656	2.684	2684.0	regulate	Run1	regulate/STIM_024.jpg	100
517.832	2.433	2433.2	regulate	Run1	regulate/STIM_024.jpg	99
523.007	1.674	1674.3	regulate	Run1	regulate/STIM_024.jpg	100
528.073	2.477	2477.0	regulate	Run1	regulate/STIM_024.jpg	100
533.439	2.821	2821.0	regulate	Run1	regulate/STIM_025.jpg	100
538.128	3.62	3620.1	regulate	Run1	regulate/STIM_025.jpg	100
545.239	3.323	3323.4	regulate	Run1	regulate/STIM_025.jpg	100
550.818	3.264	3264.5	regulate	Run1	regulate/STIM_025.jpg	99
556.037	3.221	3221.4	regulate	Run1	regulate/STIM_026.jpg	99
562.634	1.792	1792.0	regulate	Run1	regulate/STIM_026.jpg	100
568.007	2.15	2150.2	regulate	Run1	regulate/STIM_026.jpg	99
572.426	2.636	2635.7	regulate	Run1	regulate/STIM_026.jpg	99
578.205	1.869	1869.0	regulate	Run1	regulate/STIM_027.jpg	100
583.176	3.302	3301.5	regulate	Run1	regulate/STIM_027.jpg	99
588.988	1.912	1912.3	regulate	Run1	regulate/STIM_027.jpg	99
593.322	1.545	1545.2	regulate	Run1	regulate/STIM_027.jpg	100
598.607	3.394	3393.9	regulate	Run1	regulate/STIM_028.jpg	99
605.494	1.865	1865.1	regulate	Run1	regulate/STIM_028.jpg	99
609.592	2.231	2231.0	regulate	Run1	regulate/STIM_028.jpg	100
615.499	1.655	1655.3	regulate	Run1	regulate/STIM_028.jpg	100
620.008	4.013	4012.6	regulate	Run1	regulate/STIM_029.jpg	100
625.993	1.828	1827.7	regulate	Run1	regulate/STIM_029.jpg	99
630.862	2.347	2346.7	regulate	Run1	regulate/STIM_029.jpg	99
635.109	3.344	3344.4	regulate	Run1	regulate/STIM_029.jpg	100
640.267	1.446	1446.1	observe	Run1	observe/STIM_000.jpg	99
644.329	1.038	1038.3	observe	Run1	observe/STIM_000.jpg	100
647.367	0.948	948.2	observe	Run1	observe/STIM_000.jpg	100
651.167	1.498	1498.2	observe	Run1	observe/STIM_000.jpg	99
655.721	1.347	1347.4	observe	Run1	observe/STIM_001.jpg	100
660.116	1.536	1535.6	observe	Run1	observe/STIM_001.jpg	100
664.713	1.646	1646.5	observe	Run1	observe/STIM_001.jpg	100
668.686	1.636	1635.9	observe	Run1	observe/STIM_001.jpg	99
674.021	1.819	1819.0	observe	Run1	observe/STIM_002.jpg	99
678.039	1.391	1391.3	observe	Run1	observe/STIM_002.jpg	100
682.589	1.147	1146.6	observe	Run1	observe/STIM_002.jpg	99
687.139	1.318	1317.8	observe	Run1	observe/STIM_002.jpg	100
691.045	1.304	1303.9	observe	Run1	observe/STIM_003.jpg	100
694.594	1.031	1031.3	observe	Run1	observe/STIM_003.jpg	99
698.307	1.344	1344.0	observe	Run1	observe/STIM_003.jpg	99
703.282	0.95	949.6	observe	Run1	observe/STIM_003.jpg	100
706.816	1.103	1102.8	observe	Run1	observe/STIM_004.jpg	100
711.088	0.972	972.1	observe	Run1	observe/STIM_004.jpg	99
715.01	0.996	996.5	observe	Run1	observe/STIM_004.jpg	100
719.706	1.07	1070.1	observe	Run1	observe/STIM_004.jpg	100
724.474	1.334	1333.8	observe	Run1	observe/STIM_005.jpg	100
728.673	1.631	1631.2	observe	Run1	observe/STIM_005.jpg	100
732.209	1.297	1296.7	observe	Run1	observe/STIM_005.jpg	99
735.891	1.092	1092.5	observe	Run1	observe/STIM_005.jpg	99
740.627	1.465	1464.7	observe	Run1	observe/STIM_006.jpg	100
745.157	1.247	1246.6	observe	Run1	observe/STIM_006.jpg	100
748.961	1.068	1067.7	observe	Run1	observe/STIM_006.jpg	99
753.837	1.351	1351.0	observe	Run1	observe/STIM_006.jpg	100
758.725	1.606	1606.0	observe	Run1	observe/STIM_007.jpg	99
763.165	1.655	1654.6	observe	Run1	observe/STIM_007.jpg	100
768.295	1.618	1618.3	observe	Run1	observe/STIM_007.jpg	99
773.524	1.085	1085.3	observe	Run1	observe/STIM_007.jpg	100
778.373	1.734	1734.5	observe	Run1	observe/STIM_008.jpg	100
783.786	0.884	883.7	observe	Run1	observe/STIM_008.jpg	100
788.549	1.863	1862.7	observe	Run1	observe/STIM_008.jpg	99
792.746	1.062	1061.5	observe	Run1	observe/STIM_008.jpg	99
797.625	1.16	1159.7	observe	Run1	observe/STIM_009.jpg	100
801.717	0.957	957.2	observe	Run1	observe/STIM_009.jpg	99
805.96	1.542	1541.7	observe	Run1	observe/STIM_009.jpg	99
811.339	1.775	1775.0	observe	Run1	observe/STIM_009.jpg	100
816.015	1.231	1231.0	observe	Run1	observe/STIM_010.jpg	99
820.754	0.963	963.4	observe	Run1	observe/STIM_010.jpg	99
823.611	1.22	1220.4	observe	Run1	observe/STIM_010.jpg	100
827.713	1.783	1783.4	observe	Run1	observe/STIM_010.jpg	100
831.785	1.17	1170.2	observe	Run1	observe/STIM_011.jpg	100
836.121	1.139	1138.9	observe	Run1	observe/STIM_011.jpg	99
839.288	1.162	1161.7	observe	Run1	observe/STIM_011.jpg	100
843.215	1.194	1194.3	observe	Run1	observe/STIM_011.jpg	99
848.068	1.58	1580.2	observe	Run1	observe/STIM_012.jpg	99
853.041	1.028	1028.3	observe	Run1	observe/STIM_012.jpg	100
857.777	1.415	1415.0	observe	Run1	observe/STIM_012.jpg	99
862.655	1.722	1721.9	observe	Run1	observe/STIM_012.jpg	99
866.659	1.038	1038.5	observe	Run1	observe/STIM_013.jpg	99
870.815	1.378	1378.5	observe	Run1	observe/STIM_013.jpg	100
875.936	1.744	1744.4	observe	Run1	observe/STIM_013.jpg	100
879.656	1.726	1726.1	observe	Run1	observe/STIM_013.jpg	99
884.956	1.18	1179.5	observe	Run1	observe/STIM_014.jpg	99
888.413	0.99	989.6	observe	Run1	observe/STIM_014.jpg	100
892.397	1.187	1186.7	observe	Run1	observe/STIM_014.jpg	99
895.781	1.231	1231.0	observe	Run1	observe/STIM_014.jpg	100
899.955	1.568	1567.7	observe	Run1	observe/STIM_015.jpg	100
904.621	1.702	1702.1	observe	Run1	observe/STIM_015.jpg	100
908.933	1.296	1296.2	observe	Run1	observe/STIM_015.jpg	99
913.935	1.344	1344.0	observe	Run1	observe/STIM_015.jpg	99
917.703	1.714	1714.2	observe	Run1	observe/STIM_016.jpg	100
922.956	1.836	1836.3	observe	Run1	observe/STIM_016.jpg	99
927.263	1.065	1064.7	observe	Run1	observe/STIM_016.jpg	100
931.44	1.541	1541.0	observe	Run1	observe/STIM_016.jpg	99
936.684	1.568	1567.8	observe	Run1	observe/STIM_017.jpg	99
941.693	0.968	967.9	observe	Run1	observe/STIM_017.jpg	100
945.788	1.104	1104.2	observe	Run1	observe/STIM_017.jpg	99
950.264	1.581	1581.1	observe	Run1	observe/STIM_017.jpg	100
954.969	1.078	1077.6	observe	Run1	observe/STIM_018.jpg	100
958.72	1.106	1105.5	observe	Run1	observe/STIM_018.jpg	100
962.85	1.506	1506.4	observe	Run1	observe/STIM_018.jpg	99
967.22	1.338	1338.2	observe	Run1	observe/STIM_018.jpg	100
971.843	1.269	1268.8	observe	Run1	observe/STIM_019.jpg	100
975.681	1.1	1099.7	observe	Run1	observe/STIM_019.jpg	100
978.723	1.5	1499.5	observe	Run1	observe/STIM_019.jpg	100
982.858	1.182	1181.6	observe	Run1	observe/STIM_019.jpg	99
987.851	1.623	1622.8	regulate	Run2	regulate/STIM_000.jpg	99
991.562	2.242	2241.8	regulate	Run2	regulate/STIM_000.jpg	99
996.73	1.675	1675.2	regulate	Run2	regulate/STIM_000.jpg	100
1001.546	1.469	1469.2	regulate	Run2	regulate/STIM_000.jpg	99
1006.399	2.853	2853.3	regulate	Run2	regulate/STIM_001.jpg	99
1011.341	2.368	2368.0	regulate	Run2	regulate/STIM_001.jpg	100
1017.365	2.689	2689.2	regulate	Run2	regulate/STIM_001.jpg	100
1023.111	2.183	2182.7	regulate	Run2	regulate/STIM_001.jpg	100
1028.388	2.183	2183.1	regulate	Run2	regulate/STIM_002.jpg	100
1034.242	2.411	2411.0	regulate	Run2	regulate/STIM_002.jpg	100
1039.5	1.51	1509.5	regulate	Run2	regulate/STIM_002.jpg	99
1043.792	1.256	1255.9	regulate	Run2	regulate/STIM_002.jpg	99
1047.788	2.648	2647.5	regulate	Run2	regulate/STIM_003.jpg	99
1053.454	1.375	1374.9	regulate	Run2	regulate/STIM_003.jpg	100
1058.566	2.468	2467.8	regulate	Run2	regulate/STIM_003.jpg	100
1064.306	1.359	1359.3	regulate	Run2	regulate/STIM_003.jpg	99
1068.387	1.953	1952.6	regulate	Run2	regulate/STIM_004.jpg	99
1072.894	2.09	2090.3	regulate	Run2	regulate/STIM_004.jpg	100
1077.662	2.436	2435.5	regulate	Run2	regulate/STIM_004.jpg	99
1083.378	1.228	1228.0	regulate	Run2	regulate/STIM_004.jpg	99
1088.41	1.565	1564.6	regulate	Run2	regulate/STIM_005.jpg	99
1093.095	1.87	1870.2	regulate	Run2	regulate/STIM_005.jpg	99
1096.996	1.598	1597.8	regulate	Run2	regulate/STIM_005.jpg	99
1100.639	1.367	1367.2	regulate	Run2	regulate/STIM_005.jpg	99
1104.622	3.394	3394.2	regulate	Run2	regulate/STIM_006.jpg	100
1110.621	1.752	1752.4	regulate	Run2	regulate/STIM_006.jpg	100
1114.685	1.697	1697.2	regulate	Run2	regulate/STIM_006.jpg	99
1119.852	1.432	1432.1	regulate	Run2	regulate/STIM_006.jpg	100
1125.084	2.197	2197.1	regulate	Run2	regulate/STIM_007.jpg	100
1129.54	2.328	2327.7	regulate	Run2	regulate/STIM_007.jpg	100
1134.117	2.827	2827.4	regulate	Run2	regulate/STIM_007.jpg	99
1138.959	2.823	2822.8	regulate	Run2	regulate/STIM_007.jpg	99
1144.975	1.776	1776.1	regulate	Run2	regulate/STIM_008.jpg	100
1149.934	2.707	2706.7	regulate	Run2	regulate/STIM_008.jpg	100
1155.175	2.833	2833.1	regulate	Run2	regulate/STIM_008.jpg	100
1159.998	2.244	2243.7	regulate	Run2	regulate/STIM_008.jpg	99
1164.567	2.785	2784.9	regulate	Run2	regulate/STIM_009.jpg	99
1169.444	3.031	3030.9	regulate	Run2	regulate/STIM_009.jpg	100
1174.156	2.15	2149.7	regulate	Run2	regulate/STIM_009.jpg	99
1178.473	1.676	1675.6	regulate	Run2	regulate/STIM_009.jpg	99
1181.971	1.928	1927.7	regulate	Run2	regulate/STIM_010.jpg	100
1187.196	1.994	1993.6	regulate	Run2	regulate/STIM_010.jpg	100
1191.259	2.806	2806.0	regulate	Run2	regulate/STIM_010.jpg	99
1195.901	1.367	1366.8	regulate	Run2	regulate/STIM_010.jpg	99
1200.536	1.618	1618.3	regulate	Run2	regulate/STIM_011.jpg	100
1204.947	1.946	1946.1	regulate	Run2	regulate/STIM_011.jpg	100
1210.045	2.293	2293.3	regulate	Run2	regulate/STIM_011.jpg	100
1215.027	1.525	1525.4	regulate	Run2	regulate/STIM_011.jpg	99
1219.967	2.65	2650.0	regulate	Run2	regulate/STIM_012.jpg	99
1226.162	1.384	1384.1	regulate	Run2	regulate/STIM_012.jpg	100
1230.652	2.788	2787.6	regulate	Run2	regulate/STIM_012.jpg	99
1235.871	1.244	1244.4	regulate	Run2	regulate/STIM_012.jpg	100
1239.002	2.461	2461.2	regulate	Run2	regulate/STIM_013.jpg	100
1243.932	2.687	2686.6	regulate	Run2	regulate/STIM_013.jpg	99
1248.999	1.65	1649.7	regulate	Run2	regulate/STIM_013.jpg	100
1253.885	1.279	1278.8	regulate	Run2	regulate/STIM_013.jpg	100
1257.245	3.12	3119.8	regulate	Run2	regulate/STIM_014.jpg	100
1262.148	1.463	1463.2	regulate	Run2	regulate/STIM_014.jpg	99
1266.143	1.722	1721.5	regulate	Run2	regulate/STIM_014.jpg	100
1270.699	2.499	2498.7	regulate	Run2	regulate/STIM_014.jpg	99
1275.774	1.887	1886.6	regulate	Run2	regulate/STIM_015.jpg	99
1281.261	2.595	2595.1	regulate	Run2	regulate/STIM_015.jpg	100
1286.869	2.762	2761.9	regulate	Run2	regulate/STIM_015.jpg	99
1291.759	2.12	2120.2	regulate	Run2	regulate/STIM_015.jpg	99
1296.148	2.446	2446.3	regulate	Run2	regulate/STIM_016.jpg	100
1301.602	1.564	1563.7	regulate	Run2	regulate/STIM_016.jpg	100
1305.403	1.565	1565.4	regulate	Run2	regulate/STIM_016.jpg	100
1309.67	2.613	2613.1	regulate	Run2	regulate/STIM_016.jpg	100
1315.02	3.287	3287.2	regulate	Run2	regulate/STIM_017.jpg	100
1320.345	2.026	2026.5	regulate	Run2	regulate/STIM_017.jpg	100
1324.144	2.56	2559.5	regulate	Run2	regulate/STIM_017.jpg	99
1328.633	1.375	1374.6	regulate	Run2	regulate/STIM_017.jpg	99
1333.448	3.084	3083.9	regulate	Run2	regulate/STIM_018.jpg	100
1338.573	1.881	1881.4	regulate	Run2	regulate/STIM_018.jpg	99
1344.133	2.653	2653.1	regulate	Run2	regulate/STIM_018.jpg	100
1349.52	1.837	1836.9	regulate	Run2	regulate/STIM_018.jpg	99
1354.59	1.678	1678.2	regulate	Run2	regulate/STIM_019.jpg	100
1359.648	2.428	2427.5	regulate	Run2	regulate/STIM_019.jpg	99
1365.187	1.931	1931.2	regulate	Run2	regulate/STIM_019.jpg	99
1369.752	1.648	1648.0	regulate	Run2	regulate/STIM_019.jpg	100
1373.432	2.942	2941.5	regulate	Run2	regulate/STIM_020.jpg	99
1379.619	3.059	3059.2	regulate	Run2	regulate/STIM_020.jpg	99
1384.637	1.45	1450.5	regulate	Run2	regulate/STIM_020.jpg	100
1389.125	2.475	2474.8	regulate	Run2	regulate/STIM_020.jpg	99
1394.411	3.076	3076.5	regulate	Run2	regulate/STIM_021.jpg	100
1400.736	1.763	1763.2	regulate	Run2	regulate/STIM_021.jpg	99
1405.533	1.576	1575.8	regulate	Run2	regulate/STIM_021.jpg	100
1409.493	1.41	1410.5	regulate	Run2	regulate/STIM_021.jpg	100
1413.623	2.505	2505.0	regulate	Run2	regulate/STIM_022.jpg	100
1419.421	1.868	1867.9	regulate	Run2	regulate/STIM_022.jpg	100
1423.977	2.423	2422.6	regulate	Run2	regulate/STIM_022.jpg	100
1428.583	2.554	2554.2	regulate	Run2	regulate/STIM_022.jpg	99
1434.068	1.459	1458.6	regulate	Run2	regulate/STIM_023.jpg	99
1438.503	2.898	2898.1	regulate	Run2	regulate/STIM_023.jpg	100
1443.515	2.084	2083.9	regulate	Run2	regulate/STIM_023.jpg	100
1448.309	2.238	2238.3	regulate	Run2	regulate/STIM_023.jpg	99
1452.709	2.664	2664.2	regulate	Run2	regulate/STIM_024.jpg	99
1458.17	2.673	2672.8	regulate	Run2	regulate/STIM_024.jpg	99
1463.682	2.828	2828.1	regulate	Run2	regulate/STIM_024.jpg	100
1468.906	1.799	1798.6	regulate	Run2	regulate/STIM_024.jpg	100
1472.55	1.957	1957.3	regulate	Run2	regulate/STIM_025.jpg	100
1476.579	1.539	1539.1	regulate	Run2	regulate/STIM_025.jpg	100
1480.956	2.105	2104.7	regulate	Run2	regulate/STIM_025.jpg	100
1485.983	2.742	2742.5	regulate	Run2	regulate/STIM_025.jpg	99
1490.84	2.537	2537.3	regulate	Run2	regulate/STIM_026.jpg	100
1495.764	2.414	2414.4	regulate	Run2	regulate/STIM_026.jpg	100
1501.25	2.753	2752.8	regulate	Run2	regulate/STIM_026.jpg	99
1507.324	2.516	2515.6	regulate	Run2	regulate/STIM_026.jpg	100
1511.694	2.506	2506.5	regulate	Run2	regulate/STIM_027.jpg	100
1517.219	2.854	2853.5	regulate	Run2	regulate/STIM_027.jpg	100
1522.485	1.455	1455.2	regulate	Run2	regulate/STIM_027.jpg	99
1526.369	2.545	2545.1	regulate	Run2	regulate/STIM_027.jpg	100
1531.043	3.321	3321.4	regulate	Run2	regulate/STIM_028.jpg	99
1536.845	2.034	2033.5	regulate	Run2	regulate/STIM_028.jpg	100
1542.685	2.291	2291.2	regulate	Run2	regulate/STIM_028.jpg	99
1548.66	1.874	1874.3	regulate	Run2	regulate/STIM_028.jpg	99
1552.663	1.865	1864.6	regulate	Run2	regulate/STIM_029.jpg	100
1557.613	2.895	2894.7	regulate	Run2	regulate/STIM_029.jpg	99
1563.319	1.628	1628.0	regulate	Run2	regulate/STIM_029.jpg	99
1567.549	2.421	2421.3	regulate	Run2	regulate/STIM_029.jpg	100
1572.507	1.51	1510.2	observe	Run2	observe/STIM_000.jpg	99
1576.898	1.418	1418.2	observe	Run2	observe/STIM_000.jpg	99
1581.22	1.042	1042.0	observe	Run2	observe/STIM_000.jpg	100
1585.309	1.712	1712.4	observe	Run2	observe/STIM_000.jpg	99
1589.065	1.11	1110.3	observe	Run2	observe/STIM_001.jpg	99
1593.091	1.549	1548.8	observe	Run2	observe/STIM_001.jpg	99
1596.638	1.107	1107.4	observe	Run2	observe/STIM_001.jpg	99
1600.516	1.609	1609.4	observe	Run2	observe/STIM_001.jpg	100
1604.247	1.453	1453.1	observe	Run2	observe/STIM_002.jpg	100
1609.529	1.15	1149.9	observe	Run2	observe/STIM_002.jpg	100
1612.726	1.172	1171.9	observe	Run2	observe/STIM_002.jpg	99
1616.62	1.309	1309.1	observe	Run2	observe/STIM_002.jpg	99
1621.408	1.16	1159.6	observe	Run2	observe/STIM_003.jpg	100
1625.689	1.333	1332.9	observe	Run2	observe/STIM_003.jpg	100
1630.334	1.369	1368.9	observe	Run2	observe/STIM_003.jpg	100
1633.794	1.515	1514.9	observe	Run2	observe/STIM_003.jpg	99
1638.767	1.272	1272.2	observe	Run2	observe/STIM_004.jpg	100
1643.43	1.722	1722.4	observe	Run2	observe/STIM_004.jpg	100
1646.948	1.005	1005.2	observe	Run2	observe/STIM_004.jpg	100
1650.088	1.626	1625.8	observe	Run2	observe/STIM_004.jpg	99
1654.036	1.02	1019.8	observe	Run2	observe/STIM_005.jpg	100
1657.452	1.666	1666.5	observe	Run2	observe/STIM_005.jpg	99
1660.979	0.935	934.9	observe	Run2	observe/STIM_005.jpg	99
1665.504	1.178	1178.1	observe	Run2	observe/STIM_005.jpg	100
1668.636	0.97	969.6	observe	Run2	observe/STIM_006.jpg	99
1673.166	1.4	1400.5	observe	Run2	observe/STIM_006.jpg	99
1677.4	1.459	1458.7	observe	Run2	observe/STIM_006.jpg	100
1682.638	1.709	1709.1	observe	Run2	observe/STIM_006.jpg	99
1686.226	1.548	1547.7	observe	Run2	observe/STIM_007.jpg	100
1690.423	1.006	1006.5	observe	Run2	observe/STIM_007.jpg	100
1693.495	1.524	1524.5	observe	Run2	observe/STIM_007.jpg	99
1698.004	1.365	1365.1	observe	Run2	observe/STIM_007.jpg	100
1702.461	1.148	1148.5	observe	Run2	observe/STIM_008.jpg	100
1706.836	1.201	1201.4	observe	Run2	observe/STIM_008.jpg	100
1711.541	1.158	1157.8	observe	Run2	observe/STIM_008.jpg	100
1715.907	0.931	930.8	observe	Run2	observe/STIM_008.jpg	100
1719.346	1.374	1374.1	observe	Run2	observe/STIM_009.jpg	100
1724.025	1.593	1592.9	observe	Run2	observe/STIM_009.jpg	99
1728.737	1.236	1236.4	observe	Run2	observe/STIM_009.jpg	99
1732.522	1.684	1683.6	observe	Run2	observe/STIM_009.jpg	100
1737.834	1.421	1421.4	observe	Run2	observe/STIM_010.jpg	99
1741.93	1.28	1280.0	observe	Run2	observe/STIM_010.jpg	99
1745.54	0.987	987.1	observe	Run2	observe/STIM_010.jpg	99
1750.297	1.283	1282.8	observe	Run2	observe/STIM_010.jpg	100
1754.875	1.019	1019.0	observe	Run2	observe/STIM_011.jpg	100
1759.653	1.476	1475.8	observe	Run2	observe/STIM_011.jpg	100
1764.313	0.981	981.1	observe	Run2	observe/STIM_011.jpg	99
1768.04	1.864	1864.3	observe	Run2	observe/STIM_011.jpg	99
1771.775	1.254	1253.7	observe	Run2	observe/STIM_012.jpg	100
1776.272	1.452	1451.8	observe	Run2	observe/STIM_012.jpg	100
1779.643	1.665	1664.9	observe	Run2	observe/STIM_012.jpg	99
1784.383	0.895	894.9	observe	Run2	observe/STIM_012.jpg	99
1788.432	1.741	1741.0	observe	Run2	observe/STIM_013.jpg	100
1793.679	1.863	1863.4	observe	Run2	observe/STIM_013.jpg	99
1798.948	1.609	1609.4	observe	Run2	observe/STIM_013.jpg	100
1803.47	1.366	1366.5	observe	Run2	observe/STIM_013.jpg	99
1807.722	1.741	1740.7	observe	Run2	observe/STIM_014.jpg	100
1811.209	1.539	1538.9	observe	Run2	observe/STIM_014.jpg	100
1815.282	1.246	1246.3	observe	Run2	observe/STIM_014.jpg	99
1819.941	1.129	1128.8	observe	Run2	observe/STIM_014.jpg	99
1824.565	1.687	1687.0	observe	Run2	observe/STIM_015.jpg	100
1830.049	1.131	1130.9	observe	Run2	observe/STIM_015.jpg	99
1833.338	1.218	1217.7	observe	Run2	observe/STIM_015.jpg	99
1837.111	1.279	1278.8	observe	Run2	observe/STIM_015.jpg	99
1841.955	1.333	1332.6	observe	Run2	observe/STIM_016.jpg	99
1846.082	1.829	1829.2	observe	Run2	observe/STIM_016.jpg	99
1849.8	1.374	1374.2	observe	Run2	observe/STIM_016.jpg	100
1854.114	1.281	1280.8	observe	Run2	observe/STIM_016.jpg	100
1857.245	1.468	1467.8	observe	Run2	observe/STIM_017.jpg	100
1862.545	1.297	1296.7	observe	Run2	observe/STIM_017.jpg	100
1866.047	1.034	1033.6	observe	Run2	observe/STIM_017.jpg	99
1869.566	1.725	1724.6	observe	Run2	observe/STIM_017.jpg	100
1874.707	1.685	1685.3	observe	Run2	observe/STIM_018.jpg	100
1878.408	1.687	1686.6	observe	Run2	observe/STIM_018.jpg	99
1883.026	1.393	1392.6	observe	Run2	observe/STIM_018.jpg	100
1886.254	1.371	1371.3	observe	Run2	observe/STIM_018.jpg	99
1890.482	1.601	1601.1	observe	Run2	observe/STIM_019.jpg	99
1894.667	1.182	1181.8	observe	Run2	observe/STIM_019.jpg	99
1899.565	1.303	1303.0	observe	Run2	observe/STIM_019.jpg	100
1903.682	1.719	1719.2	observe	Run2	observe/STIM_019.jpg	100
1908.067	2.032	2032.2	regulate	Run3	regulate/STIM_000.jpg	100
1913.707	2.682	2681.6	regulate	Run3	regulate/STIM_000.jpg	99
1919.294	1.594	1594.1	regulate	Run3	regulate/STIM_000.jpg	99
1923.947	2.527	2527.0	regulate	Run3	regulate/STIM_000.jpg	100
1928.461	1.533	1533.1	regulate	Run3	regulate/STIM_001.jpg	99
1933.711	2.605	2605.0	regulate	Run3	regulate/STIM_001.jpg	99
1938.942	1.946	1946.5	regulate	Run3	regulate/STIM_001.jpg	99
1942.983	2.095	2095.1	regulate	Run3	regulate/STIM_001.jpg	99
1948.649	1.664	1664.3	regulate	Run3	regulate/STIM_002.jpg	100
1952.968	2.18	2180.1	regulate	Run3	regulate/STIM_002.jpg	100
1958.766	1.757	1757.3	regulate	Run3	regulate/STIM_002.jpg	100
1963.736	1.996	1995.7	regulate	Run3	regulate/STIM_002.jpg	100
1969.097	1.526	1526.2	regulate	Run3	regulate/STIM_003.jpg	99
1973.306	2.622	2622.3	regulate	Run3	regulate/STIM_003.jpg	100
1978.373	1.621	1620.7	regulate	Run3	regulate/STIM_003.jpg	100
1982.134	1.902	1901.9	regulate	Run3	regulate/STIM_003.jpg	100
1987.439	2.406	2405.5	regulate	Run3	regulate/STIM_004.jpg	99
1991.709	2.602	2602.1	regulate	Run3	regulate/STIM_004.jpg	99
1996.524	1.896	1896.1	regulate	Run3	regulate/STIM_004.jpg	100
2000.972	1.485	1485.4	regulate	Run3	regulate/STIM_004.jpg	99
2006.111	2.706	2705.5	regulate	Run3	regulate/STIM_005.jpg	100
2010.587	1.886	1886.1	regulate	Run3	regulate/STIM_005.jpg	99
2015.768	2.159	2158.8	regulate	Run3	regulate/STIM_005.jpg	100
2021.266	2.278	2278.3	regulate	Run3	regulate/STIM_005.jpg	99
2026.496	1.73	1729.8	regulate	Run3	regulate/STIM_006.jpg	99
2031.825	1.81	1810.5	regulate	Run3	regulate/STIM_006.jpg	100
2036.698	2.806	2805.8	regulate	Run3	regulate/STIM_006.jpg	100
2042.214	1.624	1623.8	regulate	Run3	regulate/STIM_006.jpg	100
2046.397	2.364	2363.9	regulate	Run3	regulate/STIM_007.jpg	99
2051.032	1.349	1348.9	regulate	Run3	regulate/STIM_007.jpg	100
2055.436	2.374	2373.5	regulate	Run3	regulate/STIM_007.jpg	100
2059.726	1.358	1357.5	regulate	Run3	regulate/STIM_007.jpg	100
2064.257	1.418	1418.5	regulate	Run3	regulate/STIM_008.jpg	100
2069.105	2.559	2559.2	regulate	Run3	regulate/STIM_008.jpg	100
2073.613	1.598	1598.0	regulate	Run3	regulate/STIM_008.jpg	99
2077.311	1.394	1394.0	regulate	Run3	regulate/STIM_008.jpg	100
2081.139	1.755	1755.2	regulate	Run3	regulate/STIM_009.jpg	99
2084.915	1.375	1375.0	regulate	Run3	regulate/STIM_009.jpg	99
2088.177	1.507	1507.4	regulate	Run3	regulate/STIM_009.jpg	100
2092.588	2.451	2450.8	regulate	Run3	regulate/STIM_009.jpg	100
2097.459	1.453	1453.0	regulate	Run3	regulate/STIM_010.jpg	99
2101.244	2.162	2162.4	regulate	Run3	regulate/STIM_010.jpg	99
2106.402	1.63	1630.1	regulate	Run3	regulate/STIM_010.jpg	99
2110.828	2.814	2814.1	regulate	Run3	regulate/STIM_010.jpg	100
2116.854	1.577	1576.7	regulate	Run3	regulate/STIM_011.jpg	100
2120.867	1.958	1958.5	regulate	Run3	regulate/STIM_011.jpg	99
2126.49	1.75	1750.5	regulate	Run3	regulate/STIM_011.jpg	100
2131.651	2.298	2297.7	regulate	Run3	regulate/STIM_011.jpg	100
2136.558	1.441	1441.1	regulate	Run3	regulate/STIM_012.jpg	99
2140.943	1.994	1993.9	regulate	Run3	regulate/STIM_012.jpg	100
2146.308	2.481	2481.0	regulate	Run3	regulate/STIM_012.jpg	99
2150.89	1.597	1596.6	regulate	Run3	regulate/STIM_012.jpg	99
2154.91	2.53	2530.1	regulate	Run3	regulate/STIM_013.jpg	99
2160.141	1.238	1238.1	regulate	Run3	regulate/STIM_013.jpg	100
2164.124	2.453	2452.9	regulate	Run3	regulate/STIM_013.jpg	99
2168.356	1.668	1668.1	regulate	Run3	regulate/STIM_013.jpg	99
2173.289	1.38	1379.7	regulate	Run3	regulate/STIM_014.jpg	99
2177.878	2.641	2641.0	regulate	Run3	regulate/STIM_014.jpg	99
2183.39	2.395	2394.9	regulate	Run3	regulate/STIM_014.jpg	99
2188.424	1.62	1619.6	regulate	Run3	regulate/STIM_014.jpg	100
2192.228	1.574	1574.0	regulate	Run3	regulate/STIM_015.jpg	99
2197.38	1.973	1973.2	regulate	Run3	regulate/STIM_015.jpg	100
2201.386	2.564	2564.1	regulate	Run3	regulate/STIM_015.jpg	100
2205.703	1.34	1339.5	regulate	Run3	regulate/STIM_015.jpg	100
2210.903	2.566	2565.9	regulate	Run3	regulate/STIM_016.jpg	100
2215.216	2.584	2583.8	regulate	Run3	regulate/STIM_016.jpg	99
2220.843	1.677	1677.4	regulate	Run3	regulate/STIM_016.jpg	100
2226.06	2.094	2093.7	regulate	Run3	regulate/STIM_016.jpg	100
2231.901	2.843	2843.2	regulate	Run3	regulate/STIM_017.jpg	99
2237.478	2.297	2296.7	regulate	Run3	regulate/STIM_017.jpg	99
2242.223	1.376	1376.3	regulate	Run3	regulate/STIM_017.jpg	100
2246.492	2.742	2741.8	regulate	Run3	regulate/STIM_017.jpg	99
2252.742	1.782	1782.5	regulate	Run3	regulate/STIM_018.jpg	100
2256.653	2.266	2266.0	regulate	Run3	regulate/STIM_018.jpg	99
2262.514	1.696	1696.2	regulate	Run3	regulate/STIM_018.jpg	100
2266.073	1.909	1908.9	regulate	Run3	regulate/STIM_018.jpg	99
2270.688	1.407	1407.1	regulate	Run3	regulate/STIM_019.jpg	100
2275.285	2.332	2331.5	regulate	Run3	regulate/STIM_019.jpg	99
2280.264	2.755	2755.4	regulate	Run3	regulate/STIM_019.jpg	100
2284.91	1.429	1429.3	regulate	Run3	regulate/STIM_019.jpg	100
2289.846	2.269	2268.6	regulate	Run3	regulate/STIM_020.jpg	99
2295.13	1.73	1729.8	regulate	Run3	regulate/STIM_020.jpg	100
2300.267	1.388	1387.5	regulate	Run3	regulate/STIM_020.jpg	100
2304.466	2.504	2504.0	regulate	Run3	regulate/STIM_020.jpg	100
2309.768	1.97	1970.2	regulate	Run3	regulate/STIM_021.jpg	99
2314.104	1.862	1862.5	regulate	Run3	regulate/STIM_021.jpg	99
2317.649	1.836	1835.8	regulate	Run3	regulate/STIM_021.jpg	99
2322.802	2.508	2508.5	regulate	Run3	regulate/STIM_021.jpg	99
2327.055	2.531	2531.1	regulate	Run3	regulate/STIM_022.jpg	100
2332.115	2.707	2706.9	regulate	Run3	regulate/STIM_022.jpg	100
2337.225	1.65	1649.9	regulate	Run3	regulate/STIM_022.jpg	99
2340.954	1.322	1321.6	regulate	Run3	regulate/STIM_022.jpg	99
2345.055	2.649	2648.6	regulate	Run3	regulate/STIM_023.jpg	99
2349.987	1.51	1510.0	regulate	Run3	regulate/STIM_023.jpg	99
2354.446	2.31	2309.6	regulate	Run3	regulate/STIM_023.jpg	100
2359.36	2.298	2297.9	regulate	Run3	regulate/STIM_023.jpg	99
2363.765	1.268	1267.7	regulate	Run3	regulate/STIM_024.jpg	99
2368.061	1.96	1959.5	regulate	Run3	regulate/STIM_024.jpg	99
2372.737	2.6	2599.7	regulate	Run3	regulate/STIM_024.jpg	99
2377.675	2.567	2566.9	regulate	Run3	regulate/STIM_024.jpg	100
2383.477	2.412	2412.3	regulate	Run3	regulate/STIM_025.jpg	100
2388.709	1.746	1746.2	regulate	Run3	regulate/STIM_025.jpg	100
2393.743	1.695	1694.8	regulate	Run3	regulate/STIM_025.jpg	100
2398.912	1.43	1429.7	regulate	Run3	regulate/STIM_025.jpg	99
2402.94	1.509	1509.2	regulate	Run3	regulate/STIM_026.jpg	100
2406.865	2.53	2530.4	regulate	Run3	regulate/STIM_026.jpg	100
2411.857	2.008	2008.3	regulate	Run3	regulate/STIM_026.jpg	100
2415.682	1.872	1871.7	regulate	Run3	regulate/STIM_026.jpg	99
2421.237	1.941	1940.7	regulate	Run3	regulate/STIM_027.jpg	99
2426.819	2.603	2602.6	regulate	Run3	regulate/STIM_027.jpg	99
2431.791	2.598	2597.8	regulate	Run3	regulate/STIM_027.jpg	100
2436.533	1.996	1996.4	regulate	Run3	regulate/STIM_027.jpg	99
2440.788	2.506	2506.5	regulate	Run3	regulate/STIM_028.jpg	99
2445.355	1.972	1971.6	regulate	Run3	regulate/STIM_028.jpg	100
2450.529	2.554	2554.5	regulate	Run3	regulate/STIM_028.jpg	99
2454.968	2.363	2362.6	regulate	Run3	regulate/STIM_028.jpg	100
2459.777	1.345	1345.1	regulate	Run3	regulate/STIM_029.jpg	99
2464.88	2.589	2589.2	regulate	Run3	regulate/STIM_029.jpg	99
2470.669	1.593	1592.6	regulate	Run3	regulate/STIM_029.jpg	100
2475.159	1.698	1698.4	regulate	Run3	regulate/STIM_029.jpg	99
2480.584	1.719	1718.6	observe	Run3	observe/STIM_000.jpg	99
2484.418	1.786	1786.3	observe	Run3	observe/STIM_000.jpg	99
2489.647	1.727	1726.9	observe	Run3	observe/STIM_000.jpg	99
2494.195	1.893	1893.3	observe	Run3	observe/STIM_000.jpg	99
2498.398	0.911	911.4	observe	Run3	observe/STIM_001.jpg	100
2502.701	1.653	1652.9	observe	Run3	observe/STIM_001.jpg	100
2507.561	1.031	1030.6	observe	Run3	observe/STIM_001.jpg	100
2511.025	1.327	1326.9	observe	Run3	observe/STIM_001.jpg	100
2514.895	1.392	1391.7	observe	Run3	observe/STIM_002.jpg	99
2519.273	1.397	1397.0	observe	Run3	observe/STIM_002.jpg	99
2522.639	1.005	1005.1	observe	Run3	observe/STIM_002.jpg	100
2527.142	0.883	882.7	observe	Run3	observe/STIM_002.jpg	100
2531.442	1.234	1234.0	observe	Run3	observe/STIM_003.jpg	99
2535.911	1.042	1042.5	observe	Run3	observe/STIM_003.jpg	100
2540.849	1.488	1487.8	observe	Run3	observe/STIM_003.jpg	100
2545.054	1.158	1158.5	observe	Run3	observe/STIM_003.jpg	99
2548.368	1.32	1319.5	observe	Run3	observe/STIM_004.jpg	99
2553.32	1.28	1279.8	observe	Run3	observe/STIM_004.jpg	100
2557.99	1.221	1221.1	observe	Run3	observe/STIM_004.jpg	99
2562.868	1.747	1747.2	observe	Run3	observe/STIM_004.jpg	100
2566.992	1.638	1637.6	observe	Run3	observe/STIM_005.jpg	99
2571.949	1.406	1405.8	observe	Run3	observe/STIM_005.jpg	100
2576.77	1.689	1689.0	observe	Run3	observe/STIM_005.jpg	100
2580.705	1.002	1001.8	observe	Run3	observe/STIM_005.jpg	99
2583.699	1.338	1338.3	observe	Run3	observe/STIM_006.jpg	99
2587.391	1.818	1818.3	observe	Run3	observe/STIM_006.jpg	99
2591.271	1.67	1669.8	observe	Run3	observe/STIM_006.jpg	99
2595.173	1.797	1796.8	observe	Run3	observe/STIM_006.jpg	100
2600.606	1.198	1198.2	observe	Run3	observe/STIM_007.jpg	100
2604.197	1.511	1511.0	observe	Run3	observe/STIM_007.jpg	99
2609.063	1.401	1401.4	observe	Run3	observe/STIM_007.jpg	99
2613.781	1.803	1803.4	observe	Run3	observe/STIM_007.jpg	99
2618.429	1.571	1571.3	observe	Run3	observe/STIM_008.jpg	100
2622.01	0.989	988.7	observe	Run3	observe/STIM_008.jpg	99
2624.925	1.366	1366.3	observe	Run3	observe/STIM_008.jpg	99
2629.488	1.062	1062.5	observe	Run3	observe/STIM_008.jpg	100
2634.118	0.854	854.3	observe	Run3	observe/STIM_009.jpg	100
2638.72	1.325	1324.9	observe	Run3	observe/STIM_009.jpg	100
2643.284	1.698	1697.5	observe	Run3	observe/STIM_009.jpg	100
2646.815	1.264	1264.1	observe	Run3	observe/STIM_009.jpg	99
2651.221	0.988	988.0	observe	Run3	observe/STIM_010.jpg	100
2654.509	1.815	1815.0	observe	Run3	observe/STIM_010.jpg	100
2659.891	1.323	1322.8	observe	Run3	observe/STIM_010.jpg	99
2664.196	1.785	1784.9	observe	Run3	observe/STIM_010.jpg	99
2668.329	1.547	1547.2	observe	Run3	observe/STIM_011.jpg	100
2672.162	1.154	1153.7	observe	Run3	observe/STIM_011.jpg	99
2676.902	1.182	1181.9	observe	Run3	observe/STIM_011.jpg	99
2680.508	1.075	1075.4	observe	Run3	observe/STIM_011.jpg	99
2684.375	1.776	1776.3	observe	Run3	observe/STIM_012.jpg	100
2688.543	1.592	1591.5	observe	Run3	observe/STIM_012.jpg	100
2693.264	1.287	1286.6	observe	Run3	observe/STIM_012.jpg	99
2697.904	1.537	1537.2	observe	Run3	observe/STIM_012.jpg	100
2702.129	1.543	1543.0	observe	Run3	observe/STIM_013.jpg	99
2706.52	1.771	1771.2	observe	Run3	observe/STIM_013.jpg	99
2710.68	1.384	1383.7	observe	Run3	observe/STIM_013.jpg	100
2715.013	1.011	1011.0	observe	Run3	observe/STIM_013.jpg	99
2718.184	1.094	1093.8	observe	Run3	observe/STIM_014.jpg	99
2722.372	1.16	1160.3	observe	Run3	observe/STIM_014.jpg	99
2726.263	1.182	1181.7	observe	Run3	observe/STIM_014.jpg	99
2729.377	1.379	1379.0	observe	Run3	observe/STIM_014.jpg	100
2734.01	1.359	1359.1	observe	Run3	observe/STIM_015.jpg	100
2738.074	0.909	908.9	observe	Run3	observe/STIM_015.jpg	99
2741.716	1.685	1685.4	observe	Run3	observe/STIM_015.jpg	99
2745.662	1.902	1901.7	observe	Run3	observe/STIM_015.jpg	100
2749.972	1.361	1361.3	observe	Run3	observe/STIM_016.jpg	100
2753.81	1.401	1401.3	observe	Run3	observe/STIM_016.jpg	100
2758.618	1.691	1691.1	observe	Run3	observe/STIM_016.jpg	99
2763.217	1.028	1027.5	observe	Run3	observe/STIM_016.jpg	100
2766.938	1.544	1544.0	observe	Run3	observe/STIM_017.jpg	100
2770.346	1.574	1574.3	observe	Run3	observe/STIM_017.jpg	99
2774.969	1.21	1210.3	observe	Run3	observe/STIM_017.jpg	100
2779.3	1.02	1019.6	observe	Run3	observe/STIM_017.jpg	100
2783.175	1.436	1436.3	observe	Run3	observe/STIM_018.jpg	99
2787.338	1.522	1522.0	observe	Run3	observe/STIM_018.jpg	100
2791.342	1.447	1447.2	observe	Run3	observe/STIM_018.jpg	100
2794.929	1.04	1040.4	observe	Run3	observe/STIM_018.jpg	99
2798.463	1.153	1153.1	observe	Run3	observe/STIM_019.jpg	99
2803.177	1.211	1211.1	observe	Run3	observe/STIM_019.jpg	99
2806.983	1.375	1374.6	observe	Run3	observe/STIM_019.jpg	99
2810.897	1.175	1174.6	observe	Run3	observe/STIM_019.jpg	100
