onset	duration	accuracy	trial_type	learning_stage	stimulus
0.0	1.317	correct	2back	Block1	2back/STIM_000.jpg
4.099	0.917	correct	2back	Block1	2back/STIM_000.jpg
8.277	0.801	correct	2back	Block1	2back/STIM_000.jpg
11.584	0.778	correct	2back	Block1	2back/STIM_001.jpg
15.741	0.976	correct	2back	Block1	2back/STIM_001.jpg
19.396	1.083	correct	2back	Block1	2back/STIM_001.jpg
23.786	0.86	correct	2back	Block1	2back/STIM_002.jpg
26.773	0.758	correct	2back	Block1	2back/STIM_002.jpg
31.549	1.013	correct	2back	Block1	2back/STIM_002.jpg
35.093	0.97	correct	2back	Block1	2back/STIM_003.jpg
38.448	1.042	incorrect	2back	Block1	2back/STIM_003.jpg
42.814	0.639	correct	2back	Block1	2back/STIM_003.jpg
47.054	1.217	correct	2back	Block1	2back/STIM_004.jpg
51.451	0.568	correct	2back	Block1	2back/STIM_004.jpg
55.947	0.674	incorrect	2back	Block1	2back/STIM_004.jpg
59.795	0.784	correct	2back	Block1	2back/STIM_005.jpg
62.692	0.955	correct	2back	Block1	2back/STIM_005.jpg
67.027	0.938	correct	2back	Block1	2back/STIM_005.jpg
70.759	0.976	correct	2back	Block1	2back/STIM_006.jpg
73.978	1.32	correct	2back	Block1	2back/STIM_006.jpg
79.214	0.828	correct	2back	Block1	2back/STIM_006.jpg
82.245	1.062	correct	2back	Block1	2back/STIM_007.jpg
85.749	0.98	incorrect	2back	Block1	2back/STIM_007.jpg
90.546	0.563	correct	2back	Block1	2back/STIM_007.jpg
94.533	1.202	correct	2back	Block1	2back/STIM_008.jpg
98.897	0.957	correct	2back	Block1	2back/STIM_008.jpg
102.037	0.872	correct	2back	Block1	2back/STIM_008.jpg
105.53	1.034	incorrect	2back	Block1	2back/STIM_009.jpg
110.366	1.067	correct	2back	Block1	2back/STIM_009.jpg
114.031	0.841	correct	2back	Block1	2back/STIM_009.jpg
118.222	1.023	correct	2back	Block1	2back/STIM_010.jpg
122.367	0.612	correct	2back	Block1	2back/STIM_010.jpg
126.83	0.757	correct	2back	Block1	2back/STIM_010.jpg
131.574	0.764	incorrect	2back	Block1	2back/STIM_011.jpg
135.511	0.81	correct	2back	Block1	2back/STIM_011.jpg
138.679	0.87	correct	2back	Block1	2back/STIM_011.jpg
143.344	0.786	incorrect	2back	Block1	2back/STIM_012.jpg
147.92	0.624	incorrect	2back	Block1	2back/STIM_012.jpg
151.688	0.976	correct	2back	Block1	2back/STIM_012.jpg
155.596	1.201	incorrect	2back	Block1	2back/STIM_013.jpg
159.054	1.171	incorrect	2back	Block1	2back/STIM_013.jpg
163.615	0.569	correct	2back	Block1	2back/STIM_013.jpg
167.16	1.356	correct	2back	Block1	2back/STIM_014.jpg
171.331	0.582	correct	2back	Block1	2back/STIM_014.jpg
175.342	0.866	correct	2back	Block1	2back/STIM_014.jpg
180.025	0.602	correct	2back	Block1	2back/STIM_015.jpg
183.257	0.948	correct	2back	Block1	2back/STIM_015.jpg
186.852	1.15	correct	2back	Block1	2back/STIM_015.jpg
190.712	0.683	correct	2back	Block1	2back/STIM_016.jpg
194.669	0.562	correct	2back	Block1	2back/STIM_016.jpg
198.684	1.095	correct	2back	Block1	2back/STIM_016.jpg
203.797	0.769	incorrect	2back	Block1	2back/STIM_017.jpg
207.58	0.67	correct	2back	Block1	2back/STIM_017.jpg
210.63	0.956	incorrect	2back	Block1	2back/STIM_017.jpg
215.253	0.94	correct	2back	Block1	2back/STIM_018.jpg
219.032	1.098	correct	2back	Block1	2back/STIM_018.jpg
222.43	1.084	correct	2back	Block1	2back/STIM_018.jpg
225.864	1.235	correct	2back	Block1	2back/STIM_019.jpg
229.377	1.268	correct	2back	Block1	2back/STIM_019.jpg
233.063	1.052	correct	2back	Block1	2back/STIM_019.jpg
237.901	0.819	incorrect	2back	Block1	2back/STIM_020.jpg
241.038	0.876	correct	2back	Block1	2back/STIM_020.jpg
245.161	1.068	incorrect	2back	Block1	2back/STIM_020.jpg
248.41	1.192	correct	2back	Block1	2back/STIM_021.jpg
252.956	0.719	correct	2back	Block1	2back/STIM_021.jpg
256.372	0.801	incorrect	2back	Block1	2back/STIM_021.jpg
259.646	0.732	correct	2back	Block1	2back/STIM_022.jpg
262.898	1.056	correct	2back	Block1	2back/STIM_022.jpg
267.051	0.905	correct	2back	Block1	2back/STIM_022.jpg
270.386	0.618	correct	2back	Block1	2back/STIM_023.jpg
274.942	1.17	correct	2back	Block1	2back/STIM_023.jpg
280.031	0.758	correct	2back	Block1	2back/STIM_023.jpg
282.918	1.027	correct	2back	Block1	2back/STIM_024.jpg
286.025	0.587	correct	2back	Block1	2back/STIM_024.jpg
290.608	0.577	correct	2back	Block1	2back/STIM_024.jpg
294.724	0.874	correct	2back	Block1	2back/STIM_025.jpg
299.353	1.211	correct	2back	Block1	2back/STIM_025.jpg
303.189	0.782	incorrect	2back	Block1	2back/STIM_025.jpg
306.215	1.319	correct	2back	Block1	2back/STIM_026.jpg
310.641	0.9	incorrect	2back	Block1	2back/STIM_026.jpg
315.14	0.862	correct	2back	Block1	2back/STIM_026.jpg
318.385	0.94	correct	2back	Block1	2back/STIM_027.jpg
323.191	0.846	correct	2back	Block1	2back/STIM_027.jpg
327.495	1.08	correct	2back	Block1	2back/STIM_027.jpg
331.719	0.805	correct	2back	Block1	2back/STIM_028.jpg
334.8	0.658	correct	2back	Block1	2back/STIM_028.jpg
337.648	0.839	correct	2back	Block1	2back/STIM_028.jpg
340.49	1.284	correct	2back	Block1	2back/STIM_029.jpg
345.337	1.27	correct	2back	Block1	2back/STIM_029.jpg
348.676	0.84	correct	2back	Block1	2back/STIM_029.jpg
352.784	0.858	correct	2back	Block1	2back/STIM_030.jpg
355.878	0.954	incorrect	2back	Block1	2back/STIM_030.jpg
360.189	0.996	correct	2back	Block1	2back/STIM_030.jpg
365.202	0.773	incorrect	2back	Block1	2back/STIM_031.jpg
369.341	0.549	correct	2back	Block1	2back/STIM_031.jpg
372.342	0.732	correct	2back	Block1	2back/STIM_031.jpg
375.83	0.985	correct	2back	Block1	2back/STIM_032.jpg
380.6	0.628	correct	2back	Block1	2back/STIM_032.jpg
384.92	1.003	correct	2back	Block1	2back/STIM_032.jpg
389.325	1.261	incorrect	2back	Block1	2back/STIM_033.jpg
393.598	0.774	correct	2back	Block1	2back/STIM_033.jpg
397.878	0.996	correct	2back	Block1	2back/STIM_033.jpg
402.9	1.302	incorrect	2back	Block1	2back/STIM_034.jpg
406.283	0.562	correct	2back	Block1	2back/STIM_034.jpg
409.505	1.148	correct	2back	Block1	2back/STIM_034.jpg
413.692	0.687	correct	2back	Block1	2back/STIM_035.jpg
416.736	0.994	correct	2back	Block1	2back/STIM_035.jpg
421.105	0.608	correct	2back	Block1	2back/STIM_035.jpg
425.102	1.104	correct	2back	Block1	2back/STIM_036.jpg
428.399	1.257	correct	2back	Block1	2back/STIM_036.jpg
431.717	0.918	correct	2back	Block1	2back/STIM_036.jpg
435.883	1.008	incorrect	2back	Block1	2back/STIM_037.jpg
440.035	0.513	incorrect	2back	Block1	2back/STIM_037.jpg
443.532	0.562	incorrect	2back	Block1	2back/STIM_037.jpg
447.913	0.649	correct	2back	Block1	2back/STIM_038.jpg
451.933	1.1	incorrect	2back	Block1	2back/STIM_038.jpg
456.065	1.155	correct	2back	Block1	2back/STIM_038.jpg
459.742	0.632	correct	2back	Block1	2back/STIM_039.jpg
463.218	0.973	correct	2back	Block1	2back/STIM_039.jpg
466.513	0.991	correct	2back	Block1	2back/STIM_039.jpg
470.494	0.692	correct	0back	Block1	0back/STIM_000.jpg
474.749	0.724	correct	0back	Block1	0back/STIM_000.jpg
478.942	0.41	correct	0back	Block1	0back/STIM_000.jpg
481.699	0.502	correct	0back	Block1	0back/STIM_001.jpg
484.695	0.54	correct	0back	Block1	0back/STIM_001.jpg
487.977	0.639	correct	0back	Block1	0back/STIM_001.jpg
491.904	0.647	incorrect	0back	Block1	0back/STIM_002.jpg
494.673	0.352	correct	0back	Block1	0back/STIM_002.jpg
499.083	0.379	correct	0back	Block1	0back/STIM_002.jpg
502.13	0.456	correct	0back	Block1	0back/STIM_003.jpg
504.873	0.41	correct	0back	Block1	0back/STIM_003.jpg
507.433	0.736	correct	0back	Block1	0back/STIM_003.jpg
511.685	0.646	correct	0back	Block1	0back/STIM_004.jpg
515.615	0.443	correct	0back	Block1	0back/STIM_004.jpg
520.007	0.806	correct	0back	Block1	0back/STIM_004.jpg
524.359	0.598	correct	0back	Block1	0back/STIM_005.jpg
527.43	0.717	correct	0back	Block1	0back/STIM_005.jpg
531.423	0.786	correct	0back	Block1	0back/STIM_005.jpg
535.759	0.506	correct	0back	Block1	0back/STIM_006.jpg
539.261	0.519	correct	0back	Block1	0back/STIM_006.jpg
543.318	0.512	correct	0back	Block1	0back/STIM_006.jpg
546.99	0.749	correct	0back	Block1	0back/STIM_007.jpg
550.763	0.732	incorrect	0back	Block1	0back/STIM_007.jpg
553.779	0.525	correct	0back	Block1	0back/STIM_007.jpg
557.042	0.675	correct	0back	Block1	0back/STIM_008.jpg
560.002	0.618	correct	0back	Block1	0back/STIM_008.jpg
563.315	0.641	correct	0back	Block1	0back/STIM_008.jpg
566.098	0.649	correct	0back	Block1	0back/STIM_009.jpg
570.721	0.393	correct	0back	Block1	0back/STIM_009.jpg
573.767	0.587	correct	0back	Block1	0back/STIM_009.jpg
577.422	0.708	correct	0back	Block1	0back/STIM_010.jpg
580.596	0.768	correct	0back	Block1	0back/STIM_010.jpg
583.75	0.636	correct	0back	Block1	0back/STIM_010.jpg
586.707	0.65	correct	0back	Block1	0back/STIM_011.jpg
590.843	0.396	correct	0back	Block1	0back/STIM_011.jpg
594.894	0.622	correct	0back	Block1	0back/STIM_011.jpg
597.525	0.641	correct	0back	Block1	0back/STIM_012.jpg
600.918	0.735	correct	0back	Block1	0back/STIM_012.jpg
605.576	0.801	correct	0back	Block1	0back/STIM_012.jpg
610.006	0.567	correct	0back	Block1	0back/STIM_013.jpg
613.537	0.751	correct	0back	Block1	0back/STIM_013.jpg
616.888	0.426	correct	0back	Block1	0back/STIM_013.jpg
619.4	0.672	correct	0back	Block1	0back/STIM_014.jpg
623.018	0.72	correct	0back	Block1	0back/STIM_014.jpg
626.583	0.481	correct	0back	Block1	0back/STIM_014.jpg
629.882	0.611	correct	0back	Block1	0back/STIM_015.jpg
632.741	0.453	correct	0back	Block1	0back/STIM_015.jpg
635.96	0.666	correct	0back	Block1	0back/STIM_015.jpg
639.316	0.419	correct	0back	Block1	0back/STIM_016.jpg
643.337	0.465	correct	0back	Block1	0back/STIM_016.jpg
647.684	0.452	correct	0back	Block1	0back/STIM_016.jpg
650.19	0.455	correct	0back	Block1	0back/STIM_017.jpg
654.398	0.643	correct	0back	Block1	0back/STIM_017.jpg
658.619	0.568	correct	0back	Block1	0back/STIM_017.jpg
661.666	0.472	correct	0back	Block1	0back/STIM_018.jpg
665.134	0.586	correct	0back	Block1	0back/STIM_018.jpg
669.366	0.373	correct	0back	Block1	0back/STIM_018.jpg
673.62	0.637	correct	0back	Block1	0back/STIM_019.jpg
676.909	0.636	correct	0back	Block1	0back/STIM_019.jpg
681.292	0.496	correct	0back	Block1	0back/STIM_019.jpg
685.375	0.532	correct	2back	Block2	2back/STIM_000.jpg
689.11	0.837	correct	2back	Block2	2back/STIM_000.jpg
692.691	1.051	correct	2back	Block2	2back/STIM_000.jpg
696.514	0.602	correct	2back	Block2	2back/STIM_001.jpg
699.755	0.471	correct	2back	Block2	2back/STIM_001.jpg
703.975	0.849	correct	2back	Block2	2back/STIM_001.jpg
708.418	0.642	correct	2back	Block2	2back/STIM_002.jpg
713.129	0.991	correct	2back	Block2	2back/STIM_002.jpg
716.462	0.773	correct	2back	Block2	2back/STIM_002.jpg
720.256	1.113	correct	2back	Block2	2back/STIM_003.jpg
724.252	0.743	correct	2back	Block2	2back/STIM_003.jpg
728.892	0.396	correct	2back	Block2	2back/STIM_003.jpg
732.697	0.607	correct	2back	Block2	2back/STIM_004.jpg
735.297	0.66	correct	2back	Block2	2back/STIM_004.jpg
739.307	0.448	correct	2back	Block2	2back/STIM_004.jpg
742.639	0.609	correct	2back	Block2	2back/STIM_005.jpg
747.195	0.624	correct	2back	Block2	2back/STIM_005.jpg
749.875	0.918	correct	2back	Block2	2back/STIM_005.jpg
753.561	0.674	correct	2back	Block2	2back/STIM_006.jpg
757.461	0.68	correct	2back	Block2	2back/STIM_006.jpg
761.662	0.564	correct	2back	Block2	2back/STIM_006.jpg
764.567	0.598	correct	2back	Block2	2back/STIM_007.jpg
767.709	0.762	correct	2back	Block2	2back/STIM_007.jpg
770.963	0.886	correct	2back	Block2	2back/STIM_007.jpg
774.259	0.764	correct	2back	Block2	2back/STIM_008.jpg
777.121	0.631	correct	2back	Block2	2back/STIM_008.jpg
781.573	0.82	correct	2back	Block2	2back/STIM_008.jpg
784.639	0.626	correct	2back	Block2	2back/STIM_009.jpg
789.162	0.616	correct	2back	Block2	2back/STIM_009.jpg
792.636	0.74	correct	2back	Block2	2back/STIM_009.jpg
795.679	1.1	correct	2back	Block2	2back/STIM_010.jpg
799.055	0.643	correct	2back	Block2	2back/STIM_010.jpg
802.384	0.678	correct	2back	Block2	2back/STIM_010.jpg
805.576	1.023	correct	2back	Block2	2back/STIM_011.jpg
808.672	0.582	correct	2back	Block2	2back/STIM_011.jpg
812.958	0.769	correct	2back	Block2	2back/STIM_011.jpg
816.816	1.11	correct	2back	Block2	2back/STIM_012.jpg
820.394	0.949	correct	2back	Block2	2back/STIM_012.jpg
824.517	0.939	correct	2back	Block2	2back/STIM_012.jpg
829.414	0.553	correct	2back	Block2	2back/STIM_013.jpg
832.497	0.724	correct	2back	Block2	2back/STIM_013.jpg
835.678	0.708	correct	2back	Block2	2back/STIM_013.jpg
840.039	1.043	correct	2back	Block2	2back/STIM_014.jpg
843.539	0.571	correct	2back	Block2	2back/STIM_014.jpg
846.863	0.441	correct	2back	Block2	2back/STIM_014.jpg
850.665	1.082	correct	2back	Block2	2back/STIM_015.jpg
855.587	0.464	correct	2back	Block2	2back/STIM_015.jpg
858.364	0.901	correct	2back	Block2	2back/STIM_015.jpg
863.309	1.05	correct	2back	Block2	2back/STIM_016.jpg
867.721	0.907	correct	2back	Block2	2back/STIM_016.jpg
871.677	0.829	correct	2back	Block2	2back/STIM_016.jpg
875.894	0.872	correct	2back	Block2	2back/STIM_017.jpg
879.457	0.82	correct	2back	Block2	2back/STIM_017.jpg
884.077	0.426	correct	2back	Block2	2back/STIM_017.jpg
887.8	1.163	correct	2back	Block2	2back/STIM_018.jpg
891.24	0.58	correct	2back	Block2	2back/STIM_018.jpg
895.298	0.765	correct	2back	Block2	2back/STIM_018.jpg
899.166	0.901	correct	2back	Block2	2back/STIM_019.jpg
902.651	0.76	incorrect	2back	Block2	2back/STIM_019.jpg
905.969	0.626	correct	2back	Block2	2back/STIM_019.jpg
908.693	0.859	correct	2back	Block2	2back/STIM_020.jpg
912.518	0.457	correct	2back	Block2	2back/STIM_020.jpg
916.613	0.393	correct	2back	Block2	2back/STIM_020.jpg
920.238	0.704	correct	2back	Block2	2back/STIM_021.jpg
924.571	0.908	correct	2back	Block2	2back/STIM_021.jpg
927.698	0.513	correct	2back	Block2	2back/STIM_021.jpg
931.869	0.858	incorrect	2back	Block2	2back/STIM_022.jpg
934.891	0.834	correct	2back	Block2	2back/STIM_022.jpg
938.768	0.559	correct	2back	Block2	2back/STIM_022.jpg
942.038	0.93	correct	2back	Block2	2back/STIM_023.jpg
945.802	0.726	correct	2back	Block2	2back/STIM_023.jpg
948.783	0.433	correct	2back	Block2	2back/STIM_023.jpg
953.092	0.698	correct	2back	Block2	2back/STIM_024.jpg
957.777	0.457	correct	2back	Block2	2back/STIM_024.jpg
960.707	0.554	correct	2back	Block2	2back/STIM_024.jpg
964.217	0.786	correct	2back	Block2	2back/STIM_025.jpg
968.525	0.681	correct	2back	Block2	2back/STIM_025.jpg
973.243	0.725	correct	2back	Block2	2back/STIM_025.jpg
976.809	0.61	correct	2back	Block2	2back/STIM_026.jpg
979.849	0.715	correct	2back	Block2	2back/STIM_026.jpg
983.647	0.459	correct	2back	Block2	2back/STIM_026.jpg
986.607	0.744	correct	2back	Block2	2back/STIM_027.jpg
990.704	0.863	correct	2back	Block2	2back/STIM_027.jpg
995.595	0.568	correct	2back	Block2	2back/STIM_027.jpg
998.501	0.54	correct	2back	Block2	2back/STIM_028.jpg
1001.656	0.559	correct	2back	Block2	2back/STIM_028.jpg
1005.42	0.483	correct	2back	Block2	2back/STIM_028.jpg
1009.225	0.698	correct	2back	Block2	2back/STIM_029.jpg
1012.973	0.672	correct	2back	Block2	2back/STIM_029.jpg
1016.245	0.769	correct	2back	Block2	2back/STIM_029.jpg
1019.92	0.976	correct	2back	Block2	2back/STIM_030.jpg
1024.393	0.763	correct	2back	Block2	2back/STIM_030.jpg
1027.976	0.895	correct	2back	Block2	2back/STIM_030.jpg
1031.171	1.102	correct	2back	Block2	2back/STIM_031.jpg
1036.038	0.907	correct	2back	Block2	2back/STIM_031.jpg
1039.139	0.91	correct	2back	Block2	2back/STIM_031.jpg
1042.961	0.987	correct	2back	Block2	2back/STIM_032.jpg
1047.467	0.826	correct	2back	Block2	2back/STIM_032.jpg
1051.539	0.536	correct	2back	Block2	2back/STIM_032.jpg
1055.724	0.835	correct	2back	Block2	2back/STIM_033.jpg
1059.528	0.706	correct	2back	Block2	2back/STIM_033.jpg
1063.496	0.879	correct	2back	Block2	2back/STIM_033.jpg
1066.621	0.96	correct	2back	Block2	2back/STIM_034.jpg
1070.981	0.988	correct	2back	Block2	2back/STIM_034.jpg
1074.88	0.536	correct	2back	Block2	2back/STIM_034.jpg
1078.253	0.802	incorrect	2back	Block2	2back/STIM_035.jpg
1081.834	0.727	correct	2back	Block2	2back/STIM_035.jpg
1085.506	0.8	correct	2back	Block2	2back/STIM_035.jpg
1090.158	0.798	correct	2back	Block2	2back/STIM_036.jpg
1094.163	0.77	correct	2back	Block2	2back/STIM_036.jpg
1098.148	0.774	correct	2back	Block2	2back/STIM_036.jpg
1102.002	0.612	correct	2back	Block2	2back/STIM_037.jpg
1106.105	0.703	correct	2back	Block2	2back/STIM_037.jpg
1110.503	0.449	correct	2back	Block2	2back/STIM_037.jpg
1114.654	0.756	correct	2back	Block2	2back/STIM_038.jpg
1117.645	0.808	correct	2back	Block2	2back/STIM_038.jpg
1120.958	0.88	correct	2back	Block2	2back/STIM_038.jpg
1123.938	0.634	correct	2back	Block2	2back/STIM_039.jpg
1127.711	0.61	correct	2back	Block2	2back/STIM_039.jpg
1132.118	0.619	correct	2back	Block2	2back/STIM_039.jpg
1135.238	0.808	correct	0back	Block2	0back/STIM_000.jpg
1139.556	0.551	correct	0back	Block2	0back/STIM_000.jpg
1142.458	0.536	correct	0back	Block2	0back/STIM_000.jpg
1145.737	0.34	correct	0back	Block2	0back/STIM_001.jpg
1149.727	0.597	correct	0back	Block2	0back/STIM_001.jpg
1153.88	0.497	correct	0back	Block2	0back/STIM_001.jpg
1157.476	0.526	correct	0back	Block2	0back/STIM_002.jpg
1161.151	0.743	correct	0back	Block2	0back/STIM_002.jpg
1165.232	0.756	correct	0back	Block2	0back/STIM_002.jpg
1169.626	0.643	correct	0back	Block2	0back/STIM_003.jpg
1174.225	0.748	correct	0back	Block2	0back/STIM_003.jpg
1177.255	0.681	correct	0back	Block2	0back/STIM_003.jpg
1180.611	0.5	correct	0back	Block2	0back/STIM_004.jpg
1184.257	0.774	correct	0back	Block2	0back/STIM_004.jpg
1187.622	0.502	correct	0back	Block2	0back/STIM_004.jpg
1190.382	0.766	correct	0back	Block2	0back/STIM_005.jpg
1193.204	0.678	correct	0back	Block2	0back/STIM_005.jpg
1196.441	0.823	correct	0back	Block2	0back/STIM_005.jpg
1200.78	0.628	correct	0back	Block2	0back/STIM_006.jpg
1204.688	0.508	correct	0back	Block2	0back/STIM_006.jpg
1208.357	0.639	correct	0back	Block2	0back/STIM_006.jpg
1212.284	0.616	correct	0back	Block2	0back/STIM_007.jpg
1216.882	0.689	incorrect	0back	Block2	0back/STIM_007.jpg
1220.046	0.621	correct	0back	Block2	0back/STIM_007.jpg
1223.023	0.731	correct	0back	Block2	0back/STIM_008.jpg
1227.663	0.536	correct	0back	Block2	0back/STIM_008.jpg
1231.639	0.447	correct	0back	Block2	0back/STIM_008.jpg
1234.622	0.748	correct	0back	Block2	0back/STIM_009.jpg
1239.36	0.438	correct	0back	Block2	0back/STIM_009.jpg
1242.925	0.569	correct	0back	Block2	0back/STIM_009.jpg
1246.452	0.541	correct	0back	Block2	0back/STIM_010.jpg
1249.976	0.736	correct	0back	Block2	0back/STIM_010.jpg
1254.119	0.693	correct	0back	Block2	0back/STIM_010.jpg
1258.067	0.4	correct	0back	Block2	0back/STIM_011.jpg
1262.217	0.702	correct	0back	Block2	0back/STIM_011.jpg
1266.34	0.638	correct	0back	Block2	0back/STIM_011.jpg
1270.061	0.435	correct	0back	Block2	0back/STIM_012.jpg
1273.781	0.774	correct	0back	Block2	0back/STIM_012.jpg
1278.352	0.739	correct	0back	Block2	0back/STIM_012.jpg
1282.984	0.647	correct	0back	Block2	0back/STIM_013.jpg
1287.154	0.748	correct	0back	Block2	0back/STIM_013.jpg
1291.896	0.462	correct	0back	Block2	0back/STIM_013.jpg
1295.195	0.776	correct	0back	Block2	0back/STIM_014.jpg
1299.044	0.87	correct	0back	Block2	0back/STIM_014.jpg
1302.018	0.621	correct	0back	Block2	0back/STIM_014.jpg
1306.433	0.425	correct	0back	Block2	0back/STIM_015.jpg
1309.028	0.684	correct	0back	Block2	0back/STIM_015.jpg
1313.58	0.435	correct	0back	Block2	0back/STIM_015.jpg
1317.522	0.46	correct	0back	Block2	0back/STIM_016.jpg
1320.775	0.418	correct	0back	Block2	0back/STIM_016.jpg
1323.378	0.557	correct	0back	Block2	0back/STIM_016.jpg
1327.071	0.487	correct	0back	Block2	0back/STIM_017.jpg
1331.016	0.562	correct	0back	Block2	0back/STIM_017.jpg
1334.419	0.303	correct	0back	Block2	0back/STIM_017.jpg
1337.239	0.677	correct	0back	Block2	0back/STIM_018.jpg
1340.166	0.553	correct	0back	Block2	0back/STIM_018.jpg
1344.205	0.719	correct	0back	Block2	0back/STIM_018.jpg
1347.533	0.69	correct	0back	Block2	0back/STIM_019.jpg
1350.242	0.627	correct	0back	Block2	0back/STIM_019.jpg
1353.079	0.471	correct	0back	Block2	0back/STIM_019.jpg
1356.458	0.678	correct	2back	Block3	2back/STIM_000.jpg
1360.131	0.63	correct	2back	Block3	2back/STIM_000.jpg
1364.657	0.814	correct	2back	Block3	2back/STIM_000.jpg
1368.7	0.79	correct	2back	Block3	2back/STIM_001.jpg
1372.747	0.599	correct	2back	Block3	2back/STIM_001.jpg
1376.239	0.583	correct	2back	Block3	2back/STIM_001.jpg
1380.123	0.744	correct	2back	Block3	2back/STIM_002.jpg
1383.484	0.754	correct	2back	Block3	2back/STIM_002.jpg
1387.724	0.59	correct	2back	Block3	2back/STIM_002.jpg
1391.087	0.632	correct	2back	Block3	2back/STIM_003.jpg
1394.211	0.376	correct	2back	Block3	2back/STIM_003.jpg
1398.176	0.442	correct	2back	Block3	2back/STIM_003.jpg
1401.418	0.882	correct	2back	Block3	2back/STIM_004.jpg
1405.908	0.623	correct	2back	Block3	2back/STIM_004.jpg
1409.068	0.446	correct	2back	Block3	2back/STIM_004.jpg
1413.274	0.55	correct	2back	Block3	2back/STIM_005.jpg
1416.869	0.88	correct	2back	Block3	2back/STIM_005.jpg
1421.243	0.473	correct	2back	Block3	2back/STIM_005.jpg
1425.272	0.773	correct	2back	Block3	2back/STIM_006.jpg
1428.253	0.678	correct	2back	Block3	2back/STIM_006.jpg
1432.511	0.478	correct	2back	Block3	2back/STIM_006.jpg
1435.668	0.533	incorrect	2back	Block3	2back/STIM_007.jpg
1439.041	0.393	correct	2back	Block3	2back/STIM_007.jpg
1442.806	0.806	correct	2back	Block3	2back/STIM_007.jpg
1445.894	0.528	correct	2back	Block3	2back/STIM_008.jpg
1448.505	0.564	incorrect	2back	Block3	2back/STIM_008.jpg
1451.064	0.602	correct	2back	Block3	2back/STIM_008.jpg
1455.073	0.812	correct	2back	Block3	2back/STIM_009.jpg
1458.49	0.781	correct	2back	Block3	2back/STIM_009.jpg
1462.346	0.756	correct	2back	Block3	2back/STIM_009.jpg
1465.392	0.843	correct	2back	Block3	2back/STIM_010.jpg
1468.399	0.877	correct	2back	Block3	2back/STIM_010.jpg
1472.611	0.791	correct	2back	Block3	2back/STIM_010.jpg
1476.014	0.621	correct	2back	Block3	2back/STIM_011.jpg
1479.362	0.802	correct	2back	Block3	2back/STIM_011.jpg
1483.087	0.581	correct	2back	Block3	2back/STIM_011.jpg
1486.426	0.489	correct	2back	Block3	2back/STIM_012.jpg
1489.631	0.889	correct	2back	Block3	2back/STIM_012.jpg
1493.126	0.807	correct	2back	Block3	2back/STIM_012.jpg
1497.623	0.571	correct	2back	Block3	2back/STIM_013.jpg
1500.968	0.562	correct	2back	Block3	2back/STIM_013.jpg
1504.922	0.856	correct	2back	Block3	2back/STIM_013.jpg
1508.634	0.731	correct	2back	Block3	2back/STIM_014.jpg
1512.643	0.635	correct	2back	Block3	2back/STIM_014.jpg
1516.472	0.901	correct	2back	Block3	2back/STIM_014.jpg
1520.951	0.725	correct	2back	Block3	2back/STIM_015.jpg
1524.301	0.732	correct	2back	Block3	2back/STIM_015.jpg
1527.554	0.972	correct	2back	Block3	2back/STIM_015.jpg
1532.439	0.693	correct	2back	Block3	2back/STIM_016.jpg
1535.831	0.587	correct	2back	Block3	2back/STIM_016.jpg
1540.153	0.75	correct	2back	Block3	2back/STIM_016.jpg
1544.157	0.503	correct	2back	Block3	2back/STIM_017.jpg
1547.607	0.516	correct	2back	Block3	2back/STIM_017.jpg
1550.879	0.605	correct	2back	Block3	2back/STIM_017.jpg
1554.729	0.706	correct	2back	Block3	2back/STIM_018.jpg
1559.07	0.613	correct	2back	Block3	2back/STIM_018.jpg
1563.312	0.802	correct	2back	Block3	2back/STIM_018.jpg
1566.317	0.955	correct	2back	Block3	2back/STIM_019.jpg
1569.702	0.84	correct	2back	Block3	2back/STIM_019.jpg
1574.084	0.871	correct	2back	Block3	2back/STIM_019.jpg
1578.505	0.872	correct	2back	Block3	2back/STIM_020.jpg
1583.201	0.572	correct	2back	Block3	2back/STIM_020.jpg
1587.363	0.338	correct	2back	Block3	2back/STIM_020.jpg
1591.255	0.733	incorrect	2back	Block3	2back/STIM_021.jpg
1595.381	0.83	correct	2back	Block3	2back/STIM_021.jpg
1599.044	0.713	correct	2back	Block3	2back/STIM_021.jpg
1602.655	0.486	correct	2back	Block3	2back/STIM_022.jpg
1606.54	0.667	correct	2back	Block3	2back/STIM_022.jpg
1609.744	0.455	correct	2back	Block3	2back/STIM_022.jpg
1613.699	0.813	correct	2back	Block3	2back/STIM_023.jpg
1618.26	0.881	correct	2back	Block3	2back/STIM_023.jpg
1621.338	0.602	correct	2back	Block3	2back/STIM_023.jpg
1624.508	0.878	correct	2back	Block3	2back/STIM_024.jpg
1629.233	0.6	correct	2back	Block3	2back/STIM_024.jpg
1633.689	0.804	correct	2back	Block3	2back/STIM_024.jpg
1637.465	0.548	correct	2back	Block3	2back/STIM_025.jpg
1641.323	0.748	correct	2back	Block3	2back/STIM_025.jpg
1644.865	0.535	correct	2back	Block3	2back/STIM_025.jpg
1648.597	0.463	correct	2back	Block3	2back/STIM_026.jpg
1653.001	0.941	correct	2back	Block3	2back/STIM_026.jpg
1657.747	0.739	correct	2back	Block3	2back/STIM_026.jpg
1661.931	0.496	correct	2back	Block3	2back/STIM_027.jpg
1665.697	0.864	correct	2back	Block3	2back/STIM_027.jpg
1669.013	0.837	correct	2back	Block3	2back/STIM_027.jpg
1673.342	0.47	correct	2back	Block3	2back/STIM_028.jpg
1676.489	0.592	correct	2back	Block3	2back/STIM_028.jpg
1680.071	0.706	correct	2back	Block3	2back/STIM_028.jpg
1682.953	0.371	correct	2back	Block3	2back/STIM_029.jpg
1687.079	0.798	correct	2back	Block3	2back/STIM_029.jpg
1690.935	0.572	correct	2back	Block3	2back/STIM_029.jpg
1693.965	0.496	correct	2back	Block3	2back/STIM_030.jpg
1698.276	0.803	correct	2back	Block3	2back/STIM_030.jpg
1702.974	0.879	correct	2back	Block3	2back/STIM_030.jpg
1707.516	0.689	correct	2back	Block3	2back/STIM_031.jpg
1712.241	0.451	correct	2back	Block3	2back/STIM_031.jpg
1715.016	0.985	correct	2back	Block3	2back/STIM_031.jpg
1718.936	0.772	correct	2back	Block3	2back/STIM_032.jpg
1722.592	0.452	correct	2back	Block3	2back/STIM_032.jpg
1725.775	0.591	correct	2back	Block3	2back/STIM_032.jpg
1729.071	0.45	correct	2back	Block3	2back/STIM_033.jpg
1733.169	0.463	correct	2back	Block3	2back/STIM_033.jpg
1737.313	0.878	correct	2back	Block3	2back/STIM_033.jpg
1740.613	0.777	correct	2back	Block3	2back/STIM_034.jpg
1745.053	0.925	correct	2back	Block3	2back/STIM_034.jpg
1748.211	0.881	correct	2back	Block3	2back/STIM_034.jpg
1752.822	0.833	correct	2back	Block3	2back/STIM_035.jpg
1756.571	0.382	correct	2back	Block3	2back/STIM_035.jpg
1760.883	0.581	correct	2back	Block3	2back/STIM_035.jpg
1764.081	0.591	correct	2back	Block3	2back/STIM_036.jpg
1767.065	0.778	correct	2back	Block3	2back/STIM_036.jpg
1770.528	0.752	correct	2back	Block3	2back/STIM_036.jpg
1773.966	0.583	correct	2back	Block3	2back/STIM_037.jpg
1777.717	0.89	correct	2back	Block3	2back/STIM_037.jpg
1781.495	0.546	correct	2back	Block3	2back/STIM_037.jpg
1786.058	0.382	correct	2back	Block3	2back/STIM_038.jpg
1789.569	0.766	correct	2back	Block3	2back/STIM_038.jpg
1794.257	0.458	correct	2back	Block3	2back/STIM_038.jpg
1797.916	0.396	correct	2back	Block3	2back/STIM_039.jpg
1802.25	0.983	correct	2back	Block3	2back/STIM_039.jpg
1806.442	0.649	correct	2back	Block3	2back/STIM_039.jpg
1809.718	0.818	correct	0back	Block3	0back/STIM_000.jpg
1813.623	0.638	correct	0back	Block3	0back/STIM_000.jpg
1817.089	0.688	correct	0back	Block3	0back/STIM_000.jpg
1821.311	0.54	correct	0back	Block3	0back/STIM_001.jpg
1825.35	0.544	correct	0back	Block3	0back/STIM_001.jpg
1829.917	0.571	correct	0back	Block3	0back/STIM_001.jpg
1832.55	0.533	correct	0back	Block3	0back/STIM_002.jpg
1835.308	0.4	incorrect	0back	Block3	0back/STIM_002.jpg
1839.572	0.378	correct	0back	Block3	0back/STIM_002.jpg
1843.558	0.408	correct	0back	Block3	0back/STIM_003.jpg
1846.583	0.672	correct	0back	Block3	0back/STIM_003.jpg
1850.268	0.659	correct	0back	Block3	0back/STIM_003.jpg
1853.221	0.577	correct	0back	Block3	0back/STIM_004.jpg
1856.438	0.642	correct	0back	Block3	0back/STIM_004.jpg
1861.001	0.728	correct	0back	Block3	0back/STIM_004.jpg
1863.861	0.674	correct	0back	Block3	0back/STIM_005.jpg
1867.139	0.579	correct	0back	Block3	0back/STIM_005.jpg
1871.239	0.649	correct	0back	Block3	0back/STIM_005.jpg
1874.411	0.554	correct	0back	Block3	0back/STIM_006.jpg
1877.153	0.723	correct	0back	Block3	0back/STIM_006.jpg
1880.525	0.693	correct	0back	Block3	0back/STIM_006.jpg
1884.579	0.447	correct	0back	Block3	0back/STIM_007.jpg
1887.1	0.588	correct	0back	Block3	0back/STIM_007.jpg
1890.06	0.723	correct	0back	Block3	0back/STIM_007.jpg
1894.532	0.587	correct	0back	Block3	0back/STIM_008.jpg
1898.174	0.672	correct	0back	Block3	0back/STIM_008.jpg
1901.459	0.284	correct	0back	Block3	0back/STIM_008.jpg
1904.92	0.445	correct	0back	Block3	0back/STIM_009.jpg
1909.092	0.596	correct	0back	Block3	0back/STIM_009.jpg
1912.591	0.455	correct	0back	Block3	0back/STIM_009.jpg
1915.45	0.49	correct	0back	Block3	0back/STIM_010.jpg
1919.491	0.627	correct	0back	Block3	0back/STIM_010.jpg
1922.749	0.474	correct	0back	Block3	0back/STIM_010.jpg
1925.735	0.563	correct	0back	Block3	0back/STIM_011.jpg
1928.387	0.714	correct	0back	Block3	0back/STIM_011.jpg
1931.335	0.626	correct	0back	Block3	0back/STIM_011.jpg
1934.865	0.393	correct	0back	Block3	0back/STIM_012.jpg
1937.706	0.645	correct	0back	Block3	0back/STIM_012.jpg
1941.344	0.422	correct	0back	Block3	0back/STIM_012.jpg
1944.909	0.54	correct	0back	Block3	0back/STIM_013.jpg
1947.664	0.294	correct	0back	Block3	0back/STIM_013.jpg
1950.12	0.637	correct	0back	Block3	0back/STIM_013.jpg
1953.814	0.664	correct	0back	Block3	0back/STIM_014.jpg
1958.055	0.708	correct	0back	Block3	0back/STIM_014.jpg
1961.155	0.501	correct	0back	Block3	0back/STIM_014.jpg
1963.799	0.739	correct	0back	Block3	0back/STIM_015.jpg
1966.869	0.716	correct	0back	Block3	0back/STIM_015.jpg
1969.984	0.444	correct	0back	Block3	0back/STIM_015.jpg
1974.215	0.462	correct	0back	Block3	0back/STIM_016.jpg
1977.26	0.53	correct	0back	Block3	0back/STIM_016.jpg
1980.444	0.458	correct	0back	Block3	0back/STIM_016.jpg
1984.341	0.483	correct	0back	Block3	0back/STIM_017.jpg
1987.198	0.53	correct	0back	Block3	0back/STIM_017.jpg
1990.532	0.67	correct	0back	Block3	0back/STIM_017.jpg
1994.737	0.722	correct	0back	Block3	0back/STIM_018.jpg
1998.614	0.482	correct	0back	Block3	0back/STIM_018.jpg
2002.013	0.407	incorrect	0back	Block3	0back/STIM_018.jpg
2004.505	0.502	correct	0back	Block3	0back/STIM_019.jpg
2007.846	0.678	correct	0back	Block3	0back/STIM_019.jpg
2010.638	0.774	correct	0back	Block3	0back/STIM_019.jpg
2015.129	0.478	correct	2back	Block4	2back/STIM_000.jpg
2017.892	0.913	correct	2back	Block4	2back/STIM_000.jpg
2021.873	0.846	correct	2back	Block4	2back/STIM_000.jpg
2026.347	0.646	correct	2back	Block4	2back/STIM_001.jpg
2029.029	0.638	correct	2back	Block4	2back/STIM_001.jpg
2032.794	0.756	correct	2back	Block4	2back/STIM_001.jpg
2036.022	0.955	correct	2back	Block4	2back/STIM_002.jpg
2039.261	0.815	correct	2back	Block4	2back/STIM_002.jpg
2042.551	0.42	correct	2back	Block4	2back/STIM_002.jpg
2045.77	0.687	correct	2back	Block4	2back/STIM_003.jpg
2050.333	0.618	correct	2back	Block4	2back/STIM_003.jpg
2053.576	0.666	correct	2back	Block4	2back/STIM_003.jpg
2057.631	0.736	correct	2back	Block4	2back/STIM_004.jpg
2061.043	0.541	correct	2back	Block4	2back/STIM_004.jpg
2064.599	0.383	correct	2back	Block4	2back/STIM_004.jpg
2068.642	0.499	correct	2back	Block4	2back/STIM_005.jpg
2071.229	0.824	correct	2back	Block4	2back/STIM_005.jpg
2074.32	0.646	correct	2back	Block4	2back/STIM_005.jpg
2077.908	0.525	correct	2back	Block4	2back/STIM_006.jpg
2081.484	0.916	correct	2back	Block4	2back/STIM_006.jpg
2085.81	0.803	correct	2back	Block4	2back/STIM_006.jpg
2090.208	0.506	correct	2back	Block4	2back/STIM_007.jpg
2093.526	0.812	correct	2back	Block4	2back/STIM_007.jpg
2098.383	0.486	correct	2back	Block4	2back/STIM_007.jpg
2102.705	0.589	correct	2back	Block4	2back/STIM_008.jpg
2105.671	0.872	correct	2back	Block4	2back/STIM_008.jpg
2109.977	0.447	correct	2back	Block4	2back/STIM_008.jpg
2113.703	0.747	correct	2back	Block4	2back/STIM_009.jpg
2117.577	0.443	correct	2back	Block4	2back/STIM_009.jpg
2120.374	0.741	correct	2back	Block4	2back/STIM_009.jpg
2123.636	0.914	correct	2back	Block4	2back/STIM_010.jpg
2126.935	0.403	correct	2back	Block4	2back/STIM_010.jpg
2130.168	0.435	correct	2back	Block4	2back/STIM_010.jpg
2134.232	0.828	correct	2back	Block4	2back/STIM_011.jpg
2137.258	0.355	correct	2back	Block4	2back/STIM_011.jpg
2141.225	1.03	correct	2back	Block4	2back/STIM_011.jpg
2144.48	0.477	correct	2back	Block4	2back/STIM_012.jpg
2148.376	0.47	correct	2back	Block4	2back/STIM_012.jpg
2152.509	0.975	correct	2back	Block4	2back/STIM_012.jpg
2155.453	0.824	correct	2back	Block4	2back/STIM_013.jpg
2159.271	0.504	correct	2back	Block4	2back/STIM_013.jpg
2163.675	0.722	correct	2back	Block4	2back/STIM_013.jpg
2166.673	0.673	correct	2back	Block4	2back/STIM_014.jpg
2170.256	0.621	correct	2back	Block4	2back/STIM_014.jpg
2173.083	0.862	correct	2back	Block4	2back/STIM_014.jpg
2176.174	0.494	correct	2back	Block4	2back/STIM_015.jpg
2179.534	0.781	correct	2back	Block4	2back/STIM_015.jpg
2184.102	0.868	correct	2back	Block4	2back/STIM_015.jpg
2187.68	0.574	correct	2back	Block4	2back/STIM_016.jpg
2190.314	0.864	correct	2back	Block4	2back/STIM_016.jpg
2193.557	0.887	correct	2back	Block4	2back/STIM_016.jpg
2197.885	0.397	correct	2back	Block4	2back/STIM_017.jpg
2200.401	0.724	correct	2back	Block4	2back/STIM_017.jpg
2204.324	0.595	correct	2back	Block4	2back/STIM_017.jpg
2207.482	0.516	correct	2back	Block4	2back/STIM_018.jpg
2210.161	0.387	correct	2back	Block4	2back/STIM_018.jpg
2214.344	0.648	correct	2back	Block4	2back/STIM_018.jpg
2217.505	0.643	correct	2back	Block4	2back/STIM_019.jpg
2221.549	0.458	correct	2back	Block4	2back/STIM_019.jpg
2224.896	0.599	correct	2back	Block4	2back/STIM_019.jpg
2228.008	0.654	correct	2back	Block4	2back/STIM_020.jpg
2230.795	0.81	correct	2back	Block4	2back/STIM_020.jpg
2235.219	0.898	correct	2back	Block4	2back/STIM_020.jpg
2239.793	0.472	correct	2back	Block4	2back/STIM_021.jpg
2243.592	0.758	correct	2back	Block4	2back/STIM_021.jpg
2247.635	0.728	correct	2back	Block4	2back/STIM_021.jpg
2251.229	0.725	correct	2back	Block4	2back/STIM_022.jpg
2254.214	0.503	correct	2back	Block4	2back/STIM_022.jpg
2258.068	0.895	correct	2back	Block4	2back/STIM_022.jpg
2261.645	0.504	correct	2back	Block4	2back/STIM_023.jpg
2264.401	0.565	correct	2back	Block4	2back/STIM_023.jpg
2267.487	0.664	correct	2back	Block4	2back/STIM_023.jpg
2270.828	0.738	correct	2back	Block4	2back/STIM_024.jpg
2274.333	0.728	correct	2back	Block4	2back/STIM_024.jpg
2278.652	0.639	correct	2back	Block4	2back/STIM_024.jpg
2281.717	0.626	correct	2back	Block4	2back/STIM_025.jpg
2285.191	0.506	correct	2back	Block4	2back/STIM_025.jpg
2288.096	0.874	correct	2back	Block4	2back/STIM_025.jpg
2291.579	0.404	correct	2back	Block4	2back/STIM_026.jpg
2294.952	0.863	correct	2back	Block4	2back/STIM_026.jpg
2298.151	0.695	correct	2back	Block4	2back/STIM_026.jpg
2302.083	0.584	correct	2back	Block4	2back/STIM_027.jpg
2305.291	0.535	correct	2back	Block4	2back/STIM_027.jpg
2309.749	0.588	correct	2back	Block4	2back/STIM_027.jpg
2313.376	0.573	correct	2back	Block4	2back/STIM_028.jpg
2317.517	0.457	correct	2back	Block4	2back/STIM_028.jpg
2320.352	0.382	correct	2back	Block4	2back/STIM_028.jpg
2324.522	0.673	correct	2back	Block4	2back/STIM_029.jpg
2328.418	0.557	correct	2back	Block4	2back/STIM_029.jpg
2332.492	0.429	correct	2back	Block4	2back/STIM_029.jpg
2335.822	0.589	correct	2back	Block4	2back/STIM_030.jpg
2340.254	0.425	correct	2back	Block4	2back/STIM_030.jpg
2343.893	0.732	correct	2back	Block4	2back/STIM_030.jpg
2347.507	0.557	correct	2back	Block4	2back/STIM_031.jpg
2350.209	0.589	correct	2back	Block4	2back/STIM_031.jpg
2354.449	0.512	correct	2back	Block4	2back/STIM_031.jpg
2357.251	0.899	correct	2back	Block4	2back/STIM_032.jpg
2361.661	0.827	correct	2back	Block4	2back/STIM_032.jpg
2365.666	0.666	correct	2back	Block4	2back/STIM_032.jpg
2370.065	0.546	correct	2back	Block4	2back/STIM_033.jpg
2373.729	0.4	correct	2back	Block4	2back/STIM_033.jpg
2376.714	0.793	correct	2back	Block4	2back/STIM_033.jpg
2380.495	0.836	correct	2back	Block4	2back/STIM_034.jpg
2383.649	0.606	correct	2back	Block4	2back/STIM_034.jpg
2386.632	0.932	correct	2back	Block4	2back/STIM_034.jpg
2390.768	0.786	correct	2back	Block4	2back/STIM_035.jpg
2393.851	0.521	correct	2back	Block4	2back/STIM_035.jpg
2397.518	0.616	correct	2back	Block4	2back/STIM_035.jpg
2400.721	0.632	correct	2back	Block4	2back/STIM_036.jpg
2404.891	0.742	correct	2back	Block4	2back/STIM_036.jpg
2408.68	0.556	correct	2back	Block4	2back/STIM_036.jpg
2412.341	0.687	correct	2back	Block4	2back/STIM_037.jpg
2415.471	0.391	correct	2back	Block4	2back/STIM_037.jpg
2419.983	0.932	correct	2back	Block4	2back/STIM_037.jpg
2424.092	0.543	correct	2back	Block4	2back/STIM_038.jpg
2426.865	0.513	correct	2back	Block4	2back/STIM_038.jpg
2430.293	0.912	correct	2back	Block4	2back/STIM_038.jpg
2434.85	0.429	correct	2back	Block4	2back/STIM_039.jpg
2437.787	0.454	correct	2back	Block4	2back/STIM_039.jpg
2442.151	0.731	correct	2back	Block4	2back/STIM_039.jpg
2445.863	0.489	correct	0back	Block4	0back/STIM_000.jpg
2449.035	0.684	correct	0back	Block4	0back/STIM_000.jpg
2452.93	0.729	correct	0back	Block4	0back/STIM_000.jpg
2457.417	0.35	correct	0back	Block4	0back/STIM_001.jpg
2461.509	0.617	incorrect	0back	Block4	0back/STIM_001.jpg
2464.542	0.486	correct	0back	Block4	0back/STIM_001.jpg
2468.962	0.68	correct	0back	Block4	0back/STIM_002.jpg
2473.654	0.567	correct	0back	Block4	0back/STIM_002.jpg
2476.986	0.382	correct	0back	Block4	0back/STIM_002.jpg
2479.825	0.554	correct	0back	Block4	0back/STIM_003.jpg
2482.532	0.65	correct	0back	Block4	0back/STIM_003.jpg
2485.733	0.436	correct	0back	Block4	0back/STIM_003.jpg
2488.568	0.69	correct	0back	Block4	0back/STIM_004.jpg
2492.165	0.714	correct	0back	Block4	0back/STIM_004.jpg
2496.443	0.733	correct	0back	Block4	0back/STIM_004.jpg
2500.027	0.684	correct	0back	Block4	0back/STIM_005.jpg
2503.801	0.444	correct	0back	Block4	0back/STIM_005.jpg
2507.777	0.6	correct	0back	Block4	0back/STIM_005.jpg
2511.744	0.706	correct	0back	Block4	0back/STIM_006.jpg
2515.025	0.626	correct	0back	Block4	0back/STIM_006.jpg
2518.984	0.526	correct	0back	Block4	0back/STIM_006.jpg
2521.645	0.774	correct	0back	Block4	0back/STIM_007.jpg
2526.287	0.524	correct	0back	Block4	0back/STIM_007.jpg
2529.701	0.457	correct	0back	Block4	0back/STIM_007.jpg
2533.503	0.495	correct	0back	Block4	0back/STIM_008.jpg
2536.765	0.732	correct	0back	Block4	0back/STIM_008.jpg
2540.105	0.516	correct	0back	Block4	0back/STIM_008.jpg
2543.901	0.494	correct	0back	Block4	0back/STIM_009.jpg
2546.438	0.49	correct	0back	Block4	0back/STIM_009.jpg
2550.243	0.594	correct	0back	Block4	0back/STIM_009.jpg
2553.761	0.481	correct	0back	Block4	0back/STIM_010.jpg
2557.094	0.728	correct	0back	Block4	0back/STIM_010.jpg
2560.552	0.426	correct	0back	Block4	0back/STIM_010.jpg
2564.434	0.386	correct	0back	Block4	0back/STIM_011.jpg
2567.722	0.595	incorrect	0back	Block4	0back/STIM_011.jpg
2570.815	0.423	correct	0back	Block4	0back/STIM_011.jpg
2573.703	0.68	correct	0back	Block4	0back/STIM_012.jpg
2577.843	0.585	correct	0back	Block4	0back/STIM_012.jpg
2581.515	0.4	correct	0back	Block4	0back/STIM_012.jpg
2584.987	0.581	correct	0back	Block4	0back/STIM_013.jpg
2588.075	0.684	correct	0back	Block4	0back/STIM_013.jpg
2591.028	0.483	correct	0back	Block4	0back/STIM_013.jpg
2595.492	0.519	correct	0back	Block4	0back/STIM_014.jpg
2598.692	0.557	correct	0back	Block4	0back/STIM_014.jpg
2602.042	0.46	correct	0back	Block4	0back/STIM_014.jpg
2606.097	0.582	correct	0back	Block4	0back/STIM_015.jpg
2609.871	0.644	correct	0back	Block4	0back/STIM_015.jpg
2614.291	0.749	correct	0back	Block4	0back/STIM_015.jpg
2617.554	0.479	correct	0back	Block4	0back/STIM_016.jpg
2622.066	0.697	correct	0back	Block4	0back/STIM_016.jpg
2625.069	0.418	correct	0back	Block4	0back/STIM_016.jpg
2628.878	0.583	correct	0back	Block4	0back/STIM_017.jpg
2631.548	0.624	incorrect	0back	Block4	0back/STIM_017.jpg
2635.475	0.309	correct	0back	Block4	0back/STIM_017.jpg
2637.928	0.35	correct	0back	Block4	0back/STIM_018.jpg
2640.676	0.386	correct	0back	Block4	0back/STIM_018.jpg
2643.316	0.527	correct	0back	Block4	0back/STIM_018.jpg
2646.284	0.451	correct	0back	Block4	0back/STIM_019.jpg
2649.992	0.564	correct	0back	Block4	0back/STIM_019.jpg
2653.902	0.612	correct	0back	Block4	0back/STIM_019.jpg
