onset	duration	accuracy_binary	trial_type	learning_stage	stimulus
0.0	1.632	1	2back	Block1	2back/STIM_000.jpg
4.411	1.407	1	2back	Block1	2back/STIM_000.jpg
8.072	1.264	1	2back	Block1	2back/STIM_000.jpg
13.211	0.81	1	2back	Block1	2back/STIM_001.jpg
17.166	0.815	1	2back	Block1	2back/STIM_001.jpg
21.696	0.987	1	2back	Block1	2back/STIM_001.jpg
26.064	1.637	1	2back	Block1	2back/STIM_002.jpg
29.843	1.242	1	2back	Block1	2back/STIM_002.jpg
34.861	0.966	1	2back	Block1	2back/STIM_002.jpg
37.94	0.86	1	2back	Block1	2back/STIM_003.jpg
42.549	0.783	1	2back	Block1	2back/STIM_003.jpg
46.674	1.127	1	2back	Block1	2back/STIM_003.jpg
51.682	0.911	1	2back	Block1	2back/STIM_004.jpg
56.152	1.142	1	2back	Block1	2back/STIM_004.jpg
61.225	0.886	0	2back	Block1	2back/STIM_004.jpg
65.214	0.827	1	2back	Block1	2back/STIM_005.jpg
69.677	1.172	1	2back	Block1	2back/STIM_005.jpg
74.266	1.294	1	2back	Block1	2back/STIM_005.jpg
78.808	1.55	1	2back	Block1	2back/STIM_006.jpg
82.655	0.765	1	2back	Block1	2back/STIM_006.jpg
87.335	1.484	1	2back	Block1	2back/STIM_006.jpg
92.404	1.384	1	2back	Block1	2back/STIM_007.jpg
96.306	1.129	1	2back	Block1	2back/STIM_007.jpg
101.291	0.96	1	2back	Block1	2back/STIM_007.jpg
105.059	1.201	1	2back	Block1	2back/STIM_008.jpg
109.38	1.237	1	2back	Block1	2back/STIM_008.jpg
113.434	1.334	1	2back	Block1	2back/STIM_008.jpg
117.135	1.589	0	2back	Block1	2back/STIM_009.jpg
122.58	1.226	1	2back	Block1	2back/STIM_009.jpg
127.759	1.062	1	2back	Block1	2back/STIM_009.jpg
132.753	0.771	1	2back	Block1	2back/STIM_010.jpg
137.357	1.23	1	2back	Block1	2back/STIM_010.jpg
140.679	1.067	1	2back	Block1	2back/STIM_010.jpg
145.326	1.499	0	2back	Block1	2back/STIM_011.jpg
150.111	0.955	1	2back	Block1	2back/STIM_011.jpg
154.916	0.904	1	2back	Block1	2back/STIM_011.jpg
158.565	1.24	1	2back	Block1	2back/STIM_012.jpg
163.471	1.321	1	2back	Block1	2back/STIM_012.jpg
167.138	1.375	1	2back	Block1	2back/STIM_012.jpg
171.632	1.443	0	2back	Block1	2back/STIM_013.jpg
175.852	0.718	1	2back	Block1	2back/STIM_013.jpg
179.035	1.224	1	2back	Block1	2back/STIM_013.jpg
183.293	1.318	1	2back	Block1	2back/STIM_014.jpg
187.386	1.451	1	2back	Block1	2back/STIM_014.jpg
191.514	1.172	1	2back	Block1	2back/STIM_014.jpg
195.734	0.727	1	2back	Block1	2back/STIM_015.jpg
199.002	1.067	1	2back	Block1	2back/STIM_015.jpg
202.184	1.382	1	2back	Block1	2back/STIM_015.jpg
207.145	1.421	1	2back	Block1	2back/STIM_016.jpg
210.741	0.815	1	2back	Block1	2back/STIM_016.jpg
214.163	0.732	1	2back	Block1	2back/STIM_016.jpg
217.62	1.144	1	2back	Block1	2back/STIM_017.jpg
222.689	1.141	1	2back	Block1	2back/STIM_017.jpg
226.169	1.106	0	2back	Block1	2back/STIM_017.jpg
229.588	0.931	1	2back	Block1	2back/STIM_018.jpg
232.562	0.917	1	2back	Block1	2back/STIM_018.jpg
236.03	0.679	1	2back	Block1	2back/STIM_018.jpg
239.225	1.112	1	2back	Block1	2back/STIM_019.jpg
242.481	1.468	1	2back	Block1	2back/STIM_019.jpg
246.357	0.783	1	2back	Block1	2back/STIM_019.jpg
250.986	0.866	1	2back	Block1	2back/STIM_020.jpg
255.406	1.356	1	2back	Block1	2back/STIM_020.jpg
259.901	0.766	1	2back	Block1	2back/STIM_020.jpg
263.879	1.294	1	2back	Block1	2back/STIM_021.jpg
267.692	1.355	1	2back	Block1	2back/STIM_021.jpg
271.279	0.72	0	2back	Block1	2back/STIM_021.jpg
274.905	0.832	1	2back	Block1	2back/STIM_022.jpg
279.645	1.301	1	2back	Block1	2back/STIM_022.jpg
284.705	1.475	1	2back	Block1	2back/STIM_022.jpg
289.666	1.297	1	2back	Block1	2back/STIM_023.jpg
294.837	0.874	1	2back	Block1	2back/STIM_023.jpg
298.696	0.656	1	2back	Block1	2back/STIM_023.jpg
302.801	1.226	1	2back	Block1	2back/STIM_024.jpg
307.046	0.832	1	2back	Block1	2back/STIM_024.jpg
311.392	0.781	1	2back	Block1	2back/STIM_024.jpg
315.547	1.612	1	2back	Block1	2back/STIM_025.jpg
320.347	1.24	1	2back	Block1	2back/STIM_025.jpg
324.134	1.431	1	2back	Block1	2back/STIM_025.jpg
328.075	1.584	1	2back	Block1	2back/STIM_026.jpg
331.789	1.06	1	2back	Block1	2back/STIM_026.jpg
334.969	0.878	1	2back	Block1	2back/STIM_026.jpg
338.81	1.33	1	2back	Block1	2back/STIM_027.jpg
343.779	0.85	1	2back	Block1	2back/STIM_027.jpg
347.621	0.766	1	2back	Block1	2back/STIM_027.jpg
351.446	1.527	1	2back	Block1	2back/STIM_028.jpg
356.299	1.174	1	2back	Block1	2back/STIM_028.jpg
360.065	0.836	1	2back	Block1	2back/STIM_028.jpg
363.062	1.306	1	2back	Block1	2back/STIM_029.jpg
368.036	1.158	1	2back	Block1	2back/STIM_029.jpg
372.499	0.882	1	2back	Block1	2back/STIM_029.jpg
376.63	1.05	1	2back	Block1	2back/STIM_030.jpg
381.554	1.129	0	2back	Block1	2back/STIM_030.jpg
386.465	1.071	1	2back	Block1	2back/STIM_030.jpg
389.677	1.376	0	2back	Block1	2back/STIM_031.jpg
394.276	1.277	1	2back	Block1	2back/STIM_031.jpg
397.956	1.162	1	2back	Block1	2back/STIM_031.jpg
402.32	0.989	1	2back	Block1	2back/STIM_032.jpg
407.171	0.956	1	2back	Block1	2back/STIM_032.jpg
410.557	1.467	1	2back	Block1	2back/STIM_032.jpg
415.532	0.82	1	2back	Block1	2back/STIM_033.jpg
418.786	0.701	1	2back	Block1	2back/STIM_033.jpg
421.89	0.646	1	2back	Block1	2back/STIM_033.jpg
425.007	0.782	0	2back	Block1	2back/STIM_034.jpg
428.851	1.429	1	2back	Block1	2back/STIM_034.jpg
432.381	1.154	1	2back	Block1	2back/STIM_034.jpg
437.274	1.517	1	2back	Block1	2back/STIM_035.jpg
441.249	1.565	1	2back	Block1	2back/STIM_035.jpg
445.293	1.257	1	2back	Block1	2back/STIM_035.jpg
450.175	1.197	1	2back	Block1	2back/STIM_036.jpg
454.005	1.175	1	2back	Block1	2back/STIM_036.jpg
457.682	0.696	1	2back	Block1	2back/STIM_036.jpg
461.483	1.208	1	2back	Block1	2back/STIM_037.jpg
464.77	1.091	0	2back	Block1	2back/STIM_037.jpg
469.322	1.232	1	2back	Block1	2back/STIM_037.jpg
473.452	1.605	1	2back	Block1	2back/STIM_038.jpg
478.777	0.724	1	2back	Block1	2back/STIM_038.jpg
481.97	1.076	1	2back	Block1	2back/STIM_038.jpg
485.97	1.637	1	2back	Block1	2back/STIM_039.jpg
490.369	1.02	1	2back	Block1	2back/STIM_039.jpg
493.938	0.975	1	2back	Block1	2back/STIM_039.jpg
497.792	0.599	1	0back	Block1	0back/STIM_000.jpg
501.733	0.504	1	0back	Block1	0back/STIM_000.jpg
505.005	0.83	1	0back	Block1	0back/STIM_000.jpg
508.966	0.551	1	0back	Block1	0back/STIM_001.jpg
513.208	0.748	1	0back	Block1	0back/STIM_001.jpg
517.43	0.851	1	0back	Block1	0back/STIM_001.jpg
521.466	0.898	1	0back	Block1	0back/STIM_002.jpg
524.789	0.762	1	0back	Block1	0back/STIM_002.jpg
529.053	0.601	1	0back	Block1	0back/STIM_002.jpg
532.806	0.563	1	0back	Block1	0back/STIM_003.jpg
537.005	0.494	1	0back	Block1	0back/STIM_003.jpg
540.34	0.871	1	0back	Block1	0back/STIM_003.jpg
543.559	0.541	1	0back	Block1	0back/STIM_004.jpg
547.94	0.943	1	0back	Block1	0back/STIM_004.jpg
551.924	0.804	1	0back	Block1	0back/STIM_004.jpg
555.571	0.919	1	0back	Block1	0back/STIM_005.jpg
560.287	0.92	1	0back	Block1	0back/STIM_005.jpg
564.636	0.931	1	0back	Block1	0back/STIM_005.jpg
568.033	0.779	1	0back	Block1	0back/STIM_006.jpg
572.301	0.729	1	0back	Block1	0back/STIM_006.jpg
576.168	0.732	1	0back	Block1	0back/STIM_006.jpg
579.892	0.783	1	0back	Block1	0back/STIM_007.jpg
582.866	0.881	0	0back	Block1	0back/STIM_007.jpg
587.165	0.547	1	0back	Block1	0back/STIM_007.jpg
590.394	0.732	1	0back	Block1	0back/STIM_008.jpg
595.111	0.719	1	0back	Block1	0back/STIM_008.jpg
598.952	0.559	1	0back	Block1	0back/STIM_008.jpg
602.072	0.49	1	0back	Block1	0back/STIM_009.jpg
606.236	0.77	1	0back	Block1	0back/STIM_009.jpg
609.08	0.938	1	0back	Block1	0back/STIM_009.jpg
613.297	0.554	1	0back	Block1	0back/STIM_010.jpg
616.19	0.664	1	0back	Block1	0back/STIM_010.jpg
619.636	0.911	1	0back	Block1	0back/STIM_010.jpg
624.454	0.724	1	0back	Block1	0back/STIM_011.jpg
627.614	0.841	1	0back	Block1	0back/STIM_011.jpg
632.193	0.748	1	0back	Block1	0back/STIM_011.jpg
635.672	0.949	1	0back	Block1	0back/STIM_012.jpg
639.516	0.875	1	0back	Block1	0back/STIM_012.jpg
643.207	0.609	1	0back	Block1	0back/STIM_012.jpg
647.431	0.904	1	0back	Block1	0back/STIM_013.jpg
650.442	0.891	1	0back	Block1	0back/STIM_013.jpg
655.245	0.717	1	0back	Block1	0back/STIM_013.jpg
658.424	0.74	1	0back	Block1	0back/STIM_014.jpg
661.483	0.542	1	0back	Block1	0back/STIM_014.jpg
665.887	0.905	1	0back	Block1	0back/STIM_014.jpg
670.677	0.531	1	0back	Block1	0back/STIM_015.jpg
673.408	0.63	1	0back	Block1	0back/STIM_015.jpg
676.596	0.534	1	0back	Block1	0back/STIM_015.jpg
680.459	0.534	1	0back	Block1	0back/STIM_016.jpg
684.775	0.769	1	0back	Block1	0back/STIM_016.jpg
689.497	0.533	1	0back	Block1	0back/STIM_016.jpg
692.04	0.638	1	0back	Block1	0back/STIM_017.jpg
695.73	0.746	1	0back	Block1	0back/STIM_017.jpg
699.238	0.611	1	0back	Block1	0back/STIM_017.jpg
702.287	0.614	1	0back	Block1	0back/STIM_018.jpg
706.598	0.922	1	0back	Block1	0back/STIM_018.jpg
710.096	0.51	1	0back	Block1	0back/STIM_018.jpg
713.683	0.615	1	0back	Block1	0back/STIM_019.jpg
716.944	0.701	1	0back	Block1	0back/STIM_019.jpg
721.529	0.781	1	0back	Block1	0back/STIM_019.jpg
725.185	1.056	1	2back	Block2	2back/STIM_000.jpg
728.586	0.872	1	2back	Block2	2back/STIM_000.jpg
731.656	1.064	1	2back	Block2	2back/STIM_000.jpg
735.252	0.866	1	2back	Block2	2back/STIM_001.jpg
738.553	1.316	1	2back	Block2	2back/STIM_001.jpg
742.502	0.947	1	2back	Block2	2back/STIM_001.jpg
745.549	0.737	1	2back	Block2	2back/STIM_002.jpg
749.069	0.757	1	2back	Block2	2back/STIM_002.jpg
753.548	0.579	1	2back	Block2	2back/STIM_002.jpg
757.204	1.333	1	2back	Block2	2back/STIM_003.jpg
761.595	0.939	1	2back	Block2	2back/STIM_003.jpg
765.385	0.918	1	2back	Block2	2back/STIM_003.jpg
768.336	0.825	1	2back	Block2	2back/STIM_004.jpg
771.477	0.752	1	2back	Block2	2back/STIM_004.jpg
776.189	1.055	1	2back	Block2	2back/STIM_004.jpg
779.391	1.363	1	2back	Block2	2back/STIM_005.jpg
784.468	0.995	1	2back	Block2	2back/STIM_005.jpg
788.226	1.011	1	2back	Block2	2back/STIM_005.jpg
791.62	0.706	1	2back	Block2	2back/STIM_006.jpg
795.721	0.816	1	2back	Block2	2back/STIM_006.jpg
799.611	0.96	1	2back	Block2	2back/STIM_006.jpg
802.686	0.907	1	2back	Block2	2back/STIM_007.jpg
806.177	1.262	1	2back	Block2	2back/STIM_007.jpg
811.084	0.632	1	2back	Block2	2back/STIM_007.jpg
815.428	0.75	1	2back	Block2	2back/STIM_008.jpg
819.83	0.771	1	2back	Block2	2back/STIM_008.jpg
822.619	0.67	1	2back	Block2	2back/STIM_008.jpg
826.43	1.113	1	2back	Block2	2back/STIM_009.jpg
831.074	1.185	1	2back	Block2	2back/STIM_009.jpg
835.211	1.243	1	2back	Block2	2back/STIM_009.jpg
838.458	0.66	1	2back	Block2	2back/STIM_010.jpg
842.27	0.797	1	2back	Block2	2back/STIM_010.jpg
845.915	1.036	1	2back	Block2	2back/STIM_010.jpg
849.693	1.303	1	2back	Block2	2back/STIM_011.jpg
854.413	0.779	1	2back	Block2	2back/STIM_011.jpg
859.118	0.828	1	2back	Block2	2back/STIM_011.jpg
862.812	0.643	1	2back	Block2	2back/STIM_012.jpg
866.017	1.33	1	2back	Block2	2back/STIM_012.jpg
869.84	1.158	1	2back	Block2	2back/STIM_012.jpg
874.901	0.837	1	2back	Block2	2back/STIM_013.jpg
878.657	1.106	1	2back	Block2	2back/STIM_013.jpg
882.751	0.897	1	2back	Block2	2back/STIM_013.jpg
886.778	1.355	1	2back	Block2	2back/STIM_014.jpg
890.533	0.608	1	2back	Block2	2back/STIM_014.jpg
893.533	1.165	1	2back	Block2	2back/STIM_014.jpg
897.534	1.212	1	2back	Block2	2back/STIM_015.jpg
901.438	1.206	1	2back	Block2	2back/STIM_015.jpg
905.915	1.133	1	2back	Block2	2back/STIM_015.jpg
910.719	1.302	1	2back	Block2	2back/STIM_016.jpg
915.294	1.041	1	2back	Block2	2back/STIM_016.jpg
919.493	0.973	1	2back	Block2	2back/STIM_016.jpg
923.386	1.019	1	2back	Block2	2back/STIM_017.jpg
926.443	1.136	1	2back	Block2	2back/STIM_017.jpg
930.253	0.719	1	2back	Block2	2back/STIM_017.jpg
934.592	1.322	1	2back	Block2	2back/STIM_018.jpg
939.084	0.843	1	2back	Block2	2back/STIM_018.jpg
943.578	1.19	1	2back	Block2	2back/STIM_018.jpg
946.77	0.618	0	2back	Block2	2back/STIM_019.jpg
950.081	1.08	0	2back	Block2	2back/STIM_019.jpg
954.34	0.718	1	2back	Block2	2back/STIM_019.jpg
958.925	1.239	1	2back	Block2	2back/STIM_020.jpg
963.958	0.705	1	2back	Block2	2back/STIM_020.jpg
968.045	0.769	1	2back	Block2	2back/STIM_020.jpg
971.987	1.05	1	2back	Block2	2back/STIM_021.jpg
975.602	0.858	1	2back	Block2	2back/STIM_021.jpg
980.46	0.541	1	2back	Block2	2back/STIM_021.jpg
983.744	0.864	1	2back	Block2	2back/STIM_022.jpg
988.417	0.806	1	2back	Block2	2back/STIM_022.jpg
991.67	0.648	1	2back	Block2	2back/STIM_022.jpg
995.582	0.666	1	2back	Block2	2back/STIM_023.jpg
999.7	1.012	1	2back	Block2	2back/STIM_023.jpg
1003.104	0.945	1	2back	Block2	2back/STIM_023.jpg
1006.508	1.042	1	2back	Block2	2back/STIM_024.jpg
1010.813	0.799	1	2back	Block2	2back/STIM_024.jpg
1013.914	0.973	1	2back	Block2	2back/STIM_024.jpg
1017.062	0.67	1	2back	Block2	2back/STIM_025.jpg
1020.726	0.65	1	2back	Block2	2back/STIM_025.jpg
1024.47	0.694	1	2back	Block2	2back/STIM_025.jpg
1028.038	0.786	1	2back	Block2	2back/STIM_026.jpg
1030.971	1.125	1	2back	Block2	2back/STIM_026.jpg
1035.866	1.094	1	2back	Block2	2back/STIM_026.jpg
1040.828	1.295	1	2back	Block2	2back/STIM_027.jpg
1045.132	0.606	1	2back	Block2	2back/STIM_027.jpg
1048.916	1.155	1	2back	Block2	2back/STIM_027.jpg
1053.671	0.844	1	2back	Block2	2back/STIM_028.jpg
1056.871	1.04	1	2back	Block2	2back/STIM_028.jpg
1060.457	1.155	1	2back	Block2	2back/STIM_028.jpg
1064.949	1.231	1	2back	Block2	2back/STIM_029.jpg
1068.329	0.949	1	2back	Block2	2back/STIM_029.jpg
1072.203	0.591	1	2back	Block2	2back/STIM_029.jpg
1076.034	1.177	1	2back	Block2	2back/STIM_030.jpg
1079.851	1.187	1	2back	Block2	2back/STIM_030.jpg
1083.507	1.103	1	2back	Block2	2back/STIM_030.jpg
1088.553	1.207	1	2back	Block2	2back/STIM_031.jpg
1092.422	0.787	1	2back	Block2	2back/STIM_031.jpg
1096.327	1.163	1	2back	Block2	2back/STIM_031.jpg
1099.505	1.063	1	2back	Block2	2back/STIM_032.jpg
1103.775	1.305	1	2back	Block2	2back/STIM_032.jpg
1108.901	0.966	1	2back	Block2	2back/STIM_032.jpg
1113.092	1.386	1	2back	Block2	2back/STIM_033.jpg
1116.726	1.124	1	2back	Block2	2back/STIM_033.jpg
1121.609	1.036	1	2back	Block2	2back/STIM_033.jpg
1126.176	0.984	1	2back	Block2	2back/STIM_034.jpg
1130.019	0.993	1	2back	Block2	2back/STIM_034.jpg
1134.157	0.99	1	2back	Block2	2back/STIM_034.jpg
1138.477	0.868	0	2back	Block2	2back/STIM_035.jpg
1141.924	0.657	1	2back	Block2	2back/STIM_035.jpg
1145.245	1.089	1	2back	Block2	2back/STIM_035.jpg
1149.467	0.63	1	2back	Block2	2back/STIM_036.jpg
1153.547	0.996	1	2back	Block2	2back/STIM_036.jpg
1157.525	0.669	1	2back	Block2	2back/STIM_036.jpg
1161.706	1.193	1	2back	Block2	2back/STIM_037.jpg
1166.459	0.944	1	2back	Block2	2back/STIM_037.jpg
1170.511	1.182	1	2back	Block2	2back/STIM_037.jpg
1175.039	1.316	1	2back	Block2	2back/STIM_038.jpg
1179.169	0.606	1	2back	Block2	2back/STIM_038.jpg
1181.906	1.199	1	2back	Block2	2back/STIM_038.jpg
1186.749	0.611	1	2back	Block2	2back/STIM_039.jpg
1189.554	0.834	1	2back	Block2	2back/STIM_039.jpg
1194.024	1.158	1	2back	Block2	2back/STIM_039.jpg
1199.125	0.56	1	0back	Block2	0back/STIM_000.jpg
1202.127	0.793	1	0back	Block2	0back/STIM_000.jpg
1206.111	0.72	1	0back	Block2	0back/STIM_000.jpg
1209.614	0.635	1	0back	Block2	0back/STIM_001.jpg
1214.16	0.849	1	0back	Block2	0back/STIM_001.jpg
1218.997	0.74	1	0back	Block2	0back/STIM_001.jpg
1222.954	0.54	1	0back	Block2	0back/STIM_002.jpg
1227.183	0.823	1	0back	Block2	0back/STIM_002.jpg
1230.601	0.813	1	0back	Block2	0back/STIM_002.jpg
1233.513	0.75	1	0back	Block2	0back/STIM_003.jpg
1237.933	0.574	1	0back	Block2	0back/STIM_003.jpg
1242.382	0.702	1	0back	Block2	0back/STIM_003.jpg
1246.116	0.745	1	0back	Block2	0back/STIM_004.jpg
1249.405	0.778	1	0back	Block2	0back/STIM_004.jpg
1253.509	0.526	1	0back	Block2	0back/STIM_004.jpg
1256.347	0.888	1	0back	Block2	0back/STIM_005.jpg
1261.084	0.775	1	0back	Block2	0back/STIM_005.jpg
1264.598	0.789	1	0back	Block2	0back/STIM_005.jpg
1268.379	0.68	1	0back	Block2	0back/STIM_006.jpg
1271.78	0.587	1	0back	Block2	0back/STIM_006.jpg
1274.455	0.535	1	0back	Block2	0back/STIM_006.jpg
1278.551	0.502	1	0back	Block2	0back/STIM_007.jpg
1282.957	0.928	1	0back	Block2	0back/STIM_007.jpg
1287.765	0.914	1	0back	Block2	0back/STIM_007.jpg
1290.827	0.605	1	0back	Block2	0back/STIM_008.jpg
1293.894	0.606	1	0back	Block2	0back/STIM_008.jpg
1298.333	0.723	1	0back	Block2	0back/STIM_008.jpg
1302.501	0.806	1	0back	Block2	0back/STIM_009.jpg
1306.581	0.884	1	0back	Block2	0back/STIM_009.jpg
1310.214	0.926	1	0back	Block2	0back/STIM_009.jpg
1314.054	0.749	1	0back	Block2	0back/STIM_010.jpg
1318.01	0.687	1	0back	Block2	0back/STIM_010.jpg
1321.141	0.624	1	0back	Block2	0back/STIM_010.jpg
1324.781	0.802	1	0back	Block2	0back/STIM_011.jpg
1328.969	0.512	1	0back	Block2	0back/STIM_011.jpg
1333.164	0.49	1	0back	Block2	0back/STIM_011.jpg
1337.578	0.552	1	0back	Block2	0back/STIM_012.jpg
1341.006	0.59	1	0back	Block2	0back/STIM_012.jpg
1345.159	0.662	1	0back	Block2	0back/STIM_012.jpg
1348.713	0.706	1	0back	Block2	0back/STIM_013.jpg
1351.761	0.505	1	0back	Block2	0back/STIM_013.jpg
1355.788	0.842	1	0back	Block2	0back/STIM_013.jpg
1360.061	0.913	1	0back	Block2	0back/STIM_014.jpg
1364.616	0.906	1	0back	Block2	0back/STIM_014.jpg
1369.021	0.815	1	0back	Block2	0back/STIM_014.jpg
1373.109	0.487	1	0back	Block2	0back/STIM_015.jpg
1377.472	0.702	1	0back	Block2	0back/STIM_015.jpg
1380.657	0.936	1	0back	Block2	0back/STIM_015.jpg
1385.255	0.561	1	0back	Block2	0back/STIM_016.jpg
1389.63	0.539	1	0back	Block2	0back/STIM_016.jpg
1393.833	0.714	1	0back	Block2	0back/STIM_016.jpg
1396.694	0.686	1	0back	Block2	0back/STIM_017.jpg
1400.711	0.935	1	0back	Block2	0back/STIM_017.jpg
1404.188	0.942	1	0back	Block2	0back/STIM_017.jpg
1407.721	0.741	1	0back	Block2	0back/STIM_018.jpg
1411.891	0.876	1	0back	Block2	0back/STIM_018.jpg
1415.318	0.653	1	0back	Block2	0back/STIM_018.jpg
1418.053	0.788	1	0back	Block2	0back/STIM_019.jpg
1421.719	0.687	1	0back	Block2	0back/STIM_019.jpg
1424.907	0.703	1	0back	Block2	0back/STIM_019.jpg
1429.265	0.981	1	2back	Block3	2back/STIM_000.jpg
1434.069	0.692	1	2back	Block3	2back/STIM_000.jpg
1437.623	0.79	1	2back	Block3	2back/STIM_000.jpg
1442.172	1.014	1	2back	Block3	2back/STIM_001.jpg
1447.059	0.616	1	2back	Block3	2back/STIM_001.jpg
1451.208	1.007	1	2back	Block3	2back/STIM_001.jpg
1454.357	0.763	1	2back	Block3	2back/STIM_002.jpg
1457.466	1.094	1	2back	Block3	2back/STIM_002.jpg
1460.566	0.704	1	2back	Block3	2back/STIM_002.jpg
1464.132	0.515	1	2back	Block3	2back/STIM_003.jpg
1467.464	0.863	1	2back	Block3	2back/STIM_003.jpg
1472.154	0.728	1	2back	Block3	2back/STIM_003.jpg
1475.434	0.615	1	2back	Block3	2back/STIM_004.jpg
1478.628	1.07	1	2back	Block3	2back/STIM_004.jpg
1482.989	0.639	1	2back	Block3	2back/STIM_004.jpg
1486.044	1.096	1	2back	Block3	2back/STIM_005.jpg
1489.532	0.954	1	2back	Block3	2back/STIM_005.jpg
1494.295	1.061	1	2back	Block3	2back/STIM_005.jpg
1497.874	0.925	1	2back	Block3	2back/STIM_006.jpg
1500.952	0.78	1	2back	Block3	2back/STIM_006.jpg
1505.258	1.038	1	2back	Block3	2back/STIM_006.jpg
1510.256	1.003	1	2back	Block3	2back/STIM_007.jpg
1514.729	1.14	1	2back	Block3	2back/STIM_007.jpg
1518.696	0.984	1	2back	Block3	2back/STIM_007.jpg
1522.721	0.742	1	2back	Block3	2back/STIM_008.jpg
1527.411	0.709	1	2back	Block3	2back/STIM_008.jpg
1531.237	0.903	1	2back	Block3	2back/STIM_008.jpg
1535.098	1.082	1	2back	Block3	2back/STIM_009.jpg
1540.103	0.947	1	2back	Block3	2back/STIM_009.jpg
1543.356	0.837	1	2back	Block3	2back/STIM_009.jpg
1547.836	0.601	1	2back	Block3	2back/STIM_010.jpg
1551.004	0.628	1	2back	Block3	2back/STIM_010.jpg
1555.272	0.748	1	2back	Block3	2back/STIM_010.jpg
1558.714	0.605	1	2back	Block3	2back/STIM_011.jpg
1562.334	1.02	1	2back	Block3	2back/STIM_011.jpg
1567.159	0.828	1	2back	Block3	2back/STIM_011.jpg
1571.55	0.93	1	2back	Block3	2back/STIM_012.jpg
1575.706	0.657	1	2back	Block3	2back/STIM_012.jpg
1578.883	0.514	1	2back	Block3	2back/STIM_012.jpg
1582.569	1.042	1	2back	Block3	2back/STIM_013.jpg
1585.686	0.708	1	2back	Block3	2back/STIM_013.jpg
1588.682	0.802	1	2back	Block3	2back/STIM_013.jpg
1593.358	0.676	1	2back	Block3	2back/STIM_014.jpg
1596.08	0.627	1	2back	Block3	2back/STIM_014.jpg
1600.403	0.844	1	2back	Block3	2back/STIM_014.jpg
1604.564	0.57	1	2back	Block3	2back/STIM_015.jpg
1607.165	0.515	1	2back	Block3	2back/STIM_015.jpg
1609.941	0.749	1	2back	Block3	2back/STIM_015.jpg
1614.385	0.727	1	2back	Block3	2back/STIM_016.jpg
1618.438	0.685	1	2back	Block3	2back/STIM_016.jpg
1621.756	0.923	1	2back	Block3	2back/STIM_016.jpg
1624.948	0.759	1	2back	Block3	2back/STIM_017.jpg
1629.355	0.722	1	2back	Block3	2back/STIM_017.jpg
1632.156	1.01	1	2back	Block3	2back/STIM_017.jpg
1635.914	0.512	1	2back	Block3	2back/STIM_018.jpg
1639.798	0.846	1	2back	Block3	2back/STIM_018.jpg
1642.716	0.513	1	2back	Block3	2back/STIM_018.jpg
1646.928	1.074	1	2back	Block3	2back/STIM_019.jpg
1650.921	0.832	1	2back	Block3	2back/STIM_019.jpg
1655.475	0.738	1	2back	Block3	2back/STIM_019.jpg
1659.358	1.1	1	2back	Block3	2back/STIM_020.jpg
1663.87	1.082	1	2back	Block3	2back/STIM_020.jpg
1668.104	1.102	1	2back	Block3	2back/STIM_020.jpg
1672.848	0.622	0	2back	Block3	2back/STIM_021.jpg
1675.608	0.839	1	2back	Block3	2back/STIM_021.jpg
1679.055	0.579	1	2back	Block3	2back/STIM_021.jpg
1682.291	0.506	1	2back	Block3	2back/STIM_022.jpg
1686.69	0.932	1	2back	Block3	2back/STIM_022.jpg
1691.067	0.952	1	2back	Block3	2back/STIM_022.jpg
1694.621	0.71	1	2back	Block3	2back/STIM_023.jpg
1698.838	0.557	1	2back	Block3	2back/STIM_023.jpg
1702.12	0.972	1	2back	Block3	2back/STIM_023.jpg
1706.984	0.674	1	2back	Block3	2back/STIM_024.jpg
1709.951	1.11	1	2back	Block3	2back/STIM_024.jpg
1713.907	0.766	1	2back	Block3	2back/STIM_024.jpg
1717.377	0.611	1	2back	Block3	2back/STIM_025.jpg
1720.734	1.042	1	2back	Block3	2back/STIM_025.jpg
1725.538	0.872	1	2back	Block3	2back/STIM_025.jpg
1728.766	0.719	1	2back	Block3	2back/STIM_026.jpg
1732.998	0.765	1	2back	Block3	2back/STIM_026.jpg
1736.05	0.929	1	2back	Block3	2back/STIM_026.jpg
1739.21	1.038	1	2back	Block3	2back/STIM_027.jpg
1743.294	0.982	1	2back	Block3	2back/STIM_027.jpg
1747.932	0.558	1	2back	Block3	2back/STIM_027.jpg
1751.966	0.594	1	2back	Block3	2back/STIM_028.jpg
1755.008	0.565	1	2back	Block3	2back/STIM_028.jpg
1758.633	1.153	1	2back	Block3	2back/STIM_028.jpg
1763.043	1.111	1	2back	Block3	2back/STIM_029.jpg
1767.282	0.991	1	2back	Block3	2back/STIM_029.jpg
1770.89	0.764	1	2back	Block3	2back/STIM_029.jpg
1775.138	0.907	1	2back	Block3	2back/STIM_030.jpg
1779.031	0.874	1	2back	Block3	2back/STIM_030.jpg
1782.903	0.843	1	2back	Block3	2back/STIM_030.jpg
1786.472	0.858	1	2back	Block3	2back/STIM_031.jpg
1791.185	0.7	1	2back	Block3	2back/STIM_031.jpg
1795.403	0.666	1	2back	Block3	2back/STIM_031.jpg
1798.292	0.602	1	2back	Block3	2back/STIM_032.jpg
1801.882	0.669	1	2back	Block3	2back/STIM_032.jpg
1805.629	1.153	1	2back	Block3	2back/STIM_032.jpg
1810.184	1.144	1	2back	Block3	2back/STIM_033.jpg
1814.57	0.74	1	2back	Block3	2back/STIM_033.jpg
1819.231	0.643	1	2back	Block3	2back/STIM_033.jpg
1823.035	0.924	1	2back	Block3	2back/STIM_034.jpg
1826.983	0.759	1	2back	Block3	2back/STIM_034.jpg
1831.534	1.066	1	2back	Block3	2back/STIM_034.jpg
1835.074	0.691	1	2back	Block3	2back/STIM_035.jpg
1838.53	1.063	1	2back	Block3	2back/STIM_035.jpg
1842.27	0.712	1	2back	Block3	2back/STIM_035.jpg
1846.615	0.94	1	2back	Block3	2back/STIM_036.jpg
1849.879	0.962	1	2back	Block3	2back/STIM_036.jpg
1853.381	0.598	1	2back	Block3	2back/STIM_036.jpg
1857.957	0.81	1	2back	Block3	2back/STIM_037.jpg
1862.036	0.589	1	2back	Block3	2back/STIM_037.jpg
1865.464	1.119	1	2back	Block3	2back/STIM_037.jpg
1869.504	0.856	1	2back	Block3	2back/STIM_038.jpg
1872.689	1.059	1	2back	Block3	2back/STIM_038.jpg
1876.545	0.655	1	2back	Block3	2back/STIM_038.jpg
1881.022	0.802	1	2back	Block3	2back/STIM_039.jpg
1884.014	0.872	1	2back	Block3	2back/STIM_039.jpg
1888.778	0.861	1	2back	Block3	2back/STIM_039.jpg
1891.9	0.885	1	0back	Block3	0back/STIM_000.jpg
1896.607	0.857	1	0back	Block3	0back/STIM_000.jpg
1899.695	0.951	1	0back	Block3	0back/STIM_000.jpg
1903.663	0.589	1	0back	Block3	0back/STIM_001.jpg
1907.465	0.776	1	0back	Block3	0back/STIM_001.jpg
1911.098	0.87	1	0back	Block3	0back/STIM_001.jpg
1915.499	0.571	1	0back	Block3	0back/STIM_002.jpg
1918.728	0.6	1	0back	Block3	0back/STIM_002.jpg
1922.031	0.802	1	0back	Block3	0back/STIM_002.jpg
1925.154	0.752	1	0back	Block3	0back/STIM_003.jpg
1928.277	0.842	1	0back	Block3	0back/STIM_003.jpg
1932.19	0.914	1	0back	Block3	0back/STIM_003.jpg
1936.892	0.66	1	0back	Block3	0back/STIM_004.jpg
1940.523	0.916	1	0back	Block3	0back/STIM_004.jpg
1943.588	0.614	1	0back	Block3	0back/STIM_004.jpg
1946.271	0.577	1	0back	Block3	0back/STIM_005.jpg
1949.888	0.89	1	0back	Block3	0back/STIM_005.jpg
1954.059	0.874	1	0back	Block3	0back/STIM_005.jpg
1958.68	0.706	1	0back	Block3	0back/STIM_006.jpg
1961.769	0.904	1	0back	Block3	0back/STIM_006.jpg
1964.68	0.935	1	0back	Block3	0back/STIM_006.jpg
1969.052	0.5	1	0back	Block3	0back/STIM_007.jpg
1972.089	0.893	1	0back	Block3	0back/STIM_007.jpg
1975.577	0.649	1	0back	Block3	0back/STIM_007.jpg
1979.027	0.559	1	0back	Block3	0back/STIM_008.jpg
1983.471	0.742	1	0back	Block3	0back/STIM_008.jpg
1987.94	0.507	1	0back	Block3	0back/STIM_008.jpg
1992.33	0.865	1	0back	Block3	0back/STIM_009.jpg
1996.111	0.587	1	0back	Block3	0back/STIM_009.jpg
1998.973	0.848	1	0back	Block3	0back/STIM_009.jpg
2001.936	0.929	1	0back	Block3	0back/STIM_010.jpg
2006.853	0.892	1	0back	Block3	0back/STIM_010.jpg
2010.477	0.712	1	0back	Block3	0back/STIM_010.jpg
2015.04	0.564	1	0back	Block3	0back/STIM_011.jpg
2017.625	0.921	1	0back	Block3	0back/STIM_011.jpg
2021.26	0.651	1	0back	Block3	0back/STIM_011.jpg
2024.646	0.688	1	0back	Block3	0back/STIM_012.jpg
2028.759	0.868	1	0back	Block3	0back/STIM_012.jpg
2032.686	0.489	1	0back	Block3	0back/STIM_012.jpg
2036.618	0.715	1	0back	Block3	0back/STIM_013.jpg
2040.408	0.83	1	0back	Block3	0back/STIM_013.jpg
2044.713	0.607	1	0back	Block3	0back/STIM_013.jpg
2048.836	0.485	1	0back	Block3	0back/STIM_014.jpg
2051.364	0.788	1	0back	Block3	0back/STIM_014.jpg
2055.668	0.609	1	0back	Block3	0back/STIM_014.jpg
2058.783	0.702	1	0back	Block3	0back/STIM_015.jpg
2061.946	0.523	1	0back	Block3	0back/STIM_015.jpg
2066.092	0.634	1	0back	Block3	0back/STIM_015.jpg
2069.722	0.499	1	0back	Block3	0back/STIM_016.jpg
2073.129	0.549	1	0back	Block3	0back/STIM_016.jpg
2076.003	0.535	1	0back	Block3	0back/STIM_016.jpg
2080.484	0.867	1	0back	Block3	0back/STIM_017.jpg
2084.029	0.664	1	0back	Block3	0back/STIM_017.jpg
2088.2	0.595	1	0back	Block3	0back/STIM_017.jpg
2090.967	0.845	1	0back	Block3	0back/STIM_018.jpg
2095.363	0.909	1	0back	Block3	0back/STIM_018.jpg
2098.71	0.889	1	0back	Block3	0back/STIM_018.jpg
2103.42	0.652	1	0back	Block3	0back/STIM_019.jpg
2107.612	0.648	1	0back	Block3	0back/STIM_019.jpg
2110.379	0.55	1	0back	Block3	0back/STIM_019.jpg
2114.154	0.827	1	2back	Block4	2back/STIM_000.jpg
2118.245	0.661	1	2back	Block4	2back/STIM_000.jpg
2121.502	0.571	1	2back	Block4	2back/STIM_000.jpg
2124.33	0.812	1	2back	Block4	2back/STIM_001.jpg
2127.902	0.572	1	2back	Block4	2back/STIM_001.jpg
2131.756	0.812	1	2back	Block4	2back/STIM_001.jpg
2135.858	0.876	1	2back	Block4	2back/STIM_002.jpg
2139.112	0.95	1	2back	Block4	2back/STIM_002.jpg
2143.556	1.112	1	2back	Block4	2back/STIM_002.jpg
2148.121	1.1	1	2back	Block4	2back/STIM_003.jpg
2152.874	1.097	1	2back	Block4	2back/STIM_003.jpg
2157.091	0.841	1	2back	Block4	2back/STIM_003.jpg
2161.182	0.649	1	2back	Block4	2back/STIM_004.jpg
2165.343	1.075	1	2back	Block4	2back/STIM_004.jpg
2169.903	0.574	1	2back	Block4	2back/STIM_004.jpg
2174.307	0.547	1	2back	Block4	2back/STIM_005.jpg
2178.668	0.921	1	2back	Block4	2back/STIM_005.jpg
2182.824	1.115	1	2back	Block4	2back/STIM_005.jpg
2186.549	0.548	1	2back	Block4	2back/STIM_006.jpg
2190.792	1.122	1	2back	Block4	2back/STIM_006.jpg
2194.151	1.116	1	2back	Block4	2back/STIM_006.jpg
2197.38	0.734	1	2back	Block4	2back/STIM_007.jpg
2200.553	0.635	1	2back	Block4	2back/STIM_007.jpg
2204.165	0.792	1	2back	Block4	2back/STIM_007.jpg
2208.292	0.521	1	2back	Block4	2back/STIM_008.jpg
2211.929	0.682	1	2back	Block4	2back/STIM_008.jpg
2215.767	0.955	1	2back	Block4	2back/STIM_008.jpg
2219.896	0.755	1	2back	Block4	2back/STIM_009.jpg
2223.326	1.039	1	2back	Block4	2back/STIM_009.jpg
2226.668	0.903	1	2back	Block4	2back/STIM_009.jpg
2231.269	0.884	1	2back	Block4	2back/STIM_010.jpg
2235.29	1.057	1	2back	Block4	2back/STIM_010.jpg
2238.88	0.995	1	2back	Block4	2back/STIM_010.jpg
2243.33	0.961	1	2back	Block4	2back/STIM_011.jpg
2247.333	1.1	1	2back	Block4	2back/STIM_011.jpg
2251.93	0.609	1	2back	Block4	2back/STIM_011.jpg
2255.13	0.576	1	2back	Block4	2back/STIM_012.jpg
2258.275	0.93	1	2back	Block4	2back/STIM_012.jpg
2261.781	0.663	1	2back	Block4	2back/STIM_012.jpg
2265.596	1.02	1	2back	Block4	2back/STIM_013.jpg
2269.798	0.894	1	2back	Block4	2back/STIM_013.jpg
2274.485	0.798	1	2back	Block4	2back/STIM_013.jpg
2279.174	1.028	1	2back	Block4	2back/STIM_014.jpg
2283.201	1.149	1	2back	Block4	2back/STIM_014.jpg
2287.427	1.064	1	2back	Block4	2back/STIM_014.jpg
2290.633	0.814	1	2back	Block4	2back/STIM_015.jpg
2294.65	0.607	1	2back	Block4	2back/STIM_015.jpg
2297.507	0.704	1	2back	Block4	2back/STIM_015.jpg
2301.33	0.56	1	2back	Block4	2back/STIM_016.jpg
2304.85	0.561	1	2back	Block4	2back/STIM_016.jpg
2308.024	1.105	1	2back	Block4	2back/STIM_016.jpg
2312.396	0.87	1	2back	Block4	2back/STIM_017.jpg
2316.11	0.553	1	2back	Block4	2back/STIM_017.jpg
2319.698	1.024	1	2back	Block4	2back/STIM_017.jpg
2324.163	0.985	1	2back	Block4	2back/STIM_018.jpg
2328.694	0.6	1	2back	Block4	2back/STIM_018.jpg
2333.173	0.897	1	2back	Block4	2back/STIM_018.jpg
2336.468	0.87	1	2back	Block4	2back/STIM_019.jpg
2340.461	0.721	1	2back	Block4	2back/STIM_019.jpg
2344.849	0.753	1	2back	Block4	2back/STIM_019.jpg
2347.631	0.747	1	2back	Block4	2back/STIM_020.jpg
2351.576	1.014	1	2back	Block4	2back/STIM_020.jpg
2356.035	0.942	1	2back	Block4	2back/STIM_020.jpg
2359.933	0.942	1	2back	Block4	2back/STIM_021.jpg
2363.058	0.912	1	2back	Block4	2back/STIM_021.jpg
2366.005	1.16	1	2back	Block4	2back/STIM_021.jpg
2370.877	0.589	1	2back	Block4	2back/STIM_022.jpg
2373.913	0.874	1	2back	Block4	2back/STIM_022.jpg
2378.315	0.716	1	2back	Block4	2back/STIM_022.jpg
2381.789	1.086	1	2back	Block4	2back/STIM_023.jpg
2386.008	0.905	1	2back	Block4	2back/STIM_023.jpg
2389.558	0.749	1	2back	Block4	2back/STIM_023.jpg
2393.615	0.709	1	2back	Block4	2back/STIM_024.jpg
2397.983	0.926	1	2back	Block4	2back/STIM_024.jpg
2402.166	0.848	1	2back	Block4	2back/STIM_024.jpg
2406.219	0.931	1	2back	Block4	2back/STIM_025.jpg
2409.716	0.97	1	2back	Block4	2back/STIM_025.jpg
2413.65	1.108	1	2back	Block4	2back/STIM_025.jpg
2416.856	0.955	1	2back	Block4	2back/STIM_026.jpg
2421.277	0.965	1	2back	Block4	2back/STIM_026.jpg
2424.897	0.752	1	2back	Block4	2back/STIM_026.jpg
2427.948	0.542	1	2back	Block4	2back/STIM_027.jpg
2431.065	1.064	1	2back	Block4	2back/STIM_027.jpg
2435.242	0.855	1	2back	Block4	2back/STIM_027.jpg
2438.387	1.039	1	2back	Block4	2back/STIM_028.jpg
2442.914	0.628	1	2back	Block4	2back/STIM_028.jpg
2447.144	0.561	1	2back	Block4	2back/STIM_028.jpg
2450.428	0.646	1	2back	Block4	2back/STIM_029.jpg
2453.233	1.037	1	2back	Block4	2back/STIM_029.jpg
2456.907	1.046	1	2back	Block4	2back/STIM_029.jpg
2460.148	0.648	1	2back	Block4	2back/STIM_030.jpg
2464.443	0.985	1	2back	Block4	2back/STIM_030.jpg
2467.86	0.793	1	2back	Block4	2back/STIM_030.jpg
2472.136	0.892	1	2back	Block4	2back/STIM_031.jpg
2475.928	0.678	1	2back	Block4	2back/STIM_031.jpg
2480.586	0.715	1	2back	Block4	2back/STIM_031.jpg
2483.764	0.83	1	2back	Block4	2back/STIM_032.jpg
2487.145	0.738	1	2back	Block4	2back/STIM_032.jpg
2491.738	1.129	1	2back	Block4	2back/STIM_032.jpg
2495.747	0.549	1	2back	Block4	2back/STIM_033.jpg
2498.858	0.97	1	2back	Block4	2back/STIM_033.jpg
2502.861	0.745	1	2back	Block4	2back/STIM_033.jpg
2506.427	0.616	1	2back	Block4	2back/STIM_034.jpg
2509.101	0.519	1	2back	Block4	2back/STIM_034.jpg
2512.924	0.722	1	2back	Block4	2back/STIM_034.jpg
2516.134	0.756	1	2back	Block4	2back/STIM_035.jpg
2520.224	0.611	1	2back	Block4	2back/STIM_035.jpg
2524.296	0.628	1	2back	Block4	2back/STIM_035.jpg
2528.088	0.968	1	2back	Block4	2back/STIM_036.jpg
2532.783	0.522	1	2back	Block4	2back/STIM_036.jpg
2536.592	0.72	1	2back	Block4	2back/STIM_036.jpg
2539.81	0.947	1	2back	Block4	2back/STIM_037.jpg
2543.009	0.91	1	2back	Block4	2back/STIM_037.jpg
2547.086	1.036	1	2back	Block4	2back/STIM_037.jpg
2550.899	1.137	1	2back	Block4	2back/STIM_038.jpg
2555.666	0.665	1	2back	Block4	2back/STIM_038.jpg
2559.553	0.832	1	2back	Block4	2back/STIM_038.jpg
2562.568	0.734	1	2back	Block4	2back/STIM_039.jpg
2566.244	0.528	1	2back	Block4	2back/STIM_039.jpg
2570.146	0.627	1	2back	Block4	2back/STIM_039.jpg
2573.102	0.482	1	0back	Block4	0back/STIM_000.jpg
2575.701	0.92	1	0back	Block4	0back/STIM_000.jpg
2579.168	0.797	1	0back	Block4	0back/STIM_000.jpg
2582.629	0.576	1	0back	Block4	0back/STIM_001.jpg
2586.392	0.678	1	0back	Block4	0back/STIM_001.jpg
2590.531	0.846	1	0back	Block4	0back/STIM_001.jpg
2594.092	0.852	1	0back	Block4	0back/STIM_002.jpg
2597.978	0.938	1	0back	Block4	0back/STIM_002.jpg
2601.406	0.587	1	0back	Block4	0back/STIM_002.jpg
2604.197	0.707	1	0back	Block4	0back/STIM_003.jpg
2607.825	0.826	1	0back	Block4	0back/STIM_003.jpg
2611.48	0.483	1	0back	Block4	0back/STIM_003.jpg
2615.881	0.804	1	0back	Block4	0back/STIM_004.jpg
2620.221	0.813	1	0back	Block4	0back/STIM_004.jpg
2624.366	0.678	1	0back	Block4	0back/STIM_004.jpg
2628.498	0.626	1	0back	Block4	0back/STIM_005.jpg
2632.572	0.726	1	0back	Block4	0back/STIM_005.jpg
2636.944	0.831	1	0back	Block4	0back/STIM_005.jpg
2641.258	0.664	1	0back	Block4	0back/STIM_006.jpg
2644.806	0.848	1	0back	Block4	0back/STIM_006.jpg
2649.553	0.624	1	0back	Block4	0back/STIM_006.jpg
2653.775	0.637	1	0back	Block4	0back/STIM_007.jpg
2658.286	0.558	1	0back	Block4	0back/STIM_007.jpg
2661.432	0.668	1	0back	Block4	0back/STIM_007.jpg
2666.019	0.536	1	0back	Block4	0back/STIM_008.jpg
2669.616	0.506	1	0back	Block4	0back/STIM_008.jpg
2673.164	0.527	1	0back	Block4	0back/STIM_008.jpg
2676.747	0.585	0	0back	Block4	0back/STIM_009.jpg
2681.274	0.843	1	0back	Block4	0back/STIM_009.jpg
2685.247	0.715	1	0back	Block4	0back/STIM_009.jpg
2688.986	0.818	1	0back	Block4	0back/STIM_010.jpg
2692.237	0.953	1	0back	Block4	0back/STIM_010.jpg
2696.423	0.861	1	0back	Block4	0back/STIM_010.jpg
2699.471	0.944	1	0back	Block4	0back/STIM_011.jpg
2704.106	0.772	1	0back	Block4	0back/STIM_011.jpg
2706.959	0.843	1	0back	Block4	0back/STIM_011.jpg
2711.723	0.653	1	0back	Block4	0back/STIM_012.jpg
2715.386	0.634	1	0back	Block4	0back/STIM_012.jpg
2718.594	0.705	1	0back	Block4	0back/STIM_012.jpg
2722.589	0.699	1	0back	Block4	0back/STIM_013.jpg
2725.723	0.908	1	0back	Block4	0back/STIM_013.jpg
2728.682	0.552	1	0back	Block4	0back/STIM_013.jpg
2731.408	0.579	1	0back	Block4	0back/STIM_014.jpg
2735.738	0.776	1	0back	Block4	0back/STIM_014.jpg
2739.453	0.953	1	0back	Block4	0back/STIM_014.jpg
2743.444	0.536	1	0back	Block4	0back/STIM_015.jpg
2746.276	0.537	1	0back	Block4	0back/STIM_015.jpg
2750.097	0.773	1	0back	Block4	0back/STIM_015.jpg
2754.704	0.516	1	0back	Block4	0back/STIM_016.jpg
2757.418	0.588	1	0back	Block4	0back/STIM_016.jpg
2761.09	0.584	1	0back	Block4	0back/STIM_016.jpg
2764.784	0.535	1	0back	Block4	0back/STIM_017.jpg
2768.484	0.798	0	0back	Block4	0back/STIM_017.jpg
2771.602	0.556	1	0back	Block4	0back/STIM_017.jpg
2775.813	0.881	1	0back	Block4	0back/STIM_018.jpg
2778.972	0.714	1	0back	Block4	0back/STIM_018.jpg
2781.91	0.936	1	0back	Block4	0back/STIM_018.jpg
2786.729	0.712	1	0back	Block4	0back/STIM_019.jpg
2790.997	0.885	1	0back	Block4	0back/STIM_019.jpg
2794.066	0.697	1	0back	Block4	0back/STIM_019.jpg
