onset	duration	accuracy	trial_type	learning_stage	stimulus
0.0	0.941	correct	study	Phase1	study/STIM_000.jpg
3.497	1.455	correct	study	Phase1	study/STIM_000.jpg
8.834	1.112	correct	study	Phase1	study/STIM_000.jpg
12.098	1.372	correct	study	Phase1	study/STIM_001.jpg
16.91	1.242	correct	study	Phase1	study/STIM_001.jpg
20.537	1.355	correct	study	Phase1	study/STIM_001.jpg
25.55	1.116	correct	study	Phase1	study/STIM_002.jpg
30.465	0.97	correct	study	Phase1	study/STIM_002.jpg
34.284	1.26	correct	study	Phase1	study/STIM_002.jpg
37.799	0.931	correct	study	Phase1	study/STIM_003.jpg
41.186	1.488	correct	study	Phase1	study/STIM_003.jpg
46.595	1.083	correct	study	Phase1	study/STIM_003.jpg
49.714	1.02	correct	study	Phase1	study/STIM_004.jpg
54.545	1.604	correct	study	Phase1	study/STIM_004.jpg
59.355	0.724	correct	study	Phase1	study/STIM_004.jpg
62.255	1.142	correct	study	Phase1	study/STIM_005.jpg
65.993	1.671	correct	study	Phase1	study/STIM_005.jpg
71.488	0.884	correct	study	Phase1	study/STIM_005.jpg
75.089	0.822	correct	study	Phase1	study/STIM_006.jpg
79.501	1.518	correct	study	Phase1	study/STIM_006.jpg
84.505	0.912	incorrect	study	Phase1	study/STIM_006.jpg
88.912	1.013	correct	study	Phase1	study/STIM_007.jpg
93.366	1.239	correct	study	Phase1	study/STIM_007.jpg
98.006	1.458	correct	study	Phase1	study/STIM_007.jpg
102.523	1.696	correct	study	Phase1	study/STIM_008.jpg
107.117	1.177	incorrect	study	Phase1	study/STIM_008.jpg
110.448	1.016	correct	study	Phase1	study/STIM_008.jpg
114.285	1.606	correct	study	Phase1	study/STIM_009.jpg
118.012	1.149	incorrect	study	Phase1	study/STIM_009.jpg
122.751	1.361	correct	study	Phase1	study/STIM_009.jpg
127.584	0.774	correct	study	Phase1	study/STIM_010.jpg
131.817	1.226	correct	study	Phase1	study/STIM_010.jpg
135.962	1.229	correct	study	Phase1	study/STIM_010.jpg
140.787	1.65	correct	study	Phase1	study/STIM_011.jpg
145.695	1.003	incorrect	study	Phase1	study/STIM_011.jpg
149.751	0.94	correct	study	Phase1	study/STIM_011.jpg
153.356	0.921	correct	study	Phase1	study/STIM_012.jpg
157.625	0.928	incorrect	study	Phase1	study/STIM_012.jpg
161.987	0.988	correct	study	Phase1	study/STIM_012.jpg
166.162	1.385	correct	study	Phase1	study/STIM_013.jpg
171.563	0.692	correct	study	Phase1	study/STIM_013.jpg
175.066	1.383	correct	study	Phase1	study/STIM_013.jpg
179.563	1.487	correct	study	Phase1	study/STIM_014.jpg
183.596	0.744	incorrect	study	Phase1	study/STIM_014.jpg
186.809	0.883	correct	study	Phase1	study/STIM_014.jpg
191.649	1.55	correct	study	Phase1	study/STIM_015.jpg
195.952	1.553	correct	study	Phase1	study/STIM_015.jpg
201.156	1.434	correct	study	Phase1	study/STIM_015.jpg
204.696	0.908	incorrect	study	Phase1	study/STIM_016.jpg
208.564	1.45	correct	study	Phase1	study/STIM_016.jpg
212.443	0.944	incorrect	study	Phase1	study/STIM_016.jpg
216.262	1.032	correct	study	Phase1	study/STIM_017.jpg
220.079	0.718	incorrect	study	Phase1	study/STIM_017.jpg
223.127	0.886	incorrect	study	Phase1	study/STIM_017.jpg
227.264	1.491	correct	study	Phase1	study/STIM_018.jpg
232.752	1.099	correct	study	Phase1	study/STIM_018.jpg
237.299	1.159	correct	study	Phase1	study/STIM_018.jpg
240.929	1.351	correct	study	Phase1	study/STIM_019.jpg
245.501	1.019	correct	study	Phase1	study/STIM_019.jpg
250.53	0.716	correct	study	Phase1	study/STIM_019.jpg
254.946	1.006	correct	study	Phase1	study/STIM_020.jpg
259.55	1.661	correct	study	Phase1	study/STIM_020.jpg
263.24	0.638	correct	study	Phase1	study/STIM_020.jpg
266.655	1.154	correct	study	Phase1	study/STIM_021.jpg
271.415	1.448	correct	study	Phase1	study/STIM_021.jpg
275.318	0.923	correct	study	Phase1	study/STIM_021.jpg
279.26	1.124	incorrect	study	Phase1	study/STIM_022.jpg
283.503	1.101	correct	study	Phase1	study/STIM_022.jpg
288.488	0.912	correct	study	Phase1	study/STIM_022.jpg
291.995	1.49	correct	study	Phase1	study/STIM_023.jpg
295.974	1.366	correct	study	Phase1	study/STIM_023.jpg
300.851	0.736	incorrect	study	Phase1	study/STIM_023.jpg
304.04	0.94	correct	study	Phase1	study/STIM_024.jpg
308.89	1.216	incorrect	study	Phase1	study/STIM_024.jpg
313.934	1.003	incorrect	study	Phase1	study/STIM_024.jpg
318.47	0.958	incorrect	study	Phase1	study/STIM_025.jpg
322.977	1.261	incorrect	study	Phase1	study/STIM_025.jpg
326.865	0.776	correct	study	Phase1	study/STIM_025.jpg
330.172	1.082	correct	study	Phase1	study/STIM_026.jpg
335.299	0.751	correct	study	Phase1	study/STIM_026.jpg
338.16	1.164	incorrect	study	Phase1	study/STIM_026.jpg
341.909	0.915	correct	study	Phase1	study/STIM_027.jpg
346.223	1.142	correct	study	Phase1	study/STIM_027.jpg
350.808	1.293	correct	study	Phase1	study/STIM_027.jpg
355.643	1.317	correct	study	Phase1	study/STIM_028.jpg
361.018	1.322	correct	study	Phase1	study/STIM_028.jpg
366.29	0.966	correct	study	Phase1	study/STIM_028.jpg
370.215	1.673	correct	study	Phase1	study/STIM_029.jpg
374.463	1.552	correct	study	Phase1	study/STIM_029.jpg
378.655	0.952	correct	study	Phase1	study/STIM_029.jpg
382.719	0.71	correct	test	Phase1	test/STIM_000.jpg
387.009	1.188	correct	test	Phase1	test/STIM_000.jpg
390.839	0.892	correct	test	Phase1	test/STIM_000.jpg
394.975	1.156	incorrect	test	Phase1	test/STIM_001.jpg
400.074	1.249	correct	test	Phase1	test/STIM_001.jpg
404.318	1.172	incorrect	test	Phase1	test/STIM_001.jpg
409.502	1.004	correct	test	Phase1	test/STIM_002.jpg
412.854	0.752	correct	test	Phase1	test/STIM_002.jpg
416.221	0.765	correct	test	Phase1	test/STIM_002.jpg
419.9	1.209	correct	test	Phase1	test/STIM_003.jpg
424.309	0.785	correct	test	Phase1	test/STIM_003.jpg
428.622	0.959	correct	test	Phase1	test/STIM_003.jpg
431.821	0.826	correct	test	Phase1	test/STIM_004.jpg
435.123	0.606	correct	test	Phase1	test/STIM_004.jpg
438.418	0.823	correct	test	Phase1	test/STIM_004.jpg
441.772	1.078	incorrect	test	Phase1	test/STIM_005.jpg
445.93	0.909	correct	test	Phase1	test/STIM_005.jpg
448.905	0.903	correct	test	Phase1	test/STIM_005.jpg
452.235	0.6	incorrect	test	Phase1	test/STIM_006.jpg
455.653	0.849	correct	test	Phase1	test/STIM_006.jpg
458.679	0.802	correct	test	Phase1	test/STIM_006.jpg
462.495	0.809	correct	test	Phase1	test/STIM_007.jpg
466.047	1.123	correct	test	Phase1	test/STIM_007.jpg
470.883	0.817	correct	test	Phase1	test/STIM_007.jpg
475.281	1.168	correct	test	Phase1	test/STIM_008.jpg
479.255	1.126	correct	test	Phase1	test/STIM_008.jpg
483.982	0.978	correct	test	Phase1	test/STIM_008.jpg
487.649	1.095	correct	test	Phase1	test/STIM_009.jpg
491.843	0.931	correct	test	Phase1	test/STIM_009.jpg
496.574	0.812	correct	test	Phase1	test/STIM_009.jpg
500.568	0.617	correct	test	Phase1	test/STIM_010.jpg
504.731	0.858	correct	test	Phase1	test/STIM_010.jpg
508.448	0.617	correct	test	Phase1	test/STIM_010.jpg
512.814	0.784	correct	test	Phase1	test/STIM_011.jpg
516.027	0.984	correct	test	Phase1	test/STIM_011.jpg
520.602	0.678	correct	test	Phase1	test/STIM_011.jpg
524.033	0.683	correct	test	Phase1	test/STIM_012.jpg
528.123	0.784	correct	test	Phase1	test/STIM_012.jpg
532.285	1.175	correct	test	Phase1	test/STIM_012.jpg
537.035	1.179	correct	test	Phase1	test/STIM_013.jpg
540.948	1.234	correct	test	Phase1	test/STIM_013.jpg
545.242	0.996	correct	test	Phase1	test/STIM_013.jpg
549.031	1.158	correct	test	Phase1	test/STIM_014.jpg
553.767	1.129	correct	test	Phase1	test/STIM_014.jpg
557.922	0.74	correct	test	Phase1	test/STIM_014.jpg
560.729	0.897	correct	test	Phase1	test/STIM_015.jpg
565.229	0.525	correct	test	Phase1	test/STIM_015.jpg
567.95	1.118	correct	test	Phase1	test/STIM_015.jpg
571.633	1.082	correct	test	Phase1	test/STIM_016.jpg
575.351	0.854	correct	test	Phase1	test/STIM_016.jpg
578.553	0.754	correct	test	Phase1	test/STIM_016.jpg
581.843	0.83	correct	test	Phase1	test/STIM_017.jpg
585.541	0.764	correct	test	Phase1	test/STIM_017.jpg
590.184	0.84	correct	test	Phase1	test/STIM_017.jpg
594.953	0.822	correct	test	Phase1	test/STIM_018.jpg
598.635	0.69	correct	test	Phase1	test/STIM_018.jpg
602.63	0.968	incorrect	test	Phase1	test/STIM_018.jpg
606.41	1.286	correct	test	Phase1	test/STIM_019.jpg
610.352	0.788	correct	test	Phase1	test/STIM_019.jpg
613.585	0.922	correct	test	Phase1	test/STIM_019.jpg
617.35	0.897	correct	test	Phase1	test/STIM_020.jpg
620.923	0.646	correct	test	Phase1	test/STIM_020.jpg
624.212	1.035	correct	test	Phase1	test/STIM_020.jpg
627.445	0.526	correct	test	Phase1	test/STIM_021.jpg
630.124	1.107	correct	test	Phase1	test/STIM_021.jpg
633.552	0.717	correct	test	Phase1	test/STIM_021.jpg
636.901	1.009	correct	test	Phase1	test/STIM_022.jpg
641.824	1.223	correct	test	Phase1	test/STIM_022.jpg
645.143	0.538	correct	test	Phase1	test/STIM_022.jpg
648.682	0.781	incorrect	test	Phase1	test/STIM_023.jpg
653.041	1.036	correct	test	Phase1	test/STIM_023.jpg
657.819	1.027	correct	test	Phase1	test/STIM_023.jpg
661.27	0.784	correct	test	Phase1	test/STIM_024.jpg
665.8	0.957	correct	test	Phase1	test/STIM_024.jpg
668.706	1.291	correct	test	Phase1	test/STIM_024.jpg
673.986	0.681	correct	test	Phase1	test/STIM_025.jpg
677.468	0.706	correct	test	Phase1	test/STIM_025.jpg
680.332	0.59	correct	test	Phase1	test/STIM_025.jpg
684.689	0.914	correct	test	Phase1	test/STIM_026.jpg
688.115	0.79	correct	test	Phase1	test/STIM_026.jpg
692.662	1.204	correct	test	Phase1	test/STIM_026.jpg
696.604	1.193	correct	test	Phase1	test/STIM_027.jpg
701.158	0.954	correct	test	Phase1	test/STIM_027.jpg
705.158	0.764	correct	test	Phase1	test/STIM_027.jpg
708.401	1.058	correct	test	Phase1	test/STIM_028.jpg
712.529	0.766	correct	test	Phase1	test/STIM_028.jpg
716.629	0.817	correct	test	Phase1	test/STIM_028.jpg
720.689	0.977	correct	test	Phase1	test/STIM_029.jpg
725.43	1.151	correct	test	Phase1	test/STIM_029.jpg
729.8	1.146	correct	test	Phase1	test/STIM_029.jpg
734.867	0.943	correct	study	Phase2	study/STIM_000.jpg
738.92	0.973	correct	study	Phase2	study/STIM_000.jpg
742.63	0.742	correct	study	Phase2	study/STIM_000.jpg
745.572	1.249	incorrect	study	Phase2	study/STIM_001.jpg
749.228	1.466	correct	study	Phase2	study/STIM_001.jpg
752.728	0.778	correct	study	Phase2	study/STIM_001.jpg
755.688	0.9	correct	study	Phase2	study/STIM_002.jpg
759.448	0.657	correct	study	Phase2	study/STIM_002.jpg
763.521	0.904	correct	study	Phase2	study/STIM_002.jpg
766.709	0.977	correct	study	Phase2	study/STIM_003.jpg
770.527	1.021	correct	study	Phase2	study/STIM_003.jpg
773.843	1.348	correct	study	Phase2	study/STIM_003.jpg
777.928	1.26	correct	study	Phase2	study/STIM_004.jpg
781.387	0.688	correct	study	Phase2	study/STIM_004.jpg
784.205	1.291	correct	study	Phase2	study/STIM_004.jpg
787.825	1.255	incorrect	study	Phase2	study/STIM_005.jpg
792.86	1.19	correct	study	Phase2	study/STIM_005.jpg
797.345	0.622	correct	study	Phase2	study/STIM_005.jpg
801.314	1.092	correct	study	Phase2	study/STIM_006.jpg
804.722	1.128	correct	study	Phase2	study/STIM_006.jpg
808.318	1.05	correct	study	Phase2	study/STIM_006.jpg
811.693	1.228	correct	study	Phase2	study/STIM_007.jpg
815.422	0.753	correct	study	Phase2	study/STIM_007.jpg
819.058	1.314	correct	study	Phase2	study/STIM_007.jpg
822.558	1.248	correct	study	Phase2	study/STIM_008.jpg
826.355	0.917	correct	study	Phase2	study/STIM_008.jpg
831.148	0.754	correct	study	Phase2	study/STIM_008.jpg
835.278	0.856	correct	study	Phase2	study/STIM_009.jpg
838.937	0.94	correct	study	Phase2	study/STIM_009.jpg
842.444	1.132	correct	study	Phase2	study/STIM_009.jpg
845.807	1.396	correct	study	Phase2	study/STIM_010.jpg
849.681	1.36	correct	study	Phase2	study/STIM_010.jpg
853.592	0.842	incorrect	study	Phase2	study/STIM_010.jpg
857.898	1.416	correct	study	Phase2	study/STIM_011.jpg
861.863	1.016	incorrect	study	Phase2	study/STIM_011.jpg
866.331	0.723	correct	study	Phase2	study/STIM_011.jpg
871.019	1.047	correct	study	Phase2	study/STIM_012.jpg
875.802	0.698	correct	study	Phase2	study/STIM_012.jpg
879.653	0.66	correct	study	Phase2	study/STIM_012.jpg
883.873	0.716	correct	study	Phase2	study/STIM_013.jpg
888.539	0.9	correct	study	Phase2	study/STIM_013.jpg
892.981	0.612	correct	study	Phase2	study/STIM_013.jpg
895.593	0.779	correct	study	Phase2	study/STIM_014.jpg
898.892	1.003	correct	study	Phase2	study/STIM_014.jpg
902.952	0.75	correct	study	Phase2	study/STIM_014.jpg
906.522	1.007	correct	study	Phase2	study/STIM_015.jpg
910.026	0.905	correct	study	Phase2	study/STIM_015.jpg
913.197	1.178	correct	study	Phase2	study/STIM_015.jpg
917.512	1.327	correct	study	Phase2	study/STIM_016.jpg
922.439	0.843	correct	study	Phase2	study/STIM_016.jpg
925.368	0.893	correct	study	Phase2	study/STIM_016.jpg
929.706	0.833	correct	study	Phase2	study/STIM_017.jpg
933.658	1.232	correct	study	Phase2	study/STIM_017.jpg
936.988	0.663	correct	study	Phase2	study/STIM_017.jpg
939.868	0.951	incorrect	study	Phase2	study/STIM_018.jpg
943.24	0.706	correct	study	Phase2	study/STIM_018.jpg
947.631	0.792	correct	study	Phase2	study/STIM_018.jpg
951.638	1.214	correct	study	Phase2	study/STIM_019.jpg
955.606	0.818	correct	study	Phase2	study/STIM_019.jpg
959.992	0.742	correct	study	Phase2	study/STIM_019.jpg
962.93	0.919	correct	study	Phase2	study/STIM_020.jpg
966.631	0.694	correct	study	Phase2	study/STIM_020.jpg
970.508	1.007	correct	study	Phase2	study/STIM_020.jpg
975.467	1.405	correct	study	Phase2	study/STIM_021.jpg
979.92	1.051	correct	study	Phase2	study/STIM_021.jpg
983.686	1.054	correct	study	Phase2	study/STIM_021.jpg
988.646	0.859	incorrect	study	Phase2	study/STIM_022.jpg
992.343	0.871	correct	study	Phase2	study/STIM_022.jpg
996.425	0.811	correct	study	Phase2	study/STIM_022.jpg
1000.132	1.223	correct	study	Phase2	study/STIM_023.jpg
1004.848	1.321	correct	study	Phase2	study/STIM_023.jpg
1009.706	0.948	correct	study	Phase2	study/STIM_023.jpg
1013.854	1.486	correct	study	Phase2	study/STIM_024.jpg
1017.657	0.689	correct	study	Phase2	study/STIM_024.jpg
1022.026	0.966	correct	study	Phase2	study/STIM_024.jpg
1026.51	0.898	correct	study	Phase2	study/STIM_025.jpg
1031.106	1.104	correct	study	Phase2	study/STIM_025.jpg
1035.088	0.756	correct	study	Phase2	study/STIM_025.jpg
1038.793	0.844	correct	study	Phase2	study/STIM_026.jpg
1041.993	1.439	correct	study	Phase2	study/STIM_026.jpg
1046.762	0.645	correct	study	Phase2	study/STIM_026.jpg
1050.317	1.358	correct	study	Phase2	study/STIM_027.jpg
1054.51	1.182	incorrect	study	Phase2	study/STIM_027.jpg
1059.58	0.64	correct	study	Phase2	study/STIM_027.jpg
1063.072	0.938	correct	study	Phase2	study/STIM_028.jpg
1066.828	1.01	incorrect	study	Phase2	study/STIM_028.jpg
1071.643	0.691	correct	study	Phase2	study/STIM_028.jpg
1076.06	0.95	correct	study	Phase2	study/STIM_029.jpg
1080.653	1.26	correct	study	Phase2	study/STIM_029.jpg
1084.683	1.26	correct	study	Phase2	study/STIM_029.jpg
1088.492	1.001	correct	test	Phase2	test/STIM_000.jpg
1092.274	0.585	correct	test	Phase2	test/STIM_000.jpg
1096.359	0.741	correct	test	Phase2	test/STIM_000.jpg
1100.667	0.784	incorrect	test	Phase2	test/STIM_001.jpg
1104.04	0.922	correct	test	Phase2	test/STIM_001.jpg
1107.375	0.674	correct	test	Phase2	test/STIM_001.jpg
1112.009	1.21	correct	test	Phase2	test/STIM_002.jpg
1115.291	0.97	correct	test	Phase2	test/STIM_002.jpg
1119.188	1.232	correct	test	Phase2	test/STIM_002.jpg
1123.224	0.561	correct	test	Phase2	test/STIM_003.jpg
1127.354	0.694	correct	test	Phase2	test/STIM_003.jpg
1130.042	0.556	correct	test	Phase2	test/STIM_003.jpg
1133.783	0.988	correct	test	Phase2	test/STIM_004.jpg
1137.076	1.015	correct	test	Phase2	test/STIM_004.jpg
1140.483	1.094	correct	test	Phase2	test/STIM_004.jpg
1144.579	0.96	correct	test	Phase2	test/STIM_005.jpg
1149.332	0.935	correct	test	Phase2	test/STIM_005.jpg
1153.165	0.874	correct	test	Phase2	test/STIM_005.jpg
1157.36	0.882	correct	test	Phase2	test/STIM_006.jpg
1161.224	0.678	correct	test	Phase2	test/STIM_006.jpg
1164.634	1.06	correct	test	Phase2	test/STIM_006.jpg
1168.388	1.102	correct	test	Phase2	test/STIM_007.jpg
1173.279	0.634	correct	test	Phase2	test/STIM_007.jpg
1176.227	1.06	correct	test	Phase2	test/STIM_007.jpg
1179.338	0.826	correct	test	Phase2	test/STIM_008.jpg
1183.932	0.776	correct	test	Phase2	test/STIM_008.jpg
1188.734	1.097	correct	test	Phase2	test/STIM_008.jpg
1192.315	0.615	correct	test	Phase2	test/STIM_009.jpg
1195.458	0.967	correct	test	Phase2	test/STIM_009.jpg
1199.289	1.147	correct	test	Phase2	test/STIM_009.jpg
1203.057	1.09	correct	test	Phase2	test/STIM_010.jpg
1206.757	0.856	correct	test	Phase2	test/STIM_010.jpg
1211.18	1.163	correct	test	Phase2	test/STIM_010.jpg
1215.209	1.019	incorrect	test	Phase2	test/STIM_011.jpg
1219.155	1.104	incorrect	test	Phase2	test/STIM_011.jpg
1224.237	0.812	correct	test	Phase2	test/STIM_011.jpg
1229.015	1.072	correct	test	Phase2	test/STIM_012.jpg
1233.627	0.805	correct	test	Phase2	test/STIM_012.jpg
1236.775	0.94	correct	test	Phase2	test/STIM_012.jpg
1241.566	0.717	correct	test	Phase2	test/STIM_013.jpg
1244.984	0.96	correct	test	Phase2	test/STIM_013.jpg
1249.958	0.935	correct	test	Phase2	test/STIM_013.jpg
1254.65	0.765	correct	test	Phase2	test/STIM_014.jpg
1257.688	1.176	correct	test	Phase2	test/STIM_014.jpg
1261.732	0.629	correct	test	Phase2	test/STIM_014.jpg
1264.626	0.966	correct	test	Phase2	test/STIM_015.jpg
1268.26	0.976	correct	test	Phase2	test/STIM_015.jpg
1272.549	0.821	correct	test	Phase2	test/STIM_015.jpg
1276.649	0.647	correct	test	Phase2	test/STIM_016.jpg
1281.012	0.537	correct	test	Phase2	test/STIM_016.jpg
1284.588	0.941	correct	test	Phase2	test/STIM_016.jpg
1289.362	0.876	correct	test	Phase2	test/STIM_017.jpg
1293.804	0.946	correct	test	Phase2	test/STIM_017.jpg
1298.41	0.753	correct	test	Phase2	test/STIM_017.jpg
1301.859	0.853	correct	test	Phase2	test/STIM_018.jpg
1304.857	1.198	correct	test	Phase2	test/STIM_018.jpg
1308.258	0.739	correct	test	Phase2	test/STIM_018.jpg
1311.865	1.206	correct	test	Phase2	test/STIM_019.jpg
1315.178	0.951	correct	test	Phase2	test/STIM_019.jpg
1318.261	0.952	correct	test	Phase2	test/STIM_019.jpg
1322.002	0.781	correct	test	Phase2	test/STIM_020.jpg
1325.867	0.573	incorrect	test	Phase2	test/STIM_020.jpg
1330.46	0.97	correct	test	Phase2	test/STIM_020.jpg
1333.928	0.829	correct	test	Phase2	test/STIM_021.jpg
1337.899	0.581	correct	test	Phase2	test/STIM_021.jpg
1340.937	1.138	correct	test	Phase2	test/STIM_021.jpg
1344.639	0.746	correct	test	Phase2	test/STIM_022.jpg
1349.208	0.792	correct	test	Phase2	test/STIM_022.jpg
1352.711	1.05	correct	test	Phase2	test/STIM_022.jpg
1357.553	1.14	correct	test	Phase2	test/STIM_023.jpg
1361.231	0.786	correct	test	Phase2	test/STIM_023.jpg
1365.17	0.908	correct	test	Phase2	test/STIM_023.jpg
1368.77	0.912	correct	test	Phase2	test/STIM_024.jpg
1372.073	1.17	correct	test	Phase2	test/STIM_024.jpg
1375.64	0.599	correct	test	Phase2	test/STIM_024.jpg
1378.383	1.111	incorrect	test	Phase2	test/STIM_025.jpg
1383.449	0.726	correct	test	Phase2	test/STIM_025.jpg
1386.457	0.663	incorrect	test	Phase2	test/STIM_025.jpg
1389.437	0.788	correct	test	Phase2	test/STIM_026.jpg
1394.192	1.246	correct	test	Phase2	test/STIM_026.jpg
1399.262	1.252	correct	test	Phase2	test/STIM_026.jpg
1403.926	0.733	correct	test	Phase2	test/STIM_027.jpg
1408.393	0.861	incorrect	test	Phase2	test/STIM_027.jpg
1411.306	1.182	correct	test	Phase2	test/STIM_027.jpg
1416.113	0.679	incorrect	test	Phase2	test/STIM_028.jpg
1420.511	0.966	correct	test	Phase2	test/STIM_028.jpg
1425.308	1.104	correct	test	Phase2	test/STIM_028.jpg
1429.742	0.838	correct	test	Phase2	test/STIM_029.jpg
1433.003	1.065	correct	test	Phase2	test/STIM_029.jpg
1437.361	1.1	correct	test	Phase2	test/STIM_029.jpg
1441.14	1.254	correct	study	Phase3	study/STIM_000.jpg
1445.987	1.215	correct	study	Phase3	study/STIM_000.jpg
1449.553	0.561	correct	study	Phase3	study/STIM_000.jpg
1453.623	0.752	correct	study	Phase3	study/STIM_001.jpg
1456.826	0.91	correct	study	Phase3	study/STIM_001.jpg
1460.589	0.863	correct	study	Phase3	study/STIM_001.jpg
1465.049	0.709	correct	study	Phase3	study/STIM_002.jpg
1468.606	0.938	correct	study	Phase3	study/STIM_002.jpg
1471.946	1.031	correct	study	Phase3	study/STIM_002.jpg
1476.382	1.034	incorrect	study	Phase3	study/STIM_003.jpg
1479.442	0.702	correct	study	Phase3	study/STIM_003.jpg
1482.841	1.059	correct	study	Phase3	study/STIM_003.jpg
1487.196	0.708	correct	study	Phase3	study/STIM_004.jpg
1490.229	1.278	correct	study	Phase3	study/STIM_004.jpg
1493.8	0.753	correct	study	Phase3	study/STIM_004.jpg
1498.078	1.243	correct	study	Phase3	study/STIM_005.jpg
1501.974	0.887	correct	study	Phase3	study/STIM_005.jpg
1506.478	0.94	correct	study	Phase3	study/STIM_005.jpg
1510.524	0.843	correct	study	Phase3	study/STIM_006.jpg
1514.488	0.894	correct	study	Phase3	study/STIM_006.jpg
1518.175	0.925	incorrect	study	Phase3	study/STIM_006.jpg
1522.968	0.952	correct	study	Phase3	study/STIM_007.jpg
1527.646	0.784	correct	study	Phase3	study/STIM_007.jpg
1530.968	0.961	correct	study	Phase3	study/STIM_007.jpg
1534.203	0.856	correct	study	Phase3	study/STIM_008.jpg
1537.949	1.182	correct	study	Phase3	study/STIM_008.jpg
1541.422	1.102	correct	study	Phase3	study/STIM_008.jpg
1546.037	0.928	correct	study	Phase3	study/STIM_009.jpg
1549.524	0.907	correct	study	Phase3	study/STIM_009.jpg
1553.919	0.854	correct	study	Phase3	study/STIM_009.jpg
1558.518	1.128	correct	study	Phase3	study/STIM_010.jpg
1562.058	0.726	correct	study	Phase3	study/STIM_010.jpg
1565.844	1.14	correct	study	Phase3	study/STIM_010.jpg
1570.847	0.68	correct	study	Phase3	study/STIM_011.jpg
1573.82	0.902	correct	study	Phase3	study/STIM_011.jpg
1578.066	1.158	correct	study	Phase3	study/STIM_011.jpg
1582.986	0.48	correct	study	Phase3	study/STIM_012.jpg
1586.874	0.82	incorrect	study	Phase3	study/STIM_012.jpg
1590.569	1.113	correct	study	Phase3	study/STIM_012.jpg
1593.82	0.861	correct	study	Phase3	study/STIM_013.jpg
1597.858	0.792	correct	study	Phase3	study/STIM_013.jpg
1602.007	1.207	correct	study	Phase3	study/STIM_013.jpg
1606.582	0.83	correct	study	Phase3	study/STIM_014.jpg
1609.484	0.855	correct	study	Phase3	study/STIM_014.jpg
1612.474	1.166	correct	study	Phase3	study/STIM_014.jpg
1617.177	0.666	correct	study	Phase3	study/STIM_015.jpg
1620.768	0.747	correct	study	Phase3	study/STIM_015.jpg
1624.732	1.152	correct	study	Phase3	study/STIM_015.jpg
1629.742	0.519	incorrect	study	Phase3	study/STIM_016.jpg
1633.811	0.975	correct	study	Phase3	study/STIM_016.jpg
1638.829	0.76	correct	study	Phase3	study/STIM_016.jpg
1642.754	1.09	correct	study	Phase3	study/STIM_017.jpg
1647.196	1.179	correct	study	Phase3	study/STIM_017.jpg
1651.815	1.151	correct	study	Phase3	study/STIM_017.jpg
1656.894	0.65	correct	study	Phase3	study/STIM_018.jpg
1661.034	1.194	correct	study	Phase3	study/STIM_018.jpg
1664.591	1.036	correct	study	Phase3	study/STIM_018.jpg
1668.735	1.147	correct	study	Phase3	study/STIM_019.jpg
1672.447	1.161	correct	study	Phase3	study/STIM_019.jpg
1676.164	1.057	correct	study	Phase3	study/STIM_019.jpg
1680.5	0.549	correct	study	Phase3	study/STIM_020.jpg
1684.62	1.139	correct	study	Phase3	study/STIM_020.jpg
1688.163	1.019	correct	study	Phase3	study/STIM_020.jpg
1692.953	1.092	correct	study	Phase3	study/STIM_021.jpg
1697.477	1.067	correct	study	Phase3	study/STIM_021.jpg
1701.5	0.786	correct	study	Phase3	study/STIM_021.jpg
1704.857	0.885	correct	study	Phase3	study/STIM_022.jpg
1709.392	0.681	correct	study	Phase3	study/STIM_022.jpg
1712.375	1.14	correct	study	Phase3	study/STIM_022.jpg
1716.232	0.89	correct	study	Phase3	study/STIM_023.jpg
1719.315	1.225	correct	study	Phase3	study/STIM_023.jpg
1723.843	0.855	correct	study	Phase3	study/STIM_023.jpg
1726.876	0.929	correct	study	Phase3	study/STIM_024.jpg
1730.767	0.998	correct	study	Phase3	study/STIM_024.jpg
1735.042	0.584	correct	study	Phase3	study/STIM_024.jpg
1739.563	1.091	correct	study	Phase3	study/STIM_025.jpg
1742.999	0.866	correct	study	Phase3	study/STIM_025.jpg
1747.031	0.896	correct	study	Phase3	study/STIM_025.jpg
1750.196	0.885	correct	study	Phase3	study/STIM_026.jpg
1753.606	1.066	correct	study	Phase3	study/STIM_026.jpg
1757.214	0.98	correct	study	Phase3	study/STIM_026.jpg
1761.133	0.819	correct	study	Phase3	study/STIM_027.jpg
1764.922	0.974	correct	study	Phase3	study/STIM_027.jpg
1769.242	0.506	correct	study	Phase3	study/STIM_027.jpg
1772.533	0.895	correct	study	Phase3	study/STIM_028.jpg
1776.072	1.042	correct	study	Phase3	study/STIM_028.jpg
1780.492	0.907	correct	study	Phase3	study/STIM_028.jpg
1784.309	1.289	correct	study	Phase3	study/STIM_029.jpg
1788.209	0.873	correct	study	Phase3	study/STIM_029.jpg
1791.915	1.175	correct	study	Phase3	study/STIM_029.jpg
1796.768	0.757	correct	test	Phase3	test/STIM_000.jpg
1800.8	0.562	correct	test	Phase3	test/STIM_000.jpg
1804.687	1.019	correct	test	Phase3	test/STIM_000.jpg
1809.385	0.811	correct	test	Phase3	test/STIM_001.jpg
1813.416	1.128	correct	test	Phase3	test/STIM_001.jpg
1817.389	0.658	incorrect	test	Phase3	test/STIM_001.jpg
1820.681	1.108	correct	test	Phase3	test/STIM_002.jpg
1825.143	0.581	correct	test	Phase3	test/STIM_002.jpg
1828.644	0.887	correct	test	Phase3	test/STIM_002.jpg
1833.084	0.728	correct	test	Phase3	test/STIM_003.jpg
1836.679	0.956	correct	test	Phase3	test/STIM_003.jpg
1840.827	0.917	correct	test	Phase3	test/STIM_003.jpg
1844.182	0.793	correct	test	Phase3	test/STIM_004.jpg
1848.973	0.734	correct	test	Phase3	test/STIM_004.jpg
1852.581	1.18	correct	test	Phase3	test/STIM_004.jpg
1857.573	0.702	correct	test	Phase3	test/STIM_005.jpg
1861.111	1.152	correct	test	Phase3	test/STIM_005.jpg
1864.562	0.991	correct	test	Phase3	test/STIM_005.jpg
1868.658	0.744	correct	test	Phase3	test/STIM_006.jpg
1872.497	0.956	correct	test	Phase3	test/STIM_006.jpg
1875.562	0.608	correct	test	Phase3	test/STIM_006.jpg
1879.082	0.843	correct	test	Phase3	test/STIM_007.jpg
1883.688	1.097	correct	test	Phase3	test/STIM_007.jpg
1888.55	0.967	correct	test	Phase3	test/STIM_007.jpg
1892.118	0.936	correct	test	Phase3	test/STIM_008.jpg
1896.923	0.696	correct	test	Phase3	test/STIM_008.jpg
1901.047	0.595	correct	test	Phase3	test/STIM_008.jpg
1904.689	0.853	correct	test	Phase3	test/STIM_009.jpg
1907.669	0.551	correct	test	Phase3	test/STIM_009.jpg
1911.644	0.796	incorrect	test	Phase3	test/STIM_009.jpg
1915.564	1.031	correct	test	Phase3	test/STIM_010.jpg
1919.328	0.738	incorrect	test	Phase3	test/STIM_010.jpg
1922.727	0.713	correct	test	Phase3	test/STIM_010.jpg
1926.093	1.152	correct	test	Phase3	test/STIM_011.jpg
1930.577	0.696	correct	test	Phase3	test/STIM_011.jpg
1933.485	0.512	correct	test	Phase3	test/STIM_011.jpg
1936.924	1.102	correct	test	Phase3	test/STIM_012.jpg
1941.689	1.064	correct	test	Phase3	test/STIM_012.jpg
1945.239	0.602	correct	test	Phase3	test/STIM_012.jpg
1948.731	1.207	correct	test	Phase3	test/STIM_013.jpg
1953.947	0.949	correct	test	Phase3	test/STIM_013.jpg
1957.489	1.254	correct	test	Phase3	test/STIM_013.jpg
1961.419	0.974	correct	test	Phase3	test/STIM_014.jpg
1966.095	1.144	incorrect	test	Phase3	test/STIM_014.jpg
1970.741	1.012	correct	test	Phase3	test/STIM_014.jpg
1974.374	1.177	incorrect	test	Phase3	test/STIM_015.jpg
1979.502	1.162	correct	test	Phase3	test/STIM_015.jpg
1982.725	0.61	correct	test	Phase3	test/STIM_015.jpg
1986.222	0.982	incorrect	test	Phase3	test/STIM_016.jpg
1990.669	0.593	correct	test	Phase3	test/STIM_016.jpg
1993.872	1.091	correct	test	Phase3	test/STIM_016.jpg
1997.984	0.692	correct	test	Phase3	test/STIM_017.jpg
2001.439	0.952	correct	test	Phase3	test/STIM_017.jpg
2005.637	0.713	correct	test	Phase3	test/STIM_017.jpg
2009.148	0.573	correct	test	Phase3	test/STIM_018.jpg
2013.19	0.968	incorrect	test	Phase3	test/STIM_018.jpg
2016.241	0.756	correct	test	Phase3	test/STIM_018.jpg
2019.899	0.757	correct	test	Phase3	test/STIM_019.jpg
2024.319	0.852	correct	test	Phase3	test/STIM_019.jpg
2028.271	0.691	correct	test	Phase3	test/STIM_019.jpg
2032.752	1.035	correct	test	Phase3	test/STIM_020.jpg
2036.96	0.974	correct	test	Phase3	test/STIM_020.jpg
2040.755	0.862	incorrect	test	Phase3	test/STIM_020.jpg
2045.499	0.929	correct	test	Phase3	test/STIM_021.jpg
2049.269	1.03	correct	test	Phase3	test/STIM_021.jpg
2053.03	1.129	correct	test	Phase3	test/STIM_021.jpg
2057.172	0.82	correct	test	Phase3	test/STIM_022.jpg
2060.605	0.626	correct	test	Phase3	test/STIM_022.jpg
2063.48	1.152	correct	test	Phase3	test/STIM_022.jpg
2068.102	1.069	correct	test	Phase3	test/STIM_023.jpg
2071.362	0.748	correct	test	Phase3	test/STIM_023.jpg
2074.206	1.222	incorrect	test	Phase3	test/STIM_023.jpg
2079.468	0.665	correct	test	Phase3	test/STIM_024.jpg
2083.209	0.713	correct	test	Phase3	test/STIM_024.jpg
2087.134	1.053	correct	test	Phase3	test/STIM_024.jpg
2090.357	1.166	correct	test	Phase3	test/STIM_025.jpg
2095.175	0.686	correct	test	Phase3	test/STIM_025.jpg
2099.265	0.83	correct	test	Phase3	test/STIM_025.jpg
2103.536	1.215	correct	test	Phase3	test/STIM_026.jpg
2108.055	0.726	correct	test	Phase3	test/STIM_026.jpg
2112.643	0.627	correct	test	Phase3	test/STIM_026.jpg
2116.454	1.077	incorrect	test	Phase3	test/STIM_027.jpg
2121.123	0.939	incorrect	test	Phase3	test/STIM_027.jpg
2124.843	0.912	correct	test	Phase3	test/STIM_027.jpg
2129.346	0.848	correct	test	Phase3	test/STIM_028.jpg
2134.163	1.136	incorrect	test	Phase3	test/STIM_028.jpg
2138.276	1.211	correct	test	Phase3	test/STIM_028.jpg
2143.441	1.241	correct	test	Phase3	test/STIM_029.jpg
2147.226	0.648	correct	test	Phase3	test/STIM_029.jpg
2150.105	0.775	correct	test	Phase3	test/STIM_029.jpg
