onset	duration	accuracy_binary	trial_type	learning_stage	stimulus
0.0	0.792	1	study	Phase1	study/STIM_000.jpg
3.885	1.43	1	study	Phase1	study/STIM_000.jpg
7.879	0.812	1	study	Phase1	study/STIM_000.jpg
11.596	1.344	1	study	Phase1	study/STIM_001.jpg
15.586	1.253	1	study	Phase1	study/STIM_001.jpg
19.262	1.377	0	study	Phase1	study/STIM_001.jpg
23.359	1.135	1	study	Phase1	study/STIM_002.jpg
26.847	1.13	1	study	Phase1	study/STIM_002.jpg
30.653	0.849	1	study	Phase1	study/STIM_002.jpg
34.913	1.203	1	study	Phase1	study/STIM_003.jpg
40.069	0.918	1	study	Phase1	study/STIM_003.jpg
43.334	1.044	1	study	Phase1	study/STIM_003.jpg
48.078	1.406	1	study	Phase1	study/STIM_004.jpg
51.519	1.192	1	study	Phase1	study/STIM_004.jpg
56.647	0.936	0	study	Phase1	study/STIM_004.jpg
59.872	1.376	1	study	Phase1	study/STIM_005.jpg
64.041	1.035	1	study	Phase1	study/STIM_005.jpg
67.365	1.365	1	study	Phase1	study/STIM_005.jpg
72.047	0.982	1	study	Phase1	study/STIM_006.jpg
75.168	1.52	1	study	Phase1	study/STIM_006.jpg
78.974	1.312	0	study	Phase1	study/STIM_006.jpg
82.366	0.952	1	study	Phase1	study/STIM_007.jpg
86.622	1.539	1	study	Phase1	study/STIM_007.jpg
91.722	1.066	1	study	Phase1	study/STIM_007.jpg
95.793	1.17	1	study	Phase1	study/STIM_008.jpg
99.034	1.441	0	study	Phase1	study/STIM_008.jpg
103.436	1.12	1	study	Phase1	study/STIM_008.jpg
108.46	0.987	1	study	Phase1	study/STIM_009.jpg
112.643	1.423	0	study	Phase1	study/STIM_009.jpg
116.629	1.011	1	study	Phase1	study/STIM_009.jpg
121.007	1.162	1	study	Phase1	study/STIM_010.jpg
125.287	1.087	1	study	Phase1	study/STIM_010.jpg
129.811	0.995	0	study	Phase1	study/STIM_010.jpg
133.156	0.868	1	study	Phase1	study/STIM_011.jpg
136.316	1.512	1	study	Phase1	study/STIM_011.jpg
140.933	1.241	1	study	Phase1	study/STIM_011.jpg
145.436	0.968	1	study	Phase1	study/STIM_012.jpg
148.533	1.101	0	study	Phase1	study/STIM_012.jpg
153.443	0.776	1	study	Phase1	study/STIM_012.jpg
156.713	1.482	1	study	Phase1	study/STIM_013.jpg
160.342	1.008	1	study	Phase1	study/STIM_013.jpg
163.761	0.902	0	study	Phase1	study/STIM_013.jpg
167.371	1.333	1	study	Phase1	study/STIM_014.jpg
171.19	1.093	0	study	Phase1	study/STIM_014.jpg
175.733	1.088	1	study	Phase1	study/STIM_014.jpg
180.32	1.468	1	study	Phase1	study/STIM_015.jpg
185.042	1.533	1	study	Phase1	study/STIM_015.jpg
190.314	1.461	1	study	Phase1	study/STIM_015.jpg
194.249	0.88	0	study	Phase1	study/STIM_016.jpg
198.931	1.277	1	study	Phase1	study/STIM_016.jpg
203.092	0.927	1	study	Phase1	study/STIM_016.jpg
206.436	1.602	1	study	Phase1	study/STIM_017.jpg
210.276	0.958	0	study	Phase1	study/STIM_017.jpg
213.848	1.128	0	study	Phase1	study/STIM_017.jpg
218.431	1.609	0	study	Phase1	study/STIM_018.jpg
223.906	1.432	0	study	Phase1	study/STIM_018.jpg
228.692	1.223	1	study	Phase1	study/STIM_018.jpg
233.458	1.544	1	study	Phase1	study/STIM_019.jpg
238.664	1.368	0	study	Phase1	study/STIM_019.jpg
243.403	0.797	1	study	Phase1	study/STIM_019.jpg
246.426	1.411	1	study	Phase1	study/STIM_020.jpg
250.416	1.144	1	study	Phase1	study/STIM_020.jpg
253.574	0.923	1	study	Phase1	study/STIM_020.jpg
256.511	0.865	1	study	Phase1	study/STIM_021.jpg
260.764	1.577	1	study	Phase1	study/STIM_021.jpg
264.522	1.033	1	study	Phase1	study/STIM_021.jpg
268.544	1.027	0	study	Phase1	study/STIM_022.jpg
272.381	0.999	1	study	Phase1	study/STIM_022.jpg
275.723	1.467	1	study	Phase1	study/STIM_022.jpg
279.708	0.771	1	study	Phase1	study/STIM_023.jpg
283.771	0.97	1	study	Phase1	study/STIM_023.jpg
288.649	0.947	0	study	Phase1	study/STIM_023.jpg
292.239	1.329	1	study	Phase1	study/STIM_024.jpg
297.193	1.5	0	study	Phase1	study/STIM_024.jpg
301.544	1.331	0	study	Phase1	study/STIM_024.jpg
305.395	0.848	0	study	Phase1	study/STIM_025.jpg
309.331	1.305	0	study	Phase1	study/STIM_025.jpg
314.036	1.011	1	study	Phase1	study/STIM_025.jpg
318.121	1.539	1	study	Phase1	study/STIM_026.jpg
322.513	1.409	1	study	Phase1	study/STIM_026.jpg
326.403	0.761	0	study	Phase1	study/STIM_026.jpg
329.661	0.815	1	study	Phase1	study/STIM_027.jpg
333.32	0.84	1	study	Phase1	study/STIM_027.jpg
336.187	1.434	1	study	Phase1	study/STIM_027.jpg
339.835	0.747	1	study	Phase1	study/STIM_028.jpg
343.5	1.465	0	study	Phase1	study/STIM_028.jpg
347.203	1.206	1	study	Phase1	study/STIM_028.jpg
351.461	0.997	1	study	Phase1	study/STIM_029.jpg
354.647	1.172	1	study	Phase1	study/STIM_029.jpg
358.614	0.997	0	study	Phase1	study/STIM_029.jpg
362.337	0.774	1	test	Phase1	test/STIM_000.jpg
365.264	0.76	1	test	Phase1	test/STIM_000.jpg
368.783	1.157	1	test	Phase1	test/STIM_000.jpg
373.212	0.808	0	test	Phase1	test/STIM_001.jpg
377.165	0.627	1	test	Phase1	test/STIM_001.jpg
381.438	0.579	0	test	Phase1	test/STIM_001.jpg
384.25	1.161	1	test	Phase1	test/STIM_002.jpg
387.984	0.617	1	test	Phase1	test/STIM_002.jpg
390.778	1.15	1	test	Phase1	test/STIM_002.jpg
394.46	0.85	1	test	Phase1	test/STIM_003.jpg
398.09	0.776	1	test	Phase1	test/STIM_003.jpg
402.821	0.712	1	test	Phase1	test/STIM_003.jpg
406.524	1.063	1	test	Phase1	test/STIM_004.jpg
410.489	0.805	1	test	Phase1	test/STIM_004.jpg
413.615	1.089	1	test	Phase1	test/STIM_004.jpg
417.365	1.096	0	test	Phase1	test/STIM_005.jpg
421.915	0.774	1	test	Phase1	test/STIM_005.jpg
425.722	0.928	0	test	Phase1	test/STIM_005.jpg
430.026	0.856	0	test	Phase1	test/STIM_006.jpg
434.4	0.689	0	test	Phase1	test/STIM_006.jpg
437.105	0.927	1	test	Phase1	test/STIM_006.jpg
441.297	0.87	1	test	Phase1	test/STIM_007.jpg
444.563	0.728	1	test	Phase1	test/STIM_007.jpg
447.763	1.164	1	test	Phase1	test/STIM_007.jpg
452.448	1.04	1	test	Phase1	test/STIM_008.jpg
456.957	0.576	1	test	Phase1	test/STIM_008.jpg
460.058	0.617	1	test	Phase1	test/STIM_008.jpg
464.566	1.139	1	test	Phase1	test/STIM_009.jpg
467.711	0.746	0	test	Phase1	test/STIM_009.jpg
471.117	0.746	1	test	Phase1	test/STIM_009.jpg
474.147	0.763	1	test	Phase1	test/STIM_010.jpg
477.372	0.873	1	test	Phase1	test/STIM_010.jpg
481.75	0.606	1	test	Phase1	test/STIM_010.jpg
486.328	0.746	1	test	Phase1	test/STIM_011.jpg
489.549	0.832	1	test	Phase1	test/STIM_011.jpg
493.196	0.641	0	test	Phase1	test/STIM_011.jpg
497.171	1.183	1	test	Phase1	test/STIM_012.jpg
501.895	0.836	1	test	Phase1	test/STIM_012.jpg
506.334	1.002	1	test	Phase1	test/STIM_012.jpg
510.851	0.6	1	test	Phase1	test/STIM_013.jpg
514.87	1.187	0	test	Phase1	test/STIM_013.jpg
519.956	1.181	0	test	Phase1	test/STIM_013.jpg
524.047	0.835	1	test	Phase1	test/STIM_014.jpg
527.764	1.094	1	test	Phase1	test/STIM_014.jpg
531.522	0.697	1	test	Phase1	test/STIM_014.jpg
534.809	0.9	1	test	Phase1	test/STIM_015.jpg
539.301	0.976	1	test	Phase1	test/STIM_015.jpg
543.624	0.699	1	test	Phase1	test/STIM_015.jpg
547.62	1.1	1	test	Phase1	test/STIM_016.jpg
552.084	0.569	1	test	Phase1	test/STIM_016.jpg
554.925	1.126	1	test	Phase1	test/STIM_016.jpg
559.41	1.184	1	test	Phase1	test/STIM_017.jpg
563.815	0.72	1	test	Phase1	test/STIM_017.jpg
567.899	0.773	1	test	Phase1	test/STIM_017.jpg
572.024	1.073	1	test	Phase1	test/STIM_018.jpg
576.812	1.098	1	test	Phase1	test/STIM_018.jpg
580.076	0.998	0	test	Phase1	test/STIM_018.jpg
584.633	0.602	1	test	Phase1	test/STIM_019.jpg
588.068	0.675	1	test	Phase1	test/STIM_019.jpg
591.802	0.863	0	test	Phase1	test/STIM_019.jpg
596.501	1.062	1	test	Phase1	test/STIM_020.jpg
600.127	1.174	1	test	Phase1	test/STIM_020.jpg
603.508	1.084	1	test	Phase1	test/STIM_020.jpg
608.534	0.628	1	test	Phase1	test/STIM_021.jpg
611.213	0.626	0	test	Phase1	test/STIM_021.jpg
615.428	0.561	1	test	Phase1	test/STIM_021.jpg
618.594	1.129	1	test	Phase1	test/STIM_022.jpg
623.135	0.648	1	test	Phase1	test/STIM_022.jpg
626.44	0.723	1	test	Phase1	test/STIM_022.jpg
630.972	0.964	1	test	Phase1	test/STIM_023.jpg
634.687	0.983	0	test	Phase1	test/STIM_023.jpg
639.572	1.013	1	test	Phase1	test/STIM_023.jpg
644.319	1.014	1	test	Phase1	test/STIM_024.jpg
648.471	0.915	1	test	Phase1	test/STIM_024.jpg
652.912	0.802	1	test	Phase1	test/STIM_024.jpg
656.275	0.799	1	test	Phase1	test/STIM_025.jpg
659.237	0.679	1	test	Phase1	test/STIM_025.jpg
662.926	0.696	1	test	Phase1	test/STIM_025.jpg
666.515	0.858	1	test	Phase1	test/STIM_026.jpg
670.95	0.786	0	test	Phase1	test/STIM_026.jpg
674.643	0.853	1	test	Phase1	test/STIM_026.jpg
678.148	0.639	1	test	Phase1	test/STIM_027.jpg
681.05	1.084	1	test	Phase1	test/STIM_027.jpg
685.259	0.68	1	test	Phase1	test/STIM_027.jpg
688.583	1.195	1	test	Phase1	test/STIM_028.jpg
692.725	0.8	1	test	Phase1	test/STIM_028.jpg
696.391	0.565	1	test	Phase1	test/STIM_028.jpg
700.643	0.999	1	test	Phase1	test/STIM_029.jpg
703.935	0.702	1	test	Phase1	test/STIM_029.jpg
708.486	0.767	1	test	Phase1	test/STIM_029.jpg
712.218	1.195	1	study	Phase2	study/STIM_000.jpg
716.021	0.927	1	study	Phase2	study/STIM_000.jpg
720.517	0.946	1	study	Phase2	study/STIM_000.jpg
725.417	0.66	1	study	Phase2	study/STIM_001.jpg
729.247	1.274	1	study	Phase2	study/STIM_001.jpg
732.811	1.099	1	study	Phase2	study/STIM_001.jpg
736.593	1.011	1	study	Phase2	study/STIM_002.jpg
739.628	1.297	1	study	Phase2	study/STIM_002.jpg
743.749	1.008	1	study	Phase2	study/STIM_002.jpg
746.795	0.709	1	study	Phase2	study/STIM_003.jpg
750.319	0.939	1	study	Phase2	study/STIM_003.jpg
755.131	0.796	1	study	Phase2	study/STIM_003.jpg
759.206	1.084	1	study	Phase2	study/STIM_004.jpg
762.435	1.16	1	study	Phase2	study/STIM_004.jpg
767.501	0.984	1	study	Phase2	study/STIM_004.jpg
771.653	0.982	0	study	Phase2	study/STIM_005.jpg
774.953	1.047	1	study	Phase2	study/STIM_005.jpg
778.822	0.724	1	study	Phase2	study/STIM_005.jpg
783.416	1.401	1	study	Phase2	study/STIM_006.jpg
787.836	1.221	1	study	Phase2	study/STIM_006.jpg
792.673	0.62	1	study	Phase2	study/STIM_006.jpg
795.963	1.068	1	study	Phase2	study/STIM_007.jpg
799.144	1.176	1	study	Phase2	study/STIM_007.jpg
803.555	0.763	1	study	Phase2	study/STIM_007.jpg
807.171	1.315	1	study	Phase2	study/STIM_008.jpg
810.981	1.303	1	study	Phase2	study/STIM_008.jpg
814.599	1.229	1	study	Phase2	study/STIM_008.jpg
818.544	1.124	1	study	Phase2	study/STIM_009.jpg
822.248	1.076	0	study	Phase2	study/STIM_009.jpg
826.753	1.188	1	study	Phase2	study/STIM_009.jpg
831.499	1.02	1	study	Phase2	study/STIM_010.jpg
835.93	1.111	1	study	Phase2	study/STIM_010.jpg
839.96	0.756	0	study	Phase2	study/STIM_010.jpg
844.42	1.276	1	study	Phase2	study/STIM_011.jpg
849.647	0.855	0	study	Phase2	study/STIM_011.jpg
854.339	0.686	1	study	Phase2	study/STIM_011.jpg
858.399	1.216	1	study	Phase2	study/STIM_012.jpg
862.142	1.033	1	study	Phase2	study/STIM_012.jpg
866.975	0.964	1	study	Phase2	study/STIM_012.jpg
870.996	0.906	1	study	Phase2	study/STIM_013.jpg
875.064	0.703	1	study	Phase2	study/STIM_013.jpg
879.669	1.101	1	study	Phase2	study/STIM_013.jpg
884.499	1.005	1	study	Phase2	study/STIM_014.jpg
889.138	1.131	1	study	Phase2	study/STIM_014.jpg
893.053	0.558	1	study	Phase2	study/STIM_014.jpg
896.498	0.824	1	study	Phase2	study/STIM_015.jpg
899.581	1.246	1	study	Phase2	study/STIM_015.jpg
904.598	0.867	1	study	Phase2	study/STIM_015.jpg
907.489	0.862	1	study	Phase2	study/STIM_016.jpg
910.661	1.14	1	study	Phase2	study/STIM_016.jpg
914.588	0.971	1	study	Phase2	study/STIM_016.jpg
918.136	1.279	1	study	Phase2	study/STIM_017.jpg
922.83	1.103	1	study	Phase2	study/STIM_017.jpg
927.576	1.159	1	study	Phase2	study/STIM_017.jpg
930.978	0.75	1	study	Phase2	study/STIM_018.jpg
934.982	0.614	1	study	Phase2	study/STIM_018.jpg
939.351	0.944	1	study	Phase2	study/STIM_018.jpg
942.406	1.412	1	study	Phase2	study/STIM_019.jpg
947.138	0.834	1	study	Phase2	study/STIM_019.jpg
951.789	0.882	1	study	Phase2	study/STIM_019.jpg
955.263	1.161	1	study	Phase2	study/STIM_020.jpg
958.932	1.196	1	study	Phase2	study/STIM_020.jpg
963.571	0.662	1	study	Phase2	study/STIM_020.jpg
966.399	0.885	1	study	Phase2	study/STIM_021.jpg
969.37	1.319	1	study	Phase2	study/STIM_021.jpg
972.791	1.022	1	study	Phase2	study/STIM_021.jpg
976.327	1.255	1	study	Phase2	study/STIM_022.jpg
979.856	0.896	1	study	Phase2	study/STIM_022.jpg
982.795	1.083	1	study	Phase2	study/STIM_022.jpg
986.978	1.01	1	study	Phase2	study/STIM_023.jpg
991.775	1.023	1	study	Phase2	study/STIM_023.jpg
996.272	0.885	1	study	Phase2	study/STIM_023.jpg
1000.332	1.17	1	study	Phase2	study/STIM_024.jpg
1004.104	1.328	1	study	Phase2	study/STIM_024.jpg
1007.861	1.228	1	study	Phase2	study/STIM_024.jpg
1013.062	1.404	1	study	Phase2	study/STIM_025.jpg
1017.413	0.744	1	study	Phase2	study/STIM_025.jpg
1020.436	0.668	1	study	Phase2	study/STIM_025.jpg
1024.663	1.249	1	study	Phase2	study/STIM_026.jpg
1029.342	0.884	1	study	Phase2	study/STIM_026.jpg
1032.631	1.19	1	study	Phase2	study/STIM_026.jpg
1037.338	0.971	1	study	Phase2	study/STIM_027.jpg
1041.08	0.807	0	study	Phase2	study/STIM_027.jpg
1044.864	0.797	1	study	Phase2	study/STIM_027.jpg
1049.309	1.033	1	study	Phase2	study/STIM_028.jpg
1053.391	0.952	1	study	Phase2	study/STIM_028.jpg
1058.011	0.984	1	study	Phase2	study/STIM_028.jpg
1062.607	0.708	1	study	Phase2	study/STIM_029.jpg
1066.965	1.12	1	study	Phase2	study/STIM_029.jpg
1070.848	0.995	1	study	Phase2	study/STIM_029.jpg
1074.86	0.745	1	test	Phase2	test/STIM_000.jpg
1078.049	0.59	1	test	Phase2	test/STIM_000.jpg
1080.877	0.575	1	test	Phase2	test/STIM_000.jpg
1084.413	0.933	0	test	Phase2	test/STIM_001.jpg
1087.461	0.623	1	test	Phase2	test/STIM_001.jpg
1091.294	0.691	1	test	Phase2	test/STIM_001.jpg
1094.05	0.929	1	test	Phase2	test/STIM_002.jpg
1098.0	1.159	1	test	Phase2	test/STIM_002.jpg
1102.767	0.795	1	test	Phase2	test/STIM_002.jpg
1107.208	0.581	1	test	Phase2	test/STIM_003.jpg
1111.557	0.865	1	test	Phase2	test/STIM_003.jpg
1115.651	0.933	1	test	Phase2	test/STIM_003.jpg
1118.631	0.943	1	test	Phase2	test/STIM_004.jpg
1122.834	1.03	1	test	Phase2	test/STIM_004.jpg
1127.675	0.97	1	test	Phase2	test/STIM_004.jpg
1132.384	0.983	0	test	Phase2	test/STIM_005.jpg
1136.505	0.668	1	test	Phase2	test/STIM_005.jpg
1139.904	0.62	1	test	Phase2	test/STIM_005.jpg
1143.501	1.163	1	test	Phase2	test/STIM_006.jpg
1147.156	1.082	1	test	Phase2	test/STIM_006.jpg
1152.09	0.778	1	test	Phase2	test/STIM_006.jpg
1156.182	0.727	1	test	Phase2	test/STIM_007.jpg
1159.669	1.143	1	test	Phase2	test/STIM_007.jpg
1164.807	1.121	1	test	Phase2	test/STIM_007.jpg
1169.202	0.866	1	test	Phase2	test/STIM_008.jpg
1173.757	1.039	1	test	Phase2	test/STIM_008.jpg
1177.89	0.812	1	test	Phase2	test/STIM_008.jpg
1181.422	0.778	1	test	Phase2	test/STIM_009.jpg
1185.227	1.187	1	test	Phase2	test/STIM_009.jpg
1188.831	0.979	1	test	Phase2	test/STIM_009.jpg
1193.246	0.955	1	test	Phase2	test/STIM_010.jpg
1196.682	1.108	1	test	Phase2	test/STIM_010.jpg
1200.672	0.744	1	test	Phase2	test/STIM_010.jpg
1204.298	0.775	0	test	Phase2	test/STIM_011.jpg
1207.881	0.702	0	test	Phase2	test/STIM_011.jpg
1211.467	0.888	1	test	Phase2	test/STIM_011.jpg
1214.816	0.775	1	test	Phase2	test/STIM_012.jpg
1218.885	1.107	1	test	Phase2	test/STIM_012.jpg
1222.359	1.043	1	test	Phase2	test/STIM_012.jpg
1225.805	0.703	1	test	Phase2	test/STIM_013.jpg
1229.233	1.038	1	test	Phase2	test/STIM_013.jpg
1233.761	1.019	1	test	Phase2	test/STIM_013.jpg
1238.391	0.6	1	test	Phase2	test/STIM_014.jpg
1241.862	1.037	1	test	Phase2	test/STIM_014.jpg
1245.759	0.686	1	test	Phase2	test/STIM_014.jpg
1248.713	0.665	1	test	Phase2	test/STIM_015.jpg
1251.659	0.945	1	test	Phase2	test/STIM_015.jpg
1255.582	1.025	1	test	Phase2	test/STIM_015.jpg
1260.603	0.605	1	test	Phase2	test/STIM_016.jpg
1264.351	0.885	1	test	Phase2	test/STIM_016.jpg
1268.332	0.624	1	test	Phase2	test/STIM_016.jpg
1272.26	0.597	1	test	Phase2	test/STIM_017.jpg
1276.279	1.071	1	test	Phase2	test/STIM_017.jpg
1280.285	1.192	1	test	Phase2	test/STIM_017.jpg
1284.546	0.747	1	test	Phase2	test/STIM_018.jpg
1289.1	0.962	1	test	Phase2	test/STIM_018.jpg
1293.684	0.649	1	test	Phase2	test/STIM_018.jpg
1297.552	1.012	1	test	Phase2	test/STIM_019.jpg
1302.209	1.066	1	test	Phase2	test/STIM_019.jpg
1306.955	1.061	1	test	Phase2	test/STIM_019.jpg
1310.205	1.114	1	test	Phase2	test/STIM_020.jpg
1314.958	1.053	0	test	Phase2	test/STIM_020.jpg
1318.556	1.089	1	test	Phase2	test/STIM_020.jpg
1322.289	0.656	1	test	Phase2	test/STIM_021.jpg
1326.202	0.782	1	test	Phase2	test/STIM_021.jpg
1330.608	0.729	0	test	Phase2	test/STIM_021.jpg
1333.697	0.707	1	test	Phase2	test/STIM_022.jpg
1337.216	0.765	1	test	Phase2	test/STIM_022.jpg
1340.701	0.715	1	test	Phase2	test/STIM_022.jpg
1343.899	1.156	1	test	Phase2	test/STIM_023.jpg
1348.961	0.677	0	test	Phase2	test/STIM_023.jpg
1352.253	0.762	1	test	Phase2	test/STIM_023.jpg
1356.561	0.674	1	test	Phase2	test/STIM_024.jpg
1359.943	1.192	1	test	Phase2	test/STIM_024.jpg
1363.681	0.845	1	test	Phase2	test/STIM_024.jpg
1367.13	0.844	0	test	Phase2	test/STIM_025.jpg
1370.968	0.731	1	test	Phase2	test/STIM_025.jpg
1375.082	0.785	1	test	Phase2	test/STIM_025.jpg
1378.975	0.935	1	test	Phase2	test/STIM_026.jpg
1383.345	1.044	1	test	Phase2	test/STIM_026.jpg
1387.18	1.067	1	test	Phase2	test/STIM_026.jpg
1391.079	1.137	1	test	Phase2	test/STIM_027.jpg
1394.715	0.984	0	test	Phase2	test/STIM_027.jpg
1398.22	0.59	1	test	Phase2	test/STIM_027.jpg
1402.707	1.157	1	test	Phase2	test/STIM_028.jpg
1406.184	1.099	1	test	Phase2	test/STIM_028.jpg
1411.116	1.009	1	test	Phase2	test/STIM_028.jpg
1415.253	0.959	1	test	Phase2	test/STIM_029.jpg
1419.914	0.885	1	test	Phase2	test/STIM_029.jpg
1424.572	0.977	1	test	Phase2	test/STIM_029.jpg
1427.8	0.867	1	study	Phase3	study/STIM_000.jpg
1431.88	0.701	1	study	Phase3	study/STIM_000.jpg
1435.45	0.568	1	study	Phase3	study/STIM_000.jpg
1439.541	1.11	1	study	Phase3	study/STIM_001.jpg
1444.329	1.001	1	study	Phase3	study/STIM_001.jpg
1449.298	0.553	1	study	Phase3	study/STIM_001.jpg
1453.379	0.604	1	study	Phase3	study/STIM_002.jpg
1457.243	0.961	1	study	Phase3	study/STIM_002.jpg
1460.619	0.597	1	study	Phase3	study/STIM_002.jpg
1464.883	0.59	0	study	Phase3	study/STIM_003.jpg
1467.504	1.01	1	study	Phase3	study/STIM_003.jpg
1471.113	0.714	1	study	Phase3	study/STIM_003.jpg
1474.089	0.906	1	study	Phase3	study/STIM_004.jpg
1477.793	0.97	1	study	Phase3	study/STIM_004.jpg
1482.451	0.987	1	study	Phase3	study/STIM_004.jpg
1486.072	0.536	1	study	Phase3	study/STIM_005.jpg
1490.154	1.093	1	study	Phase3	study/STIM_005.jpg
1493.986	0.536	1	study	Phase3	study/STIM_005.jpg
1497.889	0.827	1	study	Phase3	study/STIM_006.jpg
1500.895	0.573	1	study	Phase3	study/STIM_006.jpg
1503.603	0.549	0	study	Phase3	study/STIM_006.jpg
1507.635	0.784	1	study	Phase3	study/STIM_007.jpg
1511.302	0.755	1	study	Phase3	study/STIM_007.jpg
1514.429	0.894	1	study	Phase3	study/STIM_007.jpg
1518.654	0.635	1	study	Phase3	study/STIM_008.jpg
1522.901	1.101	1	study	Phase3	study/STIM_008.jpg
1526.834	0.986	1	study	Phase3	study/STIM_008.jpg
1530.954	0.738	1	study	Phase3	study/STIM_009.jpg
1535.613	0.997	1	study	Phase3	study/STIM_009.jpg
1540.039	0.769	1	study	Phase3	study/STIM_009.jpg
1544.165	0.782	1	study	Phase3	study/STIM_010.jpg
1547.614	0.77	1	study	Phase3	study/STIM_010.jpg
1551.528	0.799	1	study	Phase3	study/STIM_010.jpg
1555.573	0.856	1	study	Phase3	study/STIM_011.jpg
1560.292	0.662	1	study	Phase3	study/STIM_011.jpg
1563.815	0.883	1	study	Phase3	study/STIM_011.jpg
1567.81	0.635	1	study	Phase3	study/STIM_012.jpg
1572.126	0.585	0	study	Phase3	study/STIM_012.jpg
1575.416	0.823	1	study	Phase3	study/STIM_012.jpg
1579.136	0.806	0	study	Phase3	study/STIM_013.jpg
1582.237	0.62	1	study	Phase3	study/STIM_013.jpg
1586.447	0.53	1	study	Phase3	study/STIM_013.jpg
1589.033	0.606	1	study	Phase3	study/STIM_014.jpg
1593.164	0.747	1	study	Phase3	study/STIM_014.jpg
1596.987	0.676	1	study	Phase3	study/STIM_014.jpg
1600.127	0.739	1	study	Phase3	study/STIM_015.jpg
1604.497	0.8	1	study	Phase3	study/STIM_015.jpg
1607.615	0.937	1	study	Phase3	study/STIM_015.jpg
1611.621	0.566	0	study	Phase3	study/STIM_016.jpg
1614.928	0.691	1	study	Phase3	study/STIM_016.jpg
1617.887	1.026	1	study	Phase3	study/STIM_016.jpg
1621.225	0.857	1	study	Phase3	study/STIM_017.jpg
1626.017	0.908	1	study	Phase3	study/STIM_017.jpg
1629.301	0.572	1	study	Phase3	study/STIM_017.jpg
1633.421	0.791	1	study	Phase3	study/STIM_018.jpg
1637.173	0.776	1	study	Phase3	study/STIM_018.jpg
1641.097	0.608	1	study	Phase3	study/STIM_018.jpg
1644.002	0.734	1	study	Phase3	study/STIM_019.jpg
1647.253	0.807	1	study	Phase3	study/STIM_019.jpg
1650.687	0.707	1	study	Phase3	study/STIM_019.jpg
1654.021	0.911	1	study	Phase3	study/STIM_020.jpg
1657.389	1.002	1	study	Phase3	study/STIM_020.jpg
1661.231	0.671	1	study	Phase3	study/STIM_020.jpg
1665.55	0.917	0	study	Phase3	study/STIM_021.jpg
1670.019	0.787	1	study	Phase3	study/STIM_021.jpg
1673.123	1.152	1	study	Phase3	study/STIM_021.jpg
1678.079	1.029	1	study	Phase3	study/STIM_022.jpg
1681.82	0.931	1	study	Phase3	study/STIM_022.jpg
1684.991	1.136	1	study	Phase3	study/STIM_022.jpg
1688.659	0.572	1	study	Phase3	study/STIM_023.jpg
1692.077	1.123	1	study	Phase3	study/STIM_023.jpg
1697.109	1.088	1	study	Phase3	study/STIM_023.jpg
1701.055	0.772	1	study	Phase3	study/STIM_024.jpg
1705.25	0.977	1	study	Phase3	study/STIM_024.jpg
1709.05	0.624	1	study	Phase3	study/STIM_024.jpg
1712.202	0.942	1	study	Phase3	study/STIM_025.jpg
1715.797	0.972	1	study	Phase3	study/STIM_025.jpg
1719.702	1.033	1	study	Phase3	study/STIM_025.jpg
1724.164	0.928	1	study	Phase3	study/STIM_026.jpg
1728.934	0.746	1	study	Phase3	study/STIM_026.jpg
1732.977	0.721	1	study	Phase3	study/STIM_026.jpg
1735.887	0.903	1	study	Phase3	study/STIM_027.jpg
1740.231	0.894	1	study	Phase3	study/STIM_027.jpg
1744.344	0.982	1	study	Phase3	study/STIM_027.jpg
1748.814	0.564	1	study	Phase3	study/STIM_028.jpg
1752.752	1.145	1	study	Phase3	study/STIM_028.jpg
1756.465	1.038	1	study	Phase3	study/STIM_028.jpg
1760.124	0.959	1	study	Phase3	study/STIM_029.jpg
1763.449	0.584	1	study	Phase3	study/STIM_029.jpg
1766.577	0.94	1	study	Phase3	study/STIM_029.jpg
1771.162	0.86	1	test	Phase3	test/STIM_000.jpg
1774.381	0.782	1	test	Phase3	test/STIM_000.jpg
1778.974	1.16	1	test	Phase3	test/STIM_000.jpg
1782.433	1.108	1	test	Phase3	test/STIM_001.jpg
1786.375	0.627	1	test	Phase3	test/STIM_001.jpg
1789.022	1.123	0	test	Phase3	test/STIM_001.jpg
1793.199	0.902	1	test	Phase3	test/STIM_002.jpg
1797.92	0.711	1	test	Phase3	test/STIM_002.jpg
1802.254	0.983	1	test	Phase3	test/STIM_002.jpg
1805.246	1.056	1	test	Phase3	test/STIM_003.jpg
1809.612	1.102	1	test	Phase3	test/STIM_003.jpg
1814.679	1.185	1	test	Phase3	test/STIM_003.jpg
1819.166	0.605	1	test	Phase3	test/STIM_004.jpg
1823.211	1.1	1	test	Phase3	test/STIM_004.jpg
1828.3	0.62	1	test	Phase3	test/STIM_004.jpg
1832.372	1.125	1	test	Phase3	test/STIM_005.jpg
1835.617	1.07	1	test	Phase3	test/STIM_005.jpg
1839.652	0.794	1	test	Phase3	test/STIM_005.jpg
1842.756	0.989	1	test	Phase3	test/STIM_006.jpg
1846.513	0.668	1	test	Phase3	test/STIM_006.jpg
1850.501	0.606	1	test	Phase3	test/STIM_006.jpg
1854.88	1.193	1	test	Phase3	test/STIM_007.jpg
1859.288	0.632	1	test	Phase3	test/STIM_007.jpg
1863.637	1.02	1	test	Phase3	test/STIM_007.jpg
1868.336	1.09	1	test	Phase3	test/STIM_008.jpg
1871.828	0.702	1	test	Phase3	test/STIM_008.jpg
1875.544	0.973	1	test	Phase3	test/STIM_008.jpg
1879.604	0.65	1	test	Phase3	test/STIM_009.jpg
1883.288	0.861	1	test	Phase3	test/STIM_009.jpg
1886.612	1.046	0	test	Phase3	test/STIM_009.jpg
1890.389	0.617	1	test	Phase3	test/STIM_010.jpg
1893.577	0.957	1	test	Phase3	test/STIM_010.jpg
1897.563	1.1	1	test	Phase3	test/STIM_010.jpg
1902.17	0.83	1	test	Phase3	test/STIM_011.jpg
1905.32	1.028	1	test	Phase3	test/STIM_011.jpg
1908.667	0.896	1	test	Phase3	test/STIM_011.jpg
1913.483	0.554	1	test	Phase3	test/STIM_012.jpg
1916.673	0.867	1	test	Phase3	test/STIM_012.jpg
1920.621	1.174	1	test	Phase3	test/STIM_012.jpg
1924.804	0.814	1	test	Phase3	test/STIM_013.jpg
1928.656	1.029	1	test	Phase3	test/STIM_013.jpg
1932.616	0.606	1	test	Phase3	test/STIM_013.jpg
1936.863	0.669	1	test	Phase3	test/STIM_014.jpg
1941.496	0.926	0	test	Phase3	test/STIM_014.jpg
1946.013	0.856	1	test	Phase3	test/STIM_014.jpg
1950.489	0.932	0	test	Phase3	test/STIM_015.jpg
1954.605	1.046	1	test	Phase3	test/STIM_015.jpg
1958.96	1.049	1	test	Phase3	test/STIM_015.jpg
1963.54	0.697	0	test	Phase3	test/STIM_016.jpg
1967.555	0.66	1	test	Phase3	test/STIM_016.jpg
1971.386	1.026	1	test	Phase3	test/STIM_016.jpg
1976.348	0.741	1	test	Phase3	test/STIM_017.jpg
1979.81	0.868	1	test	Phase3	test/STIM_017.jpg
1983.151	0.691	1	test	Phase3	test/STIM_017.jpg
1987.242	1.171	1	test	Phase3	test/STIM_018.jpg
1991.596	0.822	0	test	Phase3	test/STIM_018.jpg
1995.889	0.677	1	test	Phase3	test/STIM_018.jpg
1998.837	0.624	1	test	Phase3	test/STIM_019.jpg
2002.79	1.132	1	test	Phase3	test/STIM_019.jpg
2006.437	0.722	1	test	Phase3	test/STIM_019.jpg
2009.791	0.686	1	test	Phase3	test/STIM_020.jpg
2014.275	0.925	1	test	Phase3	test/STIM_020.jpg
2018.345	0.713	0	test	Phase3	test/STIM_020.jpg
2022.83	0.66	1	test	Phase3	test/STIM_021.jpg
2026.228	1.087	1	test	Phase3	test/STIM_021.jpg
2030.706	0.971	1	test	Phase3	test/STIM_021.jpg
2034.78	0.841	1	test	Phase3	test/STIM_022.jpg
2039.379	1.131	1	test	Phase3	test/STIM_022.jpg
2044.323	0.58	1	test	Phase3	test/STIM_022.jpg
2048.514	1.084	1	test	Phase3	test/STIM_023.jpg
2052.734	1.092	1	test	Phase3	test/STIM_023.jpg
2057.7	1.084	0	test	Phase3	test/STIM_023.jpg
2061.087	0.657	1	test	Phase3	test/STIM_024.jpg
2065.218	1.191	1	test	Phase3	test/STIM_024.jpg
2070.26	0.995	1	test	Phase3	test/STIM_024.jpg
2074.214	0.574	1	test	Phase3	test/STIM_025.jpg
2077.254	1.151	1	test	Phase3	test/STIM_025.jpg
2081.369	0.835	1	test	Phase3	test/STIM_025.jpg
2086.03	0.891	1	test	Phase3	test/STIM_026.jpg
2090.372	1.062	1	test	Phase3	test/STIM_026.jpg
2093.529	0.77	1	test	Phase3	test/STIM_026.jpg
2097.765	1.107	0	test	Phase3	test/STIM_027.jpg
2101.556	0.749	0	test	Phase3	test/STIM_027.jpg
2106.056	0.654	1	test	Phase3	test/STIM_027.jpg
2109.161	0.696	0	test	Phase3	test/STIM_028.jpg
2112.159	0.604	1	test	Phase3	test/STIM_028.jpg
2114.98	0.706	1	test	Phase3	test/STIM_028.jpg
2117.859	0.676	1	test	Phase3	test/STIM_029.jpg
2121.835	1.04	1	test	Phase3	test/STIM_029.jpg
2125.894	1.198	1	test	Phase3	test/STIM_029.jpg
