onset	duration	response_time_ms	trial_type	learning_stage	stimulus	response_port
0.0	2.769	2769.0	navigation	Trial1	navigation/STIM_000.jpg	99
5.64	2.87	2869.9	navigation	Trial1	navigation/STIM_000.jpg	99
12.8	1.584	1584.4	navigation	Trial1	navigation/STIM_000.jpg	99
17.592	3.484	3483.7	navigation	Trial1	navigation/STIM_000.jpg	100
24.725	2.082	2081.7	navigation	Trial1	navigation/STIM_000.jpg	99
30.308	2.302	2301.8	navigation	Trial1	navigation/STIM_000.jpg	99
35.826	2.429	2429.4	navigation	Trial1	navigation/STIM_001.jpg	100
42.052	3.165	3164.8	navigation	Trial1	navigation/STIM_001.jpg	100
48.483	2.238	2238.5	navigation	Trial1	navigation/STIM_001.jpg	99
53.472	1.495	1495.2	navigation	Trial1	navigation/STIM_001.jpg	100
57.607	3.402	3401.8	navigation	Trial1	navigation/STIM_001.jpg	100
64.781	2.892	2891.8	navigation	Trial1	navigation/STIM_001.jpg	100
70.203	3.571	3570.8	navigation	Trial1	navigation/STIM_002.jpg	99
76.937	3.77	3770.1	navigation	Trial1	navigation/STIM_002.jpg	99
83.583	1.812	1812.1	navigation	Trial1	navigation/STIM_002.jpg	99
88.12	1.589	1588.6	navigation	Trial1	navigation/STIM_002.jpg	99
93.18	2.169	2169.3	navigation	Trial1	navigation/STIM_002.jpg	99
99.152	2.142	2142.5	navigation	Trial1	navigation/STIM_002.jpg	99
103.949	3.216	3216.5	navigation	Trial1	navigation/STIM_003.jpg	100
109.81	3.81	3810.4	navigation	Trial1	navigation/STIM_003.jpg	100
118.095	2.172	2171.7	navigation	Trial1	navigation/STIM_003.jpg	99
122.951	2.038	2037.7	navigation	Trial1	navigation/STIM_003.jpg	100
128.721	2.385	2385.1	navigation	Trial1	navigation/STIM_003.jpg	100
133.87	2.761	2761.3	navigation	Trial1	navigation/STIM_003.jpg	99
140.005	4.199	4199.3	navigation	Trial1	navigation/STIM_004.jpg	99
147.925	2.967	2967.1	navigation	Trial1	navigation/STIM_004.jpg	100
153.622	3.003	3003.3	navigation	Trial1	navigation/STIM_004.jpg	100
159.71	2.621	2621.4	navigation	Trial1	navigation/STIM_004.jpg	100
165.502	2.285	2285.0	navigation	Trial1	navigation/STIM_004.jpg	99
170.207	2.909	2909.1	navigation	Trial1	navigation/STIM_004.jpg	99
177.011	2.473	2472.7	navigation	Trial1	navigation/STIM_005.jpg	99
183.101	2.63	2630.3	navigation	Trial1	navigation/STIM_005.jpg	99
188.403	3.362	3361.8	navigation	Trial1	navigation/STIM_005.jpg	100
194.529	1.462	1462.1	navigation	Trial1	navigation/STIM_005.jpg	99
199.992	2.785	2784.6	navigation	Trial1	navigation/STIM_005.jpg	99
205.596	3.209	3209.2	navigation	Trial1	navigation/STIM_005.jpg	99
212.866	3.961	3961.1	navigation	Trial1	navigation/STIM_006.jpg	100
221.027	3.947	3947.4	navigation	Trial1	navigation/STIM_006.jpg	100
228.129	3.493	3493.2	navigation	Trial1	navigation/STIM_006.jpg	100
234.841	1.676	1675.5	navigation	Trial1	navigation/STIM_006.jpg	100
238.826	2.283	2282.6	navigation	Trial1	navigation/STIM_006.jpg	100
245.138	2.675	2675.2	navigation	Trial1	navigation/STIM_006.jpg	99
252.02	3.23	3230.3	navigation	Trial1	navigation/STIM_007.jpg	99
258.783	2.087	2086.7	navigation	Trial1	navigation/STIM_007.jpg	99
264.864	3.847	3847.0	navigation	Trial1	navigation/STIM_007.jpg	100
273.121	2.227	2227.1	navigation	Trial1	navigation/STIM_007.jpg	99
279.475	2.46	2459.8	navigation	Trial1	navigation/STIM_007.jpg	99
285.062	2.067	2067.4	navigation	Trial1	navigation/STIM_007.jpg	99
291.474	3.527	3527.0	navigation	Trial1	navigation/STIM_008.jpg	100
299.267	2.711	2711.1	navigation	Trial1	navigation/STIM_008.jpg	100
305.812	2.028	2028.0	navigation	Trial1	navigation/STIM_008.jpg	100
311.255	2.038	2037.6	navigation	Trial1	navigation/STIM_008.jpg	99
317.181	1.951	1951.2	navigation	Trial1	navigation/STIM_008.jpg	100
323.243	2.747	2747.3	navigation	Trial1	navigation/STIM_008.jpg	99
329.032	3.702	3701.6	navigation	Trial1	navigation/STIM_009.jpg	99
336.332	2.301	2300.7	navigation	Trial1	navigation/STIM_009.jpg	99
341.881	2.408	2408.3	navigation	Trial1	navigation/STIM_009.jpg	99
346.792	3.062	3062.0	navigation	Trial1	navigation/STIM_009.jpg	100
352.436	2.927	2927.0	navigation	Trial1	navigation/STIM_009.jpg	99
359.601	2.133	2133.3	navigation	Trial1	navigation/STIM_009.jpg	100
364.7	3.416	3415.5	navigation	Trial1	navigation/STIM_010.jpg	100
372.127	2.025	2025.1	navigation	Trial1	navigation/STIM_010.jpg	100
376.634	1.923	1923.2	navigation	Trial1	navigation/STIM_010.jpg	100
381.372	2.207	2207.0	navigation	Trial1	navigation/STIM_010.jpg	100
387.098	3.322	3322.1	navigation	Trial1	navigation/STIM_010.jpg	100
394.262	2.071	2071.0	navigation	Trial1	navigation/STIM_010.jpg	100
400.086	2.311	2311.1	navigation	Trial1	navigation/STIM_011.jpg	99
406.292	3.182	3182.5	navigation	Trial1	navigation/STIM_011.jpg	99
413.403	3.773	3772.6	navigation	Trial1	navigation/STIM_011.jpg	100
419.901	1.644	1644.5	navigation	Trial1	navigation/STIM_011.jpg	99
424.477	2.45	2450.2	navigation	Trial1	navigation/STIM_011.jpg	99
429.373	1.551	1551.1	navigation	Trial1	navigation/STIM_011.jpg	99
434.993	1.271	1271.4	pointing	Trial1	pointing/STIM_000.jpg	100
439.528	0.988	988.0	pointing	Trial1	pointing/STIM_000.jpg	99
443.52	1.1	1099.8	pointing	Trial1	pointing/STIM_000.jpg	100
447.618	0.962	962.3	pointing	Trial1	pointing/STIM_000.jpg	99
452.558	1.256	1256.5	pointing	Trial1	pointing/STIM_000.jpg	100
457.222	0.896	896.4	pointing	Trial1	pointing/STIM_000.jpg	99
460.658	1.284	1284.4	pointing	Trial1	pointing/STIM_001.jpg	99
465.766	1.188	1188.2	pointing	Trial1	pointing/STIM_001.jpg	100
469.231	0.718	718.1	pointing	Trial1	pointing/STIM_001.jpg	100
473.866	1.143	1142.6	pointing	Trial1	pointing/STIM_001.jpg	99
478.345	1.201	1200.8	pointing	Trial1	pointing/STIM_001.jpg	99
482.568	0.87	870.1	pointing	Trial1	pointing/STIM_001.jpg	100
485.739	1.049	1048.8	pointing	Trial1	pointing/STIM_002.jpg	100
490.594	0.975	975.1	pointing	Trial1	pointing/STIM_002.jpg	99
493.795	0.792	792.5	pointing	Trial1	pointing/STIM_002.jpg	99
497.119	0.827	826.8	pointing	Trial1	pointing/STIM_002.jpg	99
501.651	0.861	860.8	pointing	Trial1	pointing/STIM_002.jpg	99
505.68	1.039	1039.0	pointing	Trial1	pointing/STIM_002.jpg	99
509.37	1.227	1226.8	pointing	Trial1	pointing/STIM_003.jpg	99
514.79	0.938	937.8	pointing	Trial1	pointing/STIM_003.jpg	100
519.215	0.843	842.9	pointing	Trial1	pointing/STIM_003.jpg	99
522.228	0.869	869.0	pointing	Trial1	pointing/STIM_003.jpg	100
527.075	1.218	1217.8	pointing	Trial1	pointing/STIM_003.jpg	100
531.566	1.149	1148.9	pointing	Trial1	pointing/STIM_003.jpg	100
535.358	1.023	1022.8	pointing	Trial1	pointing/STIM_004.jpg	100
538.789	0.711	711.3	pointing	Trial1	pointing/STIM_004.jpg	100
543.267	1.216	1215.6	pointing	Trial1	pointing/STIM_004.jpg	99
548.148	1.238	1238.3	pointing	Trial1	pointing/STIM_004.jpg	99
552.85	0.963	962.9	pointing	Trial1	pointing/STIM_004.jpg	99
555.995	1.051	1050.8	pointing	Trial1	pointing/STIM_004.jpg	100
560.087	1.161	1160.8	pointing	Trial1	pointing/STIM_005.jpg	100
564.289	1.276	1275.9	pointing	Trial1	pointing/STIM_005.jpg	100
568.031	0.692	692.1	pointing	Trial1	pointing/STIM_005.jpg	99
571.839	0.993	992.7	pointing	Trial1	pointing/STIM_005.jpg	100
576.022	0.823	823.3	pointing	Trial1	pointing/STIM_005.jpg	100
580.588	0.772	771.6	pointing	Trial1	pointing/STIM_005.jpg	100
583.809	1.139	1139.3	pointing	Trial1	pointing/STIM_006.jpg	99
589.037	0.823	822.7	pointing	Trial1	pointing/STIM_006.jpg	100
592.149	0.805	805.0	pointing	Trial1	pointing/STIM_006.jpg	100
595.665	0.712	711.5	pointing	Trial1	pointing/STIM_006.jpg	100
599.402	1.073	1073.3	pointing	Trial1	pointing/STIM_006.jpg	100
602.711	0.744	744.3	pointing	Trial1	pointing/STIM_006.jpg	100
606.396	1.046	1045.9	pointing	Trial1	pointing/STIM_007.jpg	99
611.449	0.955	955.2	pointing	Trial1	pointing/STIM_007.jpg	99
615.33	1.072	1072.0	pointing	Trial1	pointing/STIM_007.jpg	100
619.985	0.848	848.1	pointing	Trial1	pointing/STIM_007.jpg	99
624.211	0.988	987.8	pointing	Trial1	pointing/STIM_007.jpg	100
629.318	0.76	760.3	pointing	Trial1	pointing/STIM_007.jpg	99
632.29	0.732	731.7	pointing	Trial1	pointing/STIM_008.jpg	99
636.056	1.196	1195.7	pointing	Trial1	pointing/STIM_008.jpg	99
640.42	0.935	935.1	pointing	Trial1	pointing/STIM_008.jpg	99
643.516	1.16	1160.5	pointing	Trial1	pointing/STIM_008.jpg	99
647.252	1.114	1113.7	pointing	Trial1	pointing/STIM_008.jpg	99
651.314	1.078	1077.6	pointing	Trial1	pointing/STIM_008.jpg	100
655.745	0.761	760.7	pointing	Trial1	pointing/STIM_009.jpg	100
660.503	1.141	1141.2	pointing	Trial1	pointing/STIM_009.jpg	99
665.748	0.896	896.4	pointing	Trial1	pointing/STIM_009.jpg	99
668.84	1.049	1048.8	pointing	Trial1	pointing/STIM_009.jpg	99
672.506	0.815	815.1	pointing	Trial1	pointing/STIM_009.jpg	99
676.36	1.058	1058.2	pointing	Trial1	pointing/STIM_009.jpg	100
680.721	0.724	724.5	pointing	Trial1	pointing/STIM_010.jpg	99
685.188	0.92	919.6	pointing	Trial1	pointing/STIM_010.jpg	100
688.447	0.849	849.4	pointing	Trial1	pointing/STIM_010.jpg	100
692.852	1.028	1027.7	pointing	Trial1	pointing/STIM_010.jpg	100
697.115	0.859	858.9	pointing	Trial1	pointing/STIM_010.jpg	99
700.328	1.12	1120.4	pointing	Trial1	pointing/STIM_010.jpg	99
705.51	1.193	1193.0	pointing	Trial1	pointing/STIM_011.jpg	99
709.907	1.092	1092.0	pointing	Trial1	pointing/STIM_011.jpg	99
714.442	1.193	1193.0	pointing	Trial1	pointing/STIM_011.jpg	99
719.754	1.088	1088.4	pointing	Trial1	pointing/STIM_011.jpg	100
724.824	1.139	1139.4	pointing	Trial1	pointing/STIM_011.jpg	99
729.147	1.077	1076.6	pointing	Trial1	pointing/STIM_011.jpg	100
733.412	2.612	2612.2	navigation	Trial2	navigation/STIM_000.jpg	100
740.457	2.734	2734.2	navigation	Trial2	navigation/STIM_000.jpg	99
747.247	1.521	1520.8	navigation	Trial2	navigation/STIM_000.jpg	99
751.797	2.633	2633.1	navigation	Trial2	navigation/STIM_000.jpg	99
756.989	1.638	1637.8	navigation	Trial2	navigation/STIM_000.jpg	100
762.744	1.866	1865.9	navigation	Trial2	navigation/STIM_000.jpg	100
767.428	1.933	1932.9	navigation	Trial2	navigation/STIM_001.jpg	99
772.14	1.79	1789.7	navigation	Trial2	navigation/STIM_001.jpg	99
777.86	1.83	1830.2	navigation	Trial2	navigation/STIM_001.jpg	99
782.584	1.241	1241.3	navigation	Trial2	navigation/STIM_001.jpg	100
787.631	1.883	1882.6	navigation	Trial2	navigation/STIM_001.jpg	99
792.548	1.715	1714.9	navigation	Trial2	navigation/STIM_001.jpg	99
796.96	3.014	3013.9	navigation	Trial2	navigation/STIM_002.jpg	100
802.496	1.712	1711.9	navigation	Trial2	navigation/STIM_002.jpg	100
806.812	2.934	2934.1	navigation	Trial2	navigation/STIM_002.jpg	99
812.346	1.798	1797.9	navigation	Trial2	navigation/STIM_002.jpg	100
816.902	1.503	1503.1	navigation	Trial2	navigation/STIM_002.jpg	99
822.221	2.25	2250.4	navigation	Trial2	navigation/STIM_002.jpg	100
828.614	2.978	2978.2	navigation	Trial2	navigation/STIM_003.jpg	100
834.961	1.653	1653.4	navigation	Trial2	navigation/STIM_003.jpg	99
840.251	1.491	1491.0	navigation	Trial2	navigation/STIM_003.jpg	100
844.678	2.744	2743.9	navigation	Trial2	navigation/STIM_003.jpg	99
851.665	2.731	2730.8	navigation	Trial2	navigation/STIM_003.jpg	99
857.484	1.721	1721.4	navigation	Trial2	navigation/STIM_003.jpg	100
863.237	2.928	2928.1	navigation	Trial2	navigation/STIM_004.jpg	99
870.384	1.722	1721.7	navigation	Trial2	navigation/STIM_004.jpg	99
874.669	2.827	2827.4	navigation	Trial2	navigation/STIM_004.jpg	100
880.256	2.527	2527.0	navigation	Trial2	navigation/STIM_004.jpg	99
886.77	2.608	2607.5	navigation	Trial2	navigation/STIM_004.jpg	99
893.262	1.53	1530.2	navigation	Trial2	navigation/STIM_004.jpg	99
897.067	1.936	1935.9	navigation	Trial2	navigation/STIM_005.jpg	99
903.19	1.87	1870.5	navigation	Trial2	navigation/STIM_005.jpg	100
909.37	2.523	2523.3	navigation	Trial2	navigation/STIM_005.jpg	99
914.431	1.775	1774.7	navigation	Trial2	navigation/STIM_005.jpg	99
919.04	2.647	2646.6	navigation	Trial2	navigation/STIM_005.jpg	100
925.68	2.6	2600.4	navigation	Trial2	navigation/STIM_005.jpg	100
930.896	2.846	2846.0	navigation	Trial2	navigation/STIM_006.jpg	100
937.269	1.613	1613.0	navigation	Trial2	navigation/STIM_006.jpg	100
942.778	1.454	1453.5	navigation	Trial2	navigation/STIM_006.jpg	99
948.466	1.766	1766.2	navigation	Trial2	navigation/STIM_006.jpg	100
953.686	1.558	1558.4	navigation	Trial2	navigation/STIM_006.jpg	99
959.12	2.775	2774.9	navigation	Trial2	navigation/STIM_006.jpg	100
966.16	2.225	2224.6	navigation	Trial2	navigation/STIM_007.jpg	99
970.923	2.121	2120.7	navigation	Trial2	navigation/STIM_007.jpg	100
976.944	2.927	2927.0	navigation	Trial2	navigation/STIM_007.jpg	100
982.917	2.599	2598.7	navigation	Trial2	navigation/STIM_007.jpg	99
988.96	1.271	1271.1	navigation	Trial2	navigation/STIM_007.jpg	100
993.274	2.848	2847.7	navigation	Trial2	navigation/STIM_007.jpg	99
999.836	3.436	3436.3	navigation	Trial2	navigation/STIM_008.jpg	100
1006.78	2.892	2892.0	navigation	Trial2	navigation/STIM_008.jpg	100
1013.985	2.184	2183.5	navigation	Trial2	navigation/STIM_008.jpg	99
1018.843	1.667	1666.9	navigation	Trial2	navigation/STIM_008.jpg	100
1023.367	2.72	2719.8	navigation	Trial2	navigation/STIM_008.jpg	99
1029.335	1.457	1457.3	navigation	Trial2	navigation/STIM_008.jpg	100
1035.009	2.191	2191.4	navigation	Trial2	navigation/STIM_009.jpg	100
1039.856	2.106	2106.5	navigation	Trial2	navigation/STIM_009.jpg	99
1045.139	2.991	2990.8	navigation	Trial2	navigation/STIM_009.jpg	100
1051.225	1.823	1822.6	navigation	Trial2	navigation/STIM_009.jpg	99
1055.942	1.769	1768.8	navigation	Trial2	navigation/STIM_009.jpg	100
1061.404	1.516	1516.1	navigation	Trial2	navigation/STIM_009.jpg	99
1065.852	2.091	2090.7	navigation	Trial2	navigation/STIM_010.jpg	100
1071.146	1.96	1960.2	navigation	Trial2	navigation/STIM_010.jpg	99
1077.276	1.554	1553.7	navigation	Trial2	navigation/STIM_010.jpg	100
1081.35	2.531	2530.9	navigation	Trial2	navigation/STIM_010.jpg	99
1086.306	2.797	2797.2	navigation	Trial2	navigation/STIM_010.jpg	99
1093.241	1.374	1374.2	navigation	Trial2	navigation/STIM_010.jpg	100
1097.622	1.751	1751.2	navigation	Trial2	navigation/STIM_011.jpg	100
1103.609	1.546	1545.5	navigation	Trial2	navigation/STIM_011.jpg	99
1108.53	1.956	1956.4	navigation	Trial2	navigation/STIM_011.jpg	99
1113.97	2.51	2510.3	navigation	Trial2	navigation/STIM_011.jpg	100
1120.388	2.148	2148.0	navigation	Trial2	navigation/STIM_011.jpg	100
1126.083	2.672	2671.5	navigation	Trial2	navigation/STIM_011.jpg	100
1132.509	0.967	966.8	pointing	Trial2	pointing/STIM_000.jpg	100
1137.043	1.015	1014.6	pointing	Trial2	pointing/STIM_000.jpg	99
1141.532	0.977	976.6	pointing	Trial2	pointing/STIM_000.jpg	100
1145.817	0.886	886.4	pointing	Trial2	pointing/STIM_000.jpg	100
1149.395	1.257	1257.2	pointing	Trial2	pointing/STIM_000.jpg	99
1154.447	1.27	1270.1	pointing	Trial2	pointing/STIM_000.jpg	99
1158.224	0.985	985.0	pointing	Trial2	pointing/STIM_001.jpg	100
1162.601	0.922	922.4	pointing	Trial2	pointing/STIM_001.jpg	99
1166.829	1.103	1103.4	pointing	Trial2	pointing/STIM_001.jpg	99
1170.277	1.073	1072.6	pointing	Trial2	pointing/STIM_001.jpg	99
1173.956	0.863	863.4	pointing	Trial2	pointing/STIM_001.jpg	99
1177.155	0.925	925.3	pointing	Trial2	pointing/STIM_001.jpg	100
1182.115	1.247	1246.6	pointing	Trial2	pointing/STIM_002.jpg	99
1187.423	0.858	858.0	pointing	Trial2	pointing/STIM_002.jpg	99
1192.397	0.852	851.8	pointing	Trial2	pointing/STIM_002.jpg	99
1196.016	0.747	747.3	pointing	Trial2	pointing/STIM_002.jpg	100
1199.951	1.025	1025.4	pointing	Trial2	pointing/STIM_002.jpg	99
1203.368	1.051	1050.7	pointing	Trial2	pointing/STIM_002.jpg	100
1208.121	1.067	1067.1	pointing	Trial2	pointing/STIM_003.jpg	100
1211.994	1.181	1180.6	pointing	Trial2	pointing/STIM_003.jpg	100
1216.874	1.181	1181.1	pointing	Trial2	pointing/STIM_003.jpg	99
1222.077	1.002	1001.9	pointing	Trial2	pointing/STIM_003.jpg	100
1226.847	1.265	1264.7	pointing	Trial2	pointing/STIM_003.jpg	99
1230.522	0.686	686.1	pointing	Trial2	pointing/STIM_003.jpg	99
1234.24	1.021	1020.8	pointing	Trial2	pointing/STIM_004.jpg	99
1239.362	0.957	956.9	pointing	Trial2	pointing/STIM_004.jpg	99
1242.65	1.059	1058.6	pointing	Trial2	pointing/STIM_004.jpg	99
1246.771	1.264	1264.5	pointing	Trial2	pointing/STIM_004.jpg	99
1250.278	0.706	705.7	pointing	Trial2	pointing/STIM_004.jpg	100
1253.727	1.001	1001.1	pointing	Trial2	pointing/STIM_004.jpg	100
1257.201	1.107	1107.4	pointing	Trial2	pointing/STIM_005.jpg	100
1261.547	0.805	804.6	pointing	Trial2	pointing/STIM_005.jpg	99
1265.953	1.028	1027.7	pointing	Trial2	pointing/STIM_005.jpg	99
1269.455	1.276	1276.4	pointing	Trial2	pointing/STIM_005.jpg	100
1273.842	0.934	934.3	pointing	Trial2	pointing/STIM_005.jpg	99
1278.788	1.174	1174.2	pointing	Trial2	pointing/STIM_005.jpg	99
1282.681	0.96	960.2	pointing	Trial2	pointing/STIM_006.jpg	100
1286.774	0.918	917.8	pointing	Trial2	pointing/STIM_006.jpg	100
1289.899	0.957	957.0	pointing	Trial2	pointing/STIM_006.jpg	99
1293.201	0.744	744.4	pointing	Trial2	pointing/STIM_006.jpg	99
1296.721	0.875	875.2	pointing	Trial2	pointing/STIM_006.jpg	100
1300.945	0.857	857.1	pointing	Trial2	pointing/STIM_006.jpg	100
1304.619	1.224	1223.6	pointing	Trial2	pointing/STIM_007.jpg	99
1308.188	1.006	1005.8	pointing	Trial2	pointing/STIM_007.jpg	100
1311.474	0.701	701.2	pointing	Trial2	pointing/STIM_007.jpg	100
1315.322	1.257	1257.4	pointing	Trial2	pointing/STIM_007.jpg	99
1318.803	1.137	1137.0	pointing	Trial2	pointing/STIM_007.jpg	100
1323.706	1.254	1254.1	pointing	Trial2	pointing/STIM_007.jpg	100
1327.692	1.209	1208.6	pointing	Trial2	pointing/STIM_008.jpg	100
1331.718	1.068	1068.5	pointing	Trial2	pointing/STIM_008.jpg	100
1336.109	0.924	924.0	pointing	Trial2	pointing/STIM_008.jpg	100
1340.26	0.812	812.3	pointing	Trial2	pointing/STIM_008.jpg	100
1343.425	0.902	901.8	pointing	Trial2	pointing/STIM_008.jpg	100
1347.326	0.858	857.8	pointing	Trial2	pointing/STIM_008.jpg	100
1351.95	0.966	965.7	pointing	Trial2	pointing/STIM_009.jpg	99
1355.518	1.018	1018.4	pointing	Trial2	pointing/STIM_009.jpg	100
1360.143	1.251	1250.6	pointing	Trial2	pointing/STIM_009.jpg	99
1363.91	1.132	1132.1	pointing	Trial2	pointing/STIM_009.jpg	99
1367.606	1.256	1256.5	pointing	Trial2	pointing/STIM_009.jpg	100
1372.646	1.179	1178.7	pointing	Trial2	pointing/STIM_009.jpg	100
1376.077	0.692	692.2	pointing	Trial2	pointing/STIM_010.jpg	100
1379.697	1.242	1242.1	pointing	Trial2	pointing/STIM_010.jpg	100
1384.472	1.168	1168.5	pointing	Trial2	pointing/STIM_010.jpg	100
1389.172	1.247	1247.2	pointing	Trial2	pointing/STIM_010.jpg	100
1394.095	1.127	1126.6	pointing	Trial2	pointing/STIM_010.jpg	99
1397.735	1.002	1001.8	pointing	Trial2	pointing/STIM_010.jpg	99
1402.234	1.153	1152.8	pointing	Trial2	pointing/STIM_011.jpg	99
1405.722	0.876	875.9	pointing	Trial2	pointing/STIM_011.jpg	100
1410.054	1.232	1232.3	pointing	Trial2	pointing/STIM_011.jpg	99
1415.484	0.71	710.1	pointing	Trial2	pointing/STIM_011.jpg	100
1420.12	0.955	954.6	pointing	Trial2	pointing/STIM_011.jpg	100
1424.604	1.112	1112.4	pointing	Trial2	pointing/STIM_011.jpg	100
1428.365	1.243	1242.9	navigation	Trial3	navigation/STIM_000.jpg	100
1432.317	2.209	2208.9	navigation	Trial3	navigation/STIM_000.jpg	99
1438.751	2.109	2109.2	navigation	Trial3	navigation/STIM_000.jpg	100
1445.09	2.621	2620.7	navigation	Trial3	navigation/STIM_000.jpg	100
1452.053	2.041	2041.1	navigation	Trial3	navigation/STIM_000.jpg	99
1458.227	1.595	1594.7	navigation	Trial3	navigation/STIM_000.jpg	99
1462.554	2.946	2946.0	navigation	Trial3	navigation/STIM_001.jpg	100
1468.921	2.073	2072.6	navigation	Trial3	navigation/STIM_001.jpg	99
1474.401	1.79	1789.9	navigation	Trial3	navigation/STIM_001.jpg	99
1480.473	2.807	2807.1	navigation	Trial3	navigation/STIM_001.jpg	100
1486.596	2.221	2220.6	navigation	Trial3	navigation/STIM_001.jpg	99
1493.076	2.177	2177.2	navigation	Trial3	navigation/STIM_001.jpg	100
1498.915	1.497	1497.3	navigation	Trial3	navigation/STIM_002.jpg	99
1504.316	2.513	2513.4	navigation	Trial3	navigation/STIM_002.jpg	99
1510.566	2.956	2955.6	navigation	Trial3	navigation/STIM_002.jpg	100
1517.923	1.237	1237.2	navigation	Trial3	navigation/STIM_002.jpg	99
1521.432	2.863	2863.1	navigation	Trial3	navigation/STIM_002.jpg	99
1528.112	2.464	2463.8	navigation	Trial3	navigation/STIM_002.jpg	100
1533.963	2.006	2005.6	navigation	Trial3	navigation/STIM_003.jpg	99
1539.355	1.607	1606.6	navigation	Trial3	navigation/STIM_003.jpg	99
1545.198	2.019	2019.0	navigation	Trial3	navigation/STIM_003.jpg	100
1549.821	1.361	1360.7	navigation	Trial3	navigation/STIM_003.jpg	99
1554.771	1.902	1902.2	navigation	Trial3	navigation/STIM_003.jpg	99
1560.889	1.722	1722.1	navigation	Trial3	navigation/STIM_003.jpg	99
1565.676	2.503	2502.7	navigation	Trial3	navigation/STIM_004.jpg	99
1570.608	2.845	2845.4	navigation	Trial3	navigation/STIM_004.jpg	100
1577.012	2.521	2521.4	navigation	Trial3	navigation/STIM_004.jpg	99
1582.896	1.236	1236.2	navigation	Trial3	navigation/STIM_004.jpg	99
1587.958	2.452	2451.7	navigation	Trial3	navigation/STIM_004.jpg	99
1593.341	2.058	2058.3	navigation	Trial3	navigation/STIM_004.jpg	99
1598.584	2.726	2725.5	navigation	Trial3	navigation/STIM_005.jpg	100
1604.215	1.635	1635.2	navigation	Trial3	navigation/STIM_005.jpg	100
1608.531	1.21	1210.4	navigation	Trial3	navigation/STIM_005.jpg	99
1613.36	2.689	2688.6	navigation	Trial3	navigation/STIM_005.jpg	100
1620.4	2.491	2491.2	navigation	Trial3	navigation/STIM_005.jpg	99
1626.533	1.211	1210.9	navigation	Trial3	navigation/STIM_005.jpg	99
1630.254	1.764	1764.2	navigation	Trial3	navigation/STIM_006.jpg	99
1635.666	2.888	2887.8	navigation	Trial3	navigation/STIM_006.jpg	100
1642.259	1.944	1944.1	navigation	Trial3	navigation/STIM_006.jpg	100
1647.014	1.241	1241.1	navigation	Trial3	navigation/STIM_006.jpg	100
1651.474	2.431	2431.3	navigation	Trial3	navigation/STIM_006.jpg	99
1656.849	2.051	2051.3	navigation	Trial3	navigation/STIM_006.jpg	100
1662.989	2.244	2243.9	navigation	Trial3	navigation/STIM_007.jpg	99
1668.507	1.535	1534.8	navigation	Trial3	navigation/STIM_007.jpg	99
1673.151	2.643	2642.9	navigation	Trial3	navigation/STIM_007.jpg	99
1678.401	2.763	2762.9	navigation	Trial3	navigation/STIM_007.jpg	100
1685.278	2.1	2100.2	navigation	Trial3	navigation/STIM_007.jpg	99
1690.586	2.56	2560.5	navigation	Trial3	navigation/STIM_007.jpg	99
1695.777	1.693	1692.8	navigation	Trial3	navigation/STIM_008.jpg	99
1701.122	1.523	1523.3	navigation	Trial3	navigation/STIM_008.jpg	100
1705.207	2.996	2996.3	navigation	Trial3	navigation/STIM_008.jpg	99
1710.917	1.948	1948.2	navigation	Trial3	navigation/STIM_008.jpg	100
1716.416	1.37	1369.6	navigation	Trial3	navigation/STIM_008.jpg	99
1721.737	1.378	1377.6	navigation	Trial3	navigation/STIM_008.jpg	100
1726.266	2.56	2560.4	navigation	Trial3	navigation/STIM_009.jpg	99
1732.681	1.342	1342.3	navigation	Trial3	navigation/STIM_009.jpg	100
1736.588	2.342	2341.8	navigation	Trial3	navigation/STIM_009.jpg	99
1742.0	2.344	2344.5	navigation	Trial3	navigation/STIM_009.jpg	100
1746.834	2.408	2407.8	navigation	Trial3	navigation/STIM_009.jpg	99
1753.518	1.743	1742.6	navigation	Trial3	navigation/STIM_009.jpg	100
1759.311	2.384	2384.4	navigation	Trial3	navigation/STIM_010.jpg	100
1764.427	2.02	2020.1	navigation	Trial3	navigation/STIM_010.jpg	99
1769.048	1.636	1636.0	navigation	Trial3	navigation/STIM_010.jpg	100
1774.078	2.361	2360.7	navigation	Trial3	navigation/STIM_010.jpg	100
1780.303	1.252	1251.8	navigation	Trial3	navigation/STIM_010.jpg	99
1784.408	1.727	1726.9	navigation	Trial3	navigation/STIM_010.jpg	99
1790.39	2.361	2360.9	navigation	Trial3	navigation/STIM_011.jpg	99
1795.521	1.653	1652.8	navigation	Trial3	navigation/STIM_011.jpg	100
1800.949	2.319	2319.0	navigation	Trial3	navigation/STIM_011.jpg	100
1807.464	1.368	1367.8	navigation	Trial3	navigation/STIM_011.jpg	100
1811.827	2.754	2754.3	navigation	Trial3	navigation/STIM_011.jpg	99
1818.245	2.903	2902.7	navigation	Trial3	navigation/STIM_011.jpg	100
1824.965	1.237	1236.7	pointing	Trial3	pointing/STIM_000.jpg	99
1829.428	1.197	1196.8	pointing	Trial3	pointing/STIM_000.jpg	99
1833.744	1.119	1119.4	pointing	Trial3	pointing/STIM_000.jpg	99
1838.66	1.12	1120.4	pointing	Trial3	pointing/STIM_000.jpg	99
1842.532	1.151	1150.9	pointing	Trial3	pointing/STIM_000.jpg	100
1847.095	1.015	1015.2	pointing	Trial3	pointing/STIM_000.jpg	100
1851.885	0.841	841.3	pointing	Trial3	pointing/STIM_001.jpg	100
1855.965	0.836	835.7	pointing	Trial3	pointing/STIM_001.jpg	99
1860.42	0.965	964.9	pointing	Trial3	pointing/STIM_001.jpg	100
1864.373	0.685	685.1	pointing	Trial3	pointing/STIM_001.jpg	100
1867.287	1.188	1188.0	pointing	Trial3	pointing/STIM_001.jpg	99
1871.962	1.205	1205.4	pointing	Trial3	pointing/STIM_001.jpg	99
1876.98	0.759	758.9	pointing	Trial3	pointing/STIM_002.jpg	99
1879.896	0.934	933.7	pointing	Trial3	pointing/STIM_002.jpg	100
1884.135	0.751	751.0	pointing	Trial3	pointing/STIM_002.jpg	100
1887.649	0.812	812.1	pointing	Trial3	pointing/STIM_002.jpg	100
1891.414	0.928	928.5	pointing	Trial3	pointing/STIM_002.jpg	100
1894.759	0.938	938.0	pointing	Trial3	pointing/STIM_002.jpg	100
1898.931	1.195	1195.1	pointing	Trial3	pointing/STIM_003.jpg	100
1904.176	1.149	1148.6	pointing	Trial3	pointing/STIM_003.jpg	99
1908.61	1.211	1210.6	pointing	Trial3	pointing/STIM_003.jpg	99
1913.687	0.863	862.8	pointing	Trial3	pointing/STIM_003.jpg	99
1917.973	1.127	1126.9	pointing	Trial3	pointing/STIM_003.jpg	99
1921.658	0.755	755.0	pointing	Trial3	pointing/STIM_003.jpg	100
1925.011	0.838	838.4	pointing	Trial3	pointing/STIM_004.jpg	100
1928.899	0.967	967.0	pointing	Trial3	pointing/STIM_004.jpg	100
1932.282	0.931	930.8	pointing	Trial3	pointing/STIM_004.jpg	99
1935.436	1.235	1234.8	pointing	Trial3	pointing/STIM_004.jpg	100
1939.165	0.734	734.5	pointing	Trial3	pointing/STIM_004.jpg	99
1942.647	0.853	853.0	pointing	Trial3	pointing/STIM_004.jpg	100
1947.523	0.764	764.3	pointing	Trial3	pointing/STIM_005.jpg	99
1950.787	0.871	870.6	pointing	Trial3	pointing/STIM_005.jpg	100
1955.077	1.262	1262.2	pointing	Trial3	pointing/STIM_005.jpg	100
1959.25	0.992	991.5	pointing	Trial3	pointing/STIM_005.jpg	100
1964.358	0.999	998.9	pointing	Trial3	pointing/STIM_005.jpg	99
1967.562	0.848	847.7	pointing	Trial3	pointing/STIM_005.jpg	100
1971.337	0.692	692.2	pointing	Trial3	pointing/STIM_006.jpg	99
1976.014	1.108	1108.4	pointing	Trial3	pointing/STIM_006.jpg	100
1981.09	1.077	1076.7	pointing	Trial3	pointing/STIM_006.jpg	100
1985.868	0.971	971.4	pointing	Trial3	pointing/STIM_006.jpg	99
1990.997	1.168	1167.8	pointing	Trial3	pointing/STIM_006.jpg	100
1995.501	0.98	979.6	pointing	Trial3	pointing/STIM_006.jpg	100
1999.247	0.782	782.5	pointing	Trial3	pointing/STIM_007.jpg	99
2003.478	0.907	906.9	pointing	Trial3	pointing/STIM_007.jpg	100
2007.845	1.038	1038.5	pointing	Trial3	pointing/STIM_007.jpg	100
2012.494	0.696	696.5	pointing	Trial3	pointing/STIM_007.jpg	99
2015.461	0.996	996.4	pointing	Trial3	pointing/STIM_007.jpg	100
2019.311	0.854	853.5	pointing	Trial3	pointing/STIM_007.jpg	100
2022.613	1.271	1270.9	pointing	Trial3	pointing/STIM_008.jpg	100
2026.689	1.139	1139.3	pointing	Trial3	pointing/STIM_008.jpg	99
2031.991	0.872	871.7	pointing	Trial3	pointing/STIM_008.jpg	99
2035.86	1.262	1262.0	pointing	Trial3	pointing/STIM_008.jpg	100
2040.975	1.252	1251.7	pointing	Trial3	pointing/STIM_008.jpg	99
2045.877	1.148	1148.3	pointing	Trial3	pointing/STIM_008.jpg	100
2050.878	1.037	1037.0	pointing	Trial3	pointing/STIM_009.jpg	100
2055.416	1.13	1130.1	pointing	Trial3	pointing/STIM_009.jpg	99
2058.932	0.914	913.5	pointing	Trial3	pointing/STIM_009.jpg	100
2063.248	1.219	1218.6	pointing	Trial3	pointing/STIM_009.jpg	99
2067.913	0.785	785.1	pointing	Trial3	pointing/STIM_009.jpg	99
2071.992	0.911	911.3	pointing	Trial3	pointing/STIM_009.jpg	100
2075.155	1.279	1279.4	pointing	Trial3	pointing/STIM_010.jpg	99
2079.88	0.839	838.8	pointing	Trial3	pointing/STIM_010.jpg	100
2084.432	0.814	814.1	pointing	Trial3	pointing/STIM_010.jpg	99
2087.84	1.186	1186.4	pointing	Trial3	pointing/STIM_010.jpg	99
2092.175	1.035	1034.6	pointing	Trial3	pointing/STIM_010.jpg	100
2095.699	1.172	1171.6	pointing	Trial3	pointing/STIM_010.jpg	100
2100.814	0.816	816.5	pointing	Trial3	pointing/STIM_011.jpg	100
2104.745	0.698	697.8	pointing	Trial3	pointing/STIM_011.jpg	100
2109.009	1.018	1017.8	pointing	Trial3	pointing/STIM_011.jpg	100
2113.323	1.194	1194.3	pointing	Trial3	pointing/STIM_011.jpg	100
2118.331	0.748	748.5	pointing	Trial3	pointing/STIM_011.jpg	100
2121.388	1.107	1106.8	pointing	Trial3	pointing/STIM_011.jpg	100
