onset	duration	response_time_ms	trial_type	learning_stage	stimulus	response_port
0.0	2.138	2137.9	navigation	Trial1	navigation/STIM_000.jpg	99
6.049	3.909	3908.9	navigation	Trial1	navigation/STIM_000.jpg	99
13.772	2.924	2923.8	navigation	Trial1	navigation/STIM_000.jpg	99
19.314	1.635	1635.3	navigation	Trial1	navigation/STIM_000.jpg	100
23.016	1.876	1875.7	navigation	Trial1	navigation/STIM_000.jpg	99
28.017	1.665	1665.4	navigation	Trial1	navigation/STIM_000.jpg	99
32.099	2.711	2710.9	navigation	Trial1	navigation/STIM_001.jpg	100
37.94	4.086	4085.9	navigation	Trial1	navigation/STIM_001.jpg	100
45.007	1.706	1706.4	navigation	Trial1	navigation/STIM_001.jpg	99
50.405	2.813	2813.3	navigation	Trial1	navigation/STIM_001.jpg	100
55.65	1.635	1634.7	navigation	Trial1	navigation/STIM_001.jpg	100
60.172	3.36	3359.6	navigation	Trial1	navigation/STIM_001.jpg	100
66.337	3.706	3706.0	navigation	Trial1	navigation/STIM_002.jpg	99
72.788	3.87	3870.2	navigation	Trial1	navigation/STIM_002.jpg	99
79.115	2.047	2047.0	navigation	Trial1	navigation/STIM_002.jpg	99
83.542	2.592	2592.1	navigation	Trial1	navigation/STIM_002.jpg	99
90.043	1.944	1944.0	navigation	Trial1	navigation/STIM_002.jpg	99
94.246	2.266	2265.5	navigation	Trial1	navigation/STIM_002.jpg	99
98.824	2.412	2411.6	navigation	Trial1	navigation/STIM_003.jpg	100
104.142	3.621	3621.2	navigation	Trial1	navigation/STIM_003.jpg	100
110.085	2.745	2745.4	navigation	Trial1	navigation/STIM_003.jpg	99
115.094	1.771	1771.0	navigation	Trial1	navigation/STIM_003.jpg	100
119.497	2.358	2357.5	navigation	Trial1	navigation/STIM_003.jpg	100
124.403	2.942	2942.2	navigation	Trial1	navigation/STIM_003.jpg	99
130.892	3.114	3113.6	navigation	Trial1	navigation/STIM_004.jpg	99
137.755	2.71	2709.8	navigation	Trial1	navigation/STIM_004.jpg	100
144.216	3.628	3628.2	navigation	Trial1	navigation/STIM_004.jpg	100
150.281	2.68	2680.1	navigation	Trial1	navigation/STIM_004.jpg	100
156.527	2.606	2606.1	navigation	Trial1	navigation/STIM_004.jpg	99
162.449	3.224	3223.7	navigation	Trial1	navigation/STIM_004.jpg	99
167.94	4.106	4106.3	navigation	Trial1	navigation/STIM_005.jpg	99
175.513	3.945	3945.3	navigation	Trial1	navigation/STIM_005.jpg	99
183.04	1.872	1872.4	navigation	Trial1	navigation/STIM_005.jpg	100
187.695	3.326	3325.8	navigation	Trial1	navigation/STIM_005.jpg	99
194.34	3.605	3604.6	navigation	Trial1	navigation/STIM_005.jpg	99
200.9	1.935	1934.6	navigation	Trial1	navigation/STIM_005.jpg	99
205.658	3.351	3350.9	navigation	Trial1	navigation/STIM_006.jpg	100
212.514	2.448	2447.7	navigation	Trial1	navigation/STIM_006.jpg	100
217.651	2.627	2627.2	navigation	Trial1	navigation/STIM_006.jpg	100
223.148	2.942	2942.4	navigation	Trial1	navigation/STIM_006.jpg	100
229.976	2.583	2583.1	navigation	Trial1	navigation/STIM_006.jpg	100
235.41	1.81	1809.5	navigation	Trial1	navigation/STIM_006.jpg	99
240.039	3.933	3932.9	navigation	Trial1	navigation/STIM_007.jpg	99
247.588	2.27	2270.0	navigation	Trial1	navigation/STIM_007.jpg	99
253.166	1.941	1940.8	navigation	Trial1	navigation/STIM_007.jpg	100
257.857	2.111	2111.2	navigation	Trial1	navigation/STIM_007.jpg	99
263.293	1.839	1839.4	navigation	Trial1	navigation/STIM_007.jpg	99
267.776	2.462	2461.7	navigation	Trial1	navigation/STIM_007.jpg	99
273.661	2.589	2589.4	navigation	Trial1	navigation/STIM_008.jpg	100
279.509	3.939	3939.1	navigation	Trial1	navigation/STIM_008.jpg	100
286.339	2.966	2965.8	navigation	Trial1	navigation/STIM_008.jpg	100
293.013	2.201	2201.0	navigation	Trial1	navigation/STIM_008.jpg	99
297.992	3.48	3479.6	navigation	Trial1	navigation/STIM_008.jpg	100
304.748	1.948	1947.9	navigation	Trial1	navigation/STIM_008.jpg	99
310.206	2.801	2800.6	navigation	Trial1	navigation/STIM_009.jpg	99
315.719	3.518	3517.8	navigation	Trial1	navigation/STIM_009.jpg	99
322.561	3.893	3892.9	navigation	Trial1	navigation/STIM_009.jpg	99
328.911	2.108	2108.2	navigation	Trial1	navigation/STIM_009.jpg	100
334.647	2.494	2493.9	navigation	Trial1	navigation/STIM_009.jpg	99
340.089	3.247	3247.2	navigation	Trial1	navigation/STIM_009.jpg	100
345.953	3.3	3299.9	navigation	Trial1	navigation/STIM_010.jpg	100
351.616	2.455	2455.3	navigation	Trial1	navigation/STIM_010.jpg	100
356.962	2.892	2891.9	navigation	Trial1	navigation/STIM_010.jpg	100
363.441	1.72	1719.9	navigation	Trial1	navigation/STIM_010.jpg	100
368.056	3.726	3726.5	navigation	Trial1	navigation/STIM_010.jpg	100
374.075	3.509	3508.6	navigation	Trial1	navigation/STIM_010.jpg	100
380.069	3.716	3715.6	navigation	Trial1	navigation/STIM_011.jpg	99
387.753	3.797	3797.3	navigation	Trial1	navigation/STIM_011.jpg	99
395.17	2.13	2129.7	navigation	Trial1	navigation/STIM_011.jpg	100
399.713	2.914	2914.1	navigation	Trial1	navigation/STIM_011.jpg	99
406.296	2.448	2447.7	navigation	Trial1	navigation/STIM_011.jpg	99
412.124	2.979	2978.8	navigation	Trial1	navigation/STIM_011.jpg	99
417.847	1.092	1091.9	pointing	Trial1	pointing/STIM_000.jpg	100
422.49	1.218	1218.5	pointing	Trial1	pointing/STIM_000.jpg	99
426.704	1.114	1114.0	pointing	Trial1	pointing/STIM_000.jpg	100
430.71	1.254	1253.5	pointing	Trial1	pointing/STIM_000.jpg	99
434.63	0.812	811.8	pointing	Trial1	pointing/STIM_000.jpg	100
438.121	1.226	1226.2	pointing	Trial1	pointing/STIM_000.jpg	99
442.678	1.064	1064.1	pointing	Trial1	pointing/STIM_001.jpg	99
447.222	1.131	1130.6	pointing	Trial1	pointing/STIM_001.jpg	100
450.907	0.942	941.8	pointing	Trial1	pointing/STIM_001.jpg	100
454.278	0.825	825.0	pointing	Trial1	pointing/STIM_001.jpg	99
458.785	0.883	882.8	pointing	Trial1	pointing/STIM_001.jpg	99
462.587	1.203	1202.9	pointing	Trial1	pointing/STIM_001.jpg	100
466.189	1.331	1331.3	pointing	Trial1	pointing/STIM_002.jpg	100
470.271	1.319	1318.6	pointing	Trial1	pointing/STIM_002.jpg	99
474.406	1.17	1170.2	pointing	Trial1	pointing/STIM_002.jpg	99
477.688	1.336	1335.9	pointing	Trial1	pointing/STIM_002.jpg	99
482.743	1.108	1108.4	pointing	Trial1	pointing/STIM_002.jpg	99
486.913	0.81	809.9	pointing	Trial1	pointing/STIM_002.jpg	99
490.872	0.774	774.5	pointing	Trial1	pointing/STIM_003.jpg	99
494.664	0.946	946.5	pointing	Trial1	pointing/STIM_003.jpg	100
499.205	1.24	1240.3	pointing	Trial1	pointing/STIM_003.jpg	99
503.148	1.098	1098.3	pointing	Trial1	pointing/STIM_003.jpg	100
507.229	1.261	1260.6	pointing	Trial1	pointing/STIM_003.jpg	100
511.142	1.009	1009.3	pointing	Trial1	pointing/STIM_003.jpg	100
514.894	0.807	807.0	pointing	Trial1	pointing/STIM_004.jpg	100
517.863	1.082	1082.4	pointing	Trial1	pointing/STIM_004.jpg	100
520.975	1.144	1143.6	pointing	Trial1	pointing/STIM_004.jpg	99
524.977	0.905	905.2	pointing	Trial1	pointing/STIM_004.jpg	99
529.182	0.948	947.8	pointing	Trial1	pointing/STIM_004.jpg	99
532.885	0.964	963.5	pointing	Trial1	pointing/STIM_004.jpg	100
535.919	1.309	1309.0	pointing	Trial1	pointing/STIM_005.jpg	100
540.939	0.839	839.2	pointing	Trial1	pointing/STIM_005.jpg	100
545.143	1.282	1282.4	pointing	Trial1	pointing/STIM_005.jpg	99
549.645	0.932	931.6	pointing	Trial1	pointing/STIM_005.jpg	100
552.679	0.92	919.5	pointing	Trial1	pointing/STIM_005.jpg	100
556.21	1.12	1120.2	pointing	Trial1	pointing/STIM_005.jpg	100
559.369	1.17	1170.0	pointing	Trial1	pointing/STIM_006.jpg	99
563.027	1.254	1254.3	pointing	Trial1	pointing/STIM_006.jpg	100
567.77	1.118	1118.2	pointing	Trial1	pointing/STIM_006.jpg	100
572.141	0.806	805.8	pointing	Trial1	pointing/STIM_006.jpg	100
576.117	1.049	1048.6	pointing	Trial1	pointing/STIM_006.jpg	100
579.435	1.373	1373.1	pointing	Trial1	pointing/STIM_006.jpg	100
584.502	1.273	1272.7	pointing	Trial1	pointing/STIM_007.jpg	99
589.506	0.985	984.8	pointing	Trial1	pointing/STIM_007.jpg	99
592.568	1.04	1040.3	pointing	Trial1	pointing/STIM_007.jpg	100
596.849	1.249	1249.0	pointing	Trial1	pointing/STIM_007.jpg	99
600.795	1.352	1352.2	pointing	Trial1	pointing/STIM_007.jpg	100
604.226	0.92	919.7	pointing	Trial1	pointing/STIM_007.jpg	99
607.867	0.924	924.3	pointing	Trial1	pointing/STIM_008.jpg	99
612.126	0.769	769.1	pointing	Trial1	pointing/STIM_008.jpg	99
615.843	0.861	860.6	pointing	Trial1	pointing/STIM_008.jpg	99
619.689	0.983	983.3	pointing	Trial1	pointing/STIM_008.jpg	99
622.769	1.296	1295.5	pointing	Trial1	pointing/STIM_008.jpg	99
627.356	0.882	881.6	pointing	Trial1	pointing/STIM_008.jpg	100
630.958	1.403	1403.1	pointing	Trial1	pointing/STIM_009.jpg	100
636.352	0.957	957.1	pointing	Trial1	pointing/STIM_009.jpg	99
639.482	0.876	876.4	pointing	Trial1	pointing/STIM_009.jpg	99
643.502	1.124	1124.3	pointing	Trial1	pointing/STIM_009.jpg	99
647.903	1.223	1223.2	pointing	Trial1	pointing/STIM_009.jpg	99
652.724	1.087	1086.9	pointing	Trial1	pointing/STIM_009.jpg	100
657.16	1.192	1192.4	pointing	Trial1	pointing/STIM_010.jpg	99
661.194	0.968	967.6	pointing	Trial1	pointing/STIM_010.jpg	100
665.828	0.995	994.6	pointing	Trial1	pointing/STIM_010.jpg	100
670.805	1.05	1049.8	pointing	Trial1	pointing/STIM_010.jpg	100
674.917	1.031	1031.0	pointing	Trial1	pointing/STIM_010.jpg	99
679.736	1.119	1118.7	pointing	Trial1	pointing/STIM_010.jpg	99
684.232	1.107	1106.8	pointing	Trial1	pointing/STIM_011.jpg	99
688.82	0.992	992.2	pointing	Trial1	pointing/STIM_011.jpg	99
693.298	0.964	963.8	pointing	Trial1	pointing/STIM_011.jpg	99
697.883	1.203	1203.3	pointing	Trial1	pointing/STIM_011.jpg	100
702.705	1.202	1201.6	pointing	Trial1	pointing/STIM_011.jpg	99
706.721	1.214	1214.0	pointing	Trial1	pointing/STIM_011.jpg	100
711.099	3.152	3152.1	navigation	Trial2	navigation/STIM_000.jpg	100
717.544	2.234	2233.8	navigation	Trial2	navigation/STIM_000.jpg	99
722.514	1.808	1807.9	navigation	Trial2	navigation/STIM_000.jpg	99
728.023	2.721	2721.3	navigation	Trial2	navigation/STIM_000.jpg	99
732.889	3.264	3264.4	navigation	Trial2	navigation/STIM_000.jpg	100
738.338	2.048	2047.7	navigation	Trial2	navigation/STIM_000.jpg	100
742.547	2.42	2420.1	navigation	Trial2	navigation/STIM_001.jpg	99
747.984	2.149	2149.0	navigation	Trial2	navigation/STIM_001.jpg	99
753.382	3.028	3027.9	navigation	Trial2	navigation/STIM_001.jpg	99
759.844	1.33	1329.9	navigation	Trial2	navigation/STIM_001.jpg	100
763.212	2.768	2767.9	navigation	Trial2	navigation/STIM_001.jpg	99
769.42	3.102	3102.3	navigation	Trial2	navigation/STIM_001.jpg	99
774.815	3.481	3480.7	navigation	Trial2	navigation/STIM_002.jpg	100
781.634	2.283	2282.9	navigation	Trial2	navigation/STIM_002.jpg	100
786.296	1.47	1470.4	navigation	Trial2	navigation/STIM_002.jpg	99
790.959	3.225	3224.7	navigation	Trial2	navigation/STIM_002.jpg	100
796.844	1.559	1558.8	navigation	Trial2	navigation/STIM_002.jpg	99
801.712	2.937	2937.1	navigation	Trial2	navigation/STIM_002.jpg	100
807.752	2.312	2312.1	navigation	Trial2	navigation/STIM_003.jpg	100
813.023	2.286	2286.1	navigation	Trial2	navigation/STIM_003.jpg	99
817.662	1.44	1440.1	navigation	Trial2	navigation/STIM_003.jpg	100
821.475	3.107	3106.8	navigation	Trial2	navigation/STIM_003.jpg	99
828.149	2.232	2232.5	navigation	Trial2	navigation/STIM_003.jpg	99
832.717	3.017	3017.2	navigation	Trial2	navigation/STIM_003.jpg	100
838.306	1.865	1865.2	navigation	Trial2	navigation/STIM_004.jpg	99
843.292	2.421	2420.7	navigation	Trial2	navigation/STIM_004.jpg	99
848.757	2.14	2140.1	navigation	Trial2	navigation/STIM_004.jpg	100
854.45	2.269	2269.3	navigation	Trial2	navigation/STIM_004.jpg	99
859.353	3.127	3127.0	navigation	Trial2	navigation/STIM_004.jpg	99
865.341	2.882	2881.6	navigation	Trial2	navigation/STIM_004.jpg	99
870.266	2.704	2704.0	navigation	Trial2	navigation/STIM_005.jpg	99
876.933	3.474	3473.7	navigation	Trial2	navigation/STIM_005.jpg	100
882.81	2.749	2748.6	navigation	Trial2	navigation/STIM_005.jpg	99
888.478	3.166	3166.3	navigation	Trial2	navigation/STIM_005.jpg	99
895.198	1.781	1781.0	navigation	Trial2	navigation/STIM_005.jpg	100
899.496	3.206	3206.1	navigation	Trial2	navigation/STIM_005.jpg	100
905.444	3.749	3749.3	navigation	Trial2	navigation/STIM_006.jpg	100
912.761	1.87	1870.1	navigation	Trial2	navigation/STIM_006.jpg	100
916.655	2.178	2178.2	navigation	Trial2	navigation/STIM_006.jpg	99
921.772	2.007	2007.4	navigation	Trial2	navigation/STIM_006.jpg	100
926.062	2.76	2759.8	navigation	Trial2	navigation/STIM_006.jpg	99
931.357	1.86	1859.8	navigation	Trial2	navigation/STIM_006.jpg	100
936.991	1.661	1661.2	navigation	Trial2	navigation/STIM_007.jpg	99
940.813	3.316	3316.3	navigation	Trial2	navigation/STIM_007.jpg	100
947.099	1.67	1669.7	navigation	Trial2	navigation/STIM_007.jpg	100
951.909	2.529	2529.0	navigation	Trial2	navigation/STIM_007.jpg	99
958.014	2.072	2071.5	navigation	Trial2	navigation/STIM_007.jpg	100
964.029	1.773	1773.3	navigation	Trial2	navigation/STIM_007.jpg	99
968.189	3.505	3505.4	navigation	Trial2	navigation/STIM_008.jpg	100
974.914	2.231	2231.3	navigation	Trial2	navigation/STIM_008.jpg	100
979.667	3.294	3293.9	navigation	Trial2	navigation/STIM_008.jpg	99
986.46	2.582	2582.3	navigation	Trial2	navigation/STIM_008.jpg	100
992.284	2.101	2100.8	navigation	Trial2	navigation/STIM_008.jpg	99
998.158	2.186	2186.2	navigation	Trial2	navigation/STIM_008.jpg	100
1003.506	3.416	3415.7	navigation	Trial2	navigation/STIM_009.jpg	100
1009.84	2.365	2365.3	navigation	Trial2	navigation/STIM_009.jpg	99
1014.527	2.496	2496.2	navigation	Trial2	navigation/STIM_009.jpg	100
1019.279	2.278	2277.6	navigation	Trial2	navigation/STIM_009.jpg	99
1024.237	2.101	2101.3	navigation	Trial2	navigation/STIM_009.jpg	100
1028.796	3.108	3107.9	navigation	Trial2	navigation/STIM_009.jpg	99
1034.929	1.815	1815.3	navigation	Trial2	navigation/STIM_010.jpg	100
1040.152	3.16	3160.4	navigation	Trial2	navigation/STIM_010.jpg	99
1045.869	1.747	1746.9	navigation	Trial2	navigation/STIM_010.jpg	100
1049.757	2.619	2619.0	navigation	Trial2	navigation/STIM_010.jpg	99
1055.957	3.066	3066.4	navigation	Trial2	navigation/STIM_010.jpg	99
1062.987	2.412	2411.6	navigation	Trial2	navigation/STIM_010.jpg	100
1067.547	3.142	3141.9	navigation	Trial2	navigation/STIM_011.jpg	100
1073.299	2.768	2768.5	navigation	Trial2	navigation/STIM_011.jpg	99
1080.049	2.684	2684.0	navigation	Trial2	navigation/STIM_011.jpg	99
1085.983	2.537	2537.2	navigation	Trial2	navigation/STIM_011.jpg	100
1090.53	2.218	2218.0	navigation	Trial2	navigation/STIM_011.jpg	100
1095.229	1.346	1345.5	navigation	Trial2	navigation/STIM_011.jpg	100
1099.312	0.972	972.1	pointing	Trial2	pointing/STIM_000.jpg	100
1102.48	1.116	1116.3	pointing	Trial2	pointing/STIM_000.jpg	99
1106.535	1.394	1393.5	pointing	Trial2	pointing/STIM_000.jpg	100
1111.76	1.383	1383.2	pointing	Trial2	pointing/STIM_000.jpg	100
1116.923	1.281	1280.9	pointing	Trial2	pointing/STIM_000.jpg	99
1121.831	0.816	816.0	pointing	Trial2	pointing/STIM_000.jpg	99
1126.468	0.948	948.4	pointing	Trial2	pointing/STIM_001.jpg	100
1131.407	1.23	1230.0	pointing	Trial2	pointing/STIM_001.jpg	99
1134.641	1.216	1216.2	pointing	Trial2	pointing/STIM_001.jpg	99
1138.204	0.844	844.2	pointing	Trial2	pointing/STIM_001.jpg	99
1142.88	0.946	945.9	pointing	Trial2	pointing/STIM_001.jpg	99
1146.473	0.78	780.0	pointing	Trial2	pointing/STIM_001.jpg	100
1150.663	0.996	995.7	pointing	Trial2	pointing/STIM_002.jpg	99
1154.868	0.836	836.0	pointing	Trial2	pointing/STIM_002.jpg	99
1159.655	0.988	987.6	pointing	Trial2	pointing/STIM_002.jpg	99
1162.776	0.928	928.3	pointing	Trial2	pointing/STIM_002.jpg	100
1166.623	1.04	1039.9	pointing	Trial2	pointing/STIM_002.jpg	99
1170.236	0.776	775.8	pointing	Trial2	pointing/STIM_002.jpg	100
1173.586	0.869	869.4	pointing	Trial2	pointing/STIM_003.jpg	100
1177.474	1.298	1298.3	pointing	Trial2	pointing/STIM_003.jpg	100
1182.235	1.392	1392.5	pointing	Trial2	pointing/STIM_003.jpg	99
1186.004	0.821	821.0	pointing	Trial2	pointing/STIM_003.jpg	100
1188.976	1.28	1279.8	pointing	Trial2	pointing/STIM_003.jpg	99
1192.295	0.864	863.7	pointing	Trial2	pointing/STIM_003.jpg	99
1196.828	1.074	1073.9	pointing	Trial2	pointing/STIM_004.jpg	99
1200.411	1.022	1022.4	pointing	Trial2	pointing/STIM_004.jpg	99
1204.458	1.058	1058.4	pointing	Trial2	pointing/STIM_004.jpg	99
1208.571	0.78	780.2	pointing	Trial2	pointing/STIM_004.jpg	99
1212.785	0.786	786.4	pointing	Trial2	pointing/STIM_004.jpg	100
1217.168	0.838	837.6	pointing	Trial2	pointing/STIM_004.jpg	100
1220.62	1.131	1130.9	pointing	Trial2	pointing/STIM_005.jpg	100
1225.579	0.982	981.5	pointing	Trial2	pointing/STIM_005.jpg	99
1229.888	1.225	1225.3	pointing	Trial2	pointing/STIM_005.jpg	99
1234.54	0.966	966.5	pointing	Trial2	pointing/STIM_005.jpg	100
1238.398	1.174	1173.8	pointing	Trial2	pointing/STIM_005.jpg	99
1242.468	0.764	763.6	pointing	Trial2	pointing/STIM_005.jpg	99
1247.226	1.229	1228.6	pointing	Trial2	pointing/STIM_006.jpg	100
1250.843	1.119	1119.1	pointing	Trial2	pointing/STIM_006.jpg	100
1254.837	0.981	981.2	pointing	Trial2	pointing/STIM_006.jpg	99
1259.596	0.868	868.0	pointing	Trial2	pointing/STIM_006.jpg	99
1262.807	1.069	1068.6	pointing	Trial2	pointing/STIM_006.jpg	100
1266.743	0.826	826.2	pointing	Trial2	pointing/STIM_006.jpg	100
1270.265	1.151	1151.1	pointing	Trial2	pointing/STIM_007.jpg	99
1273.75	0.79	789.8	pointing	Trial2	pointing/STIM_007.jpg	100
1278.447	1.184	1184.1	pointing	Trial2	pointing/STIM_007.jpg	100
1282.409	0.921	921.3	pointing	Trial2	pointing/STIM_007.jpg	99
1286.352	1.191	1190.6	pointing	Trial2	pointing/STIM_007.jpg	100
1289.971	1.391	1391.0	pointing	Trial2	pointing/STIM_007.jpg	100
1294.405	1.088	1087.5	pointing	Trial2	pointing/STIM_008.jpg	100
1299.464	0.961	960.9	pointing	Trial2	pointing/STIM_008.jpg	100
1302.723	0.921	921.2	pointing	Trial2	pointing/STIM_008.jpg	100
1307.039	1.196	1196.2	pointing	Trial2	pointing/STIM_008.jpg	100
1311.367	0.94	940.2	pointing	Trial2	pointing/STIM_008.jpg	100
1314.737	1.153	1153.1	pointing	Trial2	pointing/STIM_008.jpg	100
1319.394	1.214	1214.3	pointing	Trial2	pointing/STIM_009.jpg	99
1323.487	0.86	860.2	pointing	Trial2	pointing/STIM_009.jpg	100
1328.241	0.872	872.5	pointing	Trial2	pointing/STIM_009.jpg	99
1332.519	0.786	786.5	pointing	Trial2	pointing/STIM_009.jpg	99
1337.221	1.396	1396.4	pointing	Trial2	pointing/STIM_009.jpg	100
1342.487	1.17	1169.9	pointing	Trial2	pointing/STIM_009.jpg	100
1345.826	1.235	1235.3	pointing	Trial2	pointing/STIM_010.jpg	100
1349.257	1.26	1259.7	pointing	Trial2	pointing/STIM_010.jpg	100
1353.43	0.827	827.0	pointing	Trial2	pointing/STIM_010.jpg	100
1358.033	0.789	789.1	pointing	Trial2	pointing/STIM_010.jpg	100
1361.671	1.02	1019.9	pointing	Trial2	pointing/STIM_010.jpg	99
1365.881	1.169	1168.7	pointing	Trial2	pointing/STIM_010.jpg	99
1369.872	0.955	954.7	pointing	Trial2	pointing/STIM_011.jpg	99
1374.625	1.063	1063.1	pointing	Trial2	pointing/STIM_011.jpg	100
1377.919	1.231	1230.6	pointing	Trial2	pointing/STIM_011.jpg	99
1382.791	1.173	1173.3	pointing	Trial2	pointing/STIM_011.jpg	100
1386.815	0.958	958.5	pointing	Trial2	pointing/STIM_011.jpg	100
1390.909	1.251	1250.9	pointing	Trial2	pointing/STIM_011.jpg	100
1395.231	1.803	1802.6	navigation	Trial3	navigation/STIM_000.jpg	100
1400.958	3.298	3298.4	navigation	Trial3	navigation/STIM_000.jpg	99
1406.883	3.149	3148.6	navigation	Trial3	navigation/STIM_000.jpg	100
1412.5	1.92	1919.8	navigation	Trial3	navigation/STIM_000.jpg	100
1418.379	2.039	2039.3	navigation	Trial3	navigation/STIM_000.jpg	99
1422.921	2.555	2555.4	navigation	Trial3	navigation/STIM_000.jpg	99
1428.387	2.525	2525.1	navigation	Trial3	navigation/STIM_001.jpg	100
1434.101	3.122	3121.6	navigation	Trial3	navigation/STIM_001.jpg	99
1441.097	3.037	3037.2	navigation	Trial3	navigation/STIM_001.jpg	99
1446.301	1.678	1678.0	navigation	Trial3	navigation/STIM_001.jpg	100
1451.37	2.894	2894.4	navigation	Trial3	navigation/STIM_001.jpg	99
1456.37	1.549	1549.0	navigation	Trial3	navigation/STIM_001.jpg	100
1460.195	2.731	2730.7	navigation	Trial3	navigation/STIM_002.jpg	99
1465.555	3.274	3274.5	navigation	Trial3	navigation/STIM_002.jpg	99
1471.199	1.972	1972.0	navigation	Trial3	navigation/STIM_002.jpg	100
1475.438	2.124	2124.3	navigation	Trial3	navigation/STIM_002.jpg	99
1480.937	2.004	2004.4	navigation	Trial3	navigation/STIM_002.jpg	99
1486.462	2.135	2135.4	navigation	Trial3	navigation/STIM_002.jpg	100
1491.931	2.609	2608.8	navigation	Trial3	navigation/STIM_003.jpg	99
1497.102	3.155	3154.6	navigation	Trial3	navigation/STIM_003.jpg	99
1503.178	1.704	1703.7	navigation	Trial3	navigation/STIM_003.jpg	100
1507.717	1.853	1853.3	navigation	Trial3	navigation/STIM_003.jpg	99
1513.307	3.092	3091.9	navigation	Trial3	navigation/STIM_003.jpg	99
1520.358	2.677	2677.4	navigation	Trial3	navigation/STIM_003.jpg	99
1525.09	1.876	1876.4	navigation	Trial3	navigation/STIM_004.jpg	99
1530.343	3.289	3288.6	navigation	Trial3	navigation/STIM_004.jpg	100
1536.655	2.216	2215.5	navigation	Trial3	navigation/STIM_004.jpg	99
1542.502	1.802	1802.2	navigation	Trial3	navigation/STIM_004.jpg	99
1547.029	2.76	2760.3	navigation	Trial3	navigation/STIM_004.jpg	99
1553.438	2.756	2756.4	navigation	Trial3	navigation/STIM_004.jpg	99
1558.542	2.791	2791.2	navigation	Trial3	navigation/STIM_005.jpg	100
1564.998	2.426	2426.1	navigation	Trial3	navigation/STIM_005.jpg	100
1570.039	2.707	2707.4	navigation	Trial3	navigation/STIM_005.jpg	99
1576.195	2.899	2899.4	navigation	Trial3	navigation/STIM_005.jpg	100
1582.725	1.516	1516.3	navigation	Trial3	navigation/STIM_005.jpg	99
1586.537	3.265	3265.4	navigation	Trial3	navigation/STIM_005.jpg	99
1593.582	2.02	2020.0	navigation	Trial3	navigation/STIM_006.jpg	99
1599.394	1.695	1694.6	navigation	Trial3	navigation/STIM_006.jpg	100
1604.563	2.629	2629.0	navigation	Trial3	navigation/STIM_006.jpg	100
1611.13	2.502	2501.5	navigation	Trial3	navigation/STIM_006.jpg	100
1615.961	2.459	2459.1	navigation	Trial3	navigation/STIM_006.jpg	99
1621.787	2.402	2402.0	navigation	Trial3	navigation/STIM_006.jpg	100
1626.189	2.382	2381.7	navigation	Trial3	navigation/STIM_007.jpg	99
1632.55	1.395	1394.9	navigation	Trial3	navigation/STIM_007.jpg	99
1636.096	2.422	2421.9	navigation	Trial3	navigation/STIM_007.jpg	99
1641.12	1.625	1625.4	navigation	Trial3	navigation/STIM_007.jpg	100
1645.906	1.342	1341.9	navigation	Trial3	navigation/STIM_007.jpg	99
1650.023	1.458	1457.6	navigation	Trial3	navigation/STIM_007.jpg	99
1653.963	2.295	2295.1	navigation	Trial3	navigation/STIM_008.jpg	99
1659.871	1.679	1679.2	navigation	Trial3	navigation/STIM_008.jpg	100
1664.53	2.641	2641.2	navigation	Trial3	navigation/STIM_008.jpg	99
1670.739	3.246	3245.7	navigation	Trial3	navigation/STIM_008.jpg	100
1676.435	1.619	1619.2	navigation	Trial3	navigation/STIM_008.jpg	99
1681.128	2.054	2054.1	navigation	Trial3	navigation/STIM_008.jpg	100
1685.34	1.824	1824.4	navigation	Trial3	navigation/STIM_009.jpg	99
1690.792	2.024	2023.7	navigation	Trial3	navigation/STIM_009.jpg	100
1696.248	2.769	2769.3	navigation	Trial3	navigation/STIM_009.jpg	99
1701.663	2.07	2069.5	navigation	Trial3	navigation/STIM_009.jpg	100
1706.03	2.38	2380.1	navigation	Trial3	navigation/STIM_009.jpg	99
1711.743	2.69	2690.4	navigation	Trial3	navigation/STIM_009.jpg	100
1716.824	3.225	3224.9	navigation	Trial3	navigation/STIM_010.jpg	100
1723.67	2.874	2873.5	navigation	Trial3	navigation/STIM_010.jpg	99
1728.712	1.581	1580.9	navigation	Trial3	navigation/STIM_010.jpg	100
1733.731	2.556	2555.8	navigation	Trial3	navigation/STIM_010.jpg	100
1739.894	2.323	2322.8	navigation	Trial3	navigation/STIM_010.jpg	99
1745.683	2.77	2769.7	navigation	Trial3	navigation/STIM_010.jpg	99
1751.455	1.971	1970.7	navigation	Trial3	navigation/STIM_011.jpg	99
1755.521	2.934	2933.7	navigation	Trial3	navigation/STIM_011.jpg	100
1761.962	3.08	3080.4	navigation	Trial3	navigation/STIM_011.jpg	100
1767.512	2.698	2697.5	navigation	Trial3	navigation/STIM_011.jpg	100
1772.419	1.344	1344.2	navigation	Trial3	navigation/STIM_011.jpg	99
1776.604	2.185	2185.3	navigation	Trial3	navigation/STIM_011.jpg	100
1781.152	0.91	909.5	pointing	Trial3	pointing/STIM_000.jpg	99
1785.157	0.947	946.8	pointing	Trial3	pointing/STIM_000.jpg	99
1789.057	1.025	1025.1	pointing	Trial3	pointing/STIM_000.jpg	99
1793.823	1.231	1230.6	pointing	Trial3	pointing/STIM_000.jpg	99
1797.266	1.088	1087.5	pointing	Trial3	pointing/STIM_000.jpg	100
1801.13	0.78	779.6	pointing	Trial3	pointing/STIM_000.jpg	100
1804.014	1.212	1212.0	pointing	Trial3	pointing/STIM_001.jpg	100
1808.569	1.317	1317.2	pointing	Trial3	pointing/STIM_001.jpg	99
1813.344	1.01	1009.8	pointing	Trial3	pointing/STIM_001.jpg	100
1817.809	0.919	918.9	pointing	Trial3	pointing/STIM_001.jpg	100
1822.669	0.99	990.3	pointing	Trial3	pointing/STIM_001.jpg	99
1825.954	1.183	1182.6	pointing	Trial3	pointing/STIM_001.jpg	99
1830.731	0.812	811.6	pointing	Trial3	pointing/STIM_002.jpg	99
1835.268	0.917	917.0	pointing	Trial3	pointing/STIM_002.jpg	100
1840.047	1.366	1365.5	pointing	Trial3	pointing/STIM_002.jpg	100
1843.458	0.952	951.8	pointing	Trial3	pointing/STIM_002.jpg	100
1846.445	0.766	765.7	pointing	Trial3	pointing/STIM_002.jpg	100
1849.738	1.007	1007.4	pointing	Trial3	pointing/STIM_002.jpg	100
1852.899	1.067	1067.0	pointing	Trial3	pointing/STIM_003.jpg	100
1857.051	1.039	1038.7	pointing	Trial3	pointing/STIM_003.jpg	99
1861.745	1.013	1013.4	pointing	Trial3	pointing/STIM_003.jpg	99
1866.414	1.04	1039.8	pointing	Trial3	pointing/STIM_003.jpg	99
1870.263	1.045	1045.2	pointing	Trial3	pointing/STIM_003.jpg	99
1874.612	1.39	1389.5	pointing	Trial3	pointing/STIM_003.jpg	100
1879.343	1.033	1033.2	pointing	Trial3	pointing/STIM_004.jpg	100
1882.682	0.817	817.4	pointing	Trial3	pointing/STIM_004.jpg	100
1886.501	1.214	1214.5	pointing	Trial3	pointing/STIM_004.jpg	99
1890.398	0.902	901.9	pointing	Trial3	pointing/STIM_004.jpg	100
1895.278	1.196	1195.5	pointing	Trial3	pointing/STIM_004.jpg	99
1899.528	0.797	797.2	pointing	Trial3	pointing/STIM_004.jpg	100
1903.284	0.796	795.5	pointing	Trial3	pointing/STIM_005.jpg	99
1908.036	1.406	1406.2	pointing	Trial3	pointing/STIM_005.jpg	100
1912.925	0.774	774.3	pointing	Trial3	pointing/STIM_005.jpg	100
1916.284	1.347	1347.3	pointing	Trial3	pointing/STIM_005.jpg	100
1919.822	1.185	1184.6	pointing	Trial3	pointing/STIM_005.jpg	99
1923.849	1.245	1245.2	pointing	Trial3	pointing/STIM_005.jpg	100
1927.83	0.926	925.8	pointing	Trial3	pointing/STIM_006.jpg	99
1932.665	0.988	988.0	pointing	Trial3	pointing/STIM_006.jpg	100
1936.279	1.173	1172.7	pointing	Trial3	pointing/STIM_006.jpg	100
1941.187	1.246	1246.4	pointing	Trial3	pointing/STIM_006.jpg	99
1944.855	0.959	958.9	pointing	Trial3	pointing/STIM_006.jpg	100
1948.38	0.795	795.1	pointing	Trial3	pointing/STIM_006.jpg	100
1951.699	0.998	997.7	pointing	Trial3	pointing/STIM_007.jpg	99
1954.916	0.9	900.5	pointing	Trial3	pointing/STIM_007.jpg	100
1958.378	1.014	1014.1	pointing	Trial3	pointing/STIM_007.jpg	100
1961.884	1.216	1216.4	pointing	Trial3	pointing/STIM_007.jpg	99
1965.251	1.175	1175.3	pointing	Trial3	pointing/STIM_007.jpg	100
1969.458	1.064	1063.6	pointing	Trial3	pointing/STIM_007.jpg	100
1972.779	1.409	1408.6	pointing	Trial3	pointing/STIM_008.jpg	100
1977.058	1.373	1373.1	pointing	Trial3	pointing/STIM_008.jpg	99
1980.828	1.321	1320.7	pointing	Trial3	pointing/STIM_008.jpg	99
1985.72	1.152	1152.2	pointing	Trial3	pointing/STIM_008.jpg	100
1990.686	0.805	804.7	pointing	Trial3	pointing/STIM_008.jpg	99
1993.892	1.203	1202.7	pointing	Trial3	pointing/STIM_008.jpg	100
1998.175	1.278	1278.1	pointing	Trial3	pointing/STIM_009.jpg	100
2002.686	1.266	1266.2	pointing	Trial3	pointing/STIM_009.jpg	99
2006.69	1.265	1264.8	pointing	Trial3	pointing/STIM_009.jpg	100
2011.161	1.024	1024.3	pointing	Trial3	pointing/STIM_009.jpg	99
2015.294	1.224	1224.2	pointing	Trial3	pointing/STIM_009.jpg	99
2019.848	0.813	812.8	pointing	Trial3	pointing/STIM_009.jpg	100
2023.474	0.966	966.0	pointing	Trial3	pointing/STIM_010.jpg	99
2028.071	0.919	919.0	pointing	Trial3	pointing/STIM_010.jpg	100
2031.313	1.129	1128.6	pointing	Trial3	pointing/STIM_010.jpg	99
2035.267	1.14	1139.8	pointing	Trial3	pointing/STIM_010.jpg	99
2039.095	0.787	786.7	pointing	Trial3	pointing/STIM_010.jpg	100
2042.095	1.12	1119.6	pointing	Trial3	pointing/STIM_010.jpg	100
2046.731	0.94	940.4	pointing	Trial3	pointing/STIM_011.jpg	100
2051.26	1.126	1126.4	pointing	Trial3	pointing/STIM_011.jpg	100
2055.036	1.076	1075.5	pointing	Trial3	pointing/STIM_011.jpg	100
2058.693	0.837	837.1	pointing	Trial3	pointing/STIM_011.jpg	100
2061.702	1.293	1293.3	pointing	Trial3	pointing/STIM_011.jpg	100
2066.163	1.285	1284.9	pointing	Trial3	pointing/STIM_011.jpg	100
