onset	duration	accuracy	trial_type	learning_stage	stimulus
0.0	2.907	incorrect	generate	Run1	generate/STIM_000.jpg
5.062	2.398	correct	generate	Run1	generate/STIM_000.jpg
9.7	1.63	correct	generate	Run1	generate/STIM_000.jpg
13.783	1.97	correct	generate	Run1	generate/STIM_000.jpg
17.979	2.104	correct	generate	Run1	generate/STIM_000.jpg
23.492	2.707	correct	generate	Run1	generate/STIM_001.jpg
28.439	2.039	correct	generate	Run1	generate/STIM_001.jpg
34.243	2.527	correct	generate	Run1	generate/STIM_001.jpg
39.117	1.217	correct	generate	Run1	generate/STIM_001.jpg
44.202	1.936	correct	generate	Run1	generate/STIM_001.jpg
48.237	2.277	incorrect	generate	Run1	generate/STIM_002.jpg
54.486	1.57	correct	generate	Run1	generate/STIM_002.jpg
58.077	2.037	correct	generate	Run1	generate/STIM_002.jpg
62.297	2.434	incorrect	generate	Run1	generate/STIM_002.jpg
67.777	1.166	correct	generate	Run1	generate/STIM_002.jpg
71.791	2.516	incorrect	generate	Run1	generate/STIM_003.jpg
76.969	1.252	correct	generate	Run1	generate/STIM_003.jpg
81.837	2.349	incorrect	generate	Run1	generate/STIM_003.jpg
87.394	1.938	correct	generate	Run1	generate/STIM_003.jpg
92.389	1.34	correct	generate	Run1	generate/STIM_003.jpg
95.78	1.705	incorrect	generate	Run1	generate/STIM_004.jpg
100.564	2.732	correct	generate	Run1	generate/STIM_004.jpg
106.703	2.399	incorrect	generate	Run1	generate/STIM_004.jpg
112.294	1.728	correct	generate	Run1	generate/STIM_004.jpg
116.813	2.385	incorrect	generate	Run1	generate/STIM_004.jpg
122.554	2.497	incorrect	generate	Run1	generate/STIM_005.jpg
127.15	2.266	correct	generate	Run1	generate/STIM_005.jpg
133.003	1.737	correct	generate	Run1	generate/STIM_005.jpg
137.889	1.342	correct	generate	Run1	generate/STIM_005.jpg
143.144	1.077	correct	generate	Run1	generate/STIM_005.jpg
148.062	1.857	incorrect	generate	Run1	generate/STIM_006.jpg
153.279	1.281	incorrect	generate	Run1	generate/STIM_006.jpg
156.934	1.583	correct	generate	Run1	generate/STIM_006.jpg
161.021	1.218	incorrect	generate	Run1	generate/STIM_006.jpg
165.38	1.25	incorrect	generate	Run1	generate/STIM_006.jpg
169.287	2.801	incorrect	generate	Run1	generate/STIM_007.jpg
175.431	2.757	correct	generate	Run1	generate/STIM_007.jpg
180.393	1.62	correct	generate	Run1	generate/STIM_007.jpg
185.473	2.018	correct	generate	Run1	generate/STIM_007.jpg
189.592	1.708	correct	generate	Run1	generate/STIM_007.jpg
195.007	2.952	correct	generate	Run1	generate/STIM_008.jpg
200.567	2.526	correct	generate	Run1	generate/STIM_008.jpg
206.309	2.417	correct	generate	Run1	generate/STIM_008.jpg
211.802	1.754	correct	generate	Run1	generate/STIM_008.jpg
216.665	1.62	correct	generate	Run1	generate/STIM_008.jpg
221.139	2.722	correct	generate	Run1	generate/STIM_009.jpg
227.811	2.177	correct	generate	Run1	generate/STIM_009.jpg
232.223	1.84	incorrect	generate	Run1	generate/STIM_009.jpg
237.815	2.147	correct	generate	Run1	generate/STIM_009.jpg
242.599	2.344	correct	generate	Run1	generate/STIM_009.jpg
248.54	1.26	correct	generate	Run1	generate/STIM_010.jpg
253.18	1.463	incorrect	generate	Run1	generate/STIM_010.jpg
257.07	2.603	correct	generate	Run1	generate/STIM_010.jpg
263.404	1.637	correct	generate	Run1	generate/STIM_010.jpg
267.207	2.123	incorrect	generate	Run1	generate/STIM_010.jpg
272.574	1.672	correct	generate	Run1	generate/STIM_011.jpg
277.59	1.977	correct	generate	Run1	generate/STIM_011.jpg
283.454	2.06	correct	generate	Run1	generate/STIM_011.jpg
289.395	2.255	correct	generate	Run1	generate/STIM_011.jpg
294.544	1.295	correct	generate	Run1	generate/STIM_011.jpg
298.942	1.346	incorrect	generate	Run1	generate/STIM_012.jpg
303.977	1.854	correct	generate	Run1	generate/STIM_012.jpg
308.862	2.522	correct	generate	Run1	generate/STIM_012.jpg
313.675	1.597	correct	generate	Run1	generate/STIM_012.jpg
319.24	1.576	correct	generate	Run1	generate/STIM_012.jpg
324.66	2.326	correct	generate	Run1	generate/STIM_013.jpg
329.358	1.275	correct	generate	Run1	generate/STIM_013.jpg
333.761	1.914	correct	generate	Run1	generate/STIM_013.jpg
337.743	1.211	correct	generate	Run1	generate/STIM_013.jpg
341.675	2.337	correct	generate	Run1	generate/STIM_013.jpg
346.485	2.836	incorrect	generate	Run1	generate/STIM_014.jpg
352.782	1.958	correct	generate	Run1	generate/STIM_014.jpg
356.764	1.315	correct	generate	Run1	generate/STIM_014.jpg
361.767	2.428	incorrect	generate	Run1	generate/STIM_014.jpg
367.425	1.746	correct	generate	Run1	generate/STIM_014.jpg
371.411	1.488	correct	generate	Run1	generate/STIM_015.jpg
375.947	2.371	correct	generate	Run1	generate/STIM_015.jpg
380.345	2.306	correct	generate	Run1	generate/STIM_015.jpg
385.786	2.238	incorrect	generate	Run1	generate/STIM_015.jpg
390.04	1.525	incorrect	generate	Run1	generate/STIM_015.jpg
394.433	2.88	correct	generate	Run1	generate/STIM_016.jpg
401.064	2.475	correct	generate	Run1	generate/STIM_016.jpg
406.809	1.523	correct	generate	Run1	generate/STIM_016.jpg
411.594	1.401	correct	generate	Run1	generate/STIM_016.jpg
416.762	1.811	correct	generate	Run1	generate/STIM_016.jpg
420.586	2.807	correct	generate	Run1	generate/STIM_017.jpg
425.566	2.243	correct	generate	Run1	generate/STIM_017.jpg
430.65	1.659	correct	generate	Run1	generate/STIM_017.jpg
434.806	2.376	incorrect	generate	Run1	generate/STIM_017.jpg
439.73	2.177	correct	generate	Run1	generate/STIM_017.jpg
444.62	2.623	correct	generate	Run1	generate/STIM_018.jpg
450.562	1.901	correct	generate	Run1	generate/STIM_018.jpg
455.412	2.575	correct	generate	Run1	generate/STIM_018.jpg
461.908	1.616	correct	generate	Run1	generate/STIM_018.jpg
466.481	1.134	correct	generate	Run1	generate/STIM_018.jpg
470.189	2.941	correct	generate	Run1	generate/STIM_019.jpg
475.888	2.764	incorrect	generate	Run1	generate/STIM_019.jpg
481.33	1.433	correct	generate	Run1	generate/STIM_019.jpg
485.905	1.505	correct	generate	Run1	generate/STIM_019.jpg
490.245	2.129	correct	generate	Run1	generate/STIM_019.jpg
494.896	2.049	correct	generate	Run1	generate/STIM_020.jpg
500.772	1.997	incorrect	generate	Run1	generate/STIM_020.jpg
505.294	2.132	correct	generate	Run1	generate/STIM_020.jpg
511.206	1.961	correct	generate	Run1	generate/STIM_020.jpg
515.243	1.655	correct	generate	Run1	generate/STIM_020.jpg
519.425	1.21	correct	generate	Run1	generate/STIM_021.jpg
524.002	1.954	correct	generate	Run1	generate/STIM_021.jpg
529.517	2.103	incorrect	generate	Run1	generate/STIM_021.jpg
534.068	1.938	correct	generate	Run1	generate/STIM_021.jpg
538.542	1.494	correct	generate	Run1	generate/STIM_021.jpg
542.703	1.893	correct	generate	Run1	generate/STIM_022.jpg
547.887	1.801	incorrect	generate	Run1	generate/STIM_022.jpg
553.409	2.315	correct	generate	Run1	generate/STIM_022.jpg
559.152	1.479	correct	generate	Run1	generate/STIM_022.jpg
564.159	1.235	correct	generate	Run1	generate/STIM_022.jpg
567.407	1.428	correct	generate	Run1	generate/STIM_023.jpg
572.147	1.21	correct	generate	Run1	generate/STIM_023.jpg
576.23	1.424	correct	generate	Run1	generate/STIM_023.jpg
580.369	2.246	incorrect	generate	Run1	generate/STIM_023.jpg
586.507	2.05	correct	generate	Run1	generate/STIM_023.jpg
591.94	1.718	correct	generate	Run1	generate/STIM_024.jpg
596.553	2.8	correct	generate	Run1	generate/STIM_024.jpg
602.769	2.523	correct	generate	Run1	generate/STIM_024.jpg
609.208	1.987	incorrect	generate	Run1	generate/STIM_024.jpg
613.545	1.028	correct	generate	Run1	generate/STIM_024.jpg
616.788	0.531	correct	repeat	Run1	repeat/STIM_000.jpg
619.484	0.997	correct	repeat	Run1	repeat/STIM_000.jpg
623.14	0.807	correct	repeat	Run1	repeat/STIM_000.jpg
627.322	1.002	correct	repeat	Run1	repeat/STIM_000.jpg
631.272	0.932	correct	repeat	Run1	repeat/STIM_000.jpg
634.223	0.863	correct	repeat	Run1	repeat/STIM_001.jpg
637.158	0.512	correct	repeat	Run1	repeat/STIM_001.jpg
640.885	0.699	correct	repeat	Run1	repeat/STIM_001.jpg
643.743	0.676	correct	repeat	Run1	repeat/STIM_001.jpg
647.977	0.761	correct	repeat	Run1	repeat/STIM_001.jpg
652.624	0.574	correct	repeat	Run1	repeat/STIM_002.jpg
655.224	0.997	correct	repeat	Run1	repeat/STIM_002.jpg
659.049	0.618	correct	repeat	Run1	repeat/STIM_002.jpg
662.065	0.681	correct	repeat	Run1	repeat/STIM_002.jpg
666.369	0.758	correct	repeat	Run1	repeat/STIM_002.jpg
670.369	0.896	correct	repeat	Run1	repeat/STIM_003.jpg
675.163	0.687	correct	repeat	Run1	repeat/STIM_003.jpg
679.484	0.593	correct	repeat	Run1	repeat/STIM_003.jpg
682.107	0.577	correct	repeat	Run1	repeat/STIM_003.jpg
686.17	0.847	correct	repeat	Run1	repeat/STIM_003.jpg
689.695	0.804	correct	repeat	Run1	repeat/STIM_004.jpg
692.737	0.774	correct	repeat	Run1	repeat/STIM_004.jpg
696.377	0.891	correct	repeat	Run1	repeat/STIM_004.jpg
700.473	0.933	correct	repeat	Run1	repeat/STIM_004.jpg
704.43	0.532	correct	repeat	Run1	repeat/STIM_004.jpg
708.673	0.761	correct	repeat	Run1	repeat/STIM_005.jpg
713.219	0.862	correct	repeat	Run1	repeat/STIM_005.jpg
717.198	0.525	correct	repeat	Run1	repeat/STIM_005.jpg
720.148	0.508	correct	repeat	Run1	repeat/STIM_005.jpg
723.676	0.692	correct	repeat	Run1	repeat/STIM_005.jpg
728.312	0.65	correct	repeat	Run1	repeat/STIM_006.jpg
732.945	0.711	correct	repeat	Run1	repeat/STIM_006.jpg
737.426	0.841	correct	repeat	Run1	repeat/STIM_006.jpg
740.784	0.775	correct	repeat	Run1	repeat/STIM_006.jpg
745.53	0.905	correct	repeat	Run1	repeat/STIM_006.jpg
748.475	0.827	correct	repeat	Run1	repeat/STIM_007.jpg
752.332	0.948	correct	repeat	Run1	repeat/STIM_007.jpg
756.824	0.763	correct	repeat	Run1	repeat/STIM_007.jpg
760.3	0.856	correct	repeat	Run1	repeat/STIM_007.jpg
763.577	0.749	correct	repeat	Run1	repeat/STIM_007.jpg
768.015	0.896	correct	repeat	Run1	repeat/STIM_008.jpg
772.84	0.535	correct	repeat	Run1	repeat/STIM_008.jpg
776.587	0.55	correct	repeat	Run1	repeat/STIM_008.jpg
780.045	0.516	correct	repeat	Run1	repeat/STIM_008.jpg
782.838	0.666	correct	repeat	Run1	repeat/STIM_008.jpg
787.066	0.674	correct	repeat	Run1	repeat/STIM_009.jpg
789.854	0.628	correct	repeat	Run1	repeat/STIM_009.jpg
794.416	0.876	correct	repeat	Run1	repeat/STIM_009.jpg
798.441	0.805	correct	repeat	Run1	repeat/STIM_009.jpg
802.676	0.582	correct	repeat	Run1	repeat/STIM_009.jpg
806.961	0.978	correct	repeat	Run1	repeat/STIM_010.jpg
810.251	0.941	correct	repeat	Run1	repeat/STIM_010.jpg
813.761	0.978	correct	repeat	Run1	repeat/STIM_010.jpg
818.114	0.596	correct	repeat	Run1	repeat/STIM_010.jpg
821.358	0.817	correct	repeat	Run1	repeat/STIM_010.jpg
825.179	0.555	correct	repeat	Run1	repeat/STIM_011.jpg
827.837	0.987	correct	repeat	Run1	repeat/STIM_011.jpg
832.671	0.652	correct	repeat	Run1	repeat/STIM_011.jpg
837.029	0.753	correct	repeat	Run1	repeat/STIM_011.jpg
840.15	0.614	correct	repeat	Run1	repeat/STIM_011.jpg
844.157	0.68	correct	repeat	Run1	repeat/STIM_012.jpg
848.104	0.725	correct	repeat	Run1	repeat/STIM_012.jpg
851.734	0.558	correct	repeat	Run1	repeat/STIM_012.jpg
855.327	0.676	correct	repeat	Run1	repeat/STIM_012.jpg
859.824	0.865	correct	repeat	Run1	repeat/STIM_012.jpg
863.186	0.601	correct	repeat	Run1	repeat/STIM_013.jpg
866.328	1.005	correct	repeat	Run1	repeat/STIM_013.jpg
869.63	0.637	correct	repeat	Run1	repeat/STIM_013.jpg
873.92	0.876	correct	repeat	Run1	repeat/STIM_013.jpg
877.934	0.623	correct	repeat	Run1	repeat/STIM_013.jpg
882.535	0.982	correct	repeat	Run1	repeat/STIM_014.jpg
886.118	0.93	correct	repeat	Run1	repeat/STIM_014.jpg
890.802	0.62	incorrect	repeat	Run1	repeat/STIM_014.jpg
894.486	0.759	correct	repeat	Run1	repeat/STIM_014.jpg
898.892	0.92	correct	repeat	Run1	repeat/STIM_014.jpg
903.403	2.503	correct	generate	Run2	generate/STIM_000.jpg
908.885	1.372	correct	generate	Run2	generate/STIM_000.jpg
913.648	1.756	correct	generate	Run2	generate/STIM_000.jpg
919.294	0.92	correct	generate	Run2	generate/STIM_000.jpg
922.449	1.121	correct	generate	Run2	generate/STIM_000.jpg
925.596	1.278	correct	generate	Run2	generate/STIM_001.jpg
930.341	2.178	correct	generate	Run2	generate/STIM_001.jpg
935.735	0.944	correct	generate	Run2	generate/STIM_001.jpg
940.59	1.469	incorrect	generate	Run2	generate/STIM_001.jpg
946.039	1.361	correct	generate	Run2	generate/STIM_001.jpg
950.043	1.332	correct	generate	Run2	generate/STIM_002.jpg
954.39	2.213	incorrect	generate	Run2	generate/STIM_002.jpg
958.865	1.58	incorrect	generate	Run2	generate/STIM_002.jpg
962.692	1.475	correct	generate	Run2	generate/STIM_002.jpg
967.158	1.951	incorrect	generate	Run2	generate/STIM_002.jpg
971.799	2.156	correct	generate	Run2	generate/STIM_003.jpg
977.796	0.996	correct	generate	Run2	generate/STIM_003.jpg
982.078	1.199	correct	generate	Run2	generate/STIM_003.jpg
986.722	1.794	incorrect	generate	Run2	generate/STIM_003.jpg
990.705	1.259	correct	generate	Run2	generate/STIM_003.jpg
995.814	1.685	correct	generate	Run2	generate/STIM_004.jpg
1000.534	1.967	correct	generate	Run2	generate/STIM_004.jpg
1006.393	1.124	correct	generate	Run2	generate/STIM_004.jpg
1009.786	2.057	correct	generate	Run2	generate/STIM_004.jpg
1015.21	1.611	correct	generate	Run2	generate/STIM_004.jpg
1019.126	2.297	correct	generate	Run2	generate/STIM_005.jpg
1023.673	1.536	correct	generate	Run2	generate/STIM_005.jpg
1028.277	1.4	correct	generate	Run2	generate/STIM_005.jpg
1032.682	1.908	correct	generate	Run2	generate/STIM_005.jpg
1037.085	1.841	correct	generate	Run2	generate/STIM_005.jpg
1042.005	2.507	incorrect	generate	Run2	generate/STIM_006.jpg
1046.879	2.041	correct	generate	Run2	generate/STIM_006.jpg
1051.007	2.197	correct	generate	Run2	generate/STIM_006.jpg
1057.128	1.759	correct	generate	Run2	generate/STIM_006.jpg
1061.521	1.818	incorrect	generate	Run2	generate/STIM_006.jpg
1065.883	1.735	correct	generate	Run2	generate/STIM_007.jpg
1069.903	1.31	correct	generate	Run2	generate/STIM_007.jpg
1073.412	1.222	correct	generate	Run2	generate/STIM_007.jpg
1076.773	1.379	correct	generate	Run2	generate/STIM_007.jpg
1081.372	1.621	correct	generate	Run2	generate/STIM_007.jpg
1086.516	1.173	correct	generate	Run2	generate/STIM_008.jpg
1089.856	2.145	incorrect	generate	Run2	generate/STIM_008.jpg
1094.991	1.968	correct	generate	Run2	generate/STIM_008.jpg
1099.168	1.303	incorrect	generate	Run2	generate/STIM_008.jpg
1103.854	1.576	incorrect	generate	Run2	generate/STIM_008.jpg
1107.599	2.159	correct	generate	Run2	generate/STIM_009.jpg
1112.583	1.372	correct	generate	Run2	generate/STIM_009.jpg
1117.621	1.096	incorrect	generate	Run2	generate/STIM_009.jpg
1122.688	1.575	correct	generate	Run2	generate/STIM_009.jpg
1126.809	1.842	correct	generate	Run2	generate/STIM_009.jpg
1131.568	2.492	correct	generate	Run2	generate/STIM_010.jpg
1137.898	1.872	correct	generate	Run2	generate/STIM_010.jpg
1143.321	1.609	correct	generate	Run2	generate/STIM_010.jpg
1148.646	1.851	correct	generate	Run2	generate/STIM_010.jpg
1152.862	1.929	correct	generate	Run2	generate/STIM_010.jpg
1158.06	1.268	correct	generate	Run2	generate/STIM_011.jpg
1161.527	1.642	correct	generate	Run2	generate/STIM_011.jpg
1167.084	1.858	correct	generate	Run2	generate/STIM_011.jpg
1172.765	2.084	correct	generate	Run2	generate/STIM_011.jpg
1178.055	1.977	correct	generate	Run2	generate/STIM_011.jpg
1182.397	1.123	correct	generate	Run2	generate/STIM_012.jpg
1186.111	1.565	correct	generate	Run2	generate/STIM_012.jpg
1191.647	2.24	correct	generate	Run2	generate/STIM_012.jpg
1195.875	2.003	correct	generate	Run2	generate/STIM_012.jpg
1201.029	1.351	correct	generate	Run2	generate/STIM_012.jpg
1205.463	2.087	correct	generate	Run2	generate/STIM_013.jpg
1209.648	1.362	correct	generate	Run2	generate/STIM_013.jpg
1214.876	1.703	incorrect	generate	Run2	generate/STIM_013.jpg
1218.674	1.566	incorrect	generate	Run2	generate/STIM_013.jpg
1222.243	1.291	correct	generate	Run2	generate/STIM_013.jpg
1226.001	2.184	correct	generate	Run2	generate/STIM_014.jpg
1231.688	2.213	correct	generate	Run2	generate/STIM_014.jpg
1237.053	1.918	correct	generate	Run2	generate/STIM_014.jpg
1242.748	0.974	correct	generate	Run2	generate/STIM_014.jpg
1247.045	0.89	correct	generate	Run2	generate/STIM_014.jpg
1251.625	2.186	incorrect	generate	Run2	generate/STIM_015.jpg
1257.453	2.262	correct	generate	Run2	generate/STIM_015.jpg
1263.197	1.829	correct	generate	Run2	generate/STIM_015.jpg
1268.607	1.808	correct	generate	Run2	generate/STIM_015.jpg
1272.835	1.503	correct	generate	Run2	generate/STIM_015.jpg
1276.657	2.122	correct	generate	Run2	generate/STIM_016.jpg
1280.833	1.999	correct	generate	Run2	generate/STIM_016.jpg
1285.8	1.709	correct	generate	Run2	generate/STIM_016.jpg
1289.541	1.58	correct	generate	Run2	generate/STIM_016.jpg
1294.547	1.386	correct	generate	Run2	generate/STIM_016.jpg
1299.286	2.223	correct	generate	Run2	generate/STIM_017.jpg
1304.755	2.331	correct	generate	Run2	generate/STIM_017.jpg
1309.933	1.723	correct	generate	Run2	generate/STIM_017.jpg
1315.47	1.871	correct	generate	Run2	generate/STIM_017.jpg
1320.12	1.607	correct	generate	Run2	generate/STIM_017.jpg
1325.359	1.377	correct	generate	Run2	generate/STIM_018.jpg
1329.333	2.3	correct	generate	Run2	generate/STIM_018.jpg
1334.337	1.702	correct	generate	Run2	generate/STIM_018.jpg
1338.728	1.566	correct	generate	Run2	generate/STIM_018.jpg
1343.749	0.944	correct	generate	Run2	generate/STIM_018.jpg
1347.908	2.524	correct	generate	Run2	generate/STIM_019.jpg
1352.466	1.828	correct	generate	Run2	generate/STIM_019.jpg
1356.807	2.114	incorrect	generate	Run2	generate/STIM_019.jpg
1361.721	1.696	correct	generate	Run2	generate/STIM_019.jpg
1365.971	1.001	correct	generate	Run2	generate/STIM_019.jpg
1370.496	1.608	correct	generate	Run2	generate/STIM_020.jpg
1374.496	1.019	correct	generate	Run2	generate/STIM_020.jpg
1378.443	2.065	correct	generate	Run2	generate/STIM_020.jpg
1383.581	1.538	correct	generate	Run2	generate/STIM_020.jpg
1388.605	1.468	correct	generate	Run2	generate/STIM_020.jpg
1392.651	1.471	correct	generate	Run2	generate/STIM_021.jpg
1396.846	2.092	incorrect	generate	Run2	generate/STIM_021.jpg
1402.706	1.576	correct	generate	Run2	generate/STIM_021.jpg
1407.366	1.941	correct	generate	Run2	generate/STIM_021.jpg
1412.686	1.55	correct	generate	Run2	generate/STIM_021.jpg
1416.275	1.474	correct	generate	Run2	generate/STIM_022.jpg
1421.306	1.042	correct	generate	Run2	generate/STIM_022.jpg
1424.629	0.943	correct	generate	Run2	generate/STIM_022.jpg
1428.695	2.114	incorrect	generate	Run2	generate/STIM_022.jpg
1433.721	2.048	correct	generate	Run2	generate/STIM_022.jpg
1438.329	1.092	correct	generate	Run2	generate/STIM_023.jpg
1441.671	2.3	correct	generate	Run2	generate/STIM_023.jpg
1447.758	2.112	incorrect	generate	Run2	generate/STIM_023.jpg
1452.423	1.718	correct	generate	Run2	generate/STIM_023.jpg
1457.345	1.964	correct	generate	Run2	generate/STIM_023.jpg
1461.612	1.42	correct	generate	Run2	generate/STIM_024.jpg
1465.048	2.296	incorrect	generate	Run2	generate/STIM_024.jpg
1470.867	1.793	correct	generate	Run2	generate/STIM_024.jpg
1476.462	1.092	correct	generate	Run2	generate/STIM_024.jpg
1480.896	1.344	correct	generate	Run2	generate/STIM_024.jpg
1485.747	1.006	correct	repeat	Run2	repeat/STIM_000.jpg
1489.505	0.816	correct	repeat	Run2	repeat/STIM_000.jpg
1493.66	0.85	correct	repeat	Run2	repeat/STIM_000.jpg
1497.916	0.691	correct	repeat	Run2	repeat/STIM_000.jpg
1501.097	0.572	correct	repeat	Run2	repeat/STIM_000.jpg
1504.733	0.815	correct	repeat	Run2	repeat/STIM_001.jpg
1508.243	0.957	correct	repeat	Run2	repeat/STIM_001.jpg
1511.324	0.602	correct	repeat	Run2	repeat/STIM_001.jpg
1514.871	0.814	correct	repeat	Run2	repeat/STIM_001.jpg
1517.734	1.004	correct	repeat	Run2	repeat/STIM_001.jpg
1521.114	0.518	correct	repeat	Run2	repeat/STIM_002.jpg
1524.344	0.778	correct	repeat	Run2	repeat/STIM_002.jpg
1528.743	0.83	correct	repeat	Run2	repeat/STIM_002.jpg
1533.331	0.901	correct	repeat	Run2	repeat/STIM_002.jpg
1536.936	0.939	correct	repeat	Run2	repeat/STIM_002.jpg
1539.997	0.622	correct	repeat	Run2	repeat/STIM_003.jpg
1543.36	0.935	correct	repeat	Run2	repeat/STIM_003.jpg
1547.864	0.54	correct	repeat	Run2	repeat/STIM_003.jpg
1552.207	0.956	correct	repeat	Run2	repeat/STIM_003.jpg
1557.122	0.586	correct	repeat	Run2	repeat/STIM_003.jpg
1560.897	0.681	correct	repeat	Run2	repeat/STIM_004.jpg
1565.177	0.732	correct	repeat	Run2	repeat/STIM_004.jpg
1569.89	0.871	correct	repeat	Run2	repeat/STIM_004.jpg
1573.084	0.896	correct	repeat	Run2	repeat/STIM_004.jpg
1576.85	0.64	correct	repeat	Run2	repeat/STIM_004.jpg
1580.839	0.946	correct	repeat	Run2	repeat/STIM_005.jpg
1585.583	0.765	correct	repeat	Run2	repeat/STIM_005.jpg
1590.288	0.915	correct	repeat	Run2	repeat/STIM_005.jpg
1593.927	0.627	correct	repeat	Run2	repeat/STIM_005.jpg
1597.194	0.8	correct	repeat	Run2	repeat/STIM_005.jpg
1601.616	0.953	correct	repeat	Run2	repeat/STIM_006.jpg
1606.1	0.923	correct	repeat	Run2	repeat/STIM_006.jpg
1609.253	0.559	correct	repeat	Run2	repeat/STIM_006.jpg
1613.098	0.902	incorrect	repeat	Run2	repeat/STIM_006.jpg
1617.328	0.954	correct	repeat	Run2	repeat/STIM_006.jpg
1620.776	0.664	correct	repeat	Run2	repeat/STIM_007.jpg
1623.702	0.53	correct	repeat	Run2	repeat/STIM_007.jpg
1628.128	0.96	correct	repeat	Run2	repeat/STIM_007.jpg
1631.831	0.815	correct	repeat	Run2	repeat/STIM_007.jpg
1635.105	0.929	correct	repeat	Run2	repeat/STIM_007.jpg
1639.24	0.752	correct	repeat	Run2	repeat/STIM_008.jpg
1642.027	0.884	correct	repeat	Run2	repeat/STIM_008.jpg
1645.514	0.831	correct	repeat	Run2	repeat/STIM_008.jpg
1648.756	0.997	correct	repeat	Run2	repeat/STIM_008.jpg
1652.724	0.509	correct	repeat	Run2	repeat/STIM_008.jpg
1656.823	0.769	correct	repeat	Run2	repeat/STIM_009.jpg
1661.445	0.747	correct	repeat	Run2	repeat/STIM_009.jpg
1665.433	0.605	correct	repeat	Run2	repeat/STIM_009.jpg
1669.769	0.52	correct	repeat	Run2	repeat/STIM_009.jpg
1672.348	0.823	correct	repeat	Run2	repeat/STIM_009.jpg
1676.711	0.688	correct	repeat	Run2	repeat/STIM_010.jpg
1680.201	0.824	correct	repeat	Run2	repeat/STIM_010.jpg
1684.787	0.716	correct	repeat	Run2	repeat/STIM_010.jpg
1689.429	0.712	correct	repeat	Run2	repeat/STIM_010.jpg
1693.408	0.959	correct	repeat	Run2	repeat/STIM_010.jpg
1696.874	0.818	correct	repeat	Run2	repeat/STIM_011.jpg
1699.994	0.522	correct	repeat	Run2	repeat/STIM_011.jpg
1703.265	0.842	correct	repeat	Run2	repeat/STIM_011.jpg
1707.667	0.976	correct	repeat	Run2	repeat/STIM_011.jpg
1712.589	0.927	correct	repeat	Run2	repeat/STIM_011.jpg
1716.768	0.976	correct	repeat	Run2	repeat/STIM_012.jpg
1720.372	0.766	correct	repeat	Run2	repeat/STIM_012.jpg
1723.669	0.824	correct	repeat	Run2	repeat/STIM_012.jpg
1727.341	0.659	correct	repeat	Run2	repeat/STIM_012.jpg
1731.183	0.558	correct	repeat	Run2	repeat/STIM_012.jpg
1735.218	0.704	correct	repeat	Run2	repeat/STIM_013.jpg
1739.483	0.728	correct	repeat	Run2	repeat/STIM_013.jpg
1744.139	0.859	correct	repeat	Run2	repeat/STIM_013.jpg
1747.872	0.512	correct	repeat	Run2	repeat/STIM_013.jpg
1751.202	0.739	correct	repeat	Run2	repeat/STIM_013.jpg
1755.354	0.915	correct	repeat	Run2	repeat/STIM_014.jpg
1759.006	0.822	correct	repeat	Run2	repeat/STIM_014.jpg
1762.984	0.849	correct	repeat	Run2	repeat/STIM_014.jpg
1766.46	0.649	correct	repeat	Run2	repeat/STIM_014.jpg
1770.924	0.721	correct	repeat	Run2	repeat/STIM_014.jpg
1774.879	1.93	correct	generate	Run3	generate/STIM_000.jpg
1779.195	1.703	incorrect	generate	Run3	generate/STIM_000.jpg
1784.65	1.548	incorrect	generate	Run3	generate/STIM_000.jpg
1788.478	0.994	correct	generate	Run3	generate/STIM_000.jpg
1791.473	1.61	correct	generate	Run3	generate/STIM_000.jpg
1795.168	1.242	correct	generate	Run3	generate/STIM_001.jpg
1800.052	0.98	incorrect	generate	Run3	generate/STIM_001.jpg
1803.982	1.601	correct	generate	Run3	generate/STIM_001.jpg
1809.366	0.868	correct	generate	Run3	generate/STIM_001.jpg
1813.292	2.053	incorrect	generate	Run3	generate/STIM_001.jpg
1818.256	1.051	correct	generate	Run3	generate/STIM_002.jpg
1821.812	1.639	correct	generate	Run3	generate/STIM_002.jpg
1825.748	1.28	correct	generate	Run3	generate/STIM_002.jpg
1830.044	2.094	incorrect	generate	Run3	generate/STIM_002.jpg
1835.217	1.305	correct	generate	Run3	generate/STIM_002.jpg
1839.48	2.087	incorrect	generate	Run3	generate/STIM_003.jpg
1845.533	0.91	correct	generate	Run3	generate/STIM_003.jpg
1848.716	1.627	correct	generate	Run3	generate/STIM_003.jpg
1853.868	0.974	correct	generate	Run3	generate/STIM_003.jpg
1858.348	1.107	correct	generate	Run3	generate/STIM_003.jpg
1862.131	1.58	correct	generate	Run3	generate/STIM_004.jpg
1867.473	1.448	correct	generate	Run3	generate/STIM_004.jpg
1871.322	2.069	correct	generate	Run3	generate/STIM_004.jpg
1875.803	1.184	correct	generate	Run3	generate/STIM_004.jpg
1880.805	1.247	correct	generate	Run3	generate/STIM_004.jpg
1885.384	0.954	incorrect	generate	Run3	generate/STIM_005.jpg
1889.897	1.839	correct	generate	Run3	generate/STIM_005.jpg
1895.555	1.663	correct	generate	Run3	generate/STIM_005.jpg
1901.066	2.105	correct	generate	Run3	generate/STIM_005.jpg
1905.919	1.545	incorrect	generate	Run3	generate/STIM_005.jpg
1911.4	1.808	correct	generate	Run3	generate/STIM_006.jpg
1915.567	1.914	correct	generate	Run3	generate/STIM_006.jpg
1920.375	1.263	correct	generate	Run3	generate/STIM_006.jpg
1924.781	1.896	correct	generate	Run3	generate/STIM_006.jpg
1929.168	2.074	correct	generate	Run3	generate/STIM_006.jpg
1933.691	2.008	correct	generate	Run3	generate/STIM_007.jpg
1938.001	1.596	correct	generate	Run3	generate/STIM_007.jpg
1941.616	1.763	correct	generate	Run3	generate/STIM_007.jpg
1945.821	1.106	correct	generate	Run3	generate/STIM_007.jpg
1949.166	1.659	correct	generate	Run3	generate/STIM_007.jpg
1952.881	1.416	correct	generate	Run3	generate/STIM_008.jpg
1957.696	1.086	incorrect	generate	Run3	generate/STIM_008.jpg
1961.337	1.857	incorrect	generate	Run3	generate/STIM_008.jpg
1965.503	1.739	correct	generate	Run3	generate/STIM_008.jpg
1970.75	1.689	correct	generate	Run3	generate/STIM_008.jpg
1975.711	1.595	correct	generate	Run3	generate/STIM_009.jpg
1979.373	2.0	correct	generate	Run3	generate/STIM_009.jpg
1984.238	0.997	correct	generate	Run3	generate/STIM_009.jpg
1988.756	1.755	correct	generate	Run3	generate/STIM_009.jpg
1992.596	1.031	correct	generate	Run3	generate/STIM_009.jpg
1997.593	1.935	correct	generate	Run3	generate/STIM_010.jpg
2001.869	1.764	correct	generate	Run3	generate/STIM_010.jpg
2006.526	1.664	correct	generate	Run3	generate/STIM_010.jpg
2011.537	2.089	correct	generate	Run3	generate/STIM_010.jpg
2016.403	1.359	correct	generate	Run3	generate/STIM_010.jpg
2021.693	1.351	correct	generate	Run3	generate/STIM_011.jpg
2026.581	1.026	correct	generate	Run3	generate/STIM_011.jpg
2030.292	1.257	correct	generate	Run3	generate/STIM_011.jpg
2034.758	1.089	correct	generate	Run3	generate/STIM_011.jpg
2038.315	1.443	correct	generate	Run3	generate/STIM_011.jpg
2043.373	2.083	correct	generate	Run3	generate/STIM_012.jpg
2048.917	1.26	correct	generate	Run3	generate/STIM_012.jpg
2053.69	1.188	correct	generate	Run3	generate/STIM_012.jpg
2058.043	2.022	correct	generate	Run3	generate/STIM_012.jpg
2062.084	1.941	correct	generate	Run3	generate/STIM_012.jpg
2066.931	1.768	correct	generate	Run3	generate/STIM_013.jpg
2072.245	1.715	correct	generate	Run3	generate/STIM_013.jpg
2076.867	1.84	correct	generate	Run3	generate/STIM_013.jpg
2080.761	1.101	correct	generate	Run3	generate/STIM_013.jpg
2085.499	0.946	correct	generate	Run3	generate/STIM_013.jpg
2089.496	1.035	correct	generate	Run3	generate/STIM_014.jpg
2094.371	1.171	correct	generate	Run3	generate/STIM_014.jpg
2098.25	1.327	correct	generate	Run3	generate/STIM_014.jpg
2101.761	1.649	correct	generate	Run3	generate/STIM_014.jpg
2107.074	1.93	correct	generate	Run3	generate/STIM_014.jpg
2111.282	1.981	correct	generate	Run3	generate/STIM_015.jpg
2116.296	2.022	correct	generate	Run3	generate/STIM_015.jpg
2122.193	1.543	correct	generate	Run3	generate/STIM_015.jpg
2125.956	1.873	correct	generate	Run3	generate/STIM_015.jpg
2130.805	1.901	correct	generate	Run3	generate/STIM_015.jpg
2136.062	1.11	correct	generate	Run3	generate/STIM_016.jpg
2140.408	1.785	incorrect	generate	Run3	generate/STIM_016.jpg
2145.464	1.496	correct	generate	Run3	generate/STIM_016.jpg
2149.861	1.149	correct	generate	Run3	generate/STIM_016.jpg
2154.876	1.632	correct	generate	Run3	generate/STIM_016.jpg
2159.076	0.992	correct	generate	Run3	generate/STIM_017.jpg
2162.113	2.045	correct	generate	Run3	generate/STIM_017.jpg
2167.519	1.322	correct	generate	Run3	generate/STIM_017.jpg
2171.386	1.742	correct	generate	Run3	generate/STIM_017.jpg
2175.123	1.042	correct	generate	Run3	generate/STIM_017.jpg
2178.19	1.059	correct	generate	Run3	generate/STIM_018.jpg
2182.683	2.082	correct	generate	Run3	generate/STIM_018.jpg
2188.672	1.782	incorrect	generate	Run3	generate/STIM_018.jpg
2194.11	0.867	correct	generate	Run3	generate/STIM_018.jpg
2197.941	1.252	correct	generate	Run3	generate/STIM_018.jpg
2202.235	1.89	correct	generate	Run3	generate/STIM_019.jpg
2207.846	1.19	correct	generate	Run3	generate/STIM_019.jpg
2211.947	0.914	correct	generate	Run3	generate/STIM_019.jpg
2215.627	1.654	correct	generate	Run3	generate/STIM_019.jpg
2219.462	0.896	correct	generate	Run3	generate/STIM_019.jpg
2222.587	0.979	correct	generate	Run3	generate/STIM_020.jpg
2225.805	1.578	correct	generate	Run3	generate/STIM_020.jpg
2230.74	2.025	correct	generate	Run3	generate/STIM_020.jpg
2235.548	1.549	correct	generate	Run3	generate/STIM_020.jpg
2240.36	2.001	correct	generate	Run3	generate/STIM_020.jpg
2245.45	1.73	correct	generate	Run3	generate/STIM_021.jpg
2251.056	1.912	correct	generate	Run3	generate/STIM_021.jpg
2256.685	1.09	correct	generate	Run3	generate/STIM_021.jpg
2261.437	0.917	correct	generate	Run3	generate/STIM_021.jpg
2266.134	1.063	correct	generate	Run3	generate/STIM_021.jpg
2270.266	1.085	incorrect	generate	Run3	generate/STIM_022.jpg
2274.025	1.63	incorrect	generate	Run3	generate/STIM_022.jpg
2279.416	1.39	correct	generate	Run3	generate/STIM_022.jpg
2283.855	1.816	correct	generate	Run3	generate/STIM_022.jpg
2288.196	1.68	correct	generate	Run3	generate/STIM_022.jpg
2292.13	1.44	incorrect	generate	Run3	generate/STIM_023.jpg
2296.32	1.297	incorrect	generate	Run3	generate/STIM_023.jpg
2299.912	1.365	correct	generate	Run3	generate/STIM_023.jpg
2304.527	1.316	correct	generate	Run3	generate/STIM_023.jpg
2309.168	1.023	incorrect	generate	Run3	generate/STIM_023.jpg
2312.197	1.83	correct	generate	Run3	generate/STIM_024.jpg
2316.827	0.856	correct	generate	Run3	generate/STIM_024.jpg
2319.918	1.338	correct	generate	Run3	generate/STIM_024.jpg
2323.383	2.108	correct	generate	Run3	generate/STIM_024.jpg
2329.183	2.007	correct	generate	Run3	generate/STIM_024.jpg
2334.923	0.967	correct	repeat	Run3	repeat/STIM_000.jpg
2338.939	0.535	correct	repeat	Run3	repeat/STIM_000.jpg
2341.892	0.719	correct	repeat	Run3	repeat/STIM_000.jpg
2345.189	0.773	correct	repeat	Run3	repeat/STIM_000.jpg
2348.563	0.642	correct	repeat	Run3	repeat/STIM_000.jpg
2352.972	0.666	correct	repeat	Run3	repeat/STIM_001.jpg
2355.786	0.952	correct	repeat	Run3	repeat/STIM_001.jpg
2359.788	0.733	correct	repeat	Run3	repeat/STIM_001.jpg
2363.315	0.936	correct	repeat	Run3	repeat/STIM_001.jpg
2366.561	0.553	correct	repeat	Run3	repeat/STIM_001.jpg
2370.075	0.734	correct	repeat	Run3	repeat/STIM_002.jpg
2373.395	0.63	correct	repeat	Run3	repeat/STIM_002.jpg
2377.467	0.726	correct	repeat	Run3	repeat/STIM_002.jpg
2381.66	0.988	correct	repeat	Run3	repeat/STIM_002.jpg
2385.118	0.728	correct	repeat	Run3	repeat/STIM_002.jpg
2388.314	0.822	correct	repeat	Run3	repeat/STIM_003.jpg
2392.864	0.881	correct	repeat	Run3	repeat/STIM_003.jpg
2396.557	0.953	correct	repeat	Run3	repeat/STIM_003.jpg
2400.472	0.96	correct	repeat	Run3	repeat/STIM_003.jpg
2404.213	0.593	correct	repeat	Run3	repeat/STIM_003.jpg
2407.571	0.868	correct	repeat	Run3	repeat/STIM_004.jpg
2411.475	0.981	correct	repeat	Run3	repeat/STIM_004.jpg
2414.515	0.506	correct	repeat	Run3	repeat/STIM_004.jpg
2418.026	0.844	correct	repeat	Run3	repeat/STIM_004.jpg
2421.322	0.577	correct	repeat	Run3	repeat/STIM_004.jpg
2424.356	0.904	correct	repeat	Run3	repeat/STIM_005.jpg
2428.576	0.947	correct	repeat	Run3	repeat/STIM_005.jpg
2432.31	0.569	correct	repeat	Run3	repeat/STIM_005.jpg
2435.017	0.715	correct	repeat	Run3	repeat/STIM_005.jpg
2439.252	0.51	correct	repeat	Run3	repeat/STIM_005.jpg
2442.575	0.75	correct	repeat	Run3	repeat/STIM_006.jpg
2446.34	0.891	correct	repeat	Run3	repeat/STIM_006.jpg
2450.515	0.874	correct	repeat	Run3	repeat/STIM_006.jpg
2455.134	0.994	correct	repeat	Run3	repeat/STIM_006.jpg
2459.792	0.522	correct	repeat	Run3	repeat/STIM_006.jpg
2462.463	0.836	correct	repeat	Run3	repeat/STIM_007.jpg
2465.417	0.787	correct	repeat	Run3	repeat/STIM_007.jpg
2469.993	0.808	correct	repeat	Run3	repeat/STIM_007.jpg
2473.956	0.981	correct	repeat	Run3	repeat/STIM_007.jpg
2477.967	0.852	correct	repeat	Run3	repeat/STIM_007.jpg
2481.619	0.594	correct	repeat	Run3	repeat/STIM_008.jpg
2485.992	0.588	correct	repeat	Run3	repeat/STIM_008.jpg
2489.087	0.538	incorrect	repeat	Run3	repeat/STIM_008.jpg
2492.917	0.754	correct	repeat	Run3	repeat/STIM_008.jpg
2497.296	0.864	correct	repeat	Run3	repeat/STIM_008.jpg
2501.71	0.664	correct	repeat	Run3	repeat/STIM_009.jpg
2505.224	0.54	correct	repeat	Run3	repeat/STIM_009.jpg
2508.355	0.926	incorrect	repeat	Run3	repeat/STIM_009.jpg
2513.138	0.992	correct	repeat	Run3	repeat/STIM_009.jpg
2518.058	0.943	correct	repeat	Run3	repeat/STIM_009.jpg
2522.147	0.706	incorrect	repeat	Run3	repeat/STIM_010.jpg
2526.04	0.688	correct	repeat	Run3	repeat/STIM_010.jpg
2529.357	0.89	incorrect	repeat	Run3	repeat/STIM_010.jpg
2532.411	0.937	correct	repeat	Run3	repeat/STIM_010.jpg
2536.699	0.799	correct	repeat	Run3	repeat/STIM_010.jpg
2541.391	0.77	correct	repeat	Run3	repeat/STIM_011.jpg
2544.535	0.966	correct	repeat	Run3	repeat/STIM_011.jpg
2549.421	0.674	correct	repeat	Run3	repeat/STIM_011.jpg
2552.382	0.607	incorrect	repeat	Run3	repeat/STIM_011.jpg
2555.455	0.629	correct	repeat	Run3	repeat/STIM_011.jpg
2559.367	0.914	correct	repeat	Run3	repeat/STIM_012.jpg
2562.529	0.731	correct	repeat	Run3	repeat/STIM_012.jpg
2566.012	0.637	correct	repeat	Run3	repeat/STIM_012.jpg
2569.187	0.65	correct	repeat	Run3	repeat/STIM_012.jpg
2573.51	0.645	correct	repeat	Run3	repeat/STIM_012.jpg
2576.917	0.629	correct	repeat	Run3	repeat/STIM_013.jpg
2579.894	0.975	correct	repeat	Run3	repeat/STIM_013.jpg
2582.967	0.879	correct	repeat	Run3	repeat/STIM_013.jpg
2587.439	0.548	correct	repeat	Run3	repeat/STIM_013.jpg
2590.487	0.888	correct	repeat	Run3	repeat/STIM_013.jpg
2595.316	0.711	correct	repeat	Run3	repeat/STIM_014.jpg
2598.16	0.747	correct	repeat	Run3	repeat/STIM_014.jpg
2602.789	0.679	correct	repeat	Run3	repeat/STIM_014.jpg
2605.664	0.688	correct	repeat	Run3	repeat/STIM_014.jpg
2609.424	0.828	correct	repeat	Run3	repeat/STIM_014.jpg
2613.21	2.046	correct	generate	Run4	generate/STIM_000.jpg
2617.996	0.848	correct	generate	Run4	generate/STIM_000.jpg
2621.157	1.038	correct	generate	Run4	generate/STIM_000.jpg
2625.078	1.856	correct	generate	Run4	generate/STIM_000.jpg
2629.869	1.973	correct	generate	Run4	generate/STIM_000.jpg
2635.081	1.666	correct	generate	Run4	generate/STIM_001.jpg
2639.206	1.55	correct	generate	Run4	generate/STIM_001.jpg
2644.335	1.556	correct	generate	Run4	generate/STIM_001.jpg
2649.28	0.902	correct	generate	Run4	generate/STIM_001.jpg
2653.778	1.151	correct	generate	Run4	generate/STIM_001.jpg
2657.761	1.519	correct	generate	Run4	generate/STIM_002.jpg
2661.689	1.36	correct	generate	Run4	generate/STIM_002.jpg
2665.971	1.325	correct	generate	Run4	generate/STIM_002.jpg
2670.824	1.65	correct	generate	Run4	generate/STIM_002.jpg
2674.47	1.473	incorrect	generate	Run4	generate/STIM_002.jpg
2678.937	1.661	correct	generate	Run4	generate/STIM_003.jpg
2683.96	1.617	correct	generate	Run4	generate/STIM_003.jpg
2688.846	1.252	incorrect	generate	Run4	generate/STIM_003.jpg
2692.503	1.906	correct	generate	Run4	generate/STIM_003.jpg
2697.693	1.178	correct	generate	Run4	generate/STIM_003.jpg
2701.322	1.224	correct	generate	Run4	generate/STIM_004.jpg
2706.424	1.177	correct	generate	Run4	generate/STIM_004.jpg
2711.018	1.247	incorrect	generate	Run4	generate/STIM_004.jpg
2715.288	1.392	correct	generate	Run4	generate/STIM_004.jpg
2719.773	1.582	correct	generate	Run4	generate/STIM_004.jpg
2724.506	1.137	correct	generate	Run4	generate/STIM_005.jpg
2729.474	0.893	incorrect	generate	Run4	generate/STIM_005.jpg
2732.696	0.936	correct	generate	Run4	generate/STIM_005.jpg
2736.309	1.905	correct	generate	Run4	generate/STIM_005.jpg
2740.545	1.606	correct	generate	Run4	generate/STIM_005.jpg
2744.509	1.058	correct	generate	Run4	generate/STIM_006.jpg
2749.441	2.02	correct	generate	Run4	generate/STIM_006.jpg
2754.462	1.09	correct	generate	Run4	generate/STIM_006.jpg
2758.83	1.329	correct	generate	Run4	generate/STIM_006.jpg
2763.091	1.384	correct	generate	Run4	generate/STIM_006.jpg
2767.456	1.61	correct	generate	Run4	generate/STIM_007.jpg
2771.603	1.389	correct	generate	Run4	generate/STIM_007.jpg
2775.594	1.597	incorrect	generate	Run4	generate/STIM_007.jpg
2779.725	0.978	correct	generate	Run4	generate/STIM_007.jpg
2784.195	1.334	correct	generate	Run4	generate/STIM_007.jpg
2788.807	0.917	correct	generate	Run4	generate/STIM_008.jpg
2792.054	1.266	correct	generate	Run4	generate/STIM_008.jpg
2796.003	1.918	correct	generate	Run4	generate/STIM_008.jpg
2801.549	2.062	correct	generate	Run4	generate/STIM_008.jpg
2806.437	0.874	correct	generate	Run4	generate/STIM_008.jpg
2811.157	1.31	correct	generate	Run4	generate/STIM_009.jpg
2816.018	1.8	correct	generate	Run4	generate/STIM_009.jpg
2819.903	1.316	correct	generate	Run4	generate/STIM_009.jpg
2825.152	1.284	incorrect	generate	Run4	generate/STIM_009.jpg
2830.38	1.8	correct	generate	Run4	generate/STIM_009.jpg
2834.525	2.065	correct	generate	Run4	generate/STIM_010.jpg
2840.453	1.127	correct	generate	Run4	generate/STIM_010.jpg
2845.476	1.149	correct	generate	Run4	generate/STIM_010.jpg
2848.896	1.706	correct	generate	Run4	generate/STIM_010.jpg
2853.741	1.99	correct	generate	Run4	generate/STIM_010.jpg
2859.339	1.083	correct	generate	Run4	generate/STIM_011.jpg
2864.202	1.261	correct	generate	Run4	generate/STIM_011.jpg
2869.332	1.462	incorrect	generate	Run4	generate/STIM_011.jpg
2874.313	1.537	correct	generate	Run4	generate/STIM_011.jpg
2877.958	1.926	correct	generate	Run4	generate/STIM_011.jpg
2882.811	2.011	correct	generate	Run4	generate/STIM_012.jpg
2887.343	1.23	correct	generate	Run4	generate/STIM_012.jpg
2892.126	0.955	incorrect	generate	Run4	generate/STIM_012.jpg
2895.492	0.855	correct	generate	Run4	generate/STIM_012.jpg
2900.317	1.935	correct	generate	Run4	generate/STIM_012.jpg
2904.816	1.804	correct	generate	Run4	generate/STIM_013.jpg
2909.435	1.485	correct	generate	Run4	generate/STIM_013.jpg
2914.556	1.904	correct	generate	Run4	generate/STIM_013.jpg
2919.31	0.888	correct	generate	Run4	generate/STIM_013.jpg
2923.034	1.824	correct	generate	Run4	generate/STIM_013.jpg
2928.504	1.051	correct	generate	Run4	generate/STIM_014.jpg
2933.3	1.218	correct	generate	Run4	generate/STIM_014.jpg
2937.137	1.383	correct	generate	Run4	generate/STIM_014.jpg
2941.675	1.51	correct	generate	Run4	generate/STIM_014.jpg
2945.736	1.346	correct	generate	Run4	generate/STIM_014.jpg
2949.074	2.066	correct	generate	Run4	generate/STIM_015.jpg
2953.417	2.034	correct	generate	Run4	generate/STIM_015.jpg
2957.859	1.889	incorrect	generate	Run4	generate/STIM_015.jpg
2962.983	1.15	correct	generate	Run4	generate/STIM_015.jpg
2967.953	2.092	correct	generate	Run4	generate/STIM_015.jpg
2973.268	1.917	correct	generate	Run4	generate/STIM_016.jpg
2979.032	2.102	correct	generate	Run4	generate/STIM_016.jpg
2983.802	2.102	correct	generate	Run4	generate/STIM_016.jpg
2989.712	1.087	correct	generate	Run4	generate/STIM_016.jpg
2994.535	1.031	correct	generate	Run4	generate/STIM_016.jpg
2998.584	0.961	correct	generate	Run4	generate/STIM_017.jpg
3002.402	0.988	correct	generate	Run4	generate/STIM_017.jpg
3006.244	1.42	correct	generate	Run4	generate/STIM_017.jpg
3011.618	1.751	correct	generate	Run4	generate/STIM_017.jpg
3016.579	0.974	correct	generate	Run4	generate/STIM_017.jpg
3020.558	2.105	correct	generate	Run4	generate/STIM_018.jpg
3024.817	2.012	correct	generate	Run4	generate/STIM_018.jpg
3029.739	1.519	correct	generate	Run4	generate/STIM_018.jpg
3033.939	1.643	correct	generate	Run4	generate/STIM_018.jpg
3038.384	1.768	correct	generate	Run4	generate/STIM_018.jpg
3042.579	1.589	correct	generate	Run4	generate/STIM_019.jpg
3047.085	2.007	correct	generate	Run4	generate/STIM_019.jpg
3051.421	1.379	correct	generate	Run4	generate/STIM_019.jpg
3055.979	1.117	correct	generate	Run4	generate/STIM_019.jpg
3060.412	1.848	incorrect	generate	Run4	generate/STIM_019.jpg
3065.249	1.343	correct	generate	Run4	generate/STIM_020.jpg
3068.659	1.257	correct	generate	Run4	generate/STIM_020.jpg
3073.151	1.98	correct	generate	Run4	generate/STIM_020.jpg
3078.461	0.964	correct	generate	Run4	generate/STIM_020.jpg
3082.564	1.613	correct	generate	Run4	generate/STIM_020.jpg
3087.507	1.83	correct	generate	Run4	generate/STIM_021.jpg
3091.657	1.866	correct	generate	Run4	generate/STIM_021.jpg
3096.11	1.49	correct	generate	Run4	generate/STIM_021.jpg
3100.358	1.037	incorrect	generate	Run4	generate/STIM_021.jpg
3103.754	0.872	incorrect	generate	Run4	generate/STIM_021.jpg
3108.115	1.766	correct	generate	Run4	generate/STIM_022.jpg
3112.059	0.86	correct	generate	Run4	generate/STIM_022.jpg
3116.369	0.972	correct	generate	Run4	generate/STIM_022.jpg
3120.844	1.721	correct	generate	Run4	generate/STIM_022.jpg
3125.56	1.25	correct	generate	Run4	generate/STIM_022.jpg
3128.922	1.799	correct	generate	Run4	generate/STIM_023.jpg
3133.568	2.013	incorrect	generate	Run4	generate/STIM_023.jpg
3138.342	1.63	correct	generate	Run4	generate/STIM_023.jpg
3142.89	1.989	correct	generate	Run4	generate/STIM_023.jpg
3148.834	1.26	correct	generate	Run4	generate/STIM_023.jpg
3152.991	1.352	incorrect	generate	Run4	generate/STIM_024.jpg
3156.926	1.226	correct	generate	Run4	generate/STIM_024.jpg
3161.476	0.868	correct	generate	Run4	generate/STIM_024.jpg
3166.251	1.863	correct	generate	Run4	generate/STIM_024.jpg
3172.021	1.976	correct	generate	Run4	generate/STIM_024.jpg
3176.75	0.896	correct	repeat	Run4	repeat/STIM_000.jpg
3180.428	0.568	correct	repeat	Run4	repeat/STIM_000.jpg
3184.876	0.542	incorrect	repeat	Run4	repeat/STIM_000.jpg
3188.862	0.844	correct	repeat	Run4	repeat/STIM_000.jpg
3192.021	0.606	correct	repeat	Run4	repeat/STIM_000.jpg
3196.414	0.665	correct	repeat	Run4	repeat/STIM_001.jpg
3200.698	0.524	correct	repeat	Run4	repeat/STIM_001.jpg
3203.596	0.666	correct	repeat	Run4	repeat/STIM_001.jpg
3206.483	0.848	correct	repeat	Run4	repeat/STIM_001.jpg
3211.089	0.776	correct	repeat	Run4	repeat/STIM_001.jpg
3214.649	0.613	correct	repeat	Run4	repeat/STIM_002.jpg
3218.417	0.561	correct	repeat	Run4	repeat/STIM_002.jpg
3222.448	0.813	incorrect	repeat	Run4	repeat/STIM_002.jpg
3225.538	0.921	correct	repeat	Run4	repeat/STIM_002.jpg
3229.96	0.896	correct	repeat	Run4	repeat/STIM_002.jpg
3234.292	0.654	correct	repeat	Run4	repeat/STIM_003.jpg
3238.02	0.987	correct	repeat	Run4	repeat/STIM_003.jpg
3242.078	0.721	correct	repeat	Run4	repeat/STIM_003.jpg
3245.298	0.769	correct	repeat	Run4	repeat/STIM_003.jpg
3248.665	0.805	correct	repeat	Run4	repeat/STIM_003.jpg
3252.351	0.552	correct	repeat	Run4	repeat/STIM_004.jpg
3256.859	0.913	correct	repeat	Run4	repeat/STIM_004.jpg
3260.285	0.562	correct	repeat	Run4	repeat/STIM_004.jpg
3264.538	0.622	correct	repeat	Run4	repeat/STIM_004.jpg
3268.508	0.684	correct	repeat	Run4	repeat/STIM_004.jpg
3271.422	0.58	correct	repeat	Run4	repeat/STIM_005.jpg
3275.916	0.885	correct	repeat	Run4	repeat/STIM_005.jpg
3279.58	1.0	correct	repeat	Run4	repeat/STIM_005.jpg
3282.866	0.99	correct	repeat	Run4	repeat/STIM_005.jpg
3287.628	0.949	correct	repeat	Run4	repeat/STIM_005.jpg
3291.927	0.915	correct	repeat	Run4	repeat/STIM_006.jpg
3295.852	0.766	correct	repeat	Run4	repeat/STIM_006.jpg
3300.535	0.88	correct	repeat	Run4	repeat/STIM_006.jpg
3303.968	0.652	correct	repeat	Run4	repeat/STIM_006.jpg
3308.418	0.924	incorrect	repeat	Run4	repeat/STIM_006.jpg
3312.855	0.802	correct	repeat	Run4	repeat/STIM_007.jpg
3316.08	0.516	correct	repeat	Run4	repeat/STIM_007.jpg
3319.15	0.534	correct	repeat	Run4	repeat/STIM_007.jpg
3321.927	0.558	correct	repeat	Run4	repeat/STIM_007.jpg
3326.208	0.562	correct	repeat	Run4	repeat/STIM_007.jpg
3330.295	1.004	correct	repeat	Run4	repeat/STIM_008.jpg
3334.055	0.862	correct	repeat	Run4	repeat/STIM_008.jpg
3338.396	0.824	correct	repeat	Run4	repeat/STIM_008.jpg
3341.915	0.795	correct	repeat	Run4	repeat/STIM_008.jpg
3345.313	0.536	correct	repeat	Run4	repeat/STIM_008.jpg
3348.825	0.844	correct	repeat	Run4	repeat/STIM_009.jpg
3353.454	0.788	correct	repeat	Run4	repeat/STIM_009.jpg
3356.639	0.843	correct	repeat	Run4	repeat/STIM_009.jpg
3360.761	0.682	correct	repeat	Run4	repeat/STIM_009.jpg
3365.129	0.67	correct	repeat	Run4	repeat/STIM_009.jpg
3368.939	0.619	correct	repeat	Run4	repeat/STIM_010.jpg
3373.178	0.704	correct	repeat	Run4	repeat/STIM_010.jpg
3377.641	0.748	correct	repeat	Run4	repeat/STIM_010.jpg
3381.119	0.582	correct	repeat	Run4	repeat/STIM_010.jpg
3384.771	0.778	correct	repeat	Run4	repeat/STIM_010.jpg
3388.065	0.782	correct	repeat	Run4	repeat/STIM_011.jpg
3391.798	0.619	correct	repeat	Run4	repeat/STIM_011.jpg
3394.98	0.846	correct	repeat	Run4	repeat/STIM_011.jpg
3399.055	0.949	correct	repeat	Run4	repeat/STIM_011.jpg
3402.91	0.527	correct	repeat	Run4	repeat/STIM_011.jpg
3406.558	0.84	correct	repeat	Run4	repeat/STIM_012.jpg
3410.98	0.636	correct	repeat	Run4	repeat/STIM_012.jpg
3415.408	0.736	correct	repeat	Run4	repeat/STIM_012.jpg
3418.606	0.785	correct	repeat	Run4	repeat/STIM_012.jpg
3421.83	0.673	correct	repeat	Run4	repeat/STIM_012.jpg
3426.074	0.732	correct	repeat	Run4	repeat/STIM_013.jpg
3429.908	0.511	correct	repeat	Run4	repeat/STIM_013.jpg
3433.659	0.538	correct	repeat	Run4	repeat/STIM_013.jpg
3436.495	0.528	incorrect	repeat	Run4	repeat/STIM_013.jpg
3440.344	0.74	correct	repeat	Run4	repeat/STIM_013.jpg
3443.244	0.858	correct	repeat	Run4	repeat/STIM_014.jpg
3447.586	0.869	correct	repeat	Run4	repeat/STIM_014.jpg
3452.339	0.753	correct	repeat	Run4	repeat/STIM_014.jpg
3455.298	0.585	correct	repeat	Run4	repeat/STIM_014.jpg
3458.282	0.852	correct	repeat	Run4	repeat/STIM_014.jpg
