onset	duration	accuracy	trial_type	learning_stage	stimulus
0.0	1.697	incorrect	generate	Run1	generate/STIM_000.jpg
4.91	1.346	correct	generate	Run1	generate/STIM_000.jpg
8.516	2.061	correct	generate	Run1	generate/STIM_000.jpg
13.052	1.821	correct	generate	Run1	generate/STIM_000.jpg
17.86	0.798	correct	generate	Run1	generate/STIM_000.jpg
21.08	1.642	incorrect	generate	Run1	generate/STIM_001.jpg
25.72	1.527	correct	generate	Run1	generate/STIM_001.jpg
30.532	1.86	correct	generate	Run1	generate/STIM_001.jpg
35.049	1.473	correct	generate	Run1	generate/STIM_001.jpg
40.364	1.48	correct	generate	Run1	generate/STIM_001.jpg
44.931	1.291	incorrect	generate	Run1	generate/STIM_002.jpg
49.279	1.23	correct	generate	Run1	generate/STIM_002.jpg
54.354	1.536	correct	generate	Run1	generate/STIM_002.jpg
59.399	1.235	incorrect	generate	Run1	generate/STIM_002.jpg
62.76	1.333	incorrect	generate	Run1	generate/STIM_002.jpg
66.962	1.92	incorrect	generate	Run1	generate/STIM_003.jpg
71.878	2.125	correct	generate	Run1	generate/STIM_003.jpg
77.255	0.939	incorrect	generate	Run1	generate/STIM_003.jpg
81.483	1.091	correct	generate	Run1	generate/STIM_003.jpg
85.081	1.478	correct	generate	Run1	generate/STIM_003.jpg
90.04	1.574	incorrect	generate	Run1	generate/STIM_004.jpg
95.36	1.427	correct	generate	Run1	generate/STIM_004.jpg
99.544	1.258	incorrect	generate	Run1	generate/STIM_004.jpg
103.426	1.448	correct	generate	Run1	generate/STIM_004.jpg
106.92	0.926	incorrect	generate	Run1	generate/STIM_004.jpg
110.246	1.934	incorrect	generate	Run1	generate/STIM_005.jpg
115.378	1.059	correct	generate	Run1	generate/STIM_005.jpg
118.75	1.802	correct	generate	Run1	generate/STIM_005.jpg
124.45	1.396	correct	generate	Run1	generate/STIM_005.jpg
128.48	1.819	correct	generate	Run1	generate/STIM_005.jpg
133.678	1.682	incorrect	generate	Run1	generate/STIM_006.jpg
138.359	1.048	incorrect	generate	Run1	generate/STIM_006.jpg
142.24	1.219	correct	generate	Run1	generate/STIM_006.jpg
146.732	1.185	incorrect	generate	Run1	generate/STIM_006.jpg
150.348	1.922	incorrect	generate	Run1	generate/STIM_006.jpg
155.943	2.053	incorrect	generate	Run1	generate/STIM_007.jpg
160.63	2.237	correct	generate	Run1	generate/STIM_007.jpg
165.797	1.472	correct	generate	Run1	generate/STIM_007.jpg
170.422	1.02	correct	generate	Run1	generate/STIM_007.jpg
173.542	0.966	incorrect	generate	Run1	generate/STIM_007.jpg
177.31	2.135	correct	generate	Run1	generate/STIM_008.jpg
181.987	2.037	incorrect	generate	Run1	generate/STIM_008.jpg
186.693	1.124	correct	generate	Run1	generate/STIM_008.jpg
191.759	1.447	correct	generate	Run1	generate/STIM_008.jpg
196.537	0.882	correct	generate	Run1	generate/STIM_008.jpg
199.518	1.487	correct	generate	Run1	generate/STIM_009.jpg
203.675	1.406	incorrect	generate	Run1	generate/STIM_009.jpg
207.471	1.725	incorrect	generate	Run1	generate/STIM_009.jpg
212.414	0.87	correct	generate	Run1	generate/STIM_009.jpg
217.247	1.447	correct	generate	Run1	generate/STIM_009.jpg
221.872	2.248	correct	generate	Run1	generate/STIM_010.jpg
227.221	1.411	incorrect	generate	Run1	generate/STIM_010.jpg
232.342	1.105	correct	generate	Run1	generate/STIM_010.jpg
236.478	1.409	correct	generate	Run1	generate/STIM_010.jpg
241.37	1.479	incorrect	generate	Run1	generate/STIM_010.jpg
245.448	1.948	correct	generate	Run1	generate/STIM_011.jpg
250.201	1.369	correct	generate	Run1	generate/STIM_011.jpg
254.935	1.921	correct	generate	Run1	generate/STIM_011.jpg
259.415	1.903	correct	generate	Run1	generate/STIM_011.jpg
264.761	1.411	correct	generate	Run1	generate/STIM_011.jpg
269.237	2.371	incorrect	generate	Run1	generate/STIM_012.jpg
274.637	2.237	correct	generate	Run1	generate/STIM_012.jpg
279.122	1.02	correct	generate	Run1	generate/STIM_012.jpg
283.368	1.128	correct	generate	Run1	generate/STIM_012.jpg
288.244	1.553	correct	generate	Run1	generate/STIM_012.jpg
293.578	1.471	correct	generate	Run1	generate/STIM_013.jpg
298.466	2.006	correct	generate	Run1	generate/STIM_013.jpg
302.764	1.607	correct	generate	Run1	generate/STIM_013.jpg
307.527	1.202	correct	generate	Run1	generate/STIM_013.jpg
311.223	1.271	correct	generate	Run1	generate/STIM_013.jpg
314.802	1.565	incorrect	generate	Run1	generate/STIM_014.jpg
318.479	0.994	correct	generate	Run1	generate/STIM_014.jpg
322.027	1.217	correct	generate	Run1	generate/STIM_014.jpg
325.68	1.269	incorrect	generate	Run1	generate/STIM_014.jpg
329.735	1.231	incorrect	generate	Run1	generate/STIM_014.jpg
332.994	1.747	correct	generate	Run1	generate/STIM_015.jpg
337.015	1.635	correct	generate	Run1	generate/STIM_015.jpg
341.544	1.467	incorrect	generate	Run1	generate/STIM_015.jpg
346.427	2.041	incorrect	generate	Run1	generate/STIM_015.jpg
351.942	1.409	incorrect	generate	Run1	generate/STIM_015.jpg
355.835	1.036	correct	generate	Run1	generate/STIM_016.jpg
359.4	1.521	correct	generate	Run1	generate/STIM_016.jpg
363.513	1.951	correct	generate	Run1	generate/STIM_016.jpg
368.219	1.258	correct	generate	Run1	generate/STIM_016.jpg
372.57	1.194	correct	generate	Run1	generate/STIM_016.jpg
376.726	1.994	correct	generate	Run1	generate/STIM_017.jpg
382.246	1.185	incorrect	generate	Run1	generate/STIM_017.jpg
386.612	1.16	correct	generate	Run1	generate/STIM_017.jpg
391.408	1.866	incorrect	generate	Run1	generate/STIM_017.jpg
396.461	1.556	correct	generate	Run1	generate/STIM_017.jpg
401.276	2.182	correct	generate	Run1	generate/STIM_018.jpg
406.427	2.103	correct	generate	Run1	generate/STIM_018.jpg
410.67	1.007	correct	generate	Run1	generate/STIM_018.jpg
414.484	1.909	correct	generate	Run1	generate/STIM_018.jpg
419.356	1.567	correct	generate	Run1	generate/STIM_018.jpg
424.237	2.346	correct	generate	Run1	generate/STIM_019.jpg
430.256	0.936	incorrect	generate	Run1	generate/STIM_019.jpg
433.823	0.921	correct	generate	Run1	generate/STIM_019.jpg
437.267	1.894	correct	generate	Run1	generate/STIM_019.jpg
442.331	1.571	correct	generate	Run1	generate/STIM_019.jpg
447.419	1.063	correct	generate	Run1	generate/STIM_020.jpg
450.875	1.461	incorrect	generate	Run1	generate/STIM_020.jpg
455.96	1.063	correct	generate	Run1	generate/STIM_020.jpg
459.199	1.787	correct	generate	Run1	generate/STIM_020.jpg
464.205	1.713	correct	generate	Run1	generate/STIM_020.jpg
469.75	1.841	incorrect	generate	Run1	generate/STIM_021.jpg
475.229	1.829	correct	generate	Run1	generate/STIM_021.jpg
480.632	0.953	incorrect	generate	Run1	generate/STIM_021.jpg
483.783	1.799	correct	generate	Run1	generate/STIM_021.jpg
488.514	1.912	correct	generate	Run1	generate/STIM_021.jpg
493.97	1.318	correct	generate	Run1	generate/STIM_022.jpg
497.512	1.41	incorrect	generate	Run1	generate/STIM_022.jpg
502.839	1.807	incorrect	generate	Run1	generate/STIM_022.jpg
507.357	1.332	correct	generate	Run1	generate/STIM_022.jpg
510.784	1.558	correct	generate	Run1	generate/STIM_022.jpg
514.493	1.923	correct	generate	Run1	generate/STIM_023.jpg
519.614	0.922	correct	generate	Run1	generate/STIM_023.jpg
522.712	1.918	incorrect	generate	Run1	generate/STIM_023.jpg
527.277	1.825	incorrect	generate	Run1	generate/STIM_023.jpg
532.969	1.68	correct	generate	Run1	generate/STIM_023.jpg
537.99	2.018	correct	generate	Run1	generate/STIM_024.jpg
542.75	1.522	correct	generate	Run1	generate/STIM_024.jpg
548.265	1.582	correct	generate	Run1	generate/STIM_024.jpg
552.623	1.896	incorrect	generate	Run1	generate/STIM_024.jpg
558.332	1.727	incorrect	generate	Run1	generate/STIM_024.jpg
563.446	0.648	correct	repeat	Run1	repeat/STIM_000.jpg
567.35	0.498	correct	repeat	Run1	repeat/STIM_000.jpg
571.085	0.676	correct	repeat	Run1	repeat/STIM_000.jpg
575.511	0.762	correct	repeat	Run1	repeat/STIM_000.jpg
579.009	0.7	correct	repeat	Run1	repeat/STIM_000.jpg
582.972	0.483	incorrect	repeat	Run1	repeat/STIM_001.jpg
585.825	0.687	correct	repeat	Run1	repeat/STIM_001.jpg
589.067	0.544	correct	repeat	Run1	repeat/STIM_001.jpg
591.618	0.424	correct	repeat	Run1	repeat/STIM_001.jpg
594.954	0.511	correct	repeat	Run1	repeat/STIM_001.jpg
598.454	0.702	correct	repeat	Run1	repeat/STIM_002.jpg
602.42	0.672	correct	repeat	Run1	repeat/STIM_002.jpg
605.494	0.577	correct	repeat	Run1	repeat/STIM_002.jpg
608.189	0.435	correct	repeat	Run1	repeat/STIM_002.jpg
611.851	0.678	correct	repeat	Run1	repeat/STIM_002.jpg
614.657	0.618	correct	repeat	Run1	repeat/STIM_003.jpg
617.945	0.419	correct	repeat	Run1	repeat/STIM_003.jpg
622.071	0.579	correct	repeat	Run1	repeat/STIM_003.jpg
625.797	0.43	correct	repeat	Run1	repeat/STIM_003.jpg
628.842	0.7	correct	repeat	Run1	repeat/STIM_003.jpg
632.828	0.756	correct	repeat	Run1	repeat/STIM_004.jpg
636.836	0.464	correct	repeat	Run1	repeat/STIM_004.jpg
639.7	0.487	incorrect	repeat	Run1	repeat/STIM_004.jpg
644.07	0.453	incorrect	repeat	Run1	repeat/STIM_004.jpg
646.54	0.76	correct	repeat	Run1	repeat/STIM_004.jpg
649.788	0.404	correct	repeat	Run1	repeat/STIM_005.jpg
652.762	0.561	correct	repeat	Run1	repeat/STIM_005.jpg
656.395	0.661	correct	repeat	Run1	repeat/STIM_005.jpg
659.69	0.477	correct	repeat	Run1	repeat/STIM_005.jpg
663.506	0.42	correct	repeat	Run1	repeat/STIM_005.jpg
667.169	0.753	incorrect	repeat	Run1	repeat/STIM_006.jpg
670.812	0.466	correct	repeat	Run1	repeat/STIM_006.jpg
675.022	0.538	correct	repeat	Run1	repeat/STIM_006.jpg
678.155	0.51	correct	repeat	Run1	repeat/STIM_006.jpg
682.499	0.633	correct	repeat	Run1	repeat/STIM_006.jpg
685.789	0.601	correct	repeat	Run1	repeat/STIM_007.jpg
689.914	0.746	correct	repeat	Run1	repeat/STIM_007.jpg
692.801	0.552	correct	repeat	Run1	repeat/STIM_007.jpg
696.914	0.578	correct	repeat	Run1	repeat/STIM_007.jpg
700.129	0.618	correct	repeat	Run1	repeat/STIM_007.jpg
704.029	0.773	correct	repeat	Run1	repeat/STIM_008.jpg
708.731	0.749	correct	repeat	Run1	repeat/STIM_008.jpg
712.768	0.432	correct	repeat	Run1	repeat/STIM_008.jpg
716.92	0.532	correct	repeat	Run1	repeat/STIM_008.jpg
721.274	0.446	correct	repeat	Run1	repeat/STIM_008.jpg
725.155	0.754	correct	repeat	Run1	repeat/STIM_009.jpg
728.986	0.594	correct	repeat	Run1	repeat/STIM_009.jpg
732.273	0.702	correct	repeat	Run1	repeat/STIM_009.jpg
735.654	0.735	correct	repeat	Run1	repeat/STIM_009.jpg
739.189	0.768	correct	repeat	Run1	repeat/STIM_009.jpg
742.547	0.802	correct	repeat	Run1	repeat/STIM_010.jpg
745.92	0.501	correct	repeat	Run1	repeat/STIM_010.jpg
750.214	0.492	incorrect	repeat	Run1	repeat/STIM_010.jpg
754.439	0.641	correct	repeat	Run1	repeat/STIM_010.jpg
758.432	0.624	correct	repeat	Run1	repeat/STIM_010.jpg
762.486	0.61	correct	repeat	Run1	repeat/STIM_011.jpg
765.113	0.776	correct	repeat	Run1	repeat/STIM_011.jpg
769.63	0.473	correct	repeat	Run1	repeat/STIM_011.jpg
773.171	0.526	correct	repeat	Run1	repeat/STIM_011.jpg
775.899	0.551	correct	repeat	Run1	repeat/STIM_011.jpg
779.802	0.759	correct	repeat	Run1	repeat/STIM_012.jpg
783.679	0.538	incorrect	repeat	Run1	repeat/STIM_012.jpg
786.407	0.533	correct	repeat	Run1	repeat/STIM_012.jpg
789.701	0.656	incorrect	repeat	Run1	repeat/STIM_012.jpg
793.179	0.514	correct	repeat	Run1	repeat/STIM_012.jpg
796.015	0.438	correct	repeat	Run1	repeat/STIM_013.jpg
798.502	0.432	correct	repeat	Run1	repeat/STIM_013.jpg
801.83	0.408	correct	repeat	Run1	repeat/STIM_013.jpg
804.976	0.629	correct	repeat	Run1	repeat/STIM_013.jpg
809.399	0.659	correct	repeat	Run1	repeat/STIM_013.jpg
813.957	0.545	correct	repeat	Run1	repeat/STIM_014.jpg
818.181	0.568	incorrect	repeat	Run1	repeat/STIM_014.jpg
821.578	0.492	incorrect	repeat	Run1	repeat/STIM_014.jpg
824.439	0.693	incorrect	repeat	Run1	repeat/STIM_014.jpg
827.591	0.681	correct	repeat	Run1	repeat/STIM_014.jpg
831.789	1.776	correct	generate	Run2	generate/STIM_000.jpg
836.796	1.23	correct	generate	Run2	generate/STIM_000.jpg
841.873	1.639	incorrect	generate	Run2	generate/STIM_000.jpg
845.745	1.205	incorrect	generate	Run2	generate/STIM_000.jpg
849.571	1.215	correct	generate	Run2	generate/STIM_000.jpg
853.754	1.418	correct	generate	Run2	generate/STIM_001.jpg
858.544	1.162	correct	generate	Run2	generate/STIM_001.jpg
863.473	0.79	correct	generate	Run2	generate/STIM_001.jpg
866.89	1.544	incorrect	generate	Run2	generate/STIM_001.jpg
872.343	0.757	correct	generate	Run2	generate/STIM_001.jpg
875.73	1.462	correct	generate	Run2	generate/STIM_002.jpg
880.474	1.927	incorrect	generate	Run2	generate/STIM_002.jpg
885.616	1.354	incorrect	generate	Run2	generate/STIM_002.jpg
889.129	1.2	correct	generate	Run2	generate/STIM_002.jpg
893.112	1.437	incorrect	generate	Run2	generate/STIM_002.jpg
898.521	2.041	correct	generate	Run2	generate/STIM_003.jpg
904.461	1.649	correct	generate	Run2	generate/STIM_003.jpg
909.719	1.466	correct	generate	Run2	generate/STIM_003.jpg
914.594	1.344	incorrect	generate	Run2	generate/STIM_003.jpg
918.517	1.095	incorrect	generate	Run2	generate/STIM_003.jpg
923.506	1.969	correct	generate	Run2	generate/STIM_004.jpg
927.52	0.772	correct	generate	Run2	generate/STIM_004.jpg
930.334	1.658	correct	generate	Run2	generate/STIM_004.jpg
935.264	0.873	correct	generate	Run2	generate/STIM_004.jpg
939.877	0.848	correct	generate	Run2	generate/STIM_004.jpg
943.167	1.784	correct	generate	Run2	generate/STIM_005.jpg
947.136	1.574	correct	generate	Run2	generate/STIM_005.jpg
952.122	1.153	correct	generate	Run2	generate/STIM_005.jpg
956.35	1.061	correct	generate	Run2	generate/STIM_005.jpg
959.867	0.695	correct	generate	Run2	generate/STIM_005.jpg
963.342	1.95	incorrect	generate	Run2	generate/STIM_006.jpg
967.317	1.045	correct	generate	Run2	generate/STIM_006.jpg
971.42	1.73	correct	generate	Run2	generate/STIM_006.jpg
975.167	0.854	correct	generate	Run2	generate/STIM_006.jpg
978.626	1.196	incorrect	generate	Run2	generate/STIM_006.jpg
983.42	2.004	correct	generate	Run2	generate/STIM_007.jpg
988.307	1.445	correct	generate	Run2	generate/STIM_007.jpg
992.271	1.414	correct	generate	Run2	generate/STIM_007.jpg
996.243	0.776	correct	generate	Run2	generate/STIM_007.jpg
999.712	1.179	incorrect	generate	Run2	generate/STIM_007.jpg
1003.443	1.276	correct	generate	Run2	generate/STIM_008.jpg
1008.418	1.511	incorrect	generate	Run2	generate/STIM_008.jpg
1013.534	0.784	correct	generate	Run2	generate/STIM_008.jpg
1017.575	0.792	incorrect	generate	Run2	generate/STIM_008.jpg
1021.389	1.612	incorrect	generate	Run2	generate/STIM_008.jpg
1026.964	0.954	correct	generate	Run2	generate/STIM_009.jpg
1030.145	0.89	incorrect	generate	Run2	generate/STIM_009.jpg
1034.062	0.746	incorrect	generate	Run2	generate/STIM_009.jpg
1037.888	0.763	correct	generate	Run2	generate/STIM_009.jpg
1042.189	1.524	correct	generate	Run2	generate/STIM_009.jpg
1047.408	1.623	correct	generate	Run2	generate/STIM_010.jpg
1052.479	1.163	correct	generate	Run2	generate/STIM_010.jpg
1056.555	1.606	correct	generate	Run2	generate/STIM_010.jpg
1061.424	1.122	correct	generate	Run2	generate/STIM_010.jpg
1064.827	1.687	correct	generate	Run2	generate/STIM_010.jpg
1070.496	1.692	correct	generate	Run2	generate/STIM_011.jpg
1074.686	1.108	correct	generate	Run2	generate/STIM_011.jpg
1078.378	1.642	incorrect	generate	Run2	generate/STIM_011.jpg
1082.44	1.508	correct	generate	Run2	generate/STIM_011.jpg
1087.769	0.829	correct	generate	Run2	generate/STIM_011.jpg
1091.421	1.334	correct	generate	Run2	generate/STIM_012.jpg
1095.072	0.959	correct	generate	Run2	generate/STIM_012.jpg
1098.161	0.847	correct	generate	Run2	generate/STIM_012.jpg
1102.808	0.734	correct	generate	Run2	generate/STIM_012.jpg
1106.633	0.679	correct	generate	Run2	generate/STIM_012.jpg
1111.029	1.065	correct	generate	Run2	generate/STIM_013.jpg
1115.487	1.589	correct	generate	Run2	generate/STIM_013.jpg
1119.459	1.162	incorrect	generate	Run2	generate/STIM_013.jpg
1124.051	1.256	incorrect	generate	Run2	generate/STIM_013.jpg
1129.205	1.581	correct	generate	Run2	generate/STIM_013.jpg
1134.645	0.963	correct	generate	Run2	generate/STIM_014.jpg
1138.163	1.871	correct	generate	Run2	generate/STIM_014.jpg
1143.824	0.797	correct	generate	Run2	generate/STIM_014.jpg
1148.506	0.826	correct	generate	Run2	generate/STIM_014.jpg
1152.16	1.172	incorrect	generate	Run2	generate/STIM_014.jpg
1155.897	1.371	incorrect	generate	Run2	generate/STIM_015.jpg
1160.559	0.84	correct	generate	Run2	generate/STIM_015.jpg
1165.133	1.069	correct	generate	Run2	generate/STIM_015.jpg
1169.18	1.08	correct	generate	Run2	generate/STIM_015.jpg
1173.972	0.679	correct	generate	Run2	generate/STIM_015.jpg
1176.954	1.044	correct	generate	Run2	generate/STIM_016.jpg
1180.465	1.159	correct	generate	Run2	generate/STIM_016.jpg
1185.464	0.757	correct	generate	Run2	generate/STIM_016.jpg
1189.753	0.774	incorrect	generate	Run2	generate/STIM_016.jpg
1193.146	1.415	correct	generate	Run2	generate/STIM_016.jpg
1198.265	0.975	correct	generate	Run2	generate/STIM_017.jpg
1201.409	1.463	correct	generate	Run2	generate/STIM_017.jpg
1205.25	0.787	correct	generate	Run2	generate/STIM_017.jpg
1209.839	1.499	correct	generate	Run2	generate/STIM_017.jpg
1213.516	1.643	correct	generate	Run2	generate/STIM_017.jpg
1217.674	1.542	correct	generate	Run2	generate/STIM_018.jpg
1221.78	1.237	correct	generate	Run2	generate/STIM_018.jpg
1226.094	1.311	correct	generate	Run2	generate/STIM_018.jpg
1230.622	0.751	correct	generate	Run2	generate/STIM_018.jpg
1233.742	1.069	incorrect	generate	Run2	generate/STIM_018.jpg
1238.14	2.018	incorrect	generate	Run2	generate/STIM_019.jpg
1242.865	1.271	incorrect	generate	Run2	generate/STIM_019.jpg
1247.823	1.271	correct	generate	Run2	generate/STIM_019.jpg
1252.077	1.52	correct	generate	Run2	generate/STIM_019.jpg
1255.712	1.609	correct	generate	Run2	generate/STIM_019.jpg
1259.38	1.24	correct	generate	Run2	generate/STIM_020.jpg
1264.536	1.305	correct	generate	Run2	generate/STIM_020.jpg
1268.264	1.224	correct	generate	Run2	generate/STIM_020.jpg
1271.97	1.088	correct	generate	Run2	generate/STIM_020.jpg
1276.08	1.425	correct	generate	Run2	generate/STIM_020.jpg
1280.373	1.18	correct	generate	Run2	generate/STIM_021.jpg
1283.954	1.224	incorrect	generate	Run2	generate/STIM_021.jpg
1289.052	1.652	correct	generate	Run2	generate/STIM_021.jpg
1293.151	1.586	correct	generate	Run2	generate/STIM_021.jpg
1296.747	1.647	correct	generate	Run2	generate/STIM_021.jpg
1300.722	1.074	incorrect	generate	Run2	generate/STIM_022.jpg
1303.824	0.858	correct	generate	Run2	generate/STIM_022.jpg
1308.566	1.441	correct	generate	Run2	generate/STIM_022.jpg
1313.942	0.83	incorrect	generate	Run2	generate/STIM_022.jpg
1316.786	1.306	correct	generate	Run2	generate/STIM_022.jpg
1320.387	1.822	correct	generate	Run2	generate/STIM_023.jpg
1325.031	1.689	correct	generate	Run2	generate/STIM_023.jpg
1329.816	0.946	incorrect	generate	Run2	generate/STIM_023.jpg
1334.605	0.864	correct	generate	Run2	generate/STIM_023.jpg
1338.776	1.04	incorrect	generate	Run2	generate/STIM_023.jpg
1342.086	1.792	incorrect	generate	Run2	generate/STIM_024.jpg
1347.627	1.128	incorrect	generate	Run2	generate/STIM_024.jpg
1351.42	0.78	correct	generate	Run2	generate/STIM_024.jpg
1355.871	1.568	correct	generate	Run2	generate/STIM_024.jpg
1360.965	1.094	incorrect	generate	Run2	generate/STIM_024.jpg
1364.468	0.475	incorrect	repeat	Run2	repeat/STIM_000.jpg
1368.673	0.528	correct	repeat	Run2	repeat/STIM_000.jpg
1372.278	0.649	correct	repeat	Run2	repeat/STIM_000.jpg
1375.405	0.546	correct	repeat	Run2	repeat/STIM_000.jpg
1378.476	0.802	correct	repeat	Run2	repeat/STIM_000.jpg
1381.635	0.499	correct	repeat	Run2	repeat/STIM_001.jpg
1385.108	0.797	incorrect	repeat	Run2	repeat/STIM_001.jpg
1389.102	0.651	correct	repeat	Run2	repeat/STIM_001.jpg
1392.48	0.464	correct	repeat	Run2	repeat/STIM_001.jpg
1396.101	0.418	correct	repeat	Run2	repeat/STIM_001.jpg
1400.196	0.746	correct	repeat	Run2	repeat/STIM_002.jpg
1404.432	0.476	correct	repeat	Run2	repeat/STIM_002.jpg
1407.962	0.517	correct	repeat	Run2	repeat/STIM_002.jpg
1411.743	0.686	correct	repeat	Run2	repeat/STIM_002.jpg
1414.644	0.693	correct	repeat	Run2	repeat/STIM_002.jpg
1419.293	0.534	correct	repeat	Run2	repeat/STIM_003.jpg
1423.215	0.468	incorrect	repeat	Run2	repeat/STIM_003.jpg
1425.918	0.746	correct	repeat	Run2	repeat/STIM_003.jpg
1429.864	0.757	correct	repeat	Run2	repeat/STIM_003.jpg
1434.018	0.709	correct	repeat	Run2	repeat/STIM_003.jpg
1437.145	0.5	incorrect	repeat	Run2	repeat/STIM_004.jpg
1440.705	0.476	correct	repeat	Run2	repeat/STIM_004.jpg
1443.902	0.538	correct	repeat	Run2	repeat/STIM_004.jpg
1447.114	0.448	correct	repeat	Run2	repeat/STIM_004.jpg
1451.321	0.617	correct	repeat	Run2	repeat/STIM_004.jpg
1455.424	0.537	correct	repeat	Run2	repeat/STIM_005.jpg
1459.602	0.655	correct	repeat	Run2	repeat/STIM_005.jpg
1464.144	0.781	correct	repeat	Run2	repeat/STIM_005.jpg
1468.435	0.422	correct	repeat	Run2	repeat/STIM_005.jpg
1470.911	0.525	incorrect	repeat	Run2	repeat/STIM_005.jpg
1474.105	0.691	correct	repeat	Run2	repeat/STIM_006.jpg
1477.03	0.494	incorrect	repeat	Run2	repeat/STIM_006.jpg
1480.551	0.657	correct	repeat	Run2	repeat/STIM_006.jpg
1484.76	0.695	incorrect	repeat	Run2	repeat/STIM_006.jpg
1487.647	0.73	incorrect	repeat	Run2	repeat/STIM_006.jpg
1491.36	0.762	correct	repeat	Run2	repeat/STIM_007.jpg
1494.762	0.565	correct	repeat	Run2	repeat/STIM_007.jpg
1498.307	0.566	correct	repeat	Run2	repeat/STIM_007.jpg
1502.343	0.758	correct	repeat	Run2	repeat/STIM_007.jpg
1505.974	0.588	correct	repeat	Run2	repeat/STIM_007.jpg
1509.383	0.479	correct	repeat	Run2	repeat/STIM_008.jpg
1512.547	0.495	correct	repeat	Run2	repeat/STIM_008.jpg
1516.308	0.618	correct	repeat	Run2	repeat/STIM_008.jpg
1520.134	0.719	correct	repeat	Run2	repeat/STIM_008.jpg
1524.399	0.625	correct	repeat	Run2	repeat/STIM_008.jpg
1527.633	0.501	correct	repeat	Run2	repeat/STIM_009.jpg
1530.971	0.414	correct	repeat	Run2	repeat/STIM_009.jpg
1533.898	0.458	correct	repeat	Run2	repeat/STIM_009.jpg
1537.227	0.625	correct	repeat	Run2	repeat/STIM_009.jpg
1540.969	0.418	correct	repeat	Run2	repeat/STIM_009.jpg
1543.712	0.55	correct	repeat	Run2	repeat/STIM_010.jpg
1547.738	0.779	correct	repeat	Run2	repeat/STIM_010.jpg
1550.689	0.642	correct	repeat	Run2	repeat/STIM_010.jpg
1554.136	0.711	correct	repeat	Run2	repeat/STIM_010.jpg
1558.118	0.593	correct	repeat	Run2	repeat/STIM_010.jpg
1561.374	0.7	incorrect	repeat	Run2	repeat/STIM_011.jpg
1565.576	0.788	correct	repeat	Run2	repeat/STIM_011.jpg
1568.94	0.798	correct	repeat	Run2	repeat/STIM_011.jpg
1571.875	0.787	correct	repeat	Run2	repeat/STIM_011.jpg
1576.578	0.438	correct	repeat	Run2	repeat/STIM_011.jpg
1580.734	0.583	incorrect	repeat	Run2	repeat/STIM_012.jpg
1583.552	0.514	correct	repeat	Run2	repeat/STIM_012.jpg
1588.061	0.465	correct	repeat	Run2	repeat/STIM_012.jpg
1590.702	0.415	correct	repeat	Run2	repeat/STIM_012.jpg
1594.744	0.679	correct	repeat	Run2	repeat/STIM_012.jpg
1597.865	0.488	correct	repeat	Run2	repeat/STIM_013.jpg
1600.717	0.48	correct	repeat	Run2	repeat/STIM_013.jpg
1604.834	0.648	incorrect	repeat	Run2	repeat/STIM_013.jpg
1607.798	0.748	correct	repeat	Run2	repeat/STIM_013.jpg
1611.185	0.527	correct	repeat	Run2	repeat/STIM_013.jpg
1614.174	0.759	incorrect	repeat	Run2	repeat/STIM_014.jpg
1618.572	0.627	incorrect	repeat	Run2	repeat/STIM_014.jpg
1622.123	0.5	correct	repeat	Run2	repeat/STIM_014.jpg
1625.343	0.536	correct	repeat	Run2	repeat/STIM_014.jpg
1628.94	0.739	correct	repeat	Run2	repeat/STIM_014.jpg
1632.804	1.561	correct	generate	Run3	generate/STIM_000.jpg
1636.796	1.638	incorrect	generate	Run3	generate/STIM_000.jpg
1641.139	1.113	correct	generate	Run3	generate/STIM_000.jpg
1645.218	1.679	correct	generate	Run3	generate/STIM_000.jpg
1649.347	1.611	correct	generate	Run3	generate/STIM_000.jpg
1654.167	0.912	correct	generate	Run3	generate/STIM_001.jpg
1657.965	1.314	incorrect	generate	Run3	generate/STIM_001.jpg
1662.404	1.258	correct	generate	Run3	generate/STIM_001.jpg
1667.13	0.908	correct	generate	Run3	generate/STIM_001.jpg
1670.826	1.209	correct	generate	Run3	generate/STIM_001.jpg
1675.479	1.616	correct	generate	Run3	generate/STIM_002.jpg
1679.448	1.243	correct	generate	Run3	generate/STIM_002.jpg
1683.487	1.545	correct	generate	Run3	generate/STIM_002.jpg
1688.954	0.936	incorrect	generate	Run3	generate/STIM_002.jpg
1692.695	0.977	correct	generate	Run3	generate/STIM_002.jpg
1696.907	0.883	incorrect	generate	Run3	generate/STIM_003.jpg
1701.271	1.146	correct	generate	Run3	generate/STIM_003.jpg
1706.373	0.988	correct	generate	Run3	generate/STIM_003.jpg
1710.554	1.452	correct	generate	Run3	generate/STIM_003.jpg
1715.019	1.27	correct	generate	Run3	generate/STIM_003.jpg
1719.686	1.026	incorrect	generate	Run3	generate/STIM_004.jpg
1724.49	1.224	correct	generate	Run3	generate/STIM_004.jpg
1728.463	1.344	incorrect	generate	Run3	generate/STIM_004.jpg
1732.503	1.19	correct	generate	Run3	generate/STIM_004.jpg
1736.906	1.064	correct	generate	Run3	generate/STIM_004.jpg
1740.91	0.742	incorrect	generate	Run3	generate/STIM_005.jpg
1744.296	1.612	correct	generate	Run3	generate/STIM_005.jpg
1748.915	1.44	correct	generate	Run3	generate/STIM_005.jpg
1754.053	0.721	correct	generate	Run3	generate/STIM_005.jpg
1758.26	1.393	incorrect	generate	Run3	generate/STIM_005.jpg
1762.059	1.335	correct	generate	Run3	generate/STIM_006.jpg
1766.047	1.171	correct	generate	Run3	generate/STIM_006.jpg
1770.57	0.841	correct	generate	Run3	generate/STIM_006.jpg
1774.726	1.346	correct	generate	Run3	generate/STIM_006.jpg
1779.78	0.799	correct	generate	Run3	generate/STIM_006.jpg
1783.351	1.2	incorrect	generate	Run3	generate/STIM_007.jpg
1788.056	1.262	correct	generate	Run3	generate/STIM_007.jpg
1791.96	1.131	correct	generate	Run3	generate/STIM_007.jpg
1795.405	1.49	correct	generate	Run3	generate/STIM_007.jpg
1799.15	0.885	correct	generate	Run3	generate/STIM_007.jpg
1803.158	1.5	correct	generate	Run3	generate/STIM_008.jpg
1808.558	1.17	incorrect	generate	Run3	generate/STIM_008.jpg
1811.994	1.081	incorrect	generate	Run3	generate/STIM_008.jpg
1815.864	0.939	correct	generate	Run3	generate/STIM_008.jpg
1819.509	1.031	correct	generate	Run3	generate/STIM_008.jpg
1823.336	1.62	incorrect	generate	Run3	generate/STIM_009.jpg
1828.581	1.637	correct	generate	Run3	generate/STIM_009.jpg
1832.574	1.22	correct	generate	Run3	generate/STIM_009.jpg
1837.089	0.823	correct	generate	Run3	generate/STIM_009.jpg
1840.972	1.267	correct	generate	Run3	generate/STIM_009.jpg
1844.475	1.236	correct	generate	Run3	generate/STIM_010.jpg
1848.673	0.746	correct	generate	Run3	generate/STIM_010.jpg
1851.988	1.592	correct	generate	Run3	generate/STIM_010.jpg
1856.47	1.304	correct	generate	Run3	generate/STIM_010.jpg
1860.47	0.878	correct	generate	Run3	generate/STIM_010.jpg
1864.57	1.396	correct	generate	Run3	generate/STIM_011.jpg
1868.143	0.732	correct	generate	Run3	generate/STIM_011.jpg
1871.177	1.641	correct	generate	Run3	generate/STIM_011.jpg
1876.07	0.918	correct	generate	Run3	generate/STIM_011.jpg
1879.786	0.772	correct	generate	Run3	generate/STIM_011.jpg
1884.067	1.047	correct	generate	Run3	generate/STIM_012.jpg
1887.231	1.361	correct	generate	Run3	generate/STIM_012.jpg
1890.693	1.448	correct	generate	Run3	generate/STIM_012.jpg
1894.53	1.571	correct	generate	Run3	generate/STIM_012.jpg
1898.242	1.079	correct	generate	Run3	generate/STIM_012.jpg
1903.126	1.435	correct	generate	Run3	generate/STIM_013.jpg
1907.051	1.002	incorrect	generate	Run3	generate/STIM_013.jpg
1910.173	0.971	correct	generate	Run3	generate/STIM_013.jpg
1914.777	1.678	correct	generate	Run3	generate/STIM_013.jpg
1919.183	1.414	correct	generate	Run3	generate/STIM_013.jpg
1923.446	1.292	correct	generate	Run3	generate/STIM_014.jpg
1928.047	1.407	incorrect	generate	Run3	generate/STIM_014.jpg
1931.969	1.169	correct	generate	Run3	generate/STIM_014.jpg
1936.053	0.934	correct	generate	Run3	generate/STIM_014.jpg
1939.08	1.071	correct	generate	Run3	generate/STIM_014.jpg
1942.948	0.98	correct	generate	Run3	generate/STIM_015.jpg
1947.593	0.852	correct	generate	Run3	generate/STIM_015.jpg
1951.571	1.547	incorrect	generate	Run3	generate/STIM_015.jpg
1955.416	0.75	correct	generate	Run3	generate/STIM_015.jpg
1958.201	1.2	correct	generate	Run3	generate/STIM_015.jpg
1961.523	1.141	correct	generate	Run3	generate/STIM_016.jpg
1965.237	1.551	incorrect	generate	Run3	generate/STIM_016.jpg
1969.445	1.613	correct	generate	Run3	generate/STIM_016.jpg
1974.927	0.786	correct	generate	Run3	generate/STIM_016.jpg
1978.887	1.587	correct	generate	Run3	generate/STIM_016.jpg
1984.025	1.195	correct	generate	Run3	generate/STIM_017.jpg
1988.353	0.822	correct	generate	Run3	generate/STIM_017.jpg
1992.786	0.68	correct	generate	Run3	generate/STIM_017.jpg
1997.258	1.098	correct	generate	Run3	generate/STIM_017.jpg
2000.601	1.444	correct	generate	Run3	generate/STIM_017.jpg
2005.613	1.524	correct	generate	Run3	generate/STIM_018.jpg
2010.619	1.627	correct	generate	Run3	generate/STIM_018.jpg
2014.87	1.263	incorrect	generate	Run3	generate/STIM_018.jpg
2018.345	1.513	correct	generate	Run3	generate/STIM_018.jpg
2023.769	0.969	correct	generate	Run3	generate/STIM_018.jpg
2028.259	1.627	correct	generate	Run3	generate/STIM_019.jpg
2032.394	0.801	correct	generate	Run3	generate/STIM_019.jpg
2035.924	1.576	correct	generate	Run3	generate/STIM_019.jpg
2040.45	1.077	correct	generate	Run3	generate/STIM_019.jpg
2043.813	1.098	correct	generate	Run3	generate/STIM_019.jpg
2048.743	0.742	correct	generate	Run3	generate/STIM_020.jpg
2052.649	1.502	correct	generate	Run3	generate/STIM_020.jpg
2056.412	1.2	correct	generate	Run3	generate/STIM_020.jpg
2060.391	1.127	correct	generate	Run3	generate/STIM_020.jpg
2064.511	0.924	incorrect	generate	Run3	generate/STIM_020.jpg
2068.991	1.588	correct	generate	Run3	generate/STIM_021.jpg
2073.498	1.297	correct	generate	Run3	generate/STIM_021.jpg
2077.852	0.748	correct	generate	Run3	generate/STIM_021.jpg
2080.98	1.04	incorrect	generate	Run3	generate/STIM_021.jpg
2084.746	0.68	correct	generate	Run3	generate/STIM_021.jpg
2088.069	1.379	incorrect	generate	Run3	generate/STIM_022.jpg
2092.33	1.516	correct	generate	Run3	generate/STIM_022.jpg
2096.66	0.941	correct	generate	Run3	generate/STIM_022.jpg
2101.357	1.187	correct	generate	Run3	generate/STIM_022.jpg
2105.962	1.572	correct	generate	Run3	generate/STIM_022.jpg
2111.117	1.042	incorrect	generate	Run3	generate/STIM_023.jpg
2116.019	1.489	incorrect	generate	Run3	generate/STIM_023.jpg
2121.01	1.461	correct	generate	Run3	generate/STIM_023.jpg
2124.803	0.732	incorrect	generate	Run3	generate/STIM_023.jpg
2127.608	1.498	incorrect	generate	Run3	generate/STIM_023.jpg
2132.712	1.531	correct	generate	Run3	generate/STIM_024.jpg
2137.003	1.191	correct	generate	Run3	generate/STIM_024.jpg
2141.652	0.939	incorrect	generate	Run3	generate/STIM_024.jpg
2145.429	1.421	correct	generate	Run3	generate/STIM_024.jpg
2149.77	1.674	correct	generate	Run3	generate/STIM_024.jpg
2153.663	0.628	correct	repeat	Run3	repeat/STIM_000.jpg
2156.648	0.41	correct	repeat	Run3	repeat/STIM_000.jpg
2160.333	0.658	correct	repeat	Run3	repeat/STIM_000.jpg
2164.959	0.541	correct	repeat	Run3	repeat/STIM_000.jpg
2169.075	0.449	correct	repeat	Run3	repeat/STIM_000.jpg
2173.505	0.75	correct	repeat	Run3	repeat/STIM_001.jpg
2177.189	0.589	correct	repeat	Run3	repeat/STIM_001.jpg
2180.463	0.418	correct	repeat	Run3	repeat/STIM_001.jpg
2183.161	0.741	incorrect	repeat	Run3	repeat/STIM_001.jpg
2187.631	0.779	correct	repeat	Run3	repeat/STIM_001.jpg
2192.205	0.477	correct	repeat	Run3	repeat/STIM_002.jpg
2195.468	0.73	correct	repeat	Run3	repeat/STIM_002.jpg
2199.115	0.659	correct	repeat	Run3	repeat/STIM_002.jpg
2202.992	0.443	correct	repeat	Run3	repeat/STIM_002.jpg
2205.787	0.612	correct	repeat	Run3	repeat/STIM_002.jpg
2209.734	0.799	correct	repeat	Run3	repeat/STIM_003.jpg
2213.213	0.504	correct	repeat	Run3	repeat/STIM_003.jpg
2217.531	0.657	correct	repeat	Run3	repeat/STIM_003.jpg
2220.76	0.533	correct	repeat	Run3	repeat/STIM_003.jpg
2224.163	0.668	incorrect	repeat	Run3	repeat/STIM_003.jpg
2227.675	0.781	correct	repeat	Run3	repeat/STIM_004.jpg
2230.89	0.458	correct	repeat	Run3	repeat/STIM_004.jpg
2234.504	0.409	correct	repeat	Run3	repeat/STIM_004.jpg
2238.627	0.672	correct	repeat	Run3	repeat/STIM_004.jpg
2242.823	0.592	incorrect	repeat	Run3	repeat/STIM_004.jpg
2247.327	0.613	correct	repeat	Run3	repeat/STIM_005.jpg
2251.696	0.455	correct	repeat	Run3	repeat/STIM_005.jpg
2254.479	0.614	correct	repeat	Run3	repeat/STIM_005.jpg
2257.703	0.542	correct	repeat	Run3	repeat/STIM_005.jpg
2261.084	0.563	correct	repeat	Run3	repeat/STIM_005.jpg
2265.062	0.565	correct	repeat	Run3	repeat/STIM_006.jpg
2268.609	0.666	incorrect	repeat	Run3	repeat/STIM_006.jpg
2272.05	0.408	correct	repeat	Run3	repeat/STIM_006.jpg
2276.423	0.565	correct	repeat	Run3	repeat/STIM_006.jpg
2280.402	0.653	correct	repeat	Run3	repeat/STIM_006.jpg
2284.47	0.517	correct	repeat	Run3	repeat/STIM_007.jpg
2288.767	0.562	correct	repeat	Run3	repeat/STIM_007.jpg
2293.093	0.442	correct	repeat	Run3	repeat/STIM_007.jpg
2296.793	0.519	correct	repeat	Run3	repeat/STIM_007.jpg
2300.509	0.77	correct	repeat	Run3	repeat/STIM_007.jpg
2304.469	0.712	correct	repeat	Run3	repeat/STIM_008.jpg
2308.221	0.435	correct	repeat	Run3	repeat/STIM_008.jpg
2311.534	0.403	incorrect	repeat	Run3	repeat/STIM_008.jpg
2315.038	0.552	correct	repeat	Run3	repeat/STIM_008.jpg
2318.723	0.727	correct	repeat	Run3	repeat/STIM_008.jpg
2323.369	0.447	correct	repeat	Run3	repeat/STIM_009.jpg
2327.424	0.618	correct	repeat	Run3	repeat/STIM_009.jpg
2331.462	0.459	incorrect	repeat	Run3	repeat/STIM_009.jpg
2335.049	0.434	correct	repeat	Run3	repeat/STIM_009.jpg
2339.269	0.555	incorrect	repeat	Run3	repeat/STIM_009.jpg
2343.341	0.698	incorrect	repeat	Run3	repeat/STIM_010.jpg
2347.093	0.503	correct	repeat	Run3	repeat/STIM_010.jpg
2351.422	0.471	incorrect	repeat	Run3	repeat/STIM_010.jpg
2354.048	0.715	correct	repeat	Run3	repeat/STIM_010.jpg
2356.977	0.584	correct	repeat	Run3	repeat/STIM_010.jpg
2359.949	0.656	correct	repeat	Run3	repeat/STIM_011.jpg
2364.166	0.586	correct	repeat	Run3	repeat/STIM_011.jpg
2368.298	0.5	correct	repeat	Run3	repeat/STIM_011.jpg
2372.26	0.743	incorrect	repeat	Run3	repeat/STIM_011.jpg
2375.582	0.639	correct	repeat	Run3	repeat/STIM_011.jpg
2379.357	0.476	correct	repeat	Run3	repeat/STIM_012.jpg
2381.87	0.606	correct	repeat	Run3	repeat/STIM_012.jpg
2385.186	0.668	correct	repeat	Run3	repeat/STIM_012.jpg
2389.761	0.436	correct	repeat	Run3	repeat/STIM_012.jpg
2393.08	0.547	correct	repeat	Run3	repeat/STIM_012.jpg
2397.394	0.558	correct	repeat	Run3	repeat/STIM_013.jpg
2400.801	0.645	correct	repeat	Run3	repeat/STIM_013.jpg
2403.836	0.603	correct	repeat	Run3	repeat/STIM_013.jpg
2408.211	0.59	incorrect	repeat	Run3	repeat/STIM_013.jpg
2412.663	0.491	correct	repeat	Run3	repeat/STIM_013.jpg
2416.964	0.635	correct	repeat	Run3	repeat/STIM_014.jpg
2421.561	0.655	correct	repeat	Run3	repeat/STIM_014.jpg
2424.683	0.549	correct	repeat	Run3	repeat/STIM_014.jpg
2428.058	0.544	incorrect	repeat	Run3	repeat/STIM_014.jpg
2431.197	0.451	correct	repeat	Run3	repeat/STIM_014.jpg
2435.537	0.757	incorrect	generate	Run4	generate/STIM_000.jpg
2440.214	0.809	correct	generate	Run4	generate/STIM_000.jpg
2444.538	1.567	correct	generate	Run4	generate/STIM_000.jpg
2449.289	1.482	correct	generate	Run4	generate/STIM_000.jpg
2452.829	1.367	correct	generate	Run4	generate/STIM_000.jpg
2456.54	1.219	incorrect	generate	Run4	generate/STIM_001.jpg
2459.959	1.246	correct	generate	Run4	generate/STIM_001.jpg
2464.657	0.974	correct	generate	Run4	generate/STIM_001.jpg
2467.801	1.303	correct	generate	Run4	generate/STIM_001.jpg
2472.856	1.632	correct	generate	Run4	generate/STIM_001.jpg
2476.556	1.144	correct	generate	Run4	generate/STIM_002.jpg
2480.27	1.243	correct	generate	Run4	generate/STIM_002.jpg
2483.914	1.336	correct	generate	Run4	generate/STIM_002.jpg
2487.327	1.151	correct	generate	Run4	generate/STIM_002.jpg
2491.389	1.034	incorrect	generate	Run4	generate/STIM_002.jpg
2495.2	0.923	correct	generate	Run4	generate/STIM_003.jpg
2499.767	1.444	correct	generate	Run4	generate/STIM_003.jpg
2503.478	1.396	incorrect	generate	Run4	generate/STIM_003.jpg
2507.954	0.958	correct	generate	Run4	generate/STIM_003.jpg
2512.749	1.318	correct	generate	Run4	generate/STIM_003.jpg
2516.372	1.126	correct	generate	Run4	generate/STIM_004.jpg
2519.871	1.331	correct	generate	Run4	generate/STIM_004.jpg
2523.415	1.124	incorrect	generate	Run4	generate/STIM_004.jpg
2527.629	1.672	correct	generate	Run4	generate/STIM_004.jpg
2532.235	0.852	correct	generate	Run4	generate/STIM_004.jpg
2536.937	1.183	incorrect	generate	Run4	generate/STIM_005.jpg
2541.983	0.811	incorrect	generate	Run4	generate/STIM_005.jpg
2545.306	0.869	correct	generate	Run4	generate/STIM_005.jpg
2549.411	1.233	correct	generate	Run4	generate/STIM_005.jpg
2553.535	0.765	correct	generate	Run4	generate/STIM_005.jpg
2556.522	0.806	correct	generate	Run4	generate/STIM_006.jpg
2561.226	0.791	correct	generate	Run4	generate/STIM_006.jpg
2565.162	1.591	correct	generate	Run4	generate/STIM_006.jpg
2570.139	1.386	correct	generate	Run4	generate/STIM_006.jpg
2573.999	1.39	correct	generate	Run4	generate/STIM_006.jpg
2577.762	1.147	incorrect	generate	Run4	generate/STIM_007.jpg
2581.76	0.942	incorrect	generate	Run4	generate/STIM_007.jpg
2585.183	1.196	incorrect	generate	Run4	generate/STIM_007.jpg
2589.412	0.857	correct	generate	Run4	generate/STIM_007.jpg
2593.559	0.805	correct	generate	Run4	generate/STIM_007.jpg
2597.095	1.551	correct	generate	Run4	generate/STIM_008.jpg
2602.252	1.038	correct	generate	Run4	generate/STIM_008.jpg
2605.589	0.987	correct	generate	Run4	generate/STIM_008.jpg
2609.791	1.413	correct	generate	Run4	generate/STIM_008.jpg
2614.135	1.372	correct	generate	Run4	generate/STIM_008.jpg
2619.091	0.678	correct	generate	Run4	generate/STIM_009.jpg
2622.587	1.154	correct	generate	Run4	generate/STIM_009.jpg
2626.749	1.417	correct	generate	Run4	generate/STIM_009.jpg
2630.604	1.471	correct	generate	Run4	generate/STIM_009.jpg
2634.474	0.968	incorrect	generate	Run4	generate/STIM_009.jpg
2638.154	1.114	correct	generate	Run4	generate/STIM_010.jpg
2642.813	0.924	correct	generate	Run4	generate/STIM_010.jpg
2645.785	1.683	correct	generate	Run4	generate/STIM_010.jpg
2650.598	0.723	correct	generate	Run4	generate/STIM_010.jpg
2653.567	1.444	correct	generate	Run4	generate/STIM_010.jpg
2657.483	0.726	correct	generate	Run4	generate/STIM_011.jpg
2660.904	1.303	correct	generate	Run4	generate/STIM_011.jpg
2665.559	1.602	incorrect	generate	Run4	generate/STIM_011.jpg
2669.978	1.198	correct	generate	Run4	generate/STIM_011.jpg
2674.503	1.389	correct	generate	Run4	generate/STIM_011.jpg
2679.837	1.544	correct	generate	Run4	generate/STIM_012.jpg
2685.195	1.078	correct	generate	Run4	generate/STIM_012.jpg
2689.574	1.304	incorrect	generate	Run4	generate/STIM_012.jpg
2693.878	1.481	correct	generate	Run4	generate/STIM_012.jpg
2698.868	1.054	correct	generate	Run4	generate/STIM_012.jpg
2702.977	0.806	correct	generate	Run4	generate/STIM_013.jpg
2707.523	1.47	correct	generate	Run4	generate/STIM_013.jpg
2712.881	1.498	correct	generate	Run4	generate/STIM_013.jpg
2717.125	0.832	correct	generate	Run4	generate/STIM_013.jpg
2721.65	0.885	correct	generate	Run4	generate/STIM_013.jpg
2726.374	1.456	correct	generate	Run4	generate/STIM_014.jpg
2731.483	1.162	correct	generate	Run4	generate/STIM_014.jpg
2734.862	0.886	correct	generate	Run4	generate/STIM_014.jpg
2738.546	0.868	correct	generate	Run4	generate/STIM_014.jpg
2742.774	1.474	correct	generate	Run4	generate/STIM_014.jpg
2746.45	1.606	correct	generate	Run4	generate/STIM_015.jpg
2751.663	0.933	correct	generate	Run4	generate/STIM_015.jpg
2756.198	1.163	correct	generate	Run4	generate/STIM_015.jpg
2761.104	0.937	correct	generate	Run4	generate/STIM_015.jpg
2765.851	1.608	correct	generate	Run4	generate/STIM_015.jpg
2769.767	1.079	incorrect	generate	Run4	generate/STIM_016.jpg
2773.339	0.89	correct	generate	Run4	generate/STIM_016.jpg
2776.729	1.398	correct	generate	Run4	generate/STIM_016.jpg
2782.014	1.641	correct	generate	Run4	generate/STIM_016.jpg
2787.085	0.736	correct	generate	Run4	generate/STIM_016.jpg
2790.977	1.219	correct	generate	Run4	generate/STIM_017.jpg
2794.797	0.696	correct	generate	Run4	generate/STIM_017.jpg
2799.465	1.507	correct	generate	Run4	generate/STIM_017.jpg
2803.386	0.964	correct	generate	Run4	generate/STIM_017.jpg
2808.161	1.666	correct	generate	Run4	generate/STIM_017.jpg
2811.967	0.752	correct	generate	Run4	generate/STIM_018.jpg
2815.791	1.302	correct	generate	Run4	generate/STIM_018.jpg
2820.563	0.976	incorrect	generate	Run4	generate/STIM_018.jpg
2825.077	1.536	correct	generate	Run4	generate/STIM_018.jpg
2829.644	0.79	incorrect	generate	Run4	generate/STIM_018.jpg
2833.957	1.06	correct	generate	Run4	generate/STIM_019.jpg
2838.368	1.106	correct	generate	Run4	generate/STIM_019.jpg
2841.565	1.615	incorrect	generate	Run4	generate/STIM_019.jpg
2846.063	0.701	correct	generate	Run4	generate/STIM_019.jpg
2849.452	1.514	correct	generate	Run4	generate/STIM_019.jpg
2854.914	1.284	correct	generate	Run4	generate/STIM_020.jpg
2859.494	1.519	correct	generate	Run4	generate/STIM_020.jpg
2864.57	1.664	correct	generate	Run4	generate/STIM_020.jpg
2869.411	0.864	correct	generate	Run4	generate/STIM_020.jpg
2873.864	1.602	correct	generate	Run4	generate/STIM_020.jpg
2878.468	1.334	correct	generate	Run4	generate/STIM_021.jpg
2882.152	1.631	correct	generate	Run4	generate/STIM_021.jpg
2886.115	1.444	correct	generate	Run4	generate/STIM_021.jpg
2890.671	1.67	incorrect	generate	Run4	generate/STIM_021.jpg
2896.239	0.757	incorrect	generate	Run4	generate/STIM_021.jpg
2900.147	0.804	correct	generate	Run4	generate/STIM_022.jpg
2904.2	1.45	correct	generate	Run4	generate/STIM_022.jpg
2908.821	0.821	correct	generate	Run4	generate/STIM_022.jpg
2912.858	1.111	correct	generate	Run4	generate/STIM_022.jpg
2917.33	1.119	correct	generate	Run4	generate/STIM_022.jpg
2922.009	0.689	incorrect	generate	Run4	generate/STIM_023.jpg
2924.859	0.846	incorrect	generate	Run4	generate/STIM_023.jpg
2927.973	0.729	correct	generate	Run4	generate/STIM_023.jpg
2932.026	1.182	correct	generate	Run4	generate/STIM_023.jpg
2936.221	1.26	correct	generate	Run4	generate/STIM_023.jpg
2941.17	1.031	incorrect	generate	Run4	generate/STIM_024.jpg
2945.033	1.436	correct	generate	Run4	generate/STIM_024.jpg
2949.387	1.549	correct	generate	Run4	generate/STIM_024.jpg
2953.308	1.473	correct	generate	Run4	generate/STIM_024.jpg
2957.164	1.426	correct	generate	Run4	generate/STIM_024.jpg
2960.964	0.774	correct	repeat	Run4	repeat/STIM_000.jpg
2965.582	0.462	correct	repeat	Run4	repeat/STIM_000.jpg
2969.487	0.514	incorrect	repeat	Run4	repeat/STIM_000.jpg
2972.774	0.748	correct	repeat	Run4	repeat/STIM_000.jpg
2977.474	0.658	correct	repeat	Run4	repeat/STIM_000.jpg
2981.661	0.423	correct	repeat	Run4	repeat/STIM_001.jpg
2985.65	0.704	correct	repeat	Run4	repeat/STIM_001.jpg
2989.899	0.493	correct	repeat	Run4	repeat/STIM_001.jpg
2993.79	0.531	correct	repeat	Run4	repeat/STIM_001.jpg
2997.046	0.552	correct	repeat	Run4	repeat/STIM_001.jpg
3000.112	0.444	correct	repeat	Run4	repeat/STIM_002.jpg
3002.737	0.633	correct	repeat	Run4	repeat/STIM_002.jpg
3006.781	0.516	incorrect	repeat	Run4	repeat/STIM_002.jpg
3011.229	0.408	incorrect	repeat	Run4	repeat/STIM_002.jpg
3014.939	0.58	correct	repeat	Run4	repeat/STIM_002.jpg
3018.758	0.695	correct	repeat	Run4	repeat/STIM_003.jpg
3022.178	0.622	correct	repeat	Run4	repeat/STIM_003.jpg
3026.103	0.604	correct	repeat	Run4	repeat/STIM_003.jpg
3030.457	0.758	correct	repeat	Run4	repeat/STIM_003.jpg
3034.618	0.593	correct	repeat	Run4	repeat/STIM_003.jpg
3038.141	0.404	correct	repeat	Run4	repeat/STIM_004.jpg
3041.199	0.656	incorrect	repeat	Run4	repeat/STIM_004.jpg
3044.351	0.515	correct	repeat	Run4	repeat/STIM_004.jpg
3047.684	0.7	correct	repeat	Run4	repeat/STIM_004.jpg
3050.591	0.712	correct	repeat	Run4	repeat/STIM_004.jpg
3053.605	0.617	correct	repeat	Run4	repeat/STIM_005.jpg
3056.243	0.643	correct	repeat	Run4	repeat/STIM_005.jpg
3059.711	0.585	correct	repeat	Run4	repeat/STIM_005.jpg
3062.418	0.463	correct	repeat	Run4	repeat/STIM_005.jpg
3065.76	0.616	correct	repeat	Run4	repeat/STIM_005.jpg
3069.47	0.52	correct	repeat	Run4	repeat/STIM_006.jpg
3073.101	0.744	correct	repeat	Run4	repeat/STIM_006.jpg
3076.946	0.747	correct	repeat	Run4	repeat/STIM_006.jpg
3080.214	0.586	correct	repeat	Run4	repeat/STIM_006.jpg
3084.739	0.42	incorrect	repeat	Run4	repeat/STIM_006.jpg
3087.617	0.507	incorrect	repeat	Run4	repeat/STIM_007.jpg
3091.508	0.644	correct	repeat	Run4	repeat/STIM_007.jpg
3095.704	0.786	correct	repeat	Run4	repeat/STIM_007.jpg
3099.254	0.625	incorrect	repeat	Run4	repeat/STIM_007.jpg
3102.123	0.7	correct	repeat	Run4	repeat/STIM_007.jpg
3106.283	0.59	correct	repeat	Run4	repeat/STIM_008.jpg
3110.377	0.657	correct	repeat	Run4	repeat/STIM_008.jpg
3114.283	0.598	correct	repeat	Run4	repeat/STIM_008.jpg
3117.872	0.653	correct	repeat	Run4	repeat/STIM_008.jpg
3121.455	0.57	correct	repeat	Run4	repeat/STIM_008.jpg
3125.129	0.579	correct	repeat	Run4	repeat/STIM_009.jpg
3128.39	0.658	correct	repeat	Run4	repeat/STIM_009.jpg
3132.351	0.748	correct	repeat	Run4	repeat/STIM_009.jpg
3135.685	0.69	correct	repeat	Run4	repeat/STIM_009.jpg
3139.96	0.518	correct	repeat	Run4	repeat/STIM_009.jpg
3144.338	0.789	correct	repeat	Run4	repeat/STIM_010.jpg
3148.946	0.567	correct	repeat	Run4	repeat/STIM_010.jpg
3151.61	0.554	correct	repeat	Run4	repeat/STIM_010.jpg
3154.847	0.621	correct	repeat	Run4	repeat/STIM_010.jpg
3158.035	0.735	correct	repeat	Run4	repeat/STIM_010.jpg
3162.42	0.697	incorrect	repeat	Run4	repeat/STIM_011.jpg
3165.698	0.7	correct	repeat	Run4	repeat/STIM_011.jpg
3168.543	0.456	correct	repeat	Run4	repeat/STIM_011.jpg
3172.969	0.406	incorrect	repeat	Run4	repeat/STIM_011.jpg
3176.363	0.417	correct	repeat	Run4	repeat/STIM_011.jpg
3179.003	0.532	correct	repeat	Run4	repeat/STIM_012.jpg
3181.803	0.438	correct	repeat	Run4	repeat/STIM_012.jpg
3185.999	0.749	correct	repeat	Run4	repeat/STIM_012.jpg
3190.419	0.772	correct	repeat	Run4	repeat/STIM_012.jpg
3194.122	0.537	correct	repeat	Run4	repeat/STIM_012.jpg
3197.441	0.767	correct	repeat	Run4	repeat/STIM_013.jpg
3201.24	0.492	correct	repeat	Run4	repeat/STIM_013.jpg
3203.904	0.526	correct	repeat	Run4	repeat/STIM_013.jpg
3207.155	0.749	incorrect	repeat	Run4	repeat/STIM_013.jpg
3210.09	0.514	correct	repeat	Run4	repeat/STIM_013.jpg
3212.62	0.63	correct	repeat	Run4	repeat/STIM_014.jpg
3215.53	0.617	correct	repeat	Run4	repeat/STIM_014.jpg
3218.757	0.72	correct	repeat	Run4	repeat/STIM_014.jpg
3222.278	0.64	correct	repeat	Run4	repeat/STIM_014.jpg
3226.61	0.535	incorrect	repeat	Run4	repeat/STIM_014.jpg
