onset	duration	response_time_ms	trial_type	learning_stage	stimulus	response_port
0.0	2.907	2906.7	generate	Run1	generate/STIM_000.jpg	100
5.062	2.398	2397.9	generate	Run1	generate/STIM_000.jpg	100
9.7	1.63	1630.5	generate	Run1	generate/STIM_000.jpg	99
13.783	1.97	1970.3	generate	Run1	generate/STIM_000.jpg	100
17.979	2.104	2104.2	generate	Run1	generate/STIM_000.jpg	99
23.492	2.707	2707.2	generate	Run1	generate/STIM_001.jpg	99
28.439	2.039	2039.5	generate	Run1	generate/STIM_001.jpg	99
34.243	2.527	2527.2	generate	Run1	generate/STIM_001.jpg	99
39.117	1.217	1217.3	generate	Run1	generate/STIM_001.jpg	100
44.202	1.936	1935.5	generate	Run1	generate/STIM_001.jpg	99
48.237	2.277	2277.0	generate	Run1	generate/STIM_002.jpg	99
54.486	1.57	1570.2	generate	Run1	generate/STIM_002.jpg	99
58.077	2.037	2037.4	generate	Run1	generate/STIM_002.jpg	100
62.297	2.434	2434.0	generate	Run1	generate/STIM_002.jpg	99
67.777	1.166	1166.0	generate	Run1	generate/STIM_002.jpg	100
71.791	2.516	2516.5	generate	Run1	generate/STIM_003.jpg	100
76.969	1.252	1251.6	generate	Run1	generate/STIM_003.jpg	100
81.837	2.349	2349.3	generate	Run1	generate/STIM_003.jpg	99
87.394	1.938	1937.6	generate	Run1	generate/STIM_003.jpg	99
92.389	1.34	1340.0	generate	Run1	generate/STIM_003.jpg	99
95.78	1.705	1704.6	generate	Run1	generate/STIM_004.jpg	99
100.564	2.732	2732.1	generate	Run1	generate/STIM_004.jpg	99
106.703	2.399	2399.4	generate	Run1	generate/STIM_004.jpg	100
112.294	1.728	1727.9	generate	Run1	generate/STIM_004.jpg	100
116.813	2.385	2384.7	generate	Run1	generate/STIM_004.jpg	100
122.554	2.497	2497.3	generate	Run1	generate/STIM_005.jpg	99
127.15	2.266	2265.8	generate	Run1	generate/STIM_005.jpg	100
133.003	1.737	1737.2	generate	Run1	generate/STIM_005.jpg	100
137.889	1.342	1342.4	generate	Run1	generate/STIM_005.jpg	100
143.144	1.077	1077.3	generate	Run1	generate/STIM_005.jpg	99
148.062	1.857	1857.1	generate	Run1	generate/STIM_006.jpg	100
153.279	1.281	1281.0	generate	Run1	generate/STIM_006.jpg	99
156.934	1.583	1582.9	generate	Run1	generate/STIM_006.jpg	100
161.021	1.218	1218.4	generate	Run1	generate/STIM_006.jpg	100
165.38	1.25	1250.1	generate	Run1	generate/STIM_006.jpg	99
169.287	2.801	2801.3	generate	Run1	generate/STIM_007.jpg	100
175.431	2.757	2757.3	generate	Run1	generate/STIM_007.jpg	99
180.393	1.62	1619.9	generate	Run1	generate/STIM_007.jpg	100
185.473	2.018	2018.5	generate	Run1	generate/STIM_007.jpg	99
189.592	1.708	1707.9	generate	Run1	generate/STIM_007.jpg	99
195.007	2.952	2951.7	generate	Run1	generate/STIM_008.jpg	100
200.567	2.526	2525.5	generate	Run1	generate/STIM_008.jpg	99
206.309	2.417	2417.2	generate	Run1	generate/STIM_008.jpg	100
211.802	1.754	1753.9	generate	Run1	generate/STIM_008.jpg	99
216.665	1.62	1620.2	generate	Run1	generate/STIM_008.jpg	100
221.139	2.722	2721.8	generate	Run1	generate/STIM_009.jpg	100
227.811	2.177	2176.6	generate	Run1	generate/STIM_009.jpg	99
232.223	1.84	1839.5	generate	Run1	generate/STIM_009.jpg	100
237.815	2.147	2147.4	generate	Run1	generate/STIM_009.jpg	99
242.599	2.344	2344.0	generate	Run1	generate/STIM_009.jpg	99
248.54	1.26	1259.6	generate	Run1	generate/STIM_010.jpg	99
253.18	1.463	1462.6	generate	Run1	generate/STIM_010.jpg	100
257.07	2.603	2603.0	generate	Run1	generate/STIM_010.jpg	99
263.404	1.637	1637.0	generate	Run1	generate/STIM_010.jpg	99
267.207	2.123	2122.6	generate	Run1	generate/STIM_010.jpg	99
272.574	1.672	1671.6	generate	Run1	generate/STIM_011.jpg	100
277.59	1.977	1977.3	generate	Run1	generate/STIM_011.jpg	100
283.454	2.06	2059.8	generate	Run1	generate/STIM_011.jpg	99
289.395	2.255	2255.2	generate	Run1	generate/STIM_011.jpg	100
294.544	1.295	1295.0	generate	Run1	generate/STIM_011.jpg	99
298.942	1.346	1346.4	generate	Run1	generate/STIM_012.jpg	100
303.977	1.854	1854.3	generate	Run1	generate/STIM_012.jpg	100
308.862	2.522	2521.9	generate	Run1	generate/STIM_012.jpg	99
313.675	1.597	1597.3	generate	Run1	generate/STIM_012.jpg	99
319.24	1.576	1576.0	generate	Run1	generate/STIM_012.jpg	100
324.66	2.326	2325.7	generate	Run1	generate/STIM_013.jpg	100
329.358	1.275	1274.7	generate	Run1	generate/STIM_013.jpg	99
333.761	1.914	1914.5	generate	Run1	generate/STIM_013.jpg	100
337.743	1.211	1211.1	generate	Run1	generate/STIM_013.jpg	99
341.675	2.337	2337.4	generate	Run1	generate/STIM_013.jpg	99
346.485	2.836	2836.5	generate	Run1	generate/STIM_014.jpg	99
352.782	1.958	1957.9	generate	Run1	generate/STIM_014.jpg	99
356.764	1.315	1314.8	generate	Run1	generate/STIM_014.jpg	99
361.767	2.428	2428.0	generate	Run1	generate/STIM_014.jpg	99
367.425	1.746	1746.1	generate	Run1	generate/STIM_014.jpg	100
371.411	1.488	1488.1	generate	Run1	generate/STIM_015.jpg	100
375.947	2.371	2371.3	generate	Run1	generate/STIM_015.jpg	99
380.345	2.306	2305.7	generate	Run1	generate/STIM_015.jpg	99
385.786	2.238	2237.5	generate	Run1	generate/STIM_015.jpg	99
390.04	1.525	1525.3	generate	Run1	generate/STIM_015.jpg	100
394.433	2.88	2880.5	generate	Run1	generate/STIM_016.jpg	99
401.064	2.475	2474.8	generate	Run1	generate/STIM_016.jpg	99
406.809	1.523	1523.3	generate	Run1	generate/STIM_016.jpg	100
411.594	1.401	1401.1	generate	Run1	generate/STIM_016.jpg	99
416.762	1.811	1811.4	generate	Run1	generate/STIM_016.jpg	99
420.586	2.807	2806.9	generate	Run1	generate/STIM_017.jpg	100
425.566	2.243	2242.9	generate	Run1	generate/STIM_017.jpg	99
430.65	1.659	1659.3	generate	Run1	generate/STIM_017.jpg	99
434.806	2.376	2375.9	generate	Run1	generate/STIM_017.jpg	99
439.73	2.177	2177.1	generate	Run1	generate/STIM_017.jpg	100
444.62	2.623	2623.0	generate	Run1	generate/STIM_018.jpg	100
450.562	1.901	1901.0	generate	Run1	generate/STIM_018.jpg	100
455.412	2.575	2575.3	generate	Run1	generate/STIM_018.jpg	100
461.908	1.616	1615.7	generate	Run1	generate/STIM_018.jpg	99
466.481	1.134	1134.4	generate	Run1	generate/STIM_018.jpg	99
470.189	2.941	2941.2	generate	Run1	generate/STIM_019.jpg	100
475.888	2.764	2763.9	generate	Run1	generate/STIM_019.jpg	100
481.33	1.433	1433.1	generate	Run1	generate/STIM_019.jpg	100
485.905	1.505	1505.0	generate	Run1	generate/STIM_019.jpg	100
490.245	2.129	2129.2	generate	Run1	generate/STIM_019.jpg	100
494.896	2.049	2049.2	generate	Run1	generate/STIM_020.jpg	100
500.772	1.997	1996.8	generate	Run1	generate/STIM_020.jpg	99
505.294	2.132	2132.5	generate	Run1	generate/STIM_020.jpg	99
511.206	1.961	1960.8	generate	Run1	generate/STIM_020.jpg	100
515.243	1.655	1655.3	generate	Run1	generate/STIM_020.jpg	100
519.425	1.21	1210.4	generate	Run1	generate/STIM_021.jpg	99
524.002	1.954	1954.0	generate	Run1	generate/STIM_021.jpg	99
529.517	2.103	2103.0	generate	Run1	generate/STIM_021.jpg	99
534.068	1.938	1937.9	generate	Run1	generate/STIM_021.jpg	100
538.542	1.494	1493.6	generate	Run1	generate/STIM_021.jpg	99
542.703	1.893	1893.1	generate	Run1	generate/STIM_022.jpg	100
547.887	1.801	1800.9	generate	Run1	generate/STIM_022.jpg	100
553.409	2.315	2315.2	generate	Run1	generate/STIM_022.jpg	99
559.152	1.479	1479.0	generate	Run1	generate/STIM_022.jpg	99
564.159	1.235	1235.2	generate	Run1	generate/STIM_022.jpg	99
567.407	1.428	1428.2	generate	Run1	generate/STIM_023.jpg	100
572.147	1.21	1209.5	generate	Run1	generate/STIM_023.jpg	99
576.23	1.424	1424.5	generate	Run1	generate/STIM_023.jpg	99
580.369	2.246	2246.2	generate	Run1	generate/STIM_023.jpg	100
586.507	2.05	2049.7	generate	Run1	generate/STIM_023.jpg	100
591.94	1.718	1718.2	generate	Run1	generate/STIM_024.jpg	99
596.553	2.8	2799.8	generate	Run1	generate/STIM_024.jpg	99
602.769	2.523	2522.9	generate	Run1	generate/STIM_024.jpg	99
609.208	1.987	1987.4	generate	Run1	generate/STIM_024.jpg	99
613.545	1.028	1028.5	generate	Run1	generate/STIM_024.jpg	99
616.788	0.531	530.9	repeat	Run1	repeat/STIM_000.jpg	99
619.484	0.997	997.2	repeat	Run1	repeat/STIM_000.jpg	99
623.14	0.807	807.3	repeat	Run1	repeat/STIM_000.jpg	100
627.322	1.002	1002.3	repeat	Run1	repeat/STIM_000.jpg	100
631.272	0.932	932.5	repeat	Run1	repeat/STIM_000.jpg	100
634.223	0.863	862.6	repeat	Run1	repeat/STIM_001.jpg	100
637.158	0.512	512.1	repeat	Run1	repeat/STIM_001.jpg	99
640.885	0.699	698.7	repeat	Run1	repeat/STIM_001.jpg	99
643.743	0.676	676.4	repeat	Run1	repeat/STIM_001.jpg	99
647.977	0.761	761.4	repeat	Run1	repeat/STIM_001.jpg	99
652.624	0.574	573.5	repeat	Run1	repeat/STIM_002.jpg	99
655.224	0.997	997.1	repeat	Run1	repeat/STIM_002.jpg	99
659.049	0.618	617.7	repeat	Run1	repeat/STIM_002.jpg	99
662.065	0.681	681.2	repeat	Run1	repeat/STIM_002.jpg	100
666.369	0.758	757.7	repeat	Run1	repeat/STIM_002.jpg	100
670.369	0.896	895.9	repeat	Run1	repeat/STIM_003.jpg	100
675.163	0.687	686.7	repeat	Run1	repeat/STIM_003.jpg	100
679.484	0.593	592.8	repeat	Run1	repeat/STIM_003.jpg	99
682.107	0.577	576.7	repeat	Run1	repeat/STIM_003.jpg	100
686.17	0.847	847.2	repeat	Run1	repeat/STIM_003.jpg	99
689.695	0.804	804.5	repeat	Run1	repeat/STIM_004.jpg	99
692.737	0.774	773.6	repeat	Run1	repeat/STIM_004.jpg	99
696.377	0.891	890.6	repeat	Run1	repeat/STIM_004.jpg	99
700.473	0.933	933.4	repeat	Run1	repeat/STIM_004.jpg	100
704.43	0.532	532.1	repeat	Run1	repeat/STIM_004.jpg	99
708.673	0.761	760.6	repeat	Run1	repeat/STIM_005.jpg	100
713.219	0.862	862.4	repeat	Run1	repeat/STIM_005.jpg	100
717.198	0.525	525.4	repeat	Run1	repeat/STIM_005.jpg	100
720.148	0.508	508.0	repeat	Run1	repeat/STIM_005.jpg	99
723.676	0.692	692.5	repeat	Run1	repeat/STIM_005.jpg	99
728.312	0.65	650.2	repeat	Run1	repeat/STIM_006.jpg	99
732.945	0.711	711.3	repeat	Run1	repeat/STIM_006.jpg	99
737.426	0.841	841.3	repeat	Run1	repeat/STIM_006.jpg	99
740.784	0.775	774.6	repeat	Run1	repeat/STIM_006.jpg	99
745.53	0.905	905.2	repeat	Run1	repeat/STIM_006.jpg	99
748.475	0.827	826.7	repeat	Run1	repeat/STIM_007.jpg	100
752.332	0.948	948.5	repeat	Run1	repeat/STIM_007.jpg	100
756.824	0.763	763.2	repeat	Run1	repeat/STIM_007.jpg	99
760.3	0.856	856.3	repeat	Run1	repeat/STIM_007.jpg	99
763.577	0.749	748.9	repeat	Run1	repeat/STIM_007.jpg	100
768.015	0.896	896.2	repeat	Run1	repeat/STIM_008.jpg	99
772.84	0.535	534.6	repeat	Run1	repeat/STIM_008.jpg	99
776.587	0.55	550.3	repeat	Run1	repeat/STIM_008.jpg	100
780.045	0.516	515.5	repeat	Run1	repeat/STIM_008.jpg	99
782.838	0.666	666.5	repeat	Run1	repeat/STIM_008.jpg	100
787.066	0.674	673.9	repeat	Run1	repeat/STIM_009.jpg	100
789.854	0.628	627.6	repeat	Run1	repeat/STIM_009.jpg	100
794.416	0.876	876.1	repeat	Run1	repeat/STIM_009.jpg	100
798.441	0.805	805.2	repeat	Run1	repeat/STIM_009.jpg	100
802.676	0.582	581.6	repeat	Run1	repeat/STIM_009.jpg	99
806.961	0.978	978.4	repeat	Run1	repeat/STIM_010.jpg	99
810.251	0.941	940.9	repeat	Run1	repeat/STIM_010.jpg	100
813.761	0.978	977.7	repeat	Run1	repeat/STIM_010.jpg	99
818.114	0.596	596.5	repeat	Run1	repeat/STIM_010.jpg	99
821.358	0.817	816.9	repeat	Run1	repeat/STIM_010.jpg	99
825.179	0.555	555.3	repeat	Run1	repeat/STIM_011.jpg	100
827.837	0.987	987.4	repeat	Run1	repeat/STIM_011.jpg	99
832.671	0.652	651.5	repeat	Run1	repeat/STIM_011.jpg	100
837.029	0.753	753.0	repeat	Run1	repeat/STIM_011.jpg	100
840.15	0.614	613.5	repeat	Run1	repeat/STIM_011.jpg	100
844.157	0.68	680.4	repeat	Run1	repeat/STIM_012.jpg	100
848.104	0.725	725.4	repeat	Run1	repeat/STIM_012.jpg	100
851.734	0.558	558.3	repeat	Run1	repeat/STIM_012.jpg	99
855.327	0.676	675.9	repeat	Run1	repeat/STIM_012.jpg	100
859.824	0.865	865.0	repeat	Run1	repeat/STIM_012.jpg	100
863.186	0.601	600.9	repeat	Run1	repeat/STIM_013.jpg	100
866.328	1.005	1004.6	repeat	Run1	repeat/STIM_013.jpg	100
869.63	0.637	637.1	repeat	Run1	repeat/STIM_013.jpg	100
873.92	0.876	875.6	repeat	Run1	repeat/STIM_013.jpg	99
877.934	0.623	622.8	repeat	Run1	repeat/STIM_013.jpg	99
882.535	0.982	982.0	repeat	Run1	repeat/STIM_014.jpg	99
886.118	0.93	929.6	repeat	Run1	repeat/STIM_014.jpg	99
890.802	0.62	620.5	repeat	Run1	repeat/STIM_014.jpg	99
894.486	0.759	759.2	repeat	Run1	repeat/STIM_014.jpg	99
898.892	0.92	919.9	repeat	Run1	repeat/STIM_014.jpg	99
903.403	2.503	2503.0	generate	Run2	generate/STIM_000.jpg	100
908.885	1.372	1371.7	generate	Run2	generate/STIM_000.jpg	99
913.648	1.756	1756.5	generate	Run2	generate/STIM_000.jpg	99
919.294	0.92	920.3	generate	Run2	generate/STIM_000.jpg	99
922.449	1.121	1121.1	generate	Run2	generate/STIM_000.jpg	100
925.596	1.278	1277.7	generate	Run2	generate/STIM_001.jpg	100
930.341	2.178	2177.7	generate	Run2	generate/STIM_001.jpg	99
935.735	0.944	944.2	generate	Run2	generate/STIM_001.jpg	99
940.59	1.469	1469.1	generate	Run2	generate/STIM_001.jpg	99
946.039	1.361	1361.1	generate	Run2	generate/STIM_001.jpg	100
950.043	1.332	1332.3	generate	Run2	generate/STIM_002.jpg	99
954.39	2.213	2213.1	generate	Run2	generate/STIM_002.jpg	100
958.865	1.58	1579.7	generate	Run2	generate/STIM_002.jpg	99
962.692	1.475	1475.0	generate	Run2	generate/STIM_002.jpg	100
967.158	1.951	1951.0	generate	Run2	generate/STIM_002.jpg	99
971.799	2.156	2155.8	generate	Run2	generate/STIM_003.jpg	100
977.796	0.996	995.5	generate	Run2	generate/STIM_003.jpg	100
982.078	1.199	1199.0	generate	Run2	generate/STIM_003.jpg	100
986.722	1.794	1794.2	generate	Run2	generate/STIM_003.jpg	100
990.705	1.259	1258.6	generate	Run2	generate/STIM_003.jpg	100
995.814	1.685	1685.1	generate	Run2	generate/STIM_004.jpg	100
1000.534	1.967	1966.8	generate	Run2	generate/STIM_004.jpg	100
1006.393	1.124	1123.6	generate	Run2	generate/STIM_004.jpg	99
1009.786	2.057	2057.2	generate	Run2	generate/STIM_004.jpg	100
1015.21	1.611	1611.2	generate	Run2	generate/STIM_004.jpg	99
1019.126	2.297	2297.3	generate	Run2	generate/STIM_005.jpg	100
1023.673	1.536	1535.7	generate	Run2	generate/STIM_005.jpg	99
1028.277	1.4	1400.4	generate	Run2	generate/STIM_005.jpg	100
1032.682	1.908	1907.6	generate	Run2	generate/STIM_005.jpg	99
1037.085	1.841	1841.3	generate	Run2	generate/STIM_005.jpg	99
1042.005	2.507	2507.3	generate	Run2	generate/STIM_006.jpg	99
1046.879	2.041	2040.7	generate	Run2	generate/STIM_006.jpg	100
1051.007	2.197	2196.6	generate	Run2	generate/STIM_006.jpg	100
1057.128	1.759	1759.2	generate	Run2	generate/STIM_006.jpg	100
1061.521	1.818	1817.8	generate	Run2	generate/STIM_006.jpg	99
1065.883	1.735	1735.0	generate	Run2	generate/STIM_007.jpg	99
1069.903	1.31	1310.2	generate	Run2	generate/STIM_007.jpg	100
1073.412	1.222	1221.6	generate	Run2	generate/STIM_007.jpg	100
1076.773	1.379	1379.0	generate	Run2	generate/STIM_007.jpg	99
1081.372	1.621	1620.6	generate	Run2	generate/STIM_007.jpg	99
1086.516	1.173	1173.0	generate	Run2	generate/STIM_008.jpg	99
1089.856	2.145	2145.0	generate	Run2	generate/STIM_008.jpg	100
1094.991	1.968	1968.3	generate	Run2	generate/STIM_008.jpg	99
1099.168	1.303	1302.6	generate	Run2	generate/STIM_008.jpg	99
1103.854	1.576	1576.4	generate	Run2	generate/STIM_008.jpg	99
1107.599	2.159	2158.7	generate	Run2	generate/STIM_009.jpg	100
1112.583	1.372	1372.2	generate	Run2	generate/STIM_009.jpg	99
1117.621	1.096	1095.7	generate	Run2	generate/STIM_009.jpg	99
1122.688	1.575	1575.4	generate	Run2	generate/STIM_009.jpg	100
1126.809	1.842	1842.5	generate	Run2	generate/STIM_009.jpg	100
1131.568	2.492	2492.5	generate	Run2	generate/STIM_010.jpg	99
1137.898	1.872	1872.5	generate	Run2	generate/STIM_010.jpg	99
1143.321	1.609	1609.4	generate	Run2	generate/STIM_010.jpg	100
1148.646	1.851	1850.6	generate	Run2	generate/STIM_010.jpg	99
1152.862	1.929	1929.1	generate	Run2	generate/STIM_010.jpg	99
1158.06	1.268	1267.6	generate	Run2	generate/STIM_011.jpg	99
1161.527	1.642	1642.0	generate	Run2	generate/STIM_011.jpg	99
1167.084	1.858	1858.3	generate	Run2	generate/STIM_011.jpg	99
1172.765	2.084	2084.3	generate	Run2	generate/STIM_011.jpg	100
1178.055	1.977	1976.6	generate	Run2	generate/STIM_011.jpg	100
1182.397	1.123	1122.8	generate	Run2	generate/STIM_012.jpg	100
1186.111	1.565	1565.3	generate	Run2	generate/STIM_012.jpg	100
1191.647	2.24	2240.3	generate	Run2	generate/STIM_012.jpg	100
1195.875	2.003	2002.6	generate	Run2	generate/STIM_012.jpg	100
1201.029	1.351	1351.2	generate	Run2	generate/STIM_012.jpg	99
1205.463	2.087	2086.8	generate	Run2	generate/STIM_013.jpg	100
1209.648	1.362	1361.7	generate	Run2	generate/STIM_013.jpg	100
1214.876	1.703	1703.1	generate	Run2	generate/STIM_013.jpg	100
1218.674	1.566	1565.9	generate	Run2	generate/STIM_013.jpg	99
1222.243	1.291	1291.4	generate	Run2	generate/STIM_013.jpg	100
1226.001	2.184	2183.8	generate	Run2	generate/STIM_014.jpg	100
1231.688	2.213	2212.7	generate	Run2	generate/STIM_014.jpg	99
1237.053	1.918	1917.8	generate	Run2	generate/STIM_014.jpg	99
1242.748	0.974	974.3	generate	Run2	generate/STIM_014.jpg	99
1247.045	0.89	890.0	generate	Run2	generate/STIM_014.jpg	99
1251.625	2.186	2186.4	generate	Run2	generate/STIM_015.jpg	100
1257.453	2.262	2261.8	generate	Run2	generate/STIM_015.jpg	99
1263.197	1.829	1829.0	generate	Run2	generate/STIM_015.jpg	99
1268.607	1.808	1807.8	generate	Run2	generate/STIM_015.jpg	100
1272.835	1.503	1502.8	generate	Run2	generate/STIM_015.jpg	99
1276.657	2.122	2121.5	generate	Run2	generate/STIM_016.jpg	100
1280.833	1.999	1998.9	generate	Run2	generate/STIM_016.jpg	99
1285.8	1.709	1709.1	generate	Run2	generate/STIM_016.jpg	99
1289.541	1.58	1579.7	generate	Run2	generate/STIM_016.jpg	100
1294.547	1.386	1386.5	generate	Run2	generate/STIM_016.jpg	100
1299.286	2.223	2222.8	generate	Run2	generate/STIM_017.jpg	100
1304.755	2.331	2330.6	generate	Run2	generate/STIM_017.jpg	99
1309.933	1.723	1722.8	generate	Run2	generate/STIM_017.jpg	100
1315.47	1.871	1870.8	generate	Run2	generate/STIM_017.jpg	100
1320.12	1.607	1607.0	generate	Run2	generate/STIM_017.jpg	99
1325.359	1.377	1377.4	generate	Run2	generate/STIM_018.jpg	99
1329.333	2.3	2300.5	generate	Run2	generate/STIM_018.jpg	99
1334.337	1.702	1701.8	generate	Run2	generate/STIM_018.jpg	99
1338.728	1.566	1565.7	generate	Run2	generate/STIM_018.jpg	99
1343.749	0.944	944.4	generate	Run2	generate/STIM_018.jpg	99
1347.908	2.524	2523.9	generate	Run2	generate/STIM_019.jpg	99
1352.466	1.828	1828.4	generate	Run2	generate/STIM_019.jpg	100
1356.807	2.114	2113.5	generate	Run2	generate/STIM_019.jpg	100
1361.721	1.696	1696.0	generate	Run2	generate/STIM_019.jpg	100
1365.971	1.001	1001.4	generate	Run2	generate/STIM_019.jpg	100
1370.496	1.608	1608.5	generate	Run2	generate/STIM_020.jpg	100
1374.496	1.019	1019.3	generate	Run2	generate/STIM_020.jpg	100
1378.443	2.065	2065.2	generate	Run2	generate/STIM_020.jpg	99
1383.581	1.538	1537.6	generate	Run2	generate/STIM_020.jpg	99
1388.605	1.468	1468.4	generate	Run2	generate/STIM_020.jpg	99
1392.651	1.471	1471.3	generate	Run2	generate/STIM_021.jpg	100
1396.846	2.092	2091.7	generate	Run2	generate/STIM_021.jpg	100
1402.706	1.576	1575.8	generate	Run2	generate/STIM_021.jpg	100
1407.366	1.941	1940.9	generate	Run2	generate/STIM_021.jpg	99
1412.686	1.55	1550.0	generate	Run2	generate/STIM_021.jpg	99
1416.275	1.474	1473.5	generate	Run2	generate/STIM_022.jpg	100
1421.306	1.042	1041.8	generate	Run2	generate/STIM_022.jpg	99
1424.629	0.943	942.9	generate	Run2	generate/STIM_022.jpg	99
1428.695	2.114	2114.0	generate	Run2	generate/STIM_022.jpg	99
1433.721	2.048	2048.0	generate	Run2	generate/STIM_022.jpg	99
1438.329	1.092	1091.9	generate	Run2	generate/STIM_023.jpg	99
1441.671	2.3	2300.5	generate	Run2	generate/STIM_023.jpg	100
1447.758	2.112	2112.4	generate	Run2	generate/STIM_023.jpg	99
1452.423	1.718	1717.5	generate	Run2	generate/STIM_023.jpg	99
1457.345	1.964	1964.3	generate	Run2	generate/STIM_023.jpg	99
1461.612	1.42	1420.4	generate	Run2	generate/STIM_024.jpg	100
1465.048	2.296	2296.2	generate	Run2	generate/STIM_024.jpg	99
1470.867	1.793	1792.9	generate	Run2	generate/STIM_024.jpg	99
1476.462	1.092	1092.5	generate	Run2	generate/STIM_024.jpg	100
1480.896	1.344	1344.4	generate	Run2	generate/STIM_024.jpg	99
1485.747	1.006	1006.5	repeat	Run2	repeat/STIM_000.jpg	99
1489.505	0.816	816.1	repeat	Run2	repeat/STIM_000.jpg	99
1493.66	0.85	849.5	repeat	Run2	repeat/STIM_000.jpg	100
1497.916	0.691	691.1	repeat	Run2	repeat/STIM_000.jpg	100
1501.097	0.572	572.3	repeat	Run2	repeat/STIM_000.jpg	99
1504.733	0.815	814.8	repeat	Run2	repeat/STIM_001.jpg	100
1508.243	0.957	956.6	repeat	Run2	repeat/STIM_001.jpg	99
1511.324	0.602	602.4	repeat	Run2	repeat/STIM_001.jpg	100
1514.871	0.814	813.5	repeat	Run2	repeat/STIM_001.jpg	99
1517.734	1.004	1003.9	repeat	Run2	repeat/STIM_001.jpg	99
1521.114	0.518	517.9	repeat	Run2	repeat/STIM_002.jpg	100
1524.344	0.778	778.2	repeat	Run2	repeat/STIM_002.jpg	99
1528.743	0.83	830.2	repeat	Run2	repeat/STIM_002.jpg	100
1533.331	0.901	900.8	repeat	Run2	repeat/STIM_002.jpg	100
1536.936	0.939	938.9	repeat	Run2	repeat/STIM_002.jpg	99
1539.997	0.622	622.0	repeat	Run2	repeat/STIM_003.jpg	100
1543.36	0.935	935.0	repeat	Run2	repeat/STIM_003.jpg	100
1547.864	0.54	540.1	repeat	Run2	repeat/STIM_003.jpg	100
1552.207	0.956	955.8	repeat	Run2	repeat/STIM_003.jpg	99
1557.122	0.586	586.5	repeat	Run2	repeat/STIM_003.jpg	99
1560.897	0.681	680.6	repeat	Run2	repeat/STIM_004.jpg	100
1565.177	0.732	731.5	repeat	Run2	repeat/STIM_004.jpg	100
1569.89	0.871	871.4	repeat	Run2	repeat/STIM_004.jpg	99
1573.084	0.896	896.0	repeat	Run2	repeat/STIM_004.jpg	99
1576.85	0.64	639.9	repeat	Run2	repeat/STIM_004.jpg	99
1580.839	0.946	946.4	repeat	Run2	repeat/STIM_005.jpg	100
1585.583	0.765	765.3	repeat	Run2	repeat/STIM_005.jpg	100
1590.288	0.915	915.3	repeat	Run2	repeat/STIM_005.jpg	100
1593.927	0.627	627.3	repeat	Run2	repeat/STIM_005.jpg	100
1597.194	0.8	800.2	repeat	Run2	repeat/STIM_005.jpg	99
1601.616	0.953	953.0	repeat	Run2	repeat/STIM_006.jpg	99
1606.1	0.923	923.0	repeat	Run2	repeat/STIM_006.jpg	100
1609.253	0.559	559.2	repeat	Run2	repeat/STIM_006.jpg	100
1613.098	0.902	901.9	repeat	Run2	repeat/STIM_006.jpg	100
1617.328	0.954	954.3	repeat	Run2	repeat/STIM_006.jpg	99
1620.776	0.664	663.6	repeat	Run2	repeat/STIM_007.jpg	99
1623.702	0.53	530.5	repeat	Run2	repeat/STIM_007.jpg	99
1628.128	0.96	960.5	repeat	Run2	repeat/STIM_007.jpg	100
1631.831	0.815	814.8	repeat	Run2	repeat/STIM_007.jpg	100
1635.105	0.929	928.8	repeat	Run2	repeat/STIM_007.jpg	99
1639.24	0.752	751.7	repeat	Run2	repeat/STIM_008.jpg	99
1642.027	0.884	883.9	repeat	Run2	repeat/STIM_008.jpg	99
1645.514	0.831	830.8	repeat	Run2	repeat/STIM_008.jpg	99
1648.756	0.997	997.3	repeat	Run2	repeat/STIM_008.jpg	99
1652.724	0.509	509.1	repeat	Run2	repeat/STIM_008.jpg	100
1656.823	0.769	768.8	repeat	Run2	repeat/STIM_009.jpg	100
1661.445	0.747	746.7	repeat	Run2	repeat/STIM_009.jpg	99
1665.433	0.605	604.7	repeat	Run2	repeat/STIM_009.jpg	100
1669.769	0.52	520.0	repeat	Run2	repeat/STIM_009.jpg	99
1672.348	0.823	822.9	repeat	Run2	repeat/STIM_009.jpg	100
1676.711	0.688	688.0	repeat	Run2	repeat/STIM_010.jpg	99
1680.201	0.824	823.9	repeat	Run2	repeat/STIM_010.jpg	100
1684.787	0.716	715.9	repeat	Run2	repeat/STIM_010.jpg	99
1689.429	0.712	712.3	repeat	Run2	repeat/STIM_010.jpg	99
1693.408	0.959	958.8	repeat	Run2	repeat/STIM_010.jpg	100
1696.874	0.818	817.5	repeat	Run2	repeat/STIM_011.jpg	99
1699.994	0.522	521.5	repeat	Run2	repeat/STIM_011.jpg	100
1703.265	0.842	841.9	repeat	Run2	repeat/STIM_011.jpg	100
1707.667	0.976	976.4	repeat	Run2	repeat/STIM_011.jpg	100
1712.589	0.927	926.6	repeat	Run2	repeat/STIM_011.jpg	100
1716.768	0.976	976.1	repeat	Run2	repeat/STIM_012.jpg	100
1720.372	0.766	766.3	repeat	Run2	repeat/STIM_012.jpg	99
1723.669	0.824	823.9	repeat	Run2	repeat/STIM_012.jpg	100
1727.341	0.659	659.4	repeat	Run2	repeat/STIM_012.jpg	100
1731.183	0.558	557.6	repeat	Run2	repeat/STIM_012.jpg	100
1735.218	0.704	704.3	repeat	Run2	repeat/STIM_013.jpg	100
1739.483	0.728	727.9	repeat	Run2	repeat/STIM_013.jpg	100
1744.139	0.859	858.6	repeat	Run2	repeat/STIM_013.jpg	99
1747.872	0.512	511.6	repeat	Run2	repeat/STIM_013.jpg	99
1751.202	0.739	739.1	repeat	Run2	repeat/STIM_013.jpg	100
1755.354	0.915	915.1	repeat	Run2	repeat/STIM_014.jpg	100
1759.006	0.822	822.3	repeat	Run2	repeat/STIM_014.jpg	100
1762.984	0.849	848.7	repeat	Run2	repeat/STIM_014.jpg	99
1766.46	0.649	648.8	repeat	Run2	repeat/STIM_014.jpg	100
1770.924	0.721	720.7	repeat	Run2	repeat/STIM_014.jpg	99
1774.879	1.93	1930.2	generate	Run3	generate/STIM_000.jpg	99
1779.195	1.703	1702.6	generate	Run3	generate/STIM_000.jpg	100
1784.65	1.548	1547.6	generate	Run3	generate/STIM_000.jpg	99
1788.478	0.994	994.0	generate	Run3	generate/STIM_000.jpg	100
1791.473	1.61	1610.5	generate	Run3	generate/STIM_000.jpg	100
1795.168	1.242	1241.6	generate	Run3	generate/STIM_001.jpg	99
1800.052	0.98	979.6	generate	Run3	generate/STIM_001.jpg	99
1803.982	1.601	1601.1	generate	Run3	generate/STIM_001.jpg	99
1809.366	0.868	868.0	generate	Run3	generate/STIM_001.jpg	99
1813.292	2.053	2053.0	generate	Run3	generate/STIM_001.jpg	100
1818.256	1.051	1051.4	generate	Run3	generate/STIM_002.jpg	99
1821.812	1.639	1639.0	generate	Run3	generate/STIM_002.jpg	99
1825.748	1.28	1280.5	generate	Run3	generate/STIM_002.jpg	99
1830.044	2.094	2094.2	generate	Run3	generate/STIM_002.jpg	99
1835.217	1.305	1304.7	generate	Run3	generate/STIM_002.jpg	99
1839.48	2.087	2087.2	generate	Run3	generate/STIM_003.jpg	100
1845.533	0.91	910.2	generate	Run3	generate/STIM_003.jpg	99
1848.716	1.627	1626.6	generate	Run3	generate/STIM_003.jpg	100
1853.868	0.974	974.1	generate	Run3	generate/STIM_003.jpg	99
1858.348	1.107	1106.7	generate	Run3	generate/STIM_003.jpg	100
1862.131	1.58	1580.0	generate	Run3	generate/STIM_004.jpg	100
1867.473	1.448	1447.9	generate	Run3	generate/STIM_004.jpg	99
1871.322	2.069	2069.4	generate	Run3	generate/STIM_004.jpg	100
1875.803	1.184	1184.0	generate	Run3	generate/STIM_004.jpg	100
1880.805	1.247	1247.2	generate	Run3	generate/STIM_004.jpg	99
1885.384	0.954	954.3	generate	Run3	generate/STIM_005.jpg	100
1889.897	1.839	1839.2	generate	Run3	generate/STIM_005.jpg	99
1895.555	1.663	1663.1	generate	Run3	generate/STIM_005.jpg	100
1901.066	2.105	2105.1	generate	Run3	generate/STIM_005.jpg	100
1905.919	1.545	1544.8	generate	Run3	generate/STIM_005.jpg	99
1911.4	1.808	1808.0	generate	Run3	generate/STIM_006.jpg	99
1915.567	1.914	1913.7	generate	Run3	generate/STIM_006.jpg	100
1920.375	1.263	1263.0	generate	Run3	generate/STIM_006.jpg	100
1924.781	1.896	1895.8	generate	Run3	generate/STIM_006.jpg	99
1929.168	2.074	2074.0	generate	Run3	generate/STIM_006.jpg	99
1933.691	2.008	2008.2	generate	Run3	generate/STIM_007.jpg	100
1938.001	1.596	1595.7	generate	Run3	generate/STIM_007.jpg	99
1941.616	1.763	1762.6	generate	Run3	generate/STIM_007.jpg	99
1945.821	1.106	1106.4	generate	Run3	generate/STIM_007.jpg	100
1949.166	1.659	1658.6	generate	Run3	generate/STIM_007.jpg	100
1952.881	1.416	1416.0	generate	Run3	generate/STIM_008.jpg	99
1957.696	1.086	1085.5	generate	Run3	generate/STIM_008.jpg	100
1961.337	1.857	1857.4	generate	Run3	generate/STIM_008.jpg	100
1965.503	1.739	1739.3	generate	Run3	generate/STIM_008.jpg	99
1970.75	1.689	1689.2	generate	Run3	generate/STIM_008.jpg	100
1975.711	1.595	1594.8	generate	Run3	generate/STIM_009.jpg	100
1979.373	2.0	2000.4	generate	Run3	generate/STIM_009.jpg	99
1984.238	0.997	997.1	generate	Run3	generate/STIM_009.jpg	100
1988.756	1.755	1755.0	generate	Run3	generate/STIM_009.jpg	99
1992.596	1.031	1030.9	generate	Run3	generate/STIM_009.jpg	99
1997.593	1.935	1934.6	generate	Run3	generate/STIM_010.jpg	100
2001.869	1.764	1764.0	generate	Run3	generate/STIM_010.jpg	100
2006.526	1.664	1664.1	generate	Run3	generate/STIM_010.jpg	100
2011.537	2.089	2089.2	generate	Run3	generate/STIM_010.jpg	100
2016.403	1.359	1358.9	generate	Run3	generate/STIM_010.jpg	99
2021.693	1.351	1350.7	generate	Run3	generate/STIM_011.jpg	99
2026.581	1.026	1025.6	generate	Run3	generate/STIM_011.jpg	99
2030.292	1.257	1257.4	generate	Run3	generate/STIM_011.jpg	100
2034.758	1.089	1089.0	generate	Run3	generate/STIM_011.jpg	99
2038.315	1.443	1443.0	generate	Run3	generate/STIM_011.jpg	99
2043.373	2.083	2082.8	generate	Run3	generate/STIM_012.jpg	100
2048.917	1.26	1259.7	generate	Run3	generate/STIM_012.jpg	100
2053.69	1.188	1187.7	generate	Run3	generate/STIM_012.jpg	100
2058.043	2.022	2022.4	generate	Run3	generate/STIM_012.jpg	100
2062.084	1.941	1941.3	generate	Run3	generate/STIM_012.jpg	100
2066.931	1.768	1768.1	generate	Run3	generate/STIM_013.jpg	100
2072.245	1.715	1714.6	generate	Run3	generate/STIM_013.jpg	99
2076.867	1.84	1839.8	generate	Run3	generate/STIM_013.jpg	100
2080.761	1.101	1100.7	generate	Run3	generate/STIM_013.jpg	100
2085.499	0.946	946.4	generate	Run3	generate/STIM_013.jpg	99
2089.496	1.035	1035.3	generate	Run3	generate/STIM_014.jpg	100
2094.371	1.171	1171.1	generate	Run3	generate/STIM_014.jpg	99
2098.25	1.327	1326.9	generate	Run3	generate/STIM_014.jpg	100
2101.761	1.649	1649.0	generate	Run3	generate/STIM_014.jpg	99
2107.074	1.93	1930.2	generate	Run3	generate/STIM_014.jpg	99
2111.282	1.981	1981.3	generate	Run3	generate/STIM_015.jpg	99
2116.296	2.022	2021.7	generate	Run3	generate/STIM_015.jpg	99
2122.193	1.543	1542.9	generate	Run3	generate/STIM_015.jpg	100
2125.956	1.873	1873.3	generate	Run3	generate/STIM_015.jpg	99
2130.805	1.901	1900.9	generate	Run3	generate/STIM_015.jpg	100
2136.062	1.11	1109.8	generate	Run3	generate/STIM_016.jpg	99
2140.408	1.785	1785.2	generate	Run3	generate/STIM_016.jpg	99
2145.464	1.496	1495.6	generate	Run3	generate/STIM_016.jpg	100
2149.861	1.149	1149.1	generate	Run3	generate/STIM_016.jpg	99
2154.876	1.632	1631.6	generate	Run3	generate/STIM_016.jpg	100
2159.076	0.992	991.6	generate	Run3	generate/STIM_017.jpg	99
2162.113	2.045	2044.8	generate	Run3	generate/STIM_017.jpg	99
2167.519	1.322	1321.9	generate	Run3	generate/STIM_017.jpg	100
2171.386	1.742	1742.1	generate	Run3	generate/STIM_017.jpg	100
2175.123	1.042	1042.3	generate	Run3	generate/STIM_017.jpg	99
2178.19	1.059	1059.3	generate	Run3	generate/STIM_018.jpg	100
2182.683	2.082	2081.9	generate	Run3	generate/STIM_018.jpg	100
2188.672	1.782	1781.7	generate	Run3	generate/STIM_018.jpg	100
2194.11	0.867	866.9	generate	Run3	generate/STIM_018.jpg	99
2197.941	1.252	1251.9	generate	Run3	generate/STIM_018.jpg	99
2202.235	1.89	1890.1	generate	Run3	generate/STIM_019.jpg	99
2207.846	1.19	1190.2	generate	Run3	generate/STIM_019.jpg	99
2211.947	0.914	914.0	generate	Run3	generate/STIM_019.jpg	99
2215.627	1.654	1654.4	generate	Run3	generate/STIM_019.jpg	99
2219.462	0.896	895.8	generate	Run3	generate/STIM_019.jpg	99
2222.587	0.979	979.1	generate	Run3	generate/STIM_020.jpg	99
2225.805	1.578	1577.5	generate	Run3	generate/STIM_020.jpg	99
2230.74	2.025	2025.2	generate	Run3	generate/STIM_020.jpg	99
2235.548	1.549	1548.7	generate	Run3	generate/STIM_020.jpg	100
2240.36	2.001	2001.0	generate	Run3	generate/STIM_020.jpg	99
2245.45	1.73	1729.6	generate	Run3	generate/STIM_021.jpg	99
2251.056	1.912	1911.5	generate	Run3	generate/STIM_021.jpg	99
2256.685	1.09	1090.5	generate	Run3	generate/STIM_021.jpg	100
2261.437	0.917	917.4	generate	Run3	generate/STIM_021.jpg	99
2266.134	1.063	1062.7	generate	Run3	generate/STIM_021.jpg	100
2270.266	1.085	1084.7	generate	Run3	generate/STIM_022.jpg	100
2274.025	1.63	1629.8	generate	Run3	generate/STIM_022.jpg	100
2279.416	1.39	1389.6	generate	Run3	generate/STIM_022.jpg	99
2283.855	1.816	1815.8	generate	Run3	generate/STIM_022.jpg	100
2288.196	1.68	1680.4	generate	Run3	generate/STIM_022.jpg	99
2292.13	1.44	1439.8	generate	Run3	generate/STIM_023.jpg	99
2296.32	1.297	1296.9	generate	Run3	generate/STIM_023.jpg	100
2299.912	1.365	1365.1	generate	Run3	generate/STIM_023.jpg	100
2304.527	1.316	1315.9	generate	Run3	generate/STIM_023.jpg	99
2309.168	1.023	1022.6	generate	Run3	generate/STIM_023.jpg	99
2312.197	1.83	1830.5	generate	Run3	generate/STIM_024.jpg	99
2316.827	0.856	855.5	generate	Run3	generate/STIM_024.jpg	99
2319.918	1.338	1338.4	generate	Run3	generate/STIM_024.jpg	100
2323.383	2.108	2107.8	generate	Run3	generate/STIM_024.jpg	99
2329.183	2.007	2006.7	generate	Run3	generate/STIM_024.jpg	100
2334.923	0.967	967.3	repeat	Run3	repeat/STIM_000.jpg	100
2338.939	0.535	534.8	repeat	Run3	repeat/STIM_000.jpg	100
2341.892	0.719	718.7	repeat	Run3	repeat/STIM_000.jpg	100
2345.189	0.773	772.9	repeat	Run3	repeat/STIM_000.jpg	99
2348.563	0.642	641.7	repeat	Run3	repeat/STIM_000.jpg	100
2352.972	0.666	665.6	repeat	Run3	repeat/STIM_001.jpg	99
2355.786	0.952	951.5	repeat	Run3	repeat/STIM_001.jpg	99
2359.788	0.733	733.0	repeat	Run3	repeat/STIM_001.jpg	100
2363.315	0.936	936.5	repeat	Run3	repeat/STIM_001.jpg	99
2366.561	0.553	552.6	repeat	Run3	repeat/STIM_001.jpg	99
2370.075	0.734	733.9	repeat	Run3	repeat/STIM_002.jpg	99
2373.395	0.63	630.2	repeat	Run3	repeat/STIM_002.jpg	100
2377.467	0.726	725.9	repeat	Run3	repeat/STIM_002.jpg	100
2381.66	0.988	987.5	repeat	Run3	repeat/STIM_002.jpg	100
2385.118	0.728	727.8	repeat	Run3	repeat/STIM_002.jpg	100
2388.314	0.822	821.9	repeat	Run3	repeat/STIM_003.jpg	100
2392.864	0.881	881.1	repeat	Run3	repeat/STIM_003.jpg	100
2396.557	0.953	952.6	repeat	Run3	repeat/STIM_003.jpg	100
2400.472	0.96	959.9	repeat	Run3	repeat/STIM_003.jpg	99
2404.213	0.593	592.7	repeat	Run3	repeat/STIM_003.jpg	99
2407.571	0.868	868.1	repeat	Run3	repeat/STIM_004.jpg	99
2411.475	0.981	980.8	repeat	Run3	repeat/STIM_004.jpg	99
2414.515	0.506	506.1	repeat	Run3	repeat/STIM_004.jpg	99
2418.026	0.844	844.0	repeat	Run3	repeat/STIM_004.jpg	100
2421.322	0.577	576.7	repeat	Run3	repeat/STIM_004.jpg	99
2424.356	0.904	903.9	repeat	Run3	repeat/STIM_005.jpg	99
2428.576	0.947	947.2	repeat	Run3	repeat/STIM_005.jpg	100
2432.31	0.569	568.6	repeat	Run3	repeat/STIM_005.jpg	100
2435.017	0.715	714.9	repeat	Run3	repeat/STIM_005.jpg	99
2439.252	0.51	509.7	repeat	Run3	repeat/STIM_005.jpg	99
2442.575	0.75	749.7	repeat	Run3	repeat/STIM_006.jpg	99
2446.34	0.891	891.2	repeat	Run3	repeat/STIM_006.jpg	100
2450.515	0.874	874.1	repeat	Run3	repeat/STIM_006.jpg	100
2455.134	0.994	993.7	repeat	Run3	repeat/STIM_006.jpg	99
2459.792	0.522	521.8	repeat	Run3	repeat/STIM_006.jpg	100
2462.463	0.836	835.9	repeat	Run3	repeat/STIM_007.jpg	100
2465.417	0.787	786.6	repeat	Run3	repeat/STIM_007.jpg	99
2469.993	0.808	808.5	repeat	Run3	repeat/STIM_007.jpg	100
2473.956	0.981	980.6	repeat	Run3	repeat/STIM_007.jpg	100
2477.967	0.852	851.7	repeat	Run3	repeat/STIM_007.jpg	100
2481.619	0.594	593.8	repeat	Run3	repeat/STIM_008.jpg	100
2485.992	0.588	588.5	repeat	Run3	repeat/STIM_008.jpg	100
2489.087	0.538	538.1	repeat	Run3	repeat/STIM_008.jpg	99
2492.917	0.754	754.5	repeat	Run3	repeat/STIM_008.jpg	100
2497.296	0.864	863.6	repeat	Run3	repeat/STIM_008.jpg	99
2501.71	0.664	663.7	repeat	Run3	repeat/STIM_009.jpg	99
2505.224	0.54	539.8	repeat	Run3	repeat/STIM_009.jpg	100
2508.355	0.926	925.8	repeat	Run3	repeat/STIM_009.jpg	100
2513.138	0.992	991.7	repeat	Run3	repeat/STIM_009.jpg	99
2518.058	0.943	943.3	repeat	Run3	repeat/STIM_009.jpg	100
2522.147	0.706	706.1	repeat	Run3	repeat/STIM_010.jpg	99
2526.04	0.688	688.4	repeat	Run3	repeat/STIM_010.jpg	100
2529.357	0.89	890.4	repeat	Run3	repeat/STIM_010.jpg	100
2532.411	0.937	937.3	repeat	Run3	repeat/STIM_010.jpg	100
2536.699	0.799	799.0	repeat	Run3	repeat/STIM_010.jpg	100
2541.391	0.77	770.1	repeat	Run3	repeat/STIM_011.jpg	99
2544.535	0.966	965.7	repeat	Run3	repeat/STIM_011.jpg	99
2549.421	0.674	674.3	repeat	Run3	repeat/STIM_011.jpg	100
2552.382	0.607	607.2	repeat	Run3	repeat/STIM_011.jpg	99
2555.455	0.629	629.0	repeat	Run3	repeat/STIM_011.jpg	99
2559.367	0.914	913.6	repeat	Run3	repeat/STIM_012.jpg	99
2562.529	0.731	730.8	repeat	Run3	repeat/STIM_012.jpg	99
2566.012	0.637	637.1	repeat	Run3	repeat/STIM_012.jpg	99
2569.187	0.65	650.2	repeat	Run3	repeat/STIM_012.jpg	99
2573.51	0.645	645.2	repeat	Run3	repeat/STIM_012.jpg	99
2576.917	0.629	628.9	repeat	Run3	repeat/STIM_013.jpg	99
2579.894	0.975	975.2	repeat	Run3	repeat/STIM_013.jpg	100
2582.967	0.879	878.9	repeat	Run3	repeat/STIM_013.jpg	99
2587.439	0.548	547.6	repeat	Run3	repeat/STIM_013.jpg	99
2590.487	0.888	887.5	repeat	Run3	repeat/STIM_013.jpg	100
2595.316	0.711	711.4	repeat	Run3	repeat/STIM_014.jpg	100
2598.16	0.747	747.0	repeat	Run3	repeat/STIM_014.jpg	100
2602.789	0.679	679.2	repeat	Run3	repeat/STIM_014.jpg	99
2605.664	0.688	687.6	repeat	Run3	repeat/STIM_014.jpg	99
2609.424	0.828	828.0	repeat	Run3	repeat/STIM_014.jpg	100
2613.21	2.046	2045.8	generate	Run4	generate/STIM_000.jpg	100
2617.996	0.848	847.5	generate	Run4	generate/STIM_000.jpg	99
2621.157	1.038	1037.8	generate	Run4	generate/STIM_000.jpg	100
2625.078	1.856	1855.8	generate	Run4	generate/STIM_000.jpg	100
2629.869	1.973	1972.7	generate	Run4	generate/STIM_000.jpg	100
2635.081	1.666	1665.8	generate	Run4	generate/STIM_001.jpg	100
2639.206	1.55	1550.1	generate	Run4	generate/STIM_001.jpg	100
2644.335	1.556	1556.3	generate	Run4	generate/STIM_001.jpg	99
2649.28	0.902	902.3	generate	Run4	generate/STIM_001.jpg	99
2653.778	1.151	1150.7	generate	Run4	generate/STIM_001.jpg	100
2657.761	1.519	1519.2	generate	Run4	generate/STIM_002.jpg	100
2661.689	1.36	1359.9	generate	Run4	generate/STIM_002.jpg	99
2665.971	1.325	1325.0	generate	Run4	generate/STIM_002.jpg	100
2670.824	1.65	1650.5	generate	Run4	generate/STIM_002.jpg	99
2674.47	1.473	1473.2	generate	Run4	generate/STIM_002.jpg	99
2678.937	1.661	1661.0	generate	Run4	generate/STIM_003.jpg	99
2683.96	1.617	1617.4	generate	Run4	generate/STIM_003.jpg	99
2688.846	1.252	1252.4	generate	Run4	generate/STIM_003.jpg	100
2692.503	1.906	1905.9	generate	Run4	generate/STIM_003.jpg	99
2697.693	1.178	1177.6	generate	Run4	generate/STIM_003.jpg	99
2701.322	1.224	1224.5	generate	Run4	generate/STIM_004.jpg	100
2706.424	1.177	1177.4	generate	Run4	generate/STIM_004.jpg	99
2711.018	1.247	1247.1	generate	Run4	generate/STIM_004.jpg	100
2715.288	1.392	1391.6	generate	Run4	generate/STIM_004.jpg	100
2719.773	1.582	1582.4	generate	Run4	generate/STIM_004.jpg	99
2724.506	1.137	1137.0	generate	Run4	generate/STIM_005.jpg	99
2729.474	0.893	893.2	generate	Run4	generate/STIM_005.jpg	100
2732.696	0.936	935.8	generate	Run4	generate/STIM_005.jpg	99
2736.309	1.905	1905.4	generate	Run4	generate/STIM_005.jpg	99
2740.545	1.606	1605.5	generate	Run4	generate/STIM_005.jpg	99
2744.509	1.058	1057.5	generate	Run4	generate/STIM_006.jpg	99
2749.441	2.02	2020.4	generate	Run4	generate/STIM_006.jpg	99
2754.462	1.09	1090.4	generate	Run4	generate/STIM_006.jpg	100
2758.83	1.329	1329.0	generate	Run4	generate/STIM_006.jpg	99
2763.091	1.384	1384.1	generate	Run4	generate/STIM_006.jpg	100
2767.456	1.61	1609.5	generate	Run4	generate/STIM_007.jpg	99
2771.603	1.389	1388.6	generate	Run4	generate/STIM_007.jpg	100
2775.594	1.597	1597.1	generate	Run4	generate/STIM_007.jpg	99
2779.725	0.978	978.3	generate	Run4	generate/STIM_007.jpg	99
2784.195	1.334	1333.6	generate	Run4	generate/STIM_007.jpg	99
2788.807	0.917	917.1	generate	Run4	generate/STIM_008.jpg	99
2792.054	1.266	1265.5	generate	Run4	generate/STIM_008.jpg	99
2796.003	1.918	1918.5	generate	Run4	generate/STIM_008.jpg	100
2801.549	2.062	2061.5	generate	Run4	generate/STIM_008.jpg	99
2806.437	0.874	874.0	generate	Run4	generate/STIM_008.jpg	99
2811.157	1.31	1310.1	generate	Run4	generate/STIM_009.jpg	99
2816.018	1.8	1800.4	generate	Run4	generate/STIM_009.jpg	99
2819.903	1.316	1316.3	generate	Run4	generate/STIM_009.jpg	99
2825.152	1.284	1283.5	generate	Run4	generate/STIM_009.jpg	100
2830.38	1.8	1799.6	generate	Run4	generate/STIM_009.jpg	99
2834.525	2.065	2065.2	generate	Run4	generate/STIM_010.jpg	99
2840.453	1.127	1127.2	generate	Run4	generate/STIM_010.jpg	100
2845.476	1.149	1149.3	generate	Run4	generate/STIM_010.jpg	99
2848.896	1.706	1705.6	generate	Run4	generate/STIM_010.jpg	99
2853.741	1.99	1989.5	generate	Run4	generate/STIM_010.jpg	99
2859.339	1.083	1083.0	generate	Run4	generate/STIM_011.jpg	100
2864.202	1.261	1260.6	generate	Run4	generate/STIM_011.jpg	99
2869.332	1.462	1462.3	generate	Run4	generate/STIM_011.jpg	99
2874.313	1.537	1537.1	generate	Run4	generate/STIM_011.jpg	100
2877.958	1.926	1925.8	generate	Run4	generate/STIM_011.jpg	99
2882.811	2.011	2011.5	generate	Run4	generate/STIM_012.jpg	99
2887.343	1.23	1230.5	generate	Run4	generate/STIM_012.jpg	99
2892.126	0.955	955.1	generate	Run4	generate/STIM_012.jpg	100
2895.492	0.855	854.6	generate	Run4	generate/STIM_012.jpg	100
2900.317	1.935	1934.8	generate	Run4	generate/STIM_012.jpg	100
2904.816	1.804	1803.8	generate	Run4	generate/STIM_013.jpg	100
2909.435	1.485	1485.3	generate	Run4	generate/STIM_013.jpg	99
2914.556	1.904	1903.5	generate	Run4	generate/STIM_013.jpg	100
2919.31	0.888	888.4	generate	Run4	generate/STIM_013.jpg	100
2923.034	1.824	1823.9	generate	Run4	generate/STIM_013.jpg	100
2928.504	1.051	1050.7	generate	Run4	generate/STIM_014.jpg	100
2933.3	1.218	1217.6	generate	Run4	generate/STIM_014.jpg	99
2937.137	1.383	1382.8	generate	Run4	generate/STIM_014.jpg	100
2941.675	1.51	1509.6	generate	Run4	generate/STIM_014.jpg	99
2945.736	1.346	1345.6	generate	Run4	generate/STIM_014.jpg	100
2949.074	2.066	2066.3	generate	Run4	generate/STIM_015.jpg	100
2953.417	2.034	2033.9	generate	Run4	generate/STIM_015.jpg	100
2957.859	1.889	1889.2	generate	Run4	generate/STIM_015.jpg	100
2962.983	1.15	1149.8	generate	Run4	generate/STIM_015.jpg	100
2967.953	2.092	2091.8	generate	Run4	generate/STIM_015.jpg	100
2973.268	1.917	1917.2	generate	Run4	generate/STIM_016.jpg	99
2979.032	2.102	2102.4	generate	Run4	generate/STIM_016.jpg	100
2983.802	2.102	2102.5	generate	Run4	generate/STIM_016.jpg	99
2989.712	1.087	1087.1	generate	Run4	generate/STIM_016.jpg	99
2994.535	1.031	1030.6	generate	Run4	generate/STIM_016.jpg	100
2998.584	0.961	961.3	generate	Run4	generate/STIM_017.jpg	99
3002.402	0.988	987.7	generate	Run4	generate/STIM_017.jpg	100
3006.244	1.42	1420.5	generate	Run4	generate/STIM_017.jpg	99
3011.618	1.751	1751.0	generate	Run4	generate/STIM_017.jpg	100
3016.579	0.974	973.5	generate	Run4	generate/STIM_017.jpg	100
3020.558	2.105	2105.1	generate	Run4	generate/STIM_018.jpg	99
3024.817	2.012	2011.6	generate	Run4	generate/STIM_018.jpg	99
3029.739	1.519	1518.9	generate	Run4	generate/STIM_018.jpg	100
3033.939	1.643	1642.8	generate	Run4	generate/STIM_018.jpg	100
3038.384	1.768	1768.2	generate	Run4	generate/STIM_018.jpg	100
3042.579	1.589	1589.1	generate	Run4	generate/STIM_019.jpg	100
3047.085	2.007	2006.9	generate	Run4	generate/STIM_019.jpg	99
3051.421	1.379	1379.0	generate	Run4	generate/STIM_019.jpg	100
3055.979	1.117	1116.7	generate	Run4	generate/STIM_019.jpg	100
3060.412	1.848	1847.6	generate	Run4	generate/STIM_019.jpg	100
3065.249	1.343	1343.1	generate	Run4	generate/STIM_020.jpg	99
3068.659	1.257	1256.9	generate	Run4	generate/STIM_020.jpg	99
3073.151	1.98	1979.6	generate	Run4	generate/STIM_020.jpg	100
3078.461	0.964	964.1	generate	Run4	generate/STIM_020.jpg	100
3082.564	1.613	1612.9	generate	Run4	generate/STIM_020.jpg	99
3087.507	1.83	1830.1	generate	Run4	generate/STIM_021.jpg	100
3091.657	1.866	1866.5	generate	Run4	generate/STIM_021.jpg	99
3096.11	1.49	1489.6	generate	Run4	generate/STIM_021.jpg	100
3100.358	1.037	1036.7	generate	Run4	generate/STIM_021.jpg	99
3103.754	0.872	871.8	generate	Run4	generate/STIM_021.jpg	100
3108.115	1.766	1766.2	generate	Run4	generate/STIM_022.jpg	99
3112.059	0.86	860.5	generate	Run4	generate/STIM_022.jpg	100
3116.369	0.972	972.0	generate	Run4	generate/STIM_022.jpg	100
3120.844	1.721	1721.1	generate	Run4	generate/STIM_022.jpg	99
3125.56	1.25	1250.1	generate	Run4	generate/STIM_022.jpg	100
3128.922	1.799	1799.2	generate	Run4	generate/STIM_023.jpg	100
3133.568	2.013	2013.1	generate	Run4	generate/STIM_023.jpg	100
3138.342	1.63	1629.9	generate	Run4	generate/STIM_023.jpg	100
3142.89	1.989	1988.7	generate	Run4	generate/STIM_023.jpg	99
3148.834	1.26	1259.5	generate	Run4	generate/STIM_023.jpg	100
3152.991	1.352	1351.8	generate	Run4	generate/STIM_024.jpg	99
3156.926	1.226	1226.2	generate	Run4	generate/STIM_024.jpg	100
3161.476	0.868	868.3	generate	Run4	generate/STIM_024.jpg	100
3166.251	1.863	1863.3	generate	Run4	generate/STIM_024.jpg	99
3172.021	1.976	1976.3	generate	Run4	generate/STIM_024.jpg	99
3176.75	0.896	896.5	repeat	Run4	repeat/STIM_000.jpg	100
3180.428	0.568	567.8	repeat	Run4	repeat/STIM_000.jpg	99
3184.876	0.542	542.4	repeat	Run4	repeat/STIM_000.jpg	100
3188.862	0.844	844.2	repeat	Run4	repeat/STIM_000.jpg	99
3192.021	0.606	605.5	repeat	Run4	repeat/STIM_000.jpg	99
3196.414	0.665	665.0	repeat	Run4	repeat/STIM_001.jpg	100
3200.698	0.524	523.7	repeat	Run4	repeat/STIM_001.jpg	100
3203.596	0.666	666.4	repeat	Run4	repeat/STIM_001.jpg	100
3206.483	0.848	847.9	repeat	Run4	repeat/STIM_001.jpg	99
3211.089	0.776	776.1	repeat	Run4	repeat/STIM_001.jpg	99
3214.649	0.613	612.6	repeat	Run4	repeat/STIM_002.jpg	100
3218.417	0.561	560.8	repeat	Run4	repeat/STIM_002.jpg	99
3222.448	0.813	813.1	repeat	Run4	repeat/STIM_002.jpg	99
3225.538	0.921	921.0	repeat	Run4	repeat/STIM_002.jpg	99
3229.96	0.896	896.2	repeat	Run4	repeat/STIM_002.jpg	100
3234.292	0.654	654.1	repeat	Run4	repeat/STIM_003.jpg	99
3238.02	0.987	986.9	repeat	Run4	repeat/STIM_003.jpg	99
3242.078	0.721	721.1	repeat	Run4	repeat/STIM_003.jpg	100
3245.298	0.769	768.8	repeat	Run4	repeat/STIM_003.jpg	99
3248.665	0.805	804.6	repeat	Run4	repeat/STIM_003.jpg	100
3252.351	0.552	552.2	repeat	Run4	repeat/STIM_004.jpg	99
3256.859	0.913	913.0	repeat	Run4	repeat/STIM_004.jpg	99
3260.285	0.562	562.1	repeat	Run4	repeat/STIM_004.jpg	99
3264.538	0.622	622.4	repeat	Run4	repeat/STIM_004.jpg	100
3268.508	0.684	684.1	repeat	Run4	repeat/STIM_004.jpg	99
3271.422	0.58	579.9	repeat	Run4	repeat/STIM_005.jpg	100
3275.916	0.885	885.4	repeat	Run4	repeat/STIM_005.jpg	99
3279.58	1.0	999.7	repeat	Run4	repeat/STIM_005.jpg	99
3282.866	0.99	990.0	repeat	Run4	repeat/STIM_005.jpg	99
3287.628	0.949	948.8	repeat	Run4	repeat/STIM_005.jpg	100
3291.927	0.915	915.1	repeat	Run4	repeat/STIM_006.jpg	100
3295.852	0.766	766.3	repeat	Run4	repeat/STIM_006.jpg	100
3300.535	0.88	880.4	repeat	Run4	repeat/STIM_006.jpg	99
3303.968	0.652	652.3	repeat	Run4	repeat/STIM_006.jpg	100
3308.418	0.924	924.5	repeat	Run4	repeat/STIM_006.jpg	100
3312.855	0.802	801.7	repeat	Run4	repeat/STIM_007.jpg	100
3316.08	0.516	515.8	repeat	Run4	repeat/STIM_007.jpg	100
3319.15	0.534	534.3	repeat	Run4	repeat/STIM_007.jpg	100
3321.927	0.558	558.4	repeat	Run4	repeat/STIM_007.jpg	99
3326.208	0.562	562.3	repeat	Run4	repeat/STIM_007.jpg	100
3330.295	1.004	1003.8	repeat	Run4	repeat/STIM_008.jpg	99
3334.055	0.862	861.8	repeat	Run4	repeat/STIM_008.jpg	100
3338.396	0.824	824.1	repeat	Run4	repeat/STIM_008.jpg	100
3341.915	0.795	795.2	repeat	Run4	repeat/STIM_008.jpg	99
3345.313	0.536	536.0	repeat	Run4	repeat/STIM_008.jpg	100
3348.825	0.844	844.0	repeat	Run4	repeat/STIM_009.jpg	100
3353.454	0.788	787.7	repeat	Run4	repeat/STIM_009.jpg	100
3356.639	0.843	842.9	repeat	Run4	repeat/STIM_009.jpg	99
3360.761	0.682	682.4	repeat	Run4	repeat/STIM_009.jpg	99
3365.129	0.67	669.5	repeat	Run4	repeat/STIM_009.jpg	99
3368.939	0.619	619.0	repeat	Run4	repeat/STIM_010.jpg	99
3373.178	0.704	703.7	repeat	Run4	repeat/STIM_010.jpg	100
3377.641	0.748	747.8	repeat	Run4	repeat/STIM_010.jpg	100
3381.119	0.582	582.2	repeat	Run4	repeat/STIM_010.jpg	99
3384.771	0.778	778.5	repeat	Run4	repeat/STIM_010.jpg	100
3388.065	0.782	781.9	repeat	Run4	repeat/STIM_011.jpg	99
3391.798	0.619	618.9	repeat	Run4	repeat/STIM_011.jpg	99
3394.98	0.846	845.7	repeat	Run4	repeat/STIM_011.jpg	99
3399.055	0.949	949.1	repeat	Run4	repeat/STIM_011.jpg	99
3402.91	0.527	527.0	repeat	Run4	repeat/STIM_011.jpg	99
3406.558	0.84	840.5	repeat	Run4	repeat/STIM_012.jpg	100
3410.98	0.636	636.1	repeat	Run4	repeat/STIM_012.jpg	99
3415.408	0.736	736.2	repeat	Run4	repeat/STIM_012.jpg	99
3418.606	0.785	784.6	repeat	Run4	repeat/STIM_012.jpg	100
3421.83	0.673	672.9	repeat	Run4	repeat/STIM_012.jpg	99
3426.074	0.732	732.2	repeat	Run4	repeat/STIM_013.jpg	100
3429.908	0.511	511.4	repeat	Run4	repeat/STIM_013.jpg	99
3433.659	0.538	537.6	repeat	Run4	repeat/STIM_013.jpg	100
3436.495	0.528	528.0	repeat	Run4	repeat/STIM_013.jpg	100
3440.344	0.74	740.2	repeat	Run4	repeat/STIM_013.jpg	99
3443.244	0.858	858.1	repeat	Run4	repeat/STIM_014.jpg	100
3447.586	0.869	868.7	repeat	Run4	repeat/STIM_014.jpg	100
3452.339	0.753	753.0	repeat	Run4	repeat/STIM_014.jpg	100
3455.298	0.585	585.2	repeat	Run4	repeat/STIM_014.jpg	100
3458.282	0.852	851.6	repeat	Run4	repeat/STIM_014.jpg	100
