onset	duration	response_time_ms	trial_type	learning_stage	stimulus	response_port
0.0	1.481	1480.6	study	Phase1	study/STIM_000.jpg	99
4.85	1.355	1355.0	study	Phase1	study/STIM_000.jpg	100
9.6	1.382	1382.3	study	Phase1	study/STIM_000.jpg	99
14.496	1.109	1109.3	study	Phase1	study/STIM_001.jpg	100
18.135	1.392	1391.6	study	Phase1	study/STIM_001.jpg	100
23.008	1.32	1319.7	study	Phase1	study/STIM_001.jpg	100
27.057	0.853	853.1	study	Phase1	study/STIM_002.jpg	100
30.057	1.126	1126.2	study	Phase1	study/STIM_002.jpg	99
34.386	1.486	1486.1	study	Phase1	study/STIM_002.jpg	99
39.536	0.761	760.9	study	Phase1	study/STIM_003.jpg	99
43.772	0.942	942.3	study	Phase1	study/STIM_003.jpg	100
48.726	1.391	1390.9	study	Phase1	study/STIM_003.jpg	99
52.621	0.989	989.1	study	Phase1	study/STIM_004.jpg	100
57.154	0.957	956.8	study	Phase1	study/STIM_004.jpg	100
61.487	1.101	1100.9	study	Phase1	study/STIM_004.jpg	100
64.881	1.14	1139.7	study	Phase1	study/STIM_005.jpg	99
68.799	1.31	1309.7	study	Phase1	study/STIM_005.jpg	99
73.808	1.286	1285.8	study	Phase1	study/STIM_005.jpg	99
78.503	1.613	1612.9	study	Phase1	study/STIM_006.jpg	100
83.065	1.293	1293.3	study	Phase1	study/STIM_006.jpg	99
88.33	0.781	781.2	study	Phase1	study/STIM_006.jpg	100
92.889	1.437	1437.2	study	Phase1	study/STIM_007.jpg	99
97.371	0.998	998.0	study	Phase1	study/STIM_007.jpg	99
100.855	1.197	1197.1	study	Phase1	study/STIM_007.jpg	100
104.296	1.291	1291.1	study	Phase1	study/STIM_008.jpg	99
108.223	1.574	1573.9	study	Phase1	study/STIM_008.jpg	99
113.705	0.822	822.5	study	Phase1	study/STIM_008.jpg	100
116.755	0.801	801.1	study	Phase1	study/STIM_009.jpg	99
121.097	1.575	1575.3	study	Phase1	study/STIM_009.jpg	100
125.654	1.199	1198.9	study	Phase1	study/STIM_009.jpg	99
129.448	1.307	1306.6	study	Phase1	study/STIM_010.jpg	100
133.939	0.757	756.9	study	Phase1	study/STIM_010.jpg	100
137.759	0.962	962.3	study	Phase1	study/STIM_010.jpg	99
141.582	1.395	1394.7	study	Phase1	study/STIM_011.jpg	99
146.978	1.114	1113.7	study	Phase1	study/STIM_011.jpg	99
150.227	0.959	959.3	study	Phase1	study/STIM_011.jpg	100
154.861	1.414	1413.7	study	Phase1	study/STIM_012.jpg	99
159.265	1.162	1162.0	study	Phase1	study/STIM_012.jpg	99
164.457	1.332	1331.6	study	Phase1	study/STIM_012.jpg	99
169.768	1.336	1336.1	study	Phase1	study/STIM_013.jpg	100
174.339	1.119	1119.0	study	Phase1	study/STIM_013.jpg	99
178.414	1.408	1408.5	study	Phase1	study/STIM_013.jpg	100
182.38	0.949	949.4	study	Phase1	study/STIM_014.jpg	99
186.518	0.986	986.1	study	Phase1	study/STIM_014.jpg	99
191.448	1.458	1458.1	study	Phase1	study/STIM_014.jpg	100
195.468	0.789	789.3	study	Phase1	study/STIM_015.jpg	100
199.336	1.23	1229.6	study	Phase1	study/STIM_015.jpg	99
203.16	0.699	699.3	study	Phase1	study/STIM_015.jpg	100
206.458	1.263	1263.4	study	Phase1	study/STIM_016.jpg	99
210.782	1.285	1284.9	study	Phase1	study/STIM_016.jpg	99
214.674	1.005	1004.6	study	Phase1	study/STIM_016.jpg	100
218.887	1.64	1639.5	study	Phase1	study/STIM_017.jpg	99
224.314	1.387	1387.4	study	Phase1	study/STIM_017.jpg	99
229.425	1.188	1188.3	study	Phase1	study/STIM_017.jpg	100
232.903	1.199	1198.6	study	Phase1	study/STIM_018.jpg	99
236.9	1.253	1253.4	study	Phase1	study/STIM_018.jpg	99
241.871	0.997	997.3	study	Phase1	study/STIM_018.jpg	99
246.658	0.959	958.7	study	Phase1	study/STIM_019.jpg	99
249.947	0.739	738.6	study	Phase1	study/STIM_019.jpg	99
254.647	0.702	701.6	study	Phase1	study/STIM_019.jpg	99
257.523	1.398	1397.7	study	Phase1	study/STIM_020.jpg	100
261.454	1.23	1230.2	study	Phase1	study/STIM_020.jpg	99
265.09	1.279	1278.8	study	Phase1	study/STIM_020.jpg	100
269.414	0.774	774.0	study	Phase1	study/STIM_021.jpg	100
273.28	1.358	1357.5	study	Phase1	study/STIM_021.jpg	100
278.439	0.953	953.4	study	Phase1	study/STIM_021.jpg	100
281.956	1.535	1534.8	study	Phase1	study/STIM_022.jpg	100
287.092	1.406	1406.4	study	Phase1	study/STIM_022.jpg	99
292.219	0.905	905.0	study	Phase1	study/STIM_022.jpg	99
296.243	1.279	1278.6	study	Phase1	study/STIM_023.jpg	100
301.291	0.921	921.1	study	Phase1	study/STIM_023.jpg	99
304.456	1.251	1250.8	study	Phase1	study/STIM_023.jpg	99
308.111	1.184	1184.2	study	Phase1	study/STIM_024.jpg	99
312.509	1.466	1465.9	study	Phase1	study/STIM_024.jpg	100
317.902	1.128	1127.9	study	Phase1	study/STIM_024.jpg	99
321.4	1.16	1159.9	study	Phase1	study/STIM_025.jpg	99
324.937	0.996	995.5	study	Phase1	study/STIM_025.jpg	100
328.082	1.099	1099.3	study	Phase1	study/STIM_025.jpg	100
333.209	1.346	1345.5	study	Phase1	study/STIM_026.jpg	100
338.105	1.341	1340.6	study	Phase1	study/STIM_026.jpg	100
342.314	1.03	1029.6	study	Phase1	study/STIM_026.jpg	100
347.204	1.0	1000.4	study	Phase1	study/STIM_027.jpg	100
351.778	1.168	1168.5	study	Phase1	study/STIM_027.jpg	99
356.932	1.448	1447.5	study	Phase1	study/STIM_027.jpg	100
361.031	1.478	1477.8	study	Phase1	study/STIM_028.jpg	100
364.634	1.06	1059.5	study	Phase1	study/STIM_028.jpg	100
369.47	0.754	753.9	study	Phase1	study/STIM_028.jpg	100
373.305	1.592	1591.9	study	Phase1	study/STIM_029.jpg	99
377.184	1.481	1481.0	study	Phase1	study/STIM_029.jpg	99
382.126	1.262	1262.4	study	Phase1	study/STIM_029.jpg	100
386.971	0.72	719.9	test	Phase1	test/STIM_000.jpg	99
390.042	0.821	821.4	test	Phase1	test/STIM_000.jpg	100
393.04	0.634	634.2	test	Phase1	test/STIM_000.jpg	100
397.467	0.942	942.2	test	Phase1	test/STIM_001.jpg	99
401.954	0.848	848.4	test	Phase1	test/STIM_001.jpg	99
405.996	0.802	802.2	test	Phase1	test/STIM_001.jpg	100
410.826	1.024	1023.7	test	Phase1	test/STIM_002.jpg	100
415.161	1.054	1053.6	test	Phase1	test/STIM_002.jpg	99
418.573	0.926	925.8	test	Phase1	test/STIM_002.jpg	99
422.421	0.679	678.9	test	Phase1	test/STIM_003.jpg	99
426.51	1.063	1063.2	test	Phase1	test/STIM_003.jpg	99
430.394	0.695	695.2	test	Phase1	test/STIM_003.jpg	100
433.949	1.051	1051.2	test	Phase1	test/STIM_004.jpg	100
438.972	0.565	565.4	test	Phase1	test/STIM_004.jpg	100
442.907	0.904	903.6	test	Phase1	test/STIM_004.jpg	99
446.664	0.782	781.5	test	Phase1	test/STIM_005.jpg	100
450.328	0.721	721.1	test	Phase1	test/STIM_005.jpg	100
453.549	0.561	560.9	test	Phase1	test/STIM_005.jpg	100
457.626	1.065	1065.1	test	Phase1	test/STIM_006.jpg	100
462.608	0.768	767.7	test	Phase1	test/STIM_006.jpg	99
465.985	0.581	580.9	test	Phase1	test/STIM_006.jpg	100
469.675	1.136	1135.7	test	Phase1	test/STIM_007.jpg	100
474.558	1.105	1104.7	test	Phase1	test/STIM_007.jpg	99
479.572	1.021	1021.2	test	Phase1	test/STIM_007.jpg	99
483.177	0.62	620.0	test	Phase1	test/STIM_008.jpg	100
486.296	1.162	1162.4	test	Phase1	test/STIM_008.jpg	100
491.145	1.121	1120.6	test	Phase1	test/STIM_008.jpg	99
494.71	0.613	612.6	test	Phase1	test/STIM_009.jpg	99
498.059	0.958	958.1	test	Phase1	test/STIM_009.jpg	99
502.813	0.658	658.1	test	Phase1	test/STIM_009.jpg	100
506.175	1.129	1129.1	test	Phase1	test/STIM_010.jpg	100
509.719	0.951	951.4	test	Phase1	test/STIM_010.jpg	100
513.723	0.607	606.9	test	Phase1	test/STIM_010.jpg	100
517.376	0.88	880.1	test	Phase1	test/STIM_011.jpg	100
520.727	0.948	947.6	test	Phase1	test/STIM_011.jpg	99
524.05	1.185	1185.0	test	Phase1	test/STIM_011.jpg	99
527.42	1.186	1185.8	test	Phase1	test/STIM_012.jpg	100
530.734	0.81	810.5	test	Phase1	test/STIM_012.jpg	99
535.224	0.717	717.4	test	Phase1	test/STIM_012.jpg	99
539.062	1.074	1073.7	test	Phase1	test/STIM_013.jpg	99
543.738	0.85	850.2	test	Phase1	test/STIM_013.jpg	100
547.568	1.034	1033.8	test	Phase1	test/STIM_013.jpg	99
551.272	1.077	1077.3	test	Phase1	test/STIM_014.jpg	99
555.333	0.607	606.8	test	Phase1	test/STIM_014.jpg	100
559.636	0.985	985.1	test	Phase1	test/STIM_014.jpg	99
563.641	1.152	1151.5	test	Phase1	test/STIM_015.jpg	99
568.539	0.918	918.2	test	Phase1	test/STIM_015.jpg	100
573.477	1.02	1019.5	test	Phase1	test/STIM_015.jpg	100
576.972	1.121	1121.1	test	Phase1	test/STIM_016.jpg	100
580.26	0.83	830.1	test	Phase1	test/STIM_016.jpg	99
584.71	0.708	707.7	test	Phase1	test/STIM_016.jpg	99
587.636	0.634	633.6	test	Phase1	test/STIM_017.jpg	100
591.37	0.803	803.0	test	Phase1	test/STIM_017.jpg	99
596.168	0.856	856.1	test	Phase1	test/STIM_017.jpg	99
601.064	1.04	1040.0	test	Phase1	test/STIM_018.jpg	99
605.304	0.809	809.0	test	Phase1	test/STIM_018.jpg	99
609.475	1.184	1183.7	test	Phase1	test/STIM_018.jpg	100
614.152	0.616	616.2	test	Phase1	test/STIM_019.jpg	99
617.381	0.619	618.6	test	Phase1	test/STIM_019.jpg	100
621.678	1.064	1064.2	test	Phase1	test/STIM_019.jpg	100
626.03	0.894	894.4	test	Phase1	test/STIM_020.jpg	99
630.574	0.614	614.3	test	Phase1	test/STIM_020.jpg	100
633.802	0.858	857.7	test	Phase1	test/STIM_020.jpg	100
637.342	0.625	624.6	test	Phase1	test/STIM_021.jpg	100
640.138	0.789	788.6	test	Phase1	test/STIM_021.jpg	99
643.43	0.625	624.8	test	Phase1	test/STIM_021.jpg	100
646.578	0.589	589.0	test	Phase1	test/STIM_022.jpg	100
651.001	1.098	1097.9	test	Phase1	test/STIM_022.jpg	100
654.974	1.121	1121.4	test	Phase1	test/STIM_022.jpg	99
660.105	0.634	634.0	test	Phase1	test/STIM_023.jpg	100
663.465	0.844	844.2	test	Phase1	test/STIM_023.jpg	99
667.896	1.135	1135.0	test	Phase1	test/STIM_023.jpg	99
672.665	0.709	708.9	test	Phase1	test/STIM_024.jpg	99
676.125	1.112	1112.5	test	Phase1	test/STIM_024.jpg	99
681.044	1.183	1183.0	test	Phase1	test/STIM_024.jpg	100
684.384	0.692	692.1	test	Phase1	test/STIM_025.jpg	99
688.752	1.037	1037.1	test	Phase1	test/STIM_025.jpg	100
693.725	0.699	698.7	test	Phase1	test/STIM_025.jpg	99
697.139	1.105	1105.2	test	Phase1	test/STIM_026.jpg	99
700.403	0.654	653.6	test	Phase1	test/STIM_026.jpg	100
704.104	0.967	967.2	test	Phase1	test/STIM_026.jpg	99
708.305	1.1	1100.3	test	Phase1	test/STIM_027.jpg	99
712.399	0.933	932.8	test	Phase1	test/STIM_027.jpg	99
716.207	0.742	742.5	test	Phase1	test/STIM_027.jpg	99
719.403	1.188	1188.5	test	Phase1	test/STIM_028.jpg	100
723.384	1.09	1090.0	test	Phase1	test/STIM_028.jpg	99
728.5	0.579	579.2	test	Phase1	test/STIM_028.jpg	99
732.529	1.09	1089.5	test	Phase1	test/STIM_029.jpg	100
736.263	1.008	1008.2	test	Phase1	test/STIM_029.jpg	99
740.387	0.877	877.3	test	Phase1	test/STIM_029.jpg	100
743.753	1.281	1281.3	study	Phase2	study/STIM_000.jpg	99
747.411	1.266	1265.5	study	Phase2	study/STIM_000.jpg	100
751.628	1.095	1094.7	study	Phase2	study/STIM_000.jpg	99
756.758	0.694	694.3	study	Phase2	study/STIM_001.jpg	99
761.506	0.805	804.6	study	Phase2	study/STIM_001.jpg	100
766.206	1.213	1212.9	study	Phase2	study/STIM_001.jpg	99
770.761	0.71	709.5	study	Phase2	study/STIM_002.jpg	100
774.318	0.607	606.8	study	Phase2	study/STIM_002.jpg	99
778.462	0.764	764.3	study	Phase2	study/STIM_002.jpg	99
782.831	1.262	1261.6	study	Phase2	study/STIM_003.jpg	99
787.87	1.179	1178.9	study	Phase2	study/STIM_003.jpg	99
791.237	1.207	1207.0	study	Phase2	study/STIM_003.jpg	99
795.984	1.227	1226.7	study	Phase2	study/STIM_004.jpg	99
801.208	0.796	796.5	study	Phase2	study/STIM_004.jpg	100
804.893	1.201	1201.1	study	Phase2	study/STIM_004.jpg	99
810.019	0.798	798.2	study	Phase2	study/STIM_005.jpg	99
812.933	0.643	643.2	study	Phase2	study/STIM_005.jpg	99
817.374	1.188	1188.5	study	Phase2	study/STIM_005.jpg	100
821.594	0.777	776.9	study	Phase2	study/STIM_006.jpg	100
824.749	1.047	1046.6	study	Phase2	study/STIM_006.jpg	99
828.739	1.235	1235.3	study	Phase2	study/STIM_006.jpg	99
833.625	0.862	861.9	study	Phase2	study/STIM_007.jpg	99
836.632	0.9	899.5	study	Phase2	study/STIM_007.jpg	100
839.767	1.154	1154.3	study	Phase2	study/STIM_007.jpg	99
843.778	1.298	1298.2	study	Phase2	study/STIM_008.jpg	99
848.881	0.956	956.5	study	Phase2	study/STIM_008.jpg	99
852.136	0.732	732.3	study	Phase2	study/STIM_008.jpg	100
855.75	0.732	731.9	study	Phase2	study/STIM_009.jpg	99
859.959	1.096	1096.2	study	Phase2	study/STIM_009.jpg	100
864.59	1.219	1218.9	study	Phase2	study/STIM_009.jpg	99
868.779	1.237	1237.1	study	Phase2	study/STIM_010.jpg	99
872.466	1.168	1167.5	study	Phase2	study/STIM_010.jpg	100
875.807	0.916	916.5	study	Phase2	study/STIM_010.jpg	100
880.667	0.694	693.5	study	Phase2	study/STIM_011.jpg	99
884.716	0.68	679.7	study	Phase2	study/STIM_011.jpg	100
887.995	1.033	1032.8	study	Phase2	study/STIM_011.jpg	99
891.898	0.886	886.0	study	Phase2	study/STIM_012.jpg	99
896.103	0.976	975.6	study	Phase2	study/STIM_012.jpg	100
900.451	0.719	719.1	study	Phase2	study/STIM_012.jpg	100
905.2	1.291	1290.7	study	Phase2	study/STIM_013.jpg	99
909.036	1.01	1009.8	study	Phase2	study/STIM_013.jpg	99
913.09	0.869	868.6	study	Phase2	study/STIM_013.jpg	99
916.094	1.315	1314.7	study	Phase2	study/STIM_014.jpg	99
920.814	0.99	989.5	study	Phase2	study/STIM_014.jpg	100
925.253	1.069	1068.9	study	Phase2	study/STIM_014.jpg	99
928.571	1.244	1244.3	study	Phase2	study/STIM_015.jpg	99
932.444	0.88	879.6	study	Phase2	study/STIM_015.jpg	99
936.528	1.041	1040.9	study	Phase2	study/STIM_015.jpg	99
941.058	0.861	861.0	study	Phase2	study/STIM_016.jpg	99
945.584	0.631	631.4	study	Phase2	study/STIM_016.jpg	100
948.364	1.076	1076.0	study	Phase2	study/STIM_016.jpg	99
952.166	1.002	1002.4	study	Phase2	study/STIM_017.jpg	100
956.959	0.86	860.5	study	Phase2	study/STIM_017.jpg	99
960.322	0.846	845.8	study	Phase2	study/STIM_017.jpg	100
964.142	1.196	1196.1	study	Phase2	study/STIM_018.jpg	100
968.079	1.077	1076.8	study	Phase2	study/STIM_018.jpg	99
971.452	0.754	754.2	study	Phase2	study/STIM_018.jpg	99
975.876	1.176	1176.4	study	Phase2	study/STIM_019.jpg	100
980.434	0.974	973.5	study	Phase2	study/STIM_019.jpg	99
984.161	1.16	1159.8	study	Phase2	study/STIM_019.jpg	99
987.846	1.214	1213.5	study	Phase2	study/STIM_020.jpg	100
991.608	1.174	1174.5	study	Phase2	study/STIM_020.jpg	99
995.287	1.019	1019.1	study	Phase2	study/STIM_020.jpg	99
999.191	0.81	810.1	study	Phase2	study/STIM_021.jpg	100
1003.806	0.921	921.2	study	Phase2	study/STIM_021.jpg	99
1008.213	0.896	895.9	study	Phase2	study/STIM_021.jpg	99
1011.806	0.782	782.3	study	Phase2	study/STIM_022.jpg	99
1016.488	1.14	1140.0	study	Phase2	study/STIM_022.jpg	100
1021.251	0.821	821.0	study	Phase2	study/STIM_022.jpg	100
1025.317	1.361	1361.0	study	Phase2	study/STIM_023.jpg	100
1029.537	0.868	867.5	study	Phase2	study/STIM_023.jpg	100
1033.861	1.175	1175.2	study	Phase2	study/STIM_023.jpg	100
1038.729	0.827	827.0	study	Phase2	study/STIM_024.jpg	99
1042.287	0.922	922.3	study	Phase2	study/STIM_024.jpg	100
1047.067	0.626	626.1	study	Phase2	study/STIM_024.jpg	100
1050.894	1.167	1167.0	study	Phase2	study/STIM_025.jpg	99
1056.041	0.598	598.3	study	Phase2	study/STIM_025.jpg	100
1059.053	0.661	661.3	study	Phase2	study/STIM_025.jpg	100
1063.652	0.938	938.0	study	Phase2	study/STIM_026.jpg	100
1068.296	1.215	1215.3	study	Phase2	study/STIM_026.jpg	100
1073.579	1.097	1097.2	study	Phase2	study/STIM_026.jpg	100
1077.674	0.894	893.8	study	Phase2	study/STIM_027.jpg	99
1081.88	1.167	1166.7	study	Phase2	study/STIM_027.jpg	99
1085.249	1.16	1159.8	study	Phase2	study/STIM_027.jpg	100
1089.962	0.825	824.7	study	Phase2	study/STIM_028.jpg	100
1093.587	0.844	844.5	study	Phase2	study/STIM_028.jpg	100
1097.143	0.65	650.4	study	Phase2	study/STIM_028.jpg	99
1101.801	0.686	685.9	study	Phase2	study/STIM_029.jpg	100
1106.215	0.594	593.6	study	Phase2	study/STIM_029.jpg	99
1109.698	0.702	701.5	study	Phase2	study/STIM_029.jpg	100
1114.128	0.739	739.3	test	Phase2	test/STIM_000.jpg	100
1117.645	1.114	1114.1	test	Phase2	test/STIM_000.jpg	99
1122.819	0.566	566.0	test	Phase2	test/STIM_000.jpg	100
1126.379	0.666	666.4	test	Phase2	test/STIM_001.jpg	100
1131.076	0.949	949.2	test	Phase2	test/STIM_001.jpg	99
1135.057	0.929	929.4	test	Phase2	test/STIM_001.jpg	100
1139.839	1.077	1076.9	test	Phase2	test/STIM_002.jpg	99
1144.521	0.895	895.4	test	Phase2	test/STIM_002.jpg	100
1148.468	0.626	625.8	test	Phase2	test/STIM_002.jpg	100
1152.393	1.173	1172.9	test	Phase2	test/STIM_003.jpg	99
1157.343	0.907	906.7	test	Phase2	test/STIM_003.jpg	99
1160.362	0.781	781.0	test	Phase2	test/STIM_003.jpg	99
1163.709	0.742	742.1	test	Phase2	test/STIM_004.jpg	100
1167.931	0.739	738.8	test	Phase2	test/STIM_004.jpg	99
1171.78	1.195	1194.9	test	Phase2	test/STIM_004.jpg	99
1175.863	1.072	1071.8	test	Phase2	test/STIM_005.jpg	99
1179.565	0.563	563.1	test	Phase2	test/STIM_005.jpg	100
1182.735	0.864	864.3	test	Phase2	test/STIM_005.jpg	100
1185.802	1.036	1036.5	test	Phase2	test/STIM_006.jpg	99
1189.435	0.721	721.2	test	Phase2	test/STIM_006.jpg	99
1192.28	0.674	673.9	test	Phase2	test/STIM_006.jpg	100
1196.972	0.886	886.2	test	Phase2	test/STIM_007.jpg	100
1200.443	0.996	995.5	test	Phase2	test/STIM_007.jpg	100
1204.756	1.007	1006.7	test	Phase2	test/STIM_007.jpg	100
1208.561	0.574	573.7	test	Phase2	test/STIM_008.jpg	100
1211.778	1.17	1169.5	test	Phase2	test/STIM_008.jpg	99
1215.949	1.052	1052.0	test	Phase2	test/STIM_008.jpg	99
1220.261	1.157	1156.6	test	Phase2	test/STIM_009.jpg	100
1225.03	0.579	579.2	test	Phase2	test/STIM_009.jpg	99
1228.502	0.566	566.5	test	Phase2	test/STIM_009.jpg	100
1233.029	0.943	943.4	test	Phase2	test/STIM_010.jpg	100
1236.44	0.944	943.8	test	Phase2	test/STIM_010.jpg	99
1239.536	0.959	959.0	test	Phase2	test/STIM_010.jpg	99
1242.665	0.688	688.0	test	Phase2	test/STIM_011.jpg	99
1245.8	0.974	973.7	test	Phase2	test/STIM_011.jpg	100
1249.59	0.833	833.1	test	Phase2	test/STIM_011.jpg	99
1252.717	0.675	674.6	test	Phase2	test/STIM_012.jpg	100
1257.403	1.031	1031.1	test	Phase2	test/STIM_012.jpg	99
1261.986	0.604	604.3	test	Phase2	test/STIM_012.jpg	99
1265.72	0.594	593.6	test	Phase2	test/STIM_013.jpg	99
1268.784	0.975	974.8	test	Phase2	test/STIM_013.jpg	99
1273.413	0.922	922.4	test	Phase2	test/STIM_013.jpg	100
1276.693	0.988	987.5	test	Phase2	test/STIM_014.jpg	100
1281.459	0.637	637.2	test	Phase2	test/STIM_014.jpg	99
1284.791	0.709	709.4	test	Phase2	test/STIM_014.jpg	99
1288.413	0.932	931.8	test	Phase2	test/STIM_015.jpg	99
1291.759	0.734	734.1	test	Phase2	test/STIM_015.jpg	99
1294.982	1.001	1001.4	test	Phase2	test/STIM_015.jpg	100
1299.574	1.032	1032.1	test	Phase2	test/STIM_016.jpg	100
1303.536	0.857	856.6	test	Phase2	test/STIM_016.jpg	100
1307.122	1.16	1159.7	test	Phase2	test/STIM_016.jpg	99
1311.909	0.998	997.7	test	Phase2	test/STIM_017.jpg	99
1315.227	0.868	867.8	test	Phase2	test/STIM_017.jpg	99
1319.146	0.962	961.6	test	Phase2	test/STIM_017.jpg	99
1322.439	1.003	1003.4	test	Phase2	test/STIM_018.jpg	99
1326.809	0.928	928.1	test	Phase2	test/STIM_018.jpg	99
1331.159	0.756	756.5	test	Phase2	test/STIM_018.jpg	100
1334.646	0.952	952.5	test	Phase2	test/STIM_019.jpg	100
1338.136	0.729	728.6	test	Phase2	test/STIM_019.jpg	99
1341.264	0.741	741.2	test	Phase2	test/STIM_019.jpg	99
1344.122	0.555	555.3	test	Phase2	test/STIM_020.jpg	99
1348.623	0.584	584.2	test	Phase2	test/STIM_020.jpg	99
1352.383	0.617	617.4	test	Phase2	test/STIM_020.jpg	99
1355.144	0.885	884.9	test	Phase2	test/STIM_021.jpg	99
1359.46	0.706	706.0	test	Phase2	test/STIM_021.jpg	100
1363.923	0.783	783.4	test	Phase2	test/STIM_021.jpg	99
1367.663	0.67	670.2	test	Phase2	test/STIM_022.jpg	100
1370.476	0.651	650.9	test	Phase2	test/STIM_022.jpg	100
1375.031	0.567	567.4	test	Phase2	test/STIM_022.jpg	99
1379.517	1.018	1018.5	test	Phase2	test/STIM_023.jpg	100
1382.837	1.03	1029.9	test	Phase2	test/STIM_023.jpg	100
1387.704	1.043	1042.7	test	Phase2	test/STIM_023.jpg	100
1391.92	0.724	723.7	test	Phase2	test/STIM_024.jpg	100
1394.713	0.634	634.4	test	Phase2	test/STIM_024.jpg	100
1398.212	1.066	1065.5	test	Phase2	test/STIM_024.jpg	100
1402.08	0.952	952.2	test	Phase2	test/STIM_025.jpg	99
1406.294	0.703	702.7	test	Phase2	test/STIM_025.jpg	100
1410.901	1.072	1072.2	test	Phase2	test/STIM_025.jpg	99
1414.571	0.944	943.8	test	Phase2	test/STIM_026.jpg	99
1417.834	0.886	886.4	test	Phase2	test/STIM_026.jpg	99
1421.037	0.838	837.7	test	Phase2	test/STIM_026.jpg	99
1425.343	0.603	603.1	test	Phase2	test/STIM_027.jpg	99
1429.582	0.821	821.0	test	Phase2	test/STIM_027.jpg	99
1433.781	0.651	651.0	test	Phase2	test/STIM_027.jpg	99
1437.804	0.708	707.5	test	Phase2	test/STIM_028.jpg	99
1442.214	0.731	730.6	test	Phase2	test/STIM_028.jpg	100
1445.632	1.036	1035.6	test	Phase2	test/STIM_028.jpg	100
1449.52	0.913	912.7	test	Phase2	test/STIM_029.jpg	100
1453.06	0.947	947.3	test	Phase2	test/STIM_029.jpg	100
1457.003	0.798	797.5	test	Phase2	test/STIM_029.jpg	100
1460.948	1.155	1154.7	study	Phase3	study/STIM_000.jpg	100
1465.98	0.887	887.4	study	Phase3	study/STIM_000.jpg	99
1470.27	0.595	594.7	study	Phase3	study/STIM_000.jpg	100
1474.443	0.958	958.4	study	Phase3	study/STIM_001.jpg	100
1478.341	0.944	943.6	study	Phase3	study/STIM_001.jpg	100
1481.769	1.082	1082.2	study	Phase3	study/STIM_001.jpg	100
1486.244	0.824	824.5	study	Phase3	study/STIM_002.jpg	100
1489.16	0.968	967.9	study	Phase3	study/STIM_002.jpg	99
1493.39	0.9	900.0	study	Phase3	study/STIM_002.jpg	99
1496.413	0.591	591.4	study	Phase3	study/STIM_003.jpg	100
1500.368	1.152	1151.6	study	Phase3	study/STIM_003.jpg	99
1504.51	0.946	945.6	study	Phase3	study/STIM_003.jpg	99
1508.111	1.073	1072.6	study	Phase3	study/STIM_004.jpg	99
1512.415	0.748	748.5	study	Phase3	study/STIM_004.jpg	99
1515.571	0.797	796.6	study	Phase3	study/STIM_004.jpg	100
1519.357	0.787	787.2	study	Phase3	study/STIM_005.jpg	99
1523.367	0.748	747.8	study	Phase3	study/STIM_005.jpg	99
1527.217	0.745	744.9	study	Phase3	study/STIM_005.jpg	100
1530.11	0.691	690.9	study	Phase3	study/STIM_006.jpg	99
1534.684	0.563	563.4	study	Phase3	study/STIM_006.jpg	100
1537.635	0.525	524.6	study	Phase3	study/STIM_006.jpg	99
1541.956	0.694	694.3	study	Phase3	study/STIM_007.jpg	99
1545.463	0.547	547.3	study	Phase3	study/STIM_007.jpg	100
1549.357	0.65	649.9	study	Phase3	study/STIM_007.jpg	100
1552.426	0.651	651.4	study	Phase3	study/STIM_008.jpg	100
1556.873	1.0	1000.0	study	Phase3	study/STIM_008.jpg	100
1561.802	0.62	620.4	study	Phase3	study/STIM_008.jpg	99
1565.931	0.808	808.5	study	Phase3	study/STIM_009.jpg	100
1568.998	1.145	1145.2	study	Phase3	study/STIM_009.jpg	99
1574.06	0.678	677.6	study	Phase3	study/STIM_009.jpg	100
1578.31	1.085	1084.7	study	Phase3	study/STIM_010.jpg	99
1581.728	0.744	744.2	study	Phase3	study/STIM_010.jpg	100
1586.507	0.778	778.5	study	Phase3	study/STIM_010.jpg	99
1589.912	1.068	1068.4	study	Phase3	study/STIM_011.jpg	99
1594.359	1.065	1064.7	study	Phase3	study/STIM_011.jpg	100
1597.773	1.029	1029.1	study	Phase3	study/STIM_011.jpg	100
1602.454	0.97	970.1	study	Phase3	study/STIM_012.jpg	100
1607.04	0.889	889.0	study	Phase3	study/STIM_012.jpg	100
1610.991	0.94	939.5	study	Phase3	study/STIM_012.jpg	99
1615.348	1.151	1150.9	study	Phase3	study/STIM_013.jpg	100
1620.586	0.552	551.7	study	Phase3	study/STIM_013.jpg	100
1625.052	0.583	582.9	study	Phase3	study/STIM_013.jpg	100
1629.521	1.068	1068.5	study	Phase3	study/STIM_014.jpg	99
1633.106	0.574	574.4	study	Phase3	study/STIM_014.jpg	99
1636.905	0.97	970.4	study	Phase3	study/STIM_014.jpg	99
1640.935	0.858	858.3	study	Phase3	study/STIM_015.jpg	99
1644.117	1.032	1032.1	study	Phase3	study/STIM_015.jpg	99
1648.598	0.677	676.9	study	Phase3	study/STIM_015.jpg	99
1652.896	0.878	878.5	study	Phase3	study/STIM_016.jpg	100
1657.553	0.602	602.1	study	Phase3	study/STIM_016.jpg	100
1661.047	0.745	745.4	study	Phase3	study/STIM_016.jpg	99
1664.491	1.098	1097.8	study	Phase3	study/STIM_017.jpg	99
1667.873	0.951	951.4	study	Phase3	study/STIM_017.jpg	99
1671.231	0.788	787.8	study	Phase3	study/STIM_017.jpg	100
1674.438	0.961	960.9	study	Phase3	study/STIM_018.jpg	99
1677.544	1.12	1120.5	study	Phase3	study/STIM_018.jpg	100
1680.864	0.982	982.1	study	Phase3	study/STIM_018.jpg	99
1684.739	1.004	1004.1	study	Phase3	study/STIM_019.jpg	100
1688.07	1.144	1143.7	study	Phase3	study/STIM_019.jpg	100
1692.356	0.58	580.2	study	Phase3	study/STIM_019.jpg	99
1694.994	0.557	557.1	study	Phase3	study/STIM_020.jpg	100
1699.217	1.03	1029.8	study	Phase3	study/STIM_020.jpg	100
1702.344	1.001	1000.7	study	Phase3	study/STIM_020.jpg	99
1706.066	0.694	694.2	study	Phase3	study/STIM_021.jpg	100
1710.572	0.81	809.8	study	Phase3	study/STIM_021.jpg	99
1714.94	0.821	820.6	study	Phase3	study/STIM_021.jpg	100
1719.377	0.955	954.6	study	Phase3	study/STIM_022.jpg	100
1723.384	1.03	1030.3	study	Phase3	study/STIM_022.jpg	99
1728.443	0.816	816.0	study	Phase3	study/STIM_022.jpg	100
1731.342	0.932	931.8	study	Phase3	study/STIM_023.jpg	100
1734.664	0.994	993.7	study	Phase3	study/STIM_023.jpg	100
1738.969	1.053	1053.3	study	Phase3	study/STIM_023.jpg	100
1742.99	0.918	917.9	study	Phase3	study/STIM_024.jpg	99
1746.238	0.692	691.9	study	Phase3	study/STIM_024.jpg	99
1750.977	0.877	877.1	study	Phase3	study/STIM_024.jpg	99
1755.588	0.924	924.2	study	Phase3	study/STIM_025.jpg	100
1760.521	0.603	602.8	study	Phase3	study/STIM_025.jpg	100
1764.427	0.52	519.8	study	Phase3	study/STIM_025.jpg	100
1768.514	0.668	668.5	study	Phase3	study/STIM_026.jpg	100
1771.85	1.073	1073.0	study	Phase3	study/STIM_026.jpg	99
1775.571	0.995	994.6	study	Phase3	study/STIM_026.jpg	99
1779.367	0.889	888.9	study	Phase3	study/STIM_027.jpg	100
1783.232	0.52	519.8	study	Phase3	study/STIM_027.jpg	100
1787.792	0.551	550.6	study	Phase3	study/STIM_027.jpg	100
1791.185	0.882	881.5	study	Phase3	study/STIM_028.jpg	99
1795.647	0.577	577.0	study	Phase3	study/STIM_028.jpg	99
1799.353	0.724	724.1	study	Phase3	study/STIM_028.jpg	99
1802.522	1.018	1017.9	study	Phase3	study/STIM_029.jpg	99
1806.279	1.11	1109.5	study	Phase3	study/STIM_029.jpg	100
1810.589	0.517	517.0	study	Phase3	study/STIM_029.jpg	99
1813.255	0.573	573.0	test	Phase3	test/STIM_000.jpg	99
1817.405	0.771	771.0	test	Phase3	test/STIM_000.jpg	99
1821.295	1.147	1146.6	test	Phase3	test/STIM_000.jpg	100
1825.562	0.558	557.8	test	Phase3	test/STIM_001.jpg	99
1829.323	0.956	956.3	test	Phase3	test/STIM_001.jpg	99
1833.122	0.655	654.7	test	Phase3	test/STIM_001.jpg	99
1837.295	1.196	1195.9	test	Phase3	test/STIM_002.jpg	99
1840.935	0.599	598.7	test	Phase3	test/STIM_002.jpg	100
1845.016	0.943	942.6	test	Phase3	test/STIM_002.jpg	99
1849.227	0.905	904.6	test	Phase3	test/STIM_003.jpg	100
1853.025	1.119	1119.2	test	Phase3	test/STIM_003.jpg	100
1858.097	1.13	1129.9	test	Phase3	test/STIM_003.jpg	100
1863.046	0.951	951.0	test	Phase3	test/STIM_004.jpg	100
1866.468	0.776	775.8	test	Phase3	test/STIM_004.jpg	100
1869.356	0.864	863.6	test	Phase3	test/STIM_004.jpg	100
1873.923	0.682	682.4	test	Phase3	test/STIM_005.jpg	99
1878.615	0.592	592.3	test	Phase3	test/STIM_005.jpg	100
1883.03	1.004	1004.2	test	Phase3	test/STIM_005.jpg	99
1888.069	1.04	1039.6	test	Phase3	test/STIM_006.jpg	100
1892.443	1.066	1066.5	test	Phase3	test/STIM_006.jpg	100
1896.516	0.985	984.7	test	Phase3	test/STIM_006.jpg	100
1900.897	0.648	648.0	test	Phase3	test/STIM_007.jpg	100
1903.803	1.099	1098.6	test	Phase3	test/STIM_007.jpg	100
1908.846	1.063	1062.7	test	Phase3	test/STIM_007.jpg	99
1913.205	0.838	838.3	test	Phase3	test/STIM_008.jpg	99
1917.486	0.976	976.1	test	Phase3	test/STIM_008.jpg	99
1921.386	0.821	821.0	test	Phase3	test/STIM_008.jpg	99
1924.597	0.788	787.8	test	Phase3	test/STIM_009.jpg	100
1928.079	0.679	678.8	test	Phase3	test/STIM_009.jpg	100
1931.978	0.574	574.5	test	Phase3	test/STIM_009.jpg	99
1935.95	0.805	805.0	test	Phase3	test/STIM_010.jpg	99
1940.651	0.693	693.0	test	Phase3	test/STIM_010.jpg	99
1944.945	0.607	607.4	test	Phase3	test/STIM_010.jpg	99
1949.131	0.911	910.7	test	Phase3	test/STIM_011.jpg	99
1953.459	0.763	763.2	test	Phase3	test/STIM_011.jpg	100
1958.21	0.926	925.6	test	Phase3	test/STIM_011.jpg	100
1962.295	1.034	1033.7	test	Phase3	test/STIM_012.jpg	100
1965.859	1.105	1105.2	test	Phase3	test/STIM_012.jpg	100
1969.969	0.677	677.0	test	Phase3	test/STIM_012.jpg	99
1973.634	1.031	1030.7	test	Phase3	test/STIM_013.jpg	100
1977.593	0.705	705.1	test	Phase3	test/STIM_013.jpg	99
1980.811	1.134	1134.0	test	Phase3	test/STIM_013.jpg	99
1985.115	1.032	1032.3	test	Phase3	test/STIM_014.jpg	100
1988.28	0.634	634.2	test	Phase3	test/STIM_014.jpg	99
1991.366	0.86	860.1	test	Phase3	test/STIM_014.jpg	99
1995.278	0.992	992.5	test	Phase3	test/STIM_015.jpg	100
1999.437	1.019	1018.8	test	Phase3	test/STIM_015.jpg	100
2002.752	0.561	561.2	test	Phase3	test/STIM_015.jpg	100
2006.018	1.076	1075.7	test	Phase3	test/STIM_016.jpg	99
2009.676	1.116	1115.9	test	Phase3	test/STIM_016.jpg	100
2014.201	0.688	688.0	test	Phase3	test/STIM_016.jpg	100
2018.736	1.026	1026.2	test	Phase3	test/STIM_017.jpg	99
2022.111	0.62	619.5	test	Phase3	test/STIM_017.jpg	100
2026.002	0.565	564.9	test	Phase3	test/STIM_017.jpg	100
2029.267	0.99	990.5	test	Phase3	test/STIM_018.jpg	100
2033.848	1.084	1084.4	test	Phase3	test/STIM_018.jpg	100
2037.322	0.804	804.1	test	Phase3	test/STIM_018.jpg	99
2040.381	1.184	1184.4	test	Phase3	test/STIM_019.jpg	99
2044.9	0.765	764.9	test	Phase3	test/STIM_019.jpg	100
2048.778	0.65	650.3	test	Phase3	test/STIM_019.jpg	99
2052.286	1.104	1104.0	test	Phase3	test/STIM_020.jpg	100
2057.348	0.59	589.5	test	Phase3	test/STIM_020.jpg	100
2060.915	0.792	792.1	test	Phase3	test/STIM_020.jpg	100
2064.229	0.756	755.6	test	Phase3	test/STIM_021.jpg	99
2068.443	1.126	1125.6	test	Phase3	test/STIM_021.jpg	100
2073.116	1.0	999.7	test	Phase3	test/STIM_021.jpg	99
2076.461	0.604	603.7	test	Phase3	test/STIM_022.jpg	100
2079.735	0.828	827.8	test	Phase3	test/STIM_022.jpg	100
2084.533	1.118	1117.9	test	Phase3	test/STIM_022.jpg	99
2088.606	1.066	1065.7	test	Phase3	test/STIM_023.jpg	99
2093.376	0.861	860.7	test	Phase3	test/STIM_023.jpg	100
2097.236	1.063	1063.2	test	Phase3	test/STIM_023.jpg	100
2100.662	1.0	1000.3	test	Phase3	test/STIM_024.jpg	100
2104.048	0.594	593.5	test	Phase3	test/STIM_024.jpg	99
2106.736	0.565	565.2	test	Phase3	test/STIM_024.jpg	100
2110.826	1.162	1161.9	test	Phase3	test/STIM_025.jpg	99
2115.502	0.819	819.1	test	Phase3	test/STIM_025.jpg	99
2119.268	0.822	821.9	test	Phase3	test/STIM_025.jpg	99
2123.321	0.722	722.5	test	Phase3	test/STIM_026.jpg	100
2127.603	0.971	970.9	test	Phase3	test/STIM_026.jpg	100
2131.916	0.571	570.8	test	Phase3	test/STIM_026.jpg	99
2134.882	1.162	1161.9	test	Phase3	test/STIM_027.jpg	99
2139.557	0.697	697.2	test	Phase3	test/STIM_027.jpg	99
2142.943	0.579	579.2	test	Phase3	test/STIM_027.jpg	100
2147.282	0.599	598.7	test	Phase3	test/STIM_028.jpg	100
2150.231	0.732	732.2	test	Phase3	test/STIM_028.jpg	100
2154.474	0.648	648.0	test	Phase3	test/STIM_028.jpg	99
2158.128	1.125	1125.4	test	Phase3	test/STIM_029.jpg	99
2162.738	0.786	786.2	test	Phase3	test/STIM_029.jpg	99
2165.935	0.921	921.4	test	Phase3	test/STIM_029.jpg	99
