onset	duration	accuracy_binary	trial_type	learning_stage	stimulus
0.0	2.74	1	regulate	Run1	regulate/STIM_000.jpg
5.551	3.668	1	regulate	Run1	regulate/STIM_000.jpg
12.44	3.023	1	regulate	Run1	regulate/STIM_000.jpg
18.701	2.923	1	regulate	Run1	regulate/STIM_000.jpg
23.72	4.299	1	regulate	Run1	regulate/STIM_001.jpg
31.22	3.606	1	regulate	Run1	regulate/STIM_001.jpg
37.993	3.089	1	regulate	Run1	regulate/STIM_001.jpg
43.265	2.911	0	regulate	Run1	regulate/STIM_001.jpg
49.73	2.128	1	regulate	Run1	regulate/STIM_002.jpg
55.13	3.934	1	regulate	Run1	regulate/STIM_002.jpg
62.703	2.886	1	regulate	Run1	regulate/STIM_002.jpg
68.28	3.1	1	regulate	Run1	regulate/STIM_002.jpg
74.275	2.79	1	regulate	Run1	regulate/STIM_003.jpg
79.217	2.068	1	regulate	Run1	regulate/STIM_003.jpg
84.45	3.362	1	regulate	Run1	regulate/STIM_003.jpg
90.517	2.073	1	regulate	Run1	regulate/STIM_003.jpg
94.667	3.949	1	regulate	Run1	regulate/STIM_004.jpg
101.494	2.621	1	regulate	Run1	regulate/STIM_004.jpg
107.634	1.707	1	regulate	Run1	regulate/STIM_004.jpg
112.142	3.511	1	regulate	Run1	regulate/STIM_004.jpg
118.994	4.154	1	regulate	Run1	regulate/STIM_005.jpg
127.096	3.839	1	regulate	Run1	regulate/STIM_005.jpg
134.478	3.379	1	regulate	Run1	regulate/STIM_005.jpg
140.988	2.072	1	regulate	Run1	regulate/STIM_005.jpg
145.277	2.817	1	regulate	Run1	regulate/STIM_006.jpg
151.852	3.2	1	regulate	Run1	regulate/STIM_006.jpg
158.749	2.878	1	regulate	Run1	regulate/STIM_006.jpg
165.449	2.122	1	regulate	Run1	regulate/STIM_006.jpg
170.472	3.92	1	regulate	Run1	regulate/STIM_007.jpg
177.336	3.472	0	regulate	Run1	regulate/STIM_007.jpg
184.275	3.801	1	regulate	Run1	regulate/STIM_007.jpg
190.26	2.799	1	regulate	Run1	regulate/STIM_007.jpg
196.942	3.79	1	regulate	Run1	regulate/STIM_008.jpg
203.771	3.616	1	regulate	Run1	regulate/STIM_008.jpg
211.375	2.789	0	regulate	Run1	regulate/STIM_008.jpg
216.321	2.246	1	regulate	Run1	regulate/STIM_008.jpg
220.593	3.896	1	regulate	Run1	regulate/STIM_009.jpg
226.746	3.679	1	regulate	Run1	regulate/STIM_009.jpg
233.955	2.978	0	regulate	Run1	regulate/STIM_009.jpg
239.716	3.7	0	regulate	Run1	regulate/STIM_009.jpg
246.481	2.925	0	regulate	Run1	regulate/STIM_010.jpg
252.481	3.639	1	regulate	Run1	regulate/STIM_010.jpg
259.252	3.944	1	regulate	Run1	regulate/STIM_010.jpg
265.75	2.619	1	regulate	Run1	regulate/STIM_010.jpg
270.403	3.906	0	regulate	Run1	regulate/STIM_011.jpg
278.268	2.294	1	regulate	Run1	regulate/STIM_011.jpg
284.379	2.537	1	regulate	Run1	regulate/STIM_011.jpg
290.298	2.226	1	regulate	Run1	regulate/STIM_011.jpg
295.515	4.217	1	regulate	Run1	regulate/STIM_012.jpg
302.104	2.746	0	regulate	Run1	regulate/STIM_012.jpg
307.452	3.14	1	regulate	Run1	regulate/STIM_012.jpg
313.877	3.097	1	regulate	Run1	regulate/STIM_012.jpg
319.362	2.896	1	regulate	Run1	regulate/STIM_013.jpg
324.358	3.102	1	regulate	Run1	regulate/STIM_013.jpg
329.989	2.185	1	regulate	Run1	regulate/STIM_013.jpg
334.804	1.848	1	regulate	Run1	regulate/STIM_013.jpg
339.078	3.64	1	regulate	Run1	regulate/STIM_014.jpg
346.499	2.832	1	regulate	Run1	regulate/STIM_014.jpg
352.45	3.615	1	regulate	Run1	regulate/STIM_014.jpg
358.633	3.411	1	regulate	Run1	regulate/STIM_014.jpg
365.269	3.357	0	regulate	Run1	regulate/STIM_015.jpg
372.262	1.847	1	regulate	Run1	regulate/STIM_015.jpg
376.183	2.069	1	regulate	Run1	regulate/STIM_015.jpg
381.38	3.113	1	regulate	Run1	regulate/STIM_015.jpg
388.189	3.075	1	regulate	Run1	regulate/STIM_016.jpg
393.732	3.908	1	regulate	Run1	regulate/STIM_016.jpg
400.006	1.791	1	regulate	Run1	regulate/STIM_016.jpg
404.044	1.646	1	regulate	Run1	regulate/STIM_016.jpg
409.493	2.275	0	regulate	Run1	regulate/STIM_017.jpg
414.647	3.648	1	regulate	Run1	regulate/STIM_017.jpg
421.451	1.864	1	regulate	Run1	regulate/STIM_017.jpg
425.751	2.436	1	regulate	Run1	regulate/STIM_017.jpg
432.08	3.069	1	regulate	Run1	regulate/STIM_018.jpg
437.57	2.688	1	regulate	Run1	regulate/STIM_018.jpg
442.296	3.756	0	regulate	Run1	regulate/STIM_018.jpg
449.157	1.905	1	regulate	Run1	regulate/STIM_018.jpg
453.916	3.791	0	regulate	Run1	regulate/STIM_019.jpg
460.748	2.059	1	regulate	Run1	regulate/STIM_019.jpg
465.024	3.685	1	regulate	Run1	regulate/STIM_019.jpg
472.179	1.908	1	regulate	Run1	regulate/STIM_019.jpg
477.112	3.27	0	regulate	Run1	regulate/STIM_020.jpg
483.064	3.094	1	regulate	Run1	regulate/STIM_020.jpg
488.176	2.703	1	regulate	Run1	regulate/STIM_020.jpg
494.453	3.67	1	regulate	Run1	regulate/STIM_020.jpg
501.132	3.05	1	regulate	Run1	regulate/STIM_021.jpg
506.894	2.128	1	regulate	Run1	regulate/STIM_021.jpg
511.875	1.838	1	regulate	Run1	regulate/STIM_021.jpg
516.209	3.125	1	regulate	Run1	regulate/STIM_021.jpg
523.154	3.989	1	regulate	Run1	regulate/STIM_022.jpg
529.954	1.959	1	regulate	Run1	regulate/STIM_022.jpg
534.57	1.966	1	regulate	Run1	regulate/STIM_022.jpg
538.846	1.829	1	regulate	Run1	regulate/STIM_022.jpg
543.568	4.153	1	regulate	Run1	regulate/STIM_023.jpg
551.406	3.682	0	regulate	Run1	regulate/STIM_023.jpg
558.155	3.376	1	regulate	Run1	regulate/STIM_023.jpg
564.283	2.963	1	regulate	Run1	regulate/STIM_023.jpg
569.888	4.115	1	regulate	Run1	regulate/STIM_024.jpg
576.975	2.052	0	regulate	Run1	regulate/STIM_024.jpg
582.471	3.644	1	regulate	Run1	regulate/STIM_024.jpg
589.509	1.664	0	regulate	Run1	regulate/STIM_024.jpg
593.691	2.757	1	regulate	Run1	regulate/STIM_025.jpg
598.594	2.88	0	regulate	Run1	regulate/STIM_025.jpg
604.97	3.515	1	regulate	Run1	regulate/STIM_025.jpg
611.586	1.921	0	regulate	Run1	regulate/STIM_025.jpg
616.36	2.238	1	regulate	Run1	regulate/STIM_026.jpg
621.718	2.648	1	regulate	Run1	regulate/STIM_026.jpg
627.81	2.955	1	regulate	Run1	regulate/STIM_026.jpg
632.97	2.455	1	regulate	Run1	regulate/STIM_026.jpg
639.142	4.258	0	regulate	Run1	regulate/STIM_027.jpg
645.572	2.023	0	regulate	Run1	regulate/STIM_027.jpg
649.864	3.304	1	regulate	Run1	regulate/STIM_027.jpg
655.499	3.487	0	regulate	Run1	regulate/STIM_027.jpg
661.486	4.084	1	regulate	Run1	regulate/STIM_028.jpg
667.674	3.879	1	regulate	Run1	regulate/STIM_028.jpg
674.895	3.738	0	regulate	Run1	regulate/STIM_028.jpg
681.093	2.438	1	regulate	Run1	regulate/STIM_028.jpg
687.071	2.332	0	regulate	Run1	regulate/STIM_029.jpg
691.669	2.124	1	regulate	Run1	regulate/STIM_029.jpg
696.591	2.072	1	regulate	Run1	regulate/STIM_029.jpg
702.248	3.617	1	regulate	Run1	regulate/STIM_029.jpg
708.299	1.755	1	observe	Run1	observe/STIM_000.jpg
713.063	1.954	1	observe	Run1	observe/STIM_000.jpg
718.453	1.151	1	observe	Run1	observe/STIM_000.jpg
722.547	1.293	1	observe	Run1	observe/STIM_000.jpg
726.77	1.781	1	observe	Run1	observe/STIM_001.jpg
732.267	1.648	1	observe	Run1	observe/STIM_001.jpg
736.008	1.421	1	observe	Run1	observe/STIM_001.jpg
740.338	1.816	1	observe	Run1	observe/STIM_001.jpg
746.001	1.35	1	observe	Run1	observe/STIM_002.jpg
749.6	1.662	1	observe	Run1	observe/STIM_002.jpg
755.093	1.696	1	observe	Run1	observe/STIM_002.jpg
760.278	1.68	1	observe	Run1	observe/STIM_002.jpg
763.974	1.094	1	observe	Run1	observe/STIM_003.jpg
767.329	1.505	1	observe	Run1	observe/STIM_003.jpg
771.415	1.224	1	observe	Run1	observe/STIM_003.jpg
776.582	1.902	1	observe	Run1	observe/STIM_003.jpg
781.668	1.22	1	observe	Run1	observe/STIM_004.jpg
786.604	1.398	1	observe	Run1	observe/STIM_004.jpg
791.459	1.106	1	observe	Run1	observe/STIM_004.jpg
794.777	1.663	0	observe	Run1	observe/STIM_004.jpg
798.666	1.137	1	observe	Run1	observe/STIM_005.jpg
803.308	1.667	0	observe	Run1	observe/STIM_005.jpg
807.058	1.87	1	observe	Run1	observe/STIM_005.jpg
812.711	1.77	1	observe	Run1	observe/STIM_005.jpg
817.567	1.526	1	observe	Run1	observe/STIM_006.jpg
822.688	1.776	1	observe	Run1	observe/STIM_006.jpg
826.732	1.258	1	observe	Run1	observe/STIM_006.jpg
830.952	1.307	1	observe	Run1	observe/STIM_006.jpg
836.123	1.099	1	observe	Run1	observe/STIM_007.jpg
839.721	1.925	0	observe	Run1	observe/STIM_007.jpg
844.184	1.257	1	observe	Run1	observe/STIM_007.jpg
848.417	1.107	1	observe	Run1	observe/STIM_007.jpg
853.174	1.272	1	observe	Run1	observe/STIM_008.jpg
857.077	1.673	1	observe	Run1	observe/STIM_008.jpg
861.171	1.015	1	observe	Run1	observe/STIM_008.jpg
865.302	1.626	1	observe	Run1	observe/STIM_008.jpg
870.539	1.245	1	observe	Run1	observe/STIM_009.jpg
875.433	1.915	1	observe	Run1	observe/STIM_009.jpg
880.909	1.46	1	observe	Run1	observe/STIM_009.jpg
886.03	1.02	1	observe	Run1	observe/STIM_009.jpg
889.422	1.89	1	observe	Run1	observe/STIM_010.jpg
895.298	1.028	1	observe	Run1	observe/STIM_010.jpg
899.118	1.399	1	observe	Run1	observe/STIM_010.jpg
904.065	1.143	1	observe	Run1	observe/STIM_010.jpg
907.81	1.689	1	observe	Run1	observe/STIM_011.jpg
911.924	1.499	1	observe	Run1	observe/STIM_011.jpg
916.364	1.732	1	observe	Run1	observe/STIM_011.jpg
921.436	1.539	1	observe	Run1	observe/STIM_011.jpg
926.262	2.007	1	observe	Run1	observe/STIM_012.jpg
931.096	1.442	1	observe	Run1	observe/STIM_012.jpg
935.453	1.553	0	observe	Run1	observe/STIM_012.jpg
940.529	1.824	1	observe	Run1	observe/STIM_012.jpg
945.195	1.288	1	observe	Run1	observe/STIM_013.jpg
949.376	1.938	1	observe	Run1	observe/STIM_013.jpg
954.992	1.872	1	observe	Run1	observe/STIM_013.jpg
960.244	1.341	1	observe	Run1	observe/STIM_013.jpg
965.398	1.973	1	observe	Run1	observe/STIM_014.jpg
970.921	1.064	1	observe	Run1	observe/STIM_014.jpg
974.724	1.283	1	observe	Run1	observe/STIM_014.jpg
979.053	1.589	1	observe	Run1	observe/STIM_014.jpg
983.167	1.606	1	observe	Run1	observe/STIM_015.jpg
986.979	1.574	1	observe	Run1	observe/STIM_015.jpg
992.522	1.448	1	observe	Run1	observe/STIM_015.jpg
997.766	1.028	1	observe	Run1	observe/STIM_015.jpg
1000.921	1.096	1	observe	Run1	observe/STIM_016.jpg
1005.418	1.01	1	observe	Run1	observe/STIM_016.jpg
1009.948	1.186	1	observe	Run1	observe/STIM_016.jpg
1014.121	1.176	1	observe	Run1	observe/STIM_016.jpg
1018.77	1.826	1	observe	Run1	observe/STIM_017.jpg
1023.989	1.604	1	observe	Run1	observe/STIM_017.jpg
1029.119	1.92	1	observe	Run1	observe/STIM_017.jpg
1034.91	1.974	1	observe	Run1	observe/STIM_017.jpg
1039.735	1.562	1	observe	Run1	observe/STIM_018.jpg
1043.488	1.702	1	observe	Run1	observe/STIM_018.jpg
1049.008	1.906	1	observe	Run1	observe/STIM_018.jpg
1053.002	1.339	0	observe	Run1	observe/STIM_018.jpg
1056.382	1.201	1	observe	Run1	observe/STIM_019.jpg
1059.886	1.27	1	observe	Run1	observe/STIM_019.jpg
1063.494	1.446	1	observe	Run1	observe/STIM_019.jpg
1068.025	1.215	1	observe	Run1	observe/STIM_019.jpg
1072.977	3.271	1	regulate	Run2	regulate/STIM_000.jpg
1079.52	1.532	1	regulate	Run2	regulate/STIM_000.jpg
1083.494	2.892	1	regulate	Run2	regulate/STIM_000.jpg
1088.617	2.86	0	regulate	Run2	regulate/STIM_000.jpg
1094.194	2.002	1	regulate	Run2	regulate/STIM_001.jpg
1099.055	3.025	1	regulate	Run2	regulate/STIM_001.jpg
1105.813	1.998	1	regulate	Run2	regulate/STIM_001.jpg
1111.367	2.539	0	regulate	Run2	regulate/STIM_001.jpg
1117.288	2.923	1	regulate	Run2	regulate/STIM_002.jpg
1122.547	2.623	1	regulate	Run2	regulate/STIM_002.jpg
1128.873	1.707	1	regulate	Run2	regulate/STIM_002.jpg
1132.726	1.682	1	regulate	Run2	regulate/STIM_002.jpg
1138.129	3.462	1	regulate	Run2	regulate/STIM_003.jpg
1145.329	2.899	1	regulate	Run2	regulate/STIM_003.jpg
1152.153	1.736	1	regulate	Run2	regulate/STIM_003.jpg
1156.011	1.495	1	regulate	Run2	regulate/STIM_003.jpg
1161.346	3.576	1	regulate	Run2	regulate/STIM_004.jpg
1167.674	3.139	1	regulate	Run2	regulate/STIM_004.jpg
1172.947	3.125	1	regulate	Run2	regulate/STIM_004.jpg
1178.404	2.005	1	regulate	Run2	regulate/STIM_004.jpg
1184.218	2.447	1	regulate	Run2	regulate/STIM_005.jpg
1190.636	2.442	1	regulate	Run2	regulate/STIM_005.jpg
1196.762	2.296	1	regulate	Run2	regulate/STIM_005.jpg
1201.79	1.971	1	regulate	Run2	regulate/STIM_005.jpg
1206.515	2.125	1	regulate	Run2	regulate/STIM_006.jpg
1210.874	3.124	1	regulate	Run2	regulate/STIM_006.jpg
1217.502	3.196	1	regulate	Run2	regulate/STIM_006.jpg
1222.984	2.804	1	regulate	Run2	regulate/STIM_006.jpg
1228.986	2.067	1	regulate	Run2	regulate/STIM_007.jpg
1234.053	2.888	1	regulate	Run2	regulate/STIM_007.jpg
1240.74	2.239	1	regulate	Run2	regulate/STIM_007.jpg
1245.075	1.343	1	regulate	Run2	regulate/STIM_007.jpg
1249.686	2.718	1	regulate	Run2	regulate/STIM_008.jpg
1255.366	2.753	1	regulate	Run2	regulate/STIM_008.jpg
1261.251	1.923	1	regulate	Run2	regulate/STIM_008.jpg
1267.073	1.383	0	regulate	Run2	regulate/STIM_008.jpg
1271.675	2.36	1	regulate	Run2	regulate/STIM_009.jpg
1276.112	3.487	1	regulate	Run2	regulate/STIM_009.jpg
1282.433	1.476	1	regulate	Run2	regulate/STIM_009.jpg
1286.479	2.282	1	regulate	Run2	regulate/STIM_009.jpg
1291.37	1.627	1	regulate	Run2	regulate/STIM_010.jpg
1295.78	2.718	1	regulate	Run2	regulate/STIM_010.jpg
1302.345	3.09	1	regulate	Run2	regulate/STIM_010.jpg
1308.465	1.411	1	regulate	Run2	regulate/STIM_010.jpg
1313.119	2.892	1	regulate	Run2	regulate/STIM_011.jpg
1319.58	2.381	1	regulate	Run2	regulate/STIM_011.jpg
1324.308	1.619	0	regulate	Run2	regulate/STIM_011.jpg
1329.55	2.949	1	regulate	Run2	regulate/STIM_011.jpg
1336.022	2.284	1	regulate	Run2	regulate/STIM_012.jpg
1340.941	3.044	0	regulate	Run2	regulate/STIM_012.jpg
1346.113	1.825	1	regulate	Run2	regulate/STIM_012.jpg
1350.756	2.187	0	regulate	Run2	regulate/STIM_012.jpg
1355.086	3.45	1	regulate	Run2	regulate/STIM_013.jpg
1362.041	2.036	1	regulate	Run2	regulate/STIM_013.jpg
1367.828	1.938	1	regulate	Run2	regulate/STIM_013.jpg
1373.252	2.149	1	regulate	Run2	regulate/STIM_013.jpg
1378.6	2.465	1	regulate	Run2	regulate/STIM_014.jpg
1383.576	1.683	1	regulate	Run2	regulate/STIM_014.jpg
1388.168	3.109	1	regulate	Run2	regulate/STIM_014.jpg
1393.921	1.599	1	regulate	Run2	regulate/STIM_014.jpg
1397.838	2.396	1	regulate	Run2	regulate/STIM_015.jpg
1403.914	2.458	1	regulate	Run2	regulate/STIM_015.jpg
1409.679	3.267	1	regulate	Run2	regulate/STIM_015.jpg
1415.348	1.499	1	regulate	Run2	regulate/STIM_015.jpg
1419.341	2.452	1	regulate	Run2	regulate/STIM_016.jpg
1425.018	1.635	1	regulate	Run2	regulate/STIM_016.jpg
1430.121	3.021	1	regulate	Run2	regulate/STIM_016.jpg
1436.257	1.789	1	regulate	Run2	regulate/STIM_016.jpg
1441.028	1.812	1	regulate	Run2	regulate/STIM_017.jpg
1445.575	1.522	1	regulate	Run2	regulate/STIM_017.jpg
1450.445	2.674	1	regulate	Run2	regulate/STIM_017.jpg
1456.906	1.585	1	regulate	Run2	regulate/STIM_017.jpg
1460.648	3.247	1	regulate	Run2	regulate/STIM_018.jpg
1466.859	2.818	1	regulate	Run2	regulate/STIM_018.jpg
1472.601	2.322	1	regulate	Run2	regulate/STIM_018.jpg
1477.736	2.072	1	regulate	Run2	regulate/STIM_018.jpg
1482.787	3.266	1	regulate	Run2	regulate/STIM_019.jpg
1488.78	2.138	1	regulate	Run2	regulate/STIM_019.jpg
1494.227	3.166	1	regulate	Run2	regulate/STIM_019.jpg
1500.196	1.578	1	regulate	Run2	regulate/STIM_019.jpg
1505.77	3.06	1	regulate	Run2	regulate/STIM_020.jpg
1512.043	3.268	1	regulate	Run2	regulate/STIM_020.jpg
1519.098	2.285	1	regulate	Run2	regulate/STIM_020.jpg
1524.785	2.424	1	regulate	Run2	regulate/STIM_020.jpg
1529.592	2.626	1	regulate	Run2	regulate/STIM_021.jpg
1534.419	2.304	1	regulate	Run2	regulate/STIM_021.jpg
1539.675	1.661	1	regulate	Run2	regulate/STIM_021.jpg
1545.246	2.609	1	regulate	Run2	regulate/STIM_021.jpg
1550.819	2.047	1	regulate	Run2	regulate/STIM_022.jpg
1556.768	1.844	1	regulate	Run2	regulate/STIM_022.jpg
1560.928	3.245	1	regulate	Run2	regulate/STIM_022.jpg
1567.706	2.056	1	regulate	Run2	regulate/STIM_022.jpg
1573.645	2.233	0	regulate	Run2	regulate/STIM_023.jpg
1578.785	2.199	0	regulate	Run2	regulate/STIM_023.jpg
1583.245	1.81	1	regulate	Run2	regulate/STIM_023.jpg
1588.743	2.284	1	regulate	Run2	regulate/STIM_023.jpg
1594.985	1.81	1	regulate	Run2	regulate/STIM_024.jpg
1599.797	3.443	0	regulate	Run2	regulate/STIM_024.jpg
1605.67	2.763	1	regulate	Run2	regulate/STIM_024.jpg
1612.006	1.61	1	regulate	Run2	regulate/STIM_024.jpg
1616.907	2.128	1	regulate	Run2	regulate/STIM_025.jpg
1622.779	3.017	1	regulate	Run2	regulate/STIM_025.jpg
1628.615	3.166	1	regulate	Run2	regulate/STIM_025.jpg
1634.208	2.776	0	regulate	Run2	regulate/STIM_025.jpg
1638.99	3.595	1	regulate	Run2	regulate/STIM_026.jpg
1644.732	1.974	1	regulate	Run2	regulate/STIM_026.jpg
1649.213	2.299	1	regulate	Run2	regulate/STIM_026.jpg
1654.053	1.69	1	regulate	Run2	regulate/STIM_026.jpg
1659.576	1.97	1	regulate	Run2	regulate/STIM_027.jpg
1665.371	2.724	1	regulate	Run2	regulate/STIM_027.jpg
1671.98	2.562	1	regulate	Run2	regulate/STIM_027.jpg
1677.48	2.945	1	regulate	Run2	regulate/STIM_027.jpg
1683.339	2.251	1	regulate	Run2	regulate/STIM_028.jpg
1687.607	2.902	1	regulate	Run2	regulate/STIM_028.jpg
1693.055	1.822	1	regulate	Run2	regulate/STIM_028.jpg
1697.317	2.894	1	regulate	Run2	regulate/STIM_028.jpg
1702.674	2.569	1	regulate	Run2	regulate/STIM_029.jpg
1708.06	2.108	0	regulate	Run2	regulate/STIM_029.jpg
1712.872	3.129	1	regulate	Run2	regulate/STIM_029.jpg
1718.063	2.166	1	regulate	Run2	regulate/STIM_029.jpg
1723.08	1.96	1	observe	Run2	observe/STIM_000.jpg
1727.965	1.711	1	observe	Run2	observe/STIM_000.jpg
1732.472	1.542	1	observe	Run2	observe/STIM_000.jpg
1736.651	1.487	1	observe	Run2	observe/STIM_000.jpg
1741.135	1.603	1	observe	Run2	observe/STIM_001.jpg
1745.451	1.618	1	observe	Run2	observe/STIM_001.jpg
1749.571	1.872	1	observe	Run2	observe/STIM_001.jpg
1753.962	1.21	1	observe	Run2	observe/STIM_001.jpg
1758.496	1.099	1	observe	Run2	observe/STIM_002.jpg
1762.525	1.267	1	observe	Run2	observe/STIM_002.jpg
1766.671	1.715	1	observe	Run2	observe/STIM_002.jpg
1772.072	1.07	1	observe	Run2	observe/STIM_002.jpg
1775.868	1.044	1	observe	Run2	observe/STIM_003.jpg
1780.409	1.608	1	observe	Run2	observe/STIM_003.jpg
1784.47	1.562	1	observe	Run2	observe/STIM_003.jpg
1790.023	1.899	1	observe	Run2	observe/STIM_003.jpg
1794.763	1.832	1	observe	Run2	observe/STIM_004.jpg
1800.594	1.504	1	observe	Run2	observe/STIM_004.jpg
1805.32	1.98	0	observe	Run2	observe/STIM_004.jpg
1810.86	1.481	1	observe	Run2	observe/STIM_004.jpg
1815.855	1.65	1	observe	Run2	observe/STIM_005.jpg
1820.796	1.62	1	observe	Run2	observe/STIM_005.jpg
1824.528	1.151	0	observe	Run2	observe/STIM_005.jpg
1828.406	1.221	1	observe	Run2	observe/STIM_005.jpg
1831.823	1.194	1	observe	Run2	observe/STIM_006.jpg
1836.99	1.998	1	observe	Run2	observe/STIM_006.jpg
1841.91	1.937	1	observe	Run2	observe/STIM_006.jpg
1846.469	1.286	1	observe	Run2	observe/STIM_006.jpg
1850.339	1.701	1	observe	Run2	observe/STIM_007.jpg
1854.277	1.831	1	observe	Run2	observe/STIM_007.jpg
1858.452	1.745	1	observe	Run2	observe/STIM_007.jpg
1863.251	1.499	1	observe	Run2	observe/STIM_007.jpg
1867.882	1.573	1	observe	Run2	observe/STIM_008.jpg
1872.789	1.686	1	observe	Run2	observe/STIM_008.jpg
1878.067	1.049	1	observe	Run2	observe/STIM_008.jpg
1882.631	1.158	1	observe	Run2	observe/STIM_008.jpg
1886.983	1.36	1	observe	Run2	observe/STIM_009.jpg
1890.745	1.63	1	observe	Run2	observe/STIM_009.jpg
1895.675	1.007	0	observe	Run2	observe/STIM_009.jpg
1899.469	1.072	1	observe	Run2	observe/STIM_009.jpg
1904.089	1.181	1	observe	Run2	observe/STIM_010.jpg
1908.875	1.961	1	observe	Run2	observe/STIM_010.jpg
1914.212	1.287	0	observe	Run2	observe/STIM_010.jpg
1918.547	1.842	1	observe	Run2	observe/STIM_010.jpg
1923.88	1.5	1	observe	Run2	observe/STIM_011.jpg
1928.125	1.812	1	observe	Run2	observe/STIM_011.jpg
1932.394	1.673	1	observe	Run2	observe/STIM_011.jpg
1936.184	1.123	1	observe	Run2	observe/STIM_011.jpg
1940.899	1.578	1	observe	Run2	observe/STIM_012.jpg
1945.847	1.06	1	observe	Run2	observe/STIM_012.jpg
1950.114	1.138	1	observe	Run2	observe/STIM_012.jpg
1955.138	1.777	1	observe	Run2	observe/STIM_012.jpg
1960.684	1.193	1	observe	Run2	observe/STIM_013.jpg
1964.978	1.15	1	observe	Run2	observe/STIM_013.jpg
1969.114	1.21	1	observe	Run2	observe/STIM_013.jpg
1973.032	1.257	0	observe	Run2	observe/STIM_013.jpg
1976.575	1.183	1	observe	Run2	observe/STIM_014.jpg
1979.803	1.527	1	observe	Run2	observe/STIM_014.jpg
1985.253	1.114	1	observe	Run2	observe/STIM_014.jpg
1988.436	1.931	1	observe	Run2	observe/STIM_014.jpg
1994.056	1.974	1	observe	Run2	observe/STIM_015.jpg
1999.179	1.87	1	observe	Run2	observe/STIM_015.jpg
2003.899	1.383	1	observe	Run2	observe/STIM_015.jpg
2007.46	1.77	1	observe	Run2	observe/STIM_015.jpg
2011.78	1.76	1	observe	Run2	observe/STIM_016.jpg
2017.253	1.819	1	observe	Run2	observe/STIM_016.jpg
2021.996	1.497	1	observe	Run2	observe/STIM_016.jpg
2026.731	1.41	1	observe	Run2	observe/STIM_016.jpg
2030.231	1.477	0	observe	Run2	observe/STIM_017.jpg
2034.304	1.935	1	observe	Run2	observe/STIM_017.jpg
2038.599	1.782	1	observe	Run2	observe/STIM_017.jpg
2043.854	1.965	1	observe	Run2	observe/STIM_017.jpg
2048.002	1.393	0	observe	Run2	observe/STIM_018.jpg
2052.948	1.098	1	observe	Run2	observe/STIM_018.jpg
2057.396	1.126	1	observe	Run2	observe/STIM_018.jpg
2061.833	1.131	1	observe	Run2	observe/STIM_018.jpg
2065.823	1.439	1	observe	Run2	observe/STIM_019.jpg
2069.862	1.29	1	observe	Run2	observe/STIM_019.jpg
2074.387	1.579	0	observe	Run2	observe/STIM_019.jpg
2078.722	1.314	1	observe	Run2	observe/STIM_019.jpg
2082.664	1.538	1	regulate	Run3	regulate/STIM_000.jpg
2087.916	1.794	1	regulate	Run3	regulate/STIM_000.jpg
2093.046	2.696	1	regulate	Run3	regulate/STIM_000.jpg
2098.768	2.457	1	regulate	Run3	regulate/STIM_000.jpg
2104.959	2.951	1	regulate	Run3	regulate/STIM_001.jpg
2111.606	2.639	1	regulate	Run3	regulate/STIM_001.jpg
2116.558	3.002	0	regulate	Run3	regulate/STIM_001.jpg
2122.213	2.012	1	regulate	Run3	regulate/STIM_001.jpg
2127.125	2.751	1	regulate	Run3	regulate/STIM_002.jpg
2133.589	2.841	1	regulate	Run3	regulate/STIM_002.jpg
2140.093	1.594	1	regulate	Run3	regulate/STIM_002.jpg
2143.923	1.738	1	regulate	Run3	regulate/STIM_002.jpg
2148.413	1.732	1	regulate	Run3	regulate/STIM_003.jpg
2152.263	2.958	1	regulate	Run3	regulate/STIM_003.jpg
2157.265	2.807	1	regulate	Run3	regulate/STIM_003.jpg
2163.875	2.827	1	regulate	Run3	regulate/STIM_003.jpg
2170.132	1.397	0	regulate	Run3	regulate/STIM_004.jpg
2174.592	1.72	1	regulate	Run3	regulate/STIM_004.jpg
2178.923	2.068	1	regulate	Run3	regulate/STIM_004.jpg
2183.631	2.332	1	regulate	Run3	regulate/STIM_004.jpg
2189.532	1.823	1	regulate	Run3	regulate/STIM_005.jpg
2194.721	2.575	1	regulate	Run3	regulate/STIM_005.jpg
2200.704	2.102	1	regulate	Run3	regulate/STIM_005.jpg
2205.558	1.898	1	regulate	Run3	regulate/STIM_005.jpg
2209.849	2.85	1	regulate	Run3	regulate/STIM_006.jpg
2215.023	2.112	1	regulate	Run3	regulate/STIM_006.jpg
2219.213	2.262	1	regulate	Run3	regulate/STIM_006.jpg
2225.163	2.502	1	regulate	Run3	regulate/STIM_006.jpg
2229.738	1.746	1	regulate	Run3	regulate/STIM_007.jpg
2234.689	3.034	1	regulate	Run3	regulate/STIM_007.jpg
2241.125	1.353	1	regulate	Run3	regulate/STIM_007.jpg
2246.399	2.951	0	regulate	Run3	regulate/STIM_007.jpg
2251.829	1.446	1	regulate	Run3	regulate/STIM_008.jpg
2255.687	2.245	0	regulate	Run3	regulate/STIM_008.jpg
2260.572	3.007	1	regulate	Run3	regulate/STIM_008.jpg
2266.939	2.025	1	regulate	Run3	regulate/STIM_008.jpg
2272.146	1.94	1	regulate	Run3	regulate/STIM_009.jpg
2277.99	1.836	1	regulate	Run3	regulate/STIM_009.jpg
2282.763	1.842	1	regulate	Run3	regulate/STIM_009.jpg
2288.282	2.024	1	regulate	Run3	regulate/STIM_009.jpg
2292.578	2.377	1	regulate	Run3	regulate/STIM_010.jpg
2297.818	1.714	1	regulate	Run3	regulate/STIM_010.jpg
2303.027	2.872	1	regulate	Run3	regulate/STIM_010.jpg
2309.076	2.438	1	regulate	Run3	regulate/STIM_010.jpg
2314.858	2.16	1	regulate	Run3	regulate/STIM_011.jpg
2320.776	2.39	1	regulate	Run3	regulate/STIM_011.jpg
2325.325	1.797	1	regulate	Run3	regulate/STIM_011.jpg
2330.656	1.899	1	regulate	Run3	regulate/STIM_011.jpg
2335.277	2.705	1	regulate	Run3	regulate/STIM_012.jpg
2340.106	1.884	1	regulate	Run3	regulate/STIM_012.jpg
2344.881	2.449	1	regulate	Run3	regulate/STIM_012.jpg
2349.81	2.089	1	regulate	Run3	regulate/STIM_012.jpg
2355.682	3.048	0	regulate	Run3	regulate/STIM_013.jpg
2361.437	2.876	1	regulate	Run3	regulate/STIM_013.jpg
2368.075	2.528	1	regulate	Run3	regulate/STIM_013.jpg
2374.335	1.838	1	regulate	Run3	regulate/STIM_013.jpg
2378.986	2.724	1	regulate	Run3	regulate/STIM_014.jpg
2385.311	1.859	1	regulate	Run3	regulate/STIM_014.jpg
2391.051	1.572	1	regulate	Run3	regulate/STIM_014.jpg
2394.752	2.043	1	regulate	Run3	regulate/STIM_014.jpg
2398.999	3.034	1	regulate	Run3	regulate/STIM_015.jpg
2404.439	2.001	1	regulate	Run3	regulate/STIM_015.jpg
2409.407	1.603	1	regulate	Run3	regulate/STIM_015.jpg
2415.008	1.6	1	regulate	Run3	regulate/STIM_015.jpg
2419.091	2.93	1	regulate	Run3	regulate/STIM_016.jpg
2425.14	2.97	1	regulate	Run3	regulate/STIM_016.jpg
2431.861	2.735	1	regulate	Run3	regulate/STIM_016.jpg
2436.823	1.724	1	regulate	Run3	regulate/STIM_016.jpg
2441.023	1.571	1	regulate	Run3	regulate/STIM_017.jpg
2444.617	1.937	1	regulate	Run3	regulate/STIM_017.jpg
2449.361	2.186	1	regulate	Run3	regulate/STIM_017.jpg
2453.636	1.772	1	regulate	Run3	regulate/STIM_017.jpg
2459.387	2.849	1	regulate	Run3	regulate/STIM_018.jpg
2464.44	2.219	1	regulate	Run3	regulate/STIM_018.jpg
2469.997	1.598	1	regulate	Run3	regulate/STIM_018.jpg
2473.771	1.741	1	regulate	Run3	regulate/STIM_018.jpg
2479.51	1.666	1	regulate	Run3	regulate/STIM_019.jpg
2485.032	3.004	1	regulate	Run3	regulate/STIM_019.jpg
2490.349	2.378	1	regulate	Run3	regulate/STIM_019.jpg
2495.93	2.808	1	regulate	Run3	regulate/STIM_019.jpg
2501.794	2.169	1	regulate	Run3	regulate/STIM_020.jpg
2506.196	2.563	1	regulate	Run3	regulate/STIM_020.jpg
2511.564	2.005	1	regulate	Run3	regulate/STIM_020.jpg
2516.627	1.734	1	regulate	Run3	regulate/STIM_020.jpg
2520.727	1.945	1	regulate	Run3	regulate/STIM_021.jpg
2525.016	2.188	1	regulate	Run3	regulate/STIM_021.jpg
2530.206	1.341	1	regulate	Run3	regulate/STIM_021.jpg
2535.082	2.426	1	regulate	Run3	regulate/STIM_021.jpg
2540.283	2.532	1	regulate	Run3	regulate/STIM_022.jpg
2545.498	1.346	1	regulate	Run3	regulate/STIM_022.jpg
2549.883	2.843	1	regulate	Run3	regulate/STIM_022.jpg
2556.167	2.056	1	regulate	Run3	regulate/STIM_022.jpg
2561.18	2.386	1	regulate	Run3	regulate/STIM_023.jpg
2567.453	2.173	1	regulate	Run3	regulate/STIM_023.jpg
2572.779	1.724	1	regulate	Run3	regulate/STIM_023.jpg
2577.098	1.816	1	regulate	Run3	regulate/STIM_023.jpg
2582.87	2.802	1	regulate	Run3	regulate/STIM_024.jpg
2589.082	2.091	1	regulate	Run3	regulate/STIM_024.jpg
2593.469	2.32	1	regulate	Run3	regulate/STIM_024.jpg
2597.883	1.929	1	regulate	Run3	regulate/STIM_024.jpg
2603.046	2.58	1	regulate	Run3	regulate/STIM_025.jpg
2609.508	1.671	1	regulate	Run3	regulate/STIM_025.jpg
2614.885	2.905	1	regulate	Run3	regulate/STIM_025.jpg
2620.649	1.374	1	regulate	Run3	regulate/STIM_025.jpg
2625.03	3.011	1	regulate	Run3	regulate/STIM_026.jpg
2631.677	2.985	1	regulate	Run3	regulate/STIM_026.jpg
2637.406	2.497	1	regulate	Run3	regulate/STIM_026.jpg
2643.717	1.684	1	regulate	Run3	regulate/STIM_026.jpg
2647.722	2.889	1	regulate	Run3	regulate/STIM_027.jpg
2654.279	1.804	1	regulate	Run3	regulate/STIM_027.jpg
2658.119	2.486	1	regulate	Run3	regulate/STIM_027.jpg
2664.283	3.002	1	regulate	Run3	regulate/STIM_027.jpg
2669.566	1.777	1	regulate	Run3	regulate/STIM_028.jpg
2673.497	1.941	0	regulate	Run3	regulate/STIM_028.jpg
2679.306	1.396	1	regulate	Run3	regulate/STIM_028.jpg
2684.208	1.766	0	regulate	Run3	regulate/STIM_028.jpg
2689.036	2.074	1	regulate	Run3	regulate/STIM_029.jpg
2693.332	2.74	1	regulate	Run3	regulate/STIM_029.jpg
2698.574	1.685	1	regulate	Run3	regulate/STIM_029.jpg
2703.103	2.16	1	regulate	Run3	regulate/STIM_029.jpg
2707.357	1.979	1	observe	Run3	observe/STIM_000.jpg
2712.092	1.751	1	observe	Run3	observe/STIM_000.jpg
2717.031	2.005	1	observe	Run3	observe/STIM_000.jpg
2721.078	1.29	1	observe	Run3	observe/STIM_000.jpg
2724.74	1.107	1	observe	Run3	observe/STIM_001.jpg
2728.802	1.65	1	observe	Run3	observe/STIM_001.jpg
2734.009	1.956	1	observe	Run3	observe/STIM_001.jpg
2739.783	1.953	1	observe	Run3	observe/STIM_001.jpg
2744.63	1.759	1	observe	Run3	observe/STIM_002.jpg
2748.801	1.97	1	observe	Run3	observe/STIM_002.jpg
2753.902	1.761	1	observe	Run3	observe/STIM_002.jpg
2758.486	1.791	1	observe	Run3	observe/STIM_002.jpg
2763.386	1.268	1	observe	Run3	observe/STIM_003.jpg
2767.569	1.217	1	observe	Run3	observe/STIM_003.jpg
2772.328	1.038	1	observe	Run3	observe/STIM_003.jpg
2775.681	1.117	0	observe	Run3	observe/STIM_003.jpg
2779.796	1.989	1	observe	Run3	observe/STIM_004.jpg
2785.25	1.141	1	observe	Run3	observe/STIM_004.jpg
2789.79	1.237	1	observe	Run3	observe/STIM_004.jpg
2794.817	1.459	1	observe	Run3	observe/STIM_004.jpg
2798.324	1.893	1	observe	Run3	observe/STIM_005.jpg
2803.135	1.657	1	observe	Run3	observe/STIM_005.jpg
2807.097	1.42	0	observe	Run3	observe/STIM_005.jpg
2812.469	1.251	1	observe	Run3	observe/STIM_005.jpg
2817.398	1.059	1	observe	Run3	observe/STIM_006.jpg
2821.41	1.198	1	observe	Run3	observe/STIM_006.jpg
2825.374	1.014	1	observe	Run3	observe/STIM_006.jpg
2829.551	1.383	1	observe	Run3	observe/STIM_006.jpg
2834.516	1.702	1	observe	Run3	observe/STIM_007.jpg
2839.385	1.726	1	observe	Run3	observe/STIM_007.jpg
2844.493	1.905	1	observe	Run3	observe/STIM_007.jpg
2849.39	1.88	1	observe	Run3	observe/STIM_007.jpg
2854.941	1.62	1	observe	Run3	observe/STIM_008.jpg
2859.131	1.39	0	observe	Run3	observe/STIM_008.jpg
2863.825	1.508	1	observe	Run3	observe/STIM_008.jpg
2868.457	1.427	1	observe	Run3	observe/STIM_008.jpg
2872.429	1.66	1	observe	Run3	observe/STIM_009.jpg
2878.061	1.574	1	observe	Run3	observe/STIM_009.jpg
2883.518	1.335	1	observe	Run3	observe/STIM_009.jpg
2886.916	1.176	1	observe	Run3	observe/STIM_009.jpg
2890.221	1.495	1	observe	Run3	observe/STIM_010.jpg
2893.987	1.953	1	observe	Run3	observe/STIM_010.jpg
2898.863	1.639	1	observe	Run3	observe/STIM_010.jpg
2902.62	1.201	1	observe	Run3	observe/STIM_010.jpg
2907.15	1.155	1	observe	Run3	observe/STIM_011.jpg
2911.957	1.207	1	observe	Run3	observe/STIM_011.jpg
2915.822	1.49	1	observe	Run3	observe/STIM_011.jpg
2919.512	1.719	1	observe	Run3	observe/STIM_011.jpg
2924.318	1.81	1	observe	Run3	observe/STIM_012.jpg
2929.952	1.737	1	observe	Run3	observe/STIM_012.jpg
2934.6	1.315	1	observe	Run3	observe/STIM_012.jpg
2939.643	1.525	1	observe	Run3	observe/STIM_012.jpg
2945.079	1.105	1	observe	Run3	observe/STIM_013.jpg
2948.474	1.571	1	observe	Run3	observe/STIM_013.jpg
2952.754	1.342	1	observe	Run3	observe/STIM_013.jpg
2956.276	1.73	1	observe	Run3	observe/STIM_013.jpg
2961.052	1.111	0	observe	Run3	observe/STIM_014.jpg
2964.941	1.289	1	observe	Run3	observe/STIM_014.jpg
2969.724	1.407	1	observe	Run3	observe/STIM_014.jpg
2973.674	1.563	1	observe	Run3	observe/STIM_014.jpg
2977.596	1.985	1	observe	Run3	observe/STIM_015.jpg
2982.565	1.795	1	observe	Run3	observe/STIM_015.jpg
2987.312	1.78	1	observe	Run3	observe/STIM_015.jpg
2991.922	1.308	1	observe	Run3	observe/STIM_015.jpg
2996.426	1.996	1	observe	Run3	observe/STIM_016.jpg
3001.056	1.285	1	observe	Run3	observe/STIM_016.jpg
3004.412	1.978	0	observe	Run3	observe/STIM_016.jpg
3008.501	1.366	1	observe	Run3	observe/STIM_016.jpg
3013.774	1.154	1	observe	Run3	observe/STIM_017.jpg
3017.737	1.333	1	observe	Run3	observe/STIM_017.jpg
3021.739	1.081	1	observe	Run3	observe/STIM_017.jpg
3025.596	1.487	1	observe	Run3	observe/STIM_017.jpg
3029.125	1.419	1	observe	Run3	observe/STIM_018.jpg
3032.693	1.538	1	observe	Run3	observe/STIM_018.jpg
3037.735	1.516	1	observe	Run3	observe/STIM_018.jpg
3041.971	1.356	1	observe	Run3	observe/STIM_018.jpg
3046.28	1.408	1	observe	Run3	observe/STIM_019.jpg
3050.633	1.079	0	observe	Run3	observe/STIM_019.jpg
3055.083	1.44	1	observe	Run3	observe/STIM_019.jpg
3059.634	1.856	0	observe	Run3	observe/STIM_019.jpg
