onset	duration	accuracy_binary	trial_type	learning_stage	stimulus
0.0	1.297	1	incongruent	Block1	incongruent/STIM_000.jpg
3.69	1.514	0	incongruent	Block1	incongruent/STIM_000.jpg
7.641	1.042	1	incongruent	Block1	incongruent/STIM_000.jpg
11.863	1.024	1	incongruent	Block1	incongruent/STIM_000.jpg
15.899	0.964	1	incongruent	Block1	incongruent/STIM_000.jpg
20.305	1.43	1	incongruent	Block1	incongruent/STIM_001.jpg
23.787	1.093	1	incongruent	Block1	incongruent/STIM_001.jpg
28.563	1.456	1	incongruent	Block1	incongruent/STIM_001.jpg
32.734	1.269	1	incongruent	Block1	incongruent/STIM_001.jpg
37.433	1.174	1	incongruent	Block1	incongruent/STIM_001.jpg
42.303	1.229	1	incongruent	Block1	incongruent/STIM_002.jpg
45.743	1.178	1	incongruent	Block1	incongruent/STIM_002.jpg
50.746	1.347	0	incongruent	Block1	incongruent/STIM_002.jpg
55.027	1.234	1	incongruent	Block1	incongruent/STIM_002.jpg
59.999	0.883	1	incongruent	Block1	incongruent/STIM_002.jpg
62.905	1.553	0	incongruent	Block1	incongruent/STIM_003.jpg
66.96	1.23	1	incongruent	Block1	incongruent/STIM_003.jpg
70.6	0.975	1	incongruent	Block1	incongruent/STIM_003.jpg
75.418	0.831	1	incongruent	Block1	incongruent/STIM_003.jpg
78.422	0.853	1	incongruent	Block1	incongruent/STIM_003.jpg
81.415	1.346	0	incongruent	Block1	incongruent/STIM_004.jpg
85.823	1.298	1	incongruent	Block1	incongruent/STIM_004.jpg
89.758	1.266	1	incongruent	Block1	incongruent/STIM_004.jpg
94.439	1.256	1	incongruent	Block1	incongruent/STIM_004.jpg
98.41	1.214	1	incongruent	Block1	incongruent/STIM_004.jpg
101.694	1.565	1	incongruent	Block1	incongruent/STIM_005.jpg
107.222	1.073	1	incongruent	Block1	incongruent/STIM_005.jpg
111.481	1.282	1	incongruent	Block1	incongruent/STIM_005.jpg
115.488	1.295	1	incongruent	Block1	incongruent/STIM_005.jpg
120.232	1.274	1	incongruent	Block1	incongruent/STIM_005.jpg
123.545	1.478	1	incongruent	Block1	incongruent/STIM_006.jpg
127.43	0.844	1	incongruent	Block1	incongruent/STIM_006.jpg
130.773	1.476	1	incongruent	Block1	incongruent/STIM_006.jpg
135.949	1.125	0	incongruent	Block1	incongruent/STIM_006.jpg
139.668	0.752	1	incongruent	Block1	incongruent/STIM_006.jpg
143.66	1.25	1	incongruent	Block1	incongruent/STIM_007.jpg
147.282	1.397	1	incongruent	Block1	incongruent/STIM_007.jpg
151.197	1.088	0	incongruent	Block1	incongruent/STIM_007.jpg
154.487	0.786	1	incongruent	Block1	incongruent/STIM_007.jpg
158.867	1.294	1	incongruent	Block1	incongruent/STIM_007.jpg
162.948	1.298	1	incongruent	Block1	incongruent/STIM_008.jpg
166.446	0.849	1	incongruent	Block1	incongruent/STIM_008.jpg
171.0	1.176	1	incongruent	Block1	incongruent/STIM_008.jpg
175.023	1.192	1	incongruent	Block1	incongruent/STIM_008.jpg
179.133	1.202	1	incongruent	Block1	incongruent/STIM_008.jpg
182.621	1.499	1	incongruent	Block1	incongruent/STIM_009.jpg
188.065	1.389	1	incongruent	Block1	incongruent/STIM_009.jpg
192.794	0.713	1	incongruent	Block1	incongruent/STIM_009.jpg
196.242	1.11	1	incongruent	Block1	incongruent/STIM_009.jpg
199.421	1.3	1	incongruent	Block1	incongruent/STIM_009.jpg
204.248	1.455	0	incongruent	Block1	incongruent/STIM_010.jpg
208.686	1.525	1	incongruent	Block1	incongruent/STIM_010.jpg
212.231	0.886	1	incongruent	Block1	incongruent/STIM_010.jpg
216.861	0.935	1	incongruent	Block1	incongruent/STIM_010.jpg
221.313	0.815	1	incongruent	Block1	incongruent/STIM_010.jpg
225.69	0.897	1	incongruent	Block1	incongruent/STIM_011.jpg
228.908	1.445	1	incongruent	Block1	incongruent/STIM_011.jpg
233.971	1.096	1	incongruent	Block1	incongruent/STIM_011.jpg
237.13	0.829	1	incongruent	Block1	incongruent/STIM_011.jpg
240.859	0.714	1	incongruent	Block1	incongruent/STIM_011.jpg
245.349	1.615	1	incongruent	Block1	incongruent/STIM_012.jpg
250.7	1.073	1	incongruent	Block1	incongruent/STIM_012.jpg
255.765	0.798	1	incongruent	Block1	incongruent/STIM_012.jpg
260.19	1.344	1	incongruent	Block1	incongruent/STIM_012.jpg
265.164	1.257	0	incongruent	Block1	incongruent/STIM_012.jpg
268.81	1.412	1	incongruent	Block1	incongruent/STIM_013.jpg
272.991	1.273	1	incongruent	Block1	incongruent/STIM_013.jpg
277.712	0.788	1	incongruent	Block1	incongruent/STIM_013.jpg
280.914	1.175	1	incongruent	Block1	incongruent/STIM_013.jpg
285.695	1.244	1	incongruent	Block1	incongruent/STIM_013.jpg
290.278	1.428	0	incongruent	Block1	incongruent/STIM_014.jpg
294.01	1.356	1	incongruent	Block1	incongruent/STIM_014.jpg
299.041	1.183	1	incongruent	Block1	incongruent/STIM_014.jpg
303.202	1.265	0	incongruent	Block1	incongruent/STIM_014.jpg
308.139	0.91	1	incongruent	Block1	incongruent/STIM_014.jpg
311.781	0.922	1	incongruent	Block1	incongruent/STIM_015.jpg
315.477	1.038	1	incongruent	Block1	incongruent/STIM_015.jpg
319.529	0.758	1	incongruent	Block1	incongruent/STIM_015.jpg
323.058	1.001	1	incongruent	Block1	incongruent/STIM_015.jpg
327.942	0.959	1	incongruent	Block1	incongruent/STIM_015.jpg
331.653	1.345	1	incongruent	Block1	incongruent/STIM_016.jpg
335.446	1.01	1	incongruent	Block1	incongruent/STIM_016.jpg
339.545	0.909	0	incongruent	Block1	incongruent/STIM_016.jpg
344.026	1.328	1	incongruent	Block1	incongruent/STIM_016.jpg
349.231	0.832	1	incongruent	Block1	incongruent/STIM_016.jpg
352.922	1.256	1	incongruent	Block1	incongruent/STIM_017.jpg
357.7	1.1	1	incongruent	Block1	incongruent/STIM_017.jpg
361.966	1.119	1	incongruent	Block1	incongruent/STIM_017.jpg
366.796	0.81	1	incongruent	Block1	incongruent/STIM_017.jpg
370.653	1.103	1	incongruent	Block1	incongruent/STIM_017.jpg
375.615	0.814	1	incongruent	Block1	incongruent/STIM_018.jpg
378.824	1.034	1	incongruent	Block1	incongruent/STIM_018.jpg
383.637	0.768	1	incongruent	Block1	incongruent/STIM_018.jpg
387.377	1.055	1	incongruent	Block1	incongruent/STIM_018.jpg
390.879	0.736	1	incongruent	Block1	incongruent/STIM_018.jpg
393.908	1.374	1	incongruent	Block1	incongruent/STIM_019.jpg
397.67	0.908	0	incongruent	Block1	incongruent/STIM_019.jpg
401.049	0.912	1	incongruent	Block1	incongruent/STIM_019.jpg
405.44	1.175	1	incongruent	Block1	incongruent/STIM_019.jpg
408.916	0.986	1	incongruent	Block1	incongruent/STIM_019.jpg
412.524	1.18	1	incongruent	Block1	incongruent/STIM_020.jpg
417.675	1.49	1	incongruent	Block1	incongruent/STIM_020.jpg
422.636	0.809	1	incongruent	Block1	incongruent/STIM_020.jpg
426.868	1.366	1	incongruent	Block1	incongruent/STIM_020.jpg
430.4	0.853	1	incongruent	Block1	incongruent/STIM_020.jpg
434.105	0.794	1	incongruent	Block1	incongruent/STIM_021.jpg
437.759	1.296	1	incongruent	Block1	incongruent/STIM_021.jpg
441.145	1.266	1	incongruent	Block1	incongruent/STIM_021.jpg
445.895	0.769	1	incongruent	Block1	incongruent/STIM_021.jpg
448.875	0.93	1	incongruent	Block1	incongruent/STIM_021.jpg
453.137	1.018	1	incongruent	Block1	incongruent/STIM_022.jpg
456.247	0.973	1	incongruent	Block1	incongruent/STIM_022.jpg
460.765	1.156	1	incongruent	Block1	incongruent/STIM_022.jpg
464.855	1.107	1	incongruent	Block1	incongruent/STIM_022.jpg
468.487	1.239	1	incongruent	Block1	incongruent/STIM_022.jpg
472.673	1.314	1	incongruent	Block1	incongruent/STIM_023.jpg
476.615	1.27	1	incongruent	Block1	incongruent/STIM_023.jpg
480.232	0.756	1	incongruent	Block1	incongruent/STIM_023.jpg
484.669	1.176	1	incongruent	Block1	incongruent/STIM_023.jpg
488.864	0.684	1	incongruent	Block1	incongruent/STIM_023.jpg
492.49	1.308	0	incongruent	Block1	incongruent/STIM_024.jpg
496.988	1.163	1	incongruent	Block1	incongruent/STIM_024.jpg
501.494	1.023	0	incongruent	Block1	incongruent/STIM_024.jpg
504.752	1.334	1	incongruent	Block1	incongruent/STIM_024.jpg
508.571	1.048	1	incongruent	Block1	incongruent/STIM_024.jpg
512.488	0.8	1	incongruent	Block1	incongruent/STIM_025.jpg
516.783	1.091	1	incongruent	Block1	incongruent/STIM_025.jpg
521.57	1.326	0	incongruent	Block1	incongruent/STIM_025.jpg
526.1	1.062	1	incongruent	Block1	incongruent/STIM_025.jpg
530.837	1.025	1	incongruent	Block1	incongruent/STIM_025.jpg
534.54	1.139	1	incongruent	Block1	incongruent/STIM_026.jpg
539.229	1.517	1	incongruent	Block1	incongruent/STIM_026.jpg
544.208	0.856	1	incongruent	Block1	incongruent/STIM_026.jpg
548.726	1.078	1	incongruent	Block1	incongruent/STIM_026.jpg
552.462	1.182	1	incongruent	Block1	incongruent/STIM_026.jpg
557.077	1.419	0	incongruent	Block1	incongruent/STIM_027.jpg
561.578	1.39	1	incongruent	Block1	incongruent/STIM_027.jpg
566.485	0.848	1	incongruent	Block1	incongruent/STIM_027.jpg
571.26	1.105	1	incongruent	Block1	incongruent/STIM_027.jpg
575.791	0.885	1	incongruent	Block1	incongruent/STIM_027.jpg
579.776	1.438	1	incongruent	Block1	incongruent/STIM_028.jpg
583.891	1.467	1	incongruent	Block1	incongruent/STIM_028.jpg
589.268	1.158	1	incongruent	Block1	incongruent/STIM_028.jpg
592.586	1.047	1	incongruent	Block1	incongruent/STIM_028.jpg
595.858	0.795	1	incongruent	Block1	incongruent/STIM_028.jpg
599.575	0.954	1	incongruent	Block1	incongruent/STIM_029.jpg
604.054	1.075	1	incongruent	Block1	incongruent/STIM_029.jpg
609.009	1.353	1	incongruent	Block1	incongruent/STIM_029.jpg
614.287	0.811	1	incongruent	Block1	incongruent/STIM_029.jpg
617.581	0.723	1	incongruent	Block1	incongruent/STIM_029.jpg
620.485	0.599	1	congruent	Block1	congruent/STIM_000.jpg
623.533	0.675	1	congruent	Block1	congruent/STIM_000.jpg
626.622	0.692	1	congruent	Block1	congruent/STIM_000.jpg
630.666	0.631	1	congruent	Block1	congruent/STIM_000.jpg
633.663	0.744	1	congruent	Block1	congruent/STIM_000.jpg
638.384	0.908	1	congruent	Block1	congruent/STIM_001.jpg
642.052	0.95	1	congruent	Block1	congruent/STIM_001.jpg
646.725	0.747	1	congruent	Block1	congruent/STIM_001.jpg
651.025	0.698	1	congruent	Block1	congruent/STIM_001.jpg
655.558	0.852	1	congruent	Block1	congruent/STIM_001.jpg
659.016	0.776	1	congruent	Block1	congruent/STIM_002.jpg
662.609	0.871	1	congruent	Block1	congruent/STIM_002.jpg
666.062	0.658	1	congruent	Block1	congruent/STIM_002.jpg
668.761	0.744	1	congruent	Block1	congruent/STIM_002.jpg
672.989	0.838	1	congruent	Block1	congruent/STIM_002.jpg
676.2	0.665	0	congruent	Block1	congruent/STIM_003.jpg
680.295	0.623	1	congruent	Block1	congruent/STIM_003.jpg
683.602	0.639	1	congruent	Block1	congruent/STIM_003.jpg
687.481	0.665	1	congruent	Block1	congruent/STIM_003.jpg
691.483	0.626	1	congruent	Block1	congruent/STIM_003.jpg
694.215	0.925	1	congruent	Block1	congruent/STIM_004.jpg
698.831	0.674	1	congruent	Block1	congruent/STIM_004.jpg
703.442	0.768	1	congruent	Block1	congruent/STIM_004.jpg
706.459	0.878	1	congruent	Block1	congruent/STIM_004.jpg
710.471	0.806	1	congruent	Block1	congruent/STIM_004.jpg
715.159	0.85	1	congruent	Block1	congruent/STIM_005.jpg
718.739	0.699	1	congruent	Block1	congruent/STIM_005.jpg
722.331	0.98	1	congruent	Block1	congruent/STIM_005.jpg
725.574	0.982	1	congruent	Block1	congruent/STIM_005.jpg
730.264	0.575	1	congruent	Block1	congruent/STIM_005.jpg
734.284	0.726	1	congruent	Block1	congruent/STIM_006.jpg
737.129	0.902	1	congruent	Block1	congruent/STIM_006.jpg
741.041	0.826	1	congruent	Block1	congruent/STIM_006.jpg
744.186	0.835	1	congruent	Block1	congruent/STIM_006.jpg
748.426	0.869	1	congruent	Block1	congruent/STIM_006.jpg
751.755	0.72	1	congruent	Block1	congruent/STIM_007.jpg
756.159	0.843	0	congruent	Block1	congruent/STIM_007.jpg
760.717	0.702	1	congruent	Block1	congruent/STIM_007.jpg
765.311	0.664	1	congruent	Block1	congruent/STIM_007.jpg
769.12	0.644	1	congruent	Block1	congruent/STIM_007.jpg
773.76	0.73	1	congruent	Block1	congruent/STIM_008.jpg
778.249	0.678	1	congruent	Block1	congruent/STIM_008.jpg
782.121	0.898	1	congruent	Block1	congruent/STIM_008.jpg
786.332	0.941	1	congruent	Block1	congruent/STIM_008.jpg
789.611	0.888	1	congruent	Block1	congruent/STIM_008.jpg
793.967	0.838	1	congruent	Block1	congruent/STIM_009.jpg
798.72	0.557	1	congruent	Block1	congruent/STIM_009.jpg
802.41	0.865	1	congruent	Block1	congruent/STIM_009.jpg
805.955	0.836	0	congruent	Block1	congruent/STIM_009.jpg
808.905	0.689	1	congruent	Block1	congruent/STIM_009.jpg
812.373	0.701	1	congruent	Block1	congruent/STIM_010.jpg
816.926	0.606	1	congruent	Block1	congruent/STIM_010.jpg
821.352	0.607	1	congruent	Block1	congruent/STIM_010.jpg
825.827	0.879	0	congruent	Block1	congruent/STIM_010.jpg
829.013	0.769	1	congruent	Block1	congruent/STIM_010.jpg
832.553	0.862	1	congruent	Block1	congruent/STIM_011.jpg
837.176	0.768	1	congruent	Block1	congruent/STIM_011.jpg
840.211	0.818	1	congruent	Block1	congruent/STIM_011.jpg
843.65	0.798	1	congruent	Block1	congruent/STIM_011.jpg
847.227	0.962	1	congruent	Block1	congruent/STIM_011.jpg
850.348	0.842	1	congruent	Block1	congruent/STIM_012.jpg
853.215	0.583	1	congruent	Block1	congruent/STIM_012.jpg
857.679	0.654	1	congruent	Block1	congruent/STIM_012.jpg
861.404	0.916	1	congruent	Block1	congruent/STIM_012.jpg
865.812	0.978	1	congruent	Block1	congruent/STIM_012.jpg
870.221	0.627	1	congruent	Block1	congruent/STIM_013.jpg
872.996	0.635	1	congruent	Block1	congruent/STIM_013.jpg
875.663	0.701	1	congruent	Block1	congruent/STIM_013.jpg
878.643	0.866	1	congruent	Block1	congruent/STIM_013.jpg
882.012	0.889	1	congruent	Block1	congruent/STIM_013.jpg
885.88	0.97	1	congruent	Block1	congruent/STIM_014.jpg
889.859	0.878	1	congruent	Block1	congruent/STIM_014.jpg
893.172	0.574	1	congruent	Block1	congruent/STIM_014.jpg
897.09	0.776	1	congruent	Block1	congruent/STIM_014.jpg
900.184	0.621	1	congruent	Block1	congruent/STIM_014.jpg
903.606	0.589	1	congruent	Block1	congruent/STIM_015.jpg
907.393	0.855	1	congruent	Block1	congruent/STIM_015.jpg
910.458	0.973	1	congruent	Block1	congruent/STIM_015.jpg
914.108	0.596	1	congruent	Block1	congruent/STIM_015.jpg
918.113	0.734	1	congruent	Block1	congruent/STIM_015.jpg
922.755	0.731	0	congruent	Block1	congruent/STIM_016.jpg
926.186	0.842	1	congruent	Block1	congruent/STIM_016.jpg
929.317	0.901	1	congruent	Block1	congruent/STIM_016.jpg
934.121	0.757	1	congruent	Block1	congruent/STIM_016.jpg
938.633	0.972	1	congruent	Block1	congruent/STIM_016.jpg
943.366	0.932	1	congruent	Block1	congruent/STIM_017.jpg
946.85	0.75	1	congruent	Block1	congruent/STIM_017.jpg
949.953	0.742	1	congruent	Block1	congruent/STIM_017.jpg
953.041	0.86	1	congruent	Block1	congruent/STIM_017.jpg
957.367	0.582	1	congruent	Block1	congruent/STIM_017.jpg
961.816	0.956	1	congruent	Block1	congruent/STIM_018.jpg
966.483	0.956	1	congruent	Block1	congruent/STIM_018.jpg
971.18	0.716	1	congruent	Block1	congruent/STIM_018.jpg
974.966	0.611	1	congruent	Block1	congruent/STIM_018.jpg
978.935	0.797	1	congruent	Block1	congruent/STIM_018.jpg
982.196	0.931	1	congruent	Block1	congruent/STIM_019.jpg
986.37	0.941	1	congruent	Block1	congruent/STIM_019.jpg
990.102	0.659	1	congruent	Block1	congruent/STIM_019.jpg
993.238	0.916	1	congruent	Block1	congruent/STIM_019.jpg
997.068	0.902	1	congruent	Block1	congruent/STIM_019.jpg
1000.41	0.693	1	congruent	Block1	congruent/STIM_020.jpg
1003.264	0.916	1	congruent	Block1	congruent/STIM_020.jpg
1007.03	0.657	1	congruent	Block1	congruent/STIM_020.jpg
1009.701	0.762	0	congruent	Block1	congruent/STIM_020.jpg
1012.607	0.709	1	congruent	Block1	congruent/STIM_020.jpg
1017.215	0.971	1	congruent	Block1	congruent/STIM_021.jpg
1020.933	0.797	1	congruent	Block1	congruent/STIM_021.jpg
1024.741	0.585	1	congruent	Block1	congruent/STIM_021.jpg
1027.432	0.693	1	congruent	Block1	congruent/STIM_021.jpg
1030.943	0.596	1	congruent	Block1	congruent/STIM_021.jpg
1033.643	0.856	0	congruent	Block1	congruent/STIM_022.jpg
1038.393	0.657	1	congruent	Block1	congruent/STIM_022.jpg
1041.476	0.581	1	congruent	Block1	congruent/STIM_022.jpg
1045.845	0.576	1	congruent	Block1	congruent/STIM_022.jpg
1048.457	0.748	1	congruent	Block1	congruent/STIM_022.jpg
1052.649	0.879	1	congruent	Block1	congruent/STIM_023.jpg
1056.453	0.617	1	congruent	Block1	congruent/STIM_023.jpg
1059.309	0.928	1	congruent	Block1	congruent/STIM_023.jpg
1063.74	0.678	1	congruent	Block1	congruent/STIM_023.jpg
1068.192	0.608	1	congruent	Block1	congruent/STIM_023.jpg
1071.478	0.637	1	congruent	Block1	congruent/STIM_024.jpg
1074.788	0.959	1	congruent	Block1	congruent/STIM_024.jpg
1079.281	0.629	1	congruent	Block1	congruent/STIM_024.jpg
1083.829	0.63	1	congruent	Block1	congruent/STIM_024.jpg
1087.098	0.966	1	congruent	Block1	congruent/STIM_024.jpg
1091.465	0.979	1	congruent	Block1	congruent/STIM_025.jpg
1094.772	0.811	1	congruent	Block1	congruent/STIM_025.jpg
1099.012	0.765	1	congruent	Block1	congruent/STIM_025.jpg
1102.348	0.631	1	congruent	Block1	congruent/STIM_025.jpg
1105.473	0.669	1	congruent	Block1	congruent/STIM_025.jpg
1110.107	0.623	1	congruent	Block1	congruent/STIM_026.jpg
1114.661	0.961	1	congruent	Block1	congruent/STIM_026.jpg
1118.717	0.618	1	congruent	Block1	congruent/STIM_026.jpg
1122.003	0.569	1	congruent	Block1	congruent/STIM_026.jpg
1125.496	0.69	1	congruent	Block1	congruent/STIM_026.jpg
1129.606	0.801	1	congruent	Block1	congruent/STIM_027.jpg
1133.227	0.906	1	congruent	Block1	congruent/STIM_027.jpg
1137.097	0.935	1	congruent	Block1	congruent/STIM_027.jpg
1141.185	0.645	1	congruent	Block1	congruent/STIM_027.jpg
1144.713	0.829	1	congruent	Block1	congruent/STIM_027.jpg
1148.702	0.706	1	congruent	Block1	congruent/STIM_028.jpg
1151.791	0.738	1	congruent	Block1	congruent/STIM_028.jpg
1154.667	0.977	1	congruent	Block1	congruent/STIM_028.jpg
1158.401	0.814	1	congruent	Block1	congruent/STIM_028.jpg
1162.09	0.639	0	congruent	Block1	congruent/STIM_028.jpg
1166.509	0.85	1	congruent	Block1	congruent/STIM_029.jpg
1170.217	0.92	1	congruent	Block1	congruent/STIM_029.jpg
1174.814	0.652	1	congruent	Block1	congruent/STIM_029.jpg
1178.968	0.806	1	congruent	Block1	congruent/STIM_029.jpg
1183.484	0.847	1	congruent	Block1	congruent/STIM_029.jpg
1186.854	0.957	0	incongruent	Block2	incongruent/STIM_000.jpg
1190.557	1.025	1	incongruent	Block2	incongruent/STIM_000.jpg
1194.874	1.088	1	incongruent	Block2	incongruent/STIM_000.jpg
1199.572	0.651	1	incongruent	Block2	incongruent/STIM_000.jpg
1203.156	0.827	1	incongruent	Block2	incongruent/STIM_000.jpg
1206.3	1.358	1	incongruent	Block2	incongruent/STIM_001.jpg
1210.332	1.221	1	incongruent	Block2	incongruent/STIM_001.jpg
1214.647	1.067	1	incongruent	Block2	incongruent/STIM_001.jpg
1217.788	1.13	1	incongruent	Block2	incongruent/STIM_001.jpg
1222.103	1.034	1	incongruent	Block2	incongruent/STIM_001.jpg
1226.991	1.292	1	incongruent	Block2	incongruent/STIM_002.jpg
1231.701	0.685	1	incongruent	Block2	incongruent/STIM_002.jpg
1235.039	1.21	1	incongruent	Block2	incongruent/STIM_002.jpg
1239.825	0.933	1	incongruent	Block2	incongruent/STIM_002.jpg
1243.833	1.095	1	incongruent	Block2	incongruent/STIM_002.jpg
1248.466	0.838	1	incongruent	Block2	incongruent/STIM_003.jpg
1253.031	1.288	1	incongruent	Block2	incongruent/STIM_003.jpg
1258.192	0.886	1	incongruent	Block2	incongruent/STIM_003.jpg
1261.43	0.605	1	incongruent	Block2	incongruent/STIM_003.jpg
1264.089	0.711	1	incongruent	Block2	incongruent/STIM_003.jpg
1268.707	0.712	1	incongruent	Block2	incongruent/STIM_004.jpg
1271.672	0.998	1	incongruent	Block2	incongruent/STIM_004.jpg
1276.526	0.826	1	incongruent	Block2	incongruent/STIM_004.jpg
1280.567	0.699	1	incongruent	Block2	incongruent/STIM_004.jpg
1283.9	1.031	1	incongruent	Block2	incongruent/STIM_004.jpg
1288.005	1.089	1	incongruent	Block2	incongruent/STIM_005.jpg
1291.488	0.807	1	incongruent	Block2	incongruent/STIM_005.jpg
1294.901	1.198	1	incongruent	Block2	incongruent/STIM_005.jpg
1300.001	1.081	1	incongruent	Block2	incongruent/STIM_005.jpg
1304.609	0.817	1	incongruent	Block2	incongruent/STIM_005.jpg
1309.268	0.749	1	incongruent	Block2	incongruent/STIM_006.jpg
1312.1	1.09	1	incongruent	Block2	incongruent/STIM_006.jpg
1315.891	0.702	1	incongruent	Block2	incongruent/STIM_006.jpg
1320.48	1.141	0	incongruent	Block2	incongruent/STIM_006.jpg
1325.349	0.952	1	incongruent	Block2	incongruent/STIM_006.jpg
1328.954	1.17	1	incongruent	Block2	incongruent/STIM_007.jpg
1333.377	1.095	1	incongruent	Block2	incongruent/STIM_007.jpg
1338.414	1.2	1	incongruent	Block2	incongruent/STIM_007.jpg
1343.308	0.812	1	incongruent	Block2	incongruent/STIM_007.jpg
1347.816	0.601	1	incongruent	Block2	incongruent/STIM_007.jpg
1352.037	0.683	1	incongruent	Block2	incongruent/STIM_008.jpg
1355.373	1.154	1	incongruent	Block2	incongruent/STIM_008.jpg
1358.934	0.711	1	incongruent	Block2	incongruent/STIM_008.jpg
1363.501	0.641	0	incongruent	Block2	incongruent/STIM_008.jpg
1366.959	1.032	1	incongruent	Block2	incongruent/STIM_008.jpg
1371.297	1.355	1	incongruent	Block2	incongruent/STIM_009.jpg
1374.802	1.194	1	incongruent	Block2	incongruent/STIM_009.jpg
1378.076	0.764	0	incongruent	Block2	incongruent/STIM_009.jpg
1381.482	0.668	1	incongruent	Block2	incongruent/STIM_009.jpg
1385.165	1.138	1	incongruent	Block2	incongruent/STIM_009.jpg
1389.973	0.671	1	incongruent	Block2	incongruent/STIM_010.jpg
1392.986	0.997	1	incongruent	Block2	incongruent/STIM_010.jpg
1396.155	1.022	1	incongruent	Block2	incongruent/STIM_010.jpg
1400.907	0.656	1	incongruent	Block2	incongruent/STIM_010.jpg
1404.365	0.669	1	incongruent	Block2	incongruent/STIM_010.jpg
1407.466	0.742	1	incongruent	Block2	incongruent/STIM_011.jpg
1412.194	1.315	1	incongruent	Block2	incongruent/STIM_011.jpg
1416.146	0.922	1	incongruent	Block2	incongruent/STIM_011.jpg
1420.162	1.082	1	incongruent	Block2	incongruent/STIM_011.jpg
1424.69	1.134	1	incongruent	Block2	incongruent/STIM_011.jpg
1428.921	0.678	1	incongruent	Block2	incongruent/STIM_012.jpg
1432.534	0.838	1	incongruent	Block2	incongruent/STIM_012.jpg
1436.37	1.148	1	incongruent	Block2	incongruent/STIM_012.jpg
1440.045	0.625	1	incongruent	Block2	incongruent/STIM_012.jpg
1443.792	0.632	1	incongruent	Block2	incongruent/STIM_012.jpg
1446.939	0.9	1	incongruent	Block2	incongruent/STIM_013.jpg
1451.357	1.118	1	incongruent	Block2	incongruent/STIM_013.jpg
1455.597	0.711	1	incongruent	Block2	incongruent/STIM_013.jpg
1460.175	0.774	1	incongruent	Block2	incongruent/STIM_013.jpg
1464.661	0.857	1	incongruent	Block2	incongruent/STIM_013.jpg
1468.239	1.316	1	incongruent	Block2	incongruent/STIM_014.jpg
1471.644	1.024	1	incongruent	Block2	incongruent/STIM_014.jpg
1474.757	0.642	1	incongruent	Block2	incongruent/STIM_014.jpg
1478.037	0.807	0	incongruent	Block2	incongruent/STIM_014.jpg
1482.192	1.085	1	incongruent	Block2	incongruent/STIM_014.jpg
1486.863	1.228	0	incongruent	Block2	incongruent/STIM_015.jpg
1491.751	1.282	0	incongruent	Block2	incongruent/STIM_015.jpg
1495.315	1.197	1	incongruent	Block2	incongruent/STIM_015.jpg
1499.022	0.588	1	incongruent	Block2	incongruent/STIM_015.jpg
1502.001	0.574	1	incongruent	Block2	incongruent/STIM_015.jpg
1505.699	0.786	1	incongruent	Block2	incongruent/STIM_016.jpg
1510.048	1.097	1	incongruent	Block2	incongruent/STIM_016.jpg
1515.131	1.057	1	incongruent	Block2	incongruent/STIM_016.jpg
1519.529	0.894	1	incongruent	Block2	incongruent/STIM_016.jpg
1522.799	0.848	1	incongruent	Block2	incongruent/STIM_016.jpg
1526.74	1.31	1	incongruent	Block2	incongruent/STIM_017.jpg
1532.029	1.217	1	incongruent	Block2	incongruent/STIM_017.jpg
1536.359	1.081	1	incongruent	Block2	incongruent/STIM_017.jpg
1539.742	0.741	1	incongruent	Block2	incongruent/STIM_017.jpg
1543.599	1.004	1	incongruent	Block2	incongruent/STIM_017.jpg
1548.511	1.359	1	incongruent	Block2	incongruent/STIM_018.jpg
1552.629	0.863	1	incongruent	Block2	incongruent/STIM_018.jpg
1556.773	0.813	1	incongruent	Block2	incongruent/STIM_018.jpg
1560.507	0.973	1	incongruent	Block2	incongruent/STIM_018.jpg
1563.602	0.594	1	incongruent	Block2	incongruent/STIM_018.jpg
1566.956	1.375	1	incongruent	Block2	incongruent/STIM_019.jpg
1572.146	1.238	1	incongruent	Block2	incongruent/STIM_019.jpg
1576.284	1.225	1	incongruent	Block2	incongruent/STIM_019.jpg
1580.248	0.901	1	incongruent	Block2	incongruent/STIM_019.jpg
1584.453	1.012	1	incongruent	Block2	incongruent/STIM_019.jpg
1587.739	0.823	1	incongruent	Block2	incongruent/STIM_020.jpg
1590.641	0.661	1	incongruent	Block2	incongruent/STIM_020.jpg
1593.803	0.762	1	incongruent	Block2	incongruent/STIM_020.jpg
1598.11	0.78	1	incongruent	Block2	incongruent/STIM_020.jpg
1601.097	0.882	1	incongruent	Block2	incongruent/STIM_020.jpg
1603.994	1.294	1	incongruent	Block2	incongruent/STIM_021.jpg
1609.153	1.174	1	incongruent	Block2	incongruent/STIM_021.jpg
1613.205	0.782	1	incongruent	Block2	incongruent/STIM_021.jpg
1616.175	1.05	1	incongruent	Block2	incongruent/STIM_021.jpg
1621.181	0.641	1	incongruent	Block2	incongruent/STIM_021.jpg
1624.383	0.774	1	incongruent	Block2	incongruent/STIM_022.jpg
1627.468	0.681	1	incongruent	Block2	incongruent/STIM_022.jpg
1631.789	1.058	1	incongruent	Block2	incongruent/STIM_022.jpg
1636.47	0.959	1	incongruent	Block2	incongruent/STIM_022.jpg
1640.755	0.73	1	incongruent	Block2	incongruent/STIM_022.jpg
1645.023	1.013	1	incongruent	Block2	incongruent/STIM_023.jpg
1649.878	1.135	1	incongruent	Block2	incongruent/STIM_023.jpg
1653.506	0.997	1	incongruent	Block2	incongruent/STIM_023.jpg
1656.938	0.825	1	incongruent	Block2	incongruent/STIM_023.jpg
1661.286	0.71	1	incongruent	Block2	incongruent/STIM_023.jpg
1664.865	1.259	1	incongruent	Block2	incongruent/STIM_024.jpg
1669.802	1.137	1	incongruent	Block2	incongruent/STIM_024.jpg
1674.577	0.619	1	incongruent	Block2	incongruent/STIM_024.jpg
1679.041	1.006	1	incongruent	Block2	incongruent/STIM_024.jpg
1682.093	0.777	1	incongruent	Block2	incongruent/STIM_024.jpg
1685.611	0.839	1	incongruent	Block2	incongruent/STIM_025.jpg
1690.283	1.059	1	incongruent	Block2	incongruent/STIM_025.jpg
1694.057	0.859	1	incongruent	Block2	incongruent/STIM_025.jpg
1697.104	0.683	1	incongruent	Block2	incongruent/STIM_025.jpg
1701.682	0.705	1	incongruent	Block2	incongruent/STIM_025.jpg
1706.138	1.357	1	incongruent	Block2	incongruent/STIM_026.jpg
1710.236	1.236	1	incongruent	Block2	incongruent/STIM_026.jpg
1714.355	1.084	1	incongruent	Block2	incongruent/STIM_026.jpg
1719.094	1.018	1	incongruent	Block2	incongruent/STIM_026.jpg
1723.59	1.036	1	incongruent	Block2	incongruent/STIM_026.jpg
1727.302	1.017	1	incongruent	Block2	incongruent/STIM_027.jpg
1731.3	0.734	1	incongruent	Block2	incongruent/STIM_027.jpg
1736.012	0.809	1	incongruent	Block2	incongruent/STIM_027.jpg
1739.769	0.939	1	incongruent	Block2	incongruent/STIM_027.jpg
1744.588	0.632	1	incongruent	Block2	incongruent/STIM_027.jpg
1748.896	1.233	1	incongruent	Block2	incongruent/STIM_028.jpg
1753.641	0.767	1	incongruent	Block2	incongruent/STIM_028.jpg
1756.694	0.616	1	incongruent	Block2	incongruent/STIM_028.jpg
1761.055	1.049	1	incongruent	Block2	incongruent/STIM_028.jpg
1765.546	1.005	1	incongruent	Block2	incongruent/STIM_028.jpg
1769.18	0.762	1	incongruent	Block2	incongruent/STIM_029.jpg
1773.047	1.014	0	incongruent	Block2	incongruent/STIM_029.jpg
1777.087	1.081	1	incongruent	Block2	incongruent/STIM_029.jpg
1781.472	0.774	1	incongruent	Block2	incongruent/STIM_029.jpg
1784.725	0.951	1	incongruent	Block2	incongruent/STIM_029.jpg
1787.981	0.965	1	congruent	Block2	congruent/STIM_000.jpg
1792.651	0.777	1	congruent	Block2	congruent/STIM_000.jpg
1795.887	0.652	1	congruent	Block2	congruent/STIM_000.jpg
1798.784	0.833	1	congruent	Block2	congruent/STIM_000.jpg
1802.008	0.925	1	congruent	Block2	congruent/STIM_000.jpg
1805.343	0.794	1	congruent	Block2	congruent/STIM_001.jpg
1809.165	0.794	0	congruent	Block2	congruent/STIM_001.jpg
1813.679	0.569	1	congruent	Block2	congruent/STIM_001.jpg
1816.561	0.645	1	congruent	Block2	congruent/STIM_001.jpg
1819.302	0.634	1	congruent	Block2	congruent/STIM_001.jpg
1822.14	0.881	1	congruent	Block2	congruent/STIM_002.jpg
1826.199	0.721	1	congruent	Block2	congruent/STIM_002.jpg
1829.008	0.915	1	congruent	Block2	congruent/STIM_002.jpg
1832.52	0.625	1	congruent	Block2	congruent/STIM_002.jpg
1835.771	0.862	1	congruent	Block2	congruent/STIM_002.jpg
1839.278	0.968	1	congruent	Block2	congruent/STIM_003.jpg
1842.785	0.968	1	congruent	Block2	congruent/STIM_003.jpg
1847.118	0.585	1	congruent	Block2	congruent/STIM_003.jpg
1850.647	0.674	1	congruent	Block2	congruent/STIM_003.jpg
1854.591	0.952	1	congruent	Block2	congruent/STIM_003.jpg
1857.755	0.724	1	congruent	Block2	congruent/STIM_004.jpg
1862.145	0.902	1	congruent	Block2	congruent/STIM_004.jpg
1866.845	0.616	1	congruent	Block2	congruent/STIM_004.jpg
1871.242	0.743	1	congruent	Block2	congruent/STIM_004.jpg
1875.874	0.957	1	congruent	Block2	congruent/STIM_004.jpg
1879.626	0.667	1	congruent	Block2	congruent/STIM_005.jpg
1883.031	0.637	1	congruent	Block2	congruent/STIM_005.jpg
1886.261	0.87	1	congruent	Block2	congruent/STIM_005.jpg
1889.922	0.953	1	congruent	Block2	congruent/STIM_005.jpg
1894.604	0.764	1	congruent	Block2	congruent/STIM_005.jpg
1898.194	0.609	1	congruent	Block2	congruent/STIM_006.jpg
1902.602	0.682	1	congruent	Block2	congruent/STIM_006.jpg
1905.738	0.637	1	congruent	Block2	congruent/STIM_006.jpg
1909.649	0.603	1	congruent	Block2	congruent/STIM_006.jpg
1913.723	0.844	1	congruent	Block2	congruent/STIM_006.jpg
1917.637	0.963	1	congruent	Block2	congruent/STIM_007.jpg
1921.903	0.93	1	congruent	Block2	congruent/STIM_007.jpg
1925.141	0.637	1	congruent	Block2	congruent/STIM_007.jpg
1929.291	0.894	1	congruent	Block2	congruent/STIM_007.jpg
1933.674	0.582	1	congruent	Block2	congruent/STIM_007.jpg
1937.443	0.966	1	congruent	Block2	congruent/STIM_008.jpg
1940.848	0.973	1	congruent	Block2	congruent/STIM_008.jpg
1943.955	0.766	1	congruent	Block2	congruent/STIM_008.jpg
1947.715	0.801	1	congruent	Block2	congruent/STIM_008.jpg
1950.853	0.728	1	congruent	Block2	congruent/STIM_008.jpg
1954.133	0.918	1	congruent	Block2	congruent/STIM_009.jpg
1957.835	0.952	1	congruent	Block2	congruent/STIM_009.jpg
1961.132	0.949	1	congruent	Block2	congruent/STIM_009.jpg
1965.337	0.622	1	congruent	Block2	congruent/STIM_009.jpg
1969.534	0.808	1	congruent	Block2	congruent/STIM_009.jpg
1974.142	0.982	1	congruent	Block2	congruent/STIM_010.jpg
1978.458	0.839	1	congruent	Block2	congruent/STIM_010.jpg
1981.476	0.869	1	congruent	Block2	congruent/STIM_010.jpg
1985.98	0.913	1	congruent	Block2	congruent/STIM_010.jpg
1989.961	0.826	1	congruent	Block2	congruent/STIM_010.jpg
1993.679	0.608	1	congruent	Block2	congruent/STIM_011.jpg
1996.664	0.85	1	congruent	Block2	congruent/STIM_011.jpg
2000.096	0.765	1	congruent	Block2	congruent/STIM_011.jpg
2003.012	0.847	1	congruent	Block2	congruent/STIM_011.jpg
2007.238	0.83	1	congruent	Block2	congruent/STIM_011.jpg
2010.25	0.855	1	congruent	Block2	congruent/STIM_012.jpg
2014.235	0.87	1	congruent	Block2	congruent/STIM_012.jpg
2019.067	0.985	1	congruent	Block2	congruent/STIM_012.jpg
2023.794	0.703	1	congruent	Block2	congruent/STIM_012.jpg
2028.288	0.73	1	congruent	Block2	congruent/STIM_012.jpg
2031.898	0.741	1	congruent	Block2	congruent/STIM_013.jpg
2035.675	0.775	1	congruent	Block2	congruent/STIM_013.jpg
2038.494	0.583	1	congruent	Block2	congruent/STIM_013.jpg
2042.136	0.578	1	congruent	Block2	congruent/STIM_013.jpg
2045.987	0.786	1	congruent	Block2	congruent/STIM_013.jpg
2048.994	0.554	1	congruent	Block2	congruent/STIM_014.jpg
2052.785	0.833	1	congruent	Block2	congruent/STIM_014.jpg
2056.705	0.635	1	congruent	Block2	congruent/STIM_014.jpg
2059.466	0.892	1	congruent	Block2	congruent/STIM_014.jpg
2063.689	0.782	1	congruent	Block2	congruent/STIM_014.jpg
2066.531	0.859	1	congruent	Block2	congruent/STIM_015.jpg
2070.082	0.561	0	congruent	Block2	congruent/STIM_015.jpg
2073.151	0.958	1	congruent	Block2	congruent/STIM_015.jpg
2076.154	0.657	1	congruent	Block2	congruent/STIM_015.jpg
2079.603	0.941	1	congruent	Block2	congruent/STIM_015.jpg
2083.694	0.773	1	congruent	Block2	congruent/STIM_016.jpg
2086.467	0.91	1	congruent	Block2	congruent/STIM_016.jpg
2090.625	0.741	1	congruent	Block2	congruent/STIM_016.jpg
2095.168	0.959	1	congruent	Block2	congruent/STIM_016.jpg
2098.319	0.859	1	congruent	Block2	congruent/STIM_016.jpg
2103.028	0.554	1	congruent	Block2	congruent/STIM_017.jpg
2106.056	0.614	1	congruent	Block2	congruent/STIM_017.jpg
2109.217	0.692	1	congruent	Block2	congruent/STIM_017.jpg
2113.362	0.588	1	congruent	Block2	congruent/STIM_017.jpg
2117.196	0.759	1	congruent	Block2	congruent/STIM_017.jpg
2121.009	0.699	1	congruent	Block2	congruent/STIM_018.jpg
2125.33	0.981	1	congruent	Block2	congruent/STIM_018.jpg
2129.696	0.924	1	congruent	Block2	congruent/STIM_018.jpg
2134.477	0.595	1	congruent	Block2	congruent/STIM_018.jpg
2138.75	0.599	1	congruent	Block2	congruent/STIM_018.jpg
2142.685	0.577	1	congruent	Block2	congruent/STIM_019.jpg
2145.769	0.67	1	congruent	Block2	congruent/STIM_019.jpg
2148.789	0.965	1	congruent	Block2	congruent/STIM_019.jpg
2152.371	0.62	1	congruent	Block2	congruent/STIM_019.jpg
2156.2	0.984	1	congruent	Block2	congruent/STIM_019.jpg
2160.018	0.664	1	congruent	Block2	congruent/STIM_020.jpg
2164.422	0.795	1	congruent	Block2	congruent/STIM_020.jpg
2167.657	0.926	1	congruent	Block2	congruent/STIM_020.jpg
2171.512	0.903	1	congruent	Block2	congruent/STIM_020.jpg
2176.101	0.824	1	congruent	Block2	congruent/STIM_020.jpg
2179.851	0.816	1	congruent	Block2	congruent/STIM_021.jpg
2184.054	0.956	1	congruent	Block2	congruent/STIM_021.jpg
2187.429	0.772	1	congruent	Block2	congruent/STIM_021.jpg
2191.693	0.857	1	congruent	Block2	congruent/STIM_021.jpg
2194.636	0.567	1	congruent	Block2	congruent/STIM_021.jpg
2197.329	0.769	1	congruent	Block2	congruent/STIM_022.jpg
2201.231	0.769	0	congruent	Block2	congruent/STIM_022.jpg
2204.846	0.653	1	congruent	Block2	congruent/STIM_022.jpg
2207.501	0.965	1	congruent	Block2	congruent/STIM_022.jpg
2211.789	0.677	1	congruent	Block2	congruent/STIM_022.jpg
2214.593	0.58	1	congruent	Block2	congruent/STIM_023.jpg
2217.403	0.738	1	congruent	Block2	congruent/STIM_023.jpg
2220.906	0.966	0	congruent	Block2	congruent/STIM_023.jpg
2225.839	0.732	1	congruent	Block2	congruent/STIM_023.jpg
2228.839	0.981	1	congruent	Block2	congruent/STIM_023.jpg
2232.32	0.645	1	congruent	Block2	congruent/STIM_024.jpg
2236.794	0.803	1	congruent	Block2	congruent/STIM_024.jpg
2240.072	0.885	1	congruent	Block2	congruent/STIM_024.jpg
2243.465	0.752	1	congruent	Block2	congruent/STIM_024.jpg
2246.749	0.934	1	congruent	Block2	congruent/STIM_024.jpg
2251.42	0.934	1	congruent	Block2	congruent/STIM_025.jpg
2255.708	0.572	1	congruent	Block2	congruent/STIM_025.jpg
2259.958	0.668	1	congruent	Block2	congruent/STIM_025.jpg
2263.376	0.827	1	congruent	Block2	congruent/STIM_025.jpg
2267.338	0.906	1	congruent	Block2	congruent/STIM_025.jpg
2272.185	0.731	1	congruent	Block2	congruent/STIM_026.jpg
2276.07	0.834	1	congruent	Block2	congruent/STIM_026.jpg
2279.348	0.574	1	congruent	Block2	congruent/STIM_026.jpg
2282.311	0.943	1	congruent	Block2	congruent/STIM_026.jpg
2287.227	0.603	0	congruent	Block2	congruent/STIM_026.jpg
2291.157	0.774	0	congruent	Block2	congruent/STIM_027.jpg
2294.912	0.553	1	congruent	Block2	congruent/STIM_027.jpg
2298.662	0.917	1	congruent	Block2	congruent/STIM_027.jpg
2302.737	0.557	1	congruent	Block2	congruent/STIM_027.jpg
2305.616	0.666	1	congruent	Block2	congruent/STIM_027.jpg
2309.136	0.588	1	congruent	Block2	congruent/STIM_028.jpg
2312.67	0.679	1	congruent	Block2	congruent/STIM_028.jpg
2316.196	0.58	1	congruent	Block2	congruent/STIM_028.jpg
2319.178	0.857	1	congruent	Block2	congruent/STIM_028.jpg
2323.67	0.587	1	congruent	Block2	congruent/STIM_028.jpg
2328.196	0.724	1	congruent	Block2	congruent/STIM_029.jpg
2332.023	0.982	1	congruent	Block2	congruent/STIM_029.jpg
2335.099	0.593	1	congruent	Block2	congruent/STIM_029.jpg
2337.912	0.76	1	congruent	Block2	congruent/STIM_029.jpg
2342.315	0.886	1	congruent	Block2	congruent/STIM_029.jpg
2345.712	0.826	1	incongruent	Block3	incongruent/STIM_000.jpg
2349.265	0.759	1	incongruent	Block3	incongruent/STIM_000.jpg
2352.8	1.08	1	incongruent	Block3	incongruent/STIM_000.jpg
2356.924	1.015	1	incongruent	Block3	incongruent/STIM_000.jpg
2360.462	0.876	1	incongruent	Block3	incongruent/STIM_000.jpg
2363.762	0.552	1	incongruent	Block3	incongruent/STIM_001.jpg
2366.435	0.659	1	incongruent	Block3	incongruent/STIM_001.jpg
2369.752	0.935	1	incongruent	Block3	incongruent/STIM_001.jpg
2373.165	0.703	1	incongruent	Block3	incongruent/STIM_001.jpg
2376.091	1.063	1	incongruent	Block3	incongruent/STIM_001.jpg
2381.058	1.136	1	incongruent	Block3	incongruent/STIM_002.jpg
2384.745	1.122	1	incongruent	Block3	incongruent/STIM_002.jpg
2388.8	1.031	1	incongruent	Block3	incongruent/STIM_002.jpg
2392.753	0.656	1	incongruent	Block3	incongruent/STIM_002.jpg
2395.672	0.783	1	incongruent	Block3	incongruent/STIM_002.jpg
2399.796	0.922	1	incongruent	Block3	incongruent/STIM_003.jpg
2403.78	0.754	1	incongruent	Block3	incongruent/STIM_003.jpg
2408.183	0.724	1	incongruent	Block3	incongruent/STIM_003.jpg
2412.35	0.935	1	incongruent	Block3	incongruent/STIM_003.jpg
2415.637	1.133	1	incongruent	Block3	incongruent/STIM_003.jpg
2419.836	0.897	0	incongruent	Block3	incongruent/STIM_004.jpg
2422.874	0.646	1	incongruent	Block3	incongruent/STIM_004.jpg
2427.466	0.795	1	incongruent	Block3	incongruent/STIM_004.jpg
2430.264	0.601	1	incongruent	Block3	incongruent/STIM_004.jpg
2434.37	0.559	1	incongruent	Block3	incongruent/STIM_004.jpg
2438.822	1.132	1	incongruent	Block3	incongruent/STIM_005.jpg
2443.445	0.861	1	incongruent	Block3	incongruent/STIM_005.jpg
2446.964	0.777	1	incongruent	Block3	incongruent/STIM_005.jpg
2451.143	0.974	1	incongruent	Block3	incongruent/STIM_005.jpg
2455.325	1.054	1	incongruent	Block3	incongruent/STIM_005.jpg
2458.406	0.951	1	incongruent	Block3	incongruent/STIM_006.jpg
2461.654	0.747	1	incongruent	Block3	incongruent/STIM_006.jpg
2465.746	0.743	1	incongruent	Block3	incongruent/STIM_006.jpg
2470.174	0.796	1	incongruent	Block3	incongruent/STIM_006.jpg
2473.089	0.796	1	incongruent	Block3	incongruent/STIM_006.jpg
2476.481	0.581	1	incongruent	Block3	incongruent/STIM_007.jpg
2479.485	0.915	1	incongruent	Block3	incongruent/STIM_007.jpg
2483.997	0.99	1	incongruent	Block3	incongruent/STIM_007.jpg
2488.294	0.689	1	incongruent	Block3	incongruent/STIM_007.jpg
2491.099	0.644	1	incongruent	Block3	incongruent/STIM_007.jpg
2494.367	0.983	1	incongruent	Block3	incongruent/STIM_008.jpg
2498.623	0.586	1	incongruent	Block3	incongruent/STIM_008.jpg
2502.069	1.004	1	incongruent	Block3	incongruent/STIM_008.jpg
2505.231	0.844	1	incongruent	Block3	incongruent/STIM_008.jpg
2508.209	0.994	1	incongruent	Block3	incongruent/STIM_008.jpg
2511.977	0.895	1	incongruent	Block3	incongruent/STIM_009.jpg
2516.47	0.612	0	incongruent	Block3	incongruent/STIM_009.jpg
2519.633	0.721	1	incongruent	Block3	incongruent/STIM_009.jpg
2522.836	0.716	1	incongruent	Block3	incongruent/STIM_009.jpg
2526.174	0.844	1	incongruent	Block3	incongruent/STIM_009.jpg
2529.778	0.583	1	incongruent	Block3	incongruent/STIM_010.jpg
2534.249	0.744	0	incongruent	Block3	incongruent/STIM_010.jpg
2538.98	0.715	1	incongruent	Block3	incongruent/STIM_010.jpg
2543.366	1.02	1	incongruent	Block3	incongruent/STIM_010.jpg
2547.032	0.846	1	incongruent	Block3	incongruent/STIM_010.jpg
2550.615	0.899	1	incongruent	Block3	incongruent/STIM_011.jpg
2554.991	0.588	1	incongruent	Block3	incongruent/STIM_011.jpg
2558.053	0.951	1	incongruent	Block3	incongruent/STIM_011.jpg
2562.405	0.636	1	incongruent	Block3	incongruent/STIM_011.jpg
2565.478	0.874	1	incongruent	Block3	incongruent/STIM_011.jpg
2570.297	0.574	1	incongruent	Block3	incongruent/STIM_012.jpg
2574.602	0.858	1	incongruent	Block3	incongruent/STIM_012.jpg
2577.7	1.08	1	incongruent	Block3	incongruent/STIM_012.jpg
2582.392	1.056	1	incongruent	Block3	incongruent/STIM_012.jpg
2585.835	1.105	1	incongruent	Block3	incongruent/STIM_012.jpg
2589.925	0.765	1	incongruent	Block3	incongruent/STIM_013.jpg
2593.62	1.125	1	incongruent	Block3	incongruent/STIM_013.jpg
2596.891	0.686	1	incongruent	Block3	incongruent/STIM_013.jpg
2601.074	0.682	1	incongruent	Block3	incongruent/STIM_013.jpg
2605.447	1.127	1	incongruent	Block3	incongruent/STIM_013.jpg
2608.636	1.096	1	incongruent	Block3	incongruent/STIM_014.jpg
2611.989	1.148	1	incongruent	Block3	incongruent/STIM_014.jpg
2615.625	0.576	1	incongruent	Block3	incongruent/STIM_014.jpg
2619.705	0.655	1	incongruent	Block3	incongruent/STIM_014.jpg
2623.17	0.705	1	incongruent	Block3	incongruent/STIM_014.jpg
2627.34	0.962	1	incongruent	Block3	incongruent/STIM_015.jpg
2631.794	0.878	1	incongruent	Block3	incongruent/STIM_015.jpg
2635.857	0.624	1	incongruent	Block3	incongruent/STIM_015.jpg
2639.547	0.616	1	incongruent	Block3	incongruent/STIM_015.jpg
2643.055	0.573	1	incongruent	Block3	incongruent/STIM_015.jpg
2646.133	0.599	1	incongruent	Block3	incongruent/STIM_016.jpg
2649.408	0.654	1	incongruent	Block3	incongruent/STIM_016.jpg
2652.752	0.598	1	incongruent	Block3	incongruent/STIM_016.jpg
2655.684	0.673	1	incongruent	Block3	incongruent/STIM_016.jpg
2658.495	0.555	1	incongruent	Block3	incongruent/STIM_016.jpg
2661.762	0.539	1	incongruent	Block3	incongruent/STIM_017.jpg
2664.618	1.072	1	incongruent	Block3	incongruent/STIM_017.jpg
2669.688	0.99	1	incongruent	Block3	incongruent/STIM_017.jpg
2673.978	0.965	1	incongruent	Block3	incongruent/STIM_017.jpg
2677.447	0.968	1	incongruent	Block3	incongruent/STIM_017.jpg
2681.98	0.853	1	incongruent	Block3	incongruent/STIM_018.jpg
2684.922	0.852	1	incongruent	Block3	incongruent/STIM_018.jpg
2688.549	0.768	1	incongruent	Block3	incongruent/STIM_018.jpg
2692.004	0.865	1	incongruent	Block3	incongruent/STIM_018.jpg
2695.965	0.76	1	incongruent	Block3	incongruent/STIM_018.jpg
2698.85	1.033	1	incongruent	Block3	incongruent/STIM_019.jpg
2703.51	0.983	1	incongruent	Block3	incongruent/STIM_019.jpg
2708.066	0.793	1	incongruent	Block3	incongruent/STIM_019.jpg
2712.35	0.657	1	incongruent	Block3	incongruent/STIM_019.jpg
2716.555	0.902	1	incongruent	Block3	incongruent/STIM_019.jpg
2720.155	0.857	1	incongruent	Block3	incongruent/STIM_020.jpg
2724.218	0.761	1	incongruent	Block3	incongruent/STIM_020.jpg
2728.22	1.056	1	incongruent	Block3	incongruent/STIM_020.jpg
2731.33	0.854	1	incongruent	Block3	incongruent/STIM_020.jpg
2734.421	0.657	1	incongruent	Block3	incongruent/STIM_020.jpg
2738.847	0.71	1	incongruent	Block3	incongruent/STIM_021.jpg
2742.216	0.966	1	incongruent	Block3	incongruent/STIM_021.jpg
2746.669	0.771	1	incongruent	Block3	incongruent/STIM_021.jpg
2750.742	1.083	1	incongruent	Block3	incongruent/STIM_021.jpg
2753.912	0.906	1	incongruent	Block3	incongruent/STIM_021.jpg
2756.975	0.85	1	incongruent	Block3	incongruent/STIM_022.jpg
2761.119	0.7	1	incongruent	Block3	incongruent/STIM_022.jpg
2764.768	0.583	1	incongruent	Block3	incongruent/STIM_022.jpg
2768.146	1.081	1	incongruent	Block3	incongruent/STIM_022.jpg
2772.279	0.973	1	incongruent	Block3	incongruent/STIM_022.jpg
2775.353	0.738	1	incongruent	Block3	incongruent/STIM_023.jpg
2779.665	0.904	1	incongruent	Block3	incongruent/STIM_023.jpg
2782.823	0.903	1	incongruent	Block3	incongruent/STIM_023.jpg
2786.578	1.092	1	incongruent	Block3	incongruent/STIM_023.jpg
2791.134	0.979	1	incongruent	Block3	incongruent/STIM_023.jpg
2794.374	0.895	1	incongruent	Block3	incongruent/STIM_024.jpg
2797.719	0.634	1	incongruent	Block3	incongruent/STIM_024.jpg
2800.367	1.136	1	incongruent	Block3	incongruent/STIM_024.jpg
2804.737	0.575	1	incongruent	Block3	incongruent/STIM_024.jpg
2808.046	0.672	1	incongruent	Block3	incongruent/STIM_024.jpg
2812.084	0.851	1	incongruent	Block3	incongruent/STIM_025.jpg
2815.322	0.851	1	incongruent	Block3	incongruent/STIM_025.jpg
2819.801	0.994	1	incongruent	Block3	incongruent/STIM_025.jpg
2823.176	0.758	1	incongruent	Block3	incongruent/STIM_025.jpg
2826.73	0.657	1	incongruent	Block3	incongruent/STIM_025.jpg
2831.181	0.612	1	incongruent	Block3	incongruent/STIM_026.jpg
2834.257	1.114	1	incongruent	Block3	incongruent/STIM_026.jpg
2837.622	0.87	1	incongruent	Block3	incongruent/STIM_026.jpg
2841.094	1.111	1	incongruent	Block3	incongruent/STIM_026.jpg
2845.702	1.027	1	incongruent	Block3	incongruent/STIM_026.jpg
2850.618	0.779	1	incongruent	Block3	incongruent/STIM_027.jpg
2854.579	1.078	1	incongruent	Block3	incongruent/STIM_027.jpg
2858.294	0.876	1	incongruent	Block3	incongruent/STIM_027.jpg
2862.969	0.647	1	incongruent	Block3	incongruent/STIM_027.jpg
2866.25	0.562	1	incongruent	Block3	incongruent/STIM_027.jpg
2870.018	0.646	0	incongruent	Block3	incongruent/STIM_028.jpg
2872.912	0.74	1	incongruent	Block3	incongruent/STIM_028.jpg
2876.551	0.753	1	incongruent	Block3	incongruent/STIM_028.jpg
2879.821	0.967	1	incongruent	Block3	incongruent/STIM_028.jpg
2883.887	0.584	1	incongruent	Block3	incongruent/STIM_028.jpg
2887.37	0.587	1	incongruent	Block3	incongruent/STIM_029.jpg
2891.324	0.59	1	incongruent	Block3	incongruent/STIM_029.jpg
2895.463	0.841	1	incongruent	Block3	incongruent/STIM_029.jpg
2899.842	0.78	1	incongruent	Block3	incongruent/STIM_029.jpg
2904.256	0.905	1	incongruent	Block3	incongruent/STIM_029.jpg
2907.41	0.81	1	congruent	Block3	congruent/STIM_000.jpg
2910.466	0.61	1	congruent	Block3	congruent/STIM_000.jpg
2914.605	0.899	1	congruent	Block3	congruent/STIM_000.jpg
2918.452	0.842	1	congruent	Block3	congruent/STIM_000.jpg
2922.684	0.625	1	congruent	Block3	congruent/STIM_000.jpg
2926.592	0.957	1	congruent	Block3	congruent/STIM_001.jpg
2929.671	0.914	1	congruent	Block3	congruent/STIM_001.jpg
2934.567	0.739	1	congruent	Block3	congruent/STIM_001.jpg
2939.24	0.572	1	congruent	Block3	congruent/STIM_001.jpg
2941.985	0.819	0	congruent	Block3	congruent/STIM_001.jpg
2945.138	0.915	1	congruent	Block3	congruent/STIM_002.jpg
2948.227	0.96	1	congruent	Block3	congruent/STIM_002.jpg
2952.341	0.969	1	congruent	Block3	congruent/STIM_002.jpg
2955.504	0.578	1	congruent	Block3	congruent/STIM_002.jpg
2959.802	0.856	1	congruent	Block3	congruent/STIM_002.jpg
2963.706	0.824	1	congruent	Block3	congruent/STIM_003.jpg
2967.02	0.899	1	congruent	Block3	congruent/STIM_003.jpg
2970.913	0.898	1	congruent	Block3	congruent/STIM_003.jpg
2975.704	0.56	1	congruent	Block3	congruent/STIM_003.jpg
2979.685	0.802	1	congruent	Block3	congruent/STIM_003.jpg
2983.072	0.799	1	congruent	Block3	congruent/STIM_004.jpg
2986.418	0.716	1	congruent	Block3	congruent/STIM_004.jpg
2990.044	0.841	1	congruent	Block3	congruent/STIM_004.jpg
2992.948	0.784	1	congruent	Block3	congruent/STIM_004.jpg
2997.101	0.7	1	congruent	Block3	congruent/STIM_004.jpg
3001.307	0.859	1	congruent	Block3	congruent/STIM_005.jpg
3004.564	0.842	1	congruent	Block3	congruent/STIM_005.jpg
3008.878	0.894	1	congruent	Block3	congruent/STIM_005.jpg
3012.573	0.862	1	congruent	Block3	congruent/STIM_005.jpg
3016.243	0.963	1	congruent	Block3	congruent/STIM_005.jpg
3020.629	0.726	1	congruent	Block3	congruent/STIM_006.jpg
3023.957	0.827	1	congruent	Block3	congruent/STIM_006.jpg
3027.737	0.678	1	congruent	Block3	congruent/STIM_006.jpg
3032.034	0.579	1	congruent	Block3	congruent/STIM_006.jpg
3034.766	0.639	1	congruent	Block3	congruent/STIM_006.jpg
3037.925	0.835	1	congruent	Block3	congruent/STIM_007.jpg
3042.691	0.754	1	congruent	Block3	congruent/STIM_007.jpg
3046.159	0.821	1	congruent	Block3	congruent/STIM_007.jpg
3049.736	0.921	1	congruent	Block3	congruent/STIM_007.jpg
3052.999	0.58	0	congruent	Block3	congruent/STIM_007.jpg
3056.332	0.974	1	congruent	Block3	congruent/STIM_008.jpg
3059.832	0.864	1	congruent	Block3	congruent/STIM_008.jpg
3063.021	0.588	1	congruent	Block3	congruent/STIM_008.jpg
3066.866	0.962	1	congruent	Block3	congruent/STIM_008.jpg
3071.441	0.668	1	congruent	Block3	congruent/STIM_008.jpg
3075.407	0.976	1	congruent	Block3	congruent/STIM_009.jpg
3079.948	0.642	1	congruent	Block3	congruent/STIM_009.jpg
3083.086	0.662	1	congruent	Block3	congruent/STIM_009.jpg
3086.337	0.814	1	congruent	Block3	congruent/STIM_009.jpg
3089.766	0.68	1	congruent	Block3	congruent/STIM_009.jpg
3092.747	0.606	1	congruent	Block3	congruent/STIM_010.jpg
3096.052	0.709	1	congruent	Block3	congruent/STIM_010.jpg
3099.847	0.803	1	congruent	Block3	congruent/STIM_010.jpg
3102.672	0.678	1	congruent	Block3	congruent/STIM_010.jpg
3107.087	0.784	1	congruent	Block3	congruent/STIM_010.jpg
3111.504	0.778	1	congruent	Block3	congruent/STIM_011.jpg
3115.825	0.807	1	congruent	Block3	congruent/STIM_011.jpg
3119.999	0.794	0	congruent	Block3	congruent/STIM_011.jpg
3123.477	0.96	1	congruent	Block3	congruent/STIM_011.jpg
3127.534	0.938	1	congruent	Block3	congruent/STIM_011.jpg
3130.601	0.93	1	congruent	Block3	congruent/STIM_012.jpg
3134.09	0.7	1	congruent	Block3	congruent/STIM_012.jpg
3137.909	0.923	1	congruent	Block3	congruent/STIM_012.jpg
3142.296	0.596	1	congruent	Block3	congruent/STIM_012.jpg
3146.355	0.73	1	congruent	Block3	congruent/STIM_012.jpg
3150.476	0.928	1	congruent	Block3	congruent/STIM_013.jpg
3153.679	0.927	1	congruent	Block3	congruent/STIM_013.jpg
3157.853	0.562	1	congruent	Block3	congruent/STIM_013.jpg
3160.622	0.708	1	congruent	Block3	congruent/STIM_013.jpg
3163.605	0.615	1	congruent	Block3	congruent/STIM_013.jpg
3167.504	0.714	1	congruent	Block3	congruent/STIM_014.jpg
3171.822	0.656	1	congruent	Block3	congruent/STIM_014.jpg
3174.871	0.794	0	congruent	Block3	congruent/STIM_014.jpg
3177.949	0.665	1	congruent	Block3	congruent/STIM_014.jpg
3181.61	0.979	1	congruent	Block3	congruent/STIM_014.jpg
3185.228	0.736	1	congruent	Block3	congruent/STIM_015.jpg
3188.855	0.731	1	congruent	Block3	congruent/STIM_015.jpg
3192.064	0.855	1	congruent	Block3	congruent/STIM_015.jpg
3195.011	0.662	1	congruent	Block3	congruent/STIM_015.jpg
3198.107	0.615	1	congruent	Block3	congruent/STIM_015.jpg
3201.474	0.647	1	congruent	Block3	congruent/STIM_016.jpg
3204.775	0.787	1	congruent	Block3	congruent/STIM_016.jpg
3208.049	0.632	1	congruent	Block3	congruent/STIM_016.jpg
3211.944	0.552	1	congruent	Block3	congruent/STIM_016.jpg
3215.626	0.949	1	congruent	Block3	congruent/STIM_016.jpg
3219.22	0.805	0	congruent	Block3	congruent/STIM_017.jpg
3223.589	0.947	0	congruent	Block3	congruent/STIM_017.jpg
3226.764	0.593	1	congruent	Block3	congruent/STIM_017.jpg
3229.737	0.646	0	congruent	Block3	congruent/STIM_017.jpg
3232.858	0.796	1	congruent	Block3	congruent/STIM_017.jpg
3236.779	0.937	1	congruent	Block3	congruent/STIM_018.jpg
3239.982	0.757	1	congruent	Block3	congruent/STIM_018.jpg
3243.858	0.588	1	congruent	Block3	congruent/STIM_018.jpg
3247.57	0.914	1	congruent	Block3	congruent/STIM_018.jpg
3250.935	0.654	1	congruent	Block3	congruent/STIM_018.jpg
3255.505	0.914	1	congruent	Block3	congruent/STIM_019.jpg
3259.741	0.9	1	congruent	Block3	congruent/STIM_019.jpg
3264.423	0.814	1	congruent	Block3	congruent/STIM_019.jpg
3268.221	0.787	1	congruent	Block3	congruent/STIM_019.jpg
3272.942	0.892	1	congruent	Block3	congruent/STIM_019.jpg
3277.112	0.792	1	congruent	Block3	congruent/STIM_020.jpg
3281.068	0.942	1	congruent	Block3	congruent/STIM_020.jpg
3284.186	0.946	1	congruent	Block3	congruent/STIM_020.jpg
3288.687	0.686	1	congruent	Block3	congruent/STIM_020.jpg
3292.635	0.965	1	congruent	Block3	congruent/STIM_020.jpg
3297.313	0.88	1	congruent	Block3	congruent/STIM_021.jpg
3300.612	0.773	1	congruent	Block3	congruent/STIM_021.jpg
3304.4	0.896	1	congruent	Block3	congruent/STIM_021.jpg
3309.163	0.902	1	congruent	Block3	congruent/STIM_021.jpg
3313.518	0.55	1	congruent	Block3	congruent/STIM_021.jpg
3316.714	0.737	1	congruent	Block3	congruent/STIM_022.jpg
3320.412	0.727	1	congruent	Block3	congruent/STIM_022.jpg
3323.534	0.95	1	congruent	Block3	congruent/STIM_022.jpg
3327.834	0.803	1	congruent	Block3	congruent/STIM_022.jpg
3331.351	0.895	0	congruent	Block3	congruent/STIM_022.jpg
3334.891	0.717	1	congruent	Block3	congruent/STIM_023.jpg
3338.334	0.734	0	congruent	Block3	congruent/STIM_023.jpg
3342.096	0.572	1	congruent	Block3	congruent/STIM_023.jpg
3345.806	0.662	1	congruent	Block3	congruent/STIM_023.jpg
3349.195	0.552	1	congruent	Block3	congruent/STIM_023.jpg
3352.618	0.585	1	congruent	Block3	congruent/STIM_024.jpg
3356.744	0.865	1	congruent	Block3	congruent/STIM_024.jpg
3360.253	0.739	1	congruent	Block3	congruent/STIM_024.jpg
3363.467	0.696	1	congruent	Block3	congruent/STIM_024.jpg
3367.866	0.932	1	congruent	Block3	congruent/STIM_024.jpg
3371.441	0.939	1	congruent	Block3	congruent/STIM_025.jpg
3376.248	0.591	1	congruent	Block3	congruent/STIM_025.jpg
3379.664	0.77	1	congruent	Block3	congruent/STIM_025.jpg
3384.118	0.716	1	congruent	Block3	congruent/STIM_025.jpg
3388.708	0.868	1	congruent	Block3	congruent/STIM_025.jpg
3393.132	0.788	1	congruent	Block3	congruent/STIM_026.jpg
3397.212	0.864	0	congruent	Block3	congruent/STIM_026.jpg
3401.012	0.681	1	congruent	Block3	congruent/STIM_026.jpg
3404.217	0.947	1	congruent	Block3	congruent/STIM_026.jpg
3408.904	0.98	0	congruent	Block3	congruent/STIM_026.jpg
3413.032	0.814	1	congruent	Block3	congruent/STIM_027.jpg
3416.818	0.604	1	congruent	Block3	congruent/STIM_027.jpg
3420.729	0.733	1	congruent	Block3	congruent/STIM_027.jpg
3424.798	0.828	1	congruent	Block3	congruent/STIM_027.jpg
3427.714	0.602	1	congruent	Block3	congruent/STIM_027.jpg
3430.489	0.614	1	congruent	Block3	congruent/STIM_028.jpg
3433.861	0.682	1	congruent	Block3	congruent/STIM_028.jpg
3437.081	0.745	1	congruent	Block3	congruent/STIM_028.jpg
3440.961	0.904	1	congruent	Block3	congruent/STIM_028.jpg
3445.201	0.936	1	congruent	Block3	congruent/STIM_028.jpg
3450.113	0.567	1	congruent	Block3	congruent/STIM_029.jpg
3453.03	0.596	0	congruent	Block3	congruent/STIM_029.jpg
3456.943	0.616	1	congruent	Block3	congruent/STIM_029.jpg
3460.796	0.691	1	congruent	Block3	congruent/STIM_029.jpg
3465.314	0.764	1	congruent	Block3	congruent/STIM_029.jpg
