onset	duration	response_time_ms	trial_type	learning_stage	stimulus	response_port
0.0	1.454	1454.5	incongruent	Block1	incongruent/STIM_000.jpg	99
4.702	1.239	1238.7	incongruent	Block1	incongruent/STIM_000.jpg	100
8.799	1.184	1184.5	incongruent	Block1	incongruent/STIM_000.jpg	99
13.683	1.276	1276.4	incongruent	Block1	incongruent/STIM_000.jpg	100
18.109	1.072	1071.8	incongruent	Block1	incongruent/STIM_000.jpg	99
22.582	1.392	1391.6	incongruent	Block1	incongruent/STIM_001.jpg	99
26.656	0.812	811.5	incongruent	Block1	incongruent/STIM_001.jpg	99
30.334	0.618	617.7	incongruent	Block1	incongruent/STIM_001.jpg	100
33.135	0.527	526.8	incongruent	Block1	incongruent/STIM_001.jpg	100
37.615	0.761	760.6	incongruent	Block1	incongruent/STIM_001.jpg	99
41.557	1.078	1077.9	incongruent	Block1	incongruent/STIM_002.jpg	99
45.271	0.832	831.9	incongruent	Block1	incongruent/STIM_002.jpg	99
49.652	1.158	1158.4	incongruent	Block1	incongruent/STIM_002.jpg	99
53.633	1.061	1061.1	incongruent	Block1	incongruent/STIM_002.jpg	100
57.906	0.772	772.2	incongruent	Block1	incongruent/STIM_002.jpg	100
61.64	0.924	923.9	incongruent	Block1	incongruent/STIM_003.jpg	99
66.164	1.085	1085.1	incongruent	Block1	incongruent/STIM_003.jpg	100
69.671	0.948	948.4	incongruent	Block1	incongruent/STIM_003.jpg	100
73.47	1.218	1218.4	incongruent	Block1	incongruent/STIM_003.jpg	100
77.327	1.037	1036.7	incongruent	Block1	incongruent/STIM_003.jpg	100
81.436	0.994	994.5	incongruent	Block1	incongruent/STIM_004.jpg	100
84.762	0.918	918.1	incongruent	Block1	incongruent/STIM_004.jpg	99
87.911	0.892	891.7	incongruent	Block1	incongruent/STIM_004.jpg	100
92.711	0.559	559.2	incongruent	Block1	incongruent/STIM_004.jpg	100
95.867	1.106	1106.2	incongruent	Block1	incongruent/STIM_004.jpg	100
99.201	0.639	639.1	incongruent	Block1	incongruent/STIM_005.jpg	100
103.034	0.858	857.7	incongruent	Block1	incongruent/STIM_005.jpg	100
106.062	0.837	837.2	incongruent	Block1	incongruent/STIM_005.jpg	100
110.979	0.858	857.8	incongruent	Block1	incongruent/STIM_005.jpg	100
115.274	1.159	1159.1	incongruent	Block1	incongruent/STIM_005.jpg	100
119.021	0.869	869.1	incongruent	Block1	incongruent/STIM_006.jpg	99
123.08	1.287	1286.6	incongruent	Block1	incongruent/STIM_006.jpg	100
127.228	1.086	1086.5	incongruent	Block1	incongruent/STIM_006.jpg	100
130.777	1.218	1217.9	incongruent	Block1	incongruent/STIM_006.jpg	99
134.542	0.891	891.4	incongruent	Block1	incongruent/STIM_006.jpg	99
138.777	1.437	1437.0	incongruent	Block1	incongruent/STIM_007.jpg	100
142.978	1.323	1323.0	incongruent	Block1	incongruent/STIM_007.jpg	100
146.911	0.872	871.7	incongruent	Block1	incongruent/STIM_007.jpg	100
151.731	1.104	1104.2	incongruent	Block1	incongruent/STIM_007.jpg	99
156.293	0.948	948.2	incongruent	Block1	incongruent/STIM_007.jpg	99
161.131	1.265	1264.9	incongruent	Block1	incongruent/STIM_008.jpg	99
165.915	1.226	1226.1	incongruent	Block1	incongruent/STIM_008.jpg	100
169.448	1.1	1099.9	incongruent	Block1	incongruent/STIM_008.jpg	99
174.598	1.108	1107.6	incongruent	Block1	incongruent/STIM_008.jpg	99
178.97	0.708	707.6	incongruent	Block1	incongruent/STIM_008.jpg	99
181.723	0.953	952.9	incongruent	Block1	incongruent/STIM_009.jpg	99
184.781	0.995	994.7	incongruent	Block1	incongruent/STIM_009.jpg	99
189.804	0.863	862.8	incongruent	Block1	incongruent/STIM_009.jpg	100
194.152	0.695	694.8	incongruent	Block1	incongruent/STIM_009.jpg	100
197.545	1.052	1051.7	incongruent	Block1	incongruent/STIM_009.jpg	99
200.995	1.008	1007.9	incongruent	Block1	incongruent/STIM_010.jpg	100
204.385	1.224	1224.0	incongruent	Block1	incongruent/STIM_010.jpg	100
208.317	1.078	1077.8	incongruent	Block1	incongruent/STIM_010.jpg	99
212.866	0.592	591.7	incongruent	Block1	incongruent/STIM_010.jpg	100
217.213	0.61	609.9	incongruent	Block1	incongruent/STIM_010.jpg	100
221.655	0.898	897.7	incongruent	Block1	incongruent/STIM_011.jpg	99
225.917	1.323	1323.3	incongruent	Block1	incongruent/STIM_011.jpg	100
230.311	1.285	1285.0	incongruent	Block1	incongruent/STIM_011.jpg	100
233.696	0.81	810.3	incongruent	Block1	incongruent/STIM_011.jpg	99
238.418	0.807	806.7	incongruent	Block1	incongruent/STIM_011.jpg	99
243.303	1.294	1294.2	incongruent	Block1	incongruent/STIM_012.jpg	100
247.717	0.801	801.4	incongruent	Block1	incongruent/STIM_012.jpg	100
251.695	1.24	1239.5	incongruent	Block1	incongruent/STIM_012.jpg	99
255.526	0.876	875.5	incongruent	Block1	incongruent/STIM_012.jpg	100
258.518	1.044	1044.3	incongruent	Block1	incongruent/STIM_012.jpg	99
262.566	1.228	1228.4	incongruent	Block1	incongruent/STIM_013.jpg	100
267.05	0.872	872.4	incongruent	Block1	incongruent/STIM_013.jpg	100
271.591	0.849	848.7	incongruent	Block1	incongruent/STIM_013.jpg	100
275.727	0.682	681.9	incongruent	Block1	incongruent/STIM_013.jpg	100
278.567	0.67	669.5	incongruent	Block1	incongruent/STIM_013.jpg	99
281.407	0.839	838.8	incongruent	Block1	incongruent/STIM_014.jpg	100
285.323	0.656	655.6	incongruent	Block1	incongruent/STIM_014.jpg	99
288.83	0.588	587.6	incongruent	Block1	incongruent/STIM_014.jpg	99
291.896	1.084	1083.7	incongruent	Block1	incongruent/STIM_014.jpg	100
295.902	0.546	546.3	incongruent	Block1	incongruent/STIM_014.jpg	100
299.508	1.141	1141.4	incongruent	Block1	incongruent/STIM_015.jpg	99
303.3	0.63	630.2	incongruent	Block1	incongruent/STIM_015.jpg	99
306.319	1.158	1158.0	incongruent	Block1	incongruent/STIM_015.jpg	100
310.105	0.664	664.2	incongruent	Block1	incongruent/STIM_015.jpg	100
314.743	0.861	861.3	incongruent	Block1	incongruent/STIM_015.jpg	100
318.549	1.354	1353.6	incongruent	Block1	incongruent/STIM_016.jpg	100
322.336	0.902	901.7	incongruent	Block1	incongruent/STIM_016.jpg	99
326.412	1.201	1200.7	incongruent	Block1	incongruent/STIM_016.jpg	99
329.693	0.724	724.1	incongruent	Block1	incongruent/STIM_016.jpg	100
333.111	0.724	724.1	incongruent	Block1	incongruent/STIM_016.jpg	100
336.393	1.28	1279.5	incongruent	Block1	incongruent/STIM_017.jpg	99
340.776	0.828	828.3	incongruent	Block1	incongruent/STIM_017.jpg	99
344.536	0.657	656.9	incongruent	Block1	incongruent/STIM_017.jpg	99
348.935	1.176	1176.1	incongruent	Block1	incongruent/STIM_017.jpg	100
353.455	0.944	944.0	incongruent	Block1	incongruent/STIM_017.jpg	100
357.405	0.865	865.0	incongruent	Block1	incongruent/STIM_018.jpg	99
360.777	1.152	1151.9	incongruent	Block1	incongruent/STIM_018.jpg	100
364.88	0.75	749.7	incongruent	Block1	incongruent/STIM_018.jpg	100
369.348	0.679	679.0	incongruent	Block1	incongruent/STIM_018.jpg	99
373.312	0.694	694.4	incongruent	Block1	incongruent/STIM_018.jpg	99
378.059	1.041	1041.0	incongruent	Block1	incongruent/STIM_019.jpg	100
382.973	1.368	1368.5	incongruent	Block1	incongruent/STIM_019.jpg	100
386.756	1.016	1015.6	incongruent	Block1	incongruent/STIM_019.jpg	100
389.88	0.943	942.7	incongruent	Block1	incongruent/STIM_019.jpg	100
394.472	0.808	808.0	incongruent	Block1	incongruent/STIM_019.jpg	100
398.235	0.69	689.5	incongruent	Block1	incongruent/STIM_020.jpg	100
401.079	1.128	1127.6	incongruent	Block1	incongruent/STIM_020.jpg	100
405.044	1.335	1335.3	incongruent	Block1	incongruent/STIM_020.jpg	99
409.184	0.874	873.8	incongruent	Block1	incongruent/STIM_020.jpg	100
413.414	0.738	738.0	incongruent	Block1	incongruent/STIM_020.jpg	100
417.075	1.389	1388.9	incongruent	Block1	incongruent/STIM_021.jpg	100
422.195	0.779	779.1	incongruent	Block1	incongruent/STIM_021.jpg	100
426.237	0.95	950.4	incongruent	Block1	incongruent/STIM_021.jpg	100
431.024	0.741	740.8	incongruent	Block1	incongruent/STIM_021.jpg	99
433.843	1.114	1113.6	incongruent	Block1	incongruent/STIM_021.jpg	100
437.274	0.73	730.4	incongruent	Block1	incongruent/STIM_022.jpg	99
440.333	1.082	1082.1	incongruent	Block1	incongruent/STIM_022.jpg	99
445.352	0.75	750.5	incongruent	Block1	incongruent/STIM_022.jpg	99
448.272	1.144	1144.5	incongruent	Block1	incongruent/STIM_022.jpg	99
451.488	0.926	926.3	incongruent	Block1	incongruent/STIM_022.jpg	99
455.264	1.37	1370.5	incongruent	Block1	incongruent/STIM_023.jpg	99
460.016	0.925	924.8	incongruent	Block1	incongruent/STIM_023.jpg	99
463.408	0.523	523.1	incongruent	Block1	incongruent/STIM_023.jpg	99
467.024	1.09	1090.1	incongruent	Block1	incongruent/STIM_023.jpg	99
472.018	0.604	603.8	incongruent	Block1	incongruent/STIM_023.jpg	100
476.36	1.367	1366.8	incongruent	Block1	incongruent/STIM_024.jpg	100
480.899	0.732	731.6	incongruent	Block1	incongruent/STIM_024.jpg	99
484.331	0.661	660.7	incongruent	Block1	incongruent/STIM_024.jpg	99
488.506	0.808	808.2	incongruent	Block1	incongruent/STIM_024.jpg	100
492.525	0.726	725.8	incongruent	Block1	incongruent/STIM_024.jpg	100
496.071	1.34	1339.8	incongruent	Block1	incongruent/STIM_025.jpg	100
500.757	0.76	759.7	incongruent	Block1	incongruent/STIM_025.jpg	100
504.069	1.205	1204.6	incongruent	Block1	incongruent/STIM_025.jpg	100
508.995	0.704	704.5	incongruent	Block1	incongruent/STIM_025.jpg	99
512.626	0.724	724.0	incongruent	Block1	incongruent/STIM_025.jpg	100
517.188	0.836	836.5	incongruent	Block1	incongruent/STIM_026.jpg	99
521.52	0.784	783.5	incongruent	Block1	incongruent/STIM_026.jpg	100
524.897	1.002	1002.4	incongruent	Block1	incongruent/STIM_026.jpg	99
529.411	0.992	992.5	incongruent	Block1	incongruent/STIM_026.jpg	100
532.706	0.624	623.5	incongruent	Block1	incongruent/STIM_026.jpg	99
536.735	1.035	1034.6	incongruent	Block1	incongruent/STIM_027.jpg	99
540.63	0.958	958.4	incongruent	Block1	incongruent/STIM_027.jpg	100
544.195	0.655	654.6	incongruent	Block1	incongruent/STIM_027.jpg	100
547.574	1.105	1105.3	incongruent	Block1	incongruent/STIM_027.jpg	100
552.532	0.797	797.4	incongruent	Block1	incongruent/STIM_027.jpg	99
555.945	0.971	971.3	incongruent	Block1	incongruent/STIM_028.jpg	100
559.612	0.766	766.5	incongruent	Block1	incongruent/STIM_028.jpg	99
563.681	0.633	633.2	incongruent	Block1	incongruent/STIM_028.jpg	100
567.237	1.146	1145.9	incongruent	Block1	incongruent/STIM_028.jpg	99
571.713	0.99	989.8	incongruent	Block1	incongruent/STIM_028.jpg	100
574.763	0.962	961.5	incongruent	Block1	incongruent/STIM_029.jpg	100
577.844	0.947	946.9	incongruent	Block1	incongruent/STIM_029.jpg	99
581.849	1.071	1070.9	incongruent	Block1	incongruent/STIM_029.jpg	100
586.443	1.135	1134.6	incongruent	Block1	incongruent/STIM_029.jpg	99
591.312	0.941	940.9	incongruent	Block1	incongruent/STIM_029.jpg	99
594.819	0.555	555.3	congruent	Block1	congruent/STIM_000.jpg	99
598.308	0.481	480.7	congruent	Block1	congruent/STIM_000.jpg	100
601.647	0.986	986.4	congruent	Block1	congruent/STIM_000.jpg	99
605.428	0.724	724.1	congruent	Block1	congruent/STIM_000.jpg	100
609.839	0.451	450.7	congruent	Block1	congruent/STIM_000.jpg	100
612.938	0.64	640.5	congruent	Block1	congruent/STIM_001.jpg	100
617.526	0.449	448.8	congruent	Block1	congruent/STIM_001.jpg	100
622.054	0.64	639.7	congruent	Block1	congruent/STIM_001.jpg	99
624.781	0.692	691.5	congruent	Block1	congruent/STIM_001.jpg	100
628.415	0.649	648.9	congruent	Block1	congruent/STIM_001.jpg	100
632.592	0.622	622.4	congruent	Block1	congruent/STIM_002.jpg	99
636.457	0.669	668.9	congruent	Block1	congruent/STIM_002.jpg	99
639.475	0.681	680.6	congruent	Block1	congruent/STIM_002.jpg	100
642.926	0.699	699.2	congruent	Block1	congruent/STIM_002.jpg	99
646.154	0.657	657.3	congruent	Block1	congruent/STIM_002.jpg	99
650.412	0.541	540.8	congruent	Block1	congruent/STIM_003.jpg	100
654.515	0.68	680.5	congruent	Block1	congruent/STIM_003.jpg	100
658.34	0.65	650.4	congruent	Block1	congruent/STIM_003.jpg	100
662.255	0.588	587.8	congruent	Block1	congruent/STIM_003.jpg	100
666.518	0.784	783.8	congruent	Block1	congruent/STIM_003.jpg	100
669.454	0.75	750.5	congruent	Block1	congruent/STIM_004.jpg	100
672.572	0.861	861.4	congruent	Block1	congruent/STIM_004.jpg	99
675.561	0.684	683.6	congruent	Block1	congruent/STIM_004.jpg	99
679.391	0.599	599.2	congruent	Block1	congruent/STIM_004.jpg	100
683.18	0.8	799.7	congruent	Block1	congruent/STIM_004.jpg	99
686.715	0.56	559.5	congruent	Block1	congruent/STIM_005.jpg	99
691.11	0.645	644.7	congruent	Block1	congruent/STIM_005.jpg	99
694.093	0.684	684.3	congruent	Block1	congruent/STIM_005.jpg	99
698.578	0.635	635.4	congruent	Block1	congruent/STIM_005.jpg	99
702.516	0.842	841.8	congruent	Block1	congruent/STIM_005.jpg	100
706.044	0.506	505.9	congruent	Block1	congruent/STIM_006.jpg	99
709.58	0.767	766.9	congruent	Block1	congruent/STIM_006.jpg	99
713.248	0.441	440.7	congruent	Block1	congruent/STIM_006.jpg	100
716.431	0.7	700.1	congruent	Block1	congruent/STIM_006.jpg	99
720.134	0.715	714.9	congruent	Block1	congruent/STIM_006.jpg	99
723.567	0.593	592.6	congruent	Block1	congruent/STIM_007.jpg	99
727.243	0.563	562.6	congruent	Block1	congruent/STIM_007.jpg	100
731.55	0.901	900.6	congruent	Block1	congruent/STIM_007.jpg	100
736.179	0.582	582.3	congruent	Block1	congruent/STIM_007.jpg	100
739.998	0.758	757.8	congruent	Block1	congruent/STIM_007.jpg	100
743.482	0.672	671.6	congruent	Block1	congruent/STIM_008.jpg	99
747.234	0.773	772.8	congruent	Block1	congruent/STIM_008.jpg	99
750.67	0.549	549.3	congruent	Block1	congruent/STIM_008.jpg	100
754.64	0.455	454.6	congruent	Block1	congruent/STIM_008.jpg	99
759.109	0.737	737.4	congruent	Block1	congruent/STIM_008.jpg	100
763.071	0.486	485.5	congruent	Block1	congruent/STIM_009.jpg	100
767.358	0.914	914.3	congruent	Block1	congruent/STIM_009.jpg	100
770.704	0.529	529.0	congruent	Block1	congruent/STIM_009.jpg	99
773.593	0.958	958.2	congruent	Block1	congruent/STIM_009.jpg	100
777.567	0.629	629.1	congruent	Block1	congruent/STIM_009.jpg	99
781.435	0.4	400.2	congruent	Block1	congruent/STIM_010.jpg	99
785.665	0.554	554.3	congruent	Block1	congruent/STIM_010.jpg	99
789.831	0.508	508.2	congruent	Block1	congruent/STIM_010.jpg	99
792.704	0.648	648.3	congruent	Block1	congruent/STIM_010.jpg	99
796.372	0.61	609.5	congruent	Block1	congruent/STIM_010.jpg	100
799.957	0.731	731.0	congruent	Block1	congruent/STIM_011.jpg	99
802.807	0.61	609.9	congruent	Block1	congruent/STIM_011.jpg	99
807.29	0.764	764.1	congruent	Block1	congruent/STIM_011.jpg	99
811.357	0.797	796.7	congruent	Block1	congruent/STIM_011.jpg	100
815.803	0.434	433.6	congruent	Block1	congruent/STIM_011.jpg	99
819.048	0.601	601.1	congruent	Block1	congruent/STIM_012.jpg	99
823.354	0.76	760.5	congruent	Block1	congruent/STIM_012.jpg	99
827.707	0.717	716.7	congruent	Block1	congruent/STIM_012.jpg	99
831.891	0.774	773.5	congruent	Block1	congruent/STIM_012.jpg	99
834.961	0.54	540.0	congruent	Block1	congruent/STIM_012.jpg	99
839.176	0.757	757.1	congruent	Block1	congruent/STIM_013.jpg	99
843.216	0.545	544.8	congruent	Block1	congruent/STIM_013.jpg	100
846.643	0.829	828.6	congruent	Block1	congruent/STIM_013.jpg	100
851.048	0.458	457.7	congruent	Block1	congruent/STIM_013.jpg	99
855.333	0.65	650.5	congruent	Block1	congruent/STIM_013.jpg	99
859.607	0.858	857.6	congruent	Block1	congruent/STIM_014.jpg	100
862.777	0.877	877.2	congruent	Block1	congruent/STIM_014.jpg	100
866.574	0.616	615.7	congruent	Block1	congruent/STIM_014.jpg	99
869.35	0.572	571.8	congruent	Block1	congruent/STIM_014.jpg	99
872.599	0.787	787.1	congruent	Block1	congruent/STIM_014.jpg	100
875.988	0.747	746.9	congruent	Block1	congruent/STIM_015.jpg	99
879.779	0.587	586.6	congruent	Block1	congruent/STIM_015.jpg	100
883.304	0.718	717.9	congruent	Block1	congruent/STIM_015.jpg	99
886.332	0.775	774.7	congruent	Block1	congruent/STIM_015.jpg	99
889.898	0.477	477.2	congruent	Block1	congruent/STIM_015.jpg	99
894.051	0.54	540.2	congruent	Block1	congruent/STIM_016.jpg	99
896.792	0.792	791.6	congruent	Block1	congruent/STIM_016.jpg	100
901.135	0.798	797.8	congruent	Block1	congruent/STIM_016.jpg	100
905.207	0.457	456.8	congruent	Block1	congruent/STIM_016.jpg	100
908.394	0.872	872.2	congruent	Block1	congruent/STIM_016.jpg	100
911.795	0.445	444.7	congruent	Block1	congruent/STIM_017.jpg	100
915.497	0.644	643.8	congruent	Block1	congruent/STIM_017.jpg	99
918.756	0.555	555.4	congruent	Block1	congruent/STIM_017.jpg	99
923.15	0.679	679.3	congruent	Block1	congruent/STIM_017.jpg	100
926.985	0.742	741.8	congruent	Block1	congruent/STIM_017.jpg	99
931.519	0.807	806.6	congruent	Block1	congruent/STIM_018.jpg	100
934.907	0.481	481.4	congruent	Block1	congruent/STIM_018.jpg	99
938.317	0.535	534.8	congruent	Block1	congruent/STIM_018.jpg	99
942.728	0.53	529.5	congruent	Block1	congruent/STIM_018.jpg	99
946.909	0.79	790.0	congruent	Block1	congruent/STIM_018.jpg	99
951.249	0.57	570.0	congruent	Block1	congruent/STIM_019.jpg	100
955.694	0.698	697.8	congruent	Block1	congruent/STIM_019.jpg	99
958.807	0.817	816.6	congruent	Block1	congruent/STIM_019.jpg	100
961.516	0.832	831.5	congruent	Block1	congruent/STIM_019.jpg	100
965.632	0.771	771.3	congruent	Block1	congruent/STIM_019.jpg	100
968.642	0.899	899.3	congruent	Block1	congruent/STIM_020.jpg	99
972.25	0.732	732.5	congruent	Block1	congruent/STIM_020.jpg	99
975.755	0.81	809.9	congruent	Block1	congruent/STIM_020.jpg	100
980.417	0.92	920.1	congruent	Block1	congruent/STIM_020.jpg	100
984.479	0.565	564.7	congruent	Block1	congruent/STIM_020.jpg	100
988.586	0.571	571.0	congruent	Block1	congruent/STIM_021.jpg	99
992.136	0.677	677.3	congruent	Block1	congruent/STIM_021.jpg	100
994.947	0.849	848.7	congruent	Block1	congruent/STIM_021.jpg	99
998.95	0.592	591.8	congruent	Block1	congruent/STIM_021.jpg	99
1002.367	0.663	662.9	congruent	Block1	congruent/STIM_021.jpg	100
1006.634	0.497	497.2	congruent	Block1	congruent/STIM_022.jpg	99
1010.712	0.677	677.4	congruent	Block1	congruent/STIM_022.jpg	100
1015.143	0.79	789.6	congruent	Block1	congruent/STIM_022.jpg	100
1018.467	0.572	572.0	congruent	Block1	congruent/STIM_022.jpg	99
1023.021	0.489	489.4	congruent	Block1	congruent/STIM_022.jpg	100
1027.07	0.652	652.1	congruent	Block1	congruent/STIM_023.jpg	100
1031.409	0.914	913.6	congruent	Block1	congruent/STIM_023.jpg	100
1034.945	0.76	760.0	congruent	Block1	congruent/STIM_023.jpg	99
1038.912	0.665	664.8	congruent	Block1	congruent/STIM_023.jpg	99
1043.426	0.534	534.2	congruent	Block1	congruent/STIM_023.jpg	100
1046.947	0.49	489.5	congruent	Block1	congruent/STIM_024.jpg	99
1050.339	0.911	910.7	congruent	Block1	congruent/STIM_024.jpg	100
1054.641	0.595	594.9	congruent	Block1	congruent/STIM_024.jpg	99
1057.294	0.7	699.6	congruent	Block1	congruent/STIM_024.jpg	99
1060.173	0.724	723.8	congruent	Block1	congruent/STIM_024.jpg	99
1063.375	0.821	821.4	congruent	Block1	congruent/STIM_025.jpg	99
1068.141	0.845	844.9	congruent	Block1	congruent/STIM_025.jpg	99
1072.594	0.544	543.7	congruent	Block1	congruent/STIM_025.jpg	99
1075.489	0.733	732.6	congruent	Block1	congruent/STIM_025.jpg	99
1079.966	0.576	576.3	congruent	Block1	congruent/STIM_025.jpg	99
1084.502	0.601	600.7	congruent	Block1	congruent/STIM_026.jpg	100
1088.238	0.639	639.0	congruent	Block1	congruent/STIM_026.jpg	99
1091.392	0.867	867.1	congruent	Block1	congruent/STIM_026.jpg	99
1094.349	0.642	641.6	congruent	Block1	congruent/STIM_026.jpg	100
1097.771	0.764	764.2	congruent	Block1	congruent/STIM_026.jpg	99
1100.657	0.76	760.0	congruent	Block1	congruent/STIM_027.jpg	99
1105.079	0.625	624.7	congruent	Block1	congruent/STIM_027.jpg	100
1108.612	0.57	569.5	congruent	Block1	congruent/STIM_027.jpg	99
1112.829	0.56	559.7	congruent	Block1	congruent/STIM_027.jpg	99
1117.171	0.794	793.8	congruent	Block1	congruent/STIM_027.jpg	99
1120.495	0.633	632.8	congruent	Block1	congruent/STIM_028.jpg	99
1123.959	0.557	556.7	congruent	Block1	congruent/STIM_028.jpg	100
1127.531	0.859	859.1	congruent	Block1	congruent/STIM_028.jpg	100
1130.823	0.69	689.9	congruent	Block1	congruent/STIM_028.jpg	100
1134.096	0.781	781.3	congruent	Block1	congruent/STIM_028.jpg	100
1138.132	0.897	897.1	congruent	Block1	congruent/STIM_029.jpg	100
1142.306	0.699	698.9	congruent	Block1	congruent/STIM_029.jpg	100
1145.965	0.695	695.0	congruent	Block1	congruent/STIM_029.jpg	99
1149.698	0.548	548.2	congruent	Block1	congruent/STIM_029.jpg	100
1152.671	0.716	716.4	congruent	Block1	congruent/STIM_029.jpg	99
1155.704	0.762	761.6	incongruent	Block2	incongruent/STIM_000.jpg	99
1159.985	0.981	981.4	incongruent	Block2	incongruent/STIM_000.jpg	100
1164.451	0.96	960.2	incongruent	Block2	incongruent/STIM_000.jpg	99
1169.214	0.497	496.7	incongruent	Block2	incongruent/STIM_000.jpg	99
1172.463	0.502	502.2	incongruent	Block2	incongruent/STIM_000.jpg	99
1176.51	1.192	1191.7	incongruent	Block2	incongruent/STIM_001.jpg	99
1181.223	0.787	787.2	incongruent	Block2	incongruent/STIM_001.jpg	100
1184.491	0.819	818.6	incongruent	Block2	incongruent/STIM_001.jpg	99
1188.999	0.642	641.9	incongruent	Block2	incongruent/STIM_001.jpg	100
1192.75	0.557	556.9	incongruent	Block2	incongruent/STIM_001.jpg	99
1197.34	0.626	625.6	incongruent	Block2	incongruent/STIM_002.jpg	100
1201.968	0.683	682.9	incongruent	Block2	incongruent/STIM_002.jpg	99
1205.543	0.534	534.4	incongruent	Block2	incongruent/STIM_002.jpg	100
1209.126	0.688	687.6	incongruent	Block2	incongruent/STIM_002.jpg	100
1212.921	0.717	717.4	incongruent	Block2	incongruent/STIM_002.jpg	100
1216.081	0.746	746.1	incongruent	Block2	incongruent/STIM_003.jpg	99
1220.833	1.018	1018.0	incongruent	Block2	incongruent/STIM_003.jpg	100
1225.854	0.725	724.8	incongruent	Block2	incongruent/STIM_003.jpg	100
1229.307	0.75	750.3	incongruent	Block2	incongruent/STIM_003.jpg	99
1233.618	0.682	682.3	incongruent	Block2	incongruent/STIM_003.jpg	100
1237.758	0.619	619.0	incongruent	Block2	incongruent/STIM_004.jpg	99
1241.117	0.547	546.8	incongruent	Block2	incongruent/STIM_004.jpg	100
1245.505	0.556	555.6	incongruent	Block2	incongruent/STIM_004.jpg	100
1249.772	0.587	587.2	incongruent	Block2	incongruent/STIM_004.jpg	100
1252.851	0.772	771.8	incongruent	Block2	incongruent/STIM_004.jpg	100
1257.126	0.965	965.2	incongruent	Block2	incongruent/STIM_005.jpg	100
1260.572	0.82	820.4	incongruent	Block2	incongruent/STIM_005.jpg	99
1263.667	0.723	722.6	incongruent	Block2	incongruent/STIM_005.jpg	100
1267.84	0.935	934.9	incongruent	Block2	incongruent/STIM_005.jpg	99
1272.846	0.682	681.8	incongruent	Block2	incongruent/STIM_005.jpg	100
1275.758	1.006	1005.8	incongruent	Block2	incongruent/STIM_006.jpg	100
1280.561	0.625	625.4	incongruent	Block2	incongruent/STIM_006.jpg	100
1283.971	0.779	778.6	incongruent	Block2	incongruent/STIM_006.jpg	99
1287.098	0.83	829.5	incongruent	Block2	incongruent/STIM_006.jpg	100
1291.852	0.669	669.0	incongruent	Block2	incongruent/STIM_006.jpg	100
1295.228	0.848	848.3	incongruent	Block2	incongruent/STIM_007.jpg	100
1299.264	0.903	902.8	incongruent	Block2	incongruent/STIM_007.jpg	99
1302.598	0.609	608.9	incongruent	Block2	incongruent/STIM_007.jpg	100
1306.06	0.993	993.3	incongruent	Block2	incongruent/STIM_007.jpg	99
1310.631	0.941	941.2	incongruent	Block2	incongruent/STIM_007.jpg	99
1315.509	0.866	866.3	incongruent	Block2	incongruent/STIM_008.jpg	100
1319.925	1.08	1079.9	incongruent	Block2	incongruent/STIM_008.jpg	99
1324.446	1.051	1050.9	incongruent	Block2	incongruent/STIM_008.jpg	100
1328.246	0.52	519.5	incongruent	Block2	incongruent/STIM_008.jpg	100
1331.632	1.074	1073.7	incongruent	Block2	incongruent/STIM_008.jpg	99
1334.942	1.097	1097.1	incongruent	Block2	incongruent/STIM_009.jpg	99
1339.324	0.675	675.0	incongruent	Block2	incongruent/STIM_009.jpg	99
1342.889	1.055	1054.9	incongruent	Block2	incongruent/STIM_009.jpg	99
1346.228	1.048	1047.9	incongruent	Block2	incongruent/STIM_009.jpg	100
1349.85	0.711	711.1	incongruent	Block2	incongruent/STIM_009.jpg	99
1354.159	0.637	636.7	incongruent	Block2	incongruent/STIM_010.jpg	99
1358.223	1.128	1127.6	incongruent	Block2	incongruent/STIM_010.jpg	100
1362.661	1.174	1174.0	incongruent	Block2	incongruent/STIM_010.jpg	100
1367.711	0.784	784.3	incongruent	Block2	incongruent/STIM_010.jpg	100
1371.845	0.863	863.4	incongruent	Block2	incongruent/STIM_010.jpg	99
1375.171	0.862	862.2	incongruent	Block2	incongruent/STIM_011.jpg	99
1379.172	1.068	1068.3	incongruent	Block2	incongruent/STIM_011.jpg	100
1383.471	0.961	961.1	incongruent	Block2	incongruent/STIM_011.jpg	100
1388.26	0.761	760.6	incongruent	Block2	incongruent/STIM_011.jpg	100
1392.036	0.727	727.4	incongruent	Block2	incongruent/STIM_011.jpg	99
1395.92	0.845	844.9	incongruent	Block2	incongruent/STIM_012.jpg	100
1399.078	0.726	725.9	incongruent	Block2	incongruent/STIM_012.jpg	99
1402.378	1.092	1092.0	incongruent	Block2	incongruent/STIM_012.jpg	99
1405.636	0.805	804.7	incongruent	Block2	incongruent/STIM_012.jpg	100
1410.474	0.949	948.7	incongruent	Block2	incongruent/STIM_012.jpg	99
1413.918	0.866	865.9	incongruent	Block2	incongruent/STIM_013.jpg	100
1416.999	0.858	857.8	incongruent	Block2	incongruent/STIM_013.jpg	100
1420.41	0.547	546.8	incongruent	Block2	incongruent/STIM_013.jpg	99
1424.252	0.899	899.2	incongruent	Block2	incongruent/STIM_013.jpg	100
1427.27	0.774	774.1	incongruent	Block2	incongruent/STIM_013.jpg	99
1432.008	0.955	955.2	incongruent	Block2	incongruent/STIM_014.jpg	99
1435.525	0.722	722.0	incongruent	Block2	incongruent/STIM_014.jpg	99
1439.167	0.524	524.5	incongruent	Block2	incongruent/STIM_014.jpg	99
1443.768	0.866	866.5	incongruent	Block2	incongruent/STIM_014.jpg	100
1447.788	0.855	854.8	incongruent	Block2	incongruent/STIM_014.jpg	100
1451.836	0.751	751.2	incongruent	Block2	incongruent/STIM_015.jpg	99
1455.48	1.126	1126.0	incongruent	Block2	incongruent/STIM_015.jpg	100
1460.298	0.925	925.1	incongruent	Block2	incongruent/STIM_015.jpg	100
1463.568	0.652	652.5	incongruent	Block2	incongruent/STIM_015.jpg	99
1466.636	1.033	1033.4	incongruent	Block2	incongruent/STIM_015.jpg	99
1469.714	0.604	604.2	incongruent	Block2	incongruent/STIM_016.jpg	100
1472.4	1.152	1152.0	incongruent	Block2	incongruent/STIM_016.jpg	99
1475.956	0.882	882.0	incongruent	Block2	incongruent/STIM_016.jpg	100
1480.007	0.746	745.6	incongruent	Block2	incongruent/STIM_016.jpg	100
1484.099	0.689	689.3	incongruent	Block2	incongruent/STIM_016.jpg	99
1488.676	1.015	1015.2	incongruent	Block2	incongruent/STIM_017.jpg	99
1493.442	0.631	630.7	incongruent	Block2	incongruent/STIM_017.jpg	100
1496.656	0.779	779.2	incongruent	Block2	incongruent/STIM_017.jpg	100
1500.053	0.68	679.7	incongruent	Block2	incongruent/STIM_017.jpg	100
1504.586	0.772	772.0	incongruent	Block2	incongruent/STIM_017.jpg	99
1508.634	1.027	1027.2	incongruent	Block2	incongruent/STIM_018.jpg	99
1513.673	0.998	997.8	incongruent	Block2	incongruent/STIM_018.jpg	100
1517.096	1.043	1043.2	incongruent	Block2	incongruent/STIM_018.jpg	99
1522.096	0.652	651.5	incongruent	Block2	incongruent/STIM_018.jpg	99
1525.686	0.533	532.6	incongruent	Block2	incongruent/STIM_018.jpg	99
1528.587	0.649	648.8	incongruent	Block2	incongruent/STIM_019.jpg	100
1532.856	0.492	492.4	incongruent	Block2	incongruent/STIM_019.jpg	99
1535.97	1.026	1026.4	incongruent	Block2	incongruent/STIM_019.jpg	100
1540.665	0.819	819.0	incongruent	Block2	incongruent/STIM_019.jpg	99
1545.124	1.032	1031.9	incongruent	Block2	incongruent/STIM_019.jpg	99
1548.127	1.017	1017.3	incongruent	Block2	incongruent/STIM_020.jpg	99
1552.927	0.608	607.7	incongruent	Block2	incongruent/STIM_020.jpg	99
1556.16	1.115	1114.9	incongruent	Block2	incongruent/STIM_020.jpg	99
1559.895	0.822	821.9	incongruent	Block2	incongruent/STIM_020.jpg	99
1563.005	1.012	1012.0	incongruent	Block2	incongruent/STIM_020.jpg	99
1567.46	1.029	1029.0	incongruent	Block2	incongruent/STIM_021.jpg	99
1570.448	0.906	906.3	incongruent	Block2	incongruent/STIM_021.jpg	99
1574.769	0.638	637.7	incongruent	Block2	incongruent/STIM_021.jpg	99
1578.78	0.659	659.1	incongruent	Block2	incongruent/STIM_021.jpg	99
1581.761	0.748	747.9	incongruent	Block2	incongruent/STIM_021.jpg	100
1584.632	0.792	791.5	incongruent	Block2	incongruent/STIM_022.jpg	99
1587.841	0.629	629.3	incongruent	Block2	incongruent/STIM_022.jpg	99
1592.257	0.626	626.0	incongruent	Block2	incongruent/STIM_022.jpg	99
1596.375	0.99	989.8	incongruent	Block2	incongruent/STIM_022.jpg	99
1600.257	0.634	634.5	incongruent	Block2	incongruent/STIM_022.jpg	100
1604.232	1.12	1120.5	incongruent	Block2	incongruent/STIM_023.jpg	100
1607.845	0.744	743.7	incongruent	Block2	incongruent/STIM_023.jpg	99
1612.619	0.722	722.0	incongruent	Block2	incongruent/STIM_023.jpg	99
1617.253	0.416	416.4	incongruent	Block2	incongruent/STIM_023.jpg	99
1619.876	0.712	712.2	incongruent	Block2	incongruent/STIM_023.jpg	100
1624.15	0.996	995.9	incongruent	Block2	incongruent/STIM_024.jpg	99
1627.274	0.803	803.0	incongruent	Block2	incongruent/STIM_024.jpg	99
1630.904	0.591	591.1	incongruent	Block2	incongruent/STIM_024.jpg	100
1633.648	0.493	493.4	incongruent	Block2	incongruent/STIM_024.jpg	99
1636.435	0.618	617.9	incongruent	Block2	incongruent/STIM_024.jpg	100
1641.043	1.233	1233.1	incongruent	Block2	incongruent/STIM_025.jpg	99
1644.443	0.618	618.5	incongruent	Block2	incongruent/STIM_025.jpg	99
1648.929	0.979	979.1	incongruent	Block2	incongruent/STIM_025.jpg	99
1652.988	0.858	858.0	incongruent	Block2	incongruent/STIM_025.jpg	100
1656.732	0.776	776.1	incongruent	Block2	incongruent/STIM_025.jpg	100
1659.622	0.896	896.1	incongruent	Block2	incongruent/STIM_026.jpg	99
1664.182	1.074	1073.7	incongruent	Block2	incongruent/STIM_026.jpg	100
1668.661	0.922	921.8	incongruent	Block2	incongruent/STIM_026.jpg	99
1672.551	0.565	565.2	incongruent	Block2	incongruent/STIM_026.jpg	100
1675.828	0.65	650.3	incongruent	Block2	incongruent/STIM_026.jpg	99
1680.46	1.069	1069.4	incongruent	Block2	incongruent/STIM_027.jpg	99
1685.365	0.989	988.9	incongruent	Block2	incongruent/STIM_027.jpg	100
1688.872	0.922	922.3	incongruent	Block2	incongruent/STIM_027.jpg	99
1693.277	0.869	868.9	incongruent	Block2	incongruent/STIM_027.jpg	100
1697.889	0.801	800.7	incongruent	Block2	incongruent/STIM_027.jpg	100
1702.396	0.724	723.7	incongruent	Block2	incongruent/STIM_028.jpg	100
1706.051	0.823	822.9	incongruent	Block2	incongruent/STIM_028.jpg	100
1709.728	1.048	1048.0	incongruent	Block2	incongruent/STIM_028.jpg	99
1714.364	0.891	890.6	incongruent	Block2	incongruent/STIM_028.jpg	100
1717.822	0.824	823.9	incongruent	Block2	incongruent/STIM_028.jpg	100
1720.889	1.0	999.8	incongruent	Block2	incongruent/STIM_029.jpg	99
1725.793	0.793	792.9	incongruent	Block2	incongruent/STIM_029.jpg	99
1729.507	1.065	1065.2	incongruent	Block2	incongruent/STIM_029.jpg	100
1734.188	0.699	698.7	incongruent	Block2	incongruent/STIM_029.jpg	100
1738.22	0.576	575.9	incongruent	Block2	incongruent/STIM_029.jpg	99
1741.982	0.704	704.1	congruent	Block2	congruent/STIM_000.jpg	100
1745.721	0.67	670.4	congruent	Block2	congruent/STIM_000.jpg	100
1749.52	0.5	499.7	congruent	Block2	congruent/STIM_000.jpg	100
1753.818	0.501	501.4	congruent	Block2	congruent/STIM_000.jpg	99
1757.049	0.778	778.4	congruent	Block2	congruent/STIM_000.jpg	99
1761.63	0.726	726.1	congruent	Block2	congruent/STIM_001.jpg	99
1765.359	0.43	430.5	congruent	Block2	congruent/STIM_001.jpg	100
1768.533	0.569	569.3	congruent	Block2	congruent/STIM_001.jpg	99
1772.178	0.79	790.2	congruent	Block2	congruent/STIM_001.jpg	99
1776.431	0.498	497.6	congruent	Block2	congruent/STIM_001.jpg	99
1779.662	0.759	759.1	congruent	Block2	congruent/STIM_002.jpg	99
1784.252	0.846	846.4	congruent	Block2	congruent/STIM_002.jpg	100
1787.521	0.776	776.5	congruent	Block2	congruent/STIM_002.jpg	99
1792.043	0.76	760.4	congruent	Block2	congruent/STIM_002.jpg	100
1795.969	0.776	775.8	congruent	Block2	congruent/STIM_002.jpg	100
1799.748	0.506	506.0	congruent	Block2	congruent/STIM_003.jpg	99
1803.654	0.666	666.3	congruent	Block2	congruent/STIM_003.jpg	100
1806.73	0.466	465.5	congruent	Block2	congruent/STIM_003.jpg	99
1811.028	0.704	703.9	congruent	Block2	congruent/STIM_003.jpg	99
1815.547	0.531	530.9	congruent	Block2	congruent/STIM_003.jpg	99
1819.865	0.675	675.2	congruent	Block2	congruent/STIM_004.jpg	100
1823.791	0.555	555.2	congruent	Block2	congruent/STIM_004.jpg	100
1827.771	0.75	750.0	congruent	Block2	congruent/STIM_004.jpg	100
1831.036	0.83	830.0	congruent	Block2	congruent/STIM_004.jpg	100
1835.302	0.801	801.0	congruent	Block2	congruent/STIM_004.jpg	100
1838.571	0.489	488.8	congruent	Block2	congruent/STIM_005.jpg	100
1841.621	0.734	734.0	congruent	Block2	congruent/STIM_005.jpg	99
1846.332	0.52	519.7	congruent	Block2	congruent/STIM_005.jpg	99
1849.491	0.729	729.1	congruent	Block2	congruent/STIM_005.jpg	100
1852.923	0.818	818.5	congruent	Block2	congruent/STIM_005.jpg	99
1856.04	0.57	570.0	congruent	Block2	congruent/STIM_006.jpg	99
1858.974	0.734	733.9	congruent	Block2	congruent/STIM_006.jpg	100
1861.712	0.491	490.8	congruent	Block2	congruent/STIM_006.jpg	100
1865.499	0.535	535.2	congruent	Block2	congruent/STIM_006.jpg	100
1869.181	0.686	686.4	congruent	Block2	congruent/STIM_006.jpg	100
1872.754	0.626	626.4	congruent	Block2	congruent/STIM_007.jpg	99
1877.094	0.517	516.8	congruent	Block2	congruent/STIM_007.jpg	99
1880.055	0.821	821.2	congruent	Block2	congruent/STIM_007.jpg	99
1883.427	0.707	707.3	congruent	Block2	congruent/STIM_007.jpg	100
1886.444	0.555	555.4	congruent	Block2	congruent/STIM_007.jpg	99
1889.378	0.52	519.8	congruent	Block2	congruent/STIM_008.jpg	99
1892.227	0.496	496.5	congruent	Block2	congruent/STIM_008.jpg	99
1896.278	0.774	774.4	congruent	Block2	congruent/STIM_008.jpg	100
1900.704	0.531	530.9	congruent	Block2	congruent/STIM_008.jpg	100
1903.801	0.75	749.8	congruent	Block2	congruent/STIM_008.jpg	100
1907.989	0.706	706.1	congruent	Block2	congruent/STIM_009.jpg	99
1910.906	0.601	601.0	congruent	Block2	congruent/STIM_009.jpg	100
1913.867	0.804	804.1	congruent	Block2	congruent/STIM_009.jpg	99
1916.784	0.47	469.9	congruent	Block2	congruent/STIM_009.jpg	100
1921.314	0.58	580.4	congruent	Block2	congruent/STIM_009.jpg	99
1924.661	0.526	526.2	congruent	Block2	congruent/STIM_010.jpg	100
1927.404	0.951	950.7	congruent	Block2	congruent/STIM_010.jpg	100
1931.55	0.526	525.6	congruent	Block2	congruent/STIM_010.jpg	99
1936.022	0.652	651.8	congruent	Block2	congruent/STIM_010.jpg	99
1939.67	0.636	636.2	congruent	Block2	congruent/STIM_010.jpg	99
1942.739	0.66	660.4	congruent	Block2	congruent/STIM_011.jpg	100
1946.052	0.68	679.9	congruent	Block2	congruent/STIM_011.jpg	99
1949.612	0.765	764.9	congruent	Block2	congruent/STIM_011.jpg	100
1953.556	0.506	506.0	congruent	Block2	congruent/STIM_011.jpg	99
1957.093	0.569	569.1	congruent	Block2	congruent/STIM_011.jpg	100
1960.603	0.817	817.1	congruent	Block2	congruent/STIM_012.jpg	99
1963.731	0.835	835.0	congruent	Block2	congruent/STIM_012.jpg	100
1968.526	0.685	684.8	congruent	Block2	congruent/STIM_012.jpg	99
1972.102	0.738	738.4	congruent	Block2	congruent/STIM_012.jpg	99
1976.106	0.542	541.6	congruent	Block2	congruent/STIM_012.jpg	100
1979.53	0.608	608.0	congruent	Block2	congruent/STIM_013.jpg	99
1982.547	0.826	826.5	congruent	Block2	congruent/STIM_013.jpg	100
1987.007	0.582	581.6	congruent	Block2	congruent/STIM_013.jpg	99
1990.382	0.752	752.5	congruent	Block2	congruent/STIM_013.jpg	100
1994.698	0.804	803.8	congruent	Block2	congruent/STIM_013.jpg	100
1998.275	0.678	677.9	congruent	Block2	congruent/STIM_014.jpg	99
2002.746	0.658	658.2	congruent	Block2	congruent/STIM_014.jpg	100
2006.29	0.559	558.9	congruent	Block2	congruent/STIM_014.jpg	99
2010.871	0.681	681.1	congruent	Block2	congruent/STIM_014.jpg	99
2013.992	0.656	656.1	congruent	Block2	congruent/STIM_014.jpg	100
2017.97	0.777	777.0	congruent	Block2	congruent/STIM_015.jpg	100
2021.165	0.614	613.5	congruent	Block2	congruent/STIM_015.jpg	100
2025.182	0.912	911.7	congruent	Block2	congruent/STIM_015.jpg	99
2028.874	0.647	647.1	congruent	Block2	congruent/STIM_015.jpg	99
2033.345	0.874	874.0	congruent	Block2	congruent/STIM_015.jpg	100
2037.767	0.873	873.2	congruent	Block2	congruent/STIM_016.jpg	99
2041.68	0.693	692.8	congruent	Block2	congruent/STIM_016.jpg	99
2045.737	0.838	838.0	congruent	Block2	congruent/STIM_016.jpg	100
2050.142	0.533	533.2	congruent	Block2	congruent/STIM_016.jpg	100
2053.797	0.61	609.5	congruent	Block2	congruent/STIM_016.jpg	99
2058.169	0.532	532.1	congruent	Block2	congruent/STIM_017.jpg	100
2061.553	0.826	826.0	congruent	Block2	congruent/STIM_017.jpg	99
2065.978	0.561	561.2	congruent	Block2	congruent/STIM_017.jpg	99
2069.038	0.648	648.3	congruent	Block2	congruent/STIM_017.jpg	100
2072.783	0.523	522.7	congruent	Block2	congruent/STIM_017.jpg	99
2076.678	0.833	832.7	congruent	Block2	congruent/STIM_018.jpg	100
2080.577	0.711	711.3	congruent	Block2	congruent/STIM_018.jpg	100
2084.408	0.674	674.5	congruent	Block2	congruent/STIM_018.jpg	100
2089.016	0.58	580.5	congruent	Block2	congruent/STIM_018.jpg	100
2093.02	0.519	518.9	congruent	Block2	congruent/STIM_018.jpg	100
2095.835	0.54	540.1	congruent	Block2	congruent/STIM_019.jpg	100
2099.188	0.89	889.9	congruent	Block2	congruent/STIM_019.jpg	99
2102.312	0.591	590.7	congruent	Block2	congruent/STIM_019.jpg	100
2106.174	0.803	802.6	congruent	Block2	congruent/STIM_019.jpg	100
2110.283	0.823	822.9	congruent	Block2	congruent/STIM_019.jpg	100
2114.708	0.68	680.2	congruent	Block2	congruent/STIM_020.jpg	99
2119.4	0.581	581.1	congruent	Block2	congruent/STIM_020.jpg	100
2123.897	0.815	815.3	congruent	Block2	congruent/STIM_020.jpg	100
2127.554	0.618	618.0	congruent	Block2	congruent/STIM_020.jpg	99
2131.926	0.679	678.8	congruent	Block2	congruent/STIM_020.jpg	100
2135.032	0.857	856.6	congruent	Block2	congruent/STIM_021.jpg	100
2139.117	0.692	691.5	congruent	Block2	congruent/STIM_021.jpg	99
2143.022	0.532	532.3	congruent	Block2	congruent/STIM_021.jpg	100
2146.422	0.762	761.5	congruent	Block2	congruent/STIM_021.jpg	100
2149.4	0.653	653.3	congruent	Block2	congruent/STIM_021.jpg	100
2152.672	0.6	600.0	congruent	Block2	congruent/STIM_022.jpg	99
2156.227	0.571	571.2	congruent	Block2	congruent/STIM_022.jpg	99
2159.034	0.474	474.2	congruent	Block2	congruent/STIM_022.jpg	99
2163.49	0.926	925.8	congruent	Block2	congruent/STIM_022.jpg	99
2167.763	0.813	812.9	congruent	Block2	congruent/STIM_022.jpg	99
2172.177	0.86	859.5	congruent	Block2	congruent/STIM_023.jpg	100
2175.81	0.529	529.1	congruent	Block2	congruent/STIM_023.jpg	99
2180.149	0.534	534.1	congruent	Block2	congruent/STIM_023.jpg	99
2183.747	0.66	659.5	congruent	Block2	congruent/STIM_023.jpg	99
2187.224	0.798	798.0	congruent	Block2	congruent/STIM_023.jpg	100
2191.855	0.521	520.6	congruent	Block2	congruent/STIM_024.jpg	99
2195.869	0.579	579.4	congruent	Block2	congruent/STIM_024.jpg	99
2198.788	0.737	736.6	congruent	Block2	congruent/STIM_024.jpg	99
2202.507	0.58	580.3	congruent	Block2	congruent/STIM_024.jpg	99
2206.574	0.493	492.6	congruent	Block2	congruent/STIM_024.jpg	99
2210.451	0.75	749.7	congruent	Block2	congruent/STIM_025.jpg	100
2215.081	0.762	761.6	congruent	Block2	congruent/STIM_025.jpg	100
2218.938	0.772	772.5	congruent	Block2	congruent/STIM_025.jpg	100
2222.05	0.739	738.7	congruent	Block2	congruent/STIM_025.jpg	99
2226.825	0.604	604.3	congruent	Block2	congruent/STIM_025.jpg	99
2231.006	0.793	793.1	congruent	Block2	congruent/STIM_026.jpg	100
2235.544	0.524	523.8	congruent	Block2	congruent/STIM_026.jpg	99
2238.814	0.658	657.8	congruent	Block2	congruent/STIM_026.jpg	99
2242.12	0.788	787.5	congruent	Block2	congruent/STIM_026.jpg	99
2245.282	0.695	694.7	congruent	Block2	congruent/STIM_026.jpg	99
2249.938	0.618	617.8	congruent	Block2	congruent/STIM_027.jpg	100
2253.073	0.672	671.8	congruent	Block2	congruent/STIM_027.jpg	100
2256.613	0.736	735.8	congruent	Block2	congruent/STIM_027.jpg	100
2259.747	0.523	523.2	congruent	Block2	congruent/STIM_027.jpg	100
2262.403	0.505	505.3	congruent	Block2	congruent/STIM_027.jpg	99
2266.099	0.708	707.9	congruent	Block2	congruent/STIM_028.jpg	99
2269.864	0.763	762.8	congruent	Block2	congruent/STIM_028.jpg	100
2274.086	0.575	575.0	congruent	Block2	congruent/STIM_028.jpg	100
2278.199	0.641	640.6	congruent	Block2	congruent/STIM_028.jpg	99
2281.25	0.636	636.4	congruent	Block2	congruent/STIM_028.jpg	100
2284.672	0.517	517.0	congruent	Block2	congruent/STIM_029.jpg	99
2288.854	0.674	674.4	congruent	Block2	congruent/STIM_029.jpg	99
2293.254	0.814	814.5	congruent	Block2	congruent/STIM_029.jpg	100
2296.864	0.745	744.6	congruent	Block2	congruent/STIM_029.jpg	100
2300.363	0.611	611.0	congruent	Block2	congruent/STIM_029.jpg	100
2303.699	0.931	930.7	incongruent	Block3	incongruent/STIM_000.jpg	100
2308.478	1.067	1067.1	incongruent	Block3	incongruent/STIM_000.jpg	100
2311.602	0.73	730.4	incongruent	Block3	incongruent/STIM_000.jpg	99
2316.045	0.61	609.6	incongruent	Block3	incongruent/STIM_000.jpg	99
2318.73	0.909	909.1	incongruent	Block3	incongruent/STIM_000.jpg	100
2322.17	1.018	1018.4	incongruent	Block3	incongruent/STIM_001.jpg	99
2325.734	0.683	682.8	incongruent	Block3	incongruent/STIM_001.jpg	100
2329.495	0.929	929.0	incongruent	Block3	incongruent/STIM_001.jpg	99
2333.943	0.684	684.3	incongruent	Block3	incongruent/STIM_001.jpg	100
2337.811	0.951	950.7	incongruent	Block3	incongruent/STIM_001.jpg	99
2341.732	0.801	800.8	incongruent	Block3	incongruent/STIM_002.jpg	99
2345.317	1.057	1057.0	incongruent	Block3	incongruent/STIM_002.jpg	100
2348.317	0.97	970.2	incongruent	Block3	incongruent/STIM_002.jpg	100
2352.507	0.414	413.8	incongruent	Block3	incongruent/STIM_002.jpg	99
2356.209	0.781	780.6	incongruent	Block3	incongruent/STIM_002.jpg	100
2360.299	0.74	739.9	incongruent	Block3	incongruent/STIM_003.jpg	99
2364.101	0.864	863.5	incongruent	Block3	incongruent/STIM_003.jpg	99
2367.15	0.6	600.4	incongruent	Block3	incongruent/STIM_003.jpg	99
2371.395	0.985	984.7	incongruent	Block3	incongruent/STIM_003.jpg	99
2375.596	0.737	737.1	incongruent	Block3	incongruent/STIM_003.jpg	99
2379.145	0.626	626.2	incongruent	Block3	incongruent/STIM_004.jpg	99
2383.044	0.799	799.0	incongruent	Block3	incongruent/STIM_004.jpg	99
2385.97	0.841	841.2	incongruent	Block3	incongruent/STIM_004.jpg	99
2390.162	0.563	563.2	incongruent	Block3	incongruent/STIM_004.jpg	99
2392.774	0.601	601.2	incongruent	Block3	incongruent/STIM_004.jpg	100
2395.853	0.841	840.8	incongruent	Block3	incongruent/STIM_005.jpg	99
2399.716	0.719	718.9	incongruent	Block3	incongruent/STIM_005.jpg	100
2404.366	0.846	846.5	incongruent	Block3	incongruent/STIM_005.jpg	99
2408.509	0.729	728.6	incongruent	Block3	incongruent/STIM_005.jpg	100
2411.892	0.759	759.3	incongruent	Block3	incongruent/STIM_005.jpg	100
2416.606	0.725	725.4	incongruent	Block3	incongruent/STIM_006.jpg	100
2419.4	0.786	785.9	incongruent	Block3	incongruent/STIM_006.jpg	99
2423.305	0.918	917.7	incongruent	Block3	incongruent/STIM_006.jpg	99
2428.207	0.813	812.7	incongruent	Block3	incongruent/STIM_006.jpg	99
2432.094	0.766	766.2	incongruent	Block3	incongruent/STIM_006.jpg	100
2436.401	0.554	553.6	incongruent	Block3	incongruent/STIM_007.jpg	100
2439.717	0.549	549.1	incongruent	Block3	incongruent/STIM_007.jpg	100
2444.251	0.618	617.7	incongruent	Block3	incongruent/STIM_007.jpg	99
2447.687	0.736	736.2	incongruent	Block3	incongruent/STIM_007.jpg	100
2451.3	0.753	752.6	incongruent	Block3	incongruent/STIM_007.jpg	99
2454.76	0.595	595.4	incongruent	Block3	incongruent/STIM_008.jpg	99
2458.343	0.649	649.3	incongruent	Block3	incongruent/STIM_008.jpg	100
2462.637	0.995	995.4	incongruent	Block3	incongruent/STIM_008.jpg	100
2467.666	0.884	884.3	incongruent	Block3	incongruent/STIM_008.jpg	100
2471.692	1.043	1042.6	incongruent	Block3	incongruent/STIM_008.jpg	100
2476.203	0.568	568.4	incongruent	Block3	incongruent/STIM_009.jpg	99
2479.253	0.811	811.4	incongruent	Block3	incongruent/STIM_009.jpg	100
2482.916	0.995	995.0	incongruent	Block3	incongruent/STIM_009.jpg	100
2486.82	0.811	810.8	incongruent	Block3	incongruent/STIM_009.jpg	99
2490.909	0.973	973.1	incongruent	Block3	incongruent/STIM_009.jpg	100
2494.251	0.489	488.9	incongruent	Block3	incongruent/STIM_010.jpg	100
2497.396	0.746	746.5	incongruent	Block3	incongruent/STIM_010.jpg	100
2501.93	0.685	684.7	incongruent	Block3	incongruent/STIM_010.jpg	100
2505.938	0.466	465.7	incongruent	Block3	incongruent/STIM_010.jpg	100
2509.976	0.496	496.0	incongruent	Block3	incongruent/STIM_010.jpg	99
2512.689	0.96	960.2	incongruent	Block3	incongruent/STIM_011.jpg	99
2515.781	0.636	635.9	incongruent	Block3	incongruent/STIM_011.jpg	100
2518.506	0.827	827.0	incongruent	Block3	incongruent/STIM_011.jpg	100
2522.681	0.725	725.2	incongruent	Block3	incongruent/STIM_011.jpg	100
2526.11	0.925	925.4	incongruent	Block3	incongruent/STIM_011.jpg	99
2530.804	0.643	643.4	incongruent	Block3	incongruent/STIM_012.jpg	99
2535.202	0.525	525.2	incongruent	Block3	incongruent/STIM_012.jpg	100
2538.184	0.491	491.0	incongruent	Block3	incongruent/STIM_012.jpg	100
2542.235	0.572	571.5	incongruent	Block3	incongruent/STIM_012.jpg	99
2546.664	0.586	585.8	incongruent	Block3	incongruent/STIM_012.jpg	100
2549.272	0.97	970.1	incongruent	Block3	incongruent/STIM_013.jpg	100
2552.866	0.68	679.8	incongruent	Block3	incongruent/STIM_013.jpg	99
2555.669	0.646	645.8	incongruent	Block3	incongruent/STIM_013.jpg	99
2558.557	0.825	825.4	incongruent	Block3	incongruent/STIM_013.jpg	99
2563.108	0.54	539.9	incongruent	Block3	incongruent/STIM_013.jpg	99
2565.936	0.735	734.7	incongruent	Block3	incongruent/STIM_014.jpg	100
2570.545	0.834	833.7	incongruent	Block3	incongruent/STIM_014.jpg	100
2573.826	0.89	889.7	incongruent	Block3	incongruent/STIM_014.jpg	99
2576.67	0.747	746.9	incongruent	Block3	incongruent/STIM_014.jpg	99
2581.561	0.754	754.0	incongruent	Block3	incongruent/STIM_014.jpg	100
2585.131	0.921	921.2	incongruent	Block3	incongruent/STIM_015.jpg	100
2588.236	0.672	672.0	incongruent	Block3	incongruent/STIM_015.jpg	100
2592.443	0.821	821.4	incongruent	Block3	incongruent/STIM_015.jpg	99
2595.439	0.966	966.5	incongruent	Block3	incongruent/STIM_015.jpg	99
2598.743	0.525	524.8	incongruent	Block3	incongruent/STIM_015.jpg	100
2602.238	0.745	744.9	incongruent	Block3	incongruent/STIM_016.jpg	99
2605.783	0.925	924.8	incongruent	Block3	incongruent/STIM_016.jpg	100
2609.646	0.805	804.7	incongruent	Block3	incongruent/STIM_016.jpg	99
2614.236	0.878	877.6	incongruent	Block3	incongruent/STIM_016.jpg	99
2617.859	0.836	835.5	incongruent	Block3	incongruent/STIM_016.jpg	100
2622.401	1.077	1076.6	incongruent	Block3	incongruent/STIM_017.jpg	99
2626.664	0.627	626.6	incongruent	Block3	incongruent/STIM_017.jpg	99
2630.027	0.716	716.3	incongruent	Block3	incongruent/STIM_017.jpg	100
2633.737	0.485	485.3	incongruent	Block3	incongruent/STIM_017.jpg	99
2636.338	0.798	798.4	incongruent	Block3	incongruent/STIM_017.jpg	99
2641.005	0.598	598.1	incongruent	Block3	incongruent/STIM_018.jpg	99
2644.265	0.912	912.1	incongruent	Block3	incongruent/STIM_018.jpg	100
2648.244	0.887	886.6	incongruent	Block3	incongruent/STIM_018.jpg	100
2652.46	0.976	975.7	incongruent	Block3	incongruent/STIM_018.jpg	100
2657.294	0.681	681.0	incongruent	Block3	incongruent/STIM_018.jpg	99
2661.793	0.856	855.9	incongruent	Block3	incongruent/STIM_019.jpg	100
2666.412	0.816	815.9	incongruent	Block3	incongruent/STIM_019.jpg	99
2669.84	0.978	978.2	incongruent	Block3	incongruent/STIM_019.jpg	100
2672.97	0.628	628.3	incongruent	Block3	incongruent/STIM_019.jpg	100
2676.288	0.611	610.7	incongruent	Block3	incongruent/STIM_019.jpg	99
2679.958	0.618	617.9	incongruent	Block3	incongruent/STIM_020.jpg	100
2684.179	0.8	800.2	incongruent	Block3	incongruent/STIM_020.jpg	99
2687.95	0.563	563.1	incongruent	Block3	incongruent/STIM_020.jpg	100
2691.182	0.743	742.7	incongruent	Block3	incongruent/STIM_020.jpg	100
2694.13	0.624	623.9	incongruent	Block3	incongruent/STIM_020.jpg	99
2698.267	0.677	676.9	incongruent	Block3	incongruent/STIM_021.jpg	99
2701.191	0.681	681.0	incongruent	Block3	incongruent/STIM_021.jpg	100
2704.283	1.078	1077.6	incongruent	Block3	incongruent/STIM_021.jpg	99
2707.354	0.481	481.4	incongruent	Block3	incongruent/STIM_021.jpg	100
2711.867	0.605	605.0	incongruent	Block3	incongruent/STIM_021.jpg	99
2716.059	0.512	512.3	incongruent	Block3	incongruent/STIM_022.jpg	99
2720.255	0.978	978.1	incongruent	Block3	incongruent/STIM_022.jpg	100
2725.111	0.498	497.7	incongruent	Block3	incongruent/STIM_022.jpg	99
2729.185	0.546	546.5	incongruent	Block3	incongruent/STIM_022.jpg	99
2732.565	0.713	712.9	incongruent	Block3	incongruent/STIM_022.jpg	100
2735.989	0.898	898.0	incongruent	Block3	incongruent/STIM_023.jpg	100
2740.012	0.616	616.2	incongruent	Block3	incongruent/STIM_023.jpg	99
2743.643	0.511	511.1	incongruent	Block3	incongruent/STIM_023.jpg	99
2747.901	0.65	649.6	incongruent	Block3	incongruent/STIM_023.jpg	100
2752.316	0.608	608.2	incongruent	Block3	incongruent/STIM_023.jpg	100
2756.029	0.754	753.5	incongruent	Block3	incongruent/STIM_024.jpg	99
2759.002	0.52	519.8	incongruent	Block3	incongruent/STIM_024.jpg	100
2761.97	0.628	627.6	incongruent	Block3	incongruent/STIM_024.jpg	100
2764.635	0.772	772.3	incongruent	Block3	incongruent/STIM_024.jpg	99
2769.004	0.869	869.0	incongruent	Block3	incongruent/STIM_024.jpg	100
2773.796	0.917	916.9	incongruent	Block3	incongruent/STIM_025.jpg	100
2777.133	0.578	577.5	incongruent	Block3	incongruent/STIM_025.jpg	99
2780.638	0.672	672.3	incongruent	Block3	incongruent/STIM_025.jpg	100
2784.503	0.856	856.1	incongruent	Block3	incongruent/STIM_025.jpg	100
2789.015	0.512	511.9	incongruent	Block3	incongruent/STIM_025.jpg	100
2792.836	0.579	579.3	incongruent	Block3	incongruent/STIM_026.jpg	100
2797.314	0.85	850.2	incongruent	Block3	incongruent/STIM_026.jpg	99
2800.446	0.981	980.6	incongruent	Block3	incongruent/STIM_026.jpg	100
2804.194	0.55	549.6	incongruent	Block3	incongruent/STIM_026.jpg	99
2808.453	0.67	670.0	incongruent	Block3	incongruent/STIM_026.jpg	100
2812.025	0.789	788.7	incongruent	Block3	incongruent/STIM_027.jpg	100
2815.004	1.065	1064.9	incongruent	Block3	incongruent/STIM_027.jpg	99
2819.961	0.798	798.1	incongruent	Block3	incongruent/STIM_027.jpg	99
2823.313	0.669	669.2	incongruent	Block3	incongruent/STIM_027.jpg	99
2827.567	1.006	1006.5	incongruent	Block3	incongruent/STIM_027.jpg	100
2831.39	0.456	455.6	incongruent	Block3	incongruent/STIM_028.jpg	99
2834.603	0.972	972.0	incongruent	Block3	incongruent/STIM_028.jpg	100
2838.79	0.851	850.9	incongruent	Block3	incongruent/STIM_028.jpg	100
2842.689	0.675	674.6	incongruent	Block3	incongruent/STIM_028.jpg	100
2846.333	0.849	848.8	incongruent	Block3	incongruent/STIM_028.jpg	100
2849.583	0.901	900.6	incongruent	Block3	incongruent/STIM_029.jpg	99
2854.439	0.67	670.5	incongruent	Block3	incongruent/STIM_029.jpg	99
2857.281	0.805	805.4	incongruent	Block3	incongruent/STIM_029.jpg	100
2861.391	0.734	734.0	incongruent	Block3	incongruent/STIM_029.jpg	100
2865.036	0.898	897.9	incongruent	Block3	incongruent/STIM_029.jpg	99
2868.331	0.794	793.9	congruent	Block3	congruent/STIM_000.jpg	100
2872.274	0.869	869.2	congruent	Block3	congruent/STIM_000.jpg	99
2875.271	0.819	819.2	congruent	Block3	congruent/STIM_000.jpg	99
2879.407	0.466	465.5	congruent	Block3	congruent/STIM_000.jpg	100
2882.113	0.454	454.1	congruent	Block3	congruent/STIM_000.jpg	99
2885.314	0.608	607.7	congruent	Block3	congruent/STIM_001.jpg	100
2890.006	0.811	810.8	congruent	Block3	congruent/STIM_001.jpg	100
2893.728	0.837	837.4	congruent	Block3	congruent/STIM_001.jpg	100
2897.405	0.567	566.9	congruent	Block3	congruent/STIM_001.jpg	100
2900.886	0.518	518.5	congruent	Block3	congruent/STIM_001.jpg	99
2904.192	0.678	677.7	congruent	Block3	congruent/STIM_002.jpg	99
2907.87	0.667	666.7	congruent	Block3	congruent/STIM_002.jpg	100
2910.863	0.832	832.3	congruent	Block3	congruent/STIM_002.jpg	100
2915.651	0.814	814.5	congruent	Block3	congruent/STIM_002.jpg	99
2918.695	0.676	675.7	congruent	Block3	congruent/STIM_002.jpg	100
2921.461	0.516	516.3	congruent	Block3	congruent/STIM_003.jpg	100
2925.086	0.748	748.2	congruent	Block3	congruent/STIM_003.jpg	99
2928.105	0.853	853.4	congruent	Block3	congruent/STIM_003.jpg	100
2932.208	0.843	842.7	congruent	Block3	congruent/STIM_003.jpg	99
2936.371	0.648	647.8	congruent	Block3	congruent/STIM_003.jpg	99
2939.131	0.72	719.7	congruent	Block3	congruent/STIM_004.jpg	100
2943.177	0.498	498.2	congruent	Block3	congruent/STIM_004.jpg	99
2946.636	0.54	539.5	congruent	Block3	congruent/STIM_004.jpg	99
2950.256	0.753	753.4	congruent	Block3	congruent/STIM_004.jpg	100
2953.924	0.503	503.0	congruent	Block3	congruent/STIM_004.jpg	100
2958.057	0.701	701.1	congruent	Block3	congruent/STIM_005.jpg	100
2962.445	0.722	721.7	congruent	Block3	congruent/STIM_005.jpg	100
2966.973	0.565	565.2	congruent	Block3	congruent/STIM_005.jpg	100
2970.343	0.624	624.5	congruent	Block3	congruent/STIM_005.jpg	100
2974.529	0.617	617.4	congruent	Block3	congruent/STIM_005.jpg	100
2977.729	0.764	763.7	congruent	Block3	congruent/STIM_006.jpg	100
2980.903	0.635	634.7	congruent	Block3	congruent/STIM_006.jpg	100
2984.537	0.568	567.9	congruent	Block3	congruent/STIM_006.jpg	99
2988.205	0.861	860.7	congruent	Block3	congruent/STIM_006.jpg	100
2991.659	0.521	521.1	congruent	Block3	congruent/STIM_006.jpg	99
2994.927	0.663	662.7	congruent	Block3	congruent/STIM_007.jpg	100
2999.451	0.557	557.4	congruent	Block3	congruent/STIM_007.jpg	99
3002.277	0.722	721.9	congruent	Block3	congruent/STIM_007.jpg	99
3005.604	0.531	530.7	congruent	Block3	congruent/STIM_007.jpg	99
3008.495	0.468	468.0	congruent	Block3	congruent/STIM_007.jpg	99
3012.969	0.736	736.2	congruent	Block3	congruent/STIM_008.jpg	99
3017.592	0.597	596.6	congruent	Block3	congruent/STIM_008.jpg	99
3021.332	0.466	465.7	congruent	Block3	congruent/STIM_008.jpg	99
3024.068	0.698	697.9	congruent	Block3	congruent/STIM_008.jpg	99
3026.987	0.766	766.0	congruent	Block3	congruent/STIM_008.jpg	100
3031.508	0.539	539.2	congruent	Block3	congruent/STIM_009.jpg	99
3035.082	0.644	643.8	congruent	Block3	congruent/STIM_009.jpg	99
3038.237	0.512	512.2	congruent	Block3	congruent/STIM_009.jpg	99
3041.919	0.709	708.6	congruent	Block3	congruent/STIM_009.jpg	100
3045.732	0.785	785.2	congruent	Block3	congruent/STIM_009.jpg	99
3049.491	0.589	588.6	congruent	Block3	congruent/STIM_010.jpg	99
3052.464	0.718	717.9	congruent	Block3	congruent/STIM_010.jpg	99
3056.881	0.607	607.3	congruent	Block3	congruent/STIM_010.jpg	100
3060.557	0.702	701.9	congruent	Block3	congruent/STIM_010.jpg	99
3064.936	0.671	670.8	congruent	Block3	congruent/STIM_010.jpg	99
3068.891	0.796	795.5	congruent	Block3	congruent/STIM_011.jpg	100
3073.247	0.5	499.7	congruent	Block3	congruent/STIM_011.jpg	100
3076.156	0.719	719.4	congruent	Block3	congruent/STIM_011.jpg	99
3080.388	0.8	800.2	congruent	Block3	congruent/STIM_011.jpg	99
3084.726	0.758	757.9	congruent	Block3	congruent/STIM_011.jpg	100
3087.735	0.681	680.8	congruent	Block3	congruent/STIM_012.jpg	100
3092.211	0.782	782.2	congruent	Block3	congruent/STIM_012.jpg	99
3095.207	0.476	476.1	congruent	Block3	congruent/STIM_012.jpg	99
3097.927	0.633	633.4	congruent	Block3	congruent/STIM_012.jpg	100
3102.195	0.85	849.7	congruent	Block3	congruent/STIM_012.jpg	99
3105.262	0.846	845.8	congruent	Block3	congruent/STIM_013.jpg	99
3108.531	0.614	614.0	congruent	Block3	congruent/STIM_013.jpg	100
3112.914	0.716	715.7	congruent	Block3	congruent/STIM_013.jpg	100
3116.68	0.697	697.3	congruent	Block3	congruent/STIM_013.jpg	99
3120.257	0.522	522.5	congruent	Block3	congruent/STIM_013.jpg	100
3122.8	0.873	873.3	congruent	Block3	congruent/STIM_014.jpg	100
3127.387	0.487	487.2	congruent	Block3	congruent/STIM_014.jpg	99
3130.807	0.784	783.8	congruent	Block3	congruent/STIM_014.jpg	100
3135.375	0.776	776.3	congruent	Block3	congruent/STIM_014.jpg	99
3138.483	0.896	896.5	congruent	Block3	congruent/STIM_014.jpg	99
3142.653	0.574	574.0	congruent	Block3	congruent/STIM_015.jpg	100
3145.557	0.558	557.5	congruent	Block3	congruent/STIM_015.jpg	99
3148.543	0.758	758.2	congruent	Block3	congruent/STIM_015.jpg	100
3151.325	0.598	598.2	congruent	Block3	congruent/STIM_015.jpg	100
3154.375	0.507	507.3	congruent	Block3	congruent/STIM_015.jpg	99
3157.737	0.57	570.0	congruent	Block3	congruent/STIM_016.jpg	99
3162.333	0.769	768.6	congruent	Block3	congruent/STIM_016.jpg	99
3165.671	0.786	785.6	congruent	Block3	congruent/STIM_016.jpg	100
3169.045	0.594	593.5	congruent	Block3	congruent/STIM_016.jpg	100
3172.661	0.56	560.1	congruent	Block3	congruent/STIM_016.jpg	99
3176.808	0.615	615.1	congruent	Block3	congruent/STIM_017.jpg	99
3181.471	0.566	565.9	congruent	Block3	congruent/STIM_017.jpg	100
3185.167	0.425	424.6	congruent	Block3	congruent/STIM_017.jpg	99
3188.59	0.704	704.5	congruent	Block3	congruent/STIM_017.jpg	99
3192.675	0.642	641.9	congruent	Block3	congruent/STIM_017.jpg	99
3196.764	0.468	467.5	congruent	Block3	congruent/STIM_018.jpg	99
3199.397	0.494	493.7	congruent	Block3	congruent/STIM_018.jpg	99
3202.524	0.564	563.5	congruent	Block3	congruent/STIM_018.jpg	100
3206.197	0.492	492.3	congruent	Block3	congruent/STIM_018.jpg	100
3209.131	0.502	502.1	congruent	Block3	congruent/STIM_018.jpg	99
3211.817	0.656	656.1	congruent	Block3	congruent/STIM_019.jpg	100
3215.073	0.758	758.1	congruent	Block3	congruent/STIM_019.jpg	99
3218.16	0.791	791.1	congruent	Block3	congruent/STIM_019.jpg	99
3222.412	0.8	799.7	congruent	Block3	congruent/STIM_019.jpg	99
3225.799	0.523	522.8	congruent	Block3	congruent/STIM_019.jpg	99
3229.728	0.763	763.3	congruent	Block3	congruent/STIM_020.jpg	99
3234.3	0.964	963.5	congruent	Block3	congruent/STIM_020.jpg	100
3238.831	0.541	540.9	congruent	Block3	congruent/STIM_020.jpg	99
3241.823	0.602	601.5	congruent	Block3	congruent/STIM_020.jpg	99
3245.117	0.78	780.2	congruent	Block3	congruent/STIM_020.jpg	100
3249.515	0.613	612.9	congruent	Block3	congruent/STIM_021.jpg	100
3252.641	0.684	683.6	congruent	Block3	congruent/STIM_021.jpg	100
3256.532	0.644	643.6	congruent	Block3	congruent/STIM_021.jpg	100
3259.895	0.623	623.3	congruent	Block3	congruent/STIM_021.jpg	99
3263.506	0.593	593.4	congruent	Block3	congruent/STIM_021.jpg	99
3267.624	0.757	757.0	congruent	Block3	congruent/STIM_022.jpg	99
3270.577	0.568	568.5	congruent	Block3	congruent/STIM_022.jpg	100
3274.258	0.568	567.5	congruent	Block3	congruent/STIM_022.jpg	100
3278.062	0.799	799.1	congruent	Block3	congruent/STIM_022.jpg	99
3281.1	0.667	667.2	congruent	Block3	congruent/STIM_022.jpg	99
3285.008	0.704	703.9	congruent	Block3	congruent/STIM_023.jpg	99
3288.246	0.532	532.4	congruent	Block3	congruent/STIM_023.jpg	100
3292.548	0.922	921.6	congruent	Block3	congruent/STIM_023.jpg	99
3296.565	0.714	713.7	congruent	Block3	congruent/STIM_023.jpg	99
3301.254	0.504	504.5	congruent	Block3	congruent/STIM_023.jpg	99
3305.733	0.567	567.3	congruent	Block3	congruent/STIM_024.jpg	99
3309.21	0.772	772.2	congruent	Block3	congruent/STIM_024.jpg	100
3313.867	0.48	480.3	congruent	Block3	congruent/STIM_024.jpg	100
3316.668	0.733	733.4	congruent	Block3	congruent/STIM_024.jpg	100
3320.383	0.685	685.4	congruent	Block3	congruent/STIM_024.jpg	100
3324.162	0.59	589.7	congruent	Block3	congruent/STIM_025.jpg	100
3327.058	0.68	679.7	congruent	Block3	congruent/STIM_025.jpg	99
3329.784	0.516	515.6	congruent	Block3	congruent/STIM_025.jpg	100
3334.168	0.492	492.0	congruent	Block3	congruent/STIM_025.jpg	100
3338.391	0.835	835.2	congruent	Block3	congruent/STIM_025.jpg	99
3341.336	0.67	670.0	congruent	Block3	congruent/STIM_026.jpg	100
3345.868	0.622	622.2	congruent	Block3	congruent/STIM_026.jpg	99
3348.723	0.762	762.4	congruent	Block3	congruent/STIM_026.jpg	100
3352.766	0.632	631.6	congruent	Block3	congruent/STIM_026.jpg	100
3356.498	0.722	722.0	congruent	Block3	congruent/STIM_026.jpg	100
3360.049	0.564	563.8	congruent	Block3	congruent/STIM_027.jpg	99
3364.212	0.859	858.9	congruent	Block3	congruent/STIM_027.jpg	100
3369.069	0.771	770.7	congruent	Block3	congruent/STIM_027.jpg	99
3373.422	0.511	511.0	congruent	Block3	congruent/STIM_027.jpg	99
3376.225	0.553	553.0	congruent	Block3	congruent/STIM_027.jpg	99
3379.358	0.772	771.9	congruent	Block3	congruent/STIM_028.jpg	100
3383.537	0.86	860.1	congruent	Block3	congruent/STIM_028.jpg	100
3387.273	0.562	562.2	congruent	Block3	congruent/STIM_028.jpg	100
3391.165	0.756	756.2	congruent	Block3	congruent/STIM_028.jpg	99
3395.862	0.771	771.0	congruent	Block3	congruent/STIM_028.jpg	100
3400.291	0.844	844.0	congruent	Block3	congruent/STIM_029.jpg	99
3403.978	0.536	536.3	congruent	Block3	congruent/STIM_029.jpg	100
3407.486	0.772	772.1	congruent	Block3	congruent/STIM_029.jpg	99
3411.47	0.734	734.0	congruent	Block3	congruent/STIM_029.jpg	100
3416.257	0.644	644.3	congruent	Block3	congruent/STIM_029.jpg	100
