onset	duration	accuracy	trial_type	learning_stage	stimulus
0.0	1.454	correct	incongruent	Block1	incongruent/STIM_000.jpg
4.702	1.239	incorrect	incongruent	Block1	incongruent/STIM_000.jpg
8.799	1.184	correct	incongruent	Block1	incongruent/STIM_000.jpg
13.683	1.276	correct	incongruent	Block1	incongruent/STIM_000.jpg
18.109	1.072	correct	incongruent	Block1	incongruent/STIM_000.jpg
22.582	1.392	correct	incongruent	Block1	incongruent/STIM_001.jpg
26.656	0.812	correct	incongruent	Block1	incongruent/STIM_001.jpg
30.334	0.618	correct	incongruent	Block1	incongruent/STIM_001.jpg
33.135	0.527	correct	incongruent	Block1	incongruent/STIM_001.jpg
37.615	0.761	correct	incongruent	Block1	incongruent/STIM_001.jpg
41.557	1.078	correct	incongruent	Block1	incongruent/STIM_002.jpg
45.271	0.832	correct	incongruent	Block1	incongruent/STIM_002.jpg
49.652	1.158	incorrect	incongruent	Block1	incongruent/STIM_002.jpg
53.633	1.061	incorrect	incongruent	Block1	incongruent/STIM_002.jpg
57.906	0.772	correct	incongruent	Block1	incongruent/STIM_002.jpg
61.64	0.924	correct	incongruent	Block1	incongruent/STIM_003.jpg
66.164	1.085	correct	incongruent	Block1	incongruent/STIM_003.jpg
69.671	0.948	incorrect	incongruent	Block1	incongruent/STIM_003.jpg
73.47	1.218	correct	incongruent	Block1	incongruent/STIM_003.jpg
77.327	1.037	correct	incongruent	Block1	incongruent/STIM_003.jpg
81.436	0.994	incorrect	incongruent	Block1	incongruent/STIM_004.jpg
84.762	0.918	correct	incongruent	Block1	incongruent/STIM_004.jpg
87.911	0.892	correct	incongruent	Block1	incongruent/STIM_004.jpg
92.711	0.559	correct	incongruent	Block1	incongruent/STIM_004.jpg
95.867	1.106	correct	incongruent	Block1	incongruent/STIM_004.jpg
99.201	0.639	correct	incongruent	Block1	incongruent/STIM_005.jpg
103.034	0.858	correct	incongruent	Block1	incongruent/STIM_005.jpg
106.062	0.837	correct	incongruent	Block1	incongruent/STIM_005.jpg
110.979	0.858	correct	incongruent	Block1	incongruent/STIM_005.jpg
115.274	1.159	correct	incongruent	Block1	incongruent/STIM_005.jpg
119.021	0.869	correct	incongruent	Block1	incongruent/STIM_006.jpg
123.08	1.287	correct	incongruent	Block1	incongruent/STIM_006.jpg
127.228	1.086	correct	incongruent	Block1	incongruent/STIM_006.jpg
130.777	1.218	incorrect	incongruent	Block1	incongruent/STIM_006.jpg
134.542	0.891	correct	incongruent	Block1	incongruent/STIM_006.jpg
138.777	1.437	correct	incongruent	Block1	incongruent/STIM_007.jpg
142.978	1.323	correct	incongruent	Block1	incongruent/STIM_007.jpg
146.911	0.872	correct	incongruent	Block1	incongruent/STIM_007.jpg
151.731	1.104	correct	incongruent	Block1	incongruent/STIM_007.jpg
156.293	0.948	correct	incongruent	Block1	incongruent/STIM_007.jpg
161.131	1.265	correct	incongruent	Block1	incongruent/STIM_008.jpg
165.915	1.226	correct	incongruent	Block1	incongruent/STIM_008.jpg
169.448	1.1	correct	incongruent	Block1	incongruent/STIM_008.jpg
174.598	1.108	correct	incongruent	Block1	incongruent/STIM_008.jpg
178.97	0.708	correct	incongruent	Block1	incongruent/STIM_008.jpg
181.723	0.953	correct	incongruent	Block1	incongruent/STIM_009.jpg
184.781	0.995	correct	incongruent	Block1	incongruent/STIM_009.jpg
189.804	0.863	correct	incongruent	Block1	incongruent/STIM_009.jpg
194.152	0.695	correct	incongruent	Block1	incongruent/STIM_009.jpg
197.545	1.052	correct	incongruent	Block1	incongruent/STIM_009.jpg
200.995	1.008	incorrect	incongruent	Block1	incongruent/STIM_010.jpg
204.385	1.224	correct	incongruent	Block1	incongruent/STIM_010.jpg
208.317	1.078	correct	incongruent	Block1	incongruent/STIM_010.jpg
212.866	0.592	correct	incongruent	Block1	incongruent/STIM_010.jpg
217.213	0.61	correct	incongruent	Block1	incongruent/STIM_010.jpg
221.655	0.898	correct	incongruent	Block1	incongruent/STIM_011.jpg
225.917	1.323	correct	incongruent	Block1	incongruent/STIM_011.jpg
230.311	1.285	correct	incongruent	Block1	incongruent/STIM_011.jpg
233.696	0.81	correct	incongruent	Block1	incongruent/STIM_011.jpg
238.418	0.807	correct	incongruent	Block1	incongruent/STIM_011.jpg
243.303	1.294	correct	incongruent	Block1	incongruent/STIM_012.jpg
247.717	0.801	correct	incongruent	Block1	incongruent/STIM_012.jpg
251.695	1.24	incorrect	incongruent	Block1	incongruent/STIM_012.jpg
255.526	0.876	correct	incongruent	Block1	incongruent/STIM_012.jpg
258.518	1.044	incorrect	incongruent	Block1	incongruent/STIM_012.jpg
262.566	1.228	correct	incongruent	Block1	incongruent/STIM_013.jpg
267.05	0.872	correct	incongruent	Block1	incongruent/STIM_013.jpg
271.591	0.849	correct	incongruent	Block1	incongruent/STIM_013.jpg
275.727	0.682	correct	incongruent	Block1	incongruent/STIM_013.jpg
278.567	0.67	correct	incongruent	Block1	incongruent/STIM_013.jpg
281.407	0.839	incorrect	incongruent	Block1	incongruent/STIM_014.jpg
285.323	0.656	correct	incongruent	Block1	incongruent/STIM_014.jpg
288.83	0.588	correct	incongruent	Block1	incongruent/STIM_014.jpg
291.896	1.084	incorrect	incongruent	Block1	incongruent/STIM_014.jpg
295.902	0.546	correct	incongruent	Block1	incongruent/STIM_014.jpg
299.508	1.141	correct	incongruent	Block1	incongruent/STIM_015.jpg
303.3	0.63	correct	incongruent	Block1	incongruent/STIM_015.jpg
306.319	1.158	correct	incongruent	Block1	incongruent/STIM_015.jpg
310.105	0.664	correct	incongruent	Block1	incongruent/STIM_015.jpg
314.743	0.861	correct	incongruent	Block1	incongruent/STIM_015.jpg
318.549	1.354	correct	incongruent	Block1	incongruent/STIM_016.jpg
322.336	0.902	correct	incongruent	Block1	incongruent/STIM_016.jpg
326.412	1.201	incorrect	incongruent	Block1	incongruent/STIM_016.jpg
329.693	0.724	correct	incongruent	Block1	incongruent/STIM_016.jpg
333.111	0.724	correct	incongruent	Block1	incongruent/STIM_016.jpg
336.393	1.28	correct	incongruent	Block1	incongruent/STIM_017.jpg
340.776	0.828	correct	incongruent	Block1	incongruent/STIM_017.jpg
344.536	0.657	correct	incongruent	Block1	incongruent/STIM_017.jpg
348.935	1.176	correct	incongruent	Block1	incongruent/STIM_017.jpg
353.455	0.944	correct	incongruent	Block1	incongruent/STIM_017.jpg
357.405	0.865	correct	incongruent	Block1	incongruent/STIM_018.jpg
360.777	1.152	correct	incongruent	Block1	incongruent/STIM_018.jpg
364.88	0.75	incorrect	incongruent	Block1	incongruent/STIM_018.jpg
369.348	0.679	correct	incongruent	Block1	incongruent/STIM_018.jpg
373.312	0.694	correct	incongruent	Block1	incongruent/STIM_018.jpg
378.059	1.041	incorrect	incongruent	Block1	incongruent/STIM_019.jpg
382.973	1.368	incorrect	incongruent	Block1	incongruent/STIM_019.jpg
386.756	1.016	correct	incongruent	Block1	incongruent/STIM_019.jpg
389.88	0.943	correct	incongruent	Block1	incongruent/STIM_019.jpg
394.472	0.808	correct	incongruent	Block1	incongruent/STIM_019.jpg
398.235	0.69	correct	incongruent	Block1	incongruent/STIM_020.jpg
401.079	1.128	correct	incongruent	Block1	incongruent/STIM_020.jpg
405.044	1.335	correct	incongruent	Block1	incongruent/STIM_020.jpg
409.184	0.874	correct	incongruent	Block1	incongruent/STIM_020.jpg
413.414	0.738	correct	incongruent	Block1	incongruent/STIM_020.jpg
417.075	1.389	correct	incongruent	Block1	incongruent/STIM_021.jpg
422.195	0.779	correct	incongruent	Block1	incongruent/STIM_021.jpg
426.237	0.95	correct	incongruent	Block1	incongruent/STIM_021.jpg
431.024	0.741	correct	incongruent	Block1	incongruent/STIM_021.jpg
433.843	1.114	correct	incongruent	Block1	incongruent/STIM_021.jpg
437.274	0.73	correct	incongruent	Block1	incongruent/STIM_022.jpg
440.333	1.082	correct	incongruent	Block1	incongruent/STIM_022.jpg
445.352	0.75	correct	incongruent	Block1	incongruent/STIM_022.jpg
448.272	1.144	correct	incongruent	Block1	incongruent/STIM_022.jpg
451.488	0.926	correct	incongruent	Block1	incongruent/STIM_022.jpg
455.264	1.37	correct	incongruent	Block1	incongruent/STIM_023.jpg
460.016	0.925	correct	incongruent	Block1	incongruent/STIM_023.jpg
463.408	0.523	correct	incongruent	Block1	incongruent/STIM_023.jpg
467.024	1.09	correct	incongruent	Block1	incongruent/STIM_023.jpg
472.018	0.604	correct	incongruent	Block1	incongruent/STIM_023.jpg
476.36	1.367	incorrect	incongruent	Block1	incongruent/STIM_024.jpg
480.899	0.732	correct	incongruent	Block1	incongruent/STIM_024.jpg
484.331	0.661	incorrect	incongruent	Block1	incongruent/STIM_024.jpg
488.506	0.808	correct	incongruent	Block1	incongruent/STIM_024.jpg
492.525	0.726	correct	incongruent	Block1	incongruent/STIM_024.jpg
496.071	1.34	correct	incongruent	Block1	incongruent/STIM_025.jpg
500.757	0.76	correct	incongruent	Block1	incongruent/STIM_025.jpg
504.069	1.205	incorrect	incongruent	Block1	incongruent/STIM_025.jpg
508.995	0.704	correct	incongruent	Block1	incongruent/STIM_025.jpg
512.626	0.724	correct	incongruent	Block1	incongruent/STIM_025.jpg
517.188	0.836	correct	incongruent	Block1	incongruent/STIM_026.jpg
521.52	0.784	correct	incongruent	Block1	incongruent/STIM_026.jpg
524.897	1.002	correct	incongruent	Block1	incongruent/STIM_026.jpg
529.411	0.992	correct	incongruent	Block1	incongruent/STIM_026.jpg
532.706	0.624	correct	incongruent	Block1	incongruent/STIM_026.jpg
536.735	1.035	correct	incongruent	Block1	incongruent/STIM_027.jpg
540.63	0.958	correct	incongruent	Block1	incongruent/STIM_027.jpg
544.195	0.655	correct	incongruent	Block1	incongruent/STIM_027.jpg
547.574	1.105	correct	incongruent	Block1	incongruent/STIM_027.jpg
552.532	0.797	correct	incongruent	Block1	incongruent/STIM_027.jpg
555.945	0.971	correct	incongruent	Block1	incongruent/STIM_028.jpg
559.612	0.766	correct	incongruent	Block1	incongruent/STIM_028.jpg
563.681	0.633	correct	incongruent	Block1	incongruent/STIM_028.jpg
567.237	1.146	correct	incongruent	Block1	incongruent/STIM_028.jpg
571.713	0.99	correct	incongruent	Block1	incongruent/STIM_028.jpg
574.763	0.962	correct	incongruent	Block1	incongruent/STIM_029.jpg
577.844	0.947	correct	incongruent	Block1	incongruent/STIM_029.jpg
581.849	1.071	correct	incongruent	Block1	incongruent/STIM_029.jpg
586.443	1.135	correct	incongruent	Block1	incongruent/STIM_029.jpg
591.312	0.941	correct	incongruent	Block1	incongruent/STIM_029.jpg
594.819	0.555	correct	congruent	Block1	congruent/STIM_000.jpg
598.308	0.481	correct	congruent	Block1	congruent/STIM_000.jpg
601.647	0.986	correct	congruent	Block1	congruent/STIM_000.jpg
605.428	0.724	correct	congruent	Block1	congruent/STIM_000.jpg
609.839	0.451	correct	congruent	Block1	congruent/STIM_000.jpg
612.938	0.64	correct	congruent	Block1	congruent/STIM_001.jpg
617.526	0.449	correct	congruent	Block1	congruent/STIM_001.jpg
622.054	0.64	correct	congruent	Block1	congruent/STIM_001.jpg
624.781	0.692	correct	congruent	Block1	congruent/STIM_001.jpg
628.415	0.649	correct	congruent	Block1	congruent/STIM_001.jpg
632.592	0.622	correct	congruent	Block1	congruent/STIM_002.jpg
636.457	0.669	correct	congruent	Block1	congruent/STIM_002.jpg
639.475	0.681	correct	congruent	Block1	congruent/STIM_002.jpg
642.926	0.699	correct	congruent	Block1	congruent/STIM_002.jpg
646.154	0.657	correct	congruent	Block1	congruent/STIM_002.jpg
650.412	0.541	incorrect	congruent	Block1	congruent/STIM_003.jpg
654.515	0.68	correct	congruent	Block1	congruent/STIM_003.jpg
658.34	0.65	correct	congruent	Block1	congruent/STIM_003.jpg
662.255	0.588	correct	congruent	Block1	congruent/STIM_003.jpg
666.518	0.784	correct	congruent	Block1	congruent/STIM_003.jpg
669.454	0.75	correct	congruent	Block1	congruent/STIM_004.jpg
672.572	0.861	correct	congruent	Block1	congruent/STIM_004.jpg
675.561	0.684	correct	congruent	Block1	congruent/STIM_004.jpg
679.391	0.599	correct	congruent	Block1	congruent/STIM_004.jpg
683.18	0.8	correct	congruent	Block1	congruent/STIM_004.jpg
686.715	0.56	correct	congruent	Block1	congruent/STIM_005.jpg
691.11	0.645	correct	congruent	Block1	congruent/STIM_005.jpg
694.093	0.684	correct	congruent	Block1	congruent/STIM_005.jpg
698.578	0.635	correct	congruent	Block1	congruent/STIM_005.jpg
702.516	0.842	correct	congruent	Block1	congruent/STIM_005.jpg
706.044	0.506	correct	congruent	Block1	congruent/STIM_006.jpg
709.58	0.767	correct	congruent	Block1	congruent/STIM_006.jpg
713.248	0.441	correct	congruent	Block1	congruent/STIM_006.jpg
716.431	0.7	correct	congruent	Block1	congruent/STIM_006.jpg
720.134	0.715	correct	congruent	Block1	congruent/STIM_006.jpg
723.567	0.593	correct	congruent	Block1	congruent/STIM_007.jpg
727.243	0.563	incorrect	congruent	Block1	congruent/STIM_007.jpg
731.55	0.901	correct	congruent	Block1	congruent/STIM_007.jpg
736.179	0.582	correct	congruent	Block1	congruent/STIM_007.jpg
739.998	0.758	incorrect	congruent	Block1	congruent/STIM_007.jpg
743.482	0.672	correct	congruent	Block1	congruent/STIM_008.jpg
747.234	0.773	correct	congruent	Block1	congruent/STIM_008.jpg
750.67	0.549	correct	congruent	Block1	congruent/STIM_008.jpg
754.64	0.455	correct	congruent	Block1	congruent/STIM_008.jpg
759.109	0.737	correct	congruent	Block1	congruent/STIM_008.jpg
763.071	0.486	correct	congruent	Block1	congruent/STIM_009.jpg
767.358	0.914	correct	congruent	Block1	congruent/STIM_009.jpg
770.704	0.529	correct	congruent	Block1	congruent/STIM_009.jpg
773.593	0.958	incorrect	congruent	Block1	congruent/STIM_009.jpg
777.567	0.629	correct	congruent	Block1	congruent/STIM_009.jpg
781.435	0.4	correct	congruent	Block1	congruent/STIM_010.jpg
785.665	0.554	correct	congruent	Block1	congruent/STIM_010.jpg
789.831	0.508	correct	congruent	Block1	congruent/STIM_010.jpg
792.704	0.648	incorrect	congruent	Block1	congruent/STIM_010.jpg
796.372	0.61	correct	congruent	Block1	congruent/STIM_010.jpg
799.957	0.731	correct	congruent	Block1	congruent/STIM_011.jpg
802.807	0.61	incorrect	congruent	Block1	congruent/STIM_011.jpg
807.29	0.764	correct	congruent	Block1	congruent/STIM_011.jpg
811.357	0.797	correct	congruent	Block1	congruent/STIM_011.jpg
815.803	0.434	correct	congruent	Block1	congruent/STIM_011.jpg
819.048	0.601	correct	congruent	Block1	congruent/STIM_012.jpg
823.354	0.76	correct	congruent	Block1	congruent/STIM_012.jpg
827.707	0.717	correct	congruent	Block1	congruent/STIM_012.jpg
831.891	0.774	incorrect	congruent	Block1	congruent/STIM_012.jpg
834.961	0.54	correct	congruent	Block1	congruent/STIM_012.jpg
839.176	0.757	correct	congruent	Block1	congruent/STIM_013.jpg
843.216	0.545	correct	congruent	Block1	congruent/STIM_013.jpg
846.643	0.829	correct	congruent	Block1	congruent/STIM_013.jpg
851.048	0.458	correct	congruent	Block1	congruent/STIM_013.jpg
855.333	0.65	correct	congruent	Block1	congruent/STIM_013.jpg
859.607	0.858	correct	congruent	Block1	congruent/STIM_014.jpg
862.777	0.877	correct	congruent	Block1	congruent/STIM_014.jpg
866.574	0.616	correct	congruent	Block1	congruent/STIM_014.jpg
869.35	0.572	correct	congruent	Block1	congruent/STIM_014.jpg
872.599	0.787	correct	congruent	Block1	congruent/STIM_014.jpg
875.988	0.747	correct	congruent	Block1	congruent/STIM_015.jpg
879.779	0.587	correct	congruent	Block1	congruent/STIM_015.jpg
883.304	0.718	correct	congruent	Block1	congruent/STIM_015.jpg
886.332	0.775	correct	congruent	Block1	congruent/STIM_015.jpg
889.898	0.477	correct	congruent	Block1	congruent/STIM_015.jpg
894.051	0.54	incorrect	congruent	Block1	congruent/STIM_016.jpg
896.792	0.792	correct	congruent	Block1	congruent/STIM_016.jpg
901.135	0.798	correct	congruent	Block1	congruent/STIM_016.jpg
905.207	0.457	correct	congruent	Block1	congruent/STIM_016.jpg
908.394	0.872	correct	congruent	Block1	congruent/STIM_016.jpg
911.795	0.445	correct	congruent	Block1	congruent/STIM_017.jpg
915.497	0.644	correct	congruent	Block1	congruent/STIM_017.jpg
918.756	0.555	incorrect	congruent	Block1	congruent/STIM_017.jpg
923.15	0.679	correct	congruent	Block1	congruent/STIM_017.jpg
926.985	0.742	correct	congruent	Block1	congruent/STIM_017.jpg
931.519	0.807	correct	congruent	Block1	congruent/STIM_018.jpg
934.907	0.481	correct	congruent	Block1	congruent/STIM_018.jpg
938.317	0.535	correct	congruent	Block1	congruent/STIM_018.jpg
942.728	0.53	correct	congruent	Block1	congruent/STIM_018.jpg
946.909	0.79	correct	congruent	Block1	congruent/STIM_018.jpg
951.249	0.57	correct	congruent	Block1	congruent/STIM_019.jpg
955.694	0.698	correct	congruent	Block1	congruent/STIM_019.jpg
958.807	0.817	correct	congruent	Block1	congruent/STIM_019.jpg
961.516	0.832	correct	congruent	Block1	congruent/STIM_019.jpg
965.632	0.771	correct	congruent	Block1	congruent/STIM_019.jpg
968.642	0.899	correct	congruent	Block1	congruent/STIM_020.jpg
972.25	0.732	correct	congruent	Block1	congruent/STIM_020.jpg
975.755	0.81	correct	congruent	Block1	congruent/STIM_020.jpg
980.417	0.92	incorrect	congruent	Block1	congruent/STIM_020.jpg
984.479	0.565	correct	congruent	Block1	congruent/STIM_020.jpg
988.586	0.571	correct	congruent	Block1	congruent/STIM_021.jpg
992.136	0.677	correct	congruent	Block1	congruent/STIM_021.jpg
994.947	0.849	correct	congruent	Block1	congruent/STIM_021.jpg
998.95	0.592	correct	congruent	Block1	congruent/STIM_021.jpg
1002.367	0.663	correct	congruent	Block1	congruent/STIM_021.jpg
1006.634	0.497	incorrect	congruent	Block1	congruent/STIM_022.jpg
1010.712	0.677	correct	congruent	Block1	congruent/STIM_022.jpg
1015.143	0.79	correct	congruent	Block1	congruent/STIM_022.jpg
1018.467	0.572	correct	congruent	Block1	congruent/STIM_022.jpg
1023.021	0.489	correct	congruent	Block1	congruent/STIM_022.jpg
1027.07	0.652	correct	congruent	Block1	congruent/STIM_023.jpg
1031.409	0.914	correct	congruent	Block1	congruent/STIM_023.jpg
1034.945	0.76	correct	congruent	Block1	congruent/STIM_023.jpg
1038.912	0.665	correct	congruent	Block1	congruent/STIM_023.jpg
1043.426	0.534	correct	congruent	Block1	congruent/STIM_023.jpg
1046.947	0.49	correct	congruent	Block1	congruent/STIM_024.jpg
1050.339	0.911	correct	congruent	Block1	congruent/STIM_024.jpg
1054.641	0.595	correct	congruent	Block1	congruent/STIM_024.jpg
1057.294	0.7	correct	congruent	Block1	congruent/STIM_024.jpg
1060.173	0.724	correct	congruent	Block1	congruent/STIM_024.jpg
1063.375	0.821	correct	congruent	Block1	congruent/STIM_025.jpg
1068.141	0.845	correct	congruent	Block1	congruent/STIM_025.jpg
1072.594	0.544	correct	congruent	Block1	congruent/STIM_025.jpg
1075.489	0.733	correct	congruent	Block1	congruent/STIM_025.jpg
1079.966	0.576	correct	congruent	Block1	congruent/STIM_025.jpg
1084.502	0.601	correct	congruent	Block1	congruent/STIM_026.jpg
1088.238	0.639	correct	congruent	Block1	congruent/STIM_026.jpg
1091.392	0.867	correct	congruent	Block1	congruent/STIM_026.jpg
1094.349	0.642	correct	congruent	Block1	congruent/STIM_026.jpg
1097.771	0.764	correct	congruent	Block1	congruent/STIM_026.jpg
1100.657	0.76	correct	congruent	Block1	congruent/STIM_027.jpg
1105.079	0.625	correct	congruent	Block1	congruent/STIM_027.jpg
1108.612	0.57	correct	congruent	Block1	congruent/STIM_027.jpg
1112.829	0.56	correct	congruent	Block1	congruent/STIM_027.jpg
1117.171	0.794	incorrect	congruent	Block1	congruent/STIM_027.jpg
1120.495	0.633	correct	congruent	Block1	congruent/STIM_028.jpg
1123.959	0.557	correct	congruent	Block1	congruent/STIM_028.jpg
1127.531	0.859	correct	congruent	Block1	congruent/STIM_028.jpg
1130.823	0.69	correct	congruent	Block1	congruent/STIM_028.jpg
1134.096	0.781	incorrect	congruent	Block1	congruent/STIM_028.jpg
1138.132	0.897	correct	congruent	Block1	congruent/STIM_029.jpg
1142.306	0.699	correct	congruent	Block1	congruent/STIM_029.jpg
1145.965	0.695	correct	congruent	Block1	congruent/STIM_029.jpg
1149.698	0.548	correct	congruent	Block1	congruent/STIM_029.jpg
1152.671	0.716	correct	congruent	Block1	congruent/STIM_029.jpg
1155.704	0.762	correct	incongruent	Block2	incongruent/STIM_000.jpg
1159.985	0.981	correct	incongruent	Block2	incongruent/STIM_000.jpg
1164.451	0.96	correct	incongruent	Block2	incongruent/STIM_000.jpg
1169.214	0.497	correct	incongruent	Block2	incongruent/STIM_000.jpg
1172.463	0.502	correct	incongruent	Block2	incongruent/STIM_000.jpg
1176.51	1.192	correct	incongruent	Block2	incongruent/STIM_001.jpg
1181.223	0.787	correct	incongruent	Block2	incongruent/STIM_001.jpg
1184.491	0.819	correct	incongruent	Block2	incongruent/STIM_001.jpg
1188.999	0.642	correct	incongruent	Block2	incongruent/STIM_001.jpg
1192.75	0.557	correct	incongruent	Block2	incongruent/STIM_001.jpg
1197.34	0.626	correct	incongruent	Block2	incongruent/STIM_002.jpg
1201.968	0.683	correct	incongruent	Block2	incongruent/STIM_002.jpg
1205.543	0.534	correct	incongruent	Block2	incongruent/STIM_002.jpg
1209.126	0.688	correct	incongruent	Block2	incongruent/STIM_002.jpg
1212.921	0.717	correct	incongruent	Block2	incongruent/STIM_002.jpg
1216.081	0.746	correct	incongruent	Block2	incongruent/STIM_003.jpg
1220.833	1.018	correct	incongruent	Block2	incongruent/STIM_003.jpg
1225.854	0.725	correct	incongruent	Block2	incongruent/STIM_003.jpg
1229.307	0.75	correct	incongruent	Block2	incongruent/STIM_003.jpg
1233.618	0.682	correct	incongruent	Block2	incongruent/STIM_003.jpg
1237.758	0.619	correct	incongruent	Block2	incongruent/STIM_004.jpg
1241.117	0.547	correct	incongruent	Block2	incongruent/STIM_004.jpg
1245.505	0.556	correct	incongruent	Block2	incongruent/STIM_004.jpg
1249.772	0.587	correct	incongruent	Block2	incongruent/STIM_004.jpg
1252.851	0.772	correct	incongruent	Block2	incongruent/STIM_004.jpg
1257.126	0.965	correct	incongruent	Block2	incongruent/STIM_005.jpg
1260.572	0.82	correct	incongruent	Block2	incongruent/STIM_005.jpg
1263.667	0.723	correct	incongruent	Block2	incongruent/STIM_005.jpg
1267.84	0.935	correct	incongruent	Block2	incongruent/STIM_005.jpg
1272.846	0.682	correct	incongruent	Block2	incongruent/STIM_005.jpg
1275.758	1.006	correct	incongruent	Block2	incongruent/STIM_006.jpg
1280.561	0.625	correct	incongruent	Block2	incongruent/STIM_006.jpg
1283.971	0.779	correct	incongruent	Block2	incongruent/STIM_006.jpg
1287.098	0.83	incorrect	incongruent	Block2	incongruent/STIM_006.jpg
1291.852	0.669	correct	incongruent	Block2	incongruent/STIM_006.jpg
1295.228	0.848	correct	incongruent	Block2	incongruent/STIM_007.jpg
1299.264	0.903	correct	incongruent	Block2	incongruent/STIM_007.jpg
1302.598	0.609	correct	incongruent	Block2	incongruent/STIM_007.jpg
1306.06	0.993	correct	incongruent	Block2	incongruent/STIM_007.jpg
1310.631	0.941	correct	incongruent	Block2	incongruent/STIM_007.jpg
1315.509	0.866	correct	incongruent	Block2	incongruent/STIM_008.jpg
1319.925	1.08	correct	incongruent	Block2	incongruent/STIM_008.jpg
1324.446	1.051	correct	incongruent	Block2	incongruent/STIM_008.jpg
1328.246	0.52	correct	incongruent	Block2	incongruent/STIM_008.jpg
1331.632	1.074	correct	incongruent	Block2	incongruent/STIM_008.jpg
1334.942	1.097	correct	incongruent	Block2	incongruent/STIM_009.jpg
1339.324	0.675	correct	incongruent	Block2	incongruent/STIM_009.jpg
1342.889	1.055	incorrect	incongruent	Block2	incongruent/STIM_009.jpg
1346.228	1.048	correct	incongruent	Block2	incongruent/STIM_009.jpg
1349.85	0.711	correct	incongruent	Block2	incongruent/STIM_009.jpg
1354.159	0.637	correct	incongruent	Block2	incongruent/STIM_010.jpg
1358.223	1.128	correct	incongruent	Block2	incongruent/STIM_010.jpg
1362.661	1.174	correct	incongruent	Block2	incongruent/STIM_010.jpg
1367.711	0.784	correct	incongruent	Block2	incongruent/STIM_010.jpg
1371.845	0.863	correct	incongruent	Block2	incongruent/STIM_010.jpg
1375.171	0.862	correct	incongruent	Block2	incongruent/STIM_011.jpg
1379.172	1.068	correct	incongruent	Block2	incongruent/STIM_011.jpg
1383.471	0.961	correct	incongruent	Block2	incongruent/STIM_011.jpg
1388.26	0.761	correct	incongruent	Block2	incongruent/STIM_011.jpg
1392.036	0.727	correct	incongruent	Block2	incongruent/STIM_011.jpg
1395.92	0.845	correct	incongruent	Block2	incongruent/STIM_012.jpg
1399.078	0.726	correct	incongruent	Block2	incongruent/STIM_012.jpg
1402.378	1.092	correct	incongruent	Block2	incongruent/STIM_012.jpg
1405.636	0.805	correct	incongruent	Block2	incongruent/STIM_012.jpg
1410.474	0.949	correct	incongruent	Block2	incongruent/STIM_012.jpg
1413.918	0.866	correct	incongruent	Block2	incongruent/STIM_013.jpg
1416.999	0.858	correct	incongruent	Block2	incongruent/STIM_013.jpg
1420.41	0.547	correct	incongruent	Block2	incongruent/STIM_013.jpg
1424.252	0.899	correct	incongruent	Block2	incongruent/STIM_013.jpg
1427.27	0.774	correct	incongruent	Block2	incongruent/STIM_013.jpg
1432.008	0.955	correct	incongruent	Block2	incongruent/STIM_014.jpg
1435.525	0.722	correct	incongruent	Block2	incongruent/STIM_014.jpg
1439.167	0.524	correct	incongruent	Block2	incongruent/STIM_014.jpg
1443.768	0.866	correct	incongruent	Block2	incongruent/STIM_014.jpg
1447.788	0.855	correct	incongruent	Block2	incongruent/STIM_014.jpg
1451.836	0.751	incorrect	incongruent	Block2	incongruent/STIM_015.jpg
1455.48	1.126	correct	incongruent	Block2	incongruent/STIM_015.jpg
1460.298	0.925	correct	incongruent	Block2	incongruent/STIM_015.jpg
1463.568	0.652	correct	incongruent	Block2	incongruent/STIM_015.jpg
1466.636	1.033	correct	incongruent	Block2	incongruent/STIM_015.jpg
1469.714	0.604	correct	incongruent	Block2	incongruent/STIM_016.jpg
1472.4	1.152	correct	incongruent	Block2	incongruent/STIM_016.jpg
1475.956	0.882	correct	incongruent	Block2	incongruent/STIM_016.jpg
1480.007	0.746	correct	incongruent	Block2	incongruent/STIM_016.jpg
1484.099	0.689	correct	incongruent	Block2	incongruent/STIM_016.jpg
1488.676	1.015	correct	incongruent	Block2	incongruent/STIM_017.jpg
1493.442	0.631	correct	incongruent	Block2	incongruent/STIM_017.jpg
1496.656	0.779	correct	incongruent	Block2	incongruent/STIM_017.jpg
1500.053	0.68	correct	incongruent	Block2	incongruent/STIM_017.jpg
1504.586	0.772	correct	incongruent	Block2	incongruent/STIM_017.jpg
1508.634	1.027	correct	incongruent	Block2	incongruent/STIM_018.jpg
1513.673	0.998	correct	incongruent	Block2	incongruent/STIM_018.jpg
1517.096	1.043	incorrect	incongruent	Block2	incongruent/STIM_018.jpg
1522.096	0.652	correct	incongruent	Block2	incongruent/STIM_018.jpg
1525.686	0.533	correct	incongruent	Block2	incongruent/STIM_018.jpg
1528.587	0.649	correct	incongruent	Block2	incongruent/STIM_019.jpg
1532.856	0.492	correct	incongruent	Block2	incongruent/STIM_019.jpg
1535.97	1.026	correct	incongruent	Block2	incongruent/STIM_019.jpg
1540.665	0.819	correct	incongruent	Block2	incongruent/STIM_019.jpg
1545.124	1.032	correct	incongruent	Block2	incongruent/STIM_019.jpg
1548.127	1.017	correct	incongruent	Block2	incongruent/STIM_020.jpg
1552.927	0.608	correct	incongruent	Block2	incongruent/STIM_020.jpg
1556.16	1.115	correct	incongruent	Block2	incongruent/STIM_020.jpg
1559.895	0.822	correct	incongruent	Block2	incongruent/STIM_020.jpg
1563.005	1.012	correct	incongruent	Block2	incongruent/STIM_020.jpg
1567.46	1.029	correct	incongruent	Block2	incongruent/STIM_021.jpg
1570.448	0.906	correct	incongruent	Block2	incongruent/STIM_021.jpg
1574.769	0.638	correct	incongruent	Block2	incongruent/STIM_021.jpg
1578.78	0.659	correct	incongruent	Block2	incongruent/STIM_021.jpg
1581.761	0.748	correct	incongruent	Block2	incongruent/STIM_021.jpg
1584.632	0.792	correct	incongruent	Block2	incongruent/STIM_022.jpg
1587.841	0.629	correct	incongruent	Block2	incongruent/STIM_022.jpg
1592.257	0.626	correct	incongruent	Block2	incongruent/STIM_022.jpg
1596.375	0.99	correct	incongruent	Block2	incongruent/STIM_022.jpg
1600.257	0.634	correct	incongruent	Block2	incongruent/STIM_022.jpg
1604.232	1.12	correct	incongruent	Block2	incongruent/STIM_023.jpg
1607.845	0.744	correct	incongruent	Block2	incongruent/STIM_023.jpg
1612.619	0.722	correct	incongruent	Block2	incongruent/STIM_023.jpg
1617.253	0.416	correct	incongruent	Block2	incongruent/STIM_023.jpg
1619.876	0.712	correct	incongruent	Block2	incongruent/STIM_023.jpg
1624.15	0.996	correct	incongruent	Block2	incongruent/STIM_024.jpg
1627.274	0.803	correct	incongruent	Block2	incongruent/STIM_024.jpg
1630.904	0.591	correct	incongruent	Block2	incongruent/STIM_024.jpg
1633.648	0.493	correct	incongruent	Block2	incongruent/STIM_024.jpg
1636.435	0.618	correct	incongruent	Block2	incongruent/STIM_024.jpg
1641.043	1.233	correct	incongruent	Block2	incongruent/STIM_025.jpg
1644.443	0.618	correct	incongruent	Block2	incongruent/STIM_025.jpg
1648.929	0.979	correct	incongruent	Block2	incongruent/STIM_025.jpg
1652.988	0.858	correct	incongruent	Block2	incongruent/STIM_025.jpg
1656.732	0.776	correct	incongruent	Block2	incongruent/STIM_025.jpg
1659.622	0.896	correct	incongruent	Block2	incongruent/STIM_026.jpg
1664.182	1.074	correct	incongruent	Block2	incongruent/STIM_026.jpg
1668.661	0.922	correct	incongruent	Block2	incongruent/STIM_026.jpg
1672.551	0.565	correct	incongruent	Block2	incongruent/STIM_026.jpg
1675.828	0.65	correct	incongruent	Block2	incongruent/STIM_026.jpg
1680.46	1.069	correct	incongruent	Block2	incongruent/STIM_027.jpg
1685.365	0.989	correct	incongruent	Block2	incongruent/STIM_027.jpg
1688.872	0.922	correct	incongruent	Block2	incongruent/STIM_027.jpg
1693.277	0.869	correct	incongruent	Block2	incongruent/STIM_027.jpg
1697.889	0.801	correct	incongruent	Block2	incongruent/STIM_027.jpg
1702.396	0.724	correct	incongruent	Block2	incongruent/STIM_028.jpg
1706.051	0.823	correct	incongruent	Block2	incongruent/STIM_028.jpg
1709.728	1.048	correct	incongruent	Block2	incongruent/STIM_028.jpg
1714.364	0.891	correct	incongruent	Block2	incongruent/STIM_028.jpg
1717.822	0.824	correct	incongruent	Block2	incongruent/STIM_028.jpg
1720.889	1.0	correct	incongruent	Block2	incongruent/STIM_029.jpg
1725.793	0.793	correct	incongruent	Block2	incongruent/STIM_029.jpg
1729.507	1.065	correct	incongruent	Block2	incongruent/STIM_029.jpg
1734.188	0.699	correct	incongruent	Block2	incongruent/STIM_029.jpg
1738.22	0.576	correct	incongruent	Block2	incongruent/STIM_029.jpg
1741.982	0.704	correct	congruent	Block2	congruent/STIM_000.jpg
1745.721	0.67	correct	congruent	Block2	congruent/STIM_000.jpg
1749.52	0.5	correct	congruent	Block2	congruent/STIM_000.jpg
1753.818	0.501	correct	congruent	Block2	congruent/STIM_000.jpg
1757.049	0.778	correct	congruent	Block2	congruent/STIM_000.jpg
1761.63	0.726	correct	congruent	Block2	congruent/STIM_001.jpg
1765.359	0.43	correct	congruent	Block2	congruent/STIM_001.jpg
1768.533	0.569	correct	congruent	Block2	congruent/STIM_001.jpg
1772.178	0.79	correct	congruent	Block2	congruent/STIM_001.jpg
1776.431	0.498	correct	congruent	Block2	congruent/STIM_001.jpg
1779.662	0.759	correct	congruent	Block2	congruent/STIM_002.jpg
1784.252	0.846	correct	congruent	Block2	congruent/STIM_002.jpg
1787.521	0.776	correct	congruent	Block2	congruent/STIM_002.jpg
1792.043	0.76	correct	congruent	Block2	congruent/STIM_002.jpg
1795.969	0.776	correct	congruent	Block2	congruent/STIM_002.jpg
1799.748	0.506	correct	congruent	Block2	congruent/STIM_003.jpg
1803.654	0.666	correct	congruent	Block2	congruent/STIM_003.jpg
1806.73	0.466	correct	congruent	Block2	congruent/STIM_003.jpg
1811.028	0.704	correct	congruent	Block2	congruent/STIM_003.jpg
1815.547	0.531	correct	congruent	Block2	congruent/STIM_003.jpg
1819.865	0.675	correct	congruent	Block2	congruent/STIM_004.jpg
1823.791	0.555	correct	congruent	Block2	congruent/STIM_004.jpg
1827.771	0.75	correct	congruent	Block2	congruent/STIM_004.jpg
1831.036	0.83	correct	congruent	Block2	congruent/STIM_004.jpg
1835.302	0.801	correct	congruent	Block2	congruent/STIM_004.jpg
1838.571	0.489	correct	congruent	Block2	congruent/STIM_005.jpg
1841.621	0.734	correct	congruent	Block2	congruent/STIM_005.jpg
1846.332	0.52	correct	congruent	Block2	congruent/STIM_005.jpg
1849.491	0.729	correct	congruent	Block2	congruent/STIM_005.jpg
1852.923	0.818	correct	congruent	Block2	congruent/STIM_005.jpg
1856.04	0.57	correct	congruent	Block2	congruent/STIM_006.jpg
1858.974	0.734	correct	congruent	Block2	congruent/STIM_006.jpg
1861.712	0.491	correct	congruent	Block2	congruent/STIM_006.jpg
1865.499	0.535	correct	congruent	Block2	congruent/STIM_006.jpg
1869.181	0.686	correct	congruent	Block2	congruent/STIM_006.jpg
1872.754	0.626	correct	congruent	Block2	congruent/STIM_007.jpg
1877.094	0.517	correct	congruent	Block2	congruent/STIM_007.jpg
1880.055	0.821	correct	congruent	Block2	congruent/STIM_007.jpg
1883.427	0.707	correct	congruent	Block2	congruent/STIM_007.jpg
1886.444	0.555	correct	congruent	Block2	congruent/STIM_007.jpg
1889.378	0.52	correct	congruent	Block2	congruent/STIM_008.jpg
1892.227	0.496	correct	congruent	Block2	congruent/STIM_008.jpg
1896.278	0.774	correct	congruent	Block2	congruent/STIM_008.jpg
1900.704	0.531	correct	congruent	Block2	congruent/STIM_008.jpg
1903.801	0.75	correct	congruent	Block2	congruent/STIM_008.jpg
1907.989	0.706	correct	congruent	Block2	congruent/STIM_009.jpg
1910.906	0.601	correct	congruent	Block2	congruent/STIM_009.jpg
1913.867	0.804	correct	congruent	Block2	congruent/STIM_009.jpg
1916.784	0.47	correct	congruent	Block2	congruent/STIM_009.jpg
1921.314	0.58	correct	congruent	Block2	congruent/STIM_009.jpg
1924.661	0.526	correct	congruent	Block2	congruent/STIM_010.jpg
1927.404	0.951	correct	congruent	Block2	congruent/STIM_010.jpg
1931.55	0.526	correct	congruent	Block2	congruent/STIM_010.jpg
1936.022	0.652	incorrect	congruent	Block2	congruent/STIM_010.jpg
1939.67	0.636	correct	congruent	Block2	congruent/STIM_010.jpg
1942.739	0.66	correct	congruent	Block2	congruent/STIM_011.jpg
1946.052	0.68	correct	congruent	Block2	congruent/STIM_011.jpg
1949.612	0.765	correct	congruent	Block2	congruent/STIM_011.jpg
1953.556	0.506	correct	congruent	Block2	congruent/STIM_011.jpg
1957.093	0.569	correct	congruent	Block2	congruent/STIM_011.jpg
1960.603	0.817	correct	congruent	Block2	congruent/STIM_012.jpg
1963.731	0.835	correct	congruent	Block2	congruent/STIM_012.jpg
1968.526	0.685	correct	congruent	Block2	congruent/STIM_012.jpg
1972.102	0.738	correct	congruent	Block2	congruent/STIM_012.jpg
1976.106	0.542	correct	congruent	Block2	congruent/STIM_012.jpg
1979.53	0.608	correct	congruent	Block2	congruent/STIM_013.jpg
1982.547	0.826	correct	congruent	Block2	congruent/STIM_013.jpg
1987.007	0.582	correct	congruent	Block2	congruent/STIM_013.jpg
1990.382	0.752	correct	congruent	Block2	congruent/STIM_013.jpg
1994.698	0.804	correct	congruent	Block2	congruent/STIM_013.jpg
1998.275	0.678	correct	congruent	Block2	congruent/STIM_014.jpg
2002.746	0.658	correct	congruent	Block2	congruent/STIM_014.jpg
2006.29	0.559	correct	congruent	Block2	congruent/STIM_014.jpg
2010.871	0.681	correct	congruent	Block2	congruent/STIM_014.jpg
2013.992	0.656	correct	congruent	Block2	congruent/STIM_014.jpg
2017.97	0.777	correct	congruent	Block2	congruent/STIM_015.jpg
2021.165	0.614	incorrect	congruent	Block2	congruent/STIM_015.jpg
2025.182	0.912	correct	congruent	Block2	congruent/STIM_015.jpg
2028.874	0.647	correct	congruent	Block2	congruent/STIM_015.jpg
2033.345	0.874	correct	congruent	Block2	congruent/STIM_015.jpg
2037.767	0.873	correct	congruent	Block2	congruent/STIM_016.jpg
2041.68	0.693	correct	congruent	Block2	congruent/STIM_016.jpg
2045.737	0.838	correct	congruent	Block2	congruent/STIM_016.jpg
2050.142	0.533	correct	congruent	Block2	congruent/STIM_016.jpg
2053.797	0.61	correct	congruent	Block2	congruent/STIM_016.jpg
2058.169	0.532	correct	congruent	Block2	congruent/STIM_017.jpg
2061.553	0.826	correct	congruent	Block2	congruent/STIM_017.jpg
2065.978	0.561	correct	congruent	Block2	congruent/STIM_017.jpg
2069.038	0.648	correct	congruent	Block2	congruent/STIM_017.jpg
2072.783	0.523	correct	congruent	Block2	congruent/STIM_017.jpg
2076.678	0.833	correct	congruent	Block2	congruent/STIM_018.jpg
2080.577	0.711	correct	congruent	Block2	congruent/STIM_018.jpg
2084.408	0.674	correct	congruent	Block2	congruent/STIM_018.jpg
2089.016	0.58	correct	congruent	Block2	congruent/STIM_018.jpg
2093.02	0.519	correct	congruent	Block2	congruent/STIM_018.jpg
2095.835	0.54	correct	congruent	Block2	congruent/STIM_019.jpg
2099.188	0.89	correct	congruent	Block2	congruent/STIM_019.jpg
2102.312	0.591	correct	congruent	Block2	congruent/STIM_019.jpg
2106.174	0.803	correct	congruent	Block2	congruent/STIM_019.jpg
2110.283	0.823	correct	congruent	Block2	congruent/STIM_019.jpg
2114.708	0.68	correct	congruent	Block2	congruent/STIM_020.jpg
2119.4	0.581	correct	congruent	Block2	congruent/STIM_020.jpg
2123.897	0.815	correct	congruent	Block2	congruent/STIM_020.jpg
2127.554	0.618	correct	congruent	Block2	congruent/STIM_020.jpg
2131.926	0.679	correct	congruent	Block2	congruent/STIM_020.jpg
2135.032	0.857	correct	congruent	Block2	congruent/STIM_021.jpg
2139.117	0.692	correct	congruent	Block2	congruent/STIM_021.jpg
2143.022	0.532	correct	congruent	Block2	congruent/STIM_021.jpg
2146.422	0.762	correct	congruent	Block2	congruent/STIM_021.jpg
2149.4	0.653	correct	congruent	Block2	congruent/STIM_021.jpg
2152.672	0.6	correct	congruent	Block2	congruent/STIM_022.jpg
2156.227	0.571	correct	congruent	Block2	congruent/STIM_022.jpg
2159.034	0.474	correct	congruent	Block2	congruent/STIM_022.jpg
2163.49	0.926	incorrect	congruent	Block2	congruent/STIM_022.jpg
2167.763	0.813	correct	congruent	Block2	congruent/STIM_022.jpg
2172.177	0.86	correct	congruent	Block2	congruent/STIM_023.jpg
2175.81	0.529	correct	congruent	Block2	congruent/STIM_023.jpg
2180.149	0.534	incorrect	congruent	Block2	congruent/STIM_023.jpg
2183.747	0.66	correct	congruent	Block2	congruent/STIM_023.jpg
2187.224	0.798	correct	congruent	Block2	congruent/STIM_023.jpg
2191.855	0.521	correct	congruent	Block2	congruent/STIM_024.jpg
2195.869	0.579	correct	congruent	Block2	congruent/STIM_024.jpg
2198.788	0.737	correct	congruent	Block2	congruent/STIM_024.jpg
2202.507	0.58	correct	congruent	Block2	congruent/STIM_024.jpg
2206.574	0.493	correct	congruent	Block2	congruent/STIM_024.jpg
2210.451	0.75	correct	congruent	Block2	congruent/STIM_025.jpg
2215.081	0.762	correct	congruent	Block2	congruent/STIM_025.jpg
2218.938	0.772	correct	congruent	Block2	congruent/STIM_025.jpg
2222.05	0.739	correct	congruent	Block2	congruent/STIM_025.jpg
2226.825	0.604	correct	congruent	Block2	congruent/STIM_025.jpg
2231.006	0.793	correct	congruent	Block2	congruent/STIM_026.jpg
2235.544	0.524	correct	congruent	Block2	congruent/STIM_026.jpg
2238.814	0.658	correct	congruent	Block2	congruent/STIM_026.jpg
2242.12	0.788	correct	congruent	Block2	congruent/STIM_026.jpg
2245.282	0.695	incorrect	congruent	Block2	congruent/STIM_026.jpg
2249.938	0.618	correct	congruent	Block2	congruent/STIM_027.jpg
2253.073	0.672	correct	congruent	Block2	congruent/STIM_027.jpg
2256.613	0.736	correct	congruent	Block2	congruent/STIM_027.jpg
2259.747	0.523	correct	congruent	Block2	congruent/STIM_027.jpg
2262.403	0.505	correct	congruent	Block2	congruent/STIM_027.jpg
2266.099	0.708	correct	congruent	Block2	congruent/STIM_028.jpg
2269.864	0.763	correct	congruent	Block2	congruent/STIM_028.jpg
2274.086	0.575	correct	congruent	Block2	congruent/STIM_028.jpg
2278.199	0.641	correct	congruent	Block2	congruent/STIM_028.jpg
2281.25	0.636	correct	congruent	Block2	congruent/STIM_028.jpg
2284.672	0.517	correct	congruent	Block2	congruent/STIM_029.jpg
2288.854	0.674	correct	congruent	Block2	congruent/STIM_029.jpg
2293.254	0.814	correct	congruent	Block2	congruent/STIM_029.jpg
2296.864	0.745	correct	congruent	Block2	congruent/STIM_029.jpg
2300.363	0.611	correct	congruent	Block2	congruent/STIM_029.jpg
2303.699	0.931	correct	incongruent	Block3	incongruent/STIM_000.jpg
2308.478	1.067	correct	incongruent	Block3	incongruent/STIM_000.jpg
2311.602	0.73	correct	incongruent	Block3	incongruent/STIM_000.jpg
2316.045	0.61	correct	incongruent	Block3	incongruent/STIM_000.jpg
2318.73	0.909	correct	incongruent	Block3	incongruent/STIM_000.jpg
2322.17	1.018	correct	incongruent	Block3	incongruent/STIM_001.jpg
2325.734	0.683	correct	incongruent	Block3	incongruent/STIM_001.jpg
2329.495	0.929	correct	incongruent	Block3	incongruent/STIM_001.jpg
2333.943	0.684	correct	incongruent	Block3	incongruent/STIM_001.jpg
2337.811	0.951	correct	incongruent	Block3	incongruent/STIM_001.jpg
2341.732	0.801	correct	incongruent	Block3	incongruent/STIM_002.jpg
2345.317	1.057	correct	incongruent	Block3	incongruent/STIM_002.jpg
2348.317	0.97	correct	incongruent	Block3	incongruent/STIM_002.jpg
2352.507	0.414	correct	incongruent	Block3	incongruent/STIM_002.jpg
2356.209	0.781	correct	incongruent	Block3	incongruent/STIM_002.jpg
2360.299	0.74	correct	incongruent	Block3	incongruent/STIM_003.jpg
2364.101	0.864	correct	incongruent	Block3	incongruent/STIM_003.jpg
2367.15	0.6	correct	incongruent	Block3	incongruent/STIM_003.jpg
2371.395	0.985	correct	incongruent	Block3	incongruent/STIM_003.jpg
2375.596	0.737	correct	incongruent	Block3	incongruent/STIM_003.jpg
2379.145	0.626	correct	incongruent	Block3	incongruent/STIM_004.jpg
2383.044	0.799	correct	incongruent	Block3	incongruent/STIM_004.jpg
2385.97	0.841	correct	incongruent	Block3	incongruent/STIM_004.jpg
2390.162	0.563	correct	incongruent	Block3	incongruent/STIM_004.jpg
2392.774	0.601	correct	incongruent	Block3	incongruent/STIM_004.jpg
2395.853	0.841	correct	incongruent	Block3	incongruent/STIM_005.jpg
2399.716	0.719	correct	incongruent	Block3	incongruent/STIM_005.jpg
2404.366	0.846	correct	incongruent	Block3	incongruent/STIM_005.jpg
2408.509	0.729	correct	incongruent	Block3	incongruent/STIM_005.jpg
2411.892	0.759	correct	incongruent	Block3	incongruent/STIM_005.jpg
2416.606	0.725	correct	incongruent	Block3	incongruent/STIM_006.jpg
2419.4	0.786	correct	incongruent	Block3	incongruent/STIM_006.jpg
2423.305	0.918	correct	incongruent	Block3	incongruent/STIM_006.jpg
2428.207	0.813	correct	incongruent	Block3	incongruent/STIM_006.jpg
2432.094	0.766	correct	incongruent	Block3	incongruent/STIM_006.jpg
2436.401	0.554	correct	incongruent	Block3	incongruent/STIM_007.jpg
2439.717	0.549	correct	incongruent	Block3	incongruent/STIM_007.jpg
2444.251	0.618	correct	incongruent	Block3	incongruent/STIM_007.jpg
2447.687	0.736	correct	incongruent	Block3	incongruent/STIM_007.jpg
2451.3	0.753	correct	incongruent	Block3	incongruent/STIM_007.jpg
2454.76	0.595	correct	incongruent	Block3	incongruent/STIM_008.jpg
2458.343	0.649	correct	incongruent	Block3	incongruent/STIM_008.jpg
2462.637	0.995	correct	incongruent	Block3	incongruent/STIM_008.jpg
2467.666	0.884	correct	incongruent	Block3	incongruent/STIM_008.jpg
2471.692	1.043	correct	incongruent	Block3	incongruent/STIM_008.jpg
2476.203	0.568	correct	incongruent	Block3	incongruent/STIM_009.jpg
2479.253	0.811	incorrect	incongruent	Block3	incongruent/STIM_009.jpg
2482.916	0.995	correct	incongruent	Block3	incongruent/STIM_009.jpg
2486.82	0.811	correct	incongruent	Block3	incongruent/STIM_009.jpg
2490.909	0.973	correct	incongruent	Block3	incongruent/STIM_009.jpg
2494.251	0.489	correct	incongruent	Block3	incongruent/STIM_010.jpg
2497.396	0.746	incorrect	incongruent	Block3	incongruent/STIM_010.jpg
2501.93	0.685	correct	incongruent	Block3	incongruent/STIM_010.jpg
2505.938	0.466	correct	incongruent	Block3	incongruent/STIM_010.jpg
2509.976	0.496	correct	incongruent	Block3	incongruent/STIM_010.jpg
2512.689	0.96	correct	incongruent	Block3	incongruent/STIM_011.jpg
2515.781	0.636	correct	incongruent	Block3	incongruent/STIM_011.jpg
2518.506	0.827	correct	incongruent	Block3	incongruent/STIM_011.jpg
2522.681	0.725	correct	incongruent	Block3	incongruent/STIM_011.jpg
2526.11	0.925	correct	incongruent	Block3	incongruent/STIM_011.jpg
2530.804	0.643	correct	incongruent	Block3	incongruent/STIM_012.jpg
2535.202	0.525	correct	incongruent	Block3	incongruent/STIM_012.jpg
2538.184	0.491	correct	incongruent	Block3	incongruent/STIM_012.jpg
2542.235	0.572	correct	incongruent	Block3	incongruent/STIM_012.jpg
2546.664	0.586	correct	incongruent	Block3	incongruent/STIM_012.jpg
2549.272	0.97	correct	incongruent	Block3	incongruent/STIM_013.jpg
2552.866	0.68	correct	incongruent	Block3	incongruent/STIM_013.jpg
2555.669	0.646	correct	incongruent	Block3	incongruent/STIM_013.jpg
2558.557	0.825	correct	incongruent	Block3	incongruent/STIM_013.jpg
2563.108	0.54	correct	incongruent	Block3	incongruent/STIM_013.jpg
2565.936	0.735	correct	incongruent	Block3	incongruent/STIM_014.jpg
2570.545	0.834	correct	incongruent	Block3	incongruent/STIM_014.jpg
2573.826	0.89	correct	incongruent	Block3	incongruent/STIM_014.jpg
2576.67	0.747	correct	incongruent	Block3	incongruent/STIM_014.jpg
2581.561	0.754	correct	incongruent	Block3	incongruent/STIM_014.jpg
2585.131	0.921	correct	incongruent	Block3	incongruent/STIM_015.jpg
2588.236	0.672	correct	incongruent	Block3	incongruent/STIM_015.jpg
2592.443	0.821	correct	incongruent	Block3	incongruent/STIM_015.jpg
2595.439	0.966	correct	incongruent	Block3	incongruent/STIM_015.jpg
2598.743	0.525	correct	incongruent	Block3	incongruent/STIM_015.jpg
2602.238	0.745	correct	incongruent	Block3	incongruent/STIM_016.jpg
2605.783	0.925	correct	incongruent	Block3	incongruent/STIM_016.jpg
2609.646	0.805	correct	incongruent	Block3	incongruent/STIM_016.jpg
2614.236	0.878	correct	incongruent	Block3	incongruent/STIM_016.jpg
2617.859	0.836	correct	incongruent	Block3	incongruent/STIM_016.jpg
2622.401	1.077	correct	incongruent	Block3	incongruent/STIM_017.jpg
2626.664	0.627	correct	incongruent	Block3	incongruent/STIM_017.jpg
2630.027	0.716	correct	incongruent	Block3	incongruent/STIM_017.jpg
2633.737	0.485	correct	incongruent	Block3	incongruent/STIM_017.jpg
2636.338	0.798	correct	incongruent	Block3	incongruent/STIM_017.jpg
2641.005	0.598	correct	incongruent	Block3	incongruent/STIM_018.jpg
2644.265	0.912	correct	incongruent	Block3	incongruent/STIM_018.jpg
2648.244	0.887	correct	incongruent	Block3	incongruent/STIM_018.jpg
2652.46	0.976	correct	incongruent	Block3	incongruent/STIM_018.jpg
2657.294	0.681	correct	incongruent	Block3	incongruent/STIM_018.jpg
2661.793	0.856	correct	incongruent	Block3	incongruent/STIM_019.jpg
2666.412	0.816	correct	incongruent	Block3	incongruent/STIM_019.jpg
2669.84	0.978	correct	incongruent	Block3	incongruent/STIM_019.jpg
2672.97	0.628	correct	incongruent	Block3	incongruent/STIM_019.jpg
2676.288	0.611	correct	incongruent	Block3	incongruent/STIM_019.jpg
2679.958	0.618	correct	incongruent	Block3	incongruent/STIM_020.jpg
2684.179	0.8	correct	incongruent	Block3	incongruent/STIM_020.jpg
2687.95	0.563	correct	incongruent	Block3	incongruent/STIM_020.jpg
2691.182	0.743	correct	incongruent	Block3	incongruent/STIM_020.jpg
2694.13	0.624	correct	incongruent	Block3	incongruent/STIM_020.jpg
2698.267	0.677	correct	incongruent	Block3	incongruent/STIM_021.jpg
2701.191	0.681	correct	incongruent	Block3	incongruent/STIM_021.jpg
2704.283	1.078	correct	incongruent	Block3	incongruent/STIM_021.jpg
2707.354	0.481	correct	incongruent	Block3	incongruent/STIM_021.jpg
2711.867	0.605	correct	incongruent	Block3	incongruent/STIM_021.jpg
2716.059	0.512	correct	incongruent	Block3	incongruent/STIM_022.jpg
2720.255	0.978	correct	incongruent	Block3	incongruent/STIM_022.jpg
2725.111	0.498	correct	incongruent	Block3	incongruent/STIM_022.jpg
2729.185	0.546	correct	incongruent	Block3	incongruent/STIM_022.jpg
2732.565	0.713	correct	incongruent	Block3	incongruent/STIM_022.jpg
2735.989	0.898	correct	incongruent	Block3	incongruent/STIM_023.jpg
2740.012	0.616	correct	incongruent	Block3	incongruent/STIM_023.jpg
2743.643	0.511	correct	incongruent	Block3	incongruent/STIM_023.jpg
2747.901	0.65	correct	incongruent	Block3	incongruent/STIM_023.jpg
2752.316	0.608	correct	incongruent	Block3	incongruent/STIM_023.jpg
2756.029	0.754	correct	incongruent	Block3	incongruent/STIM_024.jpg
2759.002	0.52	correct	incongruent	Block3	incongruent/STIM_024.jpg
2761.97	0.628	correct	incongruent	Block3	incongruent/STIM_024.jpg
2764.635	0.772	correct	incongruent	Block3	incongruent/STIM_024.jpg
2769.004	0.869	correct	incongruent	Block3	incongruent/STIM_024.jpg
2773.796	0.917	correct	incongruent	Block3	incongruent/STIM_025.jpg
2777.133	0.578	correct	incongruent	Block3	incongruent/STIM_025.jpg
2780.638	0.672	correct	incongruent	Block3	incongruent/STIM_025.jpg
2784.503	0.856	correct	incongruent	Block3	incongruent/STIM_025.jpg
2789.015	0.512	correct	incongruent	Block3	incongruent/STIM_025.jpg
2792.836	0.579	correct	incongruent	Block3	incongruent/STIM_026.jpg
2797.314	0.85	correct	incongruent	Block3	incongruent/STIM_026.jpg
2800.446	0.981	correct	incongruent	Block3	incongruent/STIM_026.jpg
2804.194	0.55	correct	incongruent	Block3	incongruent/STIM_026.jpg
2808.453	0.67	correct	incongruent	Block3	incongruent/STIM_026.jpg
2812.025	0.789	correct	incongruent	Block3	incongruent/STIM_027.jpg
2815.004	1.065	correct	incongruent	Block3	incongruent/STIM_027.jpg
2819.961	0.798	correct	incongruent	Block3	incongruent/STIM_027.jpg
2823.313	0.669	correct	incongruent	Block3	incongruent/STIM_027.jpg
2827.567	1.006	correct	incongruent	Block3	incongruent/STIM_027.jpg
2831.39	0.456	incorrect	incongruent	Block3	incongruent/STIM_028.jpg
2834.603	0.972	correct	incongruent	Block3	incongruent/STIM_028.jpg
2838.79	0.851	correct	incongruent	Block3	incongruent/STIM_028.jpg
2842.689	0.675	correct	incongruent	Block3	incongruent/STIM_028.jpg
2846.333	0.849	correct	incongruent	Block3	incongruent/STIM_028.jpg
2849.583	0.901	correct	incongruent	Block3	incongruent/STIM_029.jpg
2854.439	0.67	correct	incongruent	Block3	incongruent/STIM_029.jpg
2857.281	0.805	correct	incongruent	Block3	incongruent/STIM_029.jpg
2861.391	0.734	correct	incongruent	Block3	incongruent/STIM_029.jpg
2865.036	0.898	correct	incongruent	Block3	incongruent/STIM_029.jpg
2868.331	0.794	correct	congruent	Block3	congruent/STIM_000.jpg
2872.274	0.869	correct	congruent	Block3	congruent/STIM_000.jpg
2875.271	0.819	correct	congruent	Block3	congruent/STIM_000.jpg
2879.407	0.466	correct	congruent	Block3	congruent/STIM_000.jpg
2882.113	0.454	correct	congruent	Block3	congruent/STIM_000.jpg
2885.314	0.608	correct	congruent	Block3	congruent/STIM_001.jpg
2890.006	0.811	correct	congruent	Block3	congruent/STIM_001.jpg
2893.728	0.837	correct	congruent	Block3	congruent/STIM_001.jpg
2897.405	0.567	correct	congruent	Block3	congruent/STIM_001.jpg
2900.886	0.518	incorrect	congruent	Block3	congruent/STIM_001.jpg
2904.192	0.678	correct	congruent	Block3	congruent/STIM_002.jpg
2907.87	0.667	correct	congruent	Block3	congruent/STIM_002.jpg
2910.863	0.832	correct	congruent	Block3	congruent/STIM_002.jpg
2915.651	0.814	correct	congruent	Block3	congruent/STIM_002.jpg
2918.695	0.676	correct	congruent	Block3	congruent/STIM_002.jpg
2921.461	0.516	correct	congruent	Block3	congruent/STIM_003.jpg
2925.086	0.748	correct	congruent	Block3	congruent/STIM_003.jpg
2928.105	0.853	correct	congruent	Block3	congruent/STIM_003.jpg
2932.208	0.843	correct	congruent	Block3	congruent/STIM_003.jpg
2936.371	0.648	correct	congruent	Block3	congruent/STIM_003.jpg
2939.131	0.72	correct	congruent	Block3	congruent/STIM_004.jpg
2943.177	0.498	correct	congruent	Block3	congruent/STIM_004.jpg
2946.636	0.54	correct	congruent	Block3	congruent/STIM_004.jpg
2950.256	0.753	correct	congruent	Block3	congruent/STIM_004.jpg
2953.924	0.503	correct	congruent	Block3	congruent/STIM_004.jpg
2958.057	0.701	correct	congruent	Block3	congruent/STIM_005.jpg
2962.445	0.722	correct	congruent	Block3	congruent/STIM_005.jpg
2966.973	0.565	correct	congruent	Block3	congruent/STIM_005.jpg
2970.343	0.624	correct	congruent	Block3	congruent/STIM_005.jpg
2974.529	0.617	correct	congruent	Block3	congruent/STIM_005.jpg
2977.729	0.764	correct	congruent	Block3	congruent/STIM_006.jpg
2980.903	0.635	correct	congruent	Block3	congruent/STIM_006.jpg
2984.537	0.568	correct	congruent	Block3	congruent/STIM_006.jpg
2988.205	0.861	correct	congruent	Block3	congruent/STIM_006.jpg
2991.659	0.521	correct	congruent	Block3	congruent/STIM_006.jpg
2994.927	0.663	correct	congruent	Block3	congruent/STIM_007.jpg
2999.451	0.557	correct	congruent	Block3	congruent/STIM_007.jpg
3002.277	0.722	correct	congruent	Block3	congruent/STIM_007.jpg
3005.604	0.531	correct	congruent	Block3	congruent/STIM_007.jpg
3008.495	0.468	incorrect	congruent	Block3	congruent/STIM_007.jpg
3012.969	0.736	correct	congruent	Block3	congruent/STIM_008.jpg
3017.592	0.597	correct	congruent	Block3	congruent/STIM_008.jpg
3021.332	0.466	correct	congruent	Block3	congruent/STIM_008.jpg
3024.068	0.698	correct	congruent	Block3	congruent/STIM_008.jpg
3026.987	0.766	correct	congruent	Block3	congruent/STIM_008.jpg
3031.508	0.539	correct	congruent	Block3	congruent/STIM_009.jpg
3035.082	0.644	correct	congruent	Block3	congruent/STIM_009.jpg
3038.237	0.512	correct	congruent	Block3	congruent/STIM_009.jpg
3041.919	0.709	correct	congruent	Block3	congruent/STIM_009.jpg
3045.732	0.785	correct	congruent	Block3	congruent/STIM_009.jpg
3049.491	0.589	correct	congruent	Block3	congruent/STIM_010.jpg
3052.464	0.718	correct	congruent	Block3	congruent/STIM_010.jpg
3056.881	0.607	correct	congruent	Block3	congruent/STIM_010.jpg
3060.557	0.702	correct	congruent	Block3	congruent/STIM_010.jpg
3064.936	0.671	correct	congruent	Block3	congruent/STIM_010.jpg
3068.891	0.796	correct	congruent	Block3	congruent/STIM_011.jpg
3073.247	0.5	correct	congruent	Block3	congruent/STIM_011.jpg
3076.156	0.719	correct	congruent	Block3	congruent/STIM_011.jpg
3080.388	0.8	correct	congruent	Block3	congruent/STIM_011.jpg
3084.726	0.758	correct	congruent	Block3	congruent/STIM_011.jpg
3087.735	0.681	correct	congruent	Block3	congruent/STIM_012.jpg
3092.211	0.782	correct	congruent	Block3	congruent/STIM_012.jpg
3095.207	0.476	correct	congruent	Block3	congruent/STIM_012.jpg
3097.927	0.633	correct	congruent	Block3	congruent/STIM_012.jpg
3102.195	0.85	correct	congruent	Block3	congruent/STIM_012.jpg
3105.262	0.846	correct	congruent	Block3	congruent/STIM_013.jpg
3108.531	0.614	correct	congruent	Block3	congruent/STIM_013.jpg
3112.914	0.716	correct	congruent	Block3	congruent/STIM_013.jpg
3116.68	0.697	correct	congruent	Block3	congruent/STIM_013.jpg
3120.257	0.522	correct	congruent	Block3	congruent/STIM_013.jpg
3122.8	0.873	correct	congruent	Block3	congruent/STIM_014.jpg
3127.387	0.487	correct	congruent	Block3	congruent/STIM_014.jpg
3130.807	0.784	incorrect	congruent	Block3	congruent/STIM_014.jpg
3135.375	0.776	correct	congruent	Block3	congruent/STIM_014.jpg
3138.483	0.896	correct	congruent	Block3	congruent/STIM_014.jpg
3142.653	0.574	correct	congruent	Block3	congruent/STIM_015.jpg
3145.557	0.558	correct	congruent	Block3	congruent/STIM_015.jpg
3148.543	0.758	correct	congruent	Block3	congruent/STIM_015.jpg
3151.325	0.598	correct	congruent	Block3	congruent/STIM_015.jpg
3154.375	0.507	correct	congruent	Block3	congruent/STIM_015.jpg
3157.737	0.57	correct	congruent	Block3	congruent/STIM_016.jpg
3162.333	0.769	correct	congruent	Block3	congruent/STIM_016.jpg
3165.671	0.786	correct	congruent	Block3	congruent/STIM_016.jpg
3169.045	0.594	correct	congruent	Block3	congruent/STIM_016.jpg
3172.661	0.56	correct	congruent	Block3	congruent/STIM_016.jpg
3176.808	0.615	incorrect	congruent	Block3	congruent/STIM_017.jpg
3181.471	0.566	incorrect	congruent	Block3	congruent/STIM_017.jpg
3185.167	0.425	correct	congruent	Block3	congruent/STIM_017.jpg
3188.59	0.704	correct	congruent	Block3	congruent/STIM_017.jpg
3192.675	0.642	correct	congruent	Block3	congruent/STIM_017.jpg
3196.764	0.468	correct	congruent	Block3	congruent/STIM_018.jpg
3199.397	0.494	correct	congruent	Block3	congruent/STIM_018.jpg
3202.524	0.564	correct	congruent	Block3	congruent/STIM_018.jpg
3206.197	0.492	correct	congruent	Block3	congruent/STIM_018.jpg
3209.131	0.502	correct	congruent	Block3	congruent/STIM_018.jpg
3211.817	0.656	correct	congruent	Block3	congruent/STIM_019.jpg
3215.073	0.758	correct	congruent	Block3	congruent/STIM_019.jpg
3218.16	0.791	correct	congruent	Block3	congruent/STIM_019.jpg
3222.412	0.8	correct	congruent	Block3	congruent/STIM_019.jpg
3225.799	0.523	correct	congruent	Block3	congruent/STIM_019.jpg
3229.728	0.763	correct	congruent	Block3	congruent/STIM_020.jpg
3234.3	0.964	correct	congruent	Block3	congruent/STIM_020.jpg
3238.831	0.541	correct	congruent	Block3	congruent/STIM_020.jpg
3241.823	0.602	correct	congruent	Block3	congruent/STIM_020.jpg
3245.117	0.78	correct	congruent	Block3	congruent/STIM_020.jpg
3249.515	0.613	correct	congruent	Block3	congruent/STIM_021.jpg
3252.641	0.684	correct	congruent	Block3	congruent/STIM_021.jpg
3256.532	0.644	correct	congruent	Block3	congruent/STIM_021.jpg
3259.895	0.623	correct	congruent	Block3	congruent/STIM_021.jpg
3263.506	0.593	correct	congruent	Block3	congruent/STIM_021.jpg
3267.624	0.757	correct	congruent	Block3	congruent/STIM_022.jpg
3270.577	0.568	correct	congruent	Block3	congruent/STIM_022.jpg
3274.258	0.568	correct	congruent	Block3	congruent/STIM_022.jpg
3278.062	0.799	correct	congruent	Block3	congruent/STIM_022.jpg
3281.1	0.667	correct	congruent	Block3	congruent/STIM_022.jpg
3285.008	0.704	correct	congruent	Block3	congruent/STIM_023.jpg
3288.246	0.532	incorrect	congruent	Block3	congruent/STIM_023.jpg
3292.548	0.922	correct	congruent	Block3	congruent/STIM_023.jpg
3296.565	0.714	correct	congruent	Block3	congruent/STIM_023.jpg
3301.254	0.504	correct	congruent	Block3	congruent/STIM_023.jpg
3305.733	0.567	correct	congruent	Block3	congruent/STIM_024.jpg
3309.21	0.772	correct	congruent	Block3	congruent/STIM_024.jpg
3313.867	0.48	correct	congruent	Block3	congruent/STIM_024.jpg
3316.668	0.733	correct	congruent	Block3	congruent/STIM_024.jpg
3320.383	0.685	correct	congruent	Block3	congruent/STIM_024.jpg
3324.162	0.59	correct	congruent	Block3	congruent/STIM_025.jpg
3327.058	0.68	correct	congruent	Block3	congruent/STIM_025.jpg
3329.784	0.516	correct	congruent	Block3	congruent/STIM_025.jpg
3334.168	0.492	correct	congruent	Block3	congruent/STIM_025.jpg
3338.391	0.835	correct	congruent	Block3	congruent/STIM_025.jpg
3341.336	0.67	correct	congruent	Block3	congruent/STIM_026.jpg
3345.868	0.622	correct	congruent	Block3	congruent/STIM_026.jpg
3348.723	0.762	correct	congruent	Block3	congruent/STIM_026.jpg
3352.766	0.632	correct	congruent	Block3	congruent/STIM_026.jpg
3356.498	0.722	correct	congruent	Block3	congruent/STIM_026.jpg
3360.049	0.564	correct	congruent	Block3	congruent/STIM_027.jpg
3364.212	0.859	correct	congruent	Block3	congruent/STIM_027.jpg
3369.069	0.771	correct	congruent	Block3	congruent/STIM_027.jpg
3373.422	0.511	correct	congruent	Block3	congruent/STIM_027.jpg
3376.225	0.553	correct	congruent	Block3	congruent/STIM_027.jpg
3379.358	0.772	correct	congruent	Block3	congruent/STIM_028.jpg
3383.537	0.86	correct	congruent	Block3	congruent/STIM_028.jpg
3387.273	0.562	correct	congruent	Block3	congruent/STIM_028.jpg
3391.165	0.756	incorrect	congruent	Block3	congruent/STIM_028.jpg
3395.862	0.771	correct	congruent	Block3	congruent/STIM_028.jpg
3400.291	0.844	correct	congruent	Block3	congruent/STIM_029.jpg
3403.978	0.536	incorrect	congruent	Block3	congruent/STIM_029.jpg
3407.486	0.772	correct	congruent	Block3	congruent/STIM_029.jpg
3411.47	0.734	correct	congruent	Block3	congruent/STIM_029.jpg
3416.257	0.644	correct	congruent	Block3	congruent/STIM_029.jpg
