onset	duration	response_time_ms	trial_type	learning_stage	stimulus	response_port
0.0	1.297	1297.1	incongruent	Block1	incongruent/STIM_000.jpg	99
3.69	1.514	1513.5	incongruent	Block1	incongruent/STIM_000.jpg	100
7.641	1.042	1042.2	incongruent	Block1	incongruent/STIM_000.jpg	99
11.863	1.024	1023.6	incongruent	Block1	incongruent/STIM_000.jpg	100
15.899	0.964	964.4	incongruent	Block1	incongruent/STIM_000.jpg	99
20.305	1.43	1430.0	incongruent	Block1	incongruent/STIM_001.jpg	99
23.787	1.093	1092.8	incongruent	Block1	incongruent/STIM_001.jpg	99
28.563	1.456	1455.5	incongruent	Block1	incongruent/STIM_001.jpg	100
32.734	1.269	1268.8	incongruent	Block1	incongruent/STIM_001.jpg	100
37.433	1.174	1174.4	incongruent	Block1	incongruent/STIM_001.jpg	99
42.303	1.229	1229.2	incongruent	Block1	incongruent/STIM_002.jpg	99
45.743	1.178	1177.7	incongruent	Block1	incongruent/STIM_002.jpg	99
50.746	1.347	1346.7	incongruent	Block1	incongruent/STIM_002.jpg	99
55.027	1.234	1233.5	incongruent	Block1	incongruent/STIM_002.jpg	100
59.999	0.883	883.1	incongruent	Block1	incongruent/STIM_002.jpg	100
62.905	1.553	1553.2	incongruent	Block1	incongruent/STIM_003.jpg	99
66.96	1.23	1229.7	incongruent	Block1	incongruent/STIM_003.jpg	100
70.6	0.975	974.7	incongruent	Block1	incongruent/STIM_003.jpg	100
75.418	0.831	831.3	incongruent	Block1	incongruent/STIM_003.jpg	100
78.422	0.853	853.1	incongruent	Block1	incongruent/STIM_003.jpg	100
81.415	1.346	1346.4	incongruent	Block1	incongruent/STIM_004.jpg	100
85.823	1.298	1298.5	incongruent	Block1	incongruent/STIM_004.jpg	99
89.758	1.266	1266.3	incongruent	Block1	incongruent/STIM_004.jpg	100
94.439	1.256	1256.5	incongruent	Block1	incongruent/STIM_004.jpg	100
98.41	1.214	1213.6	incongruent	Block1	incongruent/STIM_004.jpg	100
101.694	1.565	1564.7	incongruent	Block1	incongruent/STIM_005.jpg	100
107.222	1.073	1073.0	incongruent	Block1	incongruent/STIM_005.jpg	100
111.481	1.282	1282.3	incongruent	Block1	incongruent/STIM_005.jpg	100
115.488	1.295	1295.3	incongruent	Block1	incongruent/STIM_005.jpg	100
120.232	1.274	1273.9	incongruent	Block1	incongruent/STIM_005.jpg	100
123.545	1.478	1478.2	incongruent	Block1	incongruent/STIM_006.jpg	99
127.43	0.844	843.5	incongruent	Block1	incongruent/STIM_006.jpg	100
130.773	1.476	1476.3	incongruent	Block1	incongruent/STIM_006.jpg	100
135.949	1.125	1125.2	incongruent	Block1	incongruent/STIM_006.jpg	99
139.668	0.752	751.5	incongruent	Block1	incongruent/STIM_006.jpg	99
143.66	1.25	1250.1	incongruent	Block1	incongruent/STIM_007.jpg	100
147.282	1.397	1397.3	incongruent	Block1	incongruent/STIM_007.jpg	100
151.197	1.088	1088.3	incongruent	Block1	incongruent/STIM_007.jpg	100
154.487	0.786	786.3	incongruent	Block1	incongruent/STIM_007.jpg	99
158.867	1.294	1294.0	incongruent	Block1	incongruent/STIM_007.jpg	99
162.948	1.298	1298.4	incongruent	Block1	incongruent/STIM_008.jpg	99
166.446	0.849	849.2	incongruent	Block1	incongruent/STIM_008.jpg	100
171.0	1.176	1176.5	incongruent	Block1	incongruent/STIM_008.jpg	99
175.023	1.192	1191.5	incongruent	Block1	incongruent/STIM_008.jpg	99
179.133	1.202	1202.5	incongruent	Block1	incongruent/STIM_008.jpg	99
182.621	1.499	1498.9	incongruent	Block1	incongruent/STIM_009.jpg	99
188.065	1.389	1388.9	incongruent	Block1	incongruent/STIM_009.jpg	99
192.794	0.713	712.8	incongruent	Block1	incongruent/STIM_009.jpg	100
196.242	1.11	1109.7	incongruent	Block1	incongruent/STIM_009.jpg	100
199.421	1.3	1299.6	incongruent	Block1	incongruent/STIM_009.jpg	99
204.248	1.455	1455.3	incongruent	Block1	incongruent/STIM_010.jpg	100
208.686	1.525	1524.8	incongruent	Block1	incongruent/STIM_010.jpg	100
212.231	0.886	885.8	incongruent	Block1	incongruent/STIM_010.jpg	99
216.861	0.935	934.6	incongruent	Block1	incongruent/STIM_010.jpg	100
221.313	0.815	814.9	incongruent	Block1	incongruent/STIM_010.jpg	100
225.69	0.897	897.2	incongruent	Block1	incongruent/STIM_011.jpg	99
228.908	1.445	1444.9	incongruent	Block1	incongruent/STIM_011.jpg	100
233.971	1.096	1096.3	incongruent	Block1	incongruent/STIM_011.jpg	100
237.13	0.829	829.0	incongruent	Block1	incongruent/STIM_011.jpg	99
240.859	0.714	713.7	incongruent	Block1	incongruent/STIM_011.jpg	99
245.349	1.615	1614.9	incongruent	Block1	incongruent/STIM_012.jpg	100
250.7	1.073	1073.4	incongruent	Block1	incongruent/STIM_012.jpg	100
255.765	0.798	798.5	incongruent	Block1	incongruent/STIM_012.jpg	99
260.19	1.344	1344.2	incongruent	Block1	incongruent/STIM_012.jpg	100
265.164	1.257	1257.2	incongruent	Block1	incongruent/STIM_012.jpg	99
268.81	1.412	1411.8	incongruent	Block1	incongruent/STIM_013.jpg	100
272.991	1.273	1273.2	incongruent	Block1	incongruent/STIM_013.jpg	100
277.712	0.788	787.5	incongruent	Block1	incongruent/STIM_013.jpg	100
280.914	1.175	1174.8	incongruent	Block1	incongruent/STIM_013.jpg	100
285.695	1.244	1244.2	incongruent	Block1	incongruent/STIM_013.jpg	99
290.278	1.428	1428.5	incongruent	Block1	incongruent/STIM_014.jpg	100
294.01	1.356	1356.5	incongruent	Block1	incongruent/STIM_014.jpg	99
299.041	1.183	1183.2	incongruent	Block1	incongruent/STIM_014.jpg	99
303.202	1.265	1265.3	incongruent	Block1	incongruent/STIM_014.jpg	100
308.139	0.91	909.6	incongruent	Block1	incongruent/STIM_014.jpg	100
311.781	0.922	921.8	incongruent	Block1	incongruent/STIM_015.jpg	99
315.477	1.038	1037.6	incongruent	Block1	incongruent/STIM_015.jpg	99
319.529	0.758	757.9	incongruent	Block1	incongruent/STIM_015.jpg	100
323.058	1.001	1001.2	incongruent	Block1	incongruent/STIM_015.jpg	100
327.942	0.959	959.4	incongruent	Block1	incongruent/STIM_015.jpg	100
331.653	1.345	1344.9	incongruent	Block1	incongruent/STIM_016.jpg	100
335.446	1.01	1009.7	incongruent	Block1	incongruent/STIM_016.jpg	99
339.545	0.909	909.4	incongruent	Block1	incongruent/STIM_016.jpg	99
344.026	1.328	1328.1	incongruent	Block1	incongruent/STIM_016.jpg	100
349.231	0.832	832.1	incongruent	Block1	incongruent/STIM_016.jpg	100
352.922	1.256	1255.8	incongruent	Block1	incongruent/STIM_017.jpg	99
357.7	1.1	1099.6	incongruent	Block1	incongruent/STIM_017.jpg	99
361.966	1.119	1119.1	incongruent	Block1	incongruent/STIM_017.jpg	99
366.796	0.81	809.7	incongruent	Block1	incongruent/STIM_017.jpg	100
370.653	1.103	1103.4	incongruent	Block1	incongruent/STIM_017.jpg	100
375.615	0.814	814.5	incongruent	Block1	incongruent/STIM_018.jpg	99
378.824	1.034	1034.1	incongruent	Block1	incongruent/STIM_018.jpg	100
383.637	0.768	768.2	incongruent	Block1	incongruent/STIM_018.jpg	100
387.377	1.055	1055.4	incongruent	Block1	incongruent/STIM_018.jpg	99
390.879	0.736	735.7	incongruent	Block1	incongruent/STIM_018.jpg	99
393.908	1.374	1373.6	incongruent	Block1	incongruent/STIM_019.jpg	100
397.67	0.908	908.4	incongruent	Block1	incongruent/STIM_019.jpg	100
401.049	0.912	911.5	incongruent	Block1	incongruent/STIM_019.jpg	100
405.44	1.175	1174.8	incongruent	Block1	incongruent/STIM_019.jpg	100
408.916	0.986	986.0	incongruent	Block1	incongruent/STIM_019.jpg	100
412.524	1.18	1179.9	incongruent	Block1	incongruent/STIM_020.jpg	100
417.675	1.49	1489.6	incongruent	Block1	incongruent/STIM_020.jpg	100
422.636	0.809	808.6	incongruent	Block1	incongruent/STIM_020.jpg	99
426.868	1.366	1365.7	incongruent	Block1	incongruent/STIM_020.jpg	100
430.4	0.853	852.6	incongruent	Block1	incongruent/STIM_020.jpg	100
434.105	0.794	793.7	incongruent	Block1	incongruent/STIM_021.jpg	100
437.759	1.296	1296.1	incongruent	Block1	incongruent/STIM_021.jpg	100
441.145	1.266	1266.4	incongruent	Block1	incongruent/STIM_021.jpg	100
445.895	0.769	769.4	incongruent	Block1	incongruent/STIM_021.jpg	99
448.875	0.93	930.0	incongruent	Block1	incongruent/STIM_021.jpg	100
453.137	1.018	1018.4	incongruent	Block1	incongruent/STIM_022.jpg	99
456.247	0.973	973.2	incongruent	Block1	incongruent/STIM_022.jpg	99
460.765	1.156	1156.0	incongruent	Block1	incongruent/STIM_022.jpg	99
464.855	1.107	1106.6	incongruent	Block1	incongruent/STIM_022.jpg	99
468.487	1.239	1238.7	incongruent	Block1	incongruent/STIM_022.jpg	99
472.673	1.314	1314.5	incongruent	Block1	incongruent/STIM_023.jpg	99
476.615	1.27	1269.8	incongruent	Block1	incongruent/STIM_023.jpg	99
480.232	0.756	756.1	incongruent	Block1	incongruent/STIM_023.jpg	99
484.669	1.176	1176.4	incongruent	Block1	incongruent/STIM_023.jpg	99
488.864	0.684	684.0	incongruent	Block1	incongruent/STIM_023.jpg	100
492.49	1.308	1308.4	incongruent	Block1	incongruent/STIM_024.jpg	100
496.988	1.163	1163.3	incongruent	Block1	incongruent/STIM_024.jpg	99
501.494	1.023	1022.7	incongruent	Block1	incongruent/STIM_024.jpg	99
504.752	1.334	1334.2	incongruent	Block1	incongruent/STIM_024.jpg	100
508.571	1.048	1047.8	incongruent	Block1	incongruent/STIM_024.jpg	100
512.488	0.8	800.3	incongruent	Block1	incongruent/STIM_025.jpg	100
516.783	1.091	1090.8	incongruent	Block1	incongruent/STIM_025.jpg	100
521.57	1.326	1325.7	incongruent	Block1	incongruent/STIM_025.jpg	100
526.1	1.062	1061.6	incongruent	Block1	incongruent/STIM_025.jpg	99
530.837	1.025	1024.8	incongruent	Block1	incongruent/STIM_025.jpg	100
534.54	1.139	1138.9	incongruent	Block1	incongruent/STIM_026.jpg	99
539.229	1.517	1517.0	incongruent	Block1	incongruent/STIM_026.jpg	100
544.208	0.856	855.8	incongruent	Block1	incongruent/STIM_026.jpg	99
548.726	1.078	1078.3	incongruent	Block1	incongruent/STIM_026.jpg	100
552.462	1.182	1181.9	incongruent	Block1	incongruent/STIM_026.jpg	99
557.077	1.419	1418.7	incongruent	Block1	incongruent/STIM_027.jpg	99
561.578	1.39	1389.6	incongruent	Block1	incongruent/STIM_027.jpg	100
566.485	0.848	847.6	incongruent	Block1	incongruent/STIM_027.jpg	100
571.26	1.105	1104.7	incongruent	Block1	incongruent/STIM_027.jpg	100
575.791	0.885	885.4	incongruent	Block1	incongruent/STIM_027.jpg	99
579.776	1.438	1438.0	incongruent	Block1	incongruent/STIM_028.jpg	100
583.891	1.467	1466.9	incongruent	Block1	incongruent/STIM_028.jpg	99
589.268	1.158	1157.7	incongruent	Block1	incongruent/STIM_028.jpg	100
592.586	1.047	1046.8	incongruent	Block1	incongruent/STIM_028.jpg	99
595.858	0.795	795.0	incongruent	Block1	incongruent/STIM_028.jpg	100
599.575	0.954	954.1	incongruent	Block1	incongruent/STIM_029.jpg	100
604.054	1.075	1074.8	incongruent	Block1	incongruent/STIM_029.jpg	99
609.009	1.353	1352.8	incongruent	Block1	incongruent/STIM_029.jpg	100
614.287	0.811	811.4	incongruent	Block1	incongruent/STIM_029.jpg	99
617.581	0.723	722.9	incongruent	Block1	incongruent/STIM_029.jpg	99
620.485	0.599	599.3	congruent	Block1	congruent/STIM_000.jpg	99
623.533	0.675	674.6	congruent	Block1	congruent/STIM_000.jpg	100
626.622	0.692	691.7	congruent	Block1	congruent/STIM_000.jpg	99
630.666	0.631	630.9	congruent	Block1	congruent/STIM_000.jpg	100
633.663	0.744	744.2	congruent	Block1	congruent/STIM_000.jpg	100
638.384	0.908	907.8	congruent	Block1	congruent/STIM_001.jpg	100
642.052	0.95	949.7	congruent	Block1	congruent/STIM_001.jpg	100
646.725	0.747	746.8	congruent	Block1	congruent/STIM_001.jpg	99
651.025	0.698	698.3	congruent	Block1	congruent/STIM_001.jpg	100
655.558	0.852	851.9	congruent	Block1	congruent/STIM_001.jpg	100
659.016	0.776	776.4	congruent	Block1	congruent/STIM_002.jpg	99
662.609	0.871	870.9	congruent	Block1	congruent/STIM_002.jpg	99
666.062	0.658	658.2	congruent	Block1	congruent/STIM_002.jpg	100
668.761	0.744	743.6	congruent	Block1	congruent/STIM_002.jpg	99
672.989	0.838	837.9	congruent	Block1	congruent/STIM_002.jpg	99
676.2	0.665	664.8	congruent	Block1	congruent/STIM_003.jpg	100
680.295	0.623	622.7	congruent	Block1	congruent/STIM_003.jpg	100
683.602	0.639	639.4	congruent	Block1	congruent/STIM_003.jpg	100
687.481	0.665	665.2	congruent	Block1	congruent/STIM_003.jpg	100
691.483	0.626	625.8	congruent	Block1	congruent/STIM_003.jpg	100
694.215	0.925	925.4	congruent	Block1	congruent/STIM_004.jpg	100
698.831	0.674	673.9	congruent	Block1	congruent/STIM_004.jpg	99
703.442	0.768	768.1	congruent	Block1	congruent/STIM_004.jpg	99
706.459	0.878	878.1	congruent	Block1	congruent/STIM_004.jpg	100
710.471	0.806	806.1	congruent	Block1	congruent/STIM_004.jpg	99
715.159	0.85	850.1	congruent	Block1	congruent/STIM_005.jpg	99
718.739	0.699	699.3	congruent	Block1	congruent/STIM_005.jpg	99
722.331	0.98	980.0	congruent	Block1	congruent/STIM_005.jpg	99
725.574	0.982	981.6	congruent	Block1	congruent/STIM_005.jpg	99
730.264	0.575	575.2	congruent	Block1	congruent/STIM_005.jpg	100
734.284	0.726	726.4	congruent	Block1	congruent/STIM_006.jpg	99
737.129	0.902	902.2	congruent	Block1	congruent/STIM_006.jpg	99
741.041	0.826	826.0	congruent	Block1	congruent/STIM_006.jpg	100
744.186	0.835	835.4	congruent	Block1	congruent/STIM_006.jpg	99
748.426	0.869	868.8	congruent	Block1	congruent/STIM_006.jpg	99
751.755	0.72	719.5	congruent	Block1	congruent/STIM_007.jpg	99
756.159	0.843	842.9	congruent	Block1	congruent/STIM_007.jpg	100
760.717	0.702	702.1	congruent	Block1	congruent/STIM_007.jpg	100
765.311	0.664	663.6	congruent	Block1	congruent/STIM_007.jpg	100
769.12	0.644	643.7	congruent	Block1	congruent/STIM_007.jpg	100
773.76	0.73	729.7	congruent	Block1	congruent/STIM_008.jpg	99
778.249	0.678	678.3	congruent	Block1	congruent/STIM_008.jpg	99
782.121	0.898	897.7	congruent	Block1	congruent/STIM_008.jpg	100
786.332	0.941	941.4	congruent	Block1	congruent/STIM_008.jpg	99
789.611	0.888	887.9	congruent	Block1	congruent/STIM_008.jpg	100
793.967	0.838	837.6	congruent	Block1	congruent/STIM_009.jpg	100
798.72	0.557	557.1	congruent	Block1	congruent/STIM_009.jpg	100
802.41	0.865	864.7	congruent	Block1	congruent/STIM_009.jpg	99
805.955	0.836	836.3	congruent	Block1	congruent/STIM_009.jpg	100
808.905	0.689	689.0	congruent	Block1	congruent/STIM_009.jpg	99
812.373	0.701	701.4	congruent	Block1	congruent/STIM_010.jpg	99
816.926	0.606	605.7	congruent	Block1	congruent/STIM_010.jpg	99
821.352	0.607	607.2	congruent	Block1	congruent/STIM_010.jpg	99
825.827	0.879	878.7	congruent	Block1	congruent/STIM_010.jpg	99
829.013	0.769	769.4	congruent	Block1	congruent/STIM_010.jpg	100
832.553	0.862	862.4	congruent	Block1	congruent/STIM_011.jpg	99
837.176	0.768	767.9	congruent	Block1	congruent/STIM_011.jpg	99
840.211	0.818	818.1	congruent	Block1	congruent/STIM_011.jpg	99
843.65	0.798	797.6	congruent	Block1	congruent/STIM_011.jpg	100
847.227	0.962	961.8	congruent	Block1	congruent/STIM_011.jpg	99
850.348	0.842	841.6	congruent	Block1	congruent/STIM_012.jpg	99
853.215	0.583	583.0	congruent	Block1	congruent/STIM_012.jpg	99
857.679	0.654	654.2	congruent	Block1	congruent/STIM_012.jpg	99
861.404	0.916	916.5	congruent	Block1	congruent/STIM_012.jpg	99
865.812	0.978	977.9	congruent	Block1	congruent/STIM_012.jpg	99
870.221	0.627	627.2	congruent	Block1	congruent/STIM_013.jpg	99
872.996	0.635	635.4	congruent	Block1	congruent/STIM_013.jpg	100
875.663	0.701	701.1	congruent	Block1	congruent/STIM_013.jpg	100
878.643	0.866	866.2	congruent	Block1	congruent/STIM_013.jpg	99
882.012	0.889	888.9	congruent	Block1	congruent/STIM_013.jpg	99
885.88	0.97	969.9	congruent	Block1	congruent/STIM_014.jpg	100
889.859	0.878	878.5	congruent	Block1	congruent/STIM_014.jpg	100
893.172	0.574	574.0	congruent	Block1	congruent/STIM_014.jpg	99
897.09	0.776	775.6	congruent	Block1	congruent/STIM_014.jpg	99
900.184	0.621	621.2	congruent	Block1	congruent/STIM_014.jpg	100
903.606	0.589	589.3	congruent	Block1	congruent/STIM_015.jpg	99
907.393	0.855	854.6	congruent	Block1	congruent/STIM_015.jpg	100
910.458	0.973	972.6	congruent	Block1	congruent/STIM_015.jpg	99
914.108	0.596	595.6	congruent	Block1	congruent/STIM_015.jpg	99
918.113	0.734	733.9	congruent	Block1	congruent/STIM_015.jpg	99
922.755	0.731	731.0	congruent	Block1	congruent/STIM_016.jpg	99
926.186	0.842	842.2	congruent	Block1	congruent/STIM_016.jpg	100
929.317	0.901	900.8	congruent	Block1	congruent/STIM_016.jpg	100
934.121	0.757	757.0	congruent	Block1	congruent/STIM_016.jpg	100
938.633	0.972	971.6	congruent	Block1	congruent/STIM_016.jpg	100
943.366	0.932	932.4	congruent	Block1	congruent/STIM_017.jpg	100
946.85	0.75	749.6	congruent	Block1	congruent/STIM_017.jpg	99
949.953	0.742	742.1	congruent	Block1	congruent/STIM_017.jpg	99
953.041	0.86	859.6	congruent	Block1	congruent/STIM_017.jpg	100
957.367	0.582	581.8	congruent	Block1	congruent/STIM_017.jpg	99
961.816	0.956	956.1	congruent	Block1	congruent/STIM_018.jpg	100
966.483	0.956	956.1	congruent	Block1	congruent/STIM_018.jpg	99
971.18	0.716	715.9	congruent	Block1	congruent/STIM_018.jpg	99
974.966	0.611	611.0	congruent	Block1	congruent/STIM_018.jpg	99
978.935	0.797	797.2	congruent	Block1	congruent/STIM_018.jpg	99
982.196	0.931	930.8	congruent	Block1	congruent/STIM_019.jpg	100
986.37	0.941	940.6	congruent	Block1	congruent/STIM_019.jpg	99
990.102	0.659	658.8	congruent	Block1	congruent/STIM_019.jpg	100
993.238	0.916	916.3	congruent	Block1	congruent/STIM_019.jpg	100
997.068	0.902	902.4	congruent	Block1	congruent/STIM_019.jpg	100
1000.41	0.693	693.3	congruent	Block1	congruent/STIM_020.jpg	99
1003.264	0.916	916.1	congruent	Block1	congruent/STIM_020.jpg	99
1007.03	0.657	656.7	congruent	Block1	congruent/STIM_020.jpg	100
1009.701	0.762	762.0	congruent	Block1	congruent/STIM_020.jpg	100
1012.607	0.709	708.8	congruent	Block1	congruent/STIM_020.jpg	100
1017.215	0.971	971.2	congruent	Block1	congruent/STIM_021.jpg	99
1020.933	0.797	796.7	congruent	Block1	congruent/STIM_021.jpg	100
1024.741	0.585	584.7	congruent	Block1	congruent/STIM_021.jpg	99
1027.432	0.693	692.8	congruent	Block1	congruent/STIM_021.jpg	99
1030.943	0.596	596.3	congruent	Block1	congruent/STIM_021.jpg	100
1033.643	0.856	856.4	congruent	Block1	congruent/STIM_022.jpg	99
1038.393	0.657	656.8	congruent	Block1	congruent/STIM_022.jpg	100
1041.476	0.581	581.1	congruent	Block1	congruent/STIM_022.jpg	100
1045.845	0.576	576.5	congruent	Block1	congruent/STIM_022.jpg	99
1048.457	0.748	748.3	congruent	Block1	congruent/STIM_022.jpg	100
1052.649	0.879	878.6	congruent	Block1	congruent/STIM_023.jpg	100
1056.453	0.617	617.2	congruent	Block1	congruent/STIM_023.jpg	100
1059.309	0.928	928.4	congruent	Block1	congruent/STIM_023.jpg	99
1063.74	0.678	678.4	congruent	Block1	congruent/STIM_023.jpg	99
1068.192	0.608	607.8	congruent	Block1	congruent/STIM_023.jpg	100
1071.478	0.637	637.2	congruent	Block1	congruent/STIM_024.jpg	99
1074.788	0.959	958.7	congruent	Block1	congruent/STIM_024.jpg	100
1079.281	0.629	628.9	congruent	Block1	congruent/STIM_024.jpg	99
1083.829	0.63	630.5	congruent	Block1	congruent/STIM_024.jpg	99
1087.098	0.966	966.0	congruent	Block1	congruent/STIM_024.jpg	99
1091.465	0.979	978.8	congruent	Block1	congruent/STIM_025.jpg	99
1094.772	0.811	811.1	congruent	Block1	congruent/STIM_025.jpg	99
1099.012	0.765	765.3	congruent	Block1	congruent/STIM_025.jpg	99
1102.348	0.631	630.8	congruent	Block1	congruent/STIM_025.jpg	99
1105.473	0.669	669.3	congruent	Block1	congruent/STIM_025.jpg	99
1110.107	0.623	622.9	congruent	Block1	congruent/STIM_026.jpg	100
1114.661	0.961	961.2	congruent	Block1	congruent/STIM_026.jpg	99
1118.717	0.618	618.4	congruent	Block1	congruent/STIM_026.jpg	99
1122.003	0.569	568.7	congruent	Block1	congruent/STIM_026.jpg	100
1125.496	0.69	690.1	congruent	Block1	congruent/STIM_026.jpg	99
1129.606	0.801	800.6	congruent	Block1	congruent/STIM_027.jpg	99
1133.227	0.906	906.0	congruent	Block1	congruent/STIM_027.jpg	100
1137.097	0.935	935.3	congruent	Block1	congruent/STIM_027.jpg	99
1141.185	0.645	645.1	congruent	Block1	congruent/STIM_027.jpg	99
1144.713	0.829	829.2	congruent	Block1	congruent/STIM_027.jpg	99
1148.702	0.706	706.0	congruent	Block1	congruent/STIM_028.jpg	99
1151.791	0.738	738.5	congruent	Block1	congruent/STIM_028.jpg	100
1154.667	0.977	977.1	congruent	Block1	congruent/STIM_028.jpg	100
1158.401	0.814	813.5	congruent	Block1	congruent/STIM_028.jpg	100
1162.09	0.639	638.7	congruent	Block1	congruent/STIM_028.jpg	100
1166.509	0.85	850.1	congruent	Block1	congruent/STIM_029.jpg	100
1170.217	0.92	920.1	congruent	Block1	congruent/STIM_029.jpg	100
1174.814	0.652	652.3	congruent	Block1	congruent/STIM_029.jpg	99
1178.968	0.806	806.2	congruent	Block1	congruent/STIM_029.jpg	100
1183.484	0.847	847.2	congruent	Block1	congruent/STIM_029.jpg	99
1186.854	0.957	957.0	incongruent	Block2	incongruent/STIM_000.jpg	99
1190.557	1.025	1024.8	incongruent	Block2	incongruent/STIM_000.jpg	100
1194.874	1.088	1088.1	incongruent	Block2	incongruent/STIM_000.jpg	99
1199.572	0.651	650.7	incongruent	Block2	incongruent/STIM_000.jpg	99
1203.156	0.827	827.3	incongruent	Block2	incongruent/STIM_000.jpg	99
1206.3	1.358	1358.3	incongruent	Block2	incongruent/STIM_001.jpg	99
1210.332	1.221	1220.7	incongruent	Block2	incongruent/STIM_001.jpg	100
1214.647	1.067	1067.4	incongruent	Block2	incongruent/STIM_001.jpg	99
1217.788	1.13	1129.7	incongruent	Block2	incongruent/STIM_001.jpg	100
1222.103	1.034	1033.8	incongruent	Block2	incongruent/STIM_001.jpg	99
1226.991	1.292	1292.4	incongruent	Block2	incongruent/STIM_002.jpg	100
1231.701	0.685	685.2	incongruent	Block2	incongruent/STIM_002.jpg	99
1235.039	1.21	1209.7	incongruent	Block2	incongruent/STIM_002.jpg	100
1239.825	0.933	933.0	incongruent	Block2	incongruent/STIM_002.jpg	100
1243.833	1.095	1095.3	incongruent	Block2	incongruent/STIM_002.jpg	100
1248.466	0.838	838.1	incongruent	Block2	incongruent/STIM_003.jpg	99
1253.031	1.288	1288.3	incongruent	Block2	incongruent/STIM_003.jpg	100
1258.192	0.886	885.8	incongruent	Block2	incongruent/STIM_003.jpg	100
1261.43	0.605	605.4	incongruent	Block2	incongruent/STIM_003.jpg	99
1264.089	0.711	711.1	incongruent	Block2	incongruent/STIM_003.jpg	100
1268.707	0.712	712.0	incongruent	Block2	incongruent/STIM_004.jpg	99
1271.672	0.998	998.2	incongruent	Block2	incongruent/STIM_004.jpg	100
1276.526	0.826	825.6	incongruent	Block2	incongruent/STIM_004.jpg	100
1280.567	0.699	699.2	incongruent	Block2	incongruent/STIM_004.jpg	100
1283.9	1.031	1030.8	incongruent	Block2	incongruent/STIM_004.jpg	100
1288.005	1.089	1088.7	incongruent	Block2	incongruent/STIM_005.jpg	100
1291.488	0.807	807.0	incongruent	Block2	incongruent/STIM_005.jpg	99
1294.901	1.198	1198.0	incongruent	Block2	incongruent/STIM_005.jpg	100
1300.001	1.081	1080.8	incongruent	Block2	incongruent/STIM_005.jpg	99
1304.609	0.817	817.3	incongruent	Block2	incongruent/STIM_005.jpg	100
1309.268	0.749	748.8	incongruent	Block2	incongruent/STIM_006.jpg	100
1312.1	1.09	1090.5	incongruent	Block2	incongruent/STIM_006.jpg	100
1315.891	0.702	701.5	incongruent	Block2	incongruent/STIM_006.jpg	99
1320.48	1.141	1140.8	incongruent	Block2	incongruent/STIM_006.jpg	100
1325.349	0.952	952.3	incongruent	Block2	incongruent/STIM_006.jpg	100
1328.954	1.17	1170.0	incongruent	Block2	incongruent/STIM_007.jpg	100
1333.377	1.095	1095.1	incongruent	Block2	incongruent/STIM_007.jpg	99
1338.414	1.2	1200.2	incongruent	Block2	incongruent/STIM_007.jpg	100
1343.308	0.812	812.2	incongruent	Block2	incongruent/STIM_007.jpg	99
1347.816	0.601	600.7	incongruent	Block2	incongruent/STIM_007.jpg	99
1352.037	0.683	683.1	incongruent	Block2	incongruent/STIM_008.jpg	100
1355.373	1.154	1153.8	incongruent	Block2	incongruent/STIM_008.jpg	99
1358.934	0.711	710.7	incongruent	Block2	incongruent/STIM_008.jpg	100
1363.501	0.641	640.7	incongruent	Block2	incongruent/STIM_008.jpg	100
1366.959	1.032	1032.1	incongruent	Block2	incongruent/STIM_008.jpg	99
1371.297	1.355	1354.9	incongruent	Block2	incongruent/STIM_009.jpg	99
1374.802	1.194	1193.7	incongruent	Block2	incongruent/STIM_009.jpg	99
1378.076	0.764	763.5	incongruent	Block2	incongruent/STIM_009.jpg	99
1381.482	0.668	668.5	incongruent	Block2	incongruent/STIM_009.jpg	100
1385.165	1.138	1137.6	incongruent	Block2	incongruent/STIM_009.jpg	99
1389.973	0.671	671.3	incongruent	Block2	incongruent/STIM_010.jpg	99
1392.986	0.997	996.6	incongruent	Block2	incongruent/STIM_010.jpg	100
1396.155	1.022	1022.3	incongruent	Block2	incongruent/STIM_010.jpg	100
1400.907	0.656	656.1	incongruent	Block2	incongruent/STIM_010.jpg	100
1404.365	0.669	668.8	incongruent	Block2	incongruent/STIM_010.jpg	99
1407.466	0.742	741.9	incongruent	Block2	incongruent/STIM_011.jpg	99
1412.194	1.315	1314.6	incongruent	Block2	incongruent/STIM_011.jpg	100
1416.146	0.922	922.3	incongruent	Block2	incongruent/STIM_011.jpg	100
1420.162	1.082	1081.9	incongruent	Block2	incongruent/STIM_011.jpg	100
1424.69	1.134	1133.9	incongruent	Block2	incongruent/STIM_011.jpg	99
1428.921	0.678	678.3	incongruent	Block2	incongruent/STIM_012.jpg	100
1432.534	0.838	837.8	incongruent	Block2	incongruent/STIM_012.jpg	99
1436.37	1.148	1148.5	incongruent	Block2	incongruent/STIM_012.jpg	99
1440.045	0.625	624.7	incongruent	Block2	incongruent/STIM_012.jpg	100
1443.792	0.632	632.3	incongruent	Block2	incongruent/STIM_012.jpg	99
1446.939	0.9	900.3	incongruent	Block2	incongruent/STIM_013.jpg	100
1451.357	1.118	1117.8	incongruent	Block2	incongruent/STIM_013.jpg	100
1455.597	0.711	711.0	incongruent	Block2	incongruent/STIM_013.jpg	99
1460.175	0.774	773.5	incongruent	Block2	incongruent/STIM_013.jpg	100
1464.661	0.857	857.4	incongruent	Block2	incongruent/STIM_013.jpg	99
1468.239	1.316	1315.8	incongruent	Block2	incongruent/STIM_014.jpg	99
1471.644	1.024	1023.9	incongruent	Block2	incongruent/STIM_014.jpg	99
1474.757	0.642	641.7	incongruent	Block2	incongruent/STIM_014.jpg	99
1478.037	0.807	806.9	incongruent	Block2	incongruent/STIM_014.jpg	100
1482.192	1.085	1085.4	incongruent	Block2	incongruent/STIM_014.jpg	100
1486.863	1.228	1228.0	incongruent	Block2	incongruent/STIM_015.jpg	99
1491.751	1.282	1281.7	incongruent	Block2	incongruent/STIM_015.jpg	100
1495.315	1.197	1197.4	incongruent	Block2	incongruent/STIM_015.jpg	100
1499.022	0.588	587.9	incongruent	Block2	incongruent/STIM_015.jpg	99
1502.001	0.574	574.1	incongruent	Block2	incongruent/STIM_015.jpg	99
1505.699	0.786	786.1	incongruent	Block2	incongruent/STIM_016.jpg	100
1510.048	1.097	1096.9	incongruent	Block2	incongruent/STIM_016.jpg	99
1515.131	1.057	1057.4	incongruent	Block2	incongruent/STIM_016.jpg	100
1519.529	0.894	893.6	incongruent	Block2	incongruent/STIM_016.jpg	100
1522.799	0.848	847.7	incongruent	Block2	incongruent/STIM_016.jpg	99
1526.74	1.31	1310.0	incongruent	Block2	incongruent/STIM_017.jpg	99
1532.029	1.217	1216.9	incongruent	Block2	incongruent/STIM_017.jpg	100
1536.359	1.081	1081.1	incongruent	Block2	incongruent/STIM_017.jpg	100
1539.742	0.741	740.6	incongruent	Block2	incongruent/STIM_017.jpg	100
1543.599	1.004	1003.5	incongruent	Block2	incongruent/STIM_017.jpg	99
1548.511	1.359	1358.7	incongruent	Block2	incongruent/STIM_018.jpg	99
1552.629	0.863	863.4	incongruent	Block2	incongruent/STIM_018.jpg	100
1556.773	0.813	813.3	incongruent	Block2	incongruent/STIM_018.jpg	99
1560.507	0.973	973.2	incongruent	Block2	incongruent/STIM_018.jpg	99
1563.602	0.594	594.0	incongruent	Block2	incongruent/STIM_018.jpg	99
1566.956	1.375	1375.3	incongruent	Block2	incongruent/STIM_019.jpg	100
1572.146	1.238	1237.9	incongruent	Block2	incongruent/STIM_019.jpg	99
1576.284	1.225	1224.7	incongruent	Block2	incongruent/STIM_019.jpg	100
1580.248	0.901	901.1	incongruent	Block2	incongruent/STIM_019.jpg	99
1584.453	1.012	1011.9	incongruent	Block2	incongruent/STIM_019.jpg	99
1587.739	0.823	823.2	incongruent	Block2	incongruent/STIM_020.jpg	99
1590.641	0.661	660.8	incongruent	Block2	incongruent/STIM_020.jpg	99
1593.803	0.762	761.7	incongruent	Block2	incongruent/STIM_020.jpg	99
1598.11	0.78	779.6	incongruent	Block2	incongruent/STIM_020.jpg	99
1601.097	0.882	882.5	incongruent	Block2	incongruent/STIM_020.jpg	99
1603.994	1.294	1294.1	incongruent	Block2	incongruent/STIM_021.jpg	99
1609.153	1.174	1174.3	incongruent	Block2	incongruent/STIM_021.jpg	99
1613.205	0.782	781.7	incongruent	Block2	incongruent/STIM_021.jpg	99
1616.175	1.05	1049.7	incongruent	Block2	incongruent/STIM_021.jpg	99
1621.181	0.641	641.3	incongruent	Block2	incongruent/STIM_021.jpg	100
1624.383	0.774	773.9	incongruent	Block2	incongruent/STIM_022.jpg	99
1627.468	0.681	681.4	incongruent	Block2	incongruent/STIM_022.jpg	99
1631.789	1.058	1058.2	incongruent	Block2	incongruent/STIM_022.jpg	99
1636.47	0.959	959.2	incongruent	Block2	incongruent/STIM_022.jpg	99
1640.755	0.73	729.7	incongruent	Block2	incongruent/STIM_022.jpg	100
1645.023	1.013	1012.8	incongruent	Block2	incongruent/STIM_023.jpg	100
1649.878	1.135	1135.4	incongruent	Block2	incongruent/STIM_023.jpg	99
1653.506	0.997	996.6	incongruent	Block2	incongruent/STIM_023.jpg	99
1656.938	0.825	825.4	incongruent	Block2	incongruent/STIM_023.jpg	99
1661.286	0.71	709.6	incongruent	Block2	incongruent/STIM_023.jpg	100
1664.865	1.259	1258.8	incongruent	Block2	incongruent/STIM_024.jpg	99
1669.802	1.137	1136.6	incongruent	Block2	incongruent/STIM_024.jpg	99
1674.577	0.619	618.6	incongruent	Block2	incongruent/STIM_024.jpg	100
1679.041	1.006	1006.2	incongruent	Block2	incongruent/STIM_024.jpg	99
1682.093	0.777	776.7	incongruent	Block2	incongruent/STIM_024.jpg	100
1685.611	0.839	839.2	incongruent	Block2	incongruent/STIM_025.jpg	99
1690.283	1.059	1059.1	incongruent	Block2	incongruent/STIM_025.jpg	99
1694.057	0.859	859.3	incongruent	Block2	incongruent/STIM_025.jpg	99
1697.104	0.683	683.4	incongruent	Block2	incongruent/STIM_025.jpg	100
1701.682	0.705	705.2	incongruent	Block2	incongruent/STIM_025.jpg	100
1706.138	1.357	1357.1	incongruent	Block2	incongruent/STIM_026.jpg	99
1710.236	1.236	1236.4	incongruent	Block2	incongruent/STIM_026.jpg	100
1714.355	1.084	1083.8	incongruent	Block2	incongruent/STIM_026.jpg	99
1719.094	1.018	1017.8	incongruent	Block2	incongruent/STIM_026.jpg	100
1723.59	1.036	1036.3	incongruent	Block2	incongruent/STIM_026.jpg	99
1727.302	1.017	1017.0	incongruent	Block2	incongruent/STIM_027.jpg	99
1731.3	0.734	733.8	incongruent	Block2	incongruent/STIM_027.jpg	100
1736.012	0.809	809.4	incongruent	Block2	incongruent/STIM_027.jpg	99
1739.769	0.939	938.7	incongruent	Block2	incongruent/STIM_027.jpg	100
1744.588	0.632	632.0	incongruent	Block2	incongruent/STIM_027.jpg	100
1748.896	1.233	1232.7	incongruent	Block2	incongruent/STIM_028.jpg	100
1753.641	0.767	767.0	incongruent	Block2	incongruent/STIM_028.jpg	100
1756.694	0.616	615.6	incongruent	Block2	incongruent/STIM_028.jpg	99
1761.055	1.049	1049.4	incongruent	Block2	incongruent/STIM_028.jpg	100
1765.546	1.005	1005.2	incongruent	Block2	incongruent/STIM_028.jpg	100
1769.18	0.762	762.3	incongruent	Block2	incongruent/STIM_029.jpg	99
1773.047	1.014	1014.4	incongruent	Block2	incongruent/STIM_029.jpg	99
1777.087	1.081	1081.4	incongruent	Block2	incongruent/STIM_029.jpg	100
1781.472	0.774	773.5	incongruent	Block2	incongruent/STIM_029.jpg	100
1784.725	0.951	950.7	incongruent	Block2	incongruent/STIM_029.jpg	99
1787.981	0.965	964.7	congruent	Block2	congruent/STIM_000.jpg	100
1792.651	0.777	777.3	congruent	Block2	congruent/STIM_000.jpg	100
1795.887	0.652	651.9	congruent	Block2	congruent/STIM_000.jpg	100
1798.784	0.833	832.8	congruent	Block2	congruent/STIM_000.jpg	99
1802.008	0.925	925.4	congruent	Block2	congruent/STIM_000.jpg	99
1805.343	0.794	793.7	congruent	Block2	congruent/STIM_001.jpg	99
1809.165	0.794	793.5	congruent	Block2	congruent/STIM_001.jpg	100
1813.679	0.569	568.8	congruent	Block2	congruent/STIM_001.jpg	99
1816.561	0.645	644.7	congruent	Block2	congruent/STIM_001.jpg	99
1819.302	0.634	633.8	congruent	Block2	congruent/STIM_001.jpg	99
1822.14	0.881	880.7	congruent	Block2	congruent/STIM_002.jpg	99
1826.199	0.721	721.3	congruent	Block2	congruent/STIM_002.jpg	100
1829.008	0.915	915.4	congruent	Block2	congruent/STIM_002.jpg	99
1832.52	0.625	625.1	congruent	Block2	congruent/STIM_002.jpg	100
1835.771	0.862	861.8	congruent	Block2	congruent/STIM_002.jpg	100
1839.278	0.968	968.2	congruent	Block2	congruent/STIM_003.jpg	99
1842.785	0.968	967.7	congruent	Block2	congruent/STIM_003.jpg	100
1847.118	0.585	584.9	congruent	Block2	congruent/STIM_003.jpg	99
1850.647	0.674	673.6	congruent	Block2	congruent/STIM_003.jpg	99
1854.591	0.952	952.1	congruent	Block2	congruent/STIM_003.jpg	99
1857.755	0.724	724.5	congruent	Block2	congruent/STIM_004.jpg	100
1862.145	0.902	902.5	congruent	Block2	congruent/STIM_004.jpg	100
1866.845	0.616	615.7	congruent	Block2	congruent/STIM_004.jpg	100
1871.242	0.743	742.6	congruent	Block2	congruent/STIM_004.jpg	100
1875.874	0.957	957.1	congruent	Block2	congruent/STIM_004.jpg	100
1879.626	0.667	666.8	congruent	Block2	congruent/STIM_005.jpg	100
1883.031	0.637	637.2	congruent	Block2	congruent/STIM_005.jpg	99
1886.261	0.87	869.5	congruent	Block2	congruent/STIM_005.jpg	99
1889.922	0.953	953.2	congruent	Block2	congruent/STIM_005.jpg	100
1894.604	0.764	763.8	congruent	Block2	congruent/STIM_005.jpg	99
1898.194	0.609	608.7	congruent	Block2	congruent/STIM_006.jpg	99
1902.602	0.682	682.4	congruent	Block2	congruent/STIM_006.jpg	100
1905.738	0.637	637.4	congruent	Block2	congruent/STIM_006.jpg	100
1909.649	0.603	602.6	congruent	Block2	congruent/STIM_006.jpg	100
1913.723	0.844	844.0	congruent	Block2	congruent/STIM_006.jpg	100
1917.637	0.963	963.1	congruent	Block2	congruent/STIM_007.jpg	99
1921.903	0.93	929.6	congruent	Block2	congruent/STIM_007.jpg	99
1925.141	0.637	636.9	congruent	Block2	congruent/STIM_007.jpg	99
1929.291	0.894	894.1	congruent	Block2	congruent/STIM_007.jpg	100
1933.674	0.582	582.5	congruent	Block2	congruent/STIM_007.jpg	99
1937.443	0.966	966.1	congruent	Block2	congruent/STIM_008.jpg	99
1940.848	0.973	973.0	congruent	Block2	congruent/STIM_008.jpg	99
1943.955	0.766	765.5	congruent	Block2	congruent/STIM_008.jpg	100
1947.715	0.801	800.8	congruent	Block2	congruent/STIM_008.jpg	100
1950.853	0.728	727.8	congruent	Block2	congruent/STIM_008.jpg	100
1954.133	0.918	917.5	congruent	Block2	congruent/STIM_009.jpg	99
1957.835	0.952	952.0	congruent	Block2	congruent/STIM_009.jpg	100
1961.132	0.949	949.1	congruent	Block2	congruent/STIM_009.jpg	99
1965.337	0.622	622.3	congruent	Block2	congruent/STIM_009.jpg	100
1969.534	0.808	807.8	congruent	Block2	congruent/STIM_009.jpg	99
1974.142	0.982	982.2	congruent	Block2	congruent/STIM_010.jpg	100
1978.458	0.839	839.4	congruent	Block2	congruent/STIM_010.jpg	100
1981.476	0.869	868.8	congruent	Block2	congruent/STIM_010.jpg	99
1985.98	0.913	912.8	congruent	Block2	congruent/STIM_010.jpg	99
1989.961	0.826	826.3	congruent	Block2	congruent/STIM_010.jpg	99
1993.679	0.608	608.1	congruent	Block2	congruent/STIM_011.jpg	100
1996.664	0.85	850.3	congruent	Block2	congruent/STIM_011.jpg	99
2000.096	0.765	765.3	congruent	Block2	congruent/STIM_011.jpg	100
2003.012	0.847	847.4	congruent	Block2	congruent/STIM_011.jpg	99
2007.238	0.83	829.6	congruent	Block2	congruent/STIM_011.jpg	100
2010.25	0.855	855.3	congruent	Block2	congruent/STIM_012.jpg	99
2014.235	0.87	870.3	congruent	Block2	congruent/STIM_012.jpg	100
2019.067	0.985	985.4	congruent	Block2	congruent/STIM_012.jpg	99
2023.794	0.703	702.8	congruent	Block2	congruent/STIM_012.jpg	99
2028.288	0.73	730.5	congruent	Block2	congruent/STIM_012.jpg	100
2031.898	0.741	740.9	congruent	Block2	congruent/STIM_013.jpg	99
2035.675	0.775	774.6	congruent	Block2	congruent/STIM_013.jpg	100
2038.494	0.583	583.4	congruent	Block2	congruent/STIM_013.jpg	99
2042.136	0.578	578.5	congruent	Block2	congruent/STIM_013.jpg	100
2045.987	0.786	786.4	congruent	Block2	congruent/STIM_013.jpg	100
2048.994	0.554	554.2	congruent	Block2	congruent/STIM_014.jpg	99
2052.785	0.833	833.2	congruent	Block2	congruent/STIM_014.jpg	100
2056.705	0.635	634.6	congruent	Block2	congruent/STIM_014.jpg	99
2059.466	0.892	892.3	congruent	Block2	congruent/STIM_014.jpg	99
2063.689	0.782	781.8	congruent	Block2	congruent/STIM_014.jpg	100
2066.531	0.859	859.0	congruent	Block2	congruent/STIM_015.jpg	100
2070.082	0.561	561.1	congruent	Block2	congruent/STIM_015.jpg	100
2073.151	0.958	957.5	congruent	Block2	congruent/STIM_015.jpg	99
2076.154	0.657	656.6	congruent	Block2	congruent/STIM_015.jpg	99
2079.603	0.941	940.6	congruent	Block2	congruent/STIM_015.jpg	100
2083.694	0.773	773.0	congruent	Block2	congruent/STIM_016.jpg	99
2086.467	0.91	909.9	congruent	Block2	congruent/STIM_016.jpg	99
2090.625	0.741	740.7	congruent	Block2	congruent/STIM_016.jpg	100
2095.168	0.959	958.7	congruent	Block2	congruent/STIM_016.jpg	100
2098.319	0.859	858.6	congruent	Block2	congruent/STIM_016.jpg	99
2103.028	0.554	554.2	congruent	Block2	congruent/STIM_017.jpg	100
2106.056	0.614	613.7	congruent	Block2	congruent/STIM_017.jpg	99
2109.217	0.692	692.2	congruent	Block2	congruent/STIM_017.jpg	99
2113.362	0.588	587.6	congruent	Block2	congruent/STIM_017.jpg	100
2117.196	0.759	758.6	congruent	Block2	congruent/STIM_017.jpg	99
2121.009	0.699	698.6	congruent	Block2	congruent/STIM_018.jpg	100
2125.33	0.981	980.8	congruent	Block2	congruent/STIM_018.jpg	100
2129.696	0.924	923.9	congruent	Block2	congruent/STIM_018.jpg	100
2134.477	0.595	595.1	congruent	Block2	congruent/STIM_018.jpg	100
2138.75	0.599	599.0	congruent	Block2	congruent/STIM_018.jpg	100
2142.685	0.577	576.7	congruent	Block2	congruent/STIM_019.jpg	100
2145.769	0.67	669.6	congruent	Block2	congruent/STIM_019.jpg	99
2148.789	0.965	965.2	congruent	Block2	congruent/STIM_019.jpg	100
2152.371	0.62	620.2	congruent	Block2	congruent/STIM_019.jpg	100
2156.2	0.984	984.4	congruent	Block2	congruent/STIM_019.jpg	100
2160.018	0.664	664.3	congruent	Block2	congruent/STIM_020.jpg	99
2164.422	0.795	795.2	congruent	Block2	congruent/STIM_020.jpg	100
2167.657	0.926	925.5	congruent	Block2	congruent/STIM_020.jpg	100
2171.512	0.903	903.2	congruent	Block2	congruent/STIM_020.jpg	99
2176.101	0.824	823.5	congruent	Block2	congruent/STIM_020.jpg	100
2179.851	0.816	815.7	congruent	Block2	congruent/STIM_021.jpg	100
2184.054	0.956	956.1	congruent	Block2	congruent/STIM_021.jpg	99
2187.429	0.772	772.4	congruent	Block2	congruent/STIM_021.jpg	100
2191.693	0.857	857.3	congruent	Block2	congruent/STIM_021.jpg	100
2194.636	0.567	566.7	congruent	Block2	congruent/STIM_021.jpg	100
2197.329	0.769	768.7	congruent	Block2	congruent/STIM_022.jpg	99
2201.231	0.769	768.9	congruent	Block2	congruent/STIM_022.jpg	99
2204.846	0.653	653.2	congruent	Block2	congruent/STIM_022.jpg	99
2207.501	0.965	964.7	congruent	Block2	congruent/STIM_022.jpg	99
2211.789	0.677	677.0	congruent	Block2	congruent/STIM_022.jpg	99
2214.593	0.58	580.5	congruent	Block2	congruent/STIM_023.jpg	100
2217.403	0.738	738.0	congruent	Block2	congruent/STIM_023.jpg	99
2220.906	0.966	965.8	congruent	Block2	congruent/STIM_023.jpg	99
2225.839	0.732	731.8	congruent	Block2	congruent/STIM_023.jpg	99
2228.839	0.981	980.6	congruent	Block2	congruent/STIM_023.jpg	100
2232.32	0.645	644.7	congruent	Block2	congruent/STIM_024.jpg	99
2236.794	0.803	802.9	congruent	Block2	congruent/STIM_024.jpg	99
2240.072	0.885	885.4	congruent	Block2	congruent/STIM_024.jpg	99
2243.465	0.752	751.5	congruent	Block2	congruent/STIM_024.jpg	99
2246.749	0.934	934.0	congruent	Block2	congruent/STIM_024.jpg	99
2251.42	0.934	933.7	congruent	Block2	congruent/STIM_025.jpg	100
2255.708	0.572	571.7	congruent	Block2	congruent/STIM_025.jpg	100
2259.958	0.668	667.5	congruent	Block2	congruent/STIM_025.jpg	100
2263.376	0.827	826.6	congruent	Block2	congruent/STIM_025.jpg	99
2267.338	0.906	906.0	congruent	Block2	congruent/STIM_025.jpg	99
2272.185	0.731	730.6	congruent	Block2	congruent/STIM_026.jpg	100
2276.07	0.834	834.0	congruent	Block2	congruent/STIM_026.jpg	99
2279.348	0.574	573.7	congruent	Block2	congruent/STIM_026.jpg	99
2282.311	0.943	943.0	congruent	Block2	congruent/STIM_026.jpg	99
2287.227	0.603	603.0	congruent	Block2	congruent/STIM_026.jpg	99
2291.157	0.774	774.0	congruent	Block2	congruent/STIM_027.jpg	100
2294.912	0.553	553.2	congruent	Block2	congruent/STIM_027.jpg	100
2298.662	0.917	917.4	congruent	Block2	congruent/STIM_027.jpg	100
2302.737	0.557	556.9	congruent	Block2	congruent/STIM_027.jpg	100
2305.616	0.666	666.2	congruent	Block2	congruent/STIM_027.jpg	99
2309.136	0.588	588.2	congruent	Block2	congruent/STIM_028.jpg	99
2312.67	0.679	678.7	congruent	Block2	congruent/STIM_028.jpg	100
2316.196	0.58	579.7	congruent	Block2	congruent/STIM_028.jpg	100
2319.178	0.857	857.2	congruent	Block2	congruent/STIM_028.jpg	99
2323.67	0.587	586.8	congruent	Block2	congruent/STIM_028.jpg	100
2328.196	0.724	723.8	congruent	Block2	congruent/STIM_029.jpg	99
2332.023	0.982	981.8	congruent	Block2	congruent/STIM_029.jpg	99
2335.099	0.593	592.6	congruent	Block2	congruent/STIM_029.jpg	100
2337.912	0.76	760.3	congruent	Block2	congruent/STIM_029.jpg	100
2342.315	0.886	886.1	congruent	Block2	congruent/STIM_029.jpg	100
2345.712	0.826	826.2	incongruent	Block3	incongruent/STIM_000.jpg	100
2349.265	0.759	759.4	incongruent	Block3	incongruent/STIM_000.jpg	100
2352.8	1.08	1080.1	incongruent	Block3	incongruent/STIM_000.jpg	99
2356.924	1.015	1014.6	incongruent	Block3	incongruent/STIM_000.jpg	99
2360.462	0.876	875.9	incongruent	Block3	incongruent/STIM_000.jpg	100
2363.762	0.552	551.9	incongruent	Block3	incongruent/STIM_001.jpg	99
2366.435	0.659	659.2	incongruent	Block3	incongruent/STIM_001.jpg	100
2369.752	0.935	935.0	incongruent	Block3	incongruent/STIM_001.jpg	99
2373.165	0.703	702.6	incongruent	Block3	incongruent/STIM_001.jpg	100
2376.091	1.063	1062.6	incongruent	Block3	incongruent/STIM_001.jpg	99
2381.058	1.136	1135.8	incongruent	Block3	incongruent/STIM_002.jpg	99
2384.745	1.122	1122.2	incongruent	Block3	incongruent/STIM_002.jpg	100
2388.8	1.031	1030.9	incongruent	Block3	incongruent/STIM_002.jpg	100
2392.753	0.656	655.6	incongruent	Block3	incongruent/STIM_002.jpg	99
2395.672	0.783	783.2	incongruent	Block3	incongruent/STIM_002.jpg	100
2399.796	0.922	922.0	incongruent	Block3	incongruent/STIM_003.jpg	99
2403.78	0.754	753.9	incongruent	Block3	incongruent/STIM_003.jpg	99
2408.183	0.724	724.2	incongruent	Block3	incongruent/STIM_003.jpg	99
2412.35	0.935	935.2	incongruent	Block3	incongruent/STIM_003.jpg	99
2415.637	1.133	1133.2	incongruent	Block3	incongruent/STIM_003.jpg	99
2419.836	0.897	897.4	incongruent	Block3	incongruent/STIM_004.jpg	99
2422.874	0.646	645.7	incongruent	Block3	incongruent/STIM_004.jpg	99
2427.466	0.795	795.3	incongruent	Block3	incongruent/STIM_004.jpg	99
2430.264	0.601	601.3	incongruent	Block3	incongruent/STIM_004.jpg	99
2434.37	0.559	558.8	incongruent	Block3	incongruent/STIM_004.jpg	100
2438.822	1.132	1131.8	incongruent	Block3	incongruent/STIM_005.jpg	99
2443.445	0.861	860.6	incongruent	Block3	incongruent/STIM_005.jpg	100
2446.964	0.777	777.4	incongruent	Block3	incongruent/STIM_005.jpg	99
2451.143	0.974	973.9	incongruent	Block3	incongruent/STIM_005.jpg	100
2455.325	1.054	1053.8	incongruent	Block3	incongruent/STIM_005.jpg	100
2458.406	0.951	951.2	incongruent	Block3	incongruent/STIM_006.jpg	100
2461.654	0.747	747.0	incongruent	Block3	incongruent/STIM_006.jpg	99
2465.746	0.743	743.3	incongruent	Block3	incongruent/STIM_006.jpg	99
2470.174	0.796	796.1	incongruent	Block3	incongruent/STIM_006.jpg	99
2473.089	0.796	795.6	incongruent	Block3	incongruent/STIM_006.jpg	100
2476.481	0.581	581.1	incongruent	Block3	incongruent/STIM_007.jpg	100
2479.485	0.915	915.2	incongruent	Block3	incongruent/STIM_007.jpg	100
2483.997	0.99	989.9	incongruent	Block3	incongruent/STIM_007.jpg	99
2488.294	0.689	689.3	incongruent	Block3	incongruent/STIM_007.jpg	100
2491.099	0.644	644.0	incongruent	Block3	incongruent/STIM_007.jpg	99
2494.367	0.983	982.8	incongruent	Block3	incongruent/STIM_008.jpg	99
2498.623	0.586	586.5	incongruent	Block3	incongruent/STIM_008.jpg	100
2502.069	1.004	1003.7	incongruent	Block3	incongruent/STIM_008.jpg	100
2505.231	0.844	844.4	incongruent	Block3	incongruent/STIM_008.jpg	100
2508.209	0.994	993.8	incongruent	Block3	incongruent/STIM_008.jpg	100
2511.977	0.895	895.1	incongruent	Block3	incongruent/STIM_009.jpg	99
2516.47	0.612	612.4	incongruent	Block3	incongruent/STIM_009.jpg	100
2519.633	0.721	721.2	incongruent	Block3	incongruent/STIM_009.jpg	100
2522.836	0.716	715.9	incongruent	Block3	incongruent/STIM_009.jpg	99
2526.174	0.844	843.8	incongruent	Block3	incongruent/STIM_009.jpg	100
2529.778	0.583	582.8	incongruent	Block3	incongruent/STIM_010.jpg	100
2534.249	0.744	743.6	incongruent	Block3	incongruent/STIM_010.jpg	100
2538.98	0.715	715.4	incongruent	Block3	incongruent/STIM_010.jpg	100
2543.366	1.02	1020.1	incongruent	Block3	incongruent/STIM_010.jpg	100
2547.032	0.846	846.5	incongruent	Block3	incongruent/STIM_010.jpg	99
2550.615	0.899	898.6	incongruent	Block3	incongruent/STIM_011.jpg	99
2554.991	0.588	587.8	incongruent	Block3	incongruent/STIM_011.jpg	100
2558.053	0.951	950.9	incongruent	Block3	incongruent/STIM_011.jpg	100
2562.405	0.636	636.0	incongruent	Block3	incongruent/STIM_011.jpg	100
2565.478	0.874	874.4	incongruent	Block3	incongruent/STIM_011.jpg	99
2570.297	0.574	574.4	incongruent	Block3	incongruent/STIM_012.jpg	99
2574.602	0.858	857.8	incongruent	Block3	incongruent/STIM_012.jpg	100
2577.7	1.08	1080.4	incongruent	Block3	incongruent/STIM_012.jpg	100
2582.392	1.056	1056.1	incongruent	Block3	incongruent/STIM_012.jpg	99
2585.835	1.105	1105.1	incongruent	Block3	incongruent/STIM_012.jpg	100
2589.925	0.765	765.1	incongruent	Block3	incongruent/STIM_013.jpg	100
2593.62	1.125	1125.3	incongruent	Block3	incongruent/STIM_013.jpg	99
2596.891	0.686	685.9	incongruent	Block3	incongruent/STIM_013.jpg	99
2601.074	0.682	682.1	incongruent	Block3	incongruent/STIM_013.jpg	99
2605.447	1.127	1127.4	incongruent	Block3	incongruent/STIM_013.jpg	99
2608.636	1.096	1096.1	incongruent	Block3	incongruent/STIM_014.jpg	100
2611.989	1.148	1148.3	incongruent	Block3	incongruent/STIM_014.jpg	100
2615.625	0.576	576.4	incongruent	Block3	incongruent/STIM_014.jpg	99
2619.705	0.655	655.1	incongruent	Block3	incongruent/STIM_014.jpg	99
2623.17	0.705	705.0	incongruent	Block3	incongruent/STIM_014.jpg	100
2627.34	0.962	962.2	incongruent	Block3	incongruent/STIM_015.jpg	100
2631.794	0.878	878.2	incongruent	Block3	incongruent/STIM_015.jpg	100
2635.857	0.624	624.4	incongruent	Block3	incongruent/STIM_015.jpg	99
2639.547	0.616	616.0	incongruent	Block3	incongruent/STIM_015.jpg	99
2643.055	0.573	573.2	incongruent	Block3	incongruent/STIM_015.jpg	100
2646.133	0.599	598.8	incongruent	Block3	incongruent/STIM_016.jpg	99
2649.408	0.654	653.5	incongruent	Block3	incongruent/STIM_016.jpg	100
2652.752	0.598	597.6	incongruent	Block3	incongruent/STIM_016.jpg	99
2655.684	0.673	673.1	incongruent	Block3	incongruent/STIM_016.jpg	99
2658.495	0.555	555.2	incongruent	Block3	incongruent/STIM_016.jpg	100
2661.762	0.539	539.0	incongruent	Block3	incongruent/STIM_017.jpg	99
2664.618	1.072	1072.2	incongruent	Block3	incongruent/STIM_017.jpg	99
2669.688	0.99	990.4	incongruent	Block3	incongruent/STIM_017.jpg	100
2673.978	0.965	964.9	incongruent	Block3	incongruent/STIM_017.jpg	99
2677.447	0.968	967.6	incongruent	Block3	incongruent/STIM_017.jpg	99
2681.98	0.853	853.3	incongruent	Block3	incongruent/STIM_018.jpg	99
2684.922	0.852	852.3	incongruent	Block3	incongruent/STIM_018.jpg	100
2688.549	0.768	767.6	incongruent	Block3	incongruent/STIM_018.jpg	100
2692.004	0.865	865.1	incongruent	Block3	incongruent/STIM_018.jpg	100
2695.965	0.76	760.4	incongruent	Block3	incongruent/STIM_018.jpg	99
2698.85	1.033	1032.8	incongruent	Block3	incongruent/STIM_019.jpg	100
2703.51	0.983	982.8	incongruent	Block3	incongruent/STIM_019.jpg	99
2708.066	0.793	793.0	incongruent	Block3	incongruent/STIM_019.jpg	100
2712.35	0.657	656.7	incongruent	Block3	incongruent/STIM_019.jpg	100
2716.555	0.902	902.1	incongruent	Block3	incongruent/STIM_019.jpg	99
2720.155	0.857	856.8	incongruent	Block3	incongruent/STIM_020.jpg	100
2724.218	0.761	761.2	incongruent	Block3	incongruent/STIM_020.jpg	99
2728.22	1.056	1055.9	incongruent	Block3	incongruent/STIM_020.jpg	100
2731.33	0.854	853.9	incongruent	Block3	incongruent/STIM_020.jpg	100
2734.421	0.657	656.6	incongruent	Block3	incongruent/STIM_020.jpg	99
2738.847	0.71	710.2	incongruent	Block3	incongruent/STIM_021.jpg	99
2742.216	0.966	966.4	incongruent	Block3	incongruent/STIM_021.jpg	100
2746.669	0.771	770.6	incongruent	Block3	incongruent/STIM_021.jpg	99
2750.742	1.083	1082.8	incongruent	Block3	incongruent/STIM_021.jpg	100
2753.912	0.906	906.5	incongruent	Block3	incongruent/STIM_021.jpg	99
2756.975	0.85	849.9	incongruent	Block3	incongruent/STIM_022.jpg	99
2761.119	0.7	700.0	incongruent	Block3	incongruent/STIM_022.jpg	100
2764.768	0.583	583.1	incongruent	Block3	incongruent/STIM_022.jpg	99
2768.146	1.081	1081.0	incongruent	Block3	incongruent/STIM_022.jpg	99
2772.279	0.973	973.1	incongruent	Block3	incongruent/STIM_022.jpg	100
2775.353	0.738	737.6	incongruent	Block3	incongruent/STIM_023.jpg	100
2779.665	0.904	903.5	incongruent	Block3	incongruent/STIM_023.jpg	99
2782.823	0.903	903.4	incongruent	Block3	incongruent/STIM_023.jpg	99
2786.578	1.092	1091.6	incongruent	Block3	incongruent/STIM_023.jpg	100
2791.134	0.979	979.3	incongruent	Block3	incongruent/STIM_023.jpg	100
2794.374	0.895	894.8	incongruent	Block3	incongruent/STIM_024.jpg	99
2797.719	0.634	634.1	incongruent	Block3	incongruent/STIM_024.jpg	100
2800.367	1.136	1136.4	incongruent	Block3	incongruent/STIM_024.jpg	100
2804.737	0.575	574.7	incongruent	Block3	incongruent/STIM_024.jpg	99
2808.046	0.672	671.9	incongruent	Block3	incongruent/STIM_024.jpg	100
2812.084	0.851	851.1	incongruent	Block3	incongruent/STIM_025.jpg	100
2815.322	0.851	851.1	incongruent	Block3	incongruent/STIM_025.jpg	99
2819.801	0.994	994.5	incongruent	Block3	incongruent/STIM_025.jpg	100
2823.176	0.758	757.9	incongruent	Block3	incongruent/STIM_025.jpg	100
2826.73	0.657	656.9	incongruent	Block3	incongruent/STIM_025.jpg	100
2831.181	0.612	612.4	incongruent	Block3	incongruent/STIM_026.jpg	100
2834.257	1.114	1114.3	incongruent	Block3	incongruent/STIM_026.jpg	99
2837.622	0.87	870.1	incongruent	Block3	incongruent/STIM_026.jpg	100
2841.094	1.111	1110.8	incongruent	Block3	incongruent/STIM_026.jpg	99
2845.702	1.027	1026.7	incongruent	Block3	incongruent/STIM_026.jpg	100
2850.618	0.779	779.4	incongruent	Block3	incongruent/STIM_027.jpg	100
2854.579	1.078	1078.0	incongruent	Block3	incongruent/STIM_027.jpg	99
2858.294	0.876	876.1	incongruent	Block3	incongruent/STIM_027.jpg	99
2862.969	0.647	646.8	incongruent	Block3	incongruent/STIM_027.jpg	99
2866.25	0.562	562.1	incongruent	Block3	incongruent/STIM_027.jpg	100
2870.018	0.646	646.5	incongruent	Block3	incongruent/STIM_028.jpg	99
2872.912	0.74	740.5	incongruent	Block3	incongruent/STIM_028.jpg	100
2876.551	0.753	753.0	incongruent	Block3	incongruent/STIM_028.jpg	100
2879.821	0.967	967.2	incongruent	Block3	incongruent/STIM_028.jpg	100
2883.887	0.584	584.4	incongruent	Block3	incongruent/STIM_028.jpg	100
2887.37	0.587	587.2	incongruent	Block3	incongruent/STIM_029.jpg	99
2891.324	0.59	590.0	incongruent	Block3	incongruent/STIM_029.jpg	99
2895.463	0.841	841.4	incongruent	Block3	incongruent/STIM_029.jpg	100
2899.842	0.78	779.6	incongruent	Block3	incongruent/STIM_029.jpg	100
2904.256	0.905	904.6	incongruent	Block3	incongruent/STIM_029.jpg	99
2907.41	0.81	810.3	congruent	Block3	congruent/STIM_000.jpg	100
2910.466	0.61	609.9	congruent	Block3	congruent/STIM_000.jpg	99
2914.605	0.899	899.3	congruent	Block3	congruent/STIM_000.jpg	99
2918.452	0.842	842.5	congruent	Block3	congruent/STIM_000.jpg	100
2922.684	0.625	625.4	congruent	Block3	congruent/STIM_000.jpg	99
2926.592	0.957	956.9	congruent	Block3	congruent/STIM_001.jpg	100
2929.671	0.914	913.7	congruent	Block3	congruent/STIM_001.jpg	100
2934.567	0.739	739.0	congruent	Block3	congruent/STIM_001.jpg	100
2939.24	0.572	572.5	congruent	Block3	congruent/STIM_001.jpg	100
2941.985	0.819	818.8	congruent	Block3	congruent/STIM_001.jpg	99
2945.138	0.915	914.8	congruent	Block3	congruent/STIM_002.jpg	99
2948.227	0.96	960.5	congruent	Block3	congruent/STIM_002.jpg	100
2952.341	0.969	968.6	congruent	Block3	congruent/STIM_002.jpg	100
2955.504	0.578	578.1	congruent	Block3	congruent/STIM_002.jpg	99
2959.802	0.856	856.4	congruent	Block3	congruent/STIM_002.jpg	100
2963.706	0.824	823.7	congruent	Block3	congruent/STIM_003.jpg	100
2967.02	0.899	898.7	congruent	Block3	congruent/STIM_003.jpg	99
2970.913	0.898	898.1	congruent	Block3	congruent/STIM_003.jpg	100
2975.704	0.56	559.7	congruent	Block3	congruent/STIM_003.jpg	99
2979.685	0.802	801.6	congruent	Block3	congruent/STIM_003.jpg	99
2983.072	0.799	798.6	congruent	Block3	congruent/STIM_004.jpg	100
2986.418	0.716	715.5	congruent	Block3	congruent/STIM_004.jpg	99
2990.044	0.841	841.3	congruent	Block3	congruent/STIM_004.jpg	99
2992.948	0.784	784.3	congruent	Block3	congruent/STIM_004.jpg	100
2997.101	0.7	700.5	congruent	Block3	congruent/STIM_004.jpg	100
3001.307	0.859	859.1	congruent	Block3	congruent/STIM_005.jpg	100
3004.564	0.842	841.6	congruent	Block3	congruent/STIM_005.jpg	100
3008.878	0.894	893.8	congruent	Block3	congruent/STIM_005.jpg	100
3012.573	0.862	862.2	congruent	Block3	congruent/STIM_005.jpg	100
3016.243	0.963	963.4	congruent	Block3	congruent/STIM_005.jpg	100
3020.629	0.726	725.6	congruent	Block3	congruent/STIM_006.jpg	100
3023.957	0.827	827.4	congruent	Block3	congruent/STIM_006.jpg	100
3027.737	0.678	678.3	congruent	Block3	congruent/STIM_006.jpg	99
3032.034	0.579	578.6	congruent	Block3	congruent/STIM_006.jpg	100
3034.766	0.639	639.4	congruent	Block3	congruent/STIM_006.jpg	99
3037.925	0.835	835.0	congruent	Block3	congruent/STIM_007.jpg	100
3042.691	0.754	753.7	congruent	Block3	congruent/STIM_007.jpg	99
3046.159	0.821	820.7	congruent	Block3	congruent/STIM_007.jpg	99
3049.736	0.921	921.3	congruent	Block3	congruent/STIM_007.jpg	99
3052.999	0.58	579.9	congruent	Block3	congruent/STIM_007.jpg	99
3056.332	0.974	974.0	congruent	Block3	congruent/STIM_008.jpg	99
3059.832	0.864	863.5	congruent	Block3	congruent/STIM_008.jpg	99
3063.021	0.588	588.2	congruent	Block3	congruent/STIM_008.jpg	99
3066.866	0.962	962.1	congruent	Block3	congruent/STIM_008.jpg	99
3071.441	0.668	668.1	congruent	Block3	congruent/STIM_008.jpg	100
3075.407	0.976	975.6	congruent	Block3	congruent/STIM_009.jpg	99
3079.948	0.642	641.7	congruent	Block3	congruent/STIM_009.jpg	99
3083.086	0.662	662.4	congruent	Block3	congruent/STIM_009.jpg	99
3086.337	0.814	813.6	congruent	Block3	congruent/STIM_009.jpg	100
3089.766	0.68	680.2	congruent	Block3	congruent/STIM_009.jpg	99
3092.747	0.606	605.8	congruent	Block3	congruent/STIM_010.jpg	99
3096.052	0.709	708.6	congruent	Block3	congruent/STIM_010.jpg	99
3099.847	0.803	802.8	congruent	Block3	congruent/STIM_010.jpg	100
3102.672	0.678	678.4	congruent	Block3	congruent/STIM_010.jpg	99
3107.087	0.784	783.9	congruent	Block3	congruent/STIM_010.jpg	99
3111.504	0.778	777.9	congruent	Block3	congruent/STIM_011.jpg	100
3115.825	0.807	806.9	congruent	Block3	congruent/STIM_011.jpg	100
3119.999	0.794	794.0	congruent	Block3	congruent/STIM_011.jpg	99
3123.477	0.96	959.6	congruent	Block3	congruent/STIM_011.jpg	99
3127.534	0.938	938.4	congruent	Block3	congruent/STIM_011.jpg	100
3130.601	0.93	930.3	congruent	Block3	congruent/STIM_012.jpg	100
3134.09	0.7	699.9	congruent	Block3	congruent/STIM_012.jpg	99
3137.909	0.923	922.6	congruent	Block3	congruent/STIM_012.jpg	99
3142.296	0.596	596.3	congruent	Block3	congruent/STIM_012.jpg	100
3146.355	0.73	730.5	congruent	Block3	congruent/STIM_012.jpg	99
3150.476	0.928	927.5	congruent	Block3	congruent/STIM_013.jpg	99
3153.679	0.927	926.7	congruent	Block3	congruent/STIM_013.jpg	100
3157.853	0.562	562.0	congruent	Block3	congruent/STIM_013.jpg	100
3160.622	0.708	708.1	congruent	Block3	congruent/STIM_013.jpg	99
3163.605	0.615	614.8	congruent	Block3	congruent/STIM_013.jpg	100
3167.504	0.714	713.9	congruent	Block3	congruent/STIM_014.jpg	100
3171.822	0.656	655.5	congruent	Block3	congruent/STIM_014.jpg	99
3174.871	0.794	794.2	congruent	Block3	congruent/STIM_014.jpg	100
3177.949	0.665	664.9	congruent	Block3	congruent/STIM_014.jpg	99
3181.61	0.979	979.1	congruent	Block3	congruent/STIM_014.jpg	99
3185.228	0.736	735.6	congruent	Block3	congruent/STIM_015.jpg	100
3188.855	0.731	730.8	congruent	Block3	congruent/STIM_015.jpg	99
3192.064	0.855	855.3	congruent	Block3	congruent/STIM_015.jpg	100
3195.011	0.662	662.1	congruent	Block3	congruent/STIM_015.jpg	100
3198.107	0.615	615.0	congruent	Block3	congruent/STIM_015.jpg	99
3201.474	0.647	646.9	congruent	Block3	congruent/STIM_016.jpg	99
3204.775	0.787	787.1	congruent	Block3	congruent/STIM_016.jpg	99
3208.049	0.632	632.2	congruent	Block3	congruent/STIM_016.jpg	100
3211.944	0.552	552.2	congruent	Block3	congruent/STIM_016.jpg	100
3215.626	0.949	949.3	congruent	Block3	congruent/STIM_016.jpg	99
3219.22	0.805	805.1	congruent	Block3	congruent/STIM_017.jpg	99
3223.589	0.947	947.1	congruent	Block3	congruent/STIM_017.jpg	100
3226.764	0.593	592.9	congruent	Block3	congruent/STIM_017.jpg	99
3229.737	0.646	646.0	congruent	Block3	congruent/STIM_017.jpg	99
3232.858	0.796	796.5	congruent	Block3	congruent/STIM_017.jpg	99
3236.779	0.937	937.3	congruent	Block3	congruent/STIM_018.jpg	99
3239.982	0.757	757.1	congruent	Block3	congruent/STIM_018.jpg	99
3243.858	0.588	587.6	congruent	Block3	congruent/STIM_018.jpg	100
3247.57	0.914	914.3	congruent	Block3	congruent/STIM_018.jpg	100
3250.935	0.654	653.5	congruent	Block3	congruent/STIM_018.jpg	99
3255.505	0.914	914.2	congruent	Block3	congruent/STIM_019.jpg	100
3259.741	0.9	899.8	congruent	Block3	congruent/STIM_019.jpg	99
3264.423	0.814	813.5	congruent	Block3	congruent/STIM_019.jpg	99
3268.221	0.787	786.6	congruent	Block3	congruent/STIM_019.jpg	99
3272.942	0.892	892.3	congruent	Block3	congruent/STIM_019.jpg	99
3277.112	0.792	791.7	congruent	Block3	congruent/STIM_020.jpg	99
3281.068	0.942	942.0	congruent	Block3	congruent/STIM_020.jpg	100
3284.186	0.946	946.1	congruent	Block3	congruent/STIM_020.jpg	99
3288.687	0.686	686.1	congruent	Block3	congruent/STIM_020.jpg	99
3292.635	0.965	965.4	congruent	Block3	congruent/STIM_020.jpg	100
3297.313	0.88	880.3	congruent	Block3	congruent/STIM_021.jpg	100
3300.612	0.773	773.1	congruent	Block3	congruent/STIM_021.jpg	100
3304.4	0.896	896.4	congruent	Block3	congruent/STIM_021.jpg	100
3309.163	0.902	902.2	congruent	Block3	congruent/STIM_021.jpg	99
3313.518	0.55	550.0	congruent	Block3	congruent/STIM_021.jpg	99
3316.714	0.737	736.8	congruent	Block3	congruent/STIM_022.jpg	99
3320.412	0.727	726.9	congruent	Block3	congruent/STIM_022.jpg	100
3323.534	0.95	950.3	congruent	Block3	congruent/STIM_022.jpg	100
3327.834	0.803	803.4	congruent	Block3	congruent/STIM_022.jpg	99
3331.351	0.895	895.2	congruent	Block3	congruent/STIM_022.jpg	99
3334.891	0.717	716.7	congruent	Block3	congruent/STIM_023.jpg	99
3338.334	0.734	733.7	congruent	Block3	congruent/STIM_023.jpg	100
3342.096	0.572	571.5	congruent	Block3	congruent/STIM_023.jpg	99
3345.806	0.662	661.7	congruent	Block3	congruent/STIM_023.jpg	99
3349.195	0.552	552.5	congruent	Block3	congruent/STIM_023.jpg	99
3352.618	0.585	584.6	congruent	Block3	congruent/STIM_024.jpg	99
3356.744	0.865	864.8	congruent	Block3	congruent/STIM_024.jpg	100
3360.253	0.739	738.8	congruent	Block3	congruent/STIM_024.jpg	100
3363.467	0.696	695.5	congruent	Block3	congruent/STIM_024.jpg	100
3367.866	0.932	932.5	congruent	Block3	congruent/STIM_024.jpg	100
3371.441	0.939	938.7	congruent	Block3	congruent/STIM_025.jpg	100
3376.248	0.591	590.6	congruent	Block3	congruent/STIM_025.jpg	99
3379.664	0.77	770.0	congruent	Block3	congruent/STIM_025.jpg	100
3384.118	0.716	716.3	congruent	Block3	congruent/STIM_025.jpg	100
3388.708	0.868	867.5	congruent	Block3	congruent/STIM_025.jpg	99
3393.132	0.788	788.0	congruent	Block3	congruent/STIM_026.jpg	100
3397.212	0.864	863.9	congruent	Block3	congruent/STIM_026.jpg	99
3401.012	0.681	681.4	congruent	Block3	congruent/STIM_026.jpg	100
3404.217	0.947	946.6	congruent	Block3	congruent/STIM_026.jpg	100
3408.904	0.98	980.2	congruent	Block3	congruent/STIM_026.jpg	100
3413.032	0.814	814.2	congruent	Block3	congruent/STIM_027.jpg	99
3416.818	0.604	603.9	congruent	Block3	congruent/STIM_027.jpg	100
3420.729	0.733	732.8	congruent	Block3	congruent/STIM_027.jpg	99
3424.798	0.828	827.8	congruent	Block3	congruent/STIM_027.jpg	99
3427.714	0.602	602.1	congruent	Block3	congruent/STIM_027.jpg	99
3430.489	0.614	613.8	congruent	Block3	congruent/STIM_028.jpg	100
3433.861	0.682	681.6	congruent	Block3	congruent/STIM_028.jpg	100
3437.081	0.745	745.3	congruent	Block3	congruent/STIM_028.jpg	100
3440.961	0.904	904.4	congruent	Block3	congruent/STIM_028.jpg	99
3445.201	0.936	936.4	congruent	Block3	congruent/STIM_028.jpg	100
3450.113	0.567	567.2	congruent	Block3	congruent/STIM_029.jpg	99
3453.03	0.596	595.5	congruent	Block3	congruent/STIM_029.jpg	100
3456.943	0.616	616.1	congruent	Block3	congruent/STIM_029.jpg	99
3460.796	0.691	691.2	congruent	Block3	congruent/STIM_029.jpg	100
3465.314	0.764	764.0	congruent	Block3	congruent/STIM_029.jpg	100
