onset	duration	accuracy	trial_type	learning_stage	stimulus
0.0	1.297	correct	incongruent	Block1	incongruent/STIM_000.jpg
3.69	1.514	incorrect	incongruent	Block1	incongruent/STIM_000.jpg
7.641	1.042	correct	incongruent	Block1	incongruent/STIM_000.jpg
11.863	1.024	correct	incongruent	Block1	incongruent/STIM_000.jpg
15.899	0.964	correct	incongruent	Block1	incongruent/STIM_000.jpg
20.305	1.43	correct	incongruent	Block1	incongruent/STIM_001.jpg
23.787	1.093	correct	incongruent	Block1	incongruent/STIM_001.jpg
28.563	1.456	correct	incongruent	Block1	incongruent/STIM_001.jpg
32.734	1.269	correct	incongruent	Block1	incongruent/STIM_001.jpg
37.433	1.174	correct	incongruent	Block1	incongruent/STIM_001.jpg
42.303	1.229	correct	incongruent	Block1	incongruent/STIM_002.jpg
45.743	1.178	correct	incongruent	Block1	incongruent/STIM_002.jpg
50.746	1.347	incorrect	incongruent	Block1	incongruent/STIM_002.jpg
55.027	1.234	correct	incongruent	Block1	incongruent/STIM_002.jpg
59.999	0.883	correct	incongruent	Block1	incongruent/STIM_002.jpg
62.905	1.553	incorrect	incongruent	Block1	incongruent/STIM_003.jpg
66.96	1.23	correct	incongruent	Block1	incongruent/STIM_003.jpg
70.6	0.975	correct	incongruent	Block1	incongruent/STIM_003.jpg
75.418	0.831	correct	incongruent	Block1	incongruent/STIM_003.jpg
78.422	0.853	correct	incongruent	Block1	incongruent/STIM_003.jpg
81.415	1.346	incorrect	incongruent	Block1	incongruent/STIM_004.jpg
85.823	1.298	correct	incongruent	Block1	incongruent/STIM_004.jpg
89.758	1.266	correct	incongruent	Block1	incongruent/STIM_004.jpg
94.439	1.256	correct	incongruent	Block1	incongruent/STIM_004.jpg
98.41	1.214	correct	incongruent	Block1	incongruent/STIM_004.jpg
101.694	1.565	correct	incongruent	Block1	incongruent/STIM_005.jpg
107.222	1.073	correct	incongruent	Block1	incongruent/STIM_005.jpg
111.481	1.282	correct	incongruent	Block1	incongruent/STIM_005.jpg
115.488	1.295	correct	incongruent	Block1	incongruent/STIM_005.jpg
120.232	1.274	correct	incongruent	Block1	incongruent/STIM_005.jpg
123.545	1.478	correct	incongruent	Block1	incongruent/STIM_006.jpg
127.43	0.844	correct	incongruent	Block1	incongruent/STIM_006.jpg
130.773	1.476	correct	incongruent	Block1	incongruent/STIM_006.jpg
135.949	1.125	incorrect	incongruent	Block1	incongruent/STIM_006.jpg
139.668	0.752	correct	incongruent	Block1	incongruent/STIM_006.jpg
143.66	1.25	correct	incongruent	Block1	incongruent/STIM_007.jpg
147.282	1.397	correct	incongruent	Block1	incongruent/STIM_007.jpg
151.197	1.088	incorrect	incongruent	Block1	incongruent/STIM_007.jpg
154.487	0.786	correct	incongruent	Block1	incongruent/STIM_007.jpg
158.867	1.294	correct	incongruent	Block1	incongruent/STIM_007.jpg
162.948	1.298	correct	incongruent	Block1	incongruent/STIM_008.jpg
166.446	0.849	correct	incongruent	Block1	incongruent/STIM_008.jpg
171.0	1.176	correct	incongruent	Block1	incongruent/STIM_008.jpg
175.023	1.192	correct	incongruent	Block1	incongruent/STIM_008.jpg
179.133	1.202	correct	incongruent	Block1	incongruent/STIM_008.jpg
182.621	1.499	correct	incongruent	Block1	incongruent/STIM_009.jpg
188.065	1.389	correct	incongruent	Block1	incongruent/STIM_009.jpg
192.794	0.713	correct	incongruent	Block1	incongruent/STIM_009.jpg
196.242	1.11	correct	incongruent	Block1	incongruent/STIM_009.jpg
199.421	1.3	correct	incongruent	Block1	incongruent/STIM_009.jpg
204.248	1.455	incorrect	incongruent	Block1	incongruent/STIM_010.jpg
208.686	1.525	correct	incongruent	Block1	incongruent/STIM_010.jpg
212.231	0.886	correct	incongruent	Block1	incongruent/STIM_010.jpg
216.861	0.935	correct	incongruent	Block1	incongruent/STIM_010.jpg
221.313	0.815	correct	incongruent	Block1	incongruent/STIM_010.jpg
225.69	0.897	correct	incongruent	Block1	incongruent/STIM_011.jpg
228.908	1.445	correct	incongruent	Block1	incongruent/STIM_011.jpg
233.971	1.096	correct	incongruent	Block1	incongruent/STIM_011.jpg
237.13	0.829	correct	incongruent	Block1	incongruent/STIM_011.jpg
240.859	0.714	correct	incongruent	Block1	incongruent/STIM_011.jpg
245.349	1.615	correct	incongruent	Block1	incongruent/STIM_012.jpg
250.7	1.073	correct	incongruent	Block1	incongruent/STIM_012.jpg
255.765	0.798	correct	incongruent	Block1	incongruent/STIM_012.jpg
260.19	1.344	correct	incongruent	Block1	incongruent/STIM_012.jpg
265.164	1.257	incorrect	incongruent	Block1	incongruent/STIM_012.jpg
268.81	1.412	correct	incongruent	Block1	incongruent/STIM_013.jpg
272.991	1.273	correct	incongruent	Block1	incongruent/STIM_013.jpg
277.712	0.788	correct	incongruent	Block1	incongruent/STIM_013.jpg
280.914	1.175	correct	incongruent	Block1	incongruent/STIM_013.jpg
285.695	1.244	correct	incongruent	Block1	incongruent/STIM_013.jpg
290.278	1.428	incorrect	incongruent	Block1	incongruent/STIM_014.jpg
294.01	1.356	correct	incongruent	Block1	incongruent/STIM_014.jpg
299.041	1.183	correct	incongruent	Block1	incongruent/STIM_014.jpg
303.202	1.265	incorrect	incongruent	Block1	incongruent/STIM_014.jpg
308.139	0.91	correct	incongruent	Block1	incongruent/STIM_014.jpg
311.781	0.922	correct	incongruent	Block1	incongruent/STIM_015.jpg
315.477	1.038	correct	incongruent	Block1	incongruent/STIM_015.jpg
319.529	0.758	correct	incongruent	Block1	incongruent/STIM_015.jpg
323.058	1.001	correct	incongruent	Block1	incongruent/STIM_015.jpg
327.942	0.959	correct	incongruent	Block1	incongruent/STIM_015.jpg
331.653	1.345	correct	incongruent	Block1	incongruent/STIM_016.jpg
335.446	1.01	correct	incongruent	Block1	incongruent/STIM_016.jpg
339.545	0.909	incorrect	incongruent	Block1	incongruent/STIM_016.jpg
344.026	1.328	correct	incongruent	Block1	incongruent/STIM_016.jpg
349.231	0.832	correct	incongruent	Block1	incongruent/STIM_016.jpg
352.922	1.256	correct	incongruent	Block1	incongruent/STIM_017.jpg
357.7	1.1	correct	incongruent	Block1	incongruent/STIM_017.jpg
361.966	1.119	correct	incongruent	Block1	incongruent/STIM_017.jpg
366.796	0.81	correct	incongruent	Block1	incongruent/STIM_017.jpg
370.653	1.103	correct	incongruent	Block1	incongruent/STIM_017.jpg
375.615	0.814	correct	incongruent	Block1	incongruent/STIM_018.jpg
378.824	1.034	correct	incongruent	Block1	incongruent/STIM_018.jpg
383.637	0.768	correct	incongruent	Block1	incongruent/STIM_018.jpg
387.377	1.055	correct	incongruent	Block1	incongruent/STIM_018.jpg
390.879	0.736	correct	incongruent	Block1	incongruent/STIM_018.jpg
393.908	1.374	correct	incongruent	Block1	incongruent/STIM_019.jpg
397.67	0.908	incorrect	incongruent	Block1	incongruent/STIM_019.jpg
401.049	0.912	correct	incongruent	Block1	incongruent/STIM_019.jpg
405.44	1.175	correct	incongruent	Block1	incongruent/STIM_019.jpg
408.916	0.986	correct	incongruent	Block1	incongruent/STIM_019.jpg
412.524	1.18	correct	incongruent	Block1	incongruent/STIM_020.jpg
417.675	1.49	correct	incongruent	Block1	incongruent/STIM_020.jpg
422.636	0.809	correct	incongruent	Block1	incongruent/STIM_020.jpg
426.868	1.366	correct	incongruent	Block1	incongruent/STIM_020.jpg
430.4	0.853	correct	incongruent	Block1	incongruent/STIM_020.jpg
434.105	0.794	correct	incongruent	Block1	incongruent/STIM_021.jpg
437.759	1.296	correct	incongruent	Block1	incongruent/STIM_021.jpg
441.145	1.266	correct	incongruent	Block1	incongruent/STIM_021.jpg
445.895	0.769	correct	incongruent	Block1	incongruent/STIM_021.jpg
448.875	0.93	correct	incongruent	Block1	incongruent/STIM_021.jpg
453.137	1.018	correct	incongruent	Block1	incongruent/STIM_022.jpg
456.247	0.973	correct	incongruent	Block1	incongruent/STIM_022.jpg
460.765	1.156	correct	incongruent	Block1	incongruent/STIM_022.jpg
464.855	1.107	correct	incongruent	Block1	incongruent/STIM_022.jpg
468.487	1.239	correct	incongruent	Block1	incongruent/STIM_022.jpg
472.673	1.314	correct	incongruent	Block1	incongruent/STIM_023.jpg
476.615	1.27	correct	incongruent	Block1	incongruent/STIM_023.jpg
480.232	0.756	correct	incongruent	Block1	incongruent/STIM_023.jpg
484.669	1.176	correct	incongruent	Block1	incongruent/STIM_023.jpg
488.864	0.684	correct	incongruent	Block1	incongruent/STIM_023.jpg
492.49	1.308	incorrect	incongruent	Block1	incongruent/STIM_024.jpg
496.988	1.163	correct	incongruent	Block1	incongruent/STIM_024.jpg
501.494	1.023	incorrect	incongruent	Block1	incongruent/STIM_024.jpg
504.752	1.334	correct	incongruent	Block1	incongruent/STIM_024.jpg
508.571	1.048	correct	incongruent	Block1	incongruent/STIM_024.jpg
512.488	0.8	correct	incongruent	Block1	incongruent/STIM_025.jpg
516.783	1.091	correct	incongruent	Block1	incongruent/STIM_025.jpg
521.57	1.326	incorrect	incongruent	Block1	incongruent/STIM_025.jpg
526.1	1.062	correct	incongruent	Block1	incongruent/STIM_025.jpg
530.837	1.025	correct	incongruent	Block1	incongruent/STIM_025.jpg
534.54	1.139	correct	incongruent	Block1	incongruent/STIM_026.jpg
539.229	1.517	correct	incongruent	Block1	incongruent/STIM_026.jpg
544.208	0.856	correct	incongruent	Block1	incongruent/STIM_026.jpg
548.726	1.078	correct	incongruent	Block1	incongruent/STIM_026.jpg
552.462	1.182	correct	incongruent	Block1	incongruent/STIM_026.jpg
557.077	1.419	incorrect	incongruent	Block1	incongruent/STIM_027.jpg
561.578	1.39	correct	incongruent	Block1	incongruent/STIM_027.jpg
566.485	0.848	correct	incongruent	Block1	incongruent/STIM_027.jpg
571.26	1.105	correct	incongruent	Block1	incongruent/STIM_027.jpg
575.791	0.885	correct	incongruent	Block1	incongruent/STIM_027.jpg
579.776	1.438	correct	incongruent	Block1	incongruent/STIM_028.jpg
583.891	1.467	correct	incongruent	Block1	incongruent/STIM_028.jpg
589.268	1.158	correct	incongruent	Block1	incongruent/STIM_028.jpg
592.586	1.047	correct	incongruent	Block1	incongruent/STIM_028.jpg
595.858	0.795	correct	incongruent	Block1	incongruent/STIM_028.jpg
599.575	0.954	correct	incongruent	Block1	incongruent/STIM_029.jpg
604.054	1.075	correct	incongruent	Block1	incongruent/STIM_029.jpg
609.009	1.353	correct	incongruent	Block1	incongruent/STIM_029.jpg
614.287	0.811	correct	incongruent	Block1	incongruent/STIM_029.jpg
617.581	0.723	correct	incongruent	Block1	incongruent/STIM_029.jpg
620.485	0.599	correct	congruent	Block1	congruent/STIM_000.jpg
623.533	0.675	correct	congruent	Block1	congruent/STIM_000.jpg
626.622	0.692	correct	congruent	Block1	congruent/STIM_000.jpg
630.666	0.631	correct	congruent	Block1	congruent/STIM_000.jpg
633.663	0.744	correct	congruent	Block1	congruent/STIM_000.jpg
638.384	0.908	correct	congruent	Block1	congruent/STIM_001.jpg
642.052	0.95	correct	congruent	Block1	congruent/STIM_001.jpg
646.725	0.747	correct	congruent	Block1	congruent/STIM_001.jpg
651.025	0.698	correct	congruent	Block1	congruent/STIM_001.jpg
655.558	0.852	correct	congruent	Block1	congruent/STIM_001.jpg
659.016	0.776	correct	congruent	Block1	congruent/STIM_002.jpg
662.609	0.871	correct	congruent	Block1	congruent/STIM_002.jpg
666.062	0.658	correct	congruent	Block1	congruent/STIM_002.jpg
668.761	0.744	correct	congruent	Block1	congruent/STIM_002.jpg
672.989	0.838	correct	congruent	Block1	congruent/STIM_002.jpg
676.2	0.665	incorrect	congruent	Block1	congruent/STIM_003.jpg
680.295	0.623	correct	congruent	Block1	congruent/STIM_003.jpg
683.602	0.639	correct	congruent	Block1	congruent/STIM_003.jpg
687.481	0.665	correct	congruent	Block1	congruent/STIM_003.jpg
691.483	0.626	correct	congruent	Block1	congruent/STIM_003.jpg
694.215	0.925	correct	congruent	Block1	congruent/STIM_004.jpg
698.831	0.674	correct	congruent	Block1	congruent/STIM_004.jpg
703.442	0.768	correct	congruent	Block1	congruent/STIM_004.jpg
706.459	0.878	correct	congruent	Block1	congruent/STIM_004.jpg
710.471	0.806	correct	congruent	Block1	congruent/STIM_004.jpg
715.159	0.85	correct	congruent	Block1	congruent/STIM_005.jpg
718.739	0.699	correct	congruent	Block1	congruent/STIM_005.jpg
722.331	0.98	correct	congruent	Block1	congruent/STIM_005.jpg
725.574	0.982	correct	congruent	Block1	congruent/STIM_005.jpg
730.264	0.575	correct	congruent	Block1	congruent/STIM_005.jpg
734.284	0.726	correct	congruent	Block1	congruent/STIM_006.jpg
737.129	0.902	correct	congruent	Block1	congruent/STIM_006.jpg
741.041	0.826	correct	congruent	Block1	congruent/STIM_006.jpg
744.186	0.835	correct	congruent	Block1	congruent/STIM_006.jpg
748.426	0.869	correct	congruent	Block1	congruent/STIM_006.jpg
751.755	0.72	correct	congruent	Block1	congruent/STIM_007.jpg
756.159	0.843	incorrect	congruent	Block1	congruent/STIM_007.jpg
760.717	0.702	correct	congruent	Block1	congruent/STIM_007.jpg
765.311	0.664	correct	congruent	Block1	congruent/STIM_007.jpg
769.12	0.644	correct	congruent	Block1	congruent/STIM_007.jpg
773.76	0.73	correct	congruent	Block1	congruent/STIM_008.jpg
778.249	0.678	correct	congruent	Block1	congruent/STIM_008.jpg
782.121	0.898	correct	congruent	Block1	congruent/STIM_008.jpg
786.332	0.941	correct	congruent	Block1	congruent/STIM_008.jpg
789.611	0.888	correct	congruent	Block1	congruent/STIM_008.jpg
793.967	0.838	correct	congruent	Block1	congruent/STIM_009.jpg
798.72	0.557	correct	congruent	Block1	congruent/STIM_009.jpg
802.41	0.865	correct	congruent	Block1	congruent/STIM_009.jpg
805.955	0.836	incorrect	congruent	Block1	congruent/STIM_009.jpg
808.905	0.689	correct	congruent	Block1	congruent/STIM_009.jpg
812.373	0.701	correct	congruent	Block1	congruent/STIM_010.jpg
816.926	0.606	correct	congruent	Block1	congruent/STIM_010.jpg
821.352	0.607	correct	congruent	Block1	congruent/STIM_010.jpg
825.827	0.879	incorrect	congruent	Block1	congruent/STIM_010.jpg
829.013	0.769	correct	congruent	Block1	congruent/STIM_010.jpg
832.553	0.862	correct	congruent	Block1	congruent/STIM_011.jpg
837.176	0.768	correct	congruent	Block1	congruent/STIM_011.jpg
840.211	0.818	correct	congruent	Block1	congruent/STIM_011.jpg
843.65	0.798	correct	congruent	Block1	congruent/STIM_011.jpg
847.227	0.962	correct	congruent	Block1	congruent/STIM_011.jpg
850.348	0.842	correct	congruent	Block1	congruent/STIM_012.jpg
853.215	0.583	correct	congruent	Block1	congruent/STIM_012.jpg
857.679	0.654	correct	congruent	Block1	congruent/STIM_012.jpg
861.404	0.916	correct	congruent	Block1	congruent/STIM_012.jpg
865.812	0.978	correct	congruent	Block1	congruent/STIM_012.jpg
870.221	0.627	correct	congruent	Block1	congruent/STIM_013.jpg
872.996	0.635	correct	congruent	Block1	congruent/STIM_013.jpg
875.663	0.701	correct	congruent	Block1	congruent/STIM_013.jpg
878.643	0.866	correct	congruent	Block1	congruent/STIM_013.jpg
882.012	0.889	correct	congruent	Block1	congruent/STIM_013.jpg
885.88	0.97	correct	congruent	Block1	congruent/STIM_014.jpg
889.859	0.878	correct	congruent	Block1	congruent/STIM_014.jpg
893.172	0.574	correct	congruent	Block1	congruent/STIM_014.jpg
897.09	0.776	correct	congruent	Block1	congruent/STIM_014.jpg
900.184	0.621	correct	congruent	Block1	congruent/STIM_014.jpg
903.606	0.589	correct	congruent	Block1	congruent/STIM_015.jpg
907.393	0.855	correct	congruent	Block1	congruent/STIM_015.jpg
910.458	0.973	correct	congruent	Block1	congruent/STIM_015.jpg
914.108	0.596	correct	congruent	Block1	congruent/STIM_015.jpg
918.113	0.734	correct	congruent	Block1	congruent/STIM_015.jpg
922.755	0.731	incorrect	congruent	Block1	congruent/STIM_016.jpg
926.186	0.842	correct	congruent	Block1	congruent/STIM_016.jpg
929.317	0.901	correct	congruent	Block1	congruent/STIM_016.jpg
934.121	0.757	correct	congruent	Block1	congruent/STIM_016.jpg
938.633	0.972	correct	congruent	Block1	congruent/STIM_016.jpg
943.366	0.932	correct	congruent	Block1	congruent/STIM_017.jpg
946.85	0.75	correct	congruent	Block1	congruent/STIM_017.jpg
949.953	0.742	correct	congruent	Block1	congruent/STIM_017.jpg
953.041	0.86	correct	congruent	Block1	congruent/STIM_017.jpg
957.367	0.582	correct	congruent	Block1	congruent/STIM_017.jpg
961.816	0.956	correct	congruent	Block1	congruent/STIM_018.jpg
966.483	0.956	correct	congruent	Block1	congruent/STIM_018.jpg
971.18	0.716	correct	congruent	Block1	congruent/STIM_018.jpg
974.966	0.611	correct	congruent	Block1	congruent/STIM_018.jpg
978.935	0.797	correct	congruent	Block1	congruent/STIM_018.jpg
982.196	0.931	correct	congruent	Block1	congruent/STIM_019.jpg
986.37	0.941	correct	congruent	Block1	congruent/STIM_019.jpg
990.102	0.659	correct	congruent	Block1	congruent/STIM_019.jpg
993.238	0.916	correct	congruent	Block1	congruent/STIM_019.jpg
997.068	0.902	correct	congruent	Block1	congruent/STIM_019.jpg
1000.41	0.693	correct	congruent	Block1	congruent/STIM_020.jpg
1003.264	0.916	correct	congruent	Block1	congruent/STIM_020.jpg
1007.03	0.657	correct	congruent	Block1	congruent/STIM_020.jpg
1009.701	0.762	incorrect	congruent	Block1	congruent/STIM_020.jpg
1012.607	0.709	correct	congruent	Block1	congruent/STIM_020.jpg
1017.215	0.971	correct	congruent	Block1	congruent/STIM_021.jpg
1020.933	0.797	correct	congruent	Block1	congruent/STIM_021.jpg
1024.741	0.585	correct	congruent	Block1	congruent/STIM_021.jpg
1027.432	0.693	correct	congruent	Block1	congruent/STIM_021.jpg
1030.943	0.596	correct	congruent	Block1	congruent/STIM_021.jpg
1033.643	0.856	incorrect	congruent	Block1	congruent/STIM_022.jpg
1038.393	0.657	correct	congruent	Block1	congruent/STIM_022.jpg
1041.476	0.581	correct	congruent	Block1	congruent/STIM_022.jpg
1045.845	0.576	correct	congruent	Block1	congruent/STIM_022.jpg
1048.457	0.748	correct	congruent	Block1	congruent/STIM_022.jpg
1052.649	0.879	correct	congruent	Block1	congruent/STIM_023.jpg
1056.453	0.617	correct	congruent	Block1	congruent/STIM_023.jpg
1059.309	0.928	correct	congruent	Block1	congruent/STIM_023.jpg
1063.74	0.678	correct	congruent	Block1	congruent/STIM_023.jpg
1068.192	0.608	correct	congruent	Block1	congruent/STIM_023.jpg
1071.478	0.637	correct	congruent	Block1	congruent/STIM_024.jpg
1074.788	0.959	correct	congruent	Block1	congruent/STIM_024.jpg
1079.281	0.629	correct	congruent	Block1	congruent/STIM_024.jpg
1083.829	0.63	correct	congruent	Block1	congruent/STIM_024.jpg
1087.098	0.966	correct	congruent	Block1	congruent/STIM_024.jpg
1091.465	0.979	correct	congruent	Block1	congruent/STIM_025.jpg
1094.772	0.811	correct	congruent	Block1	congruent/STIM_025.jpg
1099.012	0.765	correct	congruent	Block1	congruent/STIM_025.jpg
1102.348	0.631	correct	congruent	Block1	congruent/STIM_025.jpg
1105.473	0.669	correct	congruent	Block1	congruent/STIM_025.jpg
1110.107	0.623	correct	congruent	Block1	congruent/STIM_026.jpg
1114.661	0.961	correct	congruent	Block1	congruent/STIM_026.jpg
1118.717	0.618	correct	congruent	Block1	congruent/STIM_026.jpg
1122.003	0.569	correct	congruent	Block1	congruent/STIM_026.jpg
1125.496	0.69	correct	congruent	Block1	congruent/STIM_026.jpg
1129.606	0.801	correct	congruent	Block1	congruent/STIM_027.jpg
1133.227	0.906	correct	congruent	Block1	congruent/STIM_027.jpg
1137.097	0.935	correct	congruent	Block1	congruent/STIM_027.jpg
1141.185	0.645	correct	congruent	Block1	congruent/STIM_027.jpg
1144.713	0.829	correct	congruent	Block1	congruent/STIM_027.jpg
1148.702	0.706	correct	congruent	Block1	congruent/STIM_028.jpg
1151.791	0.738	correct	congruent	Block1	congruent/STIM_028.jpg
1154.667	0.977	correct	congruent	Block1	congruent/STIM_028.jpg
1158.401	0.814	correct	congruent	Block1	congruent/STIM_028.jpg
1162.09	0.639	incorrect	congruent	Block1	congruent/STIM_028.jpg
1166.509	0.85	correct	congruent	Block1	congruent/STIM_029.jpg
1170.217	0.92	correct	congruent	Block1	congruent/STIM_029.jpg
1174.814	0.652	correct	congruent	Block1	congruent/STIM_029.jpg
1178.968	0.806	correct	congruent	Block1	congruent/STIM_029.jpg
1183.484	0.847	correct	congruent	Block1	congruent/STIM_029.jpg
1186.854	0.957	incorrect	incongruent	Block2	incongruent/STIM_000.jpg
1190.557	1.025	correct	incongruent	Block2	incongruent/STIM_000.jpg
1194.874	1.088	correct	incongruent	Block2	incongruent/STIM_000.jpg
1199.572	0.651	correct	incongruent	Block2	incongruent/STIM_000.jpg
1203.156	0.827	correct	incongruent	Block2	incongruent/STIM_000.jpg
1206.3	1.358	correct	incongruent	Block2	incongruent/STIM_001.jpg
1210.332	1.221	correct	incongruent	Block2	incongruent/STIM_001.jpg
1214.647	1.067	correct	incongruent	Block2	incongruent/STIM_001.jpg
1217.788	1.13	correct	incongruent	Block2	incongruent/STIM_001.jpg
1222.103	1.034	correct	incongruent	Block2	incongruent/STIM_001.jpg
1226.991	1.292	correct	incongruent	Block2	incongruent/STIM_002.jpg
1231.701	0.685	correct	incongruent	Block2	incongruent/STIM_002.jpg
1235.039	1.21	correct	incongruent	Block2	incongruent/STIM_002.jpg
1239.825	0.933	correct	incongruent	Block2	incongruent/STIM_002.jpg
1243.833	1.095	correct	incongruent	Block2	incongruent/STIM_002.jpg
1248.466	0.838	correct	incongruent	Block2	incongruent/STIM_003.jpg
1253.031	1.288	correct	incongruent	Block2	incongruent/STIM_003.jpg
1258.192	0.886	correct	incongruent	Block2	incongruent/STIM_003.jpg
1261.43	0.605	correct	incongruent	Block2	incongruent/STIM_003.jpg
1264.089	0.711	correct	incongruent	Block2	incongruent/STIM_003.jpg
1268.707	0.712	correct	incongruent	Block2	incongruent/STIM_004.jpg
1271.672	0.998	correct	incongruent	Block2	incongruent/STIM_004.jpg
1276.526	0.826	correct	incongruent	Block2	incongruent/STIM_004.jpg
1280.567	0.699	correct	incongruent	Block2	incongruent/STIM_004.jpg
1283.9	1.031	correct	incongruent	Block2	incongruent/STIM_004.jpg
1288.005	1.089	correct	incongruent	Block2	incongruent/STIM_005.jpg
1291.488	0.807	correct	incongruent	Block2	incongruent/STIM_005.jpg
1294.901	1.198	correct	incongruent	Block2	incongruent/STIM_005.jpg
1300.001	1.081	correct	incongruent	Block2	incongruent/STIM_005.jpg
1304.609	0.817	correct	incongruent	Block2	incongruent/STIM_005.jpg
1309.268	0.749	correct	incongruent	Block2	incongruent/STIM_006.jpg
1312.1	1.09	correct	incongruent	Block2	incongruent/STIM_006.jpg
1315.891	0.702	correct	incongruent	Block2	incongruent/STIM_006.jpg
1320.48	1.141	incorrect	incongruent	Block2	incongruent/STIM_006.jpg
1325.349	0.952	correct	incongruent	Block2	incongruent/STIM_006.jpg
1328.954	1.17	correct	incongruent	Block2	incongruent/STIM_007.jpg
1333.377	1.095	correct	incongruent	Block2	incongruent/STIM_007.jpg
1338.414	1.2	correct	incongruent	Block2	incongruent/STIM_007.jpg
1343.308	0.812	correct	incongruent	Block2	incongruent/STIM_007.jpg
1347.816	0.601	correct	incongruent	Block2	incongruent/STIM_007.jpg
1352.037	0.683	correct	incongruent	Block2	incongruent/STIM_008.jpg
1355.373	1.154	correct	incongruent	Block2	incongruent/STIM_008.jpg
1358.934	0.711	correct	incongruent	Block2	incongruent/STIM_008.jpg
1363.501	0.641	incorrect	incongruent	Block2	incongruent/STIM_008.jpg
1366.959	1.032	correct	incongruent	Block2	incongruent/STIM_008.jpg
1371.297	1.355	correct	incongruent	Block2	incongruent/STIM_009.jpg
1374.802	1.194	correct	incongruent	Block2	incongruent/STIM_009.jpg
1378.076	0.764	incorrect	incongruent	Block2	incongruent/STIM_009.jpg
1381.482	0.668	correct	incongruent	Block2	incongruent/STIM_009.jpg
1385.165	1.138	correct	incongruent	Block2	incongruent/STIM_009.jpg
1389.973	0.671	correct	incongruent	Block2	incongruent/STIM_010.jpg
1392.986	0.997	correct	incongruent	Block2	incongruent/STIM_010.jpg
1396.155	1.022	correct	incongruent	Block2	incongruent/STIM_010.jpg
1400.907	0.656	correct	incongruent	Block2	incongruent/STIM_010.jpg
1404.365	0.669	correct	incongruent	Block2	incongruent/STIM_010.jpg
1407.466	0.742	correct	incongruent	Block2	incongruent/STIM_011.jpg
1412.194	1.315	correct	incongruent	Block2	incongruent/STIM_011.jpg
1416.146	0.922	correct	incongruent	Block2	incongruent/STIM_011.jpg
1420.162	1.082	correct	incongruent	Block2	incongruent/STIM_011.jpg
1424.69	1.134	correct	incongruent	Block2	incongruent/STIM_011.jpg
1428.921	0.678	correct	incongruent	Block2	incongruent/STIM_012.jpg
1432.534	0.838	correct	incongruent	Block2	incongruent/STIM_012.jpg
1436.37	1.148	correct	incongruent	Block2	incongruent/STIM_012.jpg
1440.045	0.625	correct	incongruent	Block2	incongruent/STIM_012.jpg
1443.792	0.632	correct	incongruent	Block2	incongruent/STIM_012.jpg
1446.939	0.9	correct	incongruent	Block2	incongruent/STIM_013.jpg
1451.357	1.118	correct	incongruent	Block2	incongruent/STIM_013.jpg
1455.597	0.711	correct	incongruent	Block2	incongruent/STIM_013.jpg
1460.175	0.774	correct	incongruent	Block2	incongruent/STIM_013.jpg
1464.661	0.857	correct	incongruent	Block2	incongruent/STIM_013.jpg
1468.239	1.316	correct	incongruent	Block2	incongruent/STIM_014.jpg
1471.644	1.024	correct	incongruent	Block2	incongruent/STIM_014.jpg
1474.757	0.642	correct	incongruent	Block2	incongruent/STIM_014.jpg
1478.037	0.807	incorrect	incongruent	Block2	incongruent/STIM_014.jpg
1482.192	1.085	correct	incongruent	Block2	incongruent/STIM_014.jpg
1486.863	1.228	incorrect	incongruent	Block2	incongruent/STIM_015.jpg
1491.751	1.282	incorrect	incongruent	Block2	incongruent/STIM_015.jpg
1495.315	1.197	correct	incongruent	Block2	incongruent/STIM_015.jpg
1499.022	0.588	correct	incongruent	Block2	incongruent/STIM_015.jpg
1502.001	0.574	correct	incongruent	Block2	incongruent/STIM_015.jpg
1505.699	0.786	correct	incongruent	Block2	incongruent/STIM_016.jpg
1510.048	1.097	correct	incongruent	Block2	incongruent/STIM_016.jpg
1515.131	1.057	correct	incongruent	Block2	incongruent/STIM_016.jpg
1519.529	0.894	correct	incongruent	Block2	incongruent/STIM_016.jpg
1522.799	0.848	correct	incongruent	Block2	incongruent/STIM_016.jpg
1526.74	1.31	correct	incongruent	Block2	incongruent/STIM_017.jpg
1532.029	1.217	correct	incongruent	Block2	incongruent/STIM_017.jpg
1536.359	1.081	correct	incongruent	Block2	incongruent/STIM_017.jpg
1539.742	0.741	correct	incongruent	Block2	incongruent/STIM_017.jpg
1543.599	1.004	correct	incongruent	Block2	incongruent/STIM_017.jpg
1548.511	1.359	correct	incongruent	Block2	incongruent/STIM_018.jpg
1552.629	0.863	correct	incongruent	Block2	incongruent/STIM_018.jpg
1556.773	0.813	correct	incongruent	Block2	incongruent/STIM_018.jpg
1560.507	0.973	correct	incongruent	Block2	incongruent/STIM_018.jpg
1563.602	0.594	correct	incongruent	Block2	incongruent/STIM_018.jpg
1566.956	1.375	correct	incongruent	Block2	incongruent/STIM_019.jpg
1572.146	1.238	correct	incongruent	Block2	incongruent/STIM_019.jpg
1576.284	1.225	correct	incongruent	Block2	incongruent/STIM_019.jpg
1580.248	0.901	correct	incongruent	Block2	incongruent/STIM_019.jpg
1584.453	1.012	correct	incongruent	Block2	incongruent/STIM_019.jpg
1587.739	0.823	correct	incongruent	Block2	incongruent/STIM_020.jpg
1590.641	0.661	correct	incongruent	Block2	incongruent/STIM_020.jpg
1593.803	0.762	correct	incongruent	Block2	incongruent/STIM_020.jpg
1598.11	0.78	correct	incongruent	Block2	incongruent/STIM_020.jpg
1601.097	0.882	correct	incongruent	Block2	incongruent/STIM_020.jpg
1603.994	1.294	correct	incongruent	Block2	incongruent/STIM_021.jpg
1609.153	1.174	correct	incongruent	Block2	incongruent/STIM_021.jpg
1613.205	0.782	correct	incongruent	Block2	incongruent/STIM_021.jpg
1616.175	1.05	correct	incongruent	Block2	incongruent/STIM_021.jpg
1621.181	0.641	correct	incongruent	Block2	incongruent/STIM_021.jpg
1624.383	0.774	correct	incongruent	Block2	incongruent/STIM_022.jpg
1627.468	0.681	correct	incongruent	Block2	incongruent/STIM_022.jpg
1631.789	1.058	correct	incongruent	Block2	incongruent/STIM_022.jpg
1636.47	0.959	correct	incongruent	Block2	incongruent/STIM_022.jpg
1640.755	0.73	correct	incongruent	Block2	incongruent/STIM_022.jpg
1645.023	1.013	correct	incongruent	Block2	incongruent/STIM_023.jpg
1649.878	1.135	correct	incongruent	Block2	incongruent/STIM_023.jpg
1653.506	0.997	correct	incongruent	Block2	incongruent/STIM_023.jpg
1656.938	0.825	correct	incongruent	Block2	incongruent/STIM_023.jpg
1661.286	0.71	correct	incongruent	Block2	incongruent/STIM_023.jpg
1664.865	1.259	correct	incongruent	Block2	incongruent/STIM_024.jpg
1669.802	1.137	correct	incongruent	Block2	incongruent/STIM_024.jpg
1674.577	0.619	correct	incongruent	Block2	incongruent/STIM_024.jpg
1679.041	1.006	correct	incongruent	Block2	incongruent/STIM_024.jpg
1682.093	0.777	correct	incongruent	Block2	incongruent/STIM_024.jpg
1685.611	0.839	correct	incongruent	Block2	incongruent/STIM_025.jpg
1690.283	1.059	correct	incongruent	Block2	incongruent/STIM_025.jpg
1694.057	0.859	correct	incongruent	Block2	incongruent/STIM_025.jpg
1697.104	0.683	correct	incongruent	Block2	incongruent/STIM_025.jpg
1701.682	0.705	correct	incongruent	Block2	incongruent/STIM_025.jpg
1706.138	1.357	correct	incongruent	Block2	incongruent/STIM_026.jpg
1710.236	1.236	correct	incongruent	Block2	incongruent/STIM_026.jpg
1714.355	1.084	correct	incongruent	Block2	incongruent/STIM_026.jpg
1719.094	1.018	correct	incongruent	Block2	incongruent/STIM_026.jpg
1723.59	1.036	correct	incongruent	Block2	incongruent/STIM_026.jpg
1727.302	1.017	correct	incongruent	Block2	incongruent/STIM_027.jpg
1731.3	0.734	correct	incongruent	Block2	incongruent/STIM_027.jpg
1736.012	0.809	correct	incongruent	Block2	incongruent/STIM_027.jpg
1739.769	0.939	correct	incongruent	Block2	incongruent/STIM_027.jpg
1744.588	0.632	correct	incongruent	Block2	incongruent/STIM_027.jpg
1748.896	1.233	correct	incongruent	Block2	incongruent/STIM_028.jpg
1753.641	0.767	correct	incongruent	Block2	incongruent/STIM_028.jpg
1756.694	0.616	correct	incongruent	Block2	incongruent/STIM_028.jpg
1761.055	1.049	correct	incongruent	Block2	incongruent/STIM_028.jpg
1765.546	1.005	correct	incongruent	Block2	incongruent/STIM_028.jpg
1769.18	0.762	correct	incongruent	Block2	incongruent/STIM_029.jpg
1773.047	1.014	incorrect	incongruent	Block2	incongruent/STIM_029.jpg
1777.087	1.081	correct	incongruent	Block2	incongruent/STIM_029.jpg
1781.472	0.774	correct	incongruent	Block2	incongruent/STIM_029.jpg
1784.725	0.951	correct	incongruent	Block2	incongruent/STIM_029.jpg
1787.981	0.965	correct	congruent	Block2	congruent/STIM_000.jpg
1792.651	0.777	correct	congruent	Block2	congruent/STIM_000.jpg
1795.887	0.652	correct	congruent	Block2	congruent/STIM_000.jpg
1798.784	0.833	correct	congruent	Block2	congruent/STIM_000.jpg
1802.008	0.925	correct	congruent	Block2	congruent/STIM_000.jpg
1805.343	0.794	correct	congruent	Block2	congruent/STIM_001.jpg
1809.165	0.794	incorrect	congruent	Block2	congruent/STIM_001.jpg
1813.679	0.569	correct	congruent	Block2	congruent/STIM_001.jpg
1816.561	0.645	correct	congruent	Block2	congruent/STIM_001.jpg
1819.302	0.634	correct	congruent	Block2	congruent/STIM_001.jpg
1822.14	0.881	correct	congruent	Block2	congruent/STIM_002.jpg
1826.199	0.721	correct	congruent	Block2	congruent/STIM_002.jpg
1829.008	0.915	correct	congruent	Block2	congruent/STIM_002.jpg
1832.52	0.625	correct	congruent	Block2	congruent/STIM_002.jpg
1835.771	0.862	correct	congruent	Block2	congruent/STIM_002.jpg
1839.278	0.968	correct	congruent	Block2	congruent/STIM_003.jpg
1842.785	0.968	correct	congruent	Block2	congruent/STIM_003.jpg
1847.118	0.585	correct	congruent	Block2	congruent/STIM_003.jpg
1850.647	0.674	correct	congruent	Block2	congruent/STIM_003.jpg
1854.591	0.952	correct	congruent	Block2	congruent/STIM_003.jpg
1857.755	0.724	correct	congruent	Block2	congruent/STIM_004.jpg
1862.145	0.902	correct	congruent	Block2	congruent/STIM_004.jpg
1866.845	0.616	correct	congruent	Block2	congruent/STIM_004.jpg
1871.242	0.743	correct	congruent	Block2	congruent/STIM_004.jpg
1875.874	0.957	correct	congruent	Block2	congruent/STIM_004.jpg
1879.626	0.667	correct	congruent	Block2	congruent/STIM_005.jpg
1883.031	0.637	correct	congruent	Block2	congruent/STIM_005.jpg
1886.261	0.87	correct	congruent	Block2	congruent/STIM_005.jpg
1889.922	0.953	correct	congruent	Block2	congruent/STIM_005.jpg
1894.604	0.764	correct	congruent	Block2	congruent/STIM_005.jpg
1898.194	0.609	correct	congruent	Block2	congruent/STIM_006.jpg
1902.602	0.682	correct	congruent	Block2	congruent/STIM_006.jpg
1905.738	0.637	correct	congruent	Block2	congruent/STIM_006.jpg
1909.649	0.603	correct	congruent	Block2	congruent/STIM_006.jpg
1913.723	0.844	correct	congruent	Block2	congruent/STIM_006.jpg
1917.637	0.963	correct	congruent	Block2	congruent/STIM_007.jpg
1921.903	0.93	correct	congruent	Block2	congruent/STIM_007.jpg
1925.141	0.637	correct	congruent	Block2	congruent/STIM_007.jpg
1929.291	0.894	correct	congruent	Block2	congruent/STIM_007.jpg
1933.674	0.582	correct	congruent	Block2	congruent/STIM_007.jpg
1937.443	0.966	correct	congruent	Block2	congruent/STIM_008.jpg
1940.848	0.973	correct	congruent	Block2	congruent/STIM_008.jpg
1943.955	0.766	correct	congruent	Block2	congruent/STIM_008.jpg
1947.715	0.801	correct	congruent	Block2	congruent/STIM_008.jpg
1950.853	0.728	correct	congruent	Block2	congruent/STIM_008.jpg
1954.133	0.918	correct	congruent	Block2	congruent/STIM_009.jpg
1957.835	0.952	correct	congruent	Block2	congruent/STIM_009.jpg
1961.132	0.949	correct	congruent	Block2	congruent/STIM_009.jpg
1965.337	0.622	correct	congruent	Block2	congruent/STIM_009.jpg
1969.534	0.808	correct	congruent	Block2	congruent/STIM_009.jpg
1974.142	0.982	correct	congruent	Block2	congruent/STIM_010.jpg
1978.458	0.839	correct	congruent	Block2	congruent/STIM_010.jpg
1981.476	0.869	correct	congruent	Block2	congruent/STIM_010.jpg
1985.98	0.913	correct	congruent	Block2	congruent/STIM_010.jpg
1989.961	0.826	correct	congruent	Block2	congruent/STIM_010.jpg
1993.679	0.608	correct	congruent	Block2	congruent/STIM_011.jpg
1996.664	0.85	correct	congruent	Block2	congruent/STIM_011.jpg
2000.096	0.765	correct	congruent	Block2	congruent/STIM_011.jpg
2003.012	0.847	correct	congruent	Block2	congruent/STIM_011.jpg
2007.238	0.83	correct	congruent	Block2	congruent/STIM_011.jpg
2010.25	0.855	correct	congruent	Block2	congruent/STIM_012.jpg
2014.235	0.87	correct	congruent	Block2	congruent/STIM_012.jpg
2019.067	0.985	correct	congruent	Block2	congruent/STIM_012.jpg
2023.794	0.703	correct	congruent	Block2	congruent/STIM_012.jpg
2028.288	0.73	correct	congruent	Block2	congruent/STIM_012.jpg
2031.898	0.741	correct	congruent	Block2	congruent/STIM_013.jpg
2035.675	0.775	correct	congruent	Block2	congruent/STIM_013.jpg
2038.494	0.583	correct	congruent	Block2	congruent/STIM_013.jpg
2042.136	0.578	correct	congruent	Block2	congruent/STIM_013.jpg
2045.987	0.786	correct	congruent	Block2	congruent/STIM_013.jpg
2048.994	0.554	correct	congruent	Block2	congruent/STIM_014.jpg
2052.785	0.833	correct	congruent	Block2	congruent/STIM_014.jpg
2056.705	0.635	correct	congruent	Block2	congruent/STIM_014.jpg
2059.466	0.892	correct	congruent	Block2	congruent/STIM_014.jpg
2063.689	0.782	correct	congruent	Block2	congruent/STIM_014.jpg
2066.531	0.859	correct	congruent	Block2	congruent/STIM_015.jpg
2070.082	0.561	incorrect	congruent	Block2	congruent/STIM_015.jpg
2073.151	0.958	correct	congruent	Block2	congruent/STIM_015.jpg
2076.154	0.657	correct	congruent	Block2	congruent/STIM_015.jpg
2079.603	0.941	correct	congruent	Block2	congruent/STIM_015.jpg
2083.694	0.773	correct	congruent	Block2	congruent/STIM_016.jpg
2086.467	0.91	correct	congruent	Block2	congruent/STIM_016.jpg
2090.625	0.741	correct	congruent	Block2	congruent/STIM_016.jpg
2095.168	0.959	correct	congruent	Block2	congruent/STIM_016.jpg
2098.319	0.859	correct	congruent	Block2	congruent/STIM_016.jpg
2103.028	0.554	correct	congruent	Block2	congruent/STIM_017.jpg
2106.056	0.614	correct	congruent	Block2	congruent/STIM_017.jpg
2109.217	0.692	correct	congruent	Block2	congruent/STIM_017.jpg
2113.362	0.588	correct	congruent	Block2	congruent/STIM_017.jpg
2117.196	0.759	correct	congruent	Block2	congruent/STIM_017.jpg
2121.009	0.699	correct	congruent	Block2	congruent/STIM_018.jpg
2125.33	0.981	correct	congruent	Block2	congruent/STIM_018.jpg
2129.696	0.924	correct	congruent	Block2	congruent/STIM_018.jpg
2134.477	0.595	correct	congruent	Block2	congruent/STIM_018.jpg
2138.75	0.599	correct	congruent	Block2	congruent/STIM_018.jpg
2142.685	0.577	correct	congruent	Block2	congruent/STIM_019.jpg
2145.769	0.67	correct	congruent	Block2	congruent/STIM_019.jpg
2148.789	0.965	correct	congruent	Block2	congruent/STIM_019.jpg
2152.371	0.62	correct	congruent	Block2	congruent/STIM_019.jpg
2156.2	0.984	correct	congruent	Block2	congruent/STIM_019.jpg
2160.018	0.664	correct	congruent	Block2	congruent/STIM_020.jpg
2164.422	0.795	correct	congruent	Block2	congruent/STIM_020.jpg
2167.657	0.926	correct	congruent	Block2	congruent/STIM_020.jpg
2171.512	0.903	correct	congruent	Block2	congruent/STIM_020.jpg
2176.101	0.824	correct	congruent	Block2	congruent/STIM_020.jpg
2179.851	0.816	correct	congruent	Block2	congruent/STIM_021.jpg
2184.054	0.956	correct	congruent	Block2	congruent/STIM_021.jpg
2187.429	0.772	correct	congruent	Block2	congruent/STIM_021.jpg
2191.693	0.857	correct	congruent	Block2	congruent/STIM_021.jpg
2194.636	0.567	correct	congruent	Block2	congruent/STIM_021.jpg
2197.329	0.769	correct	congruent	Block2	congruent/STIM_022.jpg
2201.231	0.769	incorrect	congruent	Block2	congruent/STIM_022.jpg
2204.846	0.653	correct	congruent	Block2	congruent/STIM_022.jpg
2207.501	0.965	correct	congruent	Block2	congruent/STIM_022.jpg
2211.789	0.677	correct	congruent	Block2	congruent/STIM_022.jpg
2214.593	0.58	correct	congruent	Block2	congruent/STIM_023.jpg
2217.403	0.738	correct	congruent	Block2	congruent/STIM_023.jpg
2220.906	0.966	incorrect	congruent	Block2	congruent/STIM_023.jpg
2225.839	0.732	correct	congruent	Block2	congruent/STIM_023.jpg
2228.839	0.981	correct	congruent	Block2	congruent/STIM_023.jpg
2232.32	0.645	correct	congruent	Block2	congruent/STIM_024.jpg
2236.794	0.803	correct	congruent	Block2	congruent/STIM_024.jpg
2240.072	0.885	correct	congruent	Block2	congruent/STIM_024.jpg
2243.465	0.752	correct	congruent	Block2	congruent/STIM_024.jpg
2246.749	0.934	correct	congruent	Block2	congruent/STIM_024.jpg
2251.42	0.934	correct	congruent	Block2	congruent/STIM_025.jpg
2255.708	0.572	correct	congruent	Block2	congruent/STIM_025.jpg
2259.958	0.668	correct	congruent	Block2	congruent/STIM_025.jpg
2263.376	0.827	correct	congruent	Block2	congruent/STIM_025.jpg
2267.338	0.906	correct	congruent	Block2	congruent/STIM_025.jpg
2272.185	0.731	correct	congruent	Block2	congruent/STIM_026.jpg
2276.07	0.834	correct	congruent	Block2	congruent/STIM_026.jpg
2279.348	0.574	correct	congruent	Block2	congruent/STIM_026.jpg
2282.311	0.943	correct	congruent	Block2	congruent/STIM_026.jpg
2287.227	0.603	incorrect	congruent	Block2	congruent/STIM_026.jpg
2291.157	0.774	incorrect	congruent	Block2	congruent/STIM_027.jpg
2294.912	0.553	correct	congruent	Block2	congruent/STIM_027.jpg
2298.662	0.917	correct	congruent	Block2	congruent/STIM_027.jpg
2302.737	0.557	correct	congruent	Block2	congruent/STIM_027.jpg
2305.616	0.666	correct	congruent	Block2	congruent/STIM_027.jpg
2309.136	0.588	correct	congruent	Block2	congruent/STIM_028.jpg
2312.67	0.679	correct	congruent	Block2	congruent/STIM_028.jpg
2316.196	0.58	correct	congruent	Block2	congruent/STIM_028.jpg
2319.178	0.857	correct	congruent	Block2	congruent/STIM_028.jpg
2323.67	0.587	correct	congruent	Block2	congruent/STIM_028.jpg
2328.196	0.724	correct	congruent	Block2	congruent/STIM_029.jpg
2332.023	0.982	correct	congruent	Block2	congruent/STIM_029.jpg
2335.099	0.593	correct	congruent	Block2	congruent/STIM_029.jpg
2337.912	0.76	correct	congruent	Block2	congruent/STIM_029.jpg
2342.315	0.886	correct	congruent	Block2	congruent/STIM_029.jpg
2345.712	0.826	correct	incongruent	Block3	incongruent/STIM_000.jpg
2349.265	0.759	correct	incongruent	Block3	incongruent/STIM_000.jpg
2352.8	1.08	correct	incongruent	Block3	incongruent/STIM_000.jpg
2356.924	1.015	correct	incongruent	Block3	incongruent/STIM_000.jpg
2360.462	0.876	correct	incongruent	Block3	incongruent/STIM_000.jpg
2363.762	0.552	correct	incongruent	Block3	incongruent/STIM_001.jpg
2366.435	0.659	correct	incongruent	Block3	incongruent/STIM_001.jpg
2369.752	0.935	correct	incongruent	Block3	incongruent/STIM_001.jpg
2373.165	0.703	correct	incongruent	Block3	incongruent/STIM_001.jpg
2376.091	1.063	correct	incongruent	Block3	incongruent/STIM_001.jpg
2381.058	1.136	correct	incongruent	Block3	incongruent/STIM_002.jpg
2384.745	1.122	correct	incongruent	Block3	incongruent/STIM_002.jpg
2388.8	1.031	correct	incongruent	Block3	incongruent/STIM_002.jpg
2392.753	0.656	correct	incongruent	Block3	incongruent/STIM_002.jpg
2395.672	0.783	correct	incongruent	Block3	incongruent/STIM_002.jpg
2399.796	0.922	correct	incongruent	Block3	incongruent/STIM_003.jpg
2403.78	0.754	correct	incongruent	Block3	incongruent/STIM_003.jpg
2408.183	0.724	correct	incongruent	Block3	incongruent/STIM_003.jpg
2412.35	0.935	correct	incongruent	Block3	incongruent/STIM_003.jpg
2415.637	1.133	correct	incongruent	Block3	incongruent/STIM_003.jpg
2419.836	0.897	incorrect	incongruent	Block3	incongruent/STIM_004.jpg
2422.874	0.646	correct	incongruent	Block3	incongruent/STIM_004.jpg
2427.466	0.795	correct	incongruent	Block3	incongruent/STIM_004.jpg
2430.264	0.601	correct	incongruent	Block3	incongruent/STIM_004.jpg
2434.37	0.559	correct	incongruent	Block3	incongruent/STIM_004.jpg
2438.822	1.132	correct	incongruent	Block3	incongruent/STIM_005.jpg
2443.445	0.861	correct	incongruent	Block3	incongruent/STIM_005.jpg
2446.964	0.777	correct	incongruent	Block3	incongruent/STIM_005.jpg
2451.143	0.974	correct	incongruent	Block3	incongruent/STIM_005.jpg
2455.325	1.054	correct	incongruent	Block3	incongruent/STIM_005.jpg
2458.406	0.951	correct	incongruent	Block3	incongruent/STIM_006.jpg
2461.654	0.747	correct	incongruent	Block3	incongruent/STIM_006.jpg
2465.746	0.743	correct	incongruent	Block3	incongruent/STIM_006.jpg
2470.174	0.796	correct	incongruent	Block3	incongruent/STIM_006.jpg
2473.089	0.796	correct	incongruent	Block3	incongruent/STIM_006.jpg
2476.481	0.581	correct	incongruent	Block3	incongruent/STIM_007.jpg
2479.485	0.915	correct	incongruent	Block3	incongruent/STIM_007.jpg
2483.997	0.99	correct	incongruent	Block3	incongruent/STIM_007.jpg
2488.294	0.689	correct	incongruent	Block3	incongruent/STIM_007.jpg
2491.099	0.644	correct	incongruent	Block3	incongruent/STIM_007.jpg
2494.367	0.983	correct	incongruent	Block3	incongruent/STIM_008.jpg
2498.623	0.586	correct	incongruent	Block3	incongruent/STIM_008.jpg
2502.069	1.004	correct	incongruent	Block3	incongruent/STIM_008.jpg
2505.231	0.844	correct	incongruent	Block3	incongruent/STIM_008.jpg
2508.209	0.994	correct	incongruent	Block3	incongruent/STIM_008.jpg
2511.977	0.895	correct	incongruent	Block3	incongruent/STIM_009.jpg
2516.47	0.612	incorrect	incongruent	Block3	incongruent/STIM_009.jpg
2519.633	0.721	correct	incongruent	Block3	incongruent/STIM_009.jpg
2522.836	0.716	correct	incongruent	Block3	incongruent/STIM_009.jpg
2526.174	0.844	correct	incongruent	Block3	incongruent/STIM_009.jpg
2529.778	0.583	correct	incongruent	Block3	incongruent/STIM_010.jpg
2534.249	0.744	incorrect	incongruent	Block3	incongruent/STIM_010.jpg
2538.98	0.715	correct	incongruent	Block3	incongruent/STIM_010.jpg
2543.366	1.02	correct	incongruent	Block3	incongruent/STIM_010.jpg
2547.032	0.846	correct	incongruent	Block3	incongruent/STIM_010.jpg
2550.615	0.899	correct	incongruent	Block3	incongruent/STIM_011.jpg
2554.991	0.588	correct	incongruent	Block3	incongruent/STIM_011.jpg
2558.053	0.951	correct	incongruent	Block3	incongruent/STIM_011.jpg
2562.405	0.636	correct	incongruent	Block3	incongruent/STIM_011.jpg
2565.478	0.874	correct	incongruent	Block3	incongruent/STIM_011.jpg
2570.297	0.574	correct	incongruent	Block3	incongruent/STIM_012.jpg
2574.602	0.858	correct	incongruent	Block3	incongruent/STIM_012.jpg
2577.7	1.08	correct	incongruent	Block3	incongruent/STIM_012.jpg
2582.392	1.056	correct	incongruent	Block3	incongruent/STIM_012.jpg
2585.835	1.105	correct	incongruent	Block3	incongruent/STIM_012.jpg
2589.925	0.765	correct	incongruent	Block3	incongruent/STIM_013.jpg
2593.62	1.125	correct	incongruent	Block3	incongruent/STIM_013.jpg
2596.891	0.686	correct	incongruent	Block3	incongruent/STIM_013.jpg
2601.074	0.682	correct	incongruent	Block3	incongruent/STIM_013.jpg
2605.447	1.127	correct	incongruent	Block3	incongruent/STIM_013.jpg
2608.636	1.096	correct	incongruent	Block3	incongruent/STIM_014.jpg
2611.989	1.148	correct	incongruent	Block3	incongruent/STIM_014.jpg
2615.625	0.576	correct	incongruent	Block3	incongruent/STIM_014.jpg
2619.705	0.655	correct	incongruent	Block3	incongruent/STIM_014.jpg
2623.17	0.705	correct	incongruent	Block3	incongruent/STIM_014.jpg
2627.34	0.962	correct	incongruent	Block3	incongruent/STIM_015.jpg
2631.794	0.878	correct	incongruent	Block3	incongruent/STIM_015.jpg
2635.857	0.624	correct	incongruent	Block3	incongruent/STIM_015.jpg
2639.547	0.616	correct	incongruent	Block3	incongruent/STIM_015.jpg
2643.055	0.573	correct	incongruent	Block3	incongruent/STIM_015.jpg
2646.133	0.599	correct	incongruent	Block3	incongruent/STIM_016.jpg
2649.408	0.654	correct	incongruent	Block3	incongruent/STIM_016.jpg
2652.752	0.598	correct	incongruent	Block3	incongruent/STIM_016.jpg
2655.684	0.673	correct	incongruent	Block3	incongruent/STIM_016.jpg
2658.495	0.555	correct	incongruent	Block3	incongruent/STIM_016.jpg
2661.762	0.539	correct	incongruent	Block3	incongruent/STIM_017.jpg
2664.618	1.072	correct	incongruent	Block3	incongruent/STIM_017.jpg
2669.688	0.99	correct	incongruent	Block3	incongruent/STIM_017.jpg
2673.978	0.965	correct	incongruent	Block3	incongruent/STIM_017.jpg
2677.447	0.968	correct	incongruent	Block3	incongruent/STIM_017.jpg
2681.98	0.853	correct	incongruent	Block3	incongruent/STIM_018.jpg
2684.922	0.852	correct	incongruent	Block3	incongruent/STIM_018.jpg
2688.549	0.768	correct	incongruent	Block3	incongruent/STIM_018.jpg
2692.004	0.865	correct	incongruent	Block3	incongruent/STIM_018.jpg
2695.965	0.76	correct	incongruent	Block3	incongruent/STIM_018.jpg
2698.85	1.033	correct	incongruent	Block3	incongruent/STIM_019.jpg
2703.51	0.983	correct	incongruent	Block3	incongruent/STIM_019.jpg
2708.066	0.793	correct	incongruent	Block3	incongruent/STIM_019.jpg
2712.35	0.657	correct	incongruent	Block3	incongruent/STIM_019.jpg
2716.555	0.902	correct	incongruent	Block3	incongruent/STIM_019.jpg
2720.155	0.857	correct	incongruent	Block3	incongruent/STIM_020.jpg
2724.218	0.761	correct	incongruent	Block3	incongruent/STIM_020.jpg
2728.22	1.056	correct	incongruent	Block3	incongruent/STIM_020.jpg
2731.33	0.854	correct	incongruent	Block3	incongruent/STIM_020.jpg
2734.421	0.657	correct	incongruent	Block3	incongruent/STIM_020.jpg
2738.847	0.71	correct	incongruent	Block3	incongruent/STIM_021.jpg
2742.216	0.966	correct	incongruent	Block3	incongruent/STIM_021.jpg
2746.669	0.771	correct	incongruent	Block3	incongruent/STIM_021.jpg
2750.742	1.083	correct	incongruent	Block3	incongruent/STIM_021.jpg
2753.912	0.906	correct	incongruent	Block3	incongruent/STIM_021.jpg
2756.975	0.85	correct	incongruent	Block3	incongruent/STIM_022.jpg
2761.119	0.7	correct	incongruent	Block3	incongruent/STIM_022.jpg
2764.768	0.583	correct	incongruent	Block3	incongruent/STIM_022.jpg
2768.146	1.081	correct	incongruent	Block3	incongruent/STIM_022.jpg
2772.279	0.973	correct	incongruent	Block3	incongruent/STIM_022.jpg
2775.353	0.738	correct	incongruent	Block3	incongruent/STIM_023.jpg
2779.665	0.904	correct	incongruent	Block3	incongruent/STIM_023.jpg
2782.823	0.903	correct	incongruent	Block3	incongruent/STIM_023.jpg
2786.578	1.092	correct	incongruent	Block3	incongruent/STIM_023.jpg
2791.134	0.979	correct	incongruent	Block3	incongruent/STIM_023.jpg
2794.374	0.895	correct	incongruent	Block3	incongruent/STIM_024.jpg
2797.719	0.634	correct	incongruent	Block3	incongruent/STIM_024.jpg
2800.367	1.136	correct	incongruent	Block3	incongruent/STIM_024.jpg
2804.737	0.575	correct	incongruent	Block3	incongruent/STIM_024.jpg
2808.046	0.672	correct	incongruent	Block3	incongruent/STIM_024.jpg
2812.084	0.851	correct	incongruent	Block3	incongruent/STIM_025.jpg
2815.322	0.851	correct	incongruent	Block3	incongruent/STIM_025.jpg
2819.801	0.994	correct	incongruent	Block3	incongruent/STIM_025.jpg
2823.176	0.758	correct	incongruent	Block3	incongruent/STIM_025.jpg
2826.73	0.657	correct	incongruent	Block3	incongruent/STIM_025.jpg
2831.181	0.612	correct	incongruent	Block3	incongruent/STIM_026.jpg
2834.257	1.114	correct	incongruent	Block3	incongruent/STIM_026.jpg
2837.622	0.87	correct	incongruent	Block3	incongruent/STIM_026.jpg
2841.094	1.111	correct	incongruent	Block3	incongruent/STIM_026.jpg
2845.702	1.027	correct	incongruent	Block3	incongruent/STIM_026.jpg
2850.618	0.779	correct	incongruent	Block3	incongruent/STIM_027.jpg
2854.579	1.078	correct	incongruent	Block3	incongruent/STIM_027.jpg
2858.294	0.876	correct	incongruent	Block3	incongruent/STIM_027.jpg
2862.969	0.647	correct	incongruent	Block3	incongruent/STIM_027.jpg
2866.25	0.562	correct	incongruent	Block3	incongruent/STIM_027.jpg
2870.018	0.646	incorrect	incongruent	Block3	incongruent/STIM_028.jpg
2872.912	0.74	correct	incongruent	Block3	incongruent/STIM_028.jpg
2876.551	0.753	correct	incongruent	Block3	incongruent/STIM_028.jpg
2879.821	0.967	correct	incongruent	Block3	incongruent/STIM_028.jpg
2883.887	0.584	correct	incongruent	Block3	incongruent/STIM_028.jpg
2887.37	0.587	correct	incongruent	Block3	incongruent/STIM_029.jpg
2891.324	0.59	correct	incongruent	Block3	incongruent/STIM_029.jpg
2895.463	0.841	correct	incongruent	Block3	incongruent/STIM_029.jpg
2899.842	0.78	correct	incongruent	Block3	incongruent/STIM_029.jpg
2904.256	0.905	correct	incongruent	Block3	incongruent/STIM_029.jpg
2907.41	0.81	correct	congruent	Block3	congruent/STIM_000.jpg
2910.466	0.61	correct	congruent	Block3	congruent/STIM_000.jpg
2914.605	0.899	correct	congruent	Block3	congruent/STIM_000.jpg
2918.452	0.842	correct	congruent	Block3	congruent/STIM_000.jpg
2922.684	0.625	correct	congruent	Block3	congruent/STIM_000.jpg
2926.592	0.957	correct	congruent	Block3	congruent/STIM_001.jpg
2929.671	0.914	correct	congruent	Block3	congruent/STIM_001.jpg
2934.567	0.739	correct	congruent	Block3	congruent/STIM_001.jpg
2939.24	0.572	correct	congruent	Block3	congruent/STIM_001.jpg
2941.985	0.819	incorrect	congruent	Block3	congruent/STIM_001.jpg
2945.138	0.915	correct	congruent	Block3	congruent/STIM_002.jpg
2948.227	0.96	correct	congruent	Block3	congruent/STIM_002.jpg
2952.341	0.969	correct	congruent	Block3	congruent/STIM_002.jpg
2955.504	0.578	correct	congruent	Block3	congruent/STIM_002.jpg
2959.802	0.856	correct	congruent	Block3	congruent/STIM_002.jpg
2963.706	0.824	correct	congruent	Block3	congruent/STIM_003.jpg
2967.02	0.899	correct	congruent	Block3	congruent/STIM_003.jpg
2970.913	0.898	correct	congruent	Block3	congruent/STIM_003.jpg
2975.704	0.56	correct	congruent	Block3	congruent/STIM_003.jpg
2979.685	0.802	correct	congruent	Block3	congruent/STIM_003.jpg
2983.072	0.799	correct	congruent	Block3	congruent/STIM_004.jpg
2986.418	0.716	correct	congruent	Block3	congruent/STIM_004.jpg
2990.044	0.841	correct	congruent	Block3	congruent/STIM_004.jpg
2992.948	0.784	correct	congruent	Block3	congruent/STIM_004.jpg
2997.101	0.7	correct	congruent	Block3	congruent/STIM_004.jpg
3001.307	0.859	correct	congruent	Block3	congruent/STIM_005.jpg
3004.564	0.842	correct	congruent	Block3	congruent/STIM_005.jpg
3008.878	0.894	correct	congruent	Block3	congruent/STIM_005.jpg
3012.573	0.862	correct	congruent	Block3	congruent/STIM_005.jpg
3016.243	0.963	correct	congruent	Block3	congruent/STIM_005.jpg
3020.629	0.726	correct	congruent	Block3	congruent/STIM_006.jpg
3023.957	0.827	correct	congruent	Block3	congruent/STIM_006.jpg
3027.737	0.678	correct	congruent	Block3	congruent/STIM_006.jpg
3032.034	0.579	correct	congruent	Block3	congruent/STIM_006.jpg
3034.766	0.639	correct	congruent	Block3	congruent/STIM_006.jpg
3037.925	0.835	correct	congruent	Block3	congruent/STIM_007.jpg
3042.691	0.754	correct	congruent	Block3	congruent/STIM_007.jpg
3046.159	0.821	correct	congruent	Block3	congruent/STIM_007.jpg
3049.736	0.921	correct	congruent	Block3	congruent/STIM_007.jpg
3052.999	0.58	incorrect	congruent	Block3	congruent/STIM_007.jpg
3056.332	0.974	correct	congruent	Block3	congruent/STIM_008.jpg
3059.832	0.864	correct	congruent	Block3	congruent/STIM_008.jpg
3063.021	0.588	correct	congruent	Block3	congruent/STIM_008.jpg
3066.866	0.962	correct	congruent	Block3	congruent/STIM_008.jpg
3071.441	0.668	correct	congruent	Block3	congruent/STIM_008.jpg
3075.407	0.976	correct	congruent	Block3	congruent/STIM_009.jpg
3079.948	0.642	correct	congruent	Block3	congruent/STIM_009.jpg
3083.086	0.662	correct	congruent	Block3	congruent/STIM_009.jpg
3086.337	0.814	correct	congruent	Block3	congruent/STIM_009.jpg
3089.766	0.68	correct	congruent	Block3	congruent/STIM_009.jpg
3092.747	0.606	correct	congruent	Block3	congruent/STIM_010.jpg
3096.052	0.709	correct	congruent	Block3	congruent/STIM_010.jpg
3099.847	0.803	correct	congruent	Block3	congruent/STIM_010.jpg
3102.672	0.678	correct	congruent	Block3	congruent/STIM_010.jpg
3107.087	0.784	correct	congruent	Block3	congruent/STIM_010.jpg
3111.504	0.778	correct	congruent	Block3	congruent/STIM_011.jpg
3115.825	0.807	correct	congruent	Block3	congruent/STIM_011.jpg
3119.999	0.794	incorrect	congruent	Block3	congruent/STIM_011.jpg
3123.477	0.96	correct	congruent	Block3	congruent/STIM_011.jpg
3127.534	0.938	correct	congruent	Block3	congruent/STIM_011.jpg
3130.601	0.93	correct	congruent	Block3	congruent/STIM_012.jpg
3134.09	0.7	correct	congruent	Block3	congruent/STIM_012.jpg
3137.909	0.923	correct	congruent	Block3	congruent/STIM_012.jpg
3142.296	0.596	correct	congruent	Block3	congruent/STIM_012.jpg
3146.355	0.73	correct	congruent	Block3	congruent/STIM_012.jpg
3150.476	0.928	correct	congruent	Block3	congruent/STIM_013.jpg
3153.679	0.927	correct	congruent	Block3	congruent/STIM_013.jpg
3157.853	0.562	correct	congruent	Block3	congruent/STIM_013.jpg
3160.622	0.708	correct	congruent	Block3	congruent/STIM_013.jpg
3163.605	0.615	correct	congruent	Block3	congruent/STIM_013.jpg
3167.504	0.714	correct	congruent	Block3	congruent/STIM_014.jpg
3171.822	0.656	correct	congruent	Block3	congruent/STIM_014.jpg
3174.871	0.794	incorrect	congruent	Block3	congruent/STIM_014.jpg
3177.949	0.665	correct	congruent	Block3	congruent/STIM_014.jpg
3181.61	0.979	correct	congruent	Block3	congruent/STIM_014.jpg
3185.228	0.736	correct	congruent	Block3	congruent/STIM_015.jpg
3188.855	0.731	correct	congruent	Block3	congruent/STIM_015.jpg
3192.064	0.855	correct	congruent	Block3	congruent/STIM_015.jpg
3195.011	0.662	correct	congruent	Block3	congruent/STIM_015.jpg
3198.107	0.615	correct	congruent	Block3	congruent/STIM_015.jpg
3201.474	0.647	correct	congruent	Block3	congruent/STIM_016.jpg
3204.775	0.787	correct	congruent	Block3	congruent/STIM_016.jpg
3208.049	0.632	correct	congruent	Block3	congruent/STIM_016.jpg
3211.944	0.552	correct	congruent	Block3	congruent/STIM_016.jpg
3215.626	0.949	correct	congruent	Block3	congruent/STIM_016.jpg
3219.22	0.805	incorrect	congruent	Block3	congruent/STIM_017.jpg
3223.589	0.947	incorrect	congruent	Block3	congruent/STIM_017.jpg
3226.764	0.593	correct	congruent	Block3	congruent/STIM_017.jpg
3229.737	0.646	incorrect	congruent	Block3	congruent/STIM_017.jpg
3232.858	0.796	correct	congruent	Block3	congruent/STIM_017.jpg
3236.779	0.937	correct	congruent	Block3	congruent/STIM_018.jpg
3239.982	0.757	correct	congruent	Block3	congruent/STIM_018.jpg
3243.858	0.588	correct	congruent	Block3	congruent/STIM_018.jpg
3247.57	0.914	correct	congruent	Block3	congruent/STIM_018.jpg
3250.935	0.654	correct	congruent	Block3	congruent/STIM_018.jpg
3255.505	0.914	correct	congruent	Block3	congruent/STIM_019.jpg
3259.741	0.9	correct	congruent	Block3	congruent/STIM_019.jpg
3264.423	0.814	correct	congruent	Block3	congruent/STIM_019.jpg
3268.221	0.787	correct	congruent	Block3	congruent/STIM_019.jpg
3272.942	0.892	correct	congruent	Block3	congruent/STIM_019.jpg
3277.112	0.792	correct	congruent	Block3	congruent/STIM_020.jpg
3281.068	0.942	correct	congruent	Block3	congruent/STIM_020.jpg
3284.186	0.946	correct	congruent	Block3	congruent/STIM_020.jpg
3288.687	0.686	correct	congruent	Block3	congruent/STIM_020.jpg
3292.635	0.965	correct	congruent	Block3	congruent/STIM_020.jpg
3297.313	0.88	correct	congruent	Block3	congruent/STIM_021.jpg
3300.612	0.773	correct	congruent	Block3	congruent/STIM_021.jpg
3304.4	0.896	correct	congruent	Block3	congruent/STIM_021.jpg
3309.163	0.902	correct	congruent	Block3	congruent/STIM_021.jpg
3313.518	0.55	correct	congruent	Block3	congruent/STIM_021.jpg
3316.714	0.737	correct	congruent	Block3	congruent/STIM_022.jpg
3320.412	0.727	correct	congruent	Block3	congruent/STIM_022.jpg
3323.534	0.95	correct	congruent	Block3	congruent/STIM_022.jpg
3327.834	0.803	correct	congruent	Block3	congruent/STIM_022.jpg
3331.351	0.895	incorrect	congruent	Block3	congruent/STIM_022.jpg
3334.891	0.717	correct	congruent	Block3	congruent/STIM_023.jpg
3338.334	0.734	incorrect	congruent	Block3	congruent/STIM_023.jpg
3342.096	0.572	correct	congruent	Block3	congruent/STIM_023.jpg
3345.806	0.662	correct	congruent	Block3	congruent/STIM_023.jpg
3349.195	0.552	correct	congruent	Block3	congruent/STIM_023.jpg
3352.618	0.585	correct	congruent	Block3	congruent/STIM_024.jpg
3356.744	0.865	correct	congruent	Block3	congruent/STIM_024.jpg
3360.253	0.739	correct	congruent	Block3	congruent/STIM_024.jpg
3363.467	0.696	correct	congruent	Block3	congruent/STIM_024.jpg
3367.866	0.932	correct	congruent	Block3	congruent/STIM_024.jpg
3371.441	0.939	correct	congruent	Block3	congruent/STIM_025.jpg
3376.248	0.591	correct	congruent	Block3	congruent/STIM_025.jpg
3379.664	0.77	correct	congruent	Block3	congruent/STIM_025.jpg
3384.118	0.716	correct	congruent	Block3	congruent/STIM_025.jpg
3388.708	0.868	correct	congruent	Block3	congruent/STIM_025.jpg
3393.132	0.788	correct	congruent	Block3	congruent/STIM_026.jpg
3397.212	0.864	incorrect	congruent	Block3	congruent/STIM_026.jpg
3401.012	0.681	correct	congruent	Block3	congruent/STIM_026.jpg
3404.217	0.947	correct	congruent	Block3	congruent/STIM_026.jpg
3408.904	0.98	incorrect	congruent	Block3	congruent/STIM_026.jpg
3413.032	0.814	correct	congruent	Block3	congruent/STIM_027.jpg
3416.818	0.604	correct	congruent	Block3	congruent/STIM_027.jpg
3420.729	0.733	correct	congruent	Block3	congruent/STIM_027.jpg
3424.798	0.828	correct	congruent	Block3	congruent/STIM_027.jpg
3427.714	0.602	correct	congruent	Block3	congruent/STIM_027.jpg
3430.489	0.614	correct	congruent	Block3	congruent/STIM_028.jpg
3433.861	0.682	correct	congruent	Block3	congruent/STIM_028.jpg
3437.081	0.745	correct	congruent	Block3	congruent/STIM_028.jpg
3440.961	0.904	correct	congruent	Block3	congruent/STIM_028.jpg
3445.201	0.936	correct	congruent	Block3	congruent/STIM_028.jpg
3450.113	0.567	correct	congruent	Block3	congruent/STIM_029.jpg
3453.03	0.596	incorrect	congruent	Block3	congruent/STIM_029.jpg
3456.943	0.616	correct	congruent	Block3	congruent/STIM_029.jpg
3460.796	0.691	correct	congruent	Block3	congruent/STIM_029.jpg
3465.314	0.764	correct	congruent	Block3	congruent/STIM_029.jpg
