onset	duration	accuracy_binary	trial_type	learning_stage	stimulus
0.0	1.151	1	study	Phase1	study/STIM_000.jpg
3.936	1.2	1	study	Phase1	study/STIM_000.jpg
7.488	1.157	1	study	Phase1	study/STIM_000.jpg
11.22	0.858	0	study	Phase1	study/STIM_001.jpg
15.313	1.616	1	study	Phase1	study/STIM_001.jpg
19.141	0.777	1	study	Phase1	study/STIM_001.jpg
22.16	1.614	1	study	Phase1	study/STIM_002.jpg
26.771	0.838	1	study	Phase1	study/STIM_002.jpg
31.582	0.932	1	study	Phase1	study/STIM_002.jpg
34.695	1.616	1	study	Phase1	study/STIM_003.jpg
38.293	0.771	1	study	Phase1	study/STIM_003.jpg
42.93	0.789	1	study	Phase1	study/STIM_003.jpg
47.391	1.127	1	study	Phase1	study/STIM_004.jpg
51.724	1.306	1	study	Phase1	study/STIM_004.jpg
56.008	1.548	0	study	Phase1	study/STIM_004.jpg
60.45	1.129	0	study	Phase1	study/STIM_005.jpg
64.246	0.817	1	study	Phase1	study/STIM_005.jpg
68.575	1.476	1	study	Phase1	study/STIM_005.jpg
72.803	1.046	1	study	Phase1	study/STIM_006.jpg
76.324	1.58	1	study	Phase1	study/STIM_006.jpg
81.548	0.949	0	study	Phase1	study/STIM_006.jpg
84.642	1.903	1	study	Phase1	study/STIM_007.jpg
89.16	1.258	0	study	Phase1	study/STIM_007.jpg
92.582	1.456	1	study	Phase1	study/STIM_007.jpg
96.49	0.883	1	study	Phase1	study/STIM_008.jpg
100.069	1.506	1	study	Phase1	study/STIM_008.jpg
104.238	1.287	0	study	Phase1	study/STIM_008.jpg
108.402	1.502	1	study	Phase1	study/STIM_009.jpg
113.381	0.731	1	study	Phase1	study/STIM_009.jpg
118.188	1.486	1	study	Phase1	study/STIM_009.jpg
123.646	0.989	1	study	Phase1	study/STIM_010.jpg
128.258	1.375	1	study	Phase1	study/STIM_010.jpg
132.218	1.654	1	study	Phase1	study/STIM_010.jpg
136.218	1.122	0	study	Phase1	study/STIM_011.jpg
141.231	0.842	1	study	Phase1	study/STIM_011.jpg
144.425	1.61	1	study	Phase1	study/STIM_011.jpg
149.357	1.014	1	study	Phase1	study/STIM_012.jpg
153.561	0.992	0	study	Phase1	study/STIM_012.jpg
156.505	0.861	1	study	Phase1	study/STIM_012.jpg
160.511	1.219	1	study	Phase1	study/STIM_013.jpg
165.037	1.233	1	study	Phase1	study/STIM_013.jpg
169.053	0.788	1	study	Phase1	study/STIM_013.jpg
172.36	1.574	1	study	Phase1	study/STIM_014.jpg
177.493	1.383	1	study	Phase1	study/STIM_014.jpg
182.352	0.761	1	study	Phase1	study/STIM_014.jpg
185.772	1.537	0	study	Phase1	study/STIM_015.jpg
190.472	1.264	1	study	Phase1	study/STIM_015.jpg
195.516	1.578	1	study	Phase1	study/STIM_015.jpg
200.202	1.519	1	study	Phase1	study/STIM_016.jpg
204.478	1.088	1	study	Phase1	study/STIM_016.jpg
208.435	0.736	1	study	Phase1	study/STIM_016.jpg
211.617	1.447	1	study	Phase1	study/STIM_017.jpg
216.02	1.294	1	study	Phase1	study/STIM_017.jpg
220.3	1.068	1	study	Phase1	study/STIM_017.jpg
225.295	0.802	1	study	Phase1	study/STIM_018.jpg
228.561	1.111	1	study	Phase1	study/STIM_018.jpg
232.446	1.633	1	study	Phase1	study/STIM_018.jpg
236.395	1.764	1	study	Phase1	study/STIM_019.jpg
241.811	0.828	0	study	Phase1	study/STIM_019.jpg
244.778	1.341	1	study	Phase1	study/STIM_019.jpg
249.927	1.323	0	study	Phase1	study/STIM_020.jpg
253.648	0.876	1	study	Phase1	study/STIM_020.jpg
257.644	0.673	1	study	Phase1	study/STIM_020.jpg
261.724	1.095	0	study	Phase1	study/STIM_021.jpg
266.08	1.601	1	study	Phase1	study/STIM_021.jpg
271.088	1.31	1	study	Phase1	study/STIM_021.jpg
276.438	0.785	1	study	Phase1	study/STIM_022.jpg
281.123	1.652	1	study	Phase1	study/STIM_022.jpg
285.736	0.808	1	study	Phase1	study/STIM_022.jpg
289.296	1.782	1	study	Phase1	study/STIM_023.jpg
293.996	1.383	1	study	Phase1	study/STIM_023.jpg
299.192	0.83	1	study	Phase1	study/STIM_023.jpg
302.535	0.941	1	study	Phase1	study/STIM_024.jpg
306.97	1.12	1	study	Phase1	study/STIM_024.jpg
310.662	0.92	1	study	Phase1	study/STIM_024.jpg
314.51	1.173	1	study	Phase1	study/STIM_025.jpg
318.572	0.998	1	study	Phase1	study/STIM_025.jpg
323.502	1.467	1	study	Phase1	study/STIM_025.jpg
328.717	1.182	1	study	Phase1	study/STIM_026.jpg
332.946	1.105	1	study	Phase1	study/STIM_026.jpg
336.47	0.817	1	study	Phase1	study/STIM_026.jpg
341.092	1.561	1	study	Phase1	study/STIM_027.jpg
345.271	1.078	1	study	Phase1	study/STIM_027.jpg
348.512	0.916	1	study	Phase1	study/STIM_027.jpg
353.22	1.624	1	study	Phase1	study/STIM_028.jpg
356.866	0.899	1	study	Phase1	study/STIM_028.jpg
361.176	1.262	1	study	Phase1	study/STIM_028.jpg
365.26	0.858	0	study	Phase1	study/STIM_029.jpg
369.079	1.321	1	study	Phase1	study/STIM_029.jpg
372.627	1.668	1	study	Phase1	study/STIM_029.jpg
378.057	0.95	1	test	Phase1	test/STIM_000.jpg
382.839	1.17	0	test	Phase1	test/STIM_000.jpg
387.841	1.231	1	test	Phase1	test/STIM_000.jpg
391.343	0.738	1	test	Phase1	test/STIM_001.jpg
394.151	1.059	1	test	Phase1	test/STIM_001.jpg
399.191	1.3	0	test	Phase1	test/STIM_001.jpg
402.78	0.964	1	test	Phase1	test/STIM_002.jpg
405.848	0.871	1	test	Phase1	test/STIM_002.jpg
409.096	1.215	1	test	Phase1	test/STIM_002.jpg
412.965	1.226	1	test	Phase1	test/STIM_003.jpg
416.701	1.167	1	test	Phase1	test/STIM_003.jpg
421.447	0.896	1	test	Phase1	test/STIM_003.jpg
425.925	0.696	1	test	Phase1	test/STIM_004.jpg
430.303	1.087	1	test	Phase1	test/STIM_004.jpg
434.135	0.85	1	test	Phase1	test/STIM_004.jpg
437.679	0.802	1	test	Phase1	test/STIM_005.jpg
440.539	0.832	1	test	Phase1	test/STIM_005.jpg
444.54	1.194	1	test	Phase1	test/STIM_005.jpg
448.659	0.836	1	test	Phase1	test/STIM_006.jpg
452.493	1.104	1	test	Phase1	test/STIM_006.jpg
457.524	1.235	1	test	Phase1	test/STIM_006.jpg
462.343	0.903	1	test	Phase1	test/STIM_007.jpg
466.714	1.058	0	test	Phase1	test/STIM_007.jpg
471.035	0.8	1	test	Phase1	test/STIM_007.jpg
475.557	0.823	1	test	Phase1	test/STIM_008.jpg
478.703	1.281	0	test	Phase1	test/STIM_008.jpg
483.565	1.268	0	test	Phase1	test/STIM_008.jpg
487.499	0.848	1	test	Phase1	test/STIM_009.jpg
490.411	0.961	1	test	Phase1	test/STIM_009.jpg
494.806	0.662	1	test	Phase1	test/STIM_009.jpg
498.675	1.197	1	test	Phase1	test/STIM_010.jpg
503.434	0.574	1	test	Phase1	test/STIM_010.jpg
507.054	0.524	1	test	Phase1	test/STIM_010.jpg
510.151	1.359	1	test	Phase1	test/STIM_011.jpg
513.728	1.062	0	test	Phase1	test/STIM_011.jpg
518.185	1.217	1	test	Phase1	test/STIM_011.jpg
523.192	1.129	1	test	Phase1	test/STIM_012.jpg
528.113	0.661	1	test	Phase1	test/STIM_012.jpg
531.614	1.082	1	test	Phase1	test/STIM_012.jpg
536.544	1.036	1	test	Phase1	test/STIM_013.jpg
541.123	0.68	1	test	Phase1	test/STIM_013.jpg
545.37	0.813	1	test	Phase1	test/STIM_013.jpg
549.677	0.884	1	test	Phase1	test/STIM_014.jpg
553.813	0.589	1	test	Phase1	test/STIM_014.jpg
556.67	1.25	0	test	Phase1	test/STIM_014.jpg
560.397	0.812	0	test	Phase1	test/STIM_015.jpg
565.167	0.926	1	test	Phase1	test/STIM_015.jpg
569.569	1.213	1	test	Phase1	test/STIM_015.jpg
572.806	1.033	1	test	Phase1	test/STIM_016.jpg
575.909	0.752	1	test	Phase1	test/STIM_016.jpg
579.715	0.866	1	test	Phase1	test/STIM_016.jpg
584.204	1.047	1	test	Phase1	test/STIM_017.jpg
587.222	0.724	1	test	Phase1	test/STIM_017.jpg
590.533	1.186	1	test	Phase1	test/STIM_017.jpg
594.492	1.159	1	test	Phase1	test/STIM_018.jpg
597.615	0.81	1	test	Phase1	test/STIM_018.jpg
601.232	1.029	1	test	Phase1	test/STIM_018.jpg
604.913	1.019	1	test	Phase1	test/STIM_019.jpg
609.171	1.145	1	test	Phase1	test/STIM_019.jpg
612.95	1.059	1	test	Phase1	test/STIM_019.jpg
617.519	1.189	1	test	Phase1	test/STIM_020.jpg
621.054	0.902	0	test	Phase1	test/STIM_020.jpg
624.327	0.861	1	test	Phase1	test/STIM_020.jpg
627.677	1.232	1	test	Phase1	test/STIM_021.jpg
631.507	0.903	1	test	Phase1	test/STIM_021.jpg
635.28	0.86	1	test	Phase1	test/STIM_021.jpg
638.837	0.941	1	test	Phase1	test/STIM_022.jpg
643.6	0.605	1	test	Phase1	test/STIM_022.jpg
646.958	0.73	0	test	Phase1	test/STIM_022.jpg
651.366	1.121	1	test	Phase1	test/STIM_023.jpg
655.998	0.767	1	test	Phase1	test/STIM_023.jpg
659.487	1.19	1	test	Phase1	test/STIM_023.jpg
663.085	1.201	1	test	Phase1	test/STIM_024.jpg
666.484	0.662	1	test	Phase1	test/STIM_024.jpg
669.704	1.177	1	test	Phase1	test/STIM_024.jpg
673.606	1.308	1	test	Phase1	test/STIM_025.jpg
678.632	0.961	1	test	Phase1	test/STIM_025.jpg
682.756	1.145	1	test	Phase1	test/STIM_025.jpg
686.833	1.334	1	test	Phase1	test/STIM_026.jpg
690.08	1.066	1	test	Phase1	test/STIM_026.jpg
694.904	0.81	1	test	Phase1	test/STIM_026.jpg
699.198	1.37	1	test	Phase1	test/STIM_027.jpg
703.24	1.328	1	test	Phase1	test/STIM_027.jpg
706.514	0.852	1	test	Phase1	test/STIM_027.jpg
709.796	0.988	1	test	Phase1	test/STIM_028.jpg
713.376	0.684	1	test	Phase1	test/STIM_028.jpg
717.107	1.258	1	test	Phase1	test/STIM_028.jpg
720.4	0.709	1	test	Phase1	test/STIM_029.jpg
723.639	1.108	1	test	Phase1	test/STIM_029.jpg
728.093	0.87	0	test	Phase1	test/STIM_029.jpg
731.34	0.887	1	study	Phase2	study/STIM_000.jpg
734.558	0.635	1	study	Phase2	study/STIM_000.jpg
737.425	0.832	1	study	Phase2	study/STIM_000.jpg
741.51	1.393	1	study	Phase2	study/STIM_001.jpg
745.89	0.834	1	study	Phase2	study/STIM_001.jpg
749.156	1.333	1	study	Phase2	study/STIM_001.jpg
753.713	1.506	1	study	Phase2	study/STIM_002.jpg
758.687	1.32	1	study	Phase2	study/STIM_002.jpg
763.678	0.901	1	study	Phase2	study/STIM_002.jpg
767.923	1.072	1	study	Phase2	study/STIM_003.jpg
772.916	1.067	1	study	Phase2	study/STIM_003.jpg
777.867	0.638	1	study	Phase2	study/STIM_003.jpg
781.039	0.847	1	study	Phase2	study/STIM_004.jpg
784.012	1.049	1	study	Phase2	study/STIM_004.jpg
787.486	1.265	1	study	Phase2	study/STIM_004.jpg
791.756	0.911	1	study	Phase2	study/STIM_005.jpg
795.025	0.804	1	study	Phase2	study/STIM_005.jpg
797.984	1.2	0	study	Phase2	study/STIM_005.jpg
802.155	1.373	1	study	Phase2	study/STIM_006.jpg
805.717	0.577	1	study	Phase2	study/STIM_006.jpg
809.096	0.767	1	study	Phase2	study/STIM_006.jpg
811.866	1.21	1	study	Phase2	study/STIM_007.jpg
815.898	1.378	1	study	Phase2	study/STIM_007.jpg
821.175	1.118	1	study	Phase2	study/STIM_007.jpg
825.381	0.859	1	study	Phase2	study/STIM_008.jpg
828.267	0.758	1	study	Phase2	study/STIM_008.jpg
832.7	1.02	0	study	Phase2	study/STIM_008.jpg
836.185	0.972	1	study	Phase2	study/STIM_009.jpg
840.429	1.211	1	study	Phase2	study/STIM_009.jpg
845.131	1.38	1	study	Phase2	study/STIM_009.jpg
848.609	1.412	1	study	Phase2	study/STIM_010.jpg
852.213	1.011	1	study	Phase2	study/STIM_010.jpg
856.919	1.1	1	study	Phase2	study/STIM_010.jpg
861.425	1.198	0	study	Phase2	study/STIM_011.jpg
865.022	0.983	1	study	Phase2	study/STIM_011.jpg
868.787	1.21	1	study	Phase2	study/STIM_011.jpg
873.376	1.352	1	study	Phase2	study/STIM_012.jpg
878.172	1.266	0	study	Phase2	study/STIM_012.jpg
882.78	1.225	0	study	Phase2	study/STIM_012.jpg
887.872	1.29	1	study	Phase2	study/STIM_013.jpg
892.41	0.99	1	study	Phase2	study/STIM_013.jpg
895.839	1.046	1	study	Phase2	study/STIM_013.jpg
899.948	0.751	1	study	Phase2	study/STIM_014.jpg
904.012	0.758	1	study	Phase2	study/STIM_014.jpg
907.661	0.638	1	study	Phase2	study/STIM_014.jpg
910.526	1.181	1	study	Phase2	study/STIM_015.jpg
915.458	1.285	1	study	Phase2	study/STIM_015.jpg
920.532	0.993	1	study	Phase2	study/STIM_015.jpg
925.302	0.908	1	study	Phase2	study/STIM_016.jpg
929.653	0.737	1	study	Phase2	study/STIM_016.jpg
932.669	0.779	1	study	Phase2	study/STIM_016.jpg
936.867	1.314	1	study	Phase2	study/STIM_017.jpg
941.207	0.947	1	study	Phase2	study/STIM_017.jpg
944.724	1.061	1	study	Phase2	study/STIM_017.jpg
949.003	1.162	1	study	Phase2	study/STIM_018.jpg
952.285	1.095	1	study	Phase2	study/STIM_018.jpg
955.796	0.926	1	study	Phase2	study/STIM_018.jpg
959.624	1.458	1	study	Phase2	study/STIM_019.jpg
963.736	0.905	1	study	Phase2	study/STIM_019.jpg
967.854	0.938	1	study	Phase2	study/STIM_019.jpg
970.902	1.074	1	study	Phase2	study/STIM_020.jpg
974.426	0.72	0	study	Phase2	study/STIM_020.jpg
978.587	1.11	1	study	Phase2	study/STIM_020.jpg
983.256	0.745	1	study	Phase2	study/STIM_021.jpg
988.0	1.189	1	study	Phase2	study/STIM_021.jpg
992.051	1.051	1	study	Phase2	study/STIM_021.jpg
996.514	0.712	1	study	Phase2	study/STIM_022.jpg
1000.497	1.086	1	study	Phase2	study/STIM_022.jpg
1004.069	0.714	1	study	Phase2	study/STIM_022.jpg
1007.739	1.344	1	study	Phase2	study/STIM_023.jpg
1012.237	0.606	1	study	Phase2	study/STIM_023.jpg
1016.797	0.684	1	study	Phase2	study/STIM_023.jpg
1021.113	0.718	1	study	Phase2	study/STIM_024.jpg
1024.164	0.898	1	study	Phase2	study/STIM_024.jpg
1028.122	1.047	1	study	Phase2	study/STIM_024.jpg
1031.566	1.406	1	study	Phase2	study/STIM_025.jpg
1036.694	0.725	1	study	Phase2	study/STIM_025.jpg
1039.921	0.632	1	study	Phase2	study/STIM_025.jpg
1042.622	1.46	1	study	Phase2	study/STIM_026.jpg
1047.265	1.126	1	study	Phase2	study/STIM_026.jpg
1051.109	1.356	1	study	Phase2	study/STIM_026.jpg
1055.961	0.873	1	study	Phase2	study/STIM_027.jpg
1060.445	0.924	1	study	Phase2	study/STIM_027.jpg
1064.971	0.887	1	study	Phase2	study/STIM_027.jpg
1069.042	0.739	1	study	Phase2	study/STIM_028.jpg
1072.763	0.598	0	study	Phase2	study/STIM_028.jpg
1076.883	1.011	1	study	Phase2	study/STIM_028.jpg
1080.381	1.063	1	study	Phase2	study/STIM_029.jpg
1085.11	0.835	1	study	Phase2	study/STIM_029.jpg
1088.66	0.942	1	study	Phase2	study/STIM_029.jpg
1092.942	0.76	1	test	Phase2	test/STIM_000.jpg
1096.369	0.56	1	test	Phase2	test/STIM_000.jpg
1100.051	1.133	0	test	Phase2	test/STIM_000.jpg
1105.172	1.177	1	test	Phase2	test/STIM_001.jpg
1109.954	0.734	1	test	Phase2	test/STIM_001.jpg
1114.173	0.78	1	test	Phase2	test/STIM_001.jpg
1116.986	0.958	1	test	Phase2	test/STIM_002.jpg
1120.703	1.06	1	test	Phase2	test/STIM_002.jpg
1123.739	0.966	1	test	Phase2	test/STIM_002.jpg
1126.947	1.244	1	test	Phase2	test/STIM_003.jpg
1130.488	1.085	1	test	Phase2	test/STIM_003.jpg
1134.396	1.388	1	test	Phase2	test/STIM_003.jpg
1139.532	0.787	1	test	Phase2	test/STIM_004.jpg
1143.822	0.786	1	test	Phase2	test/STIM_004.jpg
1148.245	0.961	1	test	Phase2	test/STIM_004.jpg
1152.73	0.843	1	test	Phase2	test/STIM_005.jpg
1156.427	0.794	1	test	Phase2	test/STIM_005.jpg
1160.207	1.121	0	test	Phase2	test/STIM_005.jpg
1163.317	0.824	1	test	Phase2	test/STIM_006.jpg
1167.602	1.22	1	test	Phase2	test/STIM_006.jpg
1171.727	1.311	1	test	Phase2	test/STIM_006.jpg
1175.584	0.612	0	test	Phase2	test/STIM_007.jpg
1179.049	0.694	1	test	Phase2	test/STIM_007.jpg
1182.467	0.687	1	test	Phase2	test/STIM_007.jpg
1186.373	1.023	1	test	Phase2	test/STIM_008.jpg
1191.374	0.897	1	test	Phase2	test/STIM_008.jpg
1194.863	0.953	1	test	Phase2	test/STIM_008.jpg
1198.897	0.886	0	test	Phase2	test/STIM_009.jpg
1202.507	1.159	1	test	Phase2	test/STIM_009.jpg
1206.229	0.834	1	test	Phase2	test/STIM_009.jpg
1209.473	0.853	1	test	Phase2	test/STIM_010.jpg
1212.353	1.006	1	test	Phase2	test/STIM_010.jpg
1216.446	1.044	1	test	Phase2	test/STIM_010.jpg
1220.942	1.058	1	test	Phase2	test/STIM_011.jpg
1224.64	0.827	1	test	Phase2	test/STIM_011.jpg
1227.712	0.911	1	test	Phase2	test/STIM_011.jpg
1232.274	1.156	1	test	Phase2	test/STIM_012.jpg
1235.524	1.046	1	test	Phase2	test/STIM_012.jpg
1239.002	0.757	1	test	Phase2	test/STIM_012.jpg
1243.659	0.929	1	test	Phase2	test/STIM_013.jpg
1248.482	1.035	1	test	Phase2	test/STIM_013.jpg
1252.876	1.133	1	test	Phase2	test/STIM_013.jpg
1256.8	0.825	1	test	Phase2	test/STIM_014.jpg
1261.079	0.894	1	test	Phase2	test/STIM_014.jpg
1265.164	1.156	1	test	Phase2	test/STIM_014.jpg
1268.56	0.931	1	test	Phase2	test/STIM_015.jpg
1272.149	1.089	1	test	Phase2	test/STIM_015.jpg
1276.808	0.937	1	test	Phase2	test/STIM_015.jpg
1280.655	0.558	1	test	Phase2	test/STIM_016.jpg
1283.459	0.823	0	test	Phase2	test/STIM_016.jpg
1286.654	0.901	1	test	Phase2	test/STIM_016.jpg
1291.197	1.178	1	test	Phase2	test/STIM_017.jpg
1295.944	0.788	1	test	Phase2	test/STIM_017.jpg
1299.085	0.972	1	test	Phase2	test/STIM_017.jpg
1303.899	0.963	1	test	Phase2	test/STIM_018.jpg
1307.71	1.093	0	test	Phase2	test/STIM_018.jpg
1312.583	1.22	1	test	Phase2	test/STIM_018.jpg
1316.789	1.016	1	test	Phase2	test/STIM_019.jpg
1321.698	0.735	1	test	Phase2	test/STIM_019.jpg
1326.007	0.763	1	test	Phase2	test/STIM_019.jpg
1328.91	1.276	1	test	Phase2	test/STIM_020.jpg
1333.851	0.811	0	test	Phase2	test/STIM_020.jpg
1337.936	0.905	1	test	Phase2	test/STIM_020.jpg
1341.767	0.686	1	test	Phase2	test/STIM_021.jpg
1345.706	0.876	1	test	Phase2	test/STIM_021.jpg
1349.238	0.99	1	test	Phase2	test/STIM_021.jpg
1352.676	0.78	1	test	Phase2	test/STIM_022.jpg
1355.479	1.262	1	test	Phase2	test/STIM_022.jpg
1358.769	0.802	1	test	Phase2	test/STIM_022.jpg
1362.005	1.015	1	test	Phase2	test/STIM_023.jpg
1365.634	1.285	1	test	Phase2	test/STIM_023.jpg
1370.502	1.146	1	test	Phase2	test/STIM_023.jpg
1374.043	0.911	1	test	Phase2	test/STIM_024.jpg
1377.244	0.885	1	test	Phase2	test/STIM_024.jpg
1381.296	0.761	0	test	Phase2	test/STIM_024.jpg
1385.251	1.092	1	test	Phase2	test/STIM_025.jpg
1388.545	1.12	1	test	Phase2	test/STIM_025.jpg
1392.991	1.29	0	test	Phase2	test/STIM_025.jpg
1396.869	1.182	1	test	Phase2	test/STIM_026.jpg
1401.196	0.834	0	test	Phase2	test/STIM_026.jpg
1405.507	0.736	1	test	Phase2	test/STIM_026.jpg
1408.498	1.345	1	test	Phase2	test/STIM_027.jpg
1412.198	0.84	1	test	Phase2	test/STIM_027.jpg
1416.143	1.118	1	test	Phase2	test/STIM_027.jpg
1421.036	1.023	1	test	Phase2	test/STIM_028.jpg
1425.494	0.766	1	test	Phase2	test/STIM_028.jpg
1429.777	1.132	1	test	Phase2	test/STIM_028.jpg
1433.022	1.012	1	test	Phase2	test/STIM_029.jpg
1437.311	1.222	1	test	Phase2	test/STIM_029.jpg
1442.279	1.095	1	test	Phase2	test/STIM_029.jpg
1446.473	0.699	1	study	Phase3	study/STIM_000.jpg
1449.497	0.978	1	study	Phase3	study/STIM_000.jpg
1453.605	0.86	1	study	Phase3	study/STIM_000.jpg
1457.312	0.929	1	study	Phase3	study/STIM_001.jpg
1460.374	0.831	1	study	Phase3	study/STIM_001.jpg
1464.473	1.002	1	study	Phase3	study/STIM_001.jpg
1467.447	1.063	1	study	Phase3	study/STIM_002.jpg
1472.436	0.975	1	study	Phase3	study/STIM_002.jpg
1477.389	0.658	1	study	Phase3	study/STIM_002.jpg
1480.629	0.836	1	study	Phase3	study/STIM_003.jpg
1484.617	0.994	1	study	Phase3	study/STIM_003.jpg
1487.69	1.047	1	study	Phase3	study/STIM_003.jpg
1492.237	1.108	1	study	Phase3	study/STIM_004.jpg
1497.213	1.288	1	study	Phase3	study/STIM_004.jpg
1502.041	1.08	1	study	Phase3	study/STIM_004.jpg
1506.039	0.697	1	study	Phase3	study/STIM_005.jpg
1509.592	0.658	1	study	Phase3	study/STIM_005.jpg
1512.376	0.921	1	study	Phase3	study/STIM_005.jpg
1516.925	1.25	1	study	Phase3	study/STIM_006.jpg
1521.027	0.657	1	study	Phase3	study/STIM_006.jpg
1524.36	0.863	1	study	Phase3	study/STIM_006.jpg
1527.275	1.036	1	study	Phase3	study/STIM_007.jpg
1530.605	0.967	1	study	Phase3	study/STIM_007.jpg
1533.851	1.247	1	study	Phase3	study/STIM_007.jpg
1538.859	1.232	1	study	Phase3	study/STIM_008.jpg
1542.242	0.854	1	study	Phase3	study/STIM_008.jpg
1545.598	1.198	1	study	Phase3	study/STIM_008.jpg
1549.292	0.644	1	study	Phase3	study/STIM_009.jpg
1552.348	1.179	1	study	Phase3	study/STIM_009.jpg
1556.5	0.737	1	study	Phase3	study/STIM_009.jpg
1559.28	0.698	1	study	Phase3	study/STIM_010.jpg
1563.037	0.834	1	study	Phase3	study/STIM_010.jpg
1567.636	0.769	1	study	Phase3	study/STIM_010.jpg
1571.832	0.985	1	study	Phase3	study/STIM_011.jpg
1576.094	0.662	1	study	Phase3	study/STIM_011.jpg
1580.047	0.587	1	study	Phase3	study/STIM_011.jpg
1583.335	1.18	1	study	Phase3	study/STIM_012.jpg
1587.182	0.79	1	study	Phase3	study/STIM_012.jpg
1590.84	1.118	1	study	Phase3	study/STIM_012.jpg
1594.132	0.615	1	study	Phase3	study/STIM_013.jpg
1597.912	0.918	1	study	Phase3	study/STIM_013.jpg
1602.894	1.104	1	study	Phase3	study/STIM_013.jpg
1607.26	1.05	1	study	Phase3	study/STIM_014.jpg
1612.072	0.565	1	study	Phase3	study/STIM_014.jpg
1616.656	1.215	1	study	Phase3	study/STIM_014.jpg
1621.109	0.878	1	study	Phase3	study/STIM_015.jpg
1624.899	1.214	1	study	Phase3	study/STIM_015.jpg
1628.095	1.234	1	study	Phase3	study/STIM_015.jpg
1631.687	1.129	1	study	Phase3	study/STIM_016.jpg
1636.251	0.585	1	study	Phase3	study/STIM_016.jpg
1640.427	1.312	1	study	Phase3	study/STIM_016.jpg
1643.865	0.817	1	study	Phase3	study/STIM_017.jpg
1647.766	0.725	1	study	Phase3	study/STIM_017.jpg
1651.489	0.852	1	study	Phase3	study/STIM_017.jpg
1656.128	0.762	1	study	Phase3	study/STIM_018.jpg
1659.021	0.752	1	study	Phase3	study/STIM_018.jpg
1662.168	0.935	1	study	Phase3	study/STIM_018.jpg
1666.885	0.894	1	study	Phase3	study/STIM_019.jpg
1670.088	1.134	1	study	Phase3	study/STIM_019.jpg
1674.607	0.994	1	study	Phase3	study/STIM_019.jpg
1678.549	1.057	1	study	Phase3	study/STIM_020.jpg
1683.483	1.024	1	study	Phase3	study/STIM_020.jpg
1686.875	0.772	1	study	Phase3	study/STIM_020.jpg
1691.241	1.034	1	study	Phase3	study/STIM_021.jpg
1695.905	1.172	1	study	Phase3	study/STIM_021.jpg
1699.599	1.186	1	study	Phase3	study/STIM_021.jpg
1703.544	0.819	1	study	Phase3	study/STIM_022.jpg
1706.913	0.753	1	study	Phase3	study/STIM_022.jpg
1709.692	0.612	1	study	Phase3	study/STIM_022.jpg
1712.727	0.65	1	study	Phase3	study/STIM_023.jpg
1715.722	0.995	1	study	Phase3	study/STIM_023.jpg
1720.053	0.761	1	study	Phase3	study/STIM_023.jpg
1724.066	0.913	0	study	Phase3	study/STIM_024.jpg
1727.844	0.662	1	study	Phase3	study/STIM_024.jpg
1732.498	0.682	1	study	Phase3	study/STIM_024.jpg
1737.032	0.807	1	study	Phase3	study/STIM_025.jpg
1741.768	0.982	1	study	Phase3	study/STIM_025.jpg
1746.728	1.238	1	study	Phase3	study/STIM_025.jpg
1751.404	0.808	1	study	Phase3	study/STIM_026.jpg
1754.498	0.859	1	study	Phase3	study/STIM_026.jpg
1758.139	1.048	1	study	Phase3	study/STIM_026.jpg
1762.392	1.154	1	study	Phase3	study/STIM_027.jpg
1766.355	0.618	1	study	Phase3	study/STIM_027.jpg
1770.106	1.113	1	study	Phase3	study/STIM_027.jpg
1774.654	0.697	1	study	Phase3	study/STIM_028.jpg
1778.997	1.093	1	study	Phase3	study/STIM_028.jpg
1782.406	0.793	1	study	Phase3	study/STIM_028.jpg
1786.476	1.166	0	study	Phase3	study/STIM_029.jpg
1791.538	1.209	1	study	Phase3	study/STIM_029.jpg
1794.984	0.901	1	study	Phase3	study/STIM_029.jpg
1798.372	0.824	1	test	Phase3	test/STIM_000.jpg
1802.942	1.097	1	test	Phase3	test/STIM_000.jpg
1807.184	0.645	1	test	Phase3	test/STIM_000.jpg
1811.553	1.132	1	test	Phase3	test/STIM_001.jpg
1816.322	0.855	1	test	Phase3	test/STIM_001.jpg
1820.895	1.029	1	test	Phase3	test/STIM_001.jpg
1824.367	1.006	1	test	Phase3	test/STIM_002.jpg
1827.359	0.71	1	test	Phase3	test/STIM_002.jpg
1831.464	0.9	1	test	Phase3	test/STIM_002.jpg
1834.353	1.152	1	test	Phase3	test/STIM_003.jpg
1838.775	0.752	1	test	Phase3	test/STIM_003.jpg
1842.396	0.754	0	test	Phase3	test/STIM_003.jpg
1846.72	0.722	1	test	Phase3	test/STIM_004.jpg
1850.997	0.866	1	test	Phase3	test/STIM_004.jpg
1854.299	1.316	1	test	Phase3	test/STIM_004.jpg
1858.436	0.777	1	test	Phase3	test/STIM_005.jpg
1862.05	0.791	1	test	Phase3	test/STIM_005.jpg
1865.911	0.63	1	test	Phase3	test/STIM_005.jpg
1869.478	0.536	1	test	Phase3	test/STIM_006.jpg
1873.529	1.182	1	test	Phase3	test/STIM_006.jpg
1877.025	1.222	1	test	Phase3	test/STIM_006.jpg
1881.327	0.818	1	test	Phase3	test/STIM_007.jpg
1885.636	0.602	1	test	Phase3	test/STIM_007.jpg
1888.991	1.034	1	test	Phase3	test/STIM_007.jpg
1893.8	0.763	1	test	Phase3	test/STIM_008.jpg
1896.981	0.691	1	test	Phase3	test/STIM_008.jpg
1900.155	0.96	1	test	Phase3	test/STIM_008.jpg
1903.206	1.088	1	test	Phase3	test/STIM_009.jpg
1906.498	0.904	1	test	Phase3	test/STIM_009.jpg
1910.519	0.904	1	test	Phase3	test/STIM_009.jpg
1913.654	0.788	1	test	Phase3	test/STIM_010.jpg
1917.112	1.246	1	test	Phase3	test/STIM_010.jpg
1920.724	0.754	0	test	Phase3	test/STIM_010.jpg
1925.54	0.94	1	test	Phase3	test/STIM_011.jpg
1929.61	1.346	1	test	Phase3	test/STIM_011.jpg
1932.888	1.123	1	test	Phase3	test/STIM_011.jpg
1937.591	1.1	1	test	Phase3	test/STIM_012.jpg
1942.669	0.979	1	test	Phase3	test/STIM_012.jpg
1945.729	0.822	1	test	Phase3	test/STIM_012.jpg
1948.634	0.879	1	test	Phase3	test/STIM_013.jpg
1951.695	0.879	1	test	Phase3	test/STIM_013.jpg
1956.476	0.748	1	test	Phase3	test/STIM_013.jpg
1959.59	0.502	1	test	Phase3	test/STIM_014.jpg
1963.546	1.212	0	test	Phase3	test/STIM_014.jpg
1967.866	0.772	0	test	Phase3	test/STIM_014.jpg
1972.372	0.741	1	test	Phase3	test/STIM_015.jpg
1975.889	0.692	1	test	Phase3	test/STIM_015.jpg
1980.503	1.167	1	test	Phase3	test/STIM_015.jpg
1984.28	1.13	1	test	Phase3	test/STIM_016.jpg
1988.072	0.799	0	test	Phase3	test/STIM_016.jpg
1992.348	1.124	1	test	Phase3	test/STIM_016.jpg
1996.674	0.591	1	test	Phase3	test/STIM_017.jpg
2000.375	1.212	1	test	Phase3	test/STIM_017.jpg
2005.166	1.032	1	test	Phase3	test/STIM_017.jpg
2009.663	0.643	1	test	Phase3	test/STIM_018.jpg
2012.391	0.84	1	test	Phase3	test/STIM_018.jpg
2015.319	0.874	1	test	Phase3	test/STIM_018.jpg
2018.134	0.9	1	test	Phase3	test/STIM_019.jpg
2022.58	1.263	1	test	Phase3	test/STIM_019.jpg
2027.208	1.15	1	test	Phase3	test/STIM_019.jpg
2031.926	0.684	1	test	Phase3	test/STIM_020.jpg
2035.533	1.3	1	test	Phase3	test/STIM_020.jpg
2039.008	0.685	1	test	Phase3	test/STIM_020.jpg
2041.829	0.79	1	test	Phase3	test/STIM_021.jpg
2045.777	0.753	1	test	Phase3	test/STIM_021.jpg
2049.123	1.118	1	test	Phase3	test/STIM_021.jpg
2053.611	1.154	1	test	Phase3	test/STIM_022.jpg
2058.229	0.73	1	test	Phase3	test/STIM_022.jpg
2062.772	0.848	0	test	Phase3	test/STIM_022.jpg
2066.234	0.767	1	test	Phase3	test/STIM_023.jpg
2070.958	1.075	1	test	Phase3	test/STIM_023.jpg
2074.717	1.01	1	test	Phase3	test/STIM_023.jpg
2079.398	0.597	1	test	Phase3	test/STIM_024.jpg
2082.793	0.67	1	test	Phase3	test/STIM_024.jpg
2087.467	1.25	1	test	Phase3	test/STIM_024.jpg
2090.924	0.991	1	test	Phase3	test/STIM_025.jpg
2094.931	0.829	1	test	Phase3	test/STIM_025.jpg
2099.025	0.911	0	test	Phase3	test/STIM_025.jpg
2102.755	1.086	1	test	Phase3	test/STIM_026.jpg
2107.279	0.948	1	test	Phase3	test/STIM_026.jpg
2110.449	0.722	1	test	Phase3	test/STIM_026.jpg
2114.148	0.858	1	test	Phase3	test/STIM_027.jpg
2118.335	0.725	1	test	Phase3	test/STIM_027.jpg
2122.399	1.026	1	test	Phase3	test/STIM_027.jpg
2127.014	1.003	1	test	Phase3	test/STIM_028.jpg
2130.797	1.3	1	test	Phase3	test/STIM_028.jpg
2135.671	1.007	1	test	Phase3	test/STIM_028.jpg
2140.607	0.678	1	test	Phase3	test/STIM_029.jpg
2144.472	0.663	0	test	Phase3	test/STIM_029.jpg
2147.69	0.735	1	test	Phase3	test/STIM_029.jpg
