onset	duration	accuracy	trial_type	learning_stage	stimulus
0.0	4.995	incorrect	navigation	Trial1	navigation/STIM_000.jpg
7.64	2.713	incorrect	navigation	Trial1	navigation/STIM_000.jpg
12.595	2.84	incorrect	navigation	Trial1	navigation/STIM_000.jpg
18.024	3.061	correct	navigation	Trial1	navigation/STIM_000.jpg
24.644	2.921	incorrect	navigation	Trial1	navigation/STIM_000.jpg
30.258	1.666	correct	navigation	Trial1	navigation/STIM_000.jpg
35.127	3.262	correct	navigation	Trial1	navigation/STIM_001.jpg
42.382	4.565	incorrect	navigation	Trial1	navigation/STIM_001.jpg
50.434	3.743	correct	navigation	Trial1	navigation/STIM_001.jpg
57.552	2.423	correct	navigation	Trial1	navigation/STIM_001.jpg
62.13	3.998	incorrect	navigation	Trial1	navigation/STIM_001.jpg
69.865	3.607	incorrect	navigation	Trial1	navigation/STIM_001.jpg
76.037	2.885	incorrect	navigation	Trial1	navigation/STIM_002.jpg
81.825	2.101	correct	navigation	Trial1	navigation/STIM_002.jpg
87.019	2.209	incorrect	navigation	Trial1	navigation/STIM_002.jpg
91.414	3.78	correct	navigation	Trial1	navigation/STIM_002.jpg
97.737	3.254	incorrect	navigation	Trial1	navigation/STIM_002.jpg
103.372	2.226	correct	navigation	Trial1	navigation/STIM_002.jpg
108.347	2.116	correct	navigation	Trial1	navigation/STIM_003.jpg
112.908	4.104	incorrect	navigation	Trial1	navigation/STIM_003.jpg
120.633	3.965	correct	navigation	Trial1	navigation/STIM_003.jpg
128.507	4.352	incorrect	navigation	Trial1	navigation/STIM_003.jpg
135.558	2.172	incorrect	navigation	Trial1	navigation/STIM_003.jpg
141.038	3.444	correct	navigation	Trial1	navigation/STIM_003.jpg
147.123	2.208	incorrect	navigation	Trial1	navigation/STIM_004.jpg
153.176	4.477	correct	navigation	Trial1	navigation/STIM_004.jpg
160.02	4.421	correct	navigation	Trial1	navigation/STIM_004.jpg
166.492	4.007	correct	navigation	Trial1	navigation/STIM_004.jpg
173.853	2.651	correct	navigation	Trial1	navigation/STIM_004.jpg
179.7	1.563	incorrect	navigation	Trial1	navigation/STIM_004.jpg
184.651	4.633	correct	navigation	Trial1	navigation/STIM_005.jpg
192.257	4.598	incorrect	navigation	Trial1	navigation/STIM_005.jpg
200.844	2.96	incorrect	navigation	Trial1	navigation/STIM_005.jpg
207.228	2.382	correct	navigation	Trial1	navigation/STIM_005.jpg
213.44	2.161	incorrect	navigation	Trial1	navigation/STIM_005.jpg
218.901	3.251	incorrect	navigation	Trial1	navigation/STIM_005.jpg
225.239	4.708	correct	navigation	Trial1	navigation/STIM_006.jpg
233.87	3.629	incorrect	navigation	Trial1	navigation/STIM_006.jpg
240.091	2.277	incorrect	navigation	Trial1	navigation/STIM_006.jpg
245.387	2.83	correct	navigation	Trial1	navigation/STIM_006.jpg
251.147	3.513	correct	navigation	Trial1	navigation/STIM_006.jpg
258.281	3.005	correct	navigation	Trial1	navigation/STIM_006.jpg
263.365	2.264	correct	navigation	Trial1	navigation/STIM_007.jpg
268.06	2.219	correct	navigation	Trial1	navigation/STIM_007.jpg
272.894	3.834	correct	navigation	Trial1	navigation/STIM_007.jpg
279.442	4.062	correct	navigation	Trial1	navigation/STIM_007.jpg
286.756	2.572	correct	navigation	Trial1	navigation/STIM_007.jpg
291.99	1.753	correct	navigation	Trial1	navigation/STIM_007.jpg
296.805	3.629	incorrect	navigation	Trial1	navigation/STIM_008.jpg
303.644	4.716	correct	navigation	Trial1	navigation/STIM_008.jpg
312.306	3.855	correct	navigation	Trial1	navigation/STIM_008.jpg
319.692	2.825	incorrect	navigation	Trial1	navigation/STIM_008.jpg
324.784	2.71	correct	navigation	Trial1	navigation/STIM_008.jpg
330.292	1.975	incorrect	navigation	Trial1	navigation/STIM_008.jpg
334.503	2.994	correct	navigation	Trial1	navigation/STIM_009.jpg
341.214	4.831	incorrect	navigation	Trial1	navigation/STIM_009.jpg
349.686	4.328	correct	navigation	Trial1	navigation/STIM_009.jpg
356.641	3.339	correct	navigation	Trial1	navigation/STIM_009.jpg
363.556	2.305	correct	navigation	Trial1	navigation/STIM_009.jpg
368.567	2.289	incorrect	navigation	Trial1	navigation/STIM_009.jpg
374.146	4.685	incorrect	navigation	Trial1	navigation/STIM_010.jpg
381.644	3.713	incorrect	navigation	Trial1	navigation/STIM_010.jpg
388.164	3.746	correct	navigation	Trial1	navigation/STIM_010.jpg
394.177	3.419	incorrect	navigation	Trial1	navigation/STIM_010.jpg
401.187	2.877	incorrect	navigation	Trial1	navigation/STIM_010.jpg
406.469	2.175	incorrect	navigation	Trial1	navigation/STIM_010.jpg
412.305	4.327	incorrect	navigation	Trial1	navigation/STIM_011.jpg
418.909	4.14	correct	navigation	Trial1	navigation/STIM_011.jpg
425.575	4.031	incorrect	navigation	Trial1	navigation/STIM_011.jpg
432.733	3.123	incorrect	navigation	Trial1	navigation/STIM_011.jpg
438.792	2.168	incorrect	navigation	Trial1	navigation/STIM_011.jpg
443.751	1.708	incorrect	navigation	Trial1	navigation/STIM_011.jpg
448.23	1.223	incorrect	pointing	Trial1	pointing/STIM_000.jpg
453.258	1.16	correct	pointing	Trial1	pointing/STIM_000.jpg
457.92	1.023	correct	pointing	Trial1	pointing/STIM_000.jpg
461.115	1.213	correct	pointing	Trial1	pointing/STIM_000.jpg
464.813	1.447	correct	pointing	Trial1	pointing/STIM_000.jpg
469.619	1.367	correct	pointing	Trial1	pointing/STIM_000.jpg
474.459	0.857	correct	pointing	Trial1	pointing/STIM_001.jpg
478.936	1.504	correct	pointing	Trial1	pointing/STIM_001.jpg
482.7	1.214	correct	pointing	Trial1	pointing/STIM_001.jpg
486.091	1.418	correct	pointing	Trial1	pointing/STIM_001.jpg
489.895	1.152	correct	pointing	Trial1	pointing/STIM_001.jpg
493.994	1.272	correct	pointing	Trial1	pointing/STIM_001.jpg
498.754	1.454	incorrect	pointing	Trial1	pointing/STIM_002.jpg
502.347	1.323	correct	pointing	Trial1	pointing/STIM_002.jpg
507.461	1.53	correct	pointing	Trial1	pointing/STIM_002.jpg
512.201	1.249	correct	pointing	Trial1	pointing/STIM_002.jpg
516.234	0.919	correct	pointing	Trial1	pointing/STIM_002.jpg
520.909	1.125	correct	pointing	Trial1	pointing/STIM_002.jpg
525.958	1.09	correct	pointing	Trial1	pointing/STIM_003.jpg
529.418	1.051	incorrect	pointing	Trial1	pointing/STIM_003.jpg
533.663	0.845	correct	pointing	Trial1	pointing/STIM_003.jpg
536.52	1.397	correct	pointing	Trial1	pointing/STIM_003.jpg
541.272	1.313	correct	pointing	Trial1	pointing/STIM_003.jpg
544.677	1.518	correct	pointing	Trial1	pointing/STIM_003.jpg
549.074	0.984	correct	pointing	Trial1	pointing/STIM_004.jpg
553.062	1.125	correct	pointing	Trial1	pointing/STIM_004.jpg
557.851	1.19	correct	pointing	Trial1	pointing/STIM_004.jpg
562.772	1.03	incorrect	pointing	Trial1	pointing/STIM_004.jpg
567.141	1.381	correct	pointing	Trial1	pointing/STIM_004.jpg
571.711	1.102	incorrect	pointing	Trial1	pointing/STIM_004.jpg
576.402	1.076	correct	pointing	Trial1	pointing/STIM_005.jpg
579.614	1.455	correct	pointing	Trial1	pointing/STIM_005.jpg
584.478	1.156	incorrect	pointing	Trial1	pointing/STIM_005.jpg
588.718	1.239	correct	pointing	Trial1	pointing/STIM_005.jpg
592.197	1.335	correct	pointing	Trial1	pointing/STIM_005.jpg
596.328	1.521	correct	pointing	Trial1	pointing/STIM_005.jpg
600.255	1.419	correct	pointing	Trial1	pointing/STIM_006.jpg
604.467	0.835	incorrect	pointing	Trial1	pointing/STIM_006.jpg
609.021	1.153	correct	pointing	Trial1	pointing/STIM_006.jpg
613.828	1.528	incorrect	pointing	Trial1	pointing/STIM_006.jpg
619.017	1.193	correct	pointing	Trial1	pointing/STIM_006.jpg
624.202	0.93	incorrect	pointing	Trial1	pointing/STIM_006.jpg
628.909	1.41	correct	pointing	Trial1	pointing/STIM_007.jpg
632.841	1.373	incorrect	pointing	Trial1	pointing/STIM_007.jpg
638.025	0.899	incorrect	pointing	Trial1	pointing/STIM_007.jpg
642.163	1.267	incorrect	pointing	Trial1	pointing/STIM_007.jpg
647.141	1.046	incorrect	pointing	Trial1	pointing/STIM_007.jpg
651.056	1.45	correct	pointing	Trial1	pointing/STIM_007.jpg
655.57	1.176	incorrect	pointing	Trial1	pointing/STIM_008.jpg
660.099	1.22	correct	pointing	Trial1	pointing/STIM_008.jpg
664.955	1.411	incorrect	pointing	Trial1	pointing/STIM_008.jpg
670.28	1.12	incorrect	pointing	Trial1	pointing/STIM_008.jpg
674.316	1.399	correct	pointing	Trial1	pointing/STIM_008.jpg
678.989	1.412	incorrect	pointing	Trial1	pointing/STIM_008.jpg
682.92	1.075	correct	pointing	Trial1	pointing/STIM_009.jpg
686.099	1.21	incorrect	pointing	Trial1	pointing/STIM_009.jpg
690.749	1.319	correct	pointing	Trial1	pointing/STIM_009.jpg
694.705	1.223	incorrect	pointing	Trial1	pointing/STIM_009.jpg
698.869	1.083	correct	pointing	Trial1	pointing/STIM_009.jpg
703.583	0.913	correct	pointing	Trial1	pointing/STIM_009.jpg
707.257	1.185	correct	pointing	Trial1	pointing/STIM_010.jpg
710.652	0.886	correct	pointing	Trial1	pointing/STIM_010.jpg
715.131	1.011	correct	pointing	Trial1	pointing/STIM_010.jpg
718.372	0.993	correct	pointing	Trial1	pointing/STIM_010.jpg
721.435	0.996	correct	pointing	Trial1	pointing/STIM_010.jpg
725.727	0.885	correct	pointing	Trial1	pointing/STIM_010.jpg
730.096	1.332	incorrect	pointing	Trial1	pointing/STIM_011.jpg
735.38	1.121	incorrect	pointing	Trial1	pointing/STIM_011.jpg
738.593	1.178	incorrect	pointing	Trial1	pointing/STIM_011.jpg
742.17	1.465	correct	pointing	Trial1	pointing/STIM_011.jpg
746.291	1.373	correct	pointing	Trial1	pointing/STIM_011.jpg
751.42	1.019	correct	pointing	Trial1	pointing/STIM_011.jpg
754.513	2.469	incorrect	navigation	Trial2	navigation/STIM_000.jpg
760.439	3.839	correct	navigation	Trial2	navigation/STIM_000.jpg
767.095	3.267	incorrect	navigation	Trial2	navigation/STIM_000.jpg
773.863	1.496	correct	navigation	Trial2	navigation/STIM_000.jpg
778.049	1.641	correct	navigation	Trial2	navigation/STIM_000.jpg
783.236	3.38	correct	navigation	Trial2	navigation/STIM_000.jpg
789.05	3.636	correct	navigation	Trial2	navigation/STIM_001.jpg
794.993	2.553	incorrect	navigation	Trial2	navigation/STIM_001.jpg
800.907	3.029	incorrect	navigation	Trial2	navigation/STIM_001.jpg
807.902	2.508	correct	navigation	Trial2	navigation/STIM_001.jpg
813.953	3.369	correct	navigation	Trial2	navigation/STIM_001.jpg
820.797	3.122	correct	navigation	Trial2	navigation/STIM_001.jpg
827.225	3.707	incorrect	navigation	Trial2	navigation/STIM_002.jpg
834.038	3.097	correct	navigation	Trial2	navigation/STIM_002.jpg
839.722	2.568	incorrect	navigation	Trial2	navigation/STIM_002.jpg
845.541	2.89	incorrect	navigation	Trial2	navigation/STIM_002.jpg
852.278	3.31	correct	navigation	Trial2	navigation/STIM_002.jpg
859.567	3.001	correct	navigation	Trial2	navigation/STIM_002.jpg
864.637	2.506	correct	navigation	Trial2	navigation/STIM_003.jpg
871.058	1.843	correct	navigation	Trial2	navigation/STIM_003.jpg
876.136	1.727	correct	navigation	Trial2	navigation/STIM_003.jpg
879.953	3.478	correct	navigation	Trial2	navigation/STIM_003.jpg
886.88	3.584	incorrect	navigation	Trial2	navigation/STIM_003.jpg
893.34	1.583	correct	navigation	Trial2	navigation/STIM_003.jpg
897.11	3.528	incorrect	navigation	Trial2	navigation/STIM_004.jpg
903.679	3.389	correct	navigation	Trial2	navigation/STIM_004.jpg
909.123	2.201	incorrect	navigation	Trial2	navigation/STIM_004.jpg
914.327	2.838	correct	navigation	Trial2	navigation/STIM_004.jpg
920.696	2.226	incorrect	navigation	Trial2	navigation/STIM_004.jpg
926.731	2.873	correct	navigation	Trial2	navigation/STIM_004.jpg
931.785	3.221	correct	navigation	Trial2	navigation/STIM_005.jpg
937.117	3.747	correct	navigation	Trial2	navigation/STIM_005.jpg
942.957	2.133	incorrect	navigation	Trial2	navigation/STIM_005.jpg
948.185	1.977	correct	navigation	Trial2	navigation/STIM_005.jpg
953.305	1.999	correct	navigation	Trial2	navigation/STIM_005.jpg
958.911	2.18	incorrect	navigation	Trial2	navigation/STIM_005.jpg
964.493	2.8	correct	navigation	Trial2	navigation/STIM_006.jpg
970.579	3.266	correct	navigation	Trial2	navigation/STIM_006.jpg
977.663	2.47	incorrect	navigation	Trial2	navigation/STIM_006.jpg
982.389	2.78	correct	navigation	Trial2	navigation/STIM_006.jpg
988.413	3.298	correct	navigation	Trial2	navigation/STIM_006.jpg
994.658	3.106	correct	navigation	Trial2	navigation/STIM_006.jpg
1000.28	3.188	correct	navigation	Trial2	navigation/STIM_007.jpg
1006.691	2.226	incorrect	navigation	Trial2	navigation/STIM_007.jpg
1012.497	1.662	correct	navigation	Trial2	navigation/STIM_007.jpg
1017.764	3.317	correct	navigation	Trial2	navigation/STIM_007.jpg
1024.269	2.672	correct	navigation	Trial2	navigation/STIM_007.jpg
1030.122	3.265	correct	navigation	Trial2	navigation/STIM_007.jpg
1035.669	4.048	correct	navigation	Trial2	navigation/STIM_008.jpg
1043.284	4.086	correct	navigation	Trial2	navigation/STIM_008.jpg
1049.953	1.95	correct	navigation	Trial2	navigation/STIM_008.jpg
1055.348	3.164	incorrect	navigation	Trial2	navigation/STIM_008.jpg
1062.094	2.945	incorrect	navigation	Trial2	navigation/STIM_008.jpg
1069.03	1.524	correct	navigation	Trial2	navigation/STIM_008.jpg
1073.049	3.313	incorrect	navigation	Trial2	navigation/STIM_009.jpg
1079.39	3.322	correct	navigation	Trial2	navigation/STIM_009.jpg
1085.475	2.584	correct	navigation	Trial2	navigation/STIM_009.jpg
1090.347	1.804	correct	navigation	Trial2	navigation/STIM_009.jpg
1095.488	1.668	incorrect	navigation	Trial2	navigation/STIM_009.jpg
1100.749	1.902	incorrect	navigation	Trial2	navigation/STIM_009.jpg
1104.734	3.186	incorrect	navigation	Trial2	navigation/STIM_010.jpg
1110.573	3.293	correct	navigation	Trial2	navigation/STIM_010.jpg
1116.172	2.019	correct	navigation	Trial2	navigation/STIM_010.jpg
1121.526	2.48	incorrect	navigation	Trial2	navigation/STIM_010.jpg
1127.682	2.082	correct	navigation	Trial2	navigation/STIM_010.jpg
1131.924	2.195	correct	navigation	Trial2	navigation/STIM_010.jpg
1136.809	4.105	correct	navigation	Trial2	navigation/STIM_011.jpg
1144.201	3.812	correct	navigation	Trial2	navigation/STIM_011.jpg
1150.928	1.833	correct	navigation	Trial2	navigation/STIM_011.jpg
1154.794	1.797	correct	navigation	Trial2	navigation/STIM_011.jpg
1160.54	3.102	incorrect	navigation	Trial2	navigation/STIM_011.jpg
1167.22	2.391	correct	navigation	Trial2	navigation/STIM_011.jpg
1173.404	1.438	correct	pointing	Trial2	pointing/STIM_000.jpg
1178.441	1.213	correct	pointing	Trial2	pointing/STIM_000.jpg
1181.965	1.139	correct	pointing	Trial2	pointing/STIM_000.jpg
1185.226	1.001	correct	pointing	Trial2	pointing/STIM_000.jpg
1190.066	1.057	correct	pointing	Trial2	pointing/STIM_000.jpg
1194.573	0.965	correct	pointing	Trial2	pointing/STIM_000.jpg
1197.644	0.971	correct	pointing	Trial2	pointing/STIM_001.jpg
1201.715	1.225	correct	pointing	Trial2	pointing/STIM_001.jpg
1205.844	1.382	correct	pointing	Trial2	pointing/STIM_001.jpg
1209.354	0.828	correct	pointing	Trial2	pointing/STIM_001.jpg
1212.829	0.845	correct	pointing	Trial2	pointing/STIM_001.jpg
1217.636	1.258	correct	pointing	Trial2	pointing/STIM_001.jpg
1222.735	1.213	correct	pointing	Trial2	pointing/STIM_002.jpg
1226.242	1.264	correct	pointing	Trial2	pointing/STIM_002.jpg
1230.074	1.418	correct	pointing	Trial2	pointing/STIM_002.jpg
1234.341	1.099	incorrect	pointing	Trial2	pointing/STIM_002.jpg
1237.627	0.888	correct	pointing	Trial2	pointing/STIM_002.jpg
1240.772	1.11	correct	pointing	Trial2	pointing/STIM_002.jpg
1244.317	1.188	correct	pointing	Trial2	pointing/STIM_003.jpg
1249.275	1.088	correct	pointing	Trial2	pointing/STIM_003.jpg
1252.756	1.485	correct	pointing	Trial2	pointing/STIM_003.jpg
1257.529	0.841	incorrect	pointing	Trial2	pointing/STIM_003.jpg
1262.023	1.487	correct	pointing	Trial2	pointing/STIM_003.jpg
1266.746	1.084	correct	pointing	Trial2	pointing/STIM_003.jpg
1269.893	0.992	correct	pointing	Trial2	pointing/STIM_004.jpg
1274.704	0.862	correct	pointing	Trial2	pointing/STIM_004.jpg
1279.09	1.428	correct	pointing	Trial2	pointing/STIM_004.jpg
1283.561	1.466	correct	pointing	Trial2	pointing/STIM_004.jpg
1288.576	0.922	correct	pointing	Trial2	pointing/STIM_004.jpg
1292.972	1.298	correct	pointing	Trial2	pointing/STIM_004.jpg
1297.627	1.182	correct	pointing	Trial2	pointing/STIM_005.jpg
1302.251	0.992	incorrect	pointing	Trial2	pointing/STIM_005.jpg
1305.355	1.377	correct	pointing	Trial2	pointing/STIM_005.jpg
1308.831	1.489	correct	pointing	Trial2	pointing/STIM_005.jpg
1312.556	1.527	correct	pointing	Trial2	pointing/STIM_005.jpg
1316.981	1.294	correct	pointing	Trial2	pointing/STIM_005.jpg
1321.056	1.152	incorrect	pointing	Trial2	pointing/STIM_006.jpg
1325.03	1.507	correct	pointing	Trial2	pointing/STIM_006.jpg
1329.179	0.891	correct	pointing	Trial2	pointing/STIM_006.jpg
1333.499	1.323	correct	pointing	Trial2	pointing/STIM_006.jpg
1337.199	0.84	correct	pointing	Trial2	pointing/STIM_006.jpg
1340.427	0.91	incorrect	pointing	Trial2	pointing/STIM_006.jpg
1344.026	1.019	correct	pointing	Trial2	pointing/STIM_007.jpg
1348.361	0.873	correct	pointing	Trial2	pointing/STIM_007.jpg
1351.244	1.215	correct	pointing	Trial2	pointing/STIM_007.jpg
1355.684	1.346	incorrect	pointing	Trial2	pointing/STIM_007.jpg
1359.643	1.086	incorrect	pointing	Trial2	pointing/STIM_007.jpg
1362.782	0.876	correct	pointing	Trial2	pointing/STIM_007.jpg
1367.103	0.924	correct	pointing	Trial2	pointing/STIM_008.jpg
1371.314	0.847	incorrect	pointing	Trial2	pointing/STIM_008.jpg
1374.641	1.429	incorrect	pointing	Trial2	pointing/STIM_008.jpg
1379.765	0.94	correct	pointing	Trial2	pointing/STIM_008.jpg
1384.152	1.015	correct	pointing	Trial2	pointing/STIM_008.jpg
1388.824	1.069	correct	pointing	Trial2	pointing/STIM_008.jpg
1392.868	1.26	correct	pointing	Trial2	pointing/STIM_009.jpg
1397.806	1.538	correct	pointing	Trial2	pointing/STIM_009.jpg
1401.811	1.273	correct	pointing	Trial2	pointing/STIM_009.jpg
1405.245	1.386	correct	pointing	Trial2	pointing/STIM_009.jpg
1409.353	1.202	incorrect	pointing	Trial2	pointing/STIM_009.jpg
1413.08	1.16	correct	pointing	Trial2	pointing/STIM_009.jpg
1417.501	1.24	incorrect	pointing	Trial2	pointing/STIM_010.jpg
1421.976	0.972	correct	pointing	Trial2	pointing/STIM_010.jpg
1426.527	0.981	correct	pointing	Trial2	pointing/STIM_010.jpg
1431.188	1.365	correct	pointing	Trial2	pointing/STIM_010.jpg
1436.42	1.513	correct	pointing	Trial2	pointing/STIM_010.jpg
1441.393	1.031	incorrect	pointing	Trial2	pointing/STIM_010.jpg
1444.955	1.134	correct	pointing	Trial2	pointing/STIM_011.jpg
1449.611	1.06	correct	pointing	Trial2	pointing/STIM_011.jpg
1453.158	1.07	correct	pointing	Trial2	pointing/STIM_011.jpg
1457.004	1.429	correct	pointing	Trial2	pointing/STIM_011.jpg
1461.025	0.977	correct	pointing	Trial2	pointing/STIM_011.jpg
1464.779	1.498	incorrect	pointing	Trial2	pointing/STIM_011.jpg
1469.155	2.396	incorrect	navigation	Trial3	navigation/STIM_000.jpg
1474.416	3.173	correct	navigation	Trial3	navigation/STIM_000.jpg
1480.146	1.769	incorrect	navigation	Trial3	navigation/STIM_000.jpg
1484.845	2.339	correct	navigation	Trial3	navigation/STIM_000.jpg
1490.604	1.86	correct	navigation	Trial3	navigation/STIM_000.jpg
1496.454	2.423	incorrect	navigation	Trial3	navigation/STIM_000.jpg
1501.462	2.985	correct	navigation	Trial3	navigation/STIM_001.jpg
1507.749	2.005	incorrect	navigation	Trial3	navigation/STIM_001.jpg
1513.553	1.894	incorrect	navigation	Trial3	navigation/STIM_001.jpg
1517.863	2.66	correct	navigation	Trial3	navigation/STIM_001.jpg
1523.538	3.009	correct	navigation	Trial3	navigation/STIM_001.jpg
1529.82	1.804	correct	navigation	Trial3	navigation/STIM_001.jpg
1535.177	2.521	correct	navigation	Trial3	navigation/STIM_002.jpg
1540.56	1.839	incorrect	navigation	Trial3	navigation/STIM_002.jpg
1544.75	1.72	correct	navigation	Trial3	navigation/STIM_002.jpg
1549.503	1.845	correct	navigation	Trial3	navigation/STIM_002.jpg
1554.383	1.762	correct	navigation	Trial3	navigation/STIM_002.jpg
1558.884	2.364	correct	navigation	Trial3	navigation/STIM_002.jpg
1564.803	3.409	incorrect	navigation	Trial3	navigation/STIM_003.jpg
1570.843	2.758	incorrect	navigation	Trial3	navigation/STIM_003.jpg
1576.267	1.76	correct	navigation	Trial3	navigation/STIM_003.jpg
1581.262	2.074	incorrect	navigation	Trial3	navigation/STIM_003.jpg
1586.311	2.282	incorrect	navigation	Trial3	navigation/STIM_003.jpg
1590.954	2.606	correct	navigation	Trial3	navigation/STIM_003.jpg
1597.409	3.2	correct	navigation	Trial3	navigation/STIM_004.jpg
1604.11	3.448	correct	navigation	Trial3	navigation/STIM_004.jpg
1610.43	2.582	correct	navigation	Trial3	navigation/STIM_004.jpg
1615.968	3.289	incorrect	navigation	Trial3	navigation/STIM_004.jpg
1622.469	3.443	correct	navigation	Trial3	navigation/STIM_004.jpg
1629.243	2.64	incorrect	navigation	Trial3	navigation/STIM_004.jpg
1634.405	1.494	incorrect	navigation	Trial3	navigation/STIM_005.jpg
1638.817	3.346	incorrect	navigation	Trial3	navigation/STIM_005.jpg
1644.606	2.33	correct	navigation	Trial3	navigation/STIM_005.jpg
1650.303	1.868	incorrect	navigation	Trial3	navigation/STIM_005.jpg
1655.859	2.152	incorrect	navigation	Trial3	navigation/STIM_005.jpg
1660.772	2.528	correct	navigation	Trial3	navigation/STIM_005.jpg
1665.37	3.413	correct	navigation	Trial3	navigation/STIM_006.jpg
1671.833	2.808	correct	navigation	Trial3	navigation/STIM_006.jpg
1677.954	2.487	correct	navigation	Trial3	navigation/STIM_006.jpg
1683.879	3.43	incorrect	navigation	Trial3	navigation/STIM_006.jpg
1690.412	2.306	incorrect	navigation	Trial3	navigation/STIM_006.jpg
1696.153	1.571	correct	navigation	Trial3	navigation/STIM_006.jpg
1701.475	2.868	correct	navigation	Trial3	navigation/STIM_007.jpg
1706.681	1.688	incorrect	navigation	Trial3	navigation/STIM_007.jpg
1711.969	3.102	correct	navigation	Trial3	navigation/STIM_007.jpg
1717.124	3.007	correct	navigation	Trial3	navigation/STIM_007.jpg
1724.088	3.351	incorrect	navigation	Trial3	navigation/STIM_007.jpg
1731.224	1.678	correct	navigation	Trial3	navigation/STIM_007.jpg
1736.479	2.664	incorrect	navigation	Trial3	navigation/STIM_008.jpg
1742.542	3.322	correct	navigation	Trial3	navigation/STIM_008.jpg
1748.987	3.306	correct	navigation	Trial3	navigation/STIM_008.jpg
1755.244	3.401	correct	navigation	Trial3	navigation/STIM_008.jpg
1760.776	3.26	incorrect	navigation	Trial3	navigation/STIM_008.jpg
1767.449	2.521	correct	navigation	Trial3	navigation/STIM_008.jpg
1773.918	3.065	correct	navigation	Trial3	navigation/STIM_009.jpg
1780.392	2.328	incorrect	navigation	Trial3	navigation/STIM_009.jpg
1786.044	2.809	correct	navigation	Trial3	navigation/STIM_009.jpg
1791.314	1.82	correct	navigation	Trial3	navigation/STIM_009.jpg
1795.833	3.579	correct	navigation	Trial3	navigation/STIM_009.jpg
1801.463	2.843	correct	navigation	Trial3	navigation/STIM_009.jpg
1807.966	2.26	correct	navigation	Trial3	navigation/STIM_010.jpg
1812.969	2.502	correct	navigation	Trial3	navigation/STIM_010.jpg
1819.047	2.311	incorrect	navigation	Trial3	navigation/STIM_010.jpg
1823.463	3.508	incorrect	navigation	Trial3	navigation/STIM_010.jpg
1829.2	2.67	correct	navigation	Trial3	navigation/STIM_010.jpg
1834.16	2.219	incorrect	navigation	Trial3	navigation/STIM_010.jpg
1839.642	1.827	incorrect	navigation	Trial3	navigation/STIM_011.jpg
1844.881	2.942	correct	navigation	Trial3	navigation/STIM_011.jpg
1850.736	2.904	correct	navigation	Trial3	navigation/STIM_011.jpg
1856.805	2.565	correct	navigation	Trial3	navigation/STIM_011.jpg
1862.417	2.448	correct	navigation	Trial3	navigation/STIM_011.jpg
1868.7	2.62	correct	navigation	Trial3	navigation/STIM_011.jpg
1873.703	1.096	correct	pointing	Trial3	pointing/STIM_000.jpg
1877.717	0.832	correct	pointing	Trial3	pointing/STIM_000.jpg
1881.616	1.146	correct	pointing	Trial3	pointing/STIM_000.jpg
1885.879	1.18	correct	pointing	Trial3	pointing/STIM_000.jpg
1890.444	1.076	incorrect	pointing	Trial3	pointing/STIM_000.jpg
1893.535	1.391	correct	pointing	Trial3	pointing/STIM_000.jpg
1897.139	1.31	correct	pointing	Trial3	pointing/STIM_001.jpg
1901.708	1.517	correct	pointing	Trial3	pointing/STIM_001.jpg
1905.585	1.493	correct	pointing	Trial3	pointing/STIM_001.jpg
1909.831	1.085	incorrect	pointing	Trial3	pointing/STIM_001.jpg
1913.176	1.366	correct	pointing	Trial3	pointing/STIM_001.jpg
1917.112	0.933	correct	pointing	Trial3	pointing/STIM_001.jpg
1921.643	1.502	correct	pointing	Trial3	pointing/STIM_002.jpg
1925.471	0.951	incorrect	pointing	Trial3	pointing/STIM_002.jpg
1929.077	0.952	correct	pointing	Trial3	pointing/STIM_002.jpg
1932.63	1.273	incorrect	pointing	Trial3	pointing/STIM_002.jpg
1937.357	1.012	correct	pointing	Trial3	pointing/STIM_002.jpg
1941.036	0.889	incorrect	pointing	Trial3	pointing/STIM_002.jpg
1944.481	1.302	incorrect	pointing	Trial3	pointing/STIM_003.jpg
1949.624	0.831	correct	pointing	Trial3	pointing/STIM_003.jpg
1953.246	1.076	correct	pointing	Trial3	pointing/STIM_003.jpg
1956.995	1.268	incorrect	pointing	Trial3	pointing/STIM_003.jpg
1962.026	1.108	incorrect	pointing	Trial3	pointing/STIM_003.jpg
1965.754	0.94	correct	pointing	Trial3	pointing/STIM_003.jpg
1969.455	1.272	correct	pointing	Trial3	pointing/STIM_004.jpg
1973.081	1.482	correct	pointing	Trial3	pointing/STIM_004.jpg
1976.966	0.895	correct	pointing	Trial3	pointing/STIM_004.jpg
1981.215	1.531	correct	pointing	Trial3	pointing/STIM_004.jpg
1985.52	1.237	incorrect	pointing	Trial3	pointing/STIM_004.jpg
1989.714	0.954	correct	pointing	Trial3	pointing/STIM_004.jpg
1993.74	1.475	incorrect	pointing	Trial3	pointing/STIM_005.jpg
1998.365	1.039	incorrect	pointing	Trial3	pointing/STIM_005.jpg
2002.538	1.412	correct	pointing	Trial3	pointing/STIM_005.jpg
2007.168	0.924	correct	pointing	Trial3	pointing/STIM_005.jpg
2010.251	1.436	correct	pointing	Trial3	pointing/STIM_005.jpg
2013.895	0.849	correct	pointing	Trial3	pointing/STIM_005.jpg
2017.183	1.208	correct	pointing	Trial3	pointing/STIM_006.jpg
2020.959	1.041	correct	pointing	Trial3	pointing/STIM_006.jpg
2025.167	1.221	incorrect	pointing	Trial3	pointing/STIM_006.jpg
2029.292	1.364	incorrect	pointing	Trial3	pointing/STIM_006.jpg
2034.253	1.334	incorrect	pointing	Trial3	pointing/STIM_006.jpg
2038.507	1.098	correct	pointing	Trial3	pointing/STIM_006.jpg
2042.336	1.512	correct	pointing	Trial3	pointing/STIM_007.jpg
2046.283	1.143	correct	pointing	Trial3	pointing/STIM_007.jpg
2050.701	1.392	correct	pointing	Trial3	pointing/STIM_007.jpg
2054.783	0.847	correct	pointing	Trial3	pointing/STIM_007.jpg
2057.713	0.868	correct	pointing	Trial3	pointing/STIM_007.jpg
2060.775	1.348	correct	pointing	Trial3	pointing/STIM_007.jpg
2065.61	1.105	correct	pointing	Trial3	pointing/STIM_008.jpg
2070.373	0.934	correct	pointing	Trial3	pointing/STIM_008.jpg
2074.464	1.347	incorrect	pointing	Trial3	pointing/STIM_008.jpg
2078.641	1.516	correct	pointing	Trial3	pointing/STIM_008.jpg
2083.921	1.526	correct	pointing	Trial3	pointing/STIM_008.jpg
2089.104	1.488	incorrect	pointing	Trial3	pointing/STIM_008.jpg
2092.76	1.51	correct	pointing	Trial3	pointing/STIM_009.jpg
2096.316	0.899	incorrect	pointing	Trial3	pointing/STIM_009.jpg
2100.648	0.823	correct	pointing	Trial3	pointing/STIM_009.jpg
2103.945	1.22	correct	pointing	Trial3	pointing/STIM_009.jpg
2107.298	1.229	correct	pointing	Trial3	pointing/STIM_009.jpg
2111.134	1.158	correct	pointing	Trial3	pointing/STIM_009.jpg
2115.37	1.137	correct	pointing	Trial3	pointing/STIM_010.jpg
2120.426	1.415	correct	pointing	Trial3	pointing/STIM_010.jpg
2125.021	1.517	incorrect	pointing	Trial3	pointing/STIM_010.jpg
2129.569	1.236	correct	pointing	Trial3	pointing/STIM_010.jpg
2133.56	1.538	incorrect	pointing	Trial3	pointing/STIM_010.jpg
2138.59	1.438	correct	pointing	Trial3	pointing/STIM_010.jpg
2142.907	1.295	correct	pointing	Trial3	pointing/STIM_011.jpg
2147.722	1.037	correct	pointing	Trial3	pointing/STIM_011.jpg
2150.92	0.86	correct	pointing	Trial3	pointing/STIM_011.jpg
2155.282	1.374	correct	pointing	Trial3	pointing/STIM_011.jpg
2159.283	1.28	incorrect	pointing	Trial3	pointing/STIM_011.jpg
2164.274	1.026	correct	pointing	Trial3	pointing/STIM_011.jpg
