onset	duration	response_time_ms	trial_type	learning_stage	stimulus	response_port
0.0	2.882	2882.1	navigation	Trial1	navigation/STIM_000.jpg	100
6.783	4.001	4001.0	navigation	Trial1	navigation/STIM_000.jpg	99
13.761	3.812	3812.5	navigation	Trial1	navigation/STIM_000.jpg	100
21.391	2.494	2494.2	navigation	Trial1	navigation/STIM_000.jpg	99
26.907	3.787	3786.7	navigation	Trial1	navigation/STIM_000.jpg	100
32.936	2.608	2608.5	navigation	Trial1	navigation/STIM_000.jpg	99
38.63	3.826	3825.9	navigation	Trial1	navigation/STIM_001.jpg	100
45.415	4.594	4594.2	navigation	Trial1	navigation/STIM_001.jpg	99
53.602	3.957	3957.3	navigation	Trial1	navigation/STIM_001.jpg	99
59.756	3.124	3124.0	navigation	Trial1	navigation/STIM_001.jpg	99
66.719	2.814	2814.1	navigation	Trial1	navigation/STIM_001.jpg	99
72.877	3.675	3675.3	navigation	Trial1	navigation/STIM_001.jpg	100
80.104	2.332	2331.6	navigation	Trial1	navigation/STIM_002.jpg	99
85.186	3.263	3263.3	navigation	Trial1	navigation/STIM_002.jpg	99
92.445	3.692	3691.7	navigation	Trial1	navigation/STIM_002.jpg	99
99.21	4.008	4008.3	navigation	Trial1	navigation/STIM_002.jpg	100
106.996	3.25	3249.9	navigation	Trial1	navigation/STIM_002.jpg	99
113.214	3.028	3027.8	navigation	Trial1	navigation/STIM_002.jpg	99
119.296	4.168	4168.2	navigation	Trial1	navigation/STIM_003.jpg	99
126.886	2.389	2389.1	navigation	Trial1	navigation/STIM_003.jpg	100
131.51	3.894	3893.5	navigation	Trial1	navigation/STIM_003.jpg	99
138.923	3.683	3683.3	navigation	Trial1	navigation/STIM_003.jpg	100
146.613	3.14	3139.8	navigation	Trial1	navigation/STIM_003.jpg	100
152.754	3.363	3362.9	navigation	Trial1	navigation/STIM_003.jpg	100
159.275	4.901	4900.6	navigation	Trial1	navigation/STIM_004.jpg	99
167.046	2.154	2154.1	navigation	Trial1	navigation/STIM_004.jpg	99
173.014	3.634	3634.3	navigation	Trial1	navigation/STIM_004.jpg	99
179.832	2.882	2881.9	navigation	Trial1	navigation/STIM_004.jpg	100
186.474	2.737	2737.3	navigation	Trial1	navigation/STIM_004.jpg	100
193.024	1.942	1942.1	navigation	Trial1	navigation/STIM_004.jpg	99
198.721	4.332	4331.8	navigation	Trial1	navigation/STIM_005.jpg	100
205.293	2.947	2946.8	navigation	Trial1	navigation/STIM_005.jpg	99
211.37	2.942	2941.8	navigation	Trial1	navigation/STIM_005.jpg	99
218.002	2.785	2784.6	navigation	Trial1	navigation/STIM_005.jpg	100
224.694	2.288	2288.5	navigation	Trial1	navigation/STIM_005.jpg	100
229.202	2.221	2221.0	navigation	Trial1	navigation/STIM_005.jpg	100
234.457	4.053	4052.6	navigation	Trial1	navigation/STIM_006.jpg	100
241.696	3.413	3413.1	navigation	Trial1	navigation/STIM_006.jpg	99
247.171	3.647	3647.2	navigation	Trial1	navigation/STIM_006.jpg	99
252.902	3.652	3652.2	navigation	Trial1	navigation/STIM_006.jpg	100
259.108	2.133	2133.3	navigation	Trial1	navigation/STIM_006.jpg	99
263.814	2.571	2571.1	navigation	Trial1	navigation/STIM_006.jpg	100
270.259	2.051	2051.3	navigation	Trial1	navigation/STIM_007.jpg	100
274.988	3.895	3894.6	navigation	Trial1	navigation/STIM_007.jpg	100
281.678	2.814	2814.3	navigation	Trial1	navigation/STIM_007.jpg	99
288.266	3.61	3609.9	navigation	Trial1	navigation/STIM_007.jpg	99
295.304	3.137	3136.7	navigation	Trial1	navigation/STIM_007.jpg	99
300.848	3.568	3567.7	navigation	Trial1	navigation/STIM_007.jpg	99
307.182	3.844	3843.6	navigation	Trial1	navigation/STIM_008.jpg	100
313.238	4.153	4152.8	navigation	Trial1	navigation/STIM_008.jpg	99
319.737	3.563	3563.3	navigation	Trial1	navigation/STIM_008.jpg	100
325.43	3.639	3638.6	navigation	Trial1	navigation/STIM_008.jpg	99
331.379	2.168	2167.8	navigation	Trial1	navigation/STIM_008.jpg	99
336.768	3.653	3653.3	navigation	Trial1	navigation/STIM_008.jpg	100
344.159	3.335	3334.6	navigation	Trial1	navigation/STIM_009.jpg	100
351.218	1.949	1948.8	navigation	Trial1	navigation/STIM_009.jpg	100
356.611	3.674	3674.0	navigation	Trial1	navigation/STIM_009.jpg	99
362.512	3.84	3840.1	navigation	Trial1	navigation/STIM_009.jpg	99
369.12	1.813	1813.4	navigation	Trial1	navigation/STIM_009.jpg	99
374.44	1.721	1721.2	navigation	Trial1	navigation/STIM_009.jpg	99
379.279	2.043	2042.7	navigation	Trial1	navigation/STIM_010.jpg	100
383.821	3.594	3593.5	navigation	Trial1	navigation/STIM_010.jpg	99
389.547	2.702	2701.9	navigation	Trial1	navigation/STIM_010.jpg	99
395.162	2.8	2799.5	navigation	Trial1	navigation/STIM_010.jpg	100
400.026	2.543	2543.1	navigation	Trial1	navigation/STIM_010.jpg	100
406.394	2.265	2265.4	navigation	Trial1	navigation/STIM_010.jpg	100
411.194	3.571	3570.9	navigation	Trial1	navigation/STIM_011.jpg	100
417.012	3.38	3379.9	navigation	Trial1	navigation/STIM_011.jpg	99
423.561	1.977	1977.3	navigation	Trial1	navigation/STIM_011.jpg	99
428.708	2.142	2141.9	navigation	Trial1	navigation/STIM_011.jpg	100
434.813	1.893	1893.2	navigation	Trial1	navigation/STIM_011.jpg	100
438.972	3.202	3202.4	navigation	Trial1	navigation/STIM_011.jpg	99
445.261	1.099	1099.4	pointing	Trial1	pointing/STIM_000.jpg	100
450.23	0.8	800.4	pointing	Trial1	pointing/STIM_000.jpg	99
453.059	1.007	1006.8	pointing	Trial1	pointing/STIM_000.jpg	99
457.706	1.282	1282.3	pointing	Trial1	pointing/STIM_000.jpg	99
461.882	1.429	1428.7	pointing	Trial1	pointing/STIM_000.jpg	99
466.563	1.212	1211.9	pointing	Trial1	pointing/STIM_000.jpg	100
471.738	1.329	1329.0	pointing	Trial1	pointing/STIM_001.jpg	100
476.339	0.799	799.3	pointing	Trial1	pointing/STIM_001.jpg	100
480.51	1.31	1310.1	pointing	Trial1	pointing/STIM_001.jpg	99
484.546	1.025	1024.7	pointing	Trial1	pointing/STIM_001.jpg	99
487.645	1.382	1382.2	pointing	Trial1	pointing/STIM_001.jpg	99
492.175	1.086	1085.6	pointing	Trial1	pointing/STIM_001.jpg	99
496.648	0.828	827.9	pointing	Trial1	pointing/STIM_002.jpg	100
501.37	1.151	1151.4	pointing	Trial1	pointing/STIM_002.jpg	100
505.235	0.99	990.0	pointing	Trial1	pointing/STIM_002.jpg	100
509.212	1.195	1195.3	pointing	Trial1	pointing/STIM_002.jpg	99
513.28	1.117	1117.0	pointing	Trial1	pointing/STIM_002.jpg	99
517.043	1.217	1216.8	pointing	Trial1	pointing/STIM_002.jpg	100
521.707	1.348	1347.6	pointing	Trial1	pointing/STIM_003.jpg	99
525.426	1.217	1217.1	pointing	Trial1	pointing/STIM_003.jpg	100
530.57	0.833	832.8	pointing	Trial1	pointing/STIM_003.jpg	99
534.673	1.142	1141.6	pointing	Trial1	pointing/STIM_003.jpg	99
539.672	0.969	968.8	pointing	Trial1	pointing/STIM_003.jpg	99
544.292	1.345	1345.2	pointing	Trial1	pointing/STIM_003.jpg	99
549.536	1.195	1195.2	pointing	Trial1	pointing/STIM_004.jpg	100
553.013	1.129	1129.0	pointing	Trial1	pointing/STIM_004.jpg	100
556.398	1.134	1133.6	pointing	Trial1	pointing/STIM_004.jpg	100
560.499	0.997	996.8	pointing	Trial1	pointing/STIM_004.jpg	100
564.466	1.261	1260.9	pointing	Trial1	pointing/STIM_004.jpg	99
568.603	1.135	1135.0	pointing	Trial1	pointing/STIM_004.jpg	100
573.043	0.968	967.7	pointing	Trial1	pointing/STIM_005.jpg	99
577.798	1.485	1484.6	pointing	Trial1	pointing/STIM_005.jpg	99
582.792	0.958	957.9	pointing	Trial1	pointing/STIM_005.jpg	100
587.475	0.803	803.0	pointing	Trial1	pointing/STIM_005.jpg	100
590.368	0.797	797.3	pointing	Trial1	pointing/STIM_005.jpg	99
593.882	1.297	1297.1	pointing	Trial1	pointing/STIM_005.jpg	99
599.061	1.232	1231.8	pointing	Trial1	pointing/STIM_006.jpg	99
602.591	1.092	1091.9	pointing	Trial1	pointing/STIM_006.jpg	100
607.022	1.044	1044.3	pointing	Trial1	pointing/STIM_006.jpg	100
610.35	1.39	1390.3	pointing	Trial1	pointing/STIM_006.jpg	99
615.023	1.454	1453.8	pointing	Trial1	pointing/STIM_006.jpg	99
619.346	1.218	1218.3	pointing	Trial1	pointing/STIM_006.jpg	100
622.814	0.912	912.2	pointing	Trial1	pointing/STIM_007.jpg	99
625.976	1.138	1138.2	pointing	Trial1	pointing/STIM_007.jpg	99
630.009	1.208	1208.2	pointing	Trial1	pointing/STIM_007.jpg	100
633.303	1.322	1321.6	pointing	Trial1	pointing/STIM_007.jpg	100
638.383	1.144	1144.5	pointing	Trial1	pointing/STIM_007.jpg	99
643.311	1.274	1274.1	pointing	Trial1	pointing/STIM_007.jpg	99
646.729	0.899	898.6	pointing	Trial1	pointing/STIM_008.jpg	100
651.58	0.94	939.7	pointing	Trial1	pointing/STIM_008.jpg	100
654.962	1.05	1050.4	pointing	Trial1	pointing/STIM_008.jpg	99
658.657	1.378	1377.5	pointing	Trial1	pointing/STIM_008.jpg	99
662.95	0.834	834.0	pointing	Trial1	pointing/STIM_008.jpg	100
667.549	1.01	1010.4	pointing	Trial1	pointing/STIM_008.jpg	99
672.473	1.386	1386.3	pointing	Trial1	pointing/STIM_009.jpg	99
677.518	0.907	907.1	pointing	Trial1	pointing/STIM_009.jpg	100
682.08	1.403	1402.9	pointing	Trial1	pointing/STIM_009.jpg	99
686.747	0.813	813.1	pointing	Trial1	pointing/STIM_009.jpg	100
691.367	1.195	1195.4	pointing	Trial1	pointing/STIM_009.jpg	100
694.822	0.813	813.1	pointing	Trial1	pointing/STIM_009.jpg	99
699.289	1.278	1278.0	pointing	Trial1	pointing/STIM_010.jpg	99
702.846	0.9	900.1	pointing	Trial1	pointing/STIM_010.jpg	100
706.064	0.994	993.8	pointing	Trial1	pointing/STIM_010.jpg	100
709.408	0.991	991.3	pointing	Trial1	pointing/STIM_010.jpg	100
713.787	1.122	1122.2	pointing	Trial1	pointing/STIM_010.jpg	100
717.174	0.808	808.3	pointing	Trial1	pointing/STIM_010.jpg	100
720.897	1.112	1111.9	pointing	Trial1	pointing/STIM_011.jpg	99
725.058	1.474	1474.4	pointing	Trial1	pointing/STIM_011.jpg	99
729.659	0.835	835.4	pointing	Trial1	pointing/STIM_011.jpg	100
733.593	1.436	1436.4	pointing	Trial1	pointing/STIM_011.jpg	99
738.631	1.027	1027.1	pointing	Trial1	pointing/STIM_011.jpg	100
742.789	1.061	1060.8	pointing	Trial1	pointing/STIM_011.jpg	100
746.593	3.14	3139.7	navigation	Trial2	navigation/STIM_000.jpg	99
753.229	3.048	3047.7	navigation	Trial2	navigation/STIM_000.jpg	99
758.946	2.904	2904.5	navigation	Trial2	navigation/STIM_000.jpg	99
764.452	3.277	3277.1	navigation	Trial2	navigation/STIM_000.jpg	99
769.823	1.443	1442.8	navigation	Trial2	navigation/STIM_000.jpg	100
773.837	1.428	1427.7	navigation	Trial2	navigation/STIM_000.jpg	100
778.629	3.998	3997.6	navigation	Trial2	navigation/STIM_001.jpg	99
785.56	2.986	2985.6	navigation	Trial2	navigation/STIM_001.jpg	99
790.845	1.679	1679.1	navigation	Trial2	navigation/STIM_001.jpg	99
794.962	2.921	2920.6	navigation	Trial2	navigation/STIM_001.jpg	100
801.069	1.49	1489.8	navigation	Trial2	navigation/STIM_001.jpg	99
806.246	2.734	2734.4	navigation	Trial2	navigation/STIM_001.jpg	100
812.217	2.925	2925.1	navigation	Trial2	navigation/STIM_002.jpg	100
817.213	3.786	3786.5	navigation	Trial2	navigation/STIM_002.jpg	100
823.525	2.184	2184.5	navigation	Trial2	navigation/STIM_002.jpg	99
829.652	1.837	1837.4	navigation	Trial2	navigation/STIM_002.jpg	99
835.115	3.425	3424.7	navigation	Trial2	navigation/STIM_002.jpg	99
841.265	3.022	3021.5	navigation	Trial2	navigation/STIM_002.jpg	99
846.523	1.95	1949.5	navigation	Trial2	navigation/STIM_003.jpg	99
851.506	2.879	2878.7	navigation	Trial2	navigation/STIM_003.jpg	100
858.256	3.398	3397.5	navigation	Trial2	navigation/STIM_003.jpg	99
864.518	2.774	2773.7	navigation	Trial2	navigation/STIM_003.jpg	100
870.068	2.531	2531.0	navigation	Trial2	navigation/STIM_003.jpg	100
875.282	3.116	3115.9	navigation	Trial2	navigation/STIM_003.jpg	100
880.939	4.066	4065.5	navigation	Trial2	navigation/STIM_004.jpg	99
887.558	2.432	2431.7	navigation	Trial2	navigation/STIM_004.jpg	100
893.984	2.242	2242.2	navigation	Trial2	navigation/STIM_004.jpg	99
899.827	3.223	3223.1	navigation	Trial2	navigation/STIM_004.jpg	99
906.478	2.797	2796.9	navigation	Trial2	navigation/STIM_004.jpg	100
911.947	1.401	1401.3	navigation	Trial2	navigation/STIM_004.jpg	99
916.583	3.376	3376.3	navigation	Trial2	navigation/STIM_005.jpg	99
922.595	2.692	2692.4	navigation	Trial2	navigation/STIM_005.jpg	100
928.848	2.287	2286.6	navigation	Trial2	navigation/STIM_005.jpg	100
933.768	3.018	3017.9	navigation	Trial2	navigation/STIM_005.jpg	99
939.547	1.99	1989.6	navigation	Trial2	navigation/STIM_005.jpg	99
944.251	3.264	3263.6	navigation	Trial2	navigation/STIM_005.jpg	99
950.273	2.747	2746.9	navigation	Trial2	navigation/STIM_006.jpg	99
955.825	3.571	3571.0	navigation	Trial2	navigation/STIM_006.jpg	99
962.143	2.659	2658.8	navigation	Trial2	navigation/STIM_006.jpg	99
968.81	2.946	2946.4	navigation	Trial2	navigation/STIM_006.jpg	100
974.674	3.41	3409.9	navigation	Trial2	navigation/STIM_006.jpg	100
980.136	2.612	2612.3	navigation	Trial2	navigation/STIM_006.jpg	99
986.344	2.757	2756.7	navigation	Trial2	navigation/STIM_007.jpg	99
991.507	2.252	2252.3	navigation	Trial2	navigation/STIM_007.jpg	99
995.844	2.996	2996.2	navigation	Trial2	navigation/STIM_007.jpg	100
1001.143	3.446	3445.6	navigation	Trial2	navigation/STIM_007.jpg	99
1007.268	2.553	2553.4	navigation	Trial2	navigation/STIM_007.jpg	99
1012.126	1.738	1737.5	navigation	Trial2	navigation/STIM_007.jpg	99
1017.6	2.709	2708.7	navigation	Trial2	navigation/STIM_008.jpg	99
1023.304	3.485	3485.0	navigation	Trial2	navigation/STIM_008.jpg	100
1029.767	2.687	2687.4	navigation	Trial2	navigation/STIM_008.jpg	100
1035.251	2.032	2032.1	navigation	Trial2	navigation/STIM_008.jpg	100
1040.15	1.486	1486.1	navigation	Trial2	navigation/STIM_008.jpg	100
1044.387	3.011	3011.4	navigation	Trial2	navigation/STIM_008.jpg	100
1050.565	3.631	3630.7	navigation	Trial2	navigation/STIM_009.jpg	100
1057.929	3.3	3300.1	navigation	Trial2	navigation/STIM_009.jpg	100
1063.383	2.048	2047.9	navigation	Trial2	navigation/STIM_009.jpg	99
1067.883	1.532	1531.8	navigation	Trial2	navigation/STIM_009.jpg	100
1073.132	1.521	1520.7	navigation	Trial2	navigation/STIM_009.jpg	100
1077.41	2.733	2733.4	navigation	Trial2	navigation/STIM_009.jpg	99
1082.598	3.792	3792.1	navigation	Trial2	navigation/STIM_010.jpg	99
1088.907	3.952	3951.6	navigation	Trial2	navigation/STIM_010.jpg	99
1095.566	3.522	3521.7	navigation	Trial2	navigation/STIM_010.jpg	99
1102.371	2.28	2280.1	navigation	Trial2	navigation/STIM_010.jpg	99
1107.42	2.067	2067.3	navigation	Trial2	navigation/STIM_010.jpg	100
1112.429	1.465	1465.1	navigation	Trial2	navigation/STIM_010.jpg	100
1116.774	4.16	4159.8	navigation	Trial2	navigation/STIM_011.jpg	100
1124.7	2.587	2587.3	navigation	Trial2	navigation/STIM_011.jpg	100
1131.075	3.507	3507.1	navigation	Trial2	navigation/STIM_011.jpg	100
1136.962	3.232	3231.8	navigation	Trial2	navigation/STIM_011.jpg	100
1143.131	3.078	3078.2	navigation	Trial2	navigation/STIM_011.jpg	99
1148.548	3.435	3434.8	navigation	Trial2	navigation/STIM_011.jpg	99
1154.94	0.866	865.7	pointing	Trial2	pointing/STIM_000.jpg	99
1158.553	1.265	1264.6	pointing	Trial2	pointing/STIM_000.jpg	99
1163.772	0.97	970.5	pointing	Trial2	pointing/STIM_000.jpg	100
1168.224	1.29	1290.3	pointing	Trial2	pointing/STIM_000.jpg	100
1171.738	1.248	1248.1	pointing	Trial2	pointing/STIM_000.jpg	100
1175.627	1.184	1184.2	pointing	Trial2	pointing/STIM_000.jpg	99
1179.834	1.115	1115.2	pointing	Trial2	pointing/STIM_001.jpg	100
1184.659	1.229	1228.6	pointing	Trial2	pointing/STIM_001.jpg	99
1188.222	1.269	1268.7	pointing	Trial2	pointing/STIM_001.jpg	99
1193.224	0.91	909.8	pointing	Trial2	pointing/STIM_001.jpg	100
1196.447	1.43	1429.8	pointing	Trial2	pointing/STIM_001.jpg	99
1200.985	0.977	976.7	pointing	Trial2	pointing/STIM_001.jpg	100
1204.678	1.393	1393.0	pointing	Trial2	pointing/STIM_002.jpg	100
1208.477	1.232	1231.7	pointing	Trial2	pointing/STIM_002.jpg	100
1213.444	1.194	1193.6	pointing	Trial2	pointing/STIM_002.jpg	100
1218.442	1.155	1154.9	pointing	Trial2	pointing/STIM_002.jpg	99
1223.384	0.827	826.9	pointing	Trial2	pointing/STIM_002.jpg	99
1227.832	0.843	842.6	pointing	Trial2	pointing/STIM_002.jpg	99
1231.815	0.99	989.6	pointing	Trial2	pointing/STIM_003.jpg	99
1234.838	1.365	1365.3	pointing	Trial2	pointing/STIM_003.jpg	99
1238.481	1.359	1359.2	pointing	Trial2	pointing/STIM_003.jpg	100
1242.459	1.265	1264.9	pointing	Trial2	pointing/STIM_003.jpg	99
1247.455	1.24	1240.4	pointing	Trial2	pointing/STIM_003.jpg	99
1251.687	0.933	933.3	pointing	Trial2	pointing/STIM_003.jpg	100
1255.88	0.962	962.4	pointing	Trial2	pointing/STIM_004.jpg	100
1260.07	1.157	1156.9	pointing	Trial2	pointing/STIM_004.jpg	100
1264.371	1.391	1391.0	pointing	Trial2	pointing/STIM_004.jpg	100
1268.17	0.979	979.0	pointing	Trial2	pointing/STIM_004.jpg	100
1272.45	1.022	1021.9	pointing	Trial2	pointing/STIM_004.jpg	99
1275.963	0.952	951.8	pointing	Trial2	pointing/STIM_004.jpg	100
1279.142	0.944	944.1	pointing	Trial2	pointing/STIM_005.jpg	100
1283.507	1.042	1041.9	pointing	Trial2	pointing/STIM_005.jpg	99
1286.702	1.006	1006.2	pointing	Trial2	pointing/STIM_005.jpg	99
1290.037	1.015	1015.1	pointing	Trial2	pointing/STIM_005.jpg	100
1293.441	0.938	937.6	pointing	Trial2	pointing/STIM_005.jpg	99
1297.425	1.138	1137.6	pointing	Trial2	pointing/STIM_005.jpg	99
1301.452	1.017	1017.2	pointing	Trial2	pointing/STIM_006.jpg	100
1306.026	0.812	811.8	pointing	Trial2	pointing/STIM_006.jpg	100
1310.426	0.889	888.6	pointing	Trial2	pointing/STIM_006.jpg	99
1314.872	1.202	1201.8	pointing	Trial2	pointing/STIM_006.jpg	99
1318.938	1.439	1438.6	pointing	Trial2	pointing/STIM_006.jpg	99
1323.913	1.114	1114.3	pointing	Trial2	pointing/STIM_006.jpg	99
1327.419	0.923	922.7	pointing	Trial2	pointing/STIM_007.jpg	100
1331.423	1.129	1129.2	pointing	Trial2	pointing/STIM_007.jpg	100
1335.25	1.348	1347.5	pointing	Trial2	pointing/STIM_007.jpg	100
1338.617	1.127	1127.4	pointing	Trial2	pointing/STIM_007.jpg	99
1342.439	0.829	828.8	pointing	Trial2	pointing/STIM_007.jpg	99
1345.495	1.126	1125.9	pointing	Trial2	pointing/STIM_007.jpg	100
1350.2	1.261	1261.1	pointing	Trial2	pointing/STIM_008.jpg	99
1354.252	1.256	1256.4	pointing	Trial2	pointing/STIM_008.jpg	100
1358.915	1.241	1241.1	pointing	Trial2	pointing/STIM_008.jpg	99
1362.471	1.399	1398.7	pointing	Trial2	pointing/STIM_008.jpg	100
1366.554	1.383	1383.4	pointing	Trial2	pointing/STIM_008.jpg	99
1370.556	1.231	1230.7	pointing	Trial2	pointing/STIM_008.jpg	99
1374.396	1.164	1163.8	pointing	Trial2	pointing/STIM_009.jpg	100
1378.034	1.032	1032.2	pointing	Trial2	pointing/STIM_009.jpg	99
1381.401	1.113	1113.1	pointing	Trial2	pointing/STIM_009.jpg	100
1386.436	1.345	1344.8	pointing	Trial2	pointing/STIM_009.jpg	100
1391.514	1.17	1170.2	pointing	Trial2	pointing/STIM_009.jpg	100
1396.475	1.141	1141.4	pointing	Trial2	pointing/STIM_009.jpg	100
1400.208	0.965	964.7	pointing	Trial2	pointing/STIM_010.jpg	99
1403.367	1.433	1433.3	pointing	Trial2	pointing/STIM_010.jpg	99
1407.352	0.907	907.1	pointing	Trial2	pointing/STIM_010.jpg	100
1411.136	1.008	1008.3	pointing	Trial2	pointing/STIM_010.jpg	100
1415.443	1.14	1140.0	pointing	Trial2	pointing/STIM_010.jpg	100
1419.944	1.449	1449.4	pointing	Trial2	pointing/STIM_010.jpg	99
1424.516	1.478	1478.1	pointing	Trial2	pointing/STIM_011.jpg	99
1429.188	1.42	1420.4	pointing	Trial2	pointing/STIM_011.jpg	99
1434.151	1.245	1245.0	pointing	Trial2	pointing/STIM_011.jpg	99
1437.647	1.332	1332.2	pointing	Trial2	pointing/STIM_011.jpg	99
1441.435	0.933	932.9	pointing	Trial2	pointing/STIM_011.jpg	99
1445.46	1.047	1047.4	pointing	Trial2	pointing/STIM_011.jpg	100
1449.105	3.147	3147.0	navigation	Trial3	navigation/STIM_000.jpg	100
1455.518	3.07	3070.5	navigation	Trial3	navigation/STIM_000.jpg	99
1461.78	2.232	2231.7	navigation	Trial3	navigation/STIM_000.jpg	100
1467.812	2.235	2234.9	navigation	Trial3	navigation/STIM_000.jpg	99
1473.682	1.88	1880.4	navigation	Trial3	navigation/STIM_000.jpg	99
1479.138	1.757	1757.2	navigation	Trial3	navigation/STIM_000.jpg	99
1483.241	2.443	2443.0	navigation	Trial3	navigation/STIM_001.jpg	100
1489.318	1.889	1888.8	navigation	Trial3	navigation/STIM_001.jpg	99
1494.282	3.164	3164.1	navigation	Trial3	navigation/STIM_001.jpg	100
1500.452	3.385	3385.1	navigation	Trial3	navigation/STIM_001.jpg	100
1505.892	2.864	2863.8	navigation	Trial3	navigation/STIM_001.jpg	99
1512.384	3.255	3255.4	navigation	Trial3	navigation/STIM_001.jpg	99
1518.587	3.412	3412.4	navigation	Trial3	navigation/STIM_002.jpg	99
1524.978	1.941	1941.0	navigation	Trial3	navigation/STIM_002.jpg	100
1530.622	2.242	2241.7	navigation	Trial3	navigation/STIM_002.jpg	99
1534.965	3.259	3259.0	navigation	Trial3	navigation/STIM_002.jpg	100
1540.865	2.618	2617.7	navigation	Trial3	navigation/STIM_002.jpg	100
1546.659	1.814	1814.4	navigation	Trial3	navigation/STIM_002.jpg	99
1550.731	1.939	1938.8	navigation	Trial3	navigation/STIM_003.jpg	100
1556.052	2.639	2638.7	navigation	Trial3	navigation/STIM_003.jpg	99
1561.535	2.341	2340.8	navigation	Trial3	navigation/STIM_003.jpg	100
1567.829	2.14	2139.6	navigation	Trial3	navigation/STIM_003.jpg	99
1572.932	3.427	3427.2	navigation	Trial3	navigation/STIM_003.jpg	99
1578.603	1.672	1671.5	navigation	Trial3	navigation/STIM_003.jpg	99
1583.495	2.374	2373.8	navigation	Trial3	navigation/STIM_004.jpg	99
1589.667	1.506	1505.7	navigation	Trial3	navigation/STIM_004.jpg	100
1593.885	2.394	2393.6	navigation	Trial3	navigation/STIM_004.jpg	100
1598.593	1.898	1897.9	navigation	Trial3	navigation/STIM_004.jpg	99
1602.812	2.625	2624.9	navigation	Trial3	navigation/STIM_004.jpg	100
1608.214	1.589	1588.8	navigation	Trial3	navigation/STIM_004.jpg	100
1613.013	2.126	2126.3	navigation	Trial3	navigation/STIM_005.jpg	100
1618.639	2.168	2168.1	navigation	Trial3	navigation/STIM_005.jpg	100
1623.929	1.462	1462.1	navigation	Trial3	navigation/STIM_005.jpg	100
1628.268	2.658	2657.5	navigation	Trial3	navigation/STIM_005.jpg	99
1633.15	2.013	2013.3	navigation	Trial3	navigation/STIM_005.jpg	100
1638.011	2.194	2193.6	navigation	Trial3	navigation/STIM_005.jpg	99
1644.162	2.542	2542.4	navigation	Trial3	navigation/STIM_006.jpg	100
1649.735	1.538	1538.0	navigation	Trial3	navigation/STIM_006.jpg	100
1654.894	3.016	3015.6	navigation	Trial3	navigation/STIM_006.jpg	100
1661.393	1.682	1682.1	navigation	Trial3	navigation/STIM_006.jpg	100
1666.361	3.335	3334.7	navigation	Trial3	navigation/STIM_006.jpg	99
1673.553	2.118	2117.6	navigation	Trial3	navigation/STIM_006.jpg	100
1678.964	2.326	2326.0	navigation	Trial3	navigation/STIM_007.jpg	100
1684.626	3.16	3160.0	navigation	Trial3	navigation/STIM_007.jpg	100
1691.021	3.044	3043.7	navigation	Trial3	navigation/STIM_007.jpg	99
1696.506	2.729	2729.2	navigation	Trial3	navigation/STIM_007.jpg	99
1702.208	1.597	1597.3	navigation	Trial3	navigation/STIM_007.jpg	99
1706.798	2.995	2995.4	navigation	Trial3	navigation/STIM_007.jpg	99
1713.815	3.079	3078.6	navigation	Trial3	navigation/STIM_008.jpg	100
1718.967	1.462	1461.6	navigation	Trial3	navigation/STIM_008.jpg	100
1724.043	2.967	2966.6	navigation	Trial3	navigation/STIM_008.jpg	99
1731.025	3.367	3367.3	navigation	Trial3	navigation/STIM_008.jpg	100
1736.97	3.17	3170.5	navigation	Trial3	navigation/STIM_008.jpg	100
1743.775	2.172	2171.5	navigation	Trial3	navigation/STIM_008.jpg	100
1748.704	1.835	1835.3	navigation	Trial3	navigation/STIM_009.jpg	100
1754.164	2.137	2136.6	navigation	Trial3	navigation/STIM_009.jpg	100
1759.666	2.371	2370.9	navigation	Trial3	navigation/STIM_009.jpg	100
1764.971	2.265	2265.0	navigation	Trial3	navigation/STIM_009.jpg	100
1769.725	2.95	2949.6	navigation	Trial3	navigation/STIM_009.jpg	100
1776.179	2.802	2802.1	navigation	Trial3	navigation/STIM_009.jpg	99
1781.549	1.902	1901.5	navigation	Trial3	navigation/STIM_010.jpg	100
1785.579	1.733	1733.0	navigation	Trial3	navigation/STIM_010.jpg	100
1790.017	1.424	1424.0	navigation	Trial3	navigation/STIM_010.jpg	99
1793.735	2.033	2033.2	navigation	Trial3	navigation/STIM_010.jpg	99
1798.848	2.625	2624.8	navigation	Trial3	navigation/STIM_010.jpg	99
1805.26	3.041	3041.1	navigation	Trial3	navigation/STIM_010.jpg	99
1810.773	2.972	2972.1	navigation	Trial3	navigation/STIM_011.jpg	99
1817.282	2.439	2438.8	navigation	Trial3	navigation/STIM_011.jpg	100
1823.176	2.614	2614.4	navigation	Trial3	navigation/STIM_011.jpg	99
1827.885	3.074	3074.4	navigation	Trial3	navigation/STIM_011.jpg	99
1833.43	2.804	2804.3	navigation	Trial3	navigation/STIM_011.jpg	99
1838.838	1.6	1599.9	navigation	Trial3	navigation/STIM_011.jpg	100
1843.301	1.028	1027.8	pointing	Trial3	pointing/STIM_000.jpg	100
1847.396	1.434	1434.5	pointing	Trial3	pointing/STIM_000.jpg	100
1852.611	0.951	950.7	pointing	Trial3	pointing/STIM_000.jpg	99
1856.092	0.89	890.0	pointing	Trial3	pointing/STIM_000.jpg	100
1859.303	0.956	955.9	pointing	Trial3	pointing/STIM_000.jpg	100
1863.33	0.875	874.6	pointing	Trial3	pointing/STIM_000.jpg	99
1866.322	1.176	1176.3	pointing	Trial3	pointing/STIM_001.jpg	100
1870.004	1.051	1050.9	pointing	Trial3	pointing/STIM_001.jpg	100
1874.469	1.237	1236.7	pointing	Trial3	pointing/STIM_001.jpg	100
1877.825	1.126	1126.4	pointing	Trial3	pointing/STIM_001.jpg	100
1881.711	1.308	1307.9	pointing	Trial3	pointing/STIM_001.jpg	100
1885.864	0.804	804.0	pointing	Trial3	pointing/STIM_001.jpg	100
1890.492	1.182	1181.9	pointing	Trial3	pointing/STIM_002.jpg	100
1895.642	0.809	808.7	pointing	Trial3	pointing/STIM_002.jpg	100
1898.655	1.072	1072.0	pointing	Trial3	pointing/STIM_002.jpg	100
1903.189	0.955	955.2	pointing	Trial3	pointing/STIM_002.jpg	100
1907.166	0.799	798.7	pointing	Trial3	pointing/STIM_002.jpg	99
1910.029	1.329	1329.3	pointing	Trial3	pointing/STIM_002.jpg	99
1914.751	1.165	1164.8	pointing	Trial3	pointing/STIM_003.jpg	100
1919.674	0.884	884.1	pointing	Trial3	pointing/STIM_003.jpg	99
1924.212	0.82	820.1	pointing	Trial3	pointing/STIM_003.jpg	100
1927.567	1.255	1255.1	pointing	Trial3	pointing/STIM_003.jpg	100
1931.287	0.978	977.7	pointing	Trial3	pointing/STIM_003.jpg	100
1935.112	1.441	1441.4	pointing	Trial3	pointing/STIM_003.jpg	100
1939.307	1.347	1346.7	pointing	Trial3	pointing/STIM_004.jpg	100
1943.909	0.979	978.9	pointing	Trial3	pointing/STIM_004.jpg	100
1947.444	1.263	1263.3	pointing	Trial3	pointing/STIM_004.jpg	100
1951.008	1.388	1388.3	pointing	Trial3	pointing/STIM_004.jpg	100
1954.622	1.256	1256.1	pointing	Trial3	pointing/STIM_004.jpg	99
1959.068	1.309	1309.3	pointing	Trial3	pointing/STIM_004.jpg	100
1963.451	1.373	1372.8	pointing	Trial3	pointing/STIM_005.jpg	99
1968.031	0.962	962.3	pointing	Trial3	pointing/STIM_005.jpg	100
1971.999	1.229	1229.4	pointing	Trial3	pointing/STIM_005.jpg	99
1975.355	1.402	1402.1	pointing	Trial3	pointing/STIM_005.jpg	99
1979.759	0.883	882.9	pointing	Trial3	pointing/STIM_005.jpg	99
1983.744	0.812	812.1	pointing	Trial3	pointing/STIM_005.jpg	99
1986.984	1.466	1465.5	pointing	Trial3	pointing/STIM_006.jpg	99
1992.377	1.348	1348.2	pointing	Trial3	pointing/STIM_006.jpg	100
1996.882	1.396	1396.3	pointing	Trial3	pointing/STIM_006.jpg	100
2001.105	1.354	1354.4	pointing	Trial3	pointing/STIM_006.jpg	100
2005.798	1.314	1314.5	pointing	Trial3	pointing/STIM_006.jpg	99
2009.412	1.251	1251.4	pointing	Trial3	pointing/STIM_006.jpg	99
2013.25	0.866	865.5	pointing	Trial3	pointing/STIM_007.jpg	100
2017.364	1.351	1350.9	pointing	Trial3	pointing/STIM_007.jpg	99
2022.161	1.298	1298.0	pointing	Trial3	pointing/STIM_007.jpg	99
2025.976	1.004	1003.6	pointing	Trial3	pointing/STIM_007.jpg	99
2030.33	0.901	900.7	pointing	Trial3	pointing/STIM_007.jpg	99
2033.563	1.465	1465.0	pointing	Trial3	pointing/STIM_007.jpg	100
2037.767	0.838	838.3	pointing	Trial3	pointing/STIM_008.jpg	99
2042.234	0.898	897.5	pointing	Trial3	pointing/STIM_008.jpg	99
2047.062	0.871	870.6	pointing	Trial3	pointing/STIM_008.jpg	99
2050.799	1.397	1396.8	pointing	Trial3	pointing/STIM_008.jpg	100
2054.713	0.935	935.1	pointing	Trial3	pointing/STIM_008.jpg	100
2057.829	1.485	1485.3	pointing	Trial3	pointing/STIM_008.jpg	100
2063.045	0.82	820.3	pointing	Trial3	pointing/STIM_009.jpg	100
2067.411	1.372	1371.6	pointing	Trial3	pointing/STIM_009.jpg	99
2072.231	0.969	969.4	pointing	Trial3	pointing/STIM_009.jpg	100
2076.724	1.188	1187.7	pointing	Trial3	pointing/STIM_009.jpg	100
2080.805	0.953	953.3	pointing	Trial3	pointing/STIM_009.jpg	99
2085.427	1.114	1114.4	pointing	Trial3	pointing/STIM_009.jpg	99
2089.017	1.224	1223.5	pointing	Trial3	pointing/STIM_010.jpg	100
2092.983	1.113	1112.9	pointing	Trial3	pointing/STIM_010.jpg	99
2096.833	0.908	908.4	pointing	Trial3	pointing/STIM_010.jpg	99
2099.782	1.319	1319.3	pointing	Trial3	pointing/STIM_010.jpg	99
2104.639	1.482	1482.2	pointing	Trial3	pointing/STIM_010.jpg	99
2109.489	1.258	1257.5	pointing	Trial3	pointing/STIM_010.jpg	99
2113.248	0.795	795.3	pointing	Trial3	pointing/STIM_011.jpg	99
2117.476	1.159	1158.7	pointing	Trial3	pointing/STIM_011.jpg	99
2122.328	1.464	1463.5	pointing	Trial3	pointing/STIM_011.jpg	99
2125.905	1.256	1256.4	pointing	Trial3	pointing/STIM_011.jpg	100
2130.902	0.946	945.5	pointing	Trial3	pointing/STIM_011.jpg	99
2135.706	1.389	1389.1	pointing	Trial3	pointing/STIM_011.jpg	100
