onset	duration	accuracy_binary	trial_type	learning_stage	stimulus
157.738	1.137	1	learning	LS1	learning/PICTURE_72.jpg
162.32	1.047	0	learning	LS1	learning/PICTURE_74.jpg
166.903	1.069	1	learning	LS1	learning/PICTURE_67.jpg
171.469	0.995	0	learning	LS1	learning/PICTURE_68.jpg
176.035	1.178	1	learning	LS1	learning/PICTURE_74.jpg
180.601	1.056	1	learning	LS1	learning/PICTURE_67.jpg
185.167	0.903	1	learning	LS1	learning/PICTURE_71.jpg
189.75	0.829	1	learning	LS1	learning/PICTURE_68.jpg
194.316	1.139	1	learning	LS1	learning/PICTURE_71.jpg
198.899	1.034	1	learning	LS1	learning/PICTURE_72.jpg
208.048	1.558	0	learning	LS2	learning/PICTURE_74.jpg
212.664	1.003	0	learning	LS2	learning/PICTURE_67.jpg
217.28	1.039	1	learning	LS2	learning/PICTURE_71.jpg
221.896	0.788	1	learning	LS2	learning/PICTURE_68.jpg
226.495	0.777	1	learning	LS2	learning/PICTURE_67.jpg
231.095	0.862	1	learning	LS2	learning/PICTURE_72.jpg
235.678	0.676	1	learning	LS2	learning/PICTURE_68.jpg
240.26	0.858	1	learning	LS2	learning/PICTURE_71.jpg
244.843	0.624	1	learning	LS2	learning/PICTURE_72.jpg
249.426	1.013	0	learning	LS2	learning/PICTURE_74.jpg
258.524	0.804	1	learning	LS3	learning/PICTURE_72.jpg
263.107	0.794	1	learning	LS3	learning/PICTURE_67.jpg
267.673	0.88	1	learning	LS3	learning/PICTURE_71.jpg
272.239	1.238	1	learning	LS3	learning/PICTURE_67.jpg
276.822	0.797	1	learning	LS3	learning/PICTURE_68.jpg
281.405	0.898	1	learning	LS3	learning/PICTURE_74.jpg
285.971	0.777	1	learning	LS3	learning/PICTURE_68.jpg
290.537	0.752	1	learning	LS3	learning/PICTURE_71.jpg
295.103	0.758	1	learning	LS3	learning/PICTURE_72.jpg
299.669	0.861	1	learning	LS3	learning/PICTURE_74.jpg
308.768	1.227	1	learning	LS4	learning/PICTURE_67.jpg
313.334	0.881	1	learning	LS4	learning/PICTURE_74.jpg
317.95	0.742	1	learning	LS4	learning/PICTURE_72.jpg
322.566	0.795	1	learning	LS4	learning/PICTURE_68.jpg
327.182	0.879	1	learning	LS4	learning/PICTURE_74.jpg
331.798	0.82	1	learning	LS4	learning/PICTURE_68.jpg
336.414	0.872	1	learning	LS4	learning/PICTURE_71.jpg
341.014	0.83	1	learning	LS4	learning/PICTURE_72.jpg
345.613	0.739	1	learning	LS4	learning/PICTURE_67.jpg
350.196	0.649	1	learning	LS4	learning/PICTURE_71.jpg
377.376	0.858	1	learning	LS1	learning/PICTURE_203.jpg
381.958	0.496	0	learning	LS1	learning/PICTURE_414.jpg
386.541	0.966	0	learning	LS1	learning/PICTURE_566.jpg
391.124	0.684	1	learning	LS1	learning/PICTURE_414.jpg
395.69	1.123	1	learning	LS1	learning/PICTURE_203.jpg
400.273	0.793	1	learning	LS1	learning/PICTURE_224.jpg
404.855	1.262	1	learning	LS1	learning/PICTURE_42.jpg
409.421	0.869	1	learning	LS1	learning/PICTURE_224.jpg
413.988	0.828	1	learning	LS1	learning/PICTURE_42.jpg
418.554	1.122	1	learning	LS1	learning/PICTURE_566.jpg
427.669	0.896	1	learning	LS2	learning/PICTURE_42.jpg
432.285	1.044	1	learning	LS2	learning/PICTURE_566.jpg
436.901	1.56	1	learning	LS2	learning/PICTURE_414.jpg
441.517	0.718	1	learning	LS2	learning/PICTURE_566.jpg
446.133	0.754	1	learning	LS2	learning/PICTURE_203.jpg
450.733	0.903	1	learning	LS2	learning/PICTURE_224.jpg
455.332	1.021	1	learning	LS2	learning/PICTURE_203.jpg
459.932	0.738	1	learning	LS2	learning/PICTURE_42.jpg
464.514	0.872	1	learning	LS2	learning/PICTURE_224.jpg
469.097	0.862	1	learning	LS2	learning/PICTURE_414.jpg
478.196	0.733	1	learning	LS3	learning/PICTURE_224.jpg
482.779	0.754	1	learning	LS3	learning/PICTURE_414.jpg
487.361	0.808	1	learning	LS3	learning/PICTURE_203.jpg
491.944	0.846	1	learning	LS3	learning/PICTURE_566.jpg
496.51	0.789	1	learning	LS3	learning/PICTURE_203.jpg
501.093	0.763	1	learning	LS3	learning/PICTURE_566.jpg
505.659	0.817	1	learning	LS3	learning/PICTURE_224.jpg
510.225	0.696	1	learning	LS3	learning/PICTURE_42.jpg
514.808	0.75	1	learning	LS3	learning/PICTURE_414.jpg
519.374	0.884	1	learning	LS3	learning/PICTURE_42.jpg
528.473	0.867	1	learning	LS4	learning/PICTURE_203.jpg
533.039	0.953	1	learning	LS4	learning/PICTURE_566.jpg
537.605	0.96	1	learning	LS4	learning/PICTURE_42.jpg
542.221	0.852	1	learning	LS4	learning/PICTURE_414.jpg
546.837	0.713	1	learning	LS4	learning/PICTURE_224.jpg
551.453	0.797	1	learning	LS4	learning/PICTURE_414.jpg
556.069	0.61	1	learning	LS4	learning/PICTURE_42.jpg
560.685	0.775	1	learning	LS4	learning/PICTURE_566.jpg
565.284	0.716	1	learning	LS4	learning/PICTURE_224.jpg
569.884	0.705	1	learning	LS4	learning/PICTURE_203.jpg
597.064	0.945	1	learning	LS1	learning/PICTURE_148.jpg
601.646	1.063	0	learning	LS1	learning/PICTURE_202.jpg
606.229	0.909	0	learning	LS1	learning/PICTURE_165.jpg
610.795	0.916	1	learning	LS1	learning/PICTURE_148.jpg
615.378	0.906	1	learning	LS1	learning/PICTURE_453.jpg
619.944	1.008	1	learning	LS1	learning/PICTURE_202.jpg
624.527	1.094	0	learning	LS1	learning/PICTURE_358.jpg
629.093	0.909	1	learning	LS1	learning/PICTURE_453.jpg
633.659	1.075	1	learning	LS1	learning/PICTURE_358.jpg
638.225	0.954	1	learning	LS1	learning/PICTURE_165.jpg
647.307	1.401	1	learning	LS2	learning/PICTURE_202.jpg
651.89	0.815	1	learning	LS2	learning/PICTURE_453.jpg
656.506	0.932	1	learning	LS2	learning/PICTURE_358.jpg
661.122	1.064	1	learning	LS2	learning/PICTURE_165.jpg
665.738	1.309	1	learning	LS2	learning/PICTURE_358.jpg
670.354	0.961	1	learning	LS2	learning/PICTURE_202.jpg
674.953	1.03	0	learning	LS2	learning/PICTURE_148.jpg
679.553	0.956	1	learning	LS2	learning/PICTURE_165.jpg
684.152	0.785	1	learning	LS2	learning/PICTURE_148.jpg
688.735	0.967	1	learning	LS2	learning/PICTURE_453.jpg
697.834	0.917	1	learning	LS3	learning/PICTURE_148.jpg
702.417	0.907	1	learning	LS3	learning/PICTURE_165.jpg
706.999	1.105	1	learning	LS3	learning/PICTURE_358.jpg
711.582	1.111	1	learning	LS3	learning/PICTURE_202.jpg
716.148	0.782	1	learning	LS3	learning/PICTURE_165.jpg
720.714	0.661	1	learning	LS3	learning/PICTURE_453.jpg
725.297	0.922	1	learning	LS3	learning/PICTURE_358.jpg
729.863	0.705	1	learning	LS3	learning/PICTURE_202.jpg
734.429	0.888	1	learning	LS3	learning/PICTURE_453.jpg
738.995	1.774	0	learning	LS3	learning/PICTURE_148.jpg
748.077	0.766	1	learning	LS4	learning/PICTURE_148.jpg
752.643	0.884	1	learning	LS4	learning/PICTURE_358.jpg
757.209	0.779	1	learning	LS4	learning/PICTURE_165.jpg
761.775	0.946	1	learning	LS4	learning/PICTURE_453.jpg
766.392	0.95	1	learning	LS4	learning/PICTURE_358.jpg
771.008	0.747	1	learning	LS4	learning/PICTURE_202.jpg
775.624	0.799	1	learning	LS4	learning/PICTURE_165.jpg
780.24	1.315	1	learning	LS4	learning/PICTURE_453.jpg
784.856	0.856	1	learning	LS4	learning/PICTURE_202.jpg
789.455	1.102	1	learning	LS4	learning/PICTURE_148.jpg
816.652	0.75	1	learning	LS1	learning/PICTURE_640.jpg
821.234	1.012	0	learning	LS1	learning/PICTURE_592.jpg
825.817	1.897	1	learning	LS1	learning/PICTURE_379.jpg
830.4	1.071	0	learning	LS1	learning/PICTURE_465.jpg
834.983	0.886	0	learning	LS1	learning/PICTURE_692.jpg
839.549	1.596	1	learning	LS1	learning/PICTURE_640.jpg
844.115	0.899	1	learning	LS1	learning/PICTURE_465.jpg
848.681	0.937	0	learning	LS1	learning/PICTURE_379.jpg
853.247	0.832	1	learning	LS1	learning/PICTURE_592.jpg
857.813	0.919	0	learning	LS1	learning/PICTURE_692.jpg
866.912	0.901	1	learning	LS2	learning/PICTURE_465.jpg
871.478	1.515	1	learning	LS2	learning/PICTURE_692.jpg
876.044	0.818	1	learning	LS2	learning/PICTURE_379.jpg
880.66	0.711	1	learning	LS2	learning/PICTURE_592.jpg
885.276	0.827	1	learning	LS2	learning/PICTURE_640.jpg
889.892	0.944	1	learning	LS2	learning/PICTURE_692.jpg
894.508	1.268	0	learning	LS2	learning/PICTURE_465.jpg
899.124	1.129	1	learning	LS2	learning/PICTURE_640.jpg
903.724	0.798	1	learning	LS2	learning/PICTURE_592.jpg
908.323	0.803	1	learning	LS2	learning/PICTURE_379.jpg
917.422	0.738	1	learning	LS3	learning/PICTURE_592.jpg
922.005	0.984	1	learning	LS3	learning/PICTURE_640.jpg
926.587	1.166	1	learning	LS3	learning/PICTURE_592.jpg
931.17	0.756	1	learning	LS3	learning/PICTURE_379.jpg
935.753	0.794	1	learning	LS3	learning/PICTURE_465.jpg
940.336	0.72	1	learning	LS3	learning/PICTURE_692.jpg
944.902	0.982	1	learning	LS3	learning/PICTURE_465.jpg
949.468	1.069	1	learning	LS3	learning/PICTURE_379.jpg
954.034	2.706	n/a	learning	LS3	learning/PICTURE_640.jpg
958.6	0.922	1	learning	LS3	learning/PICTURE_692.jpg
967.682	0.761	1	learning	LS4	learning/PICTURE_692.jpg
972.248	1.104	1	learning	LS4	learning/PICTURE_379.jpg
976.814	0.87	1	learning	LS4	learning/PICTURE_640.jpg
981.38	0.749	1	learning	LS4	learning/PICTURE_692.jpg
985.963	0.835	1	learning	LS4	learning/PICTURE_640.jpg
990.579	0.968	1	learning	LS4	learning/PICTURE_465.jpg
995.195	0.732	1	learning	LS4	learning/PICTURE_592.jpg
999.811	1.488	1	learning	LS4	learning/PICTURE_379.jpg
1004.427	0.773	1	learning	LS4	learning/PICTURE_592.jpg
1009.043	0.858	1	learning	LS4	learning/PICTURE_465.jpg
1036.256	0.697	1	control	LS1	control/PICTURE_263.jpg
1040.839	0.767	1	control	LS1	control/PICTURE_491.jpg
1045.422	0.917	1	control	LS1	control/PICTURE_540.jpg
1050.005	0.923	1	control	LS1	control/PICTURE_116.jpg
1054.587	0.977	1	control	LS1	control/PICTURE_135.jpg
1059.153	0.903	1	control	LS1	control/PICTURE_116.jpg
1063.719	0.798	1	control	LS1	control/PICTURE_540.jpg
1068.302	0.948	1	control	LS1	control/PICTURE_491.jpg
1072.868	1.146	1	control	LS1	control/PICTURE_263.jpg
1077.434	0.817	1	control	LS1	control/PICTURE_135.jpg
1086.516	1.008	1	control	LS2	control/PICTURE_491.jpg
1091.099	0.935	1	control	LS2	control/PICTURE_540.jpg
1095.665	0.845	1	control	LS2	control/PICTURE_263.jpg
1100.231	0.772	1	control	LS2	control/PICTURE_135.jpg
1104.847	0.776	1	control	LS2	control/PICTURE_116.jpg
1109.464	0.797	1	control	LS2	control/PICTURE_263.jpg
1114.08	0.785	1	control	LS2	control/PICTURE_116.jpg
1118.696	1.078	1	control	LS2	control/PICTURE_491.jpg
1123.312	0.747	1	control	LS2	control/PICTURE_540.jpg
1127.911	0.976	1	control	LS2	control/PICTURE_135.jpg
1137.027	0.846	1	control	LS3	control/PICTURE_119.jpg
1141.609	0.867	1	control	LS3	control/PICTURE_621.jpg
1146.192	0.808	1	control	LS3	control/PICTURE_119.jpg
1150.775	0.783	1	control	LS3	control/PICTURE_111.jpg
1155.358	0.901	1	control	LS3	control/PICTURE_621.jpg
1159.94	0.987	1	control	LS3	control/PICTURE_234.jpg
1164.523	0.977	1	control	LS3	control/PICTURE_151.jpg
1169.089	0.776	1	control	LS3	control/PICTURE_111.jpg
1173.655	0.862	1	control	LS3	control/PICTURE_151.jpg
1178.238	1.556	1	control	LS3	control/PICTURE_234.jpg
1187.32	0.883	1	control	LS4	control/PICTURE_621.jpg
1191.903	0.793	0	control	LS4	control/PICTURE_151.jpg
1196.469	0.816	1	control	LS4	control/PICTURE_119.jpg
1201.035	0.743	1	control	LS4	control/PICTURE_151.jpg
1205.618	0.813	1	control	LS4	control/PICTURE_621.jpg
1210.184	0.995	1	control	LS4	control/PICTURE_111.jpg
1214.766	0.793	1	control	LS4	control/PICTURE_119.jpg
1219.382	1.485	1	control	LS4	control/PICTURE_234.jpg
1223.999	0.818	1	control	LS4	control/PICTURE_111.jpg
1228.615	0.903	1	control	LS4	control/PICTURE_234.jpg
1255.861	0.853	0	learning	LS1	learning/PICTURE_100.jpg
1260.444	0.843	0	learning	LS1	learning/PICTURE_267.jpg
1265.027	0.849	1	learning	LS1	learning/PICTURE_32.jpg
1269.609	0.871	0	learning	LS1	learning/PICTURE_77.jpg
1274.192	0.893	1	learning	LS1	learning/PICTURE_97.jpg
1278.758	1.139	1	learning	LS1	learning/PICTURE_77.jpg
1283.324	1.114	1	learning	LS1	learning/PICTURE_267.jpg
1287.89	0.752	1	learning	LS1	learning/PICTURE_97.jpg
1292.456	1.207	1	learning	LS1	learning/PICTURE_100.jpg
1297.022	1.597	1	learning	LS1	learning/PICTURE_32.jpg
1306.104	0.941	1	learning	LS2	learning/PICTURE_267.jpg
1310.671	0.996	1	learning	LS2	learning/PICTURE_77.jpg
1315.237	1.018	1	learning	LS2	learning/PICTURE_267.jpg
1319.803	1.121	1	learning	LS2	learning/PICTURE_97.jpg
1324.369	1.335	1	learning	LS2	learning/PICTURE_100.jpg
1328.985	0.956	1	learning	LS2	learning/PICTURE_32.jpg
1333.601	1.008	1	learning	LS2	learning/PICTURE_100.jpg
1338.217	1.637	1	learning	LS2	learning/PICTURE_97.jpg
1342.833	0.762	1	learning	LS2	learning/PICTURE_32.jpg
1347.449	0.942	1	learning	LS2	learning/PICTURE_77.jpg
1356.565	1.052	1	learning	LS3	learning/PICTURE_267.jpg
1361.164	1.009	1	learning	LS3	learning/PICTURE_100.jpg
1365.747	2.086	1	learning	LS3	learning/PICTURE_77.jpg
1370.33	0.829	1	learning	LS3	learning/PICTURE_100.jpg
1374.912	0.819	1	learning	LS3	learning/PICTURE_267.jpg
1379.495	0.889	1	learning	LS3	learning/PICTURE_77.jpg
1384.078	0.783	1	learning	LS3	learning/PICTURE_32.jpg
1388.66	1.205	1	learning	LS3	learning/PICTURE_97.jpg
1393.243	0.891	1	learning	LS3	learning/PICTURE_32.jpg
1397.826	1.584	1	learning	LS3	learning/PICTURE_97.jpg
1406.908	1.071	1	learning	LS4	learning/PICTURE_97.jpg
1411.474	0.823	1	learning	LS4	learning/PICTURE_267.jpg
1416.057	1.164	1	learning	LS4	learning/PICTURE_100.jpg
1420.623	2.194	1	learning	LS4	learning/PICTURE_32.jpg
1425.189	0.777	1	learning	LS4	learning/PICTURE_100.jpg
1429.755	0.848	1	learning	LS4	learning/PICTURE_32.jpg
1434.338	0.774	1	learning	LS4	learning/PICTURE_77.jpg
1438.92	0.796	1	learning	LS4	learning/PICTURE_97.jpg
1443.553	0.976	1	learning	LS4	learning/PICTURE_77.jpg
1448.169	0.869	1	learning	LS4	learning/PICTURE_267.jpg
1475.449	0.993	1	control	LS1	control/PICTURE_338.jpg
1480.032	0.999	1	control	LS1	control/PICTURE_255.jpg
1484.615	0.845	1	control	LS1	control/PICTURE_398.jpg
1489.197	0.963	1	control	LS1	control/PICTURE_391.jpg
1493.78	0.888	1	control	LS1	control/PICTURE_368.jpg
1498.363	1.774	1	control	LS1	control/PICTURE_255.jpg
1502.929	0.741	1	control	LS1	control/PICTURE_391.jpg
1507.512	0.763	1	control	LS1	control/PICTURE_338.jpg
1512.078	0.961	1	control	LS1	control/PICTURE_398.jpg
1516.644	1.016	1	control	LS1	control/PICTURE_368.jpg
1525.726	0.919	1	control	LS2	control/PICTURE_391.jpg
1530.292	0.878	1	control	LS2	control/PICTURE_368.jpg
1534.857	0.805	1	control	LS2	control/PICTURE_391.jpg
1539.424	0.715	1	control	LS2	control/PICTURE_338.jpg
1543.99	0.946	1	control	LS2	control/PICTURE_255.jpg
1548.556	0.824	1	control	LS2	control/PICTURE_398.jpg
1553.189	0.988	1	control	LS2	control/PICTURE_368.jpg
1557.805	n/a	n/a	control	LS2	control/PICTURE_338.jpg
1562.421	0.678	1	control	LS2	control/PICTURE_255.jpg
1567.037	0.666	1	control	LS2	control/PICTURE_398.jpg
1576.186	0.711	1	control	LS3	control/PICTURE_185.jpg
1580.785	0.748	1	control	LS3	control/PICTURE_551.jpg
1585.368	0.738	1	control	LS3	control/PICTURE_708.jpg
1589.951	0.808	1	control	LS3	control/PICTURE_551.jpg
1594.534	0.99	1	control	LS3	control/PICTURE_19.jpg
1599.116	0.852	1	control	LS3	control/PICTURE_185.jpg
1603.699	0.778	n/a	control	LS3	control/PICTURE_343.jpg
1608.282	0.688	1	control	LS3	control/PICTURE_19.jpg
1612.864	0.966	1	control	LS3	control/PICTURE_708.jpg
1617.447	0.795	1	control	LS3	control/PICTURE_343.jpg
1626.529	0.874	1	control	LS4	control/PICTURE_343.jpg
1631.112	0.736	1	control	LS4	control/PICTURE_551.jpg
1635.678	0.663	1	control	LS4	control/PICTURE_19.jpg
1640.261	0.685	1	control	LS4	control/PICTURE_551.jpg
1644.827	0.979	1	control	LS4	control/PICTURE_185.jpg
1649.393	0.906	1	control	LS4	control/PICTURE_19.jpg
1653.959	0.977	1	control	LS4	control/PICTURE_185.jpg
1658.542	0.951	1	control	LS4	control/PICTURE_708.jpg
1663.108	1.053	1	control	LS4	control/PICTURE_343.jpg
1667.724	0.722	1	control	LS4	control/PICTURE_708.jpg
1676.873	1.726	1	learning	LS1	learning/PICTURE_26.jpg
1681.489	0.931	1	learning	LS1	learning/PICTURE_212.jpg
1686.105	0.952	1	learning	LS1	learning/PICTURE_38.jpg
1690.704	0.765	0	learning	LS1	learning/PICTURE_659.jpg
1695.304	0.579	1	learning	LS1	learning/PICTURE_654.jpg
1699.887	0.936	1	learning	LS1	learning/PICTURE_212.jpg
1704.469	0.974	1	learning	LS1	learning/PICTURE_659.jpg
1709.052	0.9	1	learning	LS1	learning/PICTURE_654.jpg
1713.635	0.874	1	learning	LS1	learning/PICTURE_26.jpg
1718.217	0.976	1	learning	LS1	learning/PICTURE_38.jpg
1727.316	0.894	1	learning	LS2	learning/PICTURE_654.jpg
1731.882	0.756	1	learning	LS2	learning/PICTURE_212.jpg
1736.448	1.323	1	learning	LS2	learning/PICTURE_659.jpg
1741.031	1.074	1	learning	LS2	learning/PICTURE_654.jpg
1745.614	0.792	1	learning	LS2	learning/PICTURE_38.jpg
1750.18	1.038	0	learning	LS2	learning/PICTURE_659.jpg
1754.746	0.917	1	learning	LS2	learning/PICTURE_212.jpg
1759.312	1.051	1	learning	LS2	learning/PICTURE_26.jpg
1763.878	0.914	1	learning	LS2	learning/PICTURE_38.jpg
1768.444	1.033	1	learning	LS2	learning/PICTURE_26.jpg
1777.543	1.239	1	learning	LS3	learning/PICTURE_654.jpg
1782.159	0.94	1	learning	LS3	learning/PICTURE_659.jpg
1786.775	0.768	1	learning	LS3	learning/PICTURE_38.jpg
1791.391	0.965	1	learning	LS3	learning/PICTURE_26.jpg
1796.007	1.289	1	learning	LS3	learning/PICTURE_659.jpg
1800.607	0.863	1	learning	LS3	learning/PICTURE_212.jpg
1805.206	0.676	1	learning	LS3	learning/PICTURE_654.jpg
1809.805	1.289	1	learning	LS3	learning/PICTURE_212.jpg
1814.388	0.799	1	learning	LS3	learning/PICTURE_26.jpg
1818.971	1.588	1	learning	LS3	learning/PICTURE_38.jpg
1828.07	1.059	0	learning	LS4	learning/PICTURE_212.jpg
1832.652	0.889	1	learning	LS4	learning/PICTURE_659.jpg
1837.235	0.799	1	learning	LS4	learning/PICTURE_38.jpg
1841.818	0.981	1	learning	LS4	learning/PICTURE_212.jpg
1846.401	1.051	1	learning	LS4	learning/PICTURE_654.jpg
1850.967	0.898	1	learning	LS4	learning/PICTURE_659.jpg
1855.533	0.904	1	learning	LS4	learning/PICTURE_26.jpg
1860.099	1.327	1	learning	LS4	learning/PICTURE_38.jpg
1864.665	0.726	1	learning	LS4	learning/PICTURE_654.jpg
1869.248	1.387	1	learning	LS4	learning/PICTURE_26.jpg
