onset	duration	accuracy	trial_type	learning_stage	stimulus
0.0	2.107	correct	generate	Run1	generate/STIM_000.jpg
4.317	1.823	incorrect	generate	Run1	generate/STIM_000.jpg
8.3	1.446	correct	generate	Run1	generate/STIM_000.jpg
12.262	1.392	correct	generate	Run1	generate/STIM_000.jpg
17.035	1.087	incorrect	generate	Run1	generate/STIM_000.jpg
20.309	1.228	incorrect	generate	Run1	generate/STIM_001.jpg
24.784	2.121	correct	generate	Run1	generate/STIM_001.jpg
29.034	2.394	correct	generate	Run1	generate/STIM_001.jpg
34.509	1.535	correct	generate	Run1	generate/STIM_001.jpg
38.121	1.837	correct	generate	Run1	generate/STIM_001.jpg
42.262	1.446	correct	generate	Run1	generate/STIM_002.jpg
46.065	1.856	correct	generate	Run1	generate/STIM_002.jpg
51.266	2.232	correct	generate	Run1	generate/STIM_002.jpg
56.319	1.336	incorrect	generate	Run1	generate/STIM_002.jpg
61.32	1.444	incorrect	generate	Run1	generate/STIM_002.jpg
66.308	2.082	correct	generate	Run1	generate/STIM_003.jpg
70.632	2.535	correct	generate	Run1	generate/STIM_003.jpg
76.194	1.394	incorrect	generate	Run1	generate/STIM_003.jpg
81.052	1.88	correct	generate	Run1	generate/STIM_003.jpg
86.709	1.254	correct	generate	Run1	generate/STIM_003.jpg
91.791	2.302	correct	generate	Run1	generate/STIM_004.jpg
97.647	1.446	correct	generate	Run1	generate/STIM_004.jpg
101.406	1.546	correct	generate	Run1	generate/STIM_004.jpg
105.695	1.856	correct	generate	Run1	generate/STIM_004.jpg
111.314	0.92	incorrect	generate	Run1	generate/STIM_004.jpg
115.088	2.045	correct	generate	Run1	generate/STIM_005.jpg
121.122	1.649	incorrect	generate	Run1	generate/STIM_005.jpg
126.036	2.435	correct	generate	Run1	generate/STIM_005.jpg
131.319	1.994	correct	generate	Run1	generate/STIM_005.jpg
136.0	0.92	correct	generate	Run1	generate/STIM_005.jpg
139.952	2.527	correct	generate	Run1	generate/STIM_006.jpg
145.852	2.019	correct	generate	Run1	generate/STIM_006.jpg
150.287	1.665	correct	generate	Run1	generate/STIM_006.jpg
155.805	1.862	correct	generate	Run1	generate/STIM_006.jpg
160.698	1.038	correct	generate	Run1	generate/STIM_006.jpg
164.461	1.714	correct	generate	Run1	generate/STIM_007.jpg
169.21	2.131	correct	generate	Run1	generate/STIM_007.jpg
174.975	2.0	correct	generate	Run1	generate/STIM_007.jpg
179.068	1.011	correct	generate	Run1	generate/STIM_007.jpg
182.819	2.159	correct	generate	Run1	generate/STIM_007.jpg
187.109	1.718	correct	generate	Run1	generate/STIM_008.jpg
191.493	1.78	correct	generate	Run1	generate/STIM_008.jpg
195.926	1.929	correct	generate	Run1	generate/STIM_008.jpg
199.863	2.124	incorrect	generate	Run1	generate/STIM_008.jpg
204.97	1.09	correct	generate	Run1	generate/STIM_008.jpg
209.758	1.94	correct	generate	Run1	generate/STIM_009.jpg
214.286	1.916	correct	generate	Run1	generate/STIM_009.jpg
218.416	1.21	correct	generate	Run1	generate/STIM_009.jpg
223.541	1.562	incorrect	generate	Run1	generate/STIM_009.jpg
228.105	1.732	incorrect	generate	Run1	generate/STIM_009.jpg
231.878	2.387	correct	generate	Run1	generate/STIM_010.jpg
236.506	2.409	correct	generate	Run1	generate/STIM_010.jpg
242.013	2.008	correct	generate	Run1	generate/STIM_010.jpg
247.745	1.172	correct	generate	Run1	generate/STIM_010.jpg
251.932	1.144	correct	generate	Run1	generate/STIM_010.jpg
255.648	2.649	correct	generate	Run1	generate/STIM_011.jpg
261.664	1.372	correct	generate	Run1	generate/STIM_011.jpg
265.581	2.043	incorrect	generate	Run1	generate/STIM_011.jpg
271.533	1.401	correct	generate	Run1	generate/STIM_011.jpg
276.008	2.115	incorrect	generate	Run1	generate/STIM_011.jpg
280.597	1.932	correct	generate	Run1	generate/STIM_012.jpg
286.356	2.12	correct	generate	Run1	generate/STIM_012.jpg
291.336	1.557	correct	generate	Run1	generate/STIM_012.jpg
295.385	1.145	correct	generate	Run1	generate/STIM_012.jpg
300.055	1.328	incorrect	generate	Run1	generate/STIM_012.jpg
303.517	1.733	correct	generate	Run1	generate/STIM_013.jpg
307.745	1.999	correct	generate	Run1	generate/STIM_013.jpg
313.481	1.416	correct	generate	Run1	generate/STIM_013.jpg
317.589	1.578	correct	generate	Run1	generate/STIM_013.jpg
321.728	1.873	correct	generate	Run1	generate/STIM_013.jpg
327.46	2.294	correct	generate	Run1	generate/STIM_014.jpg
333.235	1.54	correct	generate	Run1	generate/STIM_014.jpg
337.876	1.783	incorrect	generate	Run1	generate/STIM_014.jpg
341.755	1.608	correct	generate	Run1	generate/STIM_014.jpg
346.279	1.334	correct	generate	Run1	generate/STIM_014.jpg
349.878	2.296	correct	generate	Run1	generate/STIM_015.jpg
354.491	2.433	correct	generate	Run1	generate/STIM_015.jpg
358.967	1.936	correct	generate	Run1	generate/STIM_015.jpg
364.666	1.957	incorrect	generate	Run1	generate/STIM_015.jpg
369.623	0.934	correct	generate	Run1	generate/STIM_015.jpg
373.832	2.292	correct	generate	Run1	generate/STIM_016.jpg
378.491	2.506	correct	generate	Run1	generate/STIM_016.jpg
383.928	1.628	correct	generate	Run1	generate/STIM_016.jpg
388.25	1.308	correct	generate	Run1	generate/STIM_016.jpg
393.221	2.103	correct	generate	Run1	generate/STIM_016.jpg
398.835	1.835	correct	generate	Run1	generate/STIM_017.jpg
403.638	1.258	correct	generate	Run1	generate/STIM_017.jpg
408.007	1.182	incorrect	generate	Run1	generate/STIM_017.jpg
411.771	1.509	correct	generate	Run1	generate/STIM_017.jpg
417.077	1.864	correct	generate	Run1	generate/STIM_017.jpg
421.952	1.661	correct	generate	Run1	generate/STIM_018.jpg
426.355	2.012	incorrect	generate	Run1	generate/STIM_018.jpg
431.151	1.305	correct	generate	Run1	generate/STIM_018.jpg
434.987	1.665	correct	generate	Run1	generate/STIM_018.jpg
438.972	1.408	correct	generate	Run1	generate/STIM_018.jpg
442.922	2.438	correct	generate	Run1	generate/STIM_019.jpg
448.739	1.79	correct	generate	Run1	generate/STIM_019.jpg
452.653	1.561	correct	generate	Run1	generate/STIM_019.jpg
456.61	1.232	correct	generate	Run1	generate/STIM_019.jpg
460.856	2.193	correct	generate	Run1	generate/STIM_019.jpg
466.057	1.975	correct	generate	Run1	generate/STIM_020.jpg
470.266	2.353	incorrect	generate	Run1	generate/STIM_020.jpg
475.176	1.412	incorrect	generate	Run1	generate/STIM_020.jpg
479.606	1.811	incorrect	generate	Run1	generate/STIM_020.jpg
483.923	1.105	correct	generate	Run1	generate/STIM_020.jpg
487.611	2.098	correct	generate	Run1	generate/STIM_021.jpg
493.477	1.144	incorrect	generate	Run1	generate/STIM_021.jpg
497.044	1.743	correct	generate	Run1	generate/STIM_021.jpg
501.742	1.43	correct	generate	Run1	generate/STIM_021.jpg
505.32	1.761	correct	generate	Run1	generate/STIM_021.jpg
510.553	1.584	correct	generate	Run1	generate/STIM_022.jpg
515.637	1.584	correct	generate	Run1	generate/STIM_022.jpg
520.451	1.155	correct	generate	Run1	generate/STIM_022.jpg
525.373	1.556	correct	generate	Run1	generate/STIM_022.jpg
530.244	1.732	correct	generate	Run1	generate/STIM_022.jpg
534.851	2.392	correct	generate	Run1	generate/STIM_023.jpg
539.853	1.655	incorrect	generate	Run1	generate/STIM_023.jpg
545.263	1.042	incorrect	generate	Run1	generate/STIM_023.jpg
548.353	1.371	correct	generate	Run1	generate/STIM_023.jpg
551.966	1.076	correct	generate	Run1	generate/STIM_023.jpg
555.729	2.001	correct	generate	Run1	generate/STIM_024.jpg
559.836	1.675	incorrect	generate	Run1	generate/STIM_024.jpg
564.214	2.183	correct	generate	Run1	generate/STIM_024.jpg
569.138	1.698	incorrect	generate	Run1	generate/STIM_024.jpg
574.437	1.352	correct	generate	Run1	generate/STIM_024.jpg
578.626	0.636	correct	repeat	Run1	repeat/STIM_000.jpg
582.884	0.707	correct	repeat	Run1	repeat/STIM_000.jpg
587.585	0.471	correct	repeat	Run1	repeat/STIM_000.jpg
591.081	0.472	correct	repeat	Run1	repeat/STIM_000.jpg
595.12	0.915	correct	repeat	Run1	repeat/STIM_000.jpg
598.284	0.582	correct	repeat	Run1	repeat/STIM_001.jpg
601.594	0.658	correct	repeat	Run1	repeat/STIM_001.jpg
604.63	0.646	correct	repeat	Run1	repeat/STIM_001.jpg
608.644	0.461	correct	repeat	Run1	repeat/STIM_001.jpg
611.974	0.676	correct	repeat	Run1	repeat/STIM_001.jpg
614.98	0.686	correct	repeat	Run1	repeat/STIM_002.jpg
619.584	0.556	correct	repeat	Run1	repeat/STIM_002.jpg
623.136	0.686	correct	repeat	Run1	repeat/STIM_002.jpg
627.523	0.812	correct	repeat	Run1	repeat/STIM_002.jpg
630.689	0.885	correct	repeat	Run1	repeat/STIM_002.jpg
633.999	0.771	correct	repeat	Run1	repeat/STIM_003.jpg
638.093	0.824	incorrect	repeat	Run1	repeat/STIM_003.jpg
641.282	0.78	correct	repeat	Run1	repeat/STIM_003.jpg
644.223	0.752	correct	repeat	Run1	repeat/STIM_003.jpg
648.831	0.51	correct	repeat	Run1	repeat/STIM_003.jpg
652.073	0.553	correct	repeat	Run1	repeat/STIM_004.jpg
656.124	0.684	correct	repeat	Run1	repeat/STIM_004.jpg
659.67	0.571	correct	repeat	Run1	repeat/STIM_004.jpg
663.755	0.905	correct	repeat	Run1	repeat/STIM_004.jpg
667.947	0.667	correct	repeat	Run1	repeat/STIM_004.jpg
672.234	0.903	correct	repeat	Run1	repeat/STIM_005.jpg
675.792	0.516	correct	repeat	Run1	repeat/STIM_005.jpg
678.882	0.828	correct	repeat	Run1	repeat/STIM_005.jpg
682.174	0.909	correct	repeat	Run1	repeat/STIM_005.jpg
685.952	0.904	correct	repeat	Run1	repeat/STIM_005.jpg
690.523	0.462	correct	repeat	Run1	repeat/STIM_006.jpg
693.074	0.821	correct	repeat	Run1	repeat/STIM_006.jpg
696.126	0.5	correct	repeat	Run1	repeat/STIM_006.jpg
698.818	0.63	correct	repeat	Run1	repeat/STIM_006.jpg
702.222	0.699	incorrect	repeat	Run1	repeat/STIM_006.jpg
705.922	0.794	correct	repeat	Run1	repeat/STIM_007.jpg
708.734	0.858	correct	repeat	Run1	repeat/STIM_007.jpg
713.079	0.75	correct	repeat	Run1	repeat/STIM_007.jpg
716.25	0.7	correct	repeat	Run1	repeat/STIM_007.jpg
719.348	0.798	correct	repeat	Run1	repeat/STIM_007.jpg
722.68	0.846	correct	repeat	Run1	repeat/STIM_008.jpg
726.964	0.773	correct	repeat	Run1	repeat/STIM_008.jpg
730.385	0.825	correct	repeat	Run1	repeat/STIM_008.jpg
734.908	0.829	correct	repeat	Run1	repeat/STIM_008.jpg
739.685	0.905	correct	repeat	Run1	repeat/STIM_008.jpg
744.526	0.513	correct	repeat	Run1	repeat/STIM_009.jpg
748.135	0.874	correct	repeat	Run1	repeat/STIM_009.jpg
751.715	0.463	correct	repeat	Run1	repeat/STIM_009.jpg
754.513	0.839	correct	repeat	Run1	repeat/STIM_009.jpg
758.408	0.657	correct	repeat	Run1	repeat/STIM_009.jpg
761.989	0.756	correct	repeat	Run1	repeat/STIM_010.jpg
764.858	0.837	correct	repeat	Run1	repeat/STIM_010.jpg
768.353	0.78	correct	repeat	Run1	repeat/STIM_010.jpg
771.157	0.493	correct	repeat	Run1	repeat/STIM_010.jpg
775.391	0.478	correct	repeat	Run1	repeat/STIM_010.jpg
779.652	0.487	correct	repeat	Run1	repeat/STIM_011.jpg
783.204	0.842	correct	repeat	Run1	repeat/STIM_011.jpg
787.562	0.827	correct	repeat	Run1	repeat/STIM_011.jpg
791.027	0.712	correct	repeat	Run1	repeat/STIM_011.jpg
794.327	0.836	correct	repeat	Run1	repeat/STIM_011.jpg
797.618	0.679	correct	repeat	Run1	repeat/STIM_012.jpg
801.095	0.862	correct	repeat	Run1	repeat/STIM_012.jpg
804.887	0.793	correct	repeat	Run1	repeat/STIM_012.jpg
809.065	0.687	correct	repeat	Run1	repeat/STIM_012.jpg
812.013	0.786	correct	repeat	Run1	repeat/STIM_012.jpg
815.736	0.61	correct	repeat	Run1	repeat/STIM_013.jpg
818.882	0.524	correct	repeat	Run1	repeat/STIM_013.jpg
821.651	0.874	correct	repeat	Run1	repeat/STIM_013.jpg
825.401	0.595	correct	repeat	Run1	repeat/STIM_013.jpg
829.311	0.703	correct	repeat	Run1	repeat/STIM_013.jpg
833.135	0.826	correct	repeat	Run1	repeat/STIM_014.jpg
836.163	0.838	correct	repeat	Run1	repeat/STIM_014.jpg
840.963	0.535	correct	repeat	Run1	repeat/STIM_014.jpg
844.41	0.853	correct	repeat	Run1	repeat/STIM_014.jpg
848.97	0.806	correct	repeat	Run1	repeat/STIM_014.jpg
853.663	2.195	correct	generate	Run2	generate/STIM_000.jpg
858.052	1.062	correct	generate	Run2	generate/STIM_000.jpg
862.061	0.872	correct	generate	Run2	generate/STIM_000.jpg
865.71	1.825	correct	generate	Run2	generate/STIM_000.jpg
871.066	1.619	correct	generate	Run2	generate/STIM_000.jpg
876.451	1.536	correct	generate	Run2	generate/STIM_001.jpg
880.098	1.206	correct	generate	Run2	generate/STIM_001.jpg
884.032	1.41	correct	generate	Run2	generate/STIM_001.jpg
888.326	1.218	correct	generate	Run2	generate/STIM_001.jpg
892.426	1.639	correct	generate	Run2	generate/STIM_001.jpg
897.826	1.807	incorrect	generate	Run2	generate/STIM_002.jpg
903.021	2.074	correct	generate	Run2	generate/STIM_002.jpg
907.521	1.615	correct	generate	Run2	generate/STIM_002.jpg
913.002	1.632	correct	generate	Run2	generate/STIM_002.jpg
917.57	1.49	incorrect	generate	Run2	generate/STIM_002.jpg
921.746	2.324	correct	generate	Run2	generate/STIM_003.jpg
926.364	1.057	correct	generate	Run2	generate/STIM_003.jpg
930.623	1.254	correct	generate	Run2	generate/STIM_003.jpg
934.099	1.478	correct	generate	Run2	generate/STIM_003.jpg
938.4	1.641	correct	generate	Run2	generate/STIM_003.jpg
943.296	1.097	correct	generate	Run2	generate/STIM_004.jpg
946.714	1.645	incorrect	generate	Run2	generate/STIM_004.jpg
950.965	0.919	incorrect	generate	Run2	generate/STIM_004.jpg
954.854	1.028	correct	generate	Run2	generate/STIM_004.jpg
959.78	1.769	correct	generate	Run2	generate/STIM_004.jpg
964.097	1.726	correct	generate	Run2	generate/STIM_005.jpg
968.767	2.193	correct	generate	Run2	generate/STIM_005.jpg
974.887	1.812	correct	generate	Run2	generate/STIM_005.jpg
979.619	1.272	correct	generate	Run2	generate/STIM_005.jpg
983.696	1.09	correct	generate	Run2	generate/STIM_005.jpg
988.689	1.222	correct	generate	Run2	generate/STIM_006.jpg
993.295	1.919	correct	generate	Run2	generate/STIM_006.jpg
999.19	1.62	incorrect	generate	Run2	generate/STIM_006.jpg
1003.984	1.39	correct	generate	Run2	generate/STIM_006.jpg
1007.562	1.735	correct	generate	Run2	generate/STIM_006.jpg
1012.58	2.241	correct	generate	Run2	generate/STIM_007.jpg
1017.527	2.076	correct	generate	Run2	generate/STIM_007.jpg
1021.961	1.464	correct	generate	Run2	generate/STIM_007.jpg
1025.99	1.25	correct	generate	Run2	generate/STIM_007.jpg
1030.854	1.515	correct	generate	Run2	generate/STIM_007.jpg
1035.14	2.298	correct	generate	Run2	generate/STIM_008.jpg
1040.356	1.852	correct	generate	Run2	generate/STIM_008.jpg
1045.135	1.354	correct	generate	Run2	generate/STIM_008.jpg
1050.23	0.942	correct	generate	Run2	generate/STIM_008.jpg
1055.142	1.309	correct	generate	Run2	generate/STIM_008.jpg
1059.16	2.067	correct	generate	Run2	generate/STIM_009.jpg
1063.937	1.434	incorrect	generate	Run2	generate/STIM_009.jpg
1067.508	1.45	incorrect	generate	Run2	generate/STIM_009.jpg
1072.246	0.974	correct	generate	Run2	generate/STIM_009.jpg
1075.632	1.45	correct	generate	Run2	generate/STIM_009.jpg
1079.803	2.287	correct	generate	Run2	generate/STIM_010.jpg
1084.518	1.157	correct	generate	Run2	generate/STIM_010.jpg
1089.092	1.708	correct	generate	Run2	generate/STIM_010.jpg
1093.873	1.741	correct	generate	Run2	generate/STIM_010.jpg
1098.655	1.341	correct	generate	Run2	generate/STIM_010.jpg
1102.72	1.796	incorrect	generate	Run2	generate/STIM_011.jpg
1106.874	1.376	correct	generate	Run2	generate/STIM_011.jpg
1111.506	1.314	correct	generate	Run2	generate/STIM_011.jpg
1115.866	1.596	correct	generate	Run2	generate/STIM_011.jpg
1119.7	0.92	correct	generate	Run2	generate/STIM_011.jpg
1123.709	2.165	correct	generate	Run2	generate/STIM_012.jpg
1128.989	1.218	correct	generate	Run2	generate/STIM_012.jpg
1132.825	1.034	correct	generate	Run2	generate/STIM_012.jpg
1136.794	1.733	correct	generate	Run2	generate/STIM_012.jpg
1142.464	1.673	correct	generate	Run2	generate/STIM_012.jpg
1146.623	1.341	correct	generate	Run2	generate/STIM_013.jpg
1151.165	2.159	correct	generate	Run2	generate/STIM_013.jpg
1156.805	1.959	correct	generate	Run2	generate/STIM_013.jpg
1161.326	1.28	incorrect	generate	Run2	generate/STIM_013.jpg
1165.589	1.239	correct	generate	Run2	generate/STIM_013.jpg
1168.903	2.059	correct	generate	Run2	generate/STIM_014.jpg
1173.761	2.179	correct	generate	Run2	generate/STIM_014.jpg
1178.656	1.497	correct	generate	Run2	generate/STIM_014.jpg
1182.758	1.504	correct	generate	Run2	generate/STIM_014.jpg
1188.166	1.872	correct	generate	Run2	generate/STIM_014.jpg
1192.705	2.197	correct	generate	Run2	generate/STIM_015.jpg
1197.111	1.824	correct	generate	Run2	generate/STIM_015.jpg
1202.65	0.959	correct	generate	Run2	generate/STIM_015.jpg
1205.958	1.123	correct	generate	Run2	generate/STIM_015.jpg
1209.399	1.58	correct	generate	Run2	generate/STIM_015.jpg
1214.796	2.286	correct	generate	Run2	generate/STIM_016.jpg
1219.639	1.882	correct	generate	Run2	generate/STIM_016.jpg
1224.808	1.912	correct	generate	Run2	generate/STIM_016.jpg
1230.072	1.344	correct	generate	Run2	generate/STIM_016.jpg
1235.402	1.116	correct	generate	Run2	generate/STIM_016.jpg
1240.164	2.098	correct	generate	Run2	generate/STIM_017.jpg
1245.277	1.032	correct	generate	Run2	generate/STIM_017.jpg
1248.548	1.348	incorrect	generate	Run2	generate/STIM_017.jpg
1253.418	1.203	correct	generate	Run2	generate/STIM_017.jpg
1257.989	1.009	correct	generate	Run2	generate/STIM_017.jpg
1261.287	1.286	correct	generate	Run2	generate/STIM_018.jpg
1265.956	1.897	correct	generate	Run2	generate/STIM_018.jpg
1271.088	1.797	correct	generate	Run2	generate/STIM_018.jpg
1275.265	1.237	correct	generate	Run2	generate/STIM_018.jpg
1279.228	1.196	incorrect	generate	Run2	generate/STIM_018.jpg
1284.15	1.121	correct	generate	Run2	generate/STIM_019.jpg
1288.282	0.945	correct	generate	Run2	generate/STIM_019.jpg
1293.095	1.824	correct	generate	Run2	generate/STIM_019.jpg
1298.774	0.884	incorrect	generate	Run2	generate/STIM_019.jpg
1302.504	1.407	correct	generate	Run2	generate/STIM_019.jpg
1307.544	1.673	correct	generate	Run2	generate/STIM_020.jpg
1312.209	1.689	correct	generate	Run2	generate/STIM_020.jpg
1316.788	1.881	incorrect	generate	Run2	generate/STIM_020.jpg
1321.405	1.539	incorrect	generate	Run2	generate/STIM_020.jpg
1325.902	1.516	correct	generate	Run2	generate/STIM_020.jpg
1330.031	1.711	correct	generate	Run2	generate/STIM_021.jpg
1334.584	1.842	correct	generate	Run2	generate/STIM_021.jpg
1339.886	1.681	correct	generate	Run2	generate/STIM_021.jpg
1343.616	1.546	correct	generate	Run2	generate/STIM_021.jpg
1348.126	1.576	correct	generate	Run2	generate/STIM_021.jpg
1352.026	1.507	correct	generate	Run2	generate/STIM_022.jpg
1357.47	2.045	correct	generate	Run2	generate/STIM_022.jpg
1363.169	1.816	incorrect	generate	Run2	generate/STIM_022.jpg
1368.509	1.857	correct	generate	Run2	generate/STIM_022.jpg
1373.269	1.647	correct	generate	Run2	generate/STIM_022.jpg
1378.777	1.106	incorrect	generate	Run2	generate/STIM_023.jpg
1383.077	2.018	correct	generate	Run2	generate/STIM_023.jpg
1387.235	1.638	correct	generate	Run2	generate/STIM_023.jpg
1391.649	1.201	correct	generate	Run2	generate/STIM_023.jpg
1396.657	1.692	correct	generate	Run2	generate/STIM_023.jpg
1401.775	1.241	correct	generate	Run2	generate/STIM_024.jpg
1405.549	1.027	correct	generate	Run2	generate/STIM_024.jpg
1409.146	0.872	correct	generate	Run2	generate/STIM_024.jpg
1413.001	1.33	correct	generate	Run2	generate/STIM_024.jpg
1416.604	1.728	correct	generate	Run2	generate/STIM_024.jpg
1421.035	0.509	correct	repeat	Run2	repeat/STIM_000.jpg
1425.342	0.861	correct	repeat	Run2	repeat/STIM_000.jpg
1429.551	0.865	correct	repeat	Run2	repeat/STIM_000.jpg
1432.728	0.605	correct	repeat	Run2	repeat/STIM_000.jpg
1437.074	0.595	correct	repeat	Run2	repeat/STIM_000.jpg
1439.896	0.616	correct	repeat	Run2	repeat/STIM_001.jpg
1443.661	0.864	correct	repeat	Run2	repeat/STIM_001.jpg
1448.115	0.682	correct	repeat	Run2	repeat/STIM_001.jpg
1452.781	0.746	correct	repeat	Run2	repeat/STIM_001.jpg
1455.865	0.677	incorrect	repeat	Run2	repeat/STIM_001.jpg
1459.503	0.881	incorrect	repeat	Run2	repeat/STIM_002.jpg
1463.776	0.778	correct	repeat	Run2	repeat/STIM_002.jpg
1468.328	0.902	correct	repeat	Run2	repeat/STIM_002.jpg
1471.638	0.461	correct	repeat	Run2	repeat/STIM_002.jpg
1474.364	0.566	correct	repeat	Run2	repeat/STIM_002.jpg
1477.129	0.762	correct	repeat	Run2	repeat/STIM_003.jpg
1480.155	0.809	correct	repeat	Run2	repeat/STIM_003.jpg
1484.358	0.776	correct	repeat	Run2	repeat/STIM_003.jpg
1488.603	0.802	correct	repeat	Run2	repeat/STIM_003.jpg
1493.304	0.516	incorrect	repeat	Run2	repeat/STIM_003.jpg
1496.251	0.703	correct	repeat	Run2	repeat/STIM_004.jpg
1500.372	0.519	correct	repeat	Run2	repeat/STIM_004.jpg
1504.389	0.776	incorrect	repeat	Run2	repeat/STIM_004.jpg
1509.122	0.707	correct	repeat	Run2	repeat/STIM_004.jpg
1513.3	0.558	correct	repeat	Run2	repeat/STIM_004.jpg
1517.212	0.528	correct	repeat	Run2	repeat/STIM_005.jpg
1521.086	0.616	correct	repeat	Run2	repeat/STIM_005.jpg
1525.041	0.754	correct	repeat	Run2	repeat/STIM_005.jpg
1529.24	0.532	correct	repeat	Run2	repeat/STIM_005.jpg
1531.878	0.689	correct	repeat	Run2	repeat/STIM_005.jpg
1535.631	0.65	correct	repeat	Run2	repeat/STIM_006.jpg
1539.437	0.912	correct	repeat	Run2	repeat/STIM_006.jpg
1543.47	0.737	correct	repeat	Run2	repeat/STIM_006.jpg
1547.043	0.534	correct	repeat	Run2	repeat/STIM_006.jpg
1550.224	0.893	correct	repeat	Run2	repeat/STIM_006.jpg
1553.223	0.634	correct	repeat	Run2	repeat/STIM_007.jpg
1557.729	0.575	correct	repeat	Run2	repeat/STIM_007.jpg
1561.12	0.564	correct	repeat	Run2	repeat/STIM_007.jpg
1565.231	0.708	correct	repeat	Run2	repeat/STIM_007.jpg
1569.493	0.7	correct	repeat	Run2	repeat/STIM_007.jpg
1572.621	0.871	correct	repeat	Run2	repeat/STIM_008.jpg
1577.222	0.552	correct	repeat	Run2	repeat/STIM_008.jpg
1581.45	0.753	correct	repeat	Run2	repeat/STIM_008.jpg
1585.826	0.583	correct	repeat	Run2	repeat/STIM_008.jpg
1588.69	0.898	incorrect	repeat	Run2	repeat/STIM_008.jpg
1591.607	0.663	correct	repeat	Run2	repeat/STIM_009.jpg
1595.902	0.632	incorrect	repeat	Run2	repeat/STIM_009.jpg
1600.02	0.527	correct	repeat	Run2	repeat/STIM_009.jpg
1604.082	0.756	correct	repeat	Run2	repeat/STIM_009.jpg
1607.405	0.713	correct	repeat	Run2	repeat/STIM_009.jpg
1611.622	0.712	correct	repeat	Run2	repeat/STIM_010.jpg
1615.461	0.682	correct	repeat	Run2	repeat/STIM_010.jpg
1619.734	0.887	correct	repeat	Run2	repeat/STIM_010.jpg
1622.88	0.81	correct	repeat	Run2	repeat/STIM_010.jpg
1626.025	0.827	correct	repeat	Run2	repeat/STIM_010.jpg
1629.191	0.872	correct	repeat	Run2	repeat/STIM_011.jpg
1633.052	0.663	correct	repeat	Run2	repeat/STIM_011.jpg
1637.504	0.596	correct	repeat	Run2	repeat/STIM_011.jpg
1641.188	0.561	correct	repeat	Run2	repeat/STIM_011.jpg
1645.598	0.759	correct	repeat	Run2	repeat/STIM_011.jpg
1649.552	0.84	correct	repeat	Run2	repeat/STIM_012.jpg
1652.895	0.482	correct	repeat	Run2	repeat/STIM_012.jpg
1656.225	0.492	correct	repeat	Run2	repeat/STIM_012.jpg
1659.874	0.843	correct	repeat	Run2	repeat/STIM_012.jpg
1663.578	0.613	correct	repeat	Run2	repeat/STIM_012.jpg
1666.866	0.471	correct	repeat	Run2	repeat/STIM_013.jpg
1670.829	0.71	correct	repeat	Run2	repeat/STIM_013.jpg
1673.847	0.802	correct	repeat	Run2	repeat/STIM_013.jpg
1677.666	0.672	correct	repeat	Run2	repeat/STIM_013.jpg
1682.121	0.561	correct	repeat	Run2	repeat/STIM_013.jpg
1685.857	0.681	correct	repeat	Run2	repeat/STIM_014.jpg
1688.983	0.532	correct	repeat	Run2	repeat/STIM_014.jpg
1693.176	0.582	correct	repeat	Run2	repeat/STIM_014.jpg
1697.031	0.614	correct	repeat	Run2	repeat/STIM_014.jpg
1701.285	0.768	correct	repeat	Run2	repeat/STIM_014.jpg
1704.417	1.809	correct	generate	Run3	generate/STIM_000.jpg
1709.56	0.803	correct	generate	Run3	generate/STIM_000.jpg
1713.424	1.281	correct	generate	Run3	generate/STIM_000.jpg
1717.252	1.497	correct	generate	Run3	generate/STIM_000.jpg
1720.905	0.882	correct	generate	Run3	generate/STIM_000.jpg
1725.52	1.182	correct	generate	Run3	generate/STIM_001.jpg
1729.369	1.822	correct	generate	Run3	generate/STIM_001.jpg
1733.616	1.433	incorrect	generate	Run3	generate/STIM_001.jpg
1738.29	0.822	correct	generate	Run3	generate/STIM_001.jpg
1742.294	1.091	correct	generate	Run3	generate/STIM_001.jpg
1746.816	1.59	correct	generate	Run3	generate/STIM_002.jpg
1751.546	1.145	correct	generate	Run3	generate/STIM_002.jpg
1755.256	1.103	correct	generate	Run3	generate/STIM_002.jpg
1758.466	1.789	correct	generate	Run3	generate/STIM_002.jpg
1763.235	1.183	correct	generate	Run3	generate/STIM_002.jpg
1768.258	0.881	correct	generate	Run3	generate/STIM_003.jpg
1772.489	1.665	correct	generate	Run3	generate/STIM_003.jpg
1776.264	1.404	correct	generate	Run3	generate/STIM_003.jpg
1781.547	0.943	correct	generate	Run3	generate/STIM_003.jpg
1785.439	1.373	correct	generate	Run3	generate/STIM_003.jpg
1789.686	1.753	correct	generate	Run3	generate/STIM_004.jpg
1793.562	1.103	incorrect	generate	Run3	generate/STIM_004.jpg
1797.723	1.622	correct	generate	Run3	generate/STIM_004.jpg
1801.982	1.117	correct	generate	Run3	generate/STIM_004.jpg
1806.303	1.453	correct	generate	Run3	generate/STIM_004.jpg
1810.76	1.114	correct	generate	Run3	generate/STIM_005.jpg
1815.075	1.325	correct	generate	Run3	generate/STIM_005.jpg
1819.066	1.117	correct	generate	Run3	generate/STIM_005.jpg
1823.241	1.815	correct	generate	Run3	generate/STIM_005.jpg
1827.282	1.537	correct	generate	Run3	generate/STIM_005.jpg
1831.385	1.465	correct	generate	Run3	generate/STIM_006.jpg
1835.089	0.991	correct	generate	Run3	generate/STIM_006.jpg
1838.39	1.492	correct	generate	Run3	generate/STIM_006.jpg
1843.638	1.07	correct	generate	Run3	generate/STIM_006.jpg
1847.512	1.566	correct	generate	Run3	generate/STIM_006.jpg
1852.767	1.898	correct	generate	Run3	generate/STIM_007.jpg
1858.294	1.382	correct	generate	Run3	generate/STIM_007.jpg
1863.49	0.892	correct	generate	Run3	generate/STIM_007.jpg
1867.307	1.386	correct	generate	Run3	generate/STIM_007.jpg
1871.386	1.816	correct	generate	Run3	generate/STIM_007.jpg
1876.421	1.748	correct	generate	Run3	generate/STIM_008.jpg
1881.205	1.57	correct	generate	Run3	generate/STIM_008.jpg
1886.135	1.085	correct	generate	Run3	generate/STIM_008.jpg
1890.741	1.612	correct	generate	Run3	generate/STIM_008.jpg
1895.821	1.364	incorrect	generate	Run3	generate/STIM_008.jpg
1900.217	0.85	correct	generate	Run3	generate/STIM_009.jpg
1904.962	0.801	correct	generate	Run3	generate/STIM_009.jpg
1909.376	1.537	correct	generate	Run3	generate/STIM_009.jpg
1913.548	1.375	correct	generate	Run3	generate/STIM_009.jpg
1917.044	1.115	correct	generate	Run3	generate/STIM_009.jpg
1921.827	0.816	correct	generate	Run3	generate/STIM_010.jpg
1925.836	0.997	correct	generate	Run3	generate/STIM_010.jpg
1929.009	1.592	incorrect	generate	Run3	generate/STIM_010.jpg
1933.133	1.246	correct	generate	Run3	generate/STIM_010.jpg
1937.153	1.56	correct	generate	Run3	generate/STIM_010.jpg
1942.283	1.53	correct	generate	Run3	generate/STIM_011.jpg
1945.922	1.356	correct	generate	Run3	generate/STIM_011.jpg
1950.461	0.808	correct	generate	Run3	generate/STIM_011.jpg
1954.423	1.389	correct	generate	Run3	generate/STIM_011.jpg
1958.942	1.369	correct	generate	Run3	generate/STIM_011.jpg
1962.776	0.875	correct	generate	Run3	generate/STIM_012.jpg
1966.531	0.991	correct	generate	Run3	generate/STIM_012.jpg
1971.252	1.022	incorrect	generate	Run3	generate/STIM_012.jpg
1974.583	1.052	correct	generate	Run3	generate/STIM_012.jpg
1978.773	1.65	correct	generate	Run3	generate/STIM_012.jpg
1983.102	1.377	correct	generate	Run3	generate/STIM_013.jpg
1988.165	1.213	correct	generate	Run3	generate/STIM_013.jpg
1992.132	0.966	correct	generate	Run3	generate/STIM_013.jpg
1995.181	1.484	correct	generate	Run3	generate/STIM_013.jpg
2000.0	1.068	incorrect	generate	Run3	generate/STIM_013.jpg
2004.965	1.323	incorrect	generate	Run3	generate/STIM_014.jpg
2008.823	1.68	correct	generate	Run3	generate/STIM_014.jpg
2012.635	1.194	correct	generate	Run3	generate/STIM_014.jpg
2017.262	1.68	incorrect	generate	Run3	generate/STIM_014.jpg
2020.991	1.741	correct	generate	Run3	generate/STIM_014.jpg
2025.101	1.126	correct	generate	Run3	generate/STIM_015.jpg
2028.989	1.348	correct	generate	Run3	generate/STIM_015.jpg
2034.294	1.905	correct	generate	Run3	generate/STIM_015.jpg
2039.658	1.568	correct	generate	Run3	generate/STIM_015.jpg
2045.205	1.185	correct	generate	Run3	generate/STIM_015.jpg
2048.672	0.815	correct	generate	Run3	generate/STIM_016.jpg
2052.545	0.776	correct	generate	Run3	generate/STIM_016.jpg
2057.039	1.792	correct	generate	Run3	generate/STIM_016.jpg
2062.707	1.418	correct	generate	Run3	generate/STIM_016.jpg
2066.813	1.44	correct	generate	Run3	generate/STIM_016.jpg
2072.081	1.596	correct	generate	Run3	generate/STIM_017.jpg
2076.701	1.83	correct	generate	Run3	generate/STIM_017.jpg
2081.081	0.976	correct	generate	Run3	generate/STIM_017.jpg
2085.209	1.12	correct	generate	Run3	generate/STIM_017.jpg
2088.97	1.11	correct	generate	Run3	generate/STIM_017.jpg
2092.533	1.269	correct	generate	Run3	generate/STIM_018.jpg
2097.683	1.321	correct	generate	Run3	generate/STIM_018.jpg
2101.794	1.263	correct	generate	Run3	generate/STIM_018.jpg
2106.255	1.01	incorrect	generate	Run3	generate/STIM_018.jpg
2110.022	1.494	correct	generate	Run3	generate/STIM_018.jpg
2115.26	1.344	correct	generate	Run3	generate/STIM_019.jpg
2119.881	1.866	correct	generate	Run3	generate/STIM_019.jpg
2125.179	1.453	correct	generate	Run3	generate/STIM_019.jpg
2129.711	1.84	correct	generate	Run3	generate/STIM_019.jpg
2135.048	1.895	correct	generate	Run3	generate/STIM_019.jpg
2139.803	0.964	correct	generate	Run3	generate/STIM_020.jpg
2144.253	0.825	correct	generate	Run3	generate/STIM_020.jpg
2149.065	1.463	correct	generate	Run3	generate/STIM_020.jpg
2154.026	0.991	correct	generate	Run3	generate/STIM_020.jpg
2157.624	1.91	correct	generate	Run3	generate/STIM_020.jpg
2162.402	1.155	incorrect	generate	Run3	generate/STIM_021.jpg
2166.479	1.43	correct	generate	Run3	generate/STIM_021.jpg
2170.442	1.25	correct	generate	Run3	generate/STIM_021.jpg
2174.416	0.947	correct	generate	Run3	generate/STIM_021.jpg
2178.764	1.288	correct	generate	Run3	generate/STIM_021.jpg
2182.884	1.7	correct	generate	Run3	generate/STIM_022.jpg
2188.154	1.595	correct	generate	Run3	generate/STIM_022.jpg
2192.062	1.413	correct	generate	Run3	generate/STIM_022.jpg
2196.567	1.057	correct	generate	Run3	generate/STIM_022.jpg
2200.362	1.291	incorrect	generate	Run3	generate/STIM_022.jpg
2204.41	1.784	incorrect	generate	Run3	generate/STIM_023.jpg
2208.975	1.75	correct	generate	Run3	generate/STIM_023.jpg
2213.456	0.881	correct	generate	Run3	generate/STIM_023.jpg
2218.306	1.63	correct	generate	Run3	generate/STIM_023.jpg
2223.908	1.452	correct	generate	Run3	generate/STIM_023.jpg
2228.412	0.771	incorrect	generate	Run3	generate/STIM_024.jpg
2232.862	1.134	correct	generate	Run3	generate/STIM_024.jpg
2236.152	1.15	correct	generate	Run3	generate/STIM_024.jpg
2240.294	1.204	correct	generate	Run3	generate/STIM_024.jpg
2245.341	0.98	correct	generate	Run3	generate/STIM_024.jpg
2249.108	0.87	correct	repeat	Run3	repeat/STIM_000.jpg
2253.54	0.716	correct	repeat	Run3	repeat/STIM_000.jpg
2258.254	0.869	correct	repeat	Run3	repeat/STIM_000.jpg
2263.075	0.836	correct	repeat	Run3	repeat/STIM_000.jpg
2267.4	0.579	correct	repeat	Run3	repeat/STIM_000.jpg
2270.495	0.817	correct	repeat	Run3	repeat/STIM_001.jpg
2274.375	0.48	correct	repeat	Run3	repeat/STIM_001.jpg
2277.981	0.87	correct	repeat	Run3	repeat/STIM_001.jpg
2281.777	0.744	correct	repeat	Run3	repeat/STIM_001.jpg
2286.091	0.891	correct	repeat	Run3	repeat/STIM_001.jpg
2290.917	0.796	correct	repeat	Run3	repeat/STIM_002.jpg
2295.505	0.485	correct	repeat	Run3	repeat/STIM_002.jpg
2298.823	0.586	correct	repeat	Run3	repeat/STIM_002.jpg
2303.289	0.779	correct	repeat	Run3	repeat/STIM_002.jpg
2306.8	0.471	correct	repeat	Run3	repeat/STIM_002.jpg
2310.138	0.763	correct	repeat	Run3	repeat/STIM_003.jpg
2314.865	0.845	correct	repeat	Run3	repeat/STIM_003.jpg
2318.797	0.615	correct	repeat	Run3	repeat/STIM_003.jpg
2321.873	0.858	correct	repeat	Run3	repeat/STIM_003.jpg
2326.204	0.744	correct	repeat	Run3	repeat/STIM_003.jpg
2329.688	0.531	correct	repeat	Run3	repeat/STIM_004.jpg
2333.807	0.527	correct	repeat	Run3	repeat/STIM_004.jpg
2336.974	0.678	correct	repeat	Run3	repeat/STIM_004.jpg
2341.118	0.677	correct	repeat	Run3	repeat/STIM_004.jpg
2344.002	0.913	correct	repeat	Run3	repeat/STIM_004.jpg
2347.054	0.546	correct	repeat	Run3	repeat/STIM_005.jpg
2350.42	0.512	correct	repeat	Run3	repeat/STIM_005.jpg
2354.555	0.482	correct	repeat	Run3	repeat/STIM_005.jpg
2358.483	0.886	correct	repeat	Run3	repeat/STIM_005.jpg
2362.807	0.842	correct	repeat	Run3	repeat/STIM_005.jpg
2367.123	0.848	correct	repeat	Run3	repeat/STIM_006.jpg
2370.021	0.805	correct	repeat	Run3	repeat/STIM_006.jpg
2374.577	0.557	correct	repeat	Run3	repeat/STIM_006.jpg
2378.749	0.886	incorrect	repeat	Run3	repeat/STIM_006.jpg
2382.388	0.491	correct	repeat	Run3	repeat/STIM_006.jpg
2386.615	0.833	correct	repeat	Run3	repeat/STIM_007.jpg
2390.988	0.559	correct	repeat	Run3	repeat/STIM_007.jpg
2395.063	0.529	correct	repeat	Run3	repeat/STIM_007.jpg
2398.537	0.751	correct	repeat	Run3	repeat/STIM_007.jpg
2401.81	0.874	correct	repeat	Run3	repeat/STIM_007.jpg
2406.26	0.606	correct	repeat	Run3	repeat/STIM_008.jpg
2409.821	0.492	correct	repeat	Run3	repeat/STIM_008.jpg
2412.571	0.813	correct	repeat	Run3	repeat/STIM_008.jpg
2415.574	0.683	correct	repeat	Run3	repeat/STIM_008.jpg
2418.958	0.827	correct	repeat	Run3	repeat/STIM_008.jpg
2423.485	0.697	correct	repeat	Run3	repeat/STIM_009.jpg
2427.358	0.688	correct	repeat	Run3	repeat/STIM_009.jpg
2431.599	0.721	incorrect	repeat	Run3	repeat/STIM_009.jpg
2434.733	0.516	correct	repeat	Run3	repeat/STIM_009.jpg
2437.398	0.834	correct	repeat	Run3	repeat/STIM_009.jpg
2441.683	0.536	correct	repeat	Run3	repeat/STIM_010.jpg
2444.322	0.489	correct	repeat	Run3	repeat/STIM_010.jpg
2447.892	0.613	correct	repeat	Run3	repeat/STIM_010.jpg
2451.423	0.706	correct	repeat	Run3	repeat/STIM_010.jpg
2455.873	0.898	correct	repeat	Run3	repeat/STIM_010.jpg
2460.431	0.675	correct	repeat	Run3	repeat/STIM_011.jpg
2465.005	0.643	correct	repeat	Run3	repeat/STIM_011.jpg
2468.824	0.714	correct	repeat	Run3	repeat/STIM_011.jpg
2472.258	0.486	correct	repeat	Run3	repeat/STIM_011.jpg
2476.015	0.844	correct	repeat	Run3	repeat/STIM_011.jpg
2479.998	0.728	correct	repeat	Run3	repeat/STIM_012.jpg
2483.389	0.503	correct	repeat	Run3	repeat/STIM_012.jpg
2486.671	0.877	correct	repeat	Run3	repeat/STIM_012.jpg
2490.699	0.508	correct	repeat	Run3	repeat/STIM_012.jpg
2494.834	0.854	correct	repeat	Run3	repeat/STIM_012.jpg
2498.73	0.772	correct	repeat	Run3	repeat/STIM_013.jpg
2501.972	0.642	correct	repeat	Run3	repeat/STIM_013.jpg
2504.885	0.746	correct	repeat	Run3	repeat/STIM_013.jpg
2508.952	0.576	correct	repeat	Run3	repeat/STIM_013.jpg
2512.072	0.879	correct	repeat	Run3	repeat/STIM_013.jpg
2515.1	0.46	correct	repeat	Run3	repeat/STIM_014.jpg
2517.67	0.522	correct	repeat	Run3	repeat/STIM_014.jpg
2520.601	0.848	correct	repeat	Run3	repeat/STIM_014.jpg
2524.698	0.898	correct	repeat	Run3	repeat/STIM_014.jpg
2528.624	0.826	correct	repeat	Run3	repeat/STIM_014.jpg
2531.865	1.414	incorrect	generate	Run4	generate/STIM_000.jpg
2536.992	0.849	correct	generate	Run4	generate/STIM_000.jpg
2540.394	1.838	correct	generate	Run4	generate/STIM_000.jpg
2545.764	0.825	correct	generate	Run4	generate/STIM_000.jpg
2549.524	1.147	correct	generate	Run4	generate/STIM_000.jpg
2553.075	0.854	correct	generate	Run4	generate/STIM_001.jpg
2556.005	1.535	correct	generate	Run4	generate/STIM_001.jpg
2560.925	1.735	correct	generate	Run4	generate/STIM_001.jpg
2566.375	0.959	correct	generate	Run4	generate/STIM_001.jpg
2570.455	1.291	correct	generate	Run4	generate/STIM_001.jpg
2573.969	0.782	correct	generate	Run4	generate/STIM_002.jpg
2577.372	1.18	correct	generate	Run4	generate/STIM_002.jpg
2581.361	1.704	correct	generate	Run4	generate/STIM_002.jpg
2586.578	1.732	correct	generate	Run4	generate/STIM_002.jpg
2591.015	1.237	correct	generate	Run4	generate/STIM_002.jpg
2595.371	1.499	correct	generate	Run4	generate/STIM_003.jpg
2598.965	1.594	correct	generate	Run4	generate/STIM_003.jpg
2603.212	1.473	correct	generate	Run4	generate/STIM_003.jpg
2607.388	1.766	correct	generate	Run4	generate/STIM_003.jpg
2611.444	1.08	correct	generate	Run4	generate/STIM_003.jpg
2615.474	0.965	correct	generate	Run4	generate/STIM_004.jpg
2618.738	1.026	correct	generate	Run4	generate/STIM_004.jpg
2622.775	1.414	correct	generate	Run4	generate/STIM_004.jpg
2626.915	1.545	correct	generate	Run4	generate/STIM_004.jpg
2631.792	1.69	correct	generate	Run4	generate/STIM_004.jpg
2637.106	1.846	incorrect	generate	Run4	generate/STIM_005.jpg
2641.461	1.54	correct	generate	Run4	generate/STIM_005.jpg
2646.172	1.336	correct	generate	Run4	generate/STIM_005.jpg
2649.962	1.666	correct	generate	Run4	generate/STIM_005.jpg
2653.879	0.966	correct	generate	Run4	generate/STIM_005.jpg
2657.787	1.899	correct	generate	Run4	generate/STIM_006.jpg
2662.429	1.78	correct	generate	Run4	generate/STIM_006.jpg
2666.695	1.401	correct	generate	Run4	generate/STIM_006.jpg
2671.317	1.577	correct	generate	Run4	generate/STIM_006.jpg
2675.124	1.156	correct	generate	Run4	generate/STIM_006.jpg
2679.469	1.228	correct	generate	Run4	generate/STIM_007.jpg
2683.107	1.22	correct	generate	Run4	generate/STIM_007.jpg
2687.934	1.223	correct	generate	Run4	generate/STIM_007.jpg
2691.264	1.024	correct	generate	Run4	generate/STIM_007.jpg
2694.771	1.251	correct	generate	Run4	generate/STIM_007.jpg
2698.911	1.627	correct	generate	Run4	generate/STIM_008.jpg
2704.308	1.218	correct	generate	Run4	generate/STIM_008.jpg
2707.546	1.773	correct	generate	Run4	generate/STIM_008.jpg
2712.465	1.635	incorrect	generate	Run4	generate/STIM_008.jpg
2717.674	0.903	correct	generate	Run4	generate/STIM_008.jpg
2722.008	1.325	correct	generate	Run4	generate/STIM_009.jpg
2726.616	1.668	correct	generate	Run4	generate/STIM_009.jpg
2730.805	1.878	correct	generate	Run4	generate/STIM_009.jpg
2735.928	1.324	correct	generate	Run4	generate/STIM_009.jpg
2741.129	0.888	correct	generate	Run4	generate/STIM_009.jpg
2744.956	0.951	correct	generate	Run4	generate/STIM_010.jpg
2749.419	1.75	correct	generate	Run4	generate/STIM_010.jpg
2754.977	1.731	incorrect	generate	Run4	generate/STIM_010.jpg
2759.096	1.913	correct	generate	Run4	generate/STIM_010.jpg
2763.441	1.419	correct	generate	Run4	generate/STIM_010.jpg
2766.916	1.539	correct	generate	Run4	generate/STIM_011.jpg
2772.133	0.962	correct	generate	Run4	generate/STIM_011.jpg
2776.259	1.508	correct	generate	Run4	generate/STIM_011.jpg
2780.89	1.126	incorrect	generate	Run4	generate/STIM_011.jpg
2785.829	0.848	correct	generate	Run4	generate/STIM_011.jpg
2789.569	0.773	correct	generate	Run4	generate/STIM_012.jpg
2794.307	0.954	correct	generate	Run4	generate/STIM_012.jpg
2798.408	0.934	correct	generate	Run4	generate/STIM_012.jpg
2802.626	0.932	correct	generate	Run4	generate/STIM_012.jpg
2807.092	1.75	correct	generate	Run4	generate/STIM_012.jpg
2811.636	1.339	correct	generate	Run4	generate/STIM_013.jpg
2816.754	0.836	correct	generate	Run4	generate/STIM_013.jpg
2821.021	0.925	correct	generate	Run4	generate/STIM_013.jpg
2825.217	1.22	correct	generate	Run4	generate/STIM_013.jpg
2828.45	1.237	correct	generate	Run4	generate/STIM_013.jpg
2833.034	0.948	correct	generate	Run4	generate/STIM_014.jpg
2836.382	0.879	correct	generate	Run4	generate/STIM_014.jpg
2841.127	1.478	correct	generate	Run4	generate/STIM_014.jpg
2846.0	0.977	correct	generate	Run4	generate/STIM_014.jpg
2850.562	1.657	correct	generate	Run4	generate/STIM_014.jpg
2854.998	0.821	correct	generate	Run4	generate/STIM_015.jpg
2858.565	1.329	correct	generate	Run4	generate/STIM_015.jpg
2862.431	1.125	correct	generate	Run4	generate/STIM_015.jpg
2866.751	1.747	correct	generate	Run4	generate/STIM_015.jpg
2870.8	1.727	correct	generate	Run4	generate/STIM_015.jpg
2875.841	1.642	correct	generate	Run4	generate/STIM_016.jpg
2881.15	1.295	correct	generate	Run4	generate/STIM_016.jpg
2884.804	1.687	correct	generate	Run4	generate/STIM_016.jpg
2889.669	1.214	correct	generate	Run4	generate/STIM_016.jpg
2893.019	0.919	correct	generate	Run4	generate/STIM_016.jpg
2897.475	0.843	correct	generate	Run4	generate/STIM_017.jpg
2901.282	1.691	correct	generate	Run4	generate/STIM_017.jpg
2906.452	1.697	correct	generate	Run4	generate/STIM_017.jpg
2911.057	1.683	correct	generate	Run4	generate/STIM_017.jpg
2915.209	0.991	correct	generate	Run4	generate/STIM_017.jpg
2918.979	1.645	correct	generate	Run4	generate/STIM_018.jpg
2923.096	0.774	correct	generate	Run4	generate/STIM_018.jpg
2926.786	1.702	correct	generate	Run4	generate/STIM_018.jpg
2931.281	1.329	correct	generate	Run4	generate/STIM_018.jpg
2935.636	1.47	correct	generate	Run4	generate/STIM_018.jpg
2939.393	1.126	incorrect	generate	Run4	generate/STIM_019.jpg
2942.826	0.822	correct	generate	Run4	generate/STIM_019.jpg
2947.182	0.922	correct	generate	Run4	generate/STIM_019.jpg
2951.273	1.16	correct	generate	Run4	generate/STIM_019.jpg
2954.679	1.083	correct	generate	Run4	generate/STIM_019.jpg
2958.332	1.043	correct	generate	Run4	generate/STIM_020.jpg
2962.231	1.167	correct	generate	Run4	generate/STIM_020.jpg
2965.908	1.453	correct	generate	Run4	generate/STIM_020.jpg
2969.681	1.192	correct	generate	Run4	generate/STIM_020.jpg
2973.699	1.4	correct	generate	Run4	generate/STIM_020.jpg
2977.434	1.609	correct	generate	Run4	generate/STIM_021.jpg
2981.725	1.631	correct	generate	Run4	generate/STIM_021.jpg
2987.279	1.603	correct	generate	Run4	generate/STIM_021.jpg
2992.056	1.227	correct	generate	Run4	generate/STIM_021.jpg
2995.958	1.441	correct	generate	Run4	generate/STIM_021.jpg
2999.712	1.056	correct	generate	Run4	generate/STIM_022.jpg
3004.054	1.817	correct	generate	Run4	generate/STIM_022.jpg
3009.347	1.302	correct	generate	Run4	generate/STIM_022.jpg
3013.059	1.384	correct	generate	Run4	generate/STIM_022.jpg
3017.981	1.226	correct	generate	Run4	generate/STIM_022.jpg
3022.032	0.914	correct	generate	Run4	generate/STIM_023.jpg
3025.634	1.748	correct	generate	Run4	generate/STIM_023.jpg
3030.787	0.775	correct	generate	Run4	generate/STIM_023.jpg
3033.608	1.461	correct	generate	Run4	generate/STIM_023.jpg
3037.792	1.415	correct	generate	Run4	generate/STIM_023.jpg
3041.475	1.672	correct	generate	Run4	generate/STIM_024.jpg
3045.449	1.561	correct	generate	Run4	generate/STIM_024.jpg
3049.438	1.701	correct	generate	Run4	generate/STIM_024.jpg
3053.33	1.894	correct	generate	Run4	generate/STIM_024.jpg
3057.986	1.311	correct	generate	Run4	generate/STIM_024.jpg
3062.186	0.796	correct	repeat	Run4	repeat/STIM_000.jpg
3066.842	0.768	correct	repeat	Run4	repeat/STIM_000.jpg
3069.992	0.622	correct	repeat	Run4	repeat/STIM_000.jpg
3074.124	0.69	incorrect	repeat	Run4	repeat/STIM_000.jpg
3078.482	0.556	incorrect	repeat	Run4	repeat/STIM_000.jpg
3081.822	0.702	correct	repeat	Run4	repeat/STIM_001.jpg
3085.85	0.566	correct	repeat	Run4	repeat/STIM_001.jpg
3089.925	0.717	correct	repeat	Run4	repeat/STIM_001.jpg
3094.225	0.488	correct	repeat	Run4	repeat/STIM_001.jpg
3097.758	0.47	correct	repeat	Run4	repeat/STIM_001.jpg
3100.682	0.86	correct	repeat	Run4	repeat/STIM_002.jpg
3105.312	0.703	correct	repeat	Run4	repeat/STIM_002.jpg
3109.545	0.641	correct	repeat	Run4	repeat/STIM_002.jpg
3113.977	0.627	correct	repeat	Run4	repeat/STIM_002.jpg
3118.465	0.516	correct	repeat	Run4	repeat/STIM_002.jpg
3122.966	0.535	correct	repeat	Run4	repeat/STIM_003.jpg
3127.298	0.597	correct	repeat	Run4	repeat/STIM_003.jpg
3130.91	0.778	correct	repeat	Run4	repeat/STIM_003.jpg
3135.381	0.573	correct	repeat	Run4	repeat/STIM_003.jpg
3138.974	0.67	correct	repeat	Run4	repeat/STIM_003.jpg
3141.703	0.625	correct	repeat	Run4	repeat/STIM_004.jpg
3145.771	0.53	correct	repeat	Run4	repeat/STIM_004.jpg
3148.466	0.569	correct	repeat	Run4	repeat/STIM_004.jpg
3151.223	0.741	correct	repeat	Run4	repeat/STIM_004.jpg
3155.421	0.533	correct	repeat	Run4	repeat/STIM_004.jpg
3158.871	0.579	correct	repeat	Run4	repeat/STIM_005.jpg
3161.76	0.688	correct	repeat	Run4	repeat/STIM_005.jpg
3165.909	0.488	incorrect	repeat	Run4	repeat/STIM_005.jpg
3168.713	0.889	correct	repeat	Run4	repeat/STIM_005.jpg
3173.023	0.755	correct	repeat	Run4	repeat/STIM_005.jpg
3177.732	0.906	correct	repeat	Run4	repeat/STIM_006.jpg
3181.099	0.719	correct	repeat	Run4	repeat/STIM_006.jpg
3185.154	0.656	correct	repeat	Run4	repeat/STIM_006.jpg
3189.371	0.731	correct	repeat	Run4	repeat/STIM_006.jpg
3193.31	0.512	correct	repeat	Run4	repeat/STIM_006.jpg
3196.036	0.551	correct	repeat	Run4	repeat/STIM_007.jpg
3200.244	0.503	correct	repeat	Run4	repeat/STIM_007.jpg
3203.764	0.542	correct	repeat	Run4	repeat/STIM_007.jpg
3207.941	0.526	correct	repeat	Run4	repeat/STIM_007.jpg
3211.153	0.488	correct	repeat	Run4	repeat/STIM_007.jpg
3213.929	0.772	correct	repeat	Run4	repeat/STIM_008.jpg
3217.216	0.912	correct	repeat	Run4	repeat/STIM_008.jpg
3221.801	0.901	correct	repeat	Run4	repeat/STIM_008.jpg
3225.474	0.741	correct	repeat	Run4	repeat/STIM_008.jpg
3228.646	0.825	correct	repeat	Run4	repeat/STIM_008.jpg
3231.894	0.696	correct	repeat	Run4	repeat/STIM_009.jpg
3236.215	0.738	correct	repeat	Run4	repeat/STIM_009.jpg
3240.147	0.479	correct	repeat	Run4	repeat/STIM_009.jpg
3244.141	0.815	correct	repeat	Run4	repeat/STIM_009.jpg
3248.213	0.555	correct	repeat	Run4	repeat/STIM_009.jpg
3250.894	0.684	correct	repeat	Run4	repeat/STIM_010.jpg
3254.299	0.607	correct	repeat	Run4	repeat/STIM_010.jpg
3258.802	0.69	incorrect	repeat	Run4	repeat/STIM_010.jpg
3262.104	0.865	correct	repeat	Run4	repeat/STIM_010.jpg
3266.643	0.65	correct	repeat	Run4	repeat/STIM_010.jpg
3269.954	0.854	correct	repeat	Run4	repeat/STIM_011.jpg
3273.573	0.478	correct	repeat	Run4	repeat/STIM_011.jpg
3277.232	0.802	correct	repeat	Run4	repeat/STIM_011.jpg
3281.662	0.775	correct	repeat	Run4	repeat/STIM_011.jpg
3285.562	0.548	correct	repeat	Run4	repeat/STIM_011.jpg
3289.181	0.848	correct	repeat	Run4	repeat/STIM_012.jpg
3293.344	0.491	correct	repeat	Run4	repeat/STIM_012.jpg
3296.148	0.857	correct	repeat	Run4	repeat/STIM_012.jpg
3299.96	0.595	correct	repeat	Run4	repeat/STIM_012.jpg
3304.124	0.71	correct	repeat	Run4	repeat/STIM_012.jpg
3307.811	0.819	correct	repeat	Run4	repeat/STIM_013.jpg
3311.23	0.834	correct	repeat	Run4	repeat/STIM_013.jpg
3315.264	0.5	correct	repeat	Run4	repeat/STIM_013.jpg
3318.536	0.841	incorrect	repeat	Run4	repeat/STIM_013.jpg
3322.848	0.503	correct	repeat	Run4	repeat/STIM_013.jpg
3326.542	0.9	correct	repeat	Run4	repeat/STIM_014.jpg
3329.895	0.702	correct	repeat	Run4	repeat/STIM_014.jpg
3332.912	0.754	correct	repeat	Run4	repeat/STIM_014.jpg
3337.328	0.706	correct	repeat	Run4	repeat/STIM_014.jpg
3340.645	0.473	correct	repeat	Run4	repeat/STIM_014.jpg
