onset	duration	response_time_ms	trial_type	learning_stage	stimulus	response_port
0.0	2.107	2106.8	generate	Run1	generate/STIM_000.jpg	99
4.317	1.823	1823.1	generate	Run1	generate/STIM_000.jpg	99
8.3	1.446	1445.8	generate	Run1	generate/STIM_000.jpg	100
12.262	1.392	1391.7	generate	Run1	generate/STIM_000.jpg	99
17.035	1.087	1087.1	generate	Run1	generate/STIM_000.jpg	99
20.309	1.228	1227.5	generate	Run1	generate/STIM_001.jpg	100
24.784	2.121	2120.7	generate	Run1	generate/STIM_001.jpg	99
29.034	2.394	2394.3	generate	Run1	generate/STIM_001.jpg	99
34.509	1.535	1534.8	generate	Run1	generate/STIM_001.jpg	99
38.121	1.837	1836.6	generate	Run1	generate/STIM_001.jpg	99
42.262	1.446	1446.3	generate	Run1	generate/STIM_002.jpg	100
46.065	1.856	1856.2	generate	Run1	generate/STIM_002.jpg	100
51.266	2.232	2232.4	generate	Run1	generate/STIM_002.jpg	100
56.319	1.336	1335.5	generate	Run1	generate/STIM_002.jpg	99
61.32	1.444	1443.5	generate	Run1	generate/STIM_002.jpg	100
66.308	2.082	2082.3	generate	Run1	generate/STIM_003.jpg	99
70.632	2.535	2535.1	generate	Run1	generate/STIM_003.jpg	100
76.194	1.394	1394.3	generate	Run1	generate/STIM_003.jpg	99
81.052	1.88	1879.8	generate	Run1	generate/STIM_003.jpg	100
86.709	1.254	1253.5	generate	Run1	generate/STIM_003.jpg	100
91.791	2.302	2302.1	generate	Run1	generate/STIM_004.jpg	100
97.647	1.446	1446.2	generate	Run1	generate/STIM_004.jpg	99
101.406	1.546	1545.7	generate	Run1	generate/STIM_004.jpg	99
105.695	1.856	1855.7	generate	Run1	generate/STIM_004.jpg	99
111.314	0.92	919.8	generate	Run1	generate/STIM_004.jpg	99
115.088	2.045	2045.0	generate	Run1	generate/STIM_005.jpg	100
121.122	1.649	1648.7	generate	Run1	generate/STIM_005.jpg	99
126.036	2.435	2434.6	generate	Run1	generate/STIM_005.jpg	100
131.319	1.994	1994.2	generate	Run1	generate/STIM_005.jpg	100
136.0	0.92	919.9	generate	Run1	generate/STIM_005.jpg	100
139.952	2.527	2527.1	generate	Run1	generate/STIM_006.jpg	100
145.852	2.019	2019.5	generate	Run1	generate/STIM_006.jpg	100
150.287	1.665	1665.1	generate	Run1	generate/STIM_006.jpg	100
155.805	1.862	1861.5	generate	Run1	generate/STIM_006.jpg	100
160.698	1.038	1037.9	generate	Run1	generate/STIM_006.jpg	99
164.461	1.714	1713.6	generate	Run1	generate/STIM_007.jpg	99
169.21	2.131	2130.7	generate	Run1	generate/STIM_007.jpg	100
174.975	2.0	2000.0	generate	Run1	generate/STIM_007.jpg	100
179.068	1.011	1011.1	generate	Run1	generate/STIM_007.jpg	100
182.819	2.159	2158.7	generate	Run1	generate/STIM_007.jpg	100
187.109	1.718	1717.8	generate	Run1	generate/STIM_008.jpg	100
191.493	1.78	1779.7	generate	Run1	generate/STIM_008.jpg	100
195.926	1.929	1928.6	generate	Run1	generate/STIM_008.jpg	100
199.863	2.124	2124.4	generate	Run1	generate/STIM_008.jpg	100
204.97	1.09	1090.2	generate	Run1	generate/STIM_008.jpg	100
209.758	1.94	1940.5	generate	Run1	generate/STIM_009.jpg	100
214.286	1.916	1916.0	generate	Run1	generate/STIM_009.jpg	99
218.416	1.21	1209.6	generate	Run1	generate/STIM_009.jpg	100
223.541	1.562	1561.8	generate	Run1	generate/STIM_009.jpg	99
228.105	1.732	1731.9	generate	Run1	generate/STIM_009.jpg	100
231.878	2.387	2386.6	generate	Run1	generate/STIM_010.jpg	99
236.506	2.409	2408.9	generate	Run1	generate/STIM_010.jpg	99
242.013	2.008	2008.2	generate	Run1	generate/STIM_010.jpg	100
247.745	1.172	1172.1	generate	Run1	generate/STIM_010.jpg	100
251.932	1.144	1144.0	generate	Run1	generate/STIM_010.jpg	100
255.648	2.649	2648.6	generate	Run1	generate/STIM_011.jpg	100
261.664	1.372	1372.1	generate	Run1	generate/STIM_011.jpg	99
265.581	2.043	2043.0	generate	Run1	generate/STIM_011.jpg	99
271.533	1.401	1401.4	generate	Run1	generate/STIM_011.jpg	100
276.008	2.115	2114.9	generate	Run1	generate/STIM_011.jpg	100
280.597	1.932	1932.1	generate	Run1	generate/STIM_012.jpg	100
286.356	2.12	2120.2	generate	Run1	generate/STIM_012.jpg	100
291.336	1.557	1556.6	generate	Run1	generate/STIM_012.jpg	100
295.385	1.145	1145.3	generate	Run1	generate/STIM_012.jpg	100
300.055	1.328	1327.8	generate	Run1	generate/STIM_012.jpg	99
303.517	1.733	1732.6	generate	Run1	generate/STIM_013.jpg	100
307.745	1.999	1998.9	generate	Run1	generate/STIM_013.jpg	99
313.481	1.416	1415.8	generate	Run1	generate/STIM_013.jpg	100
317.589	1.578	1578.1	generate	Run1	generate/STIM_013.jpg	100
321.728	1.873	1872.9	generate	Run1	generate/STIM_013.jpg	100
327.46	2.294	2294.3	generate	Run1	generate/STIM_014.jpg	99
333.235	1.54	1540.0	generate	Run1	generate/STIM_014.jpg	100
337.876	1.783	1782.8	generate	Run1	generate/STIM_014.jpg	99
341.755	1.608	1607.7	generate	Run1	generate/STIM_014.jpg	99
346.279	1.334	1334.4	generate	Run1	generate/STIM_014.jpg	99
349.878	2.296	2295.9	generate	Run1	generate/STIM_015.jpg	99
354.491	2.433	2433.2	generate	Run1	generate/STIM_015.jpg	100
358.967	1.936	1935.9	generate	Run1	generate/STIM_015.jpg	99
364.666	1.957	1956.8	generate	Run1	generate/STIM_015.jpg	99
369.623	0.934	934.2	generate	Run1	generate/STIM_015.jpg	100
373.832	2.292	2292.3	generate	Run1	generate/STIM_016.jpg	99
378.491	2.506	2506.0	generate	Run1	generate/STIM_016.jpg	100
383.928	1.628	1627.7	generate	Run1	generate/STIM_016.jpg	100
388.25	1.308	1307.5	generate	Run1	generate/STIM_016.jpg	100
393.221	2.103	2102.7	generate	Run1	generate/STIM_016.jpg	100
398.835	1.835	1834.8	generate	Run1	generate/STIM_017.jpg	100
403.638	1.258	1258.5	generate	Run1	generate/STIM_017.jpg	99
408.007	1.182	1181.7	generate	Run1	generate/STIM_017.jpg	99
411.771	1.509	1509.3	generate	Run1	generate/STIM_017.jpg	100
417.077	1.864	1863.9	generate	Run1	generate/STIM_017.jpg	100
421.952	1.661	1661.2	generate	Run1	generate/STIM_018.jpg	99
426.355	2.012	2012.3	generate	Run1	generate/STIM_018.jpg	100
431.151	1.305	1304.7	generate	Run1	generate/STIM_018.jpg	99
434.987	1.665	1664.9	generate	Run1	generate/STIM_018.jpg	100
438.972	1.408	1407.8	generate	Run1	generate/STIM_018.jpg	100
442.922	2.438	2437.7	generate	Run1	generate/STIM_019.jpg	100
448.739	1.79	1789.6	generate	Run1	generate/STIM_019.jpg	100
452.653	1.561	1560.7	generate	Run1	generate/STIM_019.jpg	99
456.61	1.232	1232.4	generate	Run1	generate/STIM_019.jpg	100
460.856	2.193	2192.6	generate	Run1	generate/STIM_019.jpg	100
466.057	1.975	1974.9	generate	Run1	generate/STIM_020.jpg	99
470.266	2.353	2353.0	generate	Run1	generate/STIM_020.jpg	100
475.176	1.412	1411.9	generate	Run1	generate/STIM_020.jpg	100
479.606	1.811	1810.8	generate	Run1	generate/STIM_020.jpg	99
483.923	1.105	1104.9	generate	Run1	generate/STIM_020.jpg	100
487.611	2.098	2097.5	generate	Run1	generate/STIM_021.jpg	99
493.477	1.144	1144.3	generate	Run1	generate/STIM_021.jpg	100
497.044	1.743	1742.7	generate	Run1	generate/STIM_021.jpg	99
501.742	1.43	1430.0	generate	Run1	generate/STIM_021.jpg	100
505.32	1.761	1760.6	generate	Run1	generate/STIM_021.jpg	99
510.553	1.584	1584.4	generate	Run1	generate/STIM_022.jpg	99
515.637	1.584	1583.9	generate	Run1	generate/STIM_022.jpg	99
520.451	1.155	1155.3	generate	Run1	generate/STIM_022.jpg	99
525.373	1.556	1556.2	generate	Run1	generate/STIM_022.jpg	99
530.244	1.732	1732.2	generate	Run1	generate/STIM_022.jpg	99
534.851	2.392	2392.2	generate	Run1	generate/STIM_023.jpg	99
539.853	1.655	1654.7	generate	Run1	generate/STIM_023.jpg	100
545.263	1.042	1041.5	generate	Run1	generate/STIM_023.jpg	100
548.353	1.371	1370.6	generate	Run1	generate/STIM_023.jpg	100
551.966	1.076	1076.0	generate	Run1	generate/STIM_023.jpg	99
555.729	2.001	2001.3	generate	Run1	generate/STIM_024.jpg	99
559.836	1.675	1674.7	generate	Run1	generate/STIM_024.jpg	100
564.214	2.183	2183.2	generate	Run1	generate/STIM_024.jpg	100
569.138	1.698	1698.4	generate	Run1	generate/STIM_024.jpg	99
574.437	1.352	1352.5	generate	Run1	generate/STIM_024.jpg	100
578.626	0.636	635.8	repeat	Run1	repeat/STIM_000.jpg	99
582.884	0.707	706.6	repeat	Run1	repeat/STIM_000.jpg	99
587.585	0.471	470.6	repeat	Run1	repeat/STIM_000.jpg	100
591.081	0.472	472.0	repeat	Run1	repeat/STIM_000.jpg	99
595.12	0.915	914.6	repeat	Run1	repeat/STIM_000.jpg	100
598.284	0.582	581.6	repeat	Run1	repeat/STIM_001.jpg	99
601.594	0.658	657.6	repeat	Run1	repeat/STIM_001.jpg	100
604.63	0.646	646.0	repeat	Run1	repeat/STIM_001.jpg	99
608.644	0.461	461.0	repeat	Run1	repeat/STIM_001.jpg	99
611.974	0.676	675.9	repeat	Run1	repeat/STIM_001.jpg	99
614.98	0.686	685.6	repeat	Run1	repeat/STIM_002.jpg	99
619.584	0.556	555.8	repeat	Run1	repeat/STIM_002.jpg	99
623.136	0.686	685.9	repeat	Run1	repeat/STIM_002.jpg	100
627.523	0.812	812.4	repeat	Run1	repeat/STIM_002.jpg	99
630.689	0.885	885.0	repeat	Run1	repeat/STIM_002.jpg	100
633.999	0.771	771.1	repeat	Run1	repeat/STIM_003.jpg	100
638.093	0.824	824.4	repeat	Run1	repeat/STIM_003.jpg	100
641.282	0.78	780.1	repeat	Run1	repeat/STIM_003.jpg	100
644.223	0.752	752.5	repeat	Run1	repeat/STIM_003.jpg	99
648.831	0.51	509.7	repeat	Run1	repeat/STIM_003.jpg	100
652.073	0.553	553.0	repeat	Run1	repeat/STIM_004.jpg	99
656.124	0.684	683.6	repeat	Run1	repeat/STIM_004.jpg	100
659.67	0.571	571.3	repeat	Run1	repeat/STIM_004.jpg	99
663.755	0.905	905.3	repeat	Run1	repeat/STIM_004.jpg	100
667.947	0.667	666.8	repeat	Run1	repeat/STIM_004.jpg	100
672.234	0.903	903.2	repeat	Run1	repeat/STIM_005.jpg	100
675.792	0.516	516.5	repeat	Run1	repeat/STIM_005.jpg	99
678.882	0.828	828.1	repeat	Run1	repeat/STIM_005.jpg	99
682.174	0.909	909.1	repeat	Run1	repeat/STIM_005.jpg	99
685.952	0.904	904.3	repeat	Run1	repeat/STIM_005.jpg	99
690.523	0.462	461.6	repeat	Run1	repeat/STIM_006.jpg	100
693.074	0.821	820.7	repeat	Run1	repeat/STIM_006.jpg	99
696.126	0.5	500.3	repeat	Run1	repeat/STIM_006.jpg	99
698.818	0.63	630.4	repeat	Run1	repeat/STIM_006.jpg	100
702.222	0.699	699.2	repeat	Run1	repeat/STIM_006.jpg	100
705.922	0.794	793.8	repeat	Run1	repeat/STIM_007.jpg	99
708.734	0.858	857.6	repeat	Run1	repeat/STIM_007.jpg	99
713.079	0.75	749.8	repeat	Run1	repeat/STIM_007.jpg	100
716.25	0.7	700.5	repeat	Run1	repeat/STIM_007.jpg	99
719.348	0.798	798.1	repeat	Run1	repeat/STIM_007.jpg	100
722.68	0.846	845.5	repeat	Run1	repeat/STIM_008.jpg	99
726.964	0.773	772.7	repeat	Run1	repeat/STIM_008.jpg	99
730.385	0.825	825.0	repeat	Run1	repeat/STIM_008.jpg	99
734.908	0.829	828.7	repeat	Run1	repeat/STIM_008.jpg	100
739.685	0.905	905.4	repeat	Run1	repeat/STIM_008.jpg	99
744.526	0.513	513.2	repeat	Run1	repeat/STIM_009.jpg	99
748.135	0.874	873.6	repeat	Run1	repeat/STIM_009.jpg	100
751.715	0.463	462.7	repeat	Run1	repeat/STIM_009.jpg	99
754.513	0.839	839.3	repeat	Run1	repeat/STIM_009.jpg	100
758.408	0.657	656.8	repeat	Run1	repeat/STIM_009.jpg	100
761.989	0.756	755.9	repeat	Run1	repeat/STIM_010.jpg	100
764.858	0.837	837.0	repeat	Run1	repeat/STIM_010.jpg	100
768.353	0.78	779.5	repeat	Run1	repeat/STIM_010.jpg	100
771.157	0.493	493.0	repeat	Run1	repeat/STIM_010.jpg	99
775.391	0.478	478.0	repeat	Run1	repeat/STIM_010.jpg	99
779.652	0.487	487.3	repeat	Run1	repeat/STIM_011.jpg	99
783.204	0.842	841.8	repeat	Run1	repeat/STIM_011.jpg	100
787.562	0.827	827.0	repeat	Run1	repeat/STIM_011.jpg	99
791.027	0.712	712.2	repeat	Run1	repeat/STIM_011.jpg	99
794.327	0.836	836.5	repeat	Run1	repeat/STIM_011.jpg	100
797.618	0.679	679.0	repeat	Run1	repeat/STIM_012.jpg	100
801.095	0.862	862.3	repeat	Run1	repeat/STIM_012.jpg	100
804.887	0.793	792.6	repeat	Run1	repeat/STIM_012.jpg	100
809.065	0.687	686.7	repeat	Run1	repeat/STIM_012.jpg	99
812.013	0.786	786.3	repeat	Run1	repeat/STIM_012.jpg	100
815.736	0.61	610.5	repeat	Run1	repeat/STIM_013.jpg	100
818.882	0.524	524.1	repeat	Run1	repeat/STIM_013.jpg	99
821.651	0.874	874.1	repeat	Run1	repeat/STIM_013.jpg	100
825.401	0.595	594.6	repeat	Run1	repeat/STIM_013.jpg	100
829.311	0.703	703.2	repeat	Run1	repeat/STIM_013.jpg	99
833.135	0.826	826.0	repeat	Run1	repeat/STIM_014.jpg	100
836.163	0.838	837.6	repeat	Run1	repeat/STIM_014.jpg	99
840.963	0.535	534.7	repeat	Run1	repeat/STIM_014.jpg	100
844.41	0.853	853.2	repeat	Run1	repeat/STIM_014.jpg	100
848.97	0.806	806.5	repeat	Run1	repeat/STIM_014.jpg	99
853.663	2.195	2195.3	generate	Run2	generate/STIM_000.jpg	100
858.052	1.062	1062.0	generate	Run2	generate/STIM_000.jpg	100
862.061	0.872	872.3	generate	Run2	generate/STIM_000.jpg	99
865.71	1.825	1824.9	generate	Run2	generate/STIM_000.jpg	99
871.066	1.619	1619.3	generate	Run2	generate/STIM_000.jpg	99
876.451	1.536	1535.5	generate	Run2	generate/STIM_001.jpg	99
880.098	1.206	1206.2	generate	Run2	generate/STIM_001.jpg	99
884.032	1.41	1409.8	generate	Run2	generate/STIM_001.jpg	99
888.326	1.218	1217.9	generate	Run2	generate/STIM_001.jpg	100
892.426	1.639	1639.2	generate	Run2	generate/STIM_001.jpg	100
897.826	1.807	1806.8	generate	Run2	generate/STIM_002.jpg	100
903.021	2.074	2074.0	generate	Run2	generate/STIM_002.jpg	99
907.521	1.615	1614.8	generate	Run2	generate/STIM_002.jpg	99
913.002	1.632	1632.0	generate	Run2	generate/STIM_002.jpg	99
917.57	1.49	1490.0	generate	Run2	generate/STIM_002.jpg	100
921.746	2.324	2323.8	generate	Run2	generate/STIM_003.jpg	100
926.364	1.057	1056.7	generate	Run2	generate/STIM_003.jpg	99
930.623	1.254	1254.1	generate	Run2	generate/STIM_003.jpg	99
934.099	1.478	1477.8	generate	Run2	generate/STIM_003.jpg	100
938.4	1.641	1641.0	generate	Run2	generate/STIM_003.jpg	99
943.296	1.097	1096.7	generate	Run2	generate/STIM_004.jpg	99
946.714	1.645	1645.2	generate	Run2	generate/STIM_004.jpg	100
950.965	0.919	919.3	generate	Run2	generate/STIM_004.jpg	99
954.854	1.028	1028.0	generate	Run2	generate/STIM_004.jpg	100
959.78	1.769	1769.2	generate	Run2	generate/STIM_004.jpg	100
964.097	1.726	1725.6	generate	Run2	generate/STIM_005.jpg	99
968.767	2.193	2192.6	generate	Run2	generate/STIM_005.jpg	100
974.887	1.812	1811.9	generate	Run2	generate/STIM_005.jpg	99
979.619	1.272	1272.4	generate	Run2	generate/STIM_005.jpg	100
983.696	1.09	1090.5	generate	Run2	generate/STIM_005.jpg	100
988.689	1.222	1222.2	generate	Run2	generate/STIM_006.jpg	99
993.295	1.919	1918.7	generate	Run2	generate/STIM_006.jpg	99
999.19	1.62	1619.5	generate	Run2	generate/STIM_006.jpg	99
1003.984	1.39	1390.5	generate	Run2	generate/STIM_006.jpg	100
1007.562	1.735	1735.2	generate	Run2	generate/STIM_006.jpg	99
1012.58	2.241	2241.4	generate	Run2	generate/STIM_007.jpg	99
1017.527	2.076	2075.6	generate	Run2	generate/STIM_007.jpg	99
1021.961	1.464	1464.4	generate	Run2	generate/STIM_007.jpg	99
1025.99	1.25	1250.2	generate	Run2	generate/STIM_007.jpg	99
1030.854	1.515	1515.1	generate	Run2	generate/STIM_007.jpg	100
1035.14	2.298	2297.6	generate	Run2	generate/STIM_008.jpg	100
1040.356	1.852	1852.0	generate	Run2	generate/STIM_008.jpg	99
1045.135	1.354	1353.9	generate	Run2	generate/STIM_008.jpg	99
1050.23	0.942	942.1	generate	Run2	generate/STIM_008.jpg	99
1055.142	1.309	1309.1	generate	Run2	generate/STIM_008.jpg	99
1059.16	2.067	2066.8	generate	Run2	generate/STIM_009.jpg	100
1063.937	1.434	1433.5	generate	Run2	generate/STIM_009.jpg	99
1067.508	1.45	1449.6	generate	Run2	generate/STIM_009.jpg	100
1072.246	0.974	974.3	generate	Run2	generate/STIM_009.jpg	99
1075.632	1.45	1450.2	generate	Run2	generate/STIM_009.jpg	99
1079.803	2.287	2287.1	generate	Run2	generate/STIM_010.jpg	99
1084.518	1.157	1156.7	generate	Run2	generate/STIM_010.jpg	99
1089.092	1.708	1707.7	generate	Run2	generate/STIM_010.jpg	99
1093.873	1.741	1740.6	generate	Run2	generate/STIM_010.jpg	100
1098.655	1.341	1340.8	generate	Run2	generate/STIM_010.jpg	99
1102.72	1.796	1795.7	generate	Run2	generate/STIM_011.jpg	100
1106.874	1.376	1375.8	generate	Run2	generate/STIM_011.jpg	99
1111.506	1.314	1314.0	generate	Run2	generate/STIM_011.jpg	99
1115.866	1.596	1596.4	generate	Run2	generate/STIM_011.jpg	99
1119.7	0.92	920.0	generate	Run2	generate/STIM_011.jpg	99
1123.709	2.165	2164.7	generate	Run2	generate/STIM_012.jpg	99
1128.989	1.218	1218.2	generate	Run2	generate/STIM_012.jpg	100
1132.825	1.034	1034.3	generate	Run2	generate/STIM_012.jpg	100
1136.794	1.733	1733.1	generate	Run2	generate/STIM_012.jpg	99
1142.464	1.673	1672.8	generate	Run2	generate/STIM_012.jpg	100
1146.623	1.341	1340.6	generate	Run2	generate/STIM_013.jpg	100
1151.165	2.159	2159.1	generate	Run2	generate/STIM_013.jpg	100
1156.805	1.959	1959.0	generate	Run2	generate/STIM_013.jpg	99
1161.326	1.28	1279.9	generate	Run2	generate/STIM_013.jpg	99
1165.589	1.239	1239.3	generate	Run2	generate/STIM_013.jpg	100
1168.903	2.059	2059.3	generate	Run2	generate/STIM_014.jpg	100
1173.761	2.179	2179.2	generate	Run2	generate/STIM_014.jpg	99
1178.656	1.497	1497.0	generate	Run2	generate/STIM_014.jpg	100
1182.758	1.504	1503.6	generate	Run2	generate/STIM_014.jpg	99
1188.166	1.872	1872.2	generate	Run2	generate/STIM_014.jpg	99
1192.705	2.197	2197.2	generate	Run2	generate/STIM_015.jpg	100
1197.111	1.824	1823.6	generate	Run2	generate/STIM_015.jpg	100
1202.65	0.959	959.0	generate	Run2	generate/STIM_015.jpg	100
1205.958	1.123	1123.3	generate	Run2	generate/STIM_015.jpg	99
1209.399	1.58	1580.5	generate	Run2	generate/STIM_015.jpg	100
1214.796	2.286	2285.9	generate	Run2	generate/STIM_016.jpg	99
1219.639	1.882	1881.7	generate	Run2	generate/STIM_016.jpg	100
1224.808	1.912	1911.9	generate	Run2	generate/STIM_016.jpg	100
1230.072	1.344	1343.6	generate	Run2	generate/STIM_016.jpg	99
1235.402	1.116	1115.6	generate	Run2	generate/STIM_016.jpg	100
1240.164	2.098	2097.7	generate	Run2	generate/STIM_017.jpg	100
1245.277	1.032	1032.1	generate	Run2	generate/STIM_017.jpg	99
1248.548	1.348	1347.9	generate	Run2	generate/STIM_017.jpg	99
1253.418	1.203	1202.9	generate	Run2	generate/STIM_017.jpg	99
1257.989	1.009	1009.2	generate	Run2	generate/STIM_017.jpg	100
1261.287	1.286	1286.2	generate	Run2	generate/STIM_018.jpg	100
1265.956	1.897	1897.0	generate	Run2	generate/STIM_018.jpg	100
1271.088	1.797	1797.3	generate	Run2	generate/STIM_018.jpg	100
1275.265	1.237	1237.1	generate	Run2	generate/STIM_018.jpg	99
1279.228	1.196	1196.2	generate	Run2	generate/STIM_018.jpg	99
1284.15	1.121	1120.6	generate	Run2	generate/STIM_019.jpg	99
1288.282	0.945	944.7	generate	Run2	generate/STIM_019.jpg	100
1293.095	1.824	1823.6	generate	Run2	generate/STIM_019.jpg	99
1298.774	0.884	883.7	generate	Run2	generate/STIM_019.jpg	99
1302.504	1.407	1407.4	generate	Run2	generate/STIM_019.jpg	99
1307.544	1.673	1673.0	generate	Run2	generate/STIM_020.jpg	100
1312.209	1.689	1689.1	generate	Run2	generate/STIM_020.jpg	99
1316.788	1.881	1881.2	generate	Run2	generate/STIM_020.jpg	99
1321.405	1.539	1539.1	generate	Run2	generate/STIM_020.jpg	100
1325.902	1.516	1516.2	generate	Run2	generate/STIM_020.jpg	99
1330.031	1.711	1711.4	generate	Run2	generate/STIM_021.jpg	99
1334.584	1.842	1842.0	generate	Run2	generate/STIM_021.jpg	99
1339.886	1.681	1681.0	generate	Run2	generate/STIM_021.jpg	100
1343.616	1.546	1546.0	generate	Run2	generate/STIM_021.jpg	100
1348.126	1.576	1576.1	generate	Run2	generate/STIM_021.jpg	100
1352.026	1.507	1506.7	generate	Run2	generate/STIM_022.jpg	100
1357.47	2.045	2045.4	generate	Run2	generate/STIM_022.jpg	99
1363.169	1.816	1815.6	generate	Run2	generate/STIM_022.jpg	99
1368.509	1.857	1857.0	generate	Run2	generate/STIM_022.jpg	100
1373.269	1.647	1646.6	generate	Run2	generate/STIM_022.jpg	99
1378.777	1.106	1105.7	generate	Run2	generate/STIM_023.jpg	100
1383.077	2.018	2018.0	generate	Run2	generate/STIM_023.jpg	100
1387.235	1.638	1638.4	generate	Run2	generate/STIM_023.jpg	99
1391.649	1.201	1201.0	generate	Run2	generate/STIM_023.jpg	99
1396.657	1.692	1691.7	generate	Run2	generate/STIM_023.jpg	100
1401.775	1.241	1241.4	generate	Run2	generate/STIM_024.jpg	99
1405.549	1.027	1026.6	generate	Run2	generate/STIM_024.jpg	100
1409.146	0.872	871.8	generate	Run2	generate/STIM_024.jpg	100
1413.001	1.33	1329.7	generate	Run2	generate/STIM_024.jpg	100
1416.604	1.728	1727.7	generate	Run2	generate/STIM_024.jpg	100
1421.035	0.509	509.3	repeat	Run2	repeat/STIM_000.jpg	99
1425.342	0.861	861.3	repeat	Run2	repeat/STIM_000.jpg	100
1429.551	0.865	864.9	repeat	Run2	repeat/STIM_000.jpg	99
1432.728	0.605	604.7	repeat	Run2	repeat/STIM_000.jpg	100
1437.074	0.595	594.9	repeat	Run2	repeat/STIM_000.jpg	99
1439.896	0.616	616.5	repeat	Run2	repeat/STIM_001.jpg	99
1443.661	0.864	863.9	repeat	Run2	repeat/STIM_001.jpg	100
1448.115	0.682	682.0	repeat	Run2	repeat/STIM_001.jpg	99
1452.781	0.746	746.1	repeat	Run2	repeat/STIM_001.jpg	99
1455.865	0.677	676.7	repeat	Run2	repeat/STIM_001.jpg	100
1459.503	0.881	881.1	repeat	Run2	repeat/STIM_002.jpg	99
1463.776	0.778	778.4	repeat	Run2	repeat/STIM_002.jpg	100
1468.328	0.902	902.4	repeat	Run2	repeat/STIM_002.jpg	100
1471.638	0.461	460.6	repeat	Run2	repeat/STIM_002.jpg	100
1474.364	0.566	566.3	repeat	Run2	repeat/STIM_002.jpg	100
1477.129	0.762	762.3	repeat	Run2	repeat/STIM_003.jpg	100
1480.155	0.809	808.7	repeat	Run2	repeat/STIM_003.jpg	100
1484.358	0.776	776.1	repeat	Run2	repeat/STIM_003.jpg	100
1488.603	0.802	801.6	repeat	Run2	repeat/STIM_003.jpg	100
1493.304	0.516	516.4	repeat	Run2	repeat/STIM_003.jpg	100
1496.251	0.703	703.3	repeat	Run2	repeat/STIM_004.jpg	100
1500.372	0.519	519.1	repeat	Run2	repeat/STIM_004.jpg	99
1504.389	0.776	775.5	repeat	Run2	repeat/STIM_004.jpg	100
1509.122	0.707	707.0	repeat	Run2	repeat/STIM_004.jpg	99
1513.3	0.558	557.7	repeat	Run2	repeat/STIM_004.jpg	99
1517.212	0.528	527.6	repeat	Run2	repeat/STIM_005.jpg	100
1521.086	0.616	615.7	repeat	Run2	repeat/STIM_005.jpg	100
1525.041	0.754	753.6	repeat	Run2	repeat/STIM_005.jpg	100
1529.24	0.532	532.2	repeat	Run2	repeat/STIM_005.jpg	99
1531.878	0.689	688.6	repeat	Run2	repeat/STIM_005.jpg	100
1535.631	0.65	649.8	repeat	Run2	repeat/STIM_006.jpg	99
1539.437	0.912	912.3	repeat	Run2	repeat/STIM_006.jpg	100
1543.47	0.737	737.2	repeat	Run2	repeat/STIM_006.jpg	99
1547.043	0.534	534.1	repeat	Run2	repeat/STIM_006.jpg	99
1550.224	0.893	893.1	repeat	Run2	repeat/STIM_006.jpg	100
1553.223	0.634	634.1	repeat	Run2	repeat/STIM_007.jpg	99
1557.729	0.575	575.2	repeat	Run2	repeat/STIM_007.jpg	99
1561.12	0.564	563.6	repeat	Run2	repeat/STIM_007.jpg	99
1565.231	0.708	708.5	repeat	Run2	repeat/STIM_007.jpg	100
1569.493	0.7	699.9	repeat	Run2	repeat/STIM_007.jpg	100
1572.621	0.871	870.9	repeat	Run2	repeat/STIM_008.jpg	100
1577.222	0.552	552.2	repeat	Run2	repeat/STIM_008.jpg	100
1581.45	0.753	752.7	repeat	Run2	repeat/STIM_008.jpg	99
1585.826	0.583	582.7	repeat	Run2	repeat/STIM_008.jpg	99
1588.69	0.898	897.5	repeat	Run2	repeat/STIM_008.jpg	100
1591.607	0.663	662.8	repeat	Run2	repeat/STIM_009.jpg	100
1595.902	0.632	632.0	repeat	Run2	repeat/STIM_009.jpg	100
1600.02	0.527	527.3	repeat	Run2	repeat/STIM_009.jpg	99
1604.082	0.756	755.9	repeat	Run2	repeat/STIM_009.jpg	99
1607.405	0.713	713.1	repeat	Run2	repeat/STIM_009.jpg	100
1611.622	0.712	712.2	repeat	Run2	repeat/STIM_010.jpg	100
1615.461	0.682	682.0	repeat	Run2	repeat/STIM_010.jpg	99
1619.734	0.887	887.3	repeat	Run2	repeat/STIM_010.jpg	100
1622.88	0.81	809.7	repeat	Run2	repeat/STIM_010.jpg	99
1626.025	0.827	826.8	repeat	Run2	repeat/STIM_010.jpg	100
1629.191	0.872	871.8	repeat	Run2	repeat/STIM_011.jpg	99
1633.052	0.663	662.8	repeat	Run2	repeat/STIM_011.jpg	100
1637.504	0.596	596.3	repeat	Run2	repeat/STIM_011.jpg	99
1641.188	0.561	560.9	repeat	Run2	repeat/STIM_011.jpg	99
1645.598	0.759	759.3	repeat	Run2	repeat/STIM_011.jpg	99
1649.552	0.84	840.4	repeat	Run2	repeat/STIM_012.jpg	99
1652.895	0.482	482.0	repeat	Run2	repeat/STIM_012.jpg	100
1656.225	0.492	491.5	repeat	Run2	repeat/STIM_012.jpg	100
1659.874	0.843	843.2	repeat	Run2	repeat/STIM_012.jpg	99
1663.578	0.613	613.2	repeat	Run2	repeat/STIM_012.jpg	100
1666.866	0.471	471.0	repeat	Run2	repeat/STIM_013.jpg	99
1670.829	0.71	709.8	repeat	Run2	repeat/STIM_013.jpg	100
1673.847	0.802	801.5	repeat	Run2	repeat/STIM_013.jpg	99
1677.666	0.672	672.2	repeat	Run2	repeat/STIM_013.jpg	100
1682.121	0.561	561.3	repeat	Run2	repeat/STIM_013.jpg	100
1685.857	0.681	681.1	repeat	Run2	repeat/STIM_014.jpg	100
1688.983	0.532	532.1	repeat	Run2	repeat/STIM_014.jpg	100
1693.176	0.582	582.1	repeat	Run2	repeat/STIM_014.jpg	100
1697.031	0.614	613.7	repeat	Run2	repeat/STIM_014.jpg	100
1701.285	0.768	768.1	repeat	Run2	repeat/STIM_014.jpg	99
1704.417	1.809	1808.9	generate	Run3	generate/STIM_000.jpg	99
1709.56	0.803	803.2	generate	Run3	generate/STIM_000.jpg	99
1713.424	1.281	1281.3	generate	Run3	generate/STIM_000.jpg	99
1717.252	1.497	1496.8	generate	Run3	generate/STIM_000.jpg	99
1720.905	0.882	881.5	generate	Run3	generate/STIM_000.jpg	99
1725.52	1.182	1182.3	generate	Run3	generate/STIM_001.jpg	100
1729.369	1.822	1821.9	generate	Run3	generate/STIM_001.jpg	100
1733.616	1.433	1432.8	generate	Run3	generate/STIM_001.jpg	100
1738.29	0.822	821.8	generate	Run3	generate/STIM_001.jpg	99
1742.294	1.091	1090.6	generate	Run3	generate/STIM_001.jpg	100
1746.816	1.59	1590.1	generate	Run3	generate/STIM_002.jpg	99
1751.546	1.145	1144.7	generate	Run3	generate/STIM_002.jpg	100
1755.256	1.103	1103.3	generate	Run3	generate/STIM_002.jpg	99
1758.466	1.789	1788.7	generate	Run3	generate/STIM_002.jpg	99
1763.235	1.183	1183.2	generate	Run3	generate/STIM_002.jpg	99
1768.258	0.881	880.6	generate	Run3	generate/STIM_003.jpg	99
1772.489	1.665	1665.0	generate	Run3	generate/STIM_003.jpg	99
1776.264	1.404	1403.7	generate	Run3	generate/STIM_003.jpg	99
1781.547	0.943	942.7	generate	Run3	generate/STIM_003.jpg	100
1785.439	1.373	1373.1	generate	Run3	generate/STIM_003.jpg	100
1789.686	1.753	1753.2	generate	Run3	generate/STIM_004.jpg	100
1793.562	1.103	1103.3	generate	Run3	generate/STIM_004.jpg	100
1797.723	1.622	1621.7	generate	Run3	generate/STIM_004.jpg	99
1801.982	1.117	1116.7	generate	Run3	generate/STIM_004.jpg	100
1806.303	1.453	1453.0	generate	Run3	generate/STIM_004.jpg	99
1810.76	1.114	1113.7	generate	Run3	generate/STIM_005.jpg	100
1815.075	1.325	1324.7	generate	Run3	generate/STIM_005.jpg	100
1819.066	1.117	1117.2	generate	Run3	generate/STIM_005.jpg	99
1823.241	1.815	1815.0	generate	Run3	generate/STIM_005.jpg	99
1827.282	1.537	1537.2	generate	Run3	generate/STIM_005.jpg	99
1831.385	1.465	1465.2	generate	Run3	generate/STIM_006.jpg	100
1835.089	0.991	990.7	generate	Run3	generate/STIM_006.jpg	99
1838.39	1.492	1491.7	generate	Run3	generate/STIM_006.jpg	100
1843.638	1.07	1069.8	generate	Run3	generate/STIM_006.jpg	100
1847.512	1.566	1566.4	generate	Run3	generate/STIM_006.jpg	99
1852.767	1.898	1898.3	generate	Run3	generate/STIM_007.jpg	100
1858.294	1.382	1382.0	generate	Run3	generate/STIM_007.jpg	99
1863.49	0.892	892.4	generate	Run3	generate/STIM_007.jpg	99
1867.307	1.386	1385.5	generate	Run3	generate/STIM_007.jpg	99
1871.386	1.816	1816.3	generate	Run3	generate/STIM_007.jpg	99
1876.421	1.748	1748.1	generate	Run3	generate/STIM_008.jpg	100
1881.205	1.57	1570.1	generate	Run3	generate/STIM_008.jpg	100
1886.135	1.085	1085.2	generate	Run3	generate/STIM_008.jpg	100
1890.741	1.612	1611.7	generate	Run3	generate/STIM_008.jpg	99
1895.821	1.364	1364.0	generate	Run3	generate/STIM_008.jpg	99
1900.217	0.85	850.2	generate	Run3	generate/STIM_009.jpg	99
1904.962	0.801	801.1	generate	Run3	generate/STIM_009.jpg	100
1909.376	1.537	1537.4	generate	Run3	generate/STIM_009.jpg	99
1913.548	1.375	1374.8	generate	Run3	generate/STIM_009.jpg	100
1917.044	1.115	1115.1	generate	Run3	generate/STIM_009.jpg	100
1921.827	0.816	815.5	generate	Run3	generate/STIM_010.jpg	99
1925.836	0.997	996.8	generate	Run3	generate/STIM_010.jpg	100
1929.009	1.592	1591.8	generate	Run3	generate/STIM_010.jpg	100
1933.133	1.246	1246.1	generate	Run3	generate/STIM_010.jpg	99
1937.153	1.56	1559.8	generate	Run3	generate/STIM_010.jpg	100
1942.283	1.53	1530.2	generate	Run3	generate/STIM_011.jpg	99
1945.922	1.356	1356.2	generate	Run3	generate/STIM_011.jpg	100
1950.461	0.808	808.0	generate	Run3	generate/STIM_011.jpg	100
1954.423	1.389	1388.7	generate	Run3	generate/STIM_011.jpg	100
1958.942	1.369	1369.1	generate	Run3	generate/STIM_011.jpg	100
1962.776	0.875	875.2	generate	Run3	generate/STIM_012.jpg	100
1966.531	0.991	991.4	generate	Run3	generate/STIM_012.jpg	99
1971.252	1.022	1022.3	generate	Run3	generate/STIM_012.jpg	100
1974.583	1.052	1051.5	generate	Run3	generate/STIM_012.jpg	99
1978.773	1.65	1650.5	generate	Run3	generate/STIM_012.jpg	99
1983.102	1.377	1377.3	generate	Run3	generate/STIM_013.jpg	99
1988.165	1.213	1213.0	generate	Run3	generate/STIM_013.jpg	100
1992.132	0.966	966.3	generate	Run3	generate/STIM_013.jpg	100
1995.181	1.484	1484.5	generate	Run3	generate/STIM_013.jpg	99
2000.0	1.068	1067.9	generate	Run3	generate/STIM_013.jpg	100
2004.965	1.323	1323.4	generate	Run3	generate/STIM_014.jpg	99
2008.823	1.68	1679.7	generate	Run3	generate/STIM_014.jpg	100
2012.635	1.194	1194.5	generate	Run3	generate/STIM_014.jpg	99
2017.262	1.68	1680.2	generate	Run3	generate/STIM_014.jpg	100
2020.991	1.741	1741.0	generate	Run3	generate/STIM_014.jpg	100
2025.101	1.126	1125.8	generate	Run3	generate/STIM_015.jpg	99
2028.989	1.348	1347.8	generate	Run3	generate/STIM_015.jpg	99
2034.294	1.905	1905.2	generate	Run3	generate/STIM_015.jpg	100
2039.658	1.568	1568.1	generate	Run3	generate/STIM_015.jpg	99
2045.205	1.185	1185.3	generate	Run3	generate/STIM_015.jpg	99
2048.672	0.815	814.8	generate	Run3	generate/STIM_016.jpg	99
2052.545	0.776	775.7	generate	Run3	generate/STIM_016.jpg	99
2057.039	1.792	1791.9	generate	Run3	generate/STIM_016.jpg	100
2062.707	1.418	1418.5	generate	Run3	generate/STIM_016.jpg	100
2066.813	1.44	1440.0	generate	Run3	generate/STIM_016.jpg	100
2072.081	1.596	1595.9	generate	Run3	generate/STIM_017.jpg	100
2076.701	1.83	1830.1	generate	Run3	generate/STIM_017.jpg	100
2081.081	0.976	975.9	generate	Run3	generate/STIM_017.jpg	99
2085.209	1.12	1119.5	generate	Run3	generate/STIM_017.jpg	100
2088.97	1.11	1110.2	generate	Run3	generate/STIM_017.jpg	100
2092.533	1.269	1269.4	generate	Run3	generate/STIM_018.jpg	99
2097.683	1.321	1321.3	generate	Run3	generate/STIM_018.jpg	100
2101.794	1.263	1262.8	generate	Run3	generate/STIM_018.jpg	99
2106.255	1.01	1009.7	generate	Run3	generate/STIM_018.jpg	100
2110.022	1.494	1494.1	generate	Run3	generate/STIM_018.jpg	99
2115.26	1.344	1344.2	generate	Run3	generate/STIM_019.jpg	99
2119.881	1.866	1865.9	generate	Run3	generate/STIM_019.jpg	100
2125.179	1.453	1453.3	generate	Run3	generate/STIM_019.jpg	99
2129.711	1.84	1840.1	generate	Run3	generate/STIM_019.jpg	100
2135.048	1.895	1894.8	generate	Run3	generate/STIM_019.jpg	99
2139.803	0.964	963.7	generate	Run3	generate/STIM_020.jpg	99
2144.253	0.825	825.3	generate	Run3	generate/STIM_020.jpg	100
2149.065	1.463	1463.1	generate	Run3	generate/STIM_020.jpg	100
2154.026	0.991	991.2	generate	Run3	generate/STIM_020.jpg	99
2157.624	1.91	1909.6	generate	Run3	generate/STIM_020.jpg	99
2162.402	1.155	1154.6	generate	Run3	generate/STIM_021.jpg	100
2166.479	1.43	1430.4	generate	Run3	generate/STIM_021.jpg	100
2170.442	1.25	1249.6	generate	Run3	generate/STIM_021.jpg	100
2174.416	0.947	946.6	generate	Run3	generate/STIM_021.jpg	100
2178.764	1.288	1287.6	generate	Run3	generate/STIM_021.jpg	99
2182.884	1.7	1700.3	generate	Run3	generate/STIM_022.jpg	100
2188.154	1.595	1595.1	generate	Run3	generate/STIM_022.jpg	99
2192.062	1.413	1413.3	generate	Run3	generate/STIM_022.jpg	99
2196.567	1.057	1056.6	generate	Run3	generate/STIM_022.jpg	100
2200.362	1.291	1291.0	generate	Run3	generate/STIM_022.jpg	100
2204.41	1.784	1784.2	generate	Run3	generate/STIM_023.jpg	100
2208.975	1.75	1750.2	generate	Run3	generate/STIM_023.jpg	100
2213.456	0.881	880.6	generate	Run3	generate/STIM_023.jpg	100
2218.306	1.63	1630.4	generate	Run3	generate/STIM_023.jpg	100
2223.908	1.452	1452.0	generate	Run3	generate/STIM_023.jpg	99
2228.412	0.771	770.6	generate	Run3	generate/STIM_024.jpg	100
2232.862	1.134	1133.7	generate	Run3	generate/STIM_024.jpg	100
2236.152	1.15	1150.2	generate	Run3	generate/STIM_024.jpg	100
2240.294	1.204	1203.5	generate	Run3	generate/STIM_024.jpg	99
2245.341	0.98	979.6	generate	Run3	generate/STIM_024.jpg	100
2249.108	0.87	869.5	repeat	Run3	repeat/STIM_000.jpg	99
2253.54	0.716	716.1	repeat	Run3	repeat/STIM_000.jpg	99
2258.254	0.869	869.1	repeat	Run3	repeat/STIM_000.jpg	100
2263.075	0.836	836.0	repeat	Run3	repeat/STIM_000.jpg	100
2267.4	0.579	578.6	repeat	Run3	repeat/STIM_000.jpg	99
2270.495	0.817	816.8	repeat	Run3	repeat/STIM_001.jpg	99
2274.375	0.48	479.9	repeat	Run3	repeat/STIM_001.jpg	99
2277.981	0.87	869.9	repeat	Run3	repeat/STIM_001.jpg	100
2281.777	0.744	744.4	repeat	Run3	repeat/STIM_001.jpg	99
2286.091	0.891	891.0	repeat	Run3	repeat/STIM_001.jpg	100
2290.917	0.796	796.1	repeat	Run3	repeat/STIM_002.jpg	100
2295.505	0.485	485.3	repeat	Run3	repeat/STIM_002.jpg	99
2298.823	0.586	586.1	repeat	Run3	repeat/STIM_002.jpg	99
2303.289	0.779	779.1	repeat	Run3	repeat/STIM_002.jpg	100
2306.8	0.471	471.0	repeat	Run3	repeat/STIM_002.jpg	99
2310.138	0.763	763.0	repeat	Run3	repeat/STIM_003.jpg	100
2314.865	0.845	845.3	repeat	Run3	repeat/STIM_003.jpg	100
2318.797	0.615	614.9	repeat	Run3	repeat/STIM_003.jpg	100
2321.873	0.858	858.1	repeat	Run3	repeat/STIM_003.jpg	100
2326.204	0.744	743.6	repeat	Run3	repeat/STIM_003.jpg	100
2329.688	0.531	530.6	repeat	Run3	repeat/STIM_004.jpg	100
2333.807	0.527	527.2	repeat	Run3	repeat/STIM_004.jpg	99
2336.974	0.678	677.8	repeat	Run3	repeat/STIM_004.jpg	99
2341.118	0.677	677.4	repeat	Run3	repeat/STIM_004.jpg	99
2344.002	0.913	912.9	repeat	Run3	repeat/STIM_004.jpg	100
2347.054	0.546	546.4	repeat	Run3	repeat/STIM_005.jpg	99
2350.42	0.512	512.5	repeat	Run3	repeat/STIM_005.jpg	100
2354.555	0.482	482.1	repeat	Run3	repeat/STIM_005.jpg	99
2358.483	0.886	886.0	repeat	Run3	repeat/STIM_005.jpg	100
2362.807	0.842	841.5	repeat	Run3	repeat/STIM_005.jpg	100
2367.123	0.848	848.5	repeat	Run3	repeat/STIM_006.jpg	100
2370.021	0.805	805.0	repeat	Run3	repeat/STIM_006.jpg	99
2374.577	0.557	556.9	repeat	Run3	repeat/STIM_006.jpg	99
2378.749	0.886	886.1	repeat	Run3	repeat/STIM_006.jpg	99
2382.388	0.491	491.1	repeat	Run3	repeat/STIM_006.jpg	99
2386.615	0.833	833.2	repeat	Run3	repeat/STIM_007.jpg	99
2390.988	0.559	558.9	repeat	Run3	repeat/STIM_007.jpg	99
2395.063	0.529	528.8	repeat	Run3	repeat/STIM_007.jpg	100
2398.537	0.751	751.3	repeat	Run3	repeat/STIM_007.jpg	100
2401.81	0.874	873.6	repeat	Run3	repeat/STIM_007.jpg	99
2406.26	0.606	605.5	repeat	Run3	repeat/STIM_008.jpg	99
2409.821	0.492	491.5	repeat	Run3	repeat/STIM_008.jpg	99
2412.571	0.813	813.4	repeat	Run3	repeat/STIM_008.jpg	100
2415.574	0.683	683.0	repeat	Run3	repeat/STIM_008.jpg	99
2418.958	0.827	827.2	repeat	Run3	repeat/STIM_008.jpg	99
2423.485	0.697	697.0	repeat	Run3	repeat/STIM_009.jpg	100
2427.358	0.688	687.9	repeat	Run3	repeat/STIM_009.jpg	100
2431.599	0.721	721.0	repeat	Run3	repeat/STIM_009.jpg	100
2434.733	0.516	515.8	repeat	Run3	repeat/STIM_009.jpg	100
2437.398	0.834	834.1	repeat	Run3	repeat/STIM_009.jpg	100
2441.683	0.536	535.6	repeat	Run3	repeat/STIM_010.jpg	100
2444.322	0.489	488.7	repeat	Run3	repeat/STIM_010.jpg	100
2447.892	0.613	612.6	repeat	Run3	repeat/STIM_010.jpg	100
2451.423	0.706	705.8	repeat	Run3	repeat/STIM_010.jpg	100
2455.873	0.898	898.2	repeat	Run3	repeat/STIM_010.jpg	99
2460.431	0.675	675.1	repeat	Run3	repeat/STIM_011.jpg	100
2465.005	0.643	643.1	repeat	Run3	repeat/STIM_011.jpg	100
2468.824	0.714	713.9	repeat	Run3	repeat/STIM_011.jpg	100
2472.258	0.486	486.3	repeat	Run3	repeat/STIM_011.jpg	99
2476.015	0.844	844.1	repeat	Run3	repeat/STIM_011.jpg	100
2479.998	0.728	727.6	repeat	Run3	repeat/STIM_012.jpg	100
2483.389	0.503	503.1	repeat	Run3	repeat/STIM_012.jpg	99
2486.671	0.877	876.8	repeat	Run3	repeat/STIM_012.jpg	100
2490.699	0.508	508.4	repeat	Run3	repeat/STIM_012.jpg	100
2494.834	0.854	854.5	repeat	Run3	repeat/STIM_012.jpg	100
2498.73	0.772	771.7	repeat	Run3	repeat/STIM_013.jpg	100
2501.972	0.642	642.4	repeat	Run3	repeat/STIM_013.jpg	99
2504.885	0.746	745.9	repeat	Run3	repeat/STIM_013.jpg	99
2508.952	0.576	576.0	repeat	Run3	repeat/STIM_013.jpg	100
2512.072	0.879	878.9	repeat	Run3	repeat/STIM_013.jpg	100
2515.1	0.46	459.5	repeat	Run3	repeat/STIM_014.jpg	99
2517.67	0.522	522.4	repeat	Run3	repeat/STIM_014.jpg	100
2520.601	0.848	847.8	repeat	Run3	repeat/STIM_014.jpg	100
2524.698	0.898	897.5	repeat	Run3	repeat/STIM_014.jpg	100
2528.624	0.826	825.8	repeat	Run3	repeat/STIM_014.jpg	99
2531.865	1.414	1414.3	generate	Run4	generate/STIM_000.jpg	99
2536.992	0.849	848.7	generate	Run4	generate/STIM_000.jpg	100
2540.394	1.838	1837.8	generate	Run4	generate/STIM_000.jpg	100
2545.764	0.825	824.7	generate	Run4	generate/STIM_000.jpg	100
2549.524	1.147	1147.3	generate	Run4	generate/STIM_000.jpg	99
2553.075	0.854	854.1	generate	Run4	generate/STIM_001.jpg	99
2556.005	1.535	1535.1	generate	Run4	generate/STIM_001.jpg	99
2560.925	1.735	1735.3	generate	Run4	generate/STIM_001.jpg	99
2566.375	0.959	959.0	generate	Run4	generate/STIM_001.jpg	100
2570.455	1.291	1290.9	generate	Run4	generate/STIM_001.jpg	100
2573.969	0.782	782.5	generate	Run4	generate/STIM_002.jpg	100
2577.372	1.18	1180.4	generate	Run4	generate/STIM_002.jpg	99
2581.361	1.704	1703.9	generate	Run4	generate/STIM_002.jpg	99
2586.578	1.732	1732.1	generate	Run4	generate/STIM_002.jpg	100
2591.015	1.237	1236.6	generate	Run4	generate/STIM_002.jpg	99
2595.371	1.499	1499.1	generate	Run4	generate/STIM_003.jpg	99
2598.965	1.594	1594.3	generate	Run4	generate/STIM_003.jpg	100
2603.212	1.473	1472.9	generate	Run4	generate/STIM_003.jpg	99
2607.388	1.766	1765.7	generate	Run4	generate/STIM_003.jpg	100
2611.444	1.08	1080.4	generate	Run4	generate/STIM_003.jpg	100
2615.474	0.965	964.7	generate	Run4	generate/STIM_004.jpg	99
2618.738	1.026	1025.6	generate	Run4	generate/STIM_004.jpg	99
2622.775	1.414	1414.2	generate	Run4	generate/STIM_004.jpg	99
2626.915	1.545	1545.3	generate	Run4	generate/STIM_004.jpg	99
2631.792	1.69	1689.9	generate	Run4	generate/STIM_004.jpg	99
2637.106	1.846	1846.5	generate	Run4	generate/STIM_005.jpg	100
2641.461	1.54	1540.2	generate	Run4	generate/STIM_005.jpg	100
2646.172	1.336	1336.0	generate	Run4	generate/STIM_005.jpg	99
2649.962	1.666	1665.8	generate	Run4	generate/STIM_005.jpg	100
2653.879	0.966	965.5	generate	Run4	generate/STIM_005.jpg	100
2657.787	1.899	1898.7	generate	Run4	generate/STIM_006.jpg	100
2662.429	1.78	1779.7	generate	Run4	generate/STIM_006.jpg	100
2666.695	1.401	1401.0	generate	Run4	generate/STIM_006.jpg	99
2671.317	1.577	1577.3	generate	Run4	generate/STIM_006.jpg	100
2675.124	1.156	1156.0	generate	Run4	generate/STIM_006.jpg	99
2679.469	1.228	1227.8	generate	Run4	generate/STIM_007.jpg	99
2683.107	1.22	1219.6	generate	Run4	generate/STIM_007.jpg	100
2687.934	1.223	1223.4	generate	Run4	generate/STIM_007.jpg	99
2691.264	1.024	1023.5	generate	Run4	generate/STIM_007.jpg	99
2694.771	1.251	1251.4	generate	Run4	generate/STIM_007.jpg	99
2698.911	1.627	1627.4	generate	Run4	generate/STIM_008.jpg	99
2704.308	1.218	1217.8	generate	Run4	generate/STIM_008.jpg	100
2707.546	1.773	1773.0	generate	Run4	generate/STIM_008.jpg	99
2712.465	1.635	1634.6	generate	Run4	generate/STIM_008.jpg	100
2717.674	0.903	903.0	generate	Run4	generate/STIM_008.jpg	99
2722.008	1.325	1325.1	generate	Run4	generate/STIM_009.jpg	99
2726.616	1.668	1668.3	generate	Run4	generate/STIM_009.jpg	100
2730.805	1.878	1878.1	generate	Run4	generate/STIM_009.jpg	100
2735.928	1.324	1323.6	generate	Run4	generate/STIM_009.jpg	99
2741.129	0.888	887.6	generate	Run4	generate/STIM_009.jpg	100
2744.956	0.951	951.0	generate	Run4	generate/STIM_010.jpg	100
2749.419	1.75	1750.5	generate	Run4	generate/STIM_010.jpg	99
2754.977	1.731	1730.8	generate	Run4	generate/STIM_010.jpg	100
2759.096	1.913	1912.7	generate	Run4	generate/STIM_010.jpg	99
2763.441	1.419	1419.2	generate	Run4	generate/STIM_010.jpg	100
2766.916	1.539	1539.0	generate	Run4	generate/STIM_011.jpg	100
2772.133	0.962	961.8	generate	Run4	generate/STIM_011.jpg	100
2776.259	1.508	1507.7	generate	Run4	generate/STIM_011.jpg	99
2780.89	1.126	1126.0	generate	Run4	generate/STIM_011.jpg	99
2785.829	0.848	848.2	generate	Run4	generate/STIM_011.jpg	100
2789.569	0.773	773.4	generate	Run4	generate/STIM_012.jpg	100
2794.307	0.954	953.5	generate	Run4	generate/STIM_012.jpg	99
2798.408	0.934	934.4	generate	Run4	generate/STIM_012.jpg	99
2802.626	0.932	932.1	generate	Run4	generate/STIM_012.jpg	100
2807.092	1.75	1749.8	generate	Run4	generate/STIM_012.jpg	99
2811.636	1.339	1339.3	generate	Run4	generate/STIM_013.jpg	100
2816.754	0.836	835.5	generate	Run4	generate/STIM_013.jpg	100
2821.021	0.925	925.4	generate	Run4	generate/STIM_013.jpg	100
2825.217	1.22	1220.3	generate	Run4	generate/STIM_013.jpg	100
2828.45	1.237	1236.7	generate	Run4	generate/STIM_013.jpg	100
2833.034	0.948	948.2	generate	Run4	generate/STIM_014.jpg	99
2836.382	0.879	878.9	generate	Run4	generate/STIM_014.jpg	99
2841.127	1.478	1477.5	generate	Run4	generate/STIM_014.jpg	100
2846.0	0.977	976.7	generate	Run4	generate/STIM_014.jpg	100
2850.562	1.657	1657.0	generate	Run4	generate/STIM_014.jpg	99
2854.998	0.821	820.8	generate	Run4	generate/STIM_015.jpg	99
2858.565	1.329	1329.2	generate	Run4	generate/STIM_015.jpg	99
2862.431	1.125	1125.3	generate	Run4	generate/STIM_015.jpg	99
2866.751	1.747	1747.1	generate	Run4	generate/STIM_015.jpg	99
2870.8	1.727	1727.1	generate	Run4	generate/STIM_015.jpg	99
2875.841	1.642	1642.3	generate	Run4	generate/STIM_016.jpg	100
2881.15	1.295	1295.4	generate	Run4	generate/STIM_016.jpg	99
2884.804	1.687	1687.1	generate	Run4	generate/STIM_016.jpg	99
2889.669	1.214	1214.0	generate	Run4	generate/STIM_016.jpg	100
2893.019	0.919	919.4	generate	Run4	generate/STIM_016.jpg	100
2897.475	0.843	843.3	generate	Run4	generate/STIM_017.jpg	100
2901.282	1.691	1690.9	generate	Run4	generate/STIM_017.jpg	100
2906.452	1.697	1696.7	generate	Run4	generate/STIM_017.jpg	100
2911.057	1.683	1682.6	generate	Run4	generate/STIM_017.jpg	99
2915.209	0.991	991.2	generate	Run4	generate/STIM_017.jpg	100
2918.979	1.645	1645.2	generate	Run4	generate/STIM_018.jpg	100
2923.096	0.774	773.8	generate	Run4	generate/STIM_018.jpg	99
2926.786	1.702	1702.2	generate	Run4	generate/STIM_018.jpg	99
2931.281	1.329	1329.2	generate	Run4	generate/STIM_018.jpg	100
2935.636	1.47	1470.0	generate	Run4	generate/STIM_018.jpg	99
2939.393	1.126	1125.6	generate	Run4	generate/STIM_019.jpg	99
2942.826	0.822	821.9	generate	Run4	generate/STIM_019.jpg	99
2947.182	0.922	922.0	generate	Run4	generate/STIM_019.jpg	100
2951.273	1.16	1160.3	generate	Run4	generate/STIM_019.jpg	100
2954.679	1.083	1082.7	generate	Run4	generate/STIM_019.jpg	99
2958.332	1.043	1043.1	generate	Run4	generate/STIM_020.jpg	99
2962.231	1.167	1166.9	generate	Run4	generate/STIM_020.jpg	100
2965.908	1.453	1452.6	generate	Run4	generate/STIM_020.jpg	99
2969.681	1.192	1191.9	generate	Run4	generate/STIM_020.jpg	99
2973.699	1.4	1400.2	generate	Run4	generate/STIM_020.jpg	100
2977.434	1.609	1609.4	generate	Run4	generate/STIM_021.jpg	99
2981.725	1.631	1630.9	generate	Run4	generate/STIM_021.jpg	99
2987.279	1.603	1603.2	generate	Run4	generate/STIM_021.jpg	100
2992.056	1.227	1227.2	generate	Run4	generate/STIM_021.jpg	100
2995.958	1.441	1441.3	generate	Run4	generate/STIM_021.jpg	99
2999.712	1.056	1056.3	generate	Run4	generate/STIM_022.jpg	99
3004.054	1.817	1816.8	generate	Run4	generate/STIM_022.jpg	99
3009.347	1.302	1301.9	generate	Run4	generate/STIM_022.jpg	99
3013.059	1.384	1384.5	generate	Run4	generate/STIM_022.jpg	99
3017.981	1.226	1226.3	generate	Run4	generate/STIM_022.jpg	99
3022.032	0.914	914.5	generate	Run4	generate/STIM_023.jpg	99
3025.634	1.748	1747.7	generate	Run4	generate/STIM_023.jpg	99
3030.787	0.775	774.9	generate	Run4	generate/STIM_023.jpg	99
3033.608	1.461	1461.3	generate	Run4	generate/STIM_023.jpg	100
3037.792	1.415	1414.6	generate	Run4	generate/STIM_023.jpg	100
3041.475	1.672	1671.7	generate	Run4	generate/STIM_024.jpg	100
3045.449	1.561	1561.4	generate	Run4	generate/STIM_024.jpg	100
3049.438	1.701	1701.4	generate	Run4	generate/STIM_024.jpg	100
3053.33	1.894	1893.9	generate	Run4	generate/STIM_024.jpg	100
3057.986	1.311	1310.7	generate	Run4	generate/STIM_024.jpg	100
3062.186	0.796	795.5	repeat	Run4	repeat/STIM_000.jpg	99
3066.842	0.768	768.4	repeat	Run4	repeat/STIM_000.jpg	100
3069.992	0.622	622.1	repeat	Run4	repeat/STIM_000.jpg	99
3074.124	0.69	690.3	repeat	Run4	repeat/STIM_000.jpg	99
3078.482	0.556	555.8	repeat	Run4	repeat/STIM_000.jpg	99
3081.822	0.702	702.4	repeat	Run4	repeat/STIM_001.jpg	99
3085.85	0.566	566.2	repeat	Run4	repeat/STIM_001.jpg	99
3089.925	0.717	717.4	repeat	Run4	repeat/STIM_001.jpg	99
3094.225	0.488	487.6	repeat	Run4	repeat/STIM_001.jpg	99
3097.758	0.47	470.3	repeat	Run4	repeat/STIM_001.jpg	99
3100.682	0.86	860.2	repeat	Run4	repeat/STIM_002.jpg	100
3105.312	0.703	703.1	repeat	Run4	repeat/STIM_002.jpg	99
3109.545	0.641	640.9	repeat	Run4	repeat/STIM_002.jpg	99
3113.977	0.627	626.7	repeat	Run4	repeat/STIM_002.jpg	100
3118.465	0.516	516.3	repeat	Run4	repeat/STIM_002.jpg	99
3122.966	0.535	535.2	repeat	Run4	repeat/STIM_003.jpg	100
3127.298	0.597	597.1	repeat	Run4	repeat/STIM_003.jpg	100
3130.91	0.778	777.8	repeat	Run4	repeat/STIM_003.jpg	100
3135.381	0.573	573.2	repeat	Run4	repeat/STIM_003.jpg	100
3138.974	0.67	670.3	repeat	Run4	repeat/STIM_003.jpg	100
3141.703	0.625	625.0	repeat	Run4	repeat/STIM_004.jpg	100
3145.771	0.53	530.4	repeat	Run4	repeat/STIM_004.jpg	100
3148.466	0.569	569.4	repeat	Run4	repeat/STIM_004.jpg	100
3151.223	0.741	741.1	repeat	Run4	repeat/STIM_004.jpg	99
3155.421	0.533	533.4	repeat	Run4	repeat/STIM_004.jpg	100
3158.871	0.579	578.8	repeat	Run4	repeat/STIM_005.jpg	99
3161.76	0.688	687.8	repeat	Run4	repeat/STIM_005.jpg	99
3165.909	0.488	487.5	repeat	Run4	repeat/STIM_005.jpg	100
3168.713	0.889	889.0	repeat	Run4	repeat/STIM_005.jpg	100
3173.023	0.755	755.2	repeat	Run4	repeat/STIM_005.jpg	99
3177.732	0.906	905.5	repeat	Run4	repeat/STIM_006.jpg	99
3181.099	0.719	718.8	repeat	Run4	repeat/STIM_006.jpg	100
3185.154	0.656	655.9	repeat	Run4	repeat/STIM_006.jpg	100
3189.371	0.731	731.3	repeat	Run4	repeat/STIM_006.jpg	100
3193.31	0.512	511.6	repeat	Run4	repeat/STIM_006.jpg	100
3196.036	0.551	550.7	repeat	Run4	repeat/STIM_007.jpg	100
3200.244	0.503	503.3	repeat	Run4	repeat/STIM_007.jpg	99
3203.764	0.542	542.4	repeat	Run4	repeat/STIM_007.jpg	99
3207.941	0.526	526.3	repeat	Run4	repeat/STIM_007.jpg	100
3211.153	0.488	488.3	repeat	Run4	repeat/STIM_007.jpg	100
3213.929	0.772	771.6	repeat	Run4	repeat/STIM_008.jpg	100
3217.216	0.912	911.8	repeat	Run4	repeat/STIM_008.jpg	100
3221.801	0.901	901.1	repeat	Run4	repeat/STIM_008.jpg	99
3225.474	0.741	741.4	repeat	Run4	repeat/STIM_008.jpg	100
3228.646	0.825	825.1	repeat	Run4	repeat/STIM_008.jpg	100
3231.894	0.696	696.5	repeat	Run4	repeat/STIM_009.jpg	100
3236.215	0.738	738.4	repeat	Run4	repeat/STIM_009.jpg	100
3240.147	0.479	478.7	repeat	Run4	repeat/STIM_009.jpg	100
3244.141	0.815	815.2	repeat	Run4	repeat/STIM_009.jpg	100
3248.213	0.555	554.9	repeat	Run4	repeat/STIM_009.jpg	100
3250.894	0.684	684.2	repeat	Run4	repeat/STIM_010.jpg	100
3254.299	0.607	607.4	repeat	Run4	repeat/STIM_010.jpg	100
3258.802	0.69	689.9	repeat	Run4	repeat/STIM_010.jpg	99
3262.104	0.865	865.2	repeat	Run4	repeat/STIM_010.jpg	99
3266.643	0.65	650.2	repeat	Run4	repeat/STIM_010.jpg	99
3269.954	0.854	853.6	repeat	Run4	repeat/STIM_011.jpg	100
3273.573	0.478	478.4	repeat	Run4	repeat/STIM_011.jpg	100
3277.232	0.802	802.2	repeat	Run4	repeat/STIM_011.jpg	99
3281.662	0.775	775.3	repeat	Run4	repeat/STIM_011.jpg	100
3285.562	0.548	548.3	repeat	Run4	repeat/STIM_011.jpg	99
3289.181	0.848	848.4	repeat	Run4	repeat/STIM_012.jpg	100
3293.344	0.491	491.0	repeat	Run4	repeat/STIM_012.jpg	99
3296.148	0.857	856.8	repeat	Run4	repeat/STIM_012.jpg	100
3299.96	0.595	594.6	repeat	Run4	repeat/STIM_012.jpg	100
3304.124	0.71	710.0	repeat	Run4	repeat/STIM_012.jpg	99
3307.811	0.819	819.0	repeat	Run4	repeat/STIM_013.jpg	100
3311.23	0.834	834.4	repeat	Run4	repeat/STIM_013.jpg	99
3315.264	0.5	500.2	repeat	Run4	repeat/STIM_013.jpg	99
3318.536	0.841	840.7	repeat	Run4	repeat/STIM_013.jpg	99
3322.848	0.503	503.4	repeat	Run4	repeat/STIM_013.jpg	99
3326.542	0.9	900.1	repeat	Run4	repeat/STIM_014.jpg	100
3329.895	0.702	702.3	repeat	Run4	repeat/STIM_014.jpg	100
3332.912	0.754	754.2	repeat	Run4	repeat/STIM_014.jpg	99
3337.328	0.706	705.7	repeat	Run4	repeat/STIM_014.jpg	100
3340.645	0.473	472.7	repeat	Run4	repeat/STIM_014.jpg	99
