onset	duration	accuracy_binary	trial_type	learning_stage	stimulus
0.0	1.962	1	generate	Run1	generate/STIM_000.jpg
4.909	2.13	0	generate	Run1	generate/STIM_000.jpg
10.886	1.122	1	generate	Run1	generate/STIM_000.jpg
14.297	1.718	1	generate	Run1	generate/STIM_000.jpg
18.777	1.749	0	generate	Run1	generate/STIM_000.jpg
22.82	1.963	1	generate	Run1	generate/STIM_001.jpg
27.034	2.275	1	generate	Run1	generate/STIM_001.jpg
32.132	1.03	1	generate	Run1	generate/STIM_001.jpg
36.841	1.732	1	generate	Run1	generate/STIM_001.jpg
42.109	1.929	1	generate	Run1	generate/STIM_001.jpg
47.869	1.243	1	generate	Run1	generate/STIM_002.jpg
52.229	1.835	1	generate	Run1	generate/STIM_002.jpg
56.456	1.248	0	generate	Run1	generate/STIM_002.jpg
59.935	1.042	0	generate	Run1	generate/STIM_002.jpg
64.613	1.258	0	generate	Run1	generate/STIM_002.jpg
68.318	2.36	1	generate	Run1	generate/STIM_003.jpg
73.932	1.473	1	generate	Run1	generate/STIM_003.jpg
77.935	2.051	0	generate	Run1	generate/STIM_003.jpg
82.651	1.778	1	generate	Run1	generate/STIM_003.jpg
86.959	1.853	1	generate	Run1	generate/STIM_003.jpg
92.899	2.56	1	generate	Run1	generate/STIM_004.jpg
99.286	1.138	1	generate	Run1	generate/STIM_004.jpg
102.904	1.673	1	generate	Run1	generate/STIM_004.jpg
108.644	1.387	0	generate	Run1	generate/STIM_004.jpg
113.974	1.424	0	generate	Run1	generate/STIM_004.jpg
118.68	1.753	1	generate	Run1	generate/STIM_005.jpg
123.824	2.115	0	generate	Run1	generate/STIM_005.jpg
128.826	1.658	1	generate	Run1	generate/STIM_005.jpg
133.43	1.096	1	generate	Run1	generate/STIM_005.jpg
137.767	1.954	1	generate	Run1	generate/STIM_005.jpg
143.153	1.438	1	generate	Run1	generate/STIM_006.jpg
148.079	1.426	1	generate	Run1	generate/STIM_006.jpg
152.765	1.931	1	generate	Run1	generate/STIM_006.jpg
157.777	1.768	1	generate	Run1	generate/STIM_006.jpg
161.828	1.353	1	generate	Run1	generate/STIM_006.jpg
166.041	2.575	1	generate	Run1	generate/STIM_007.jpg
172.573	1.322	1	generate	Run1	generate/STIM_007.jpg
177.932	1.359	1	generate	Run1	generate/STIM_007.jpg
183.403	1.093	1	generate	Run1	generate/STIM_007.jpg
187.285	1.185	1	generate	Run1	generate/STIM_007.jpg
191.795	2.367	1	generate	Run1	generate/STIM_008.jpg
197.57	2.12	1	generate	Run1	generate/STIM_008.jpg
203.177	2.285	1	generate	Run1	generate/STIM_008.jpg
207.776	2.024	0	generate	Run1	generate/STIM_008.jpg
213.669	1.267	1	generate	Run1	generate/STIM_008.jpg
217.835	2.486	1	generate	Run1	generate/STIM_009.jpg
224.144	1.673	1	generate	Run1	generate/STIM_009.jpg
228.132	0.995	1	generate	Run1	generate/STIM_009.jpg
231.665	2.074	0	generate	Run1	generate/STIM_009.jpg
237.286	1.684	0	generate	Run1	generate/STIM_009.jpg
241.963	1.574	1	generate	Run1	generate/STIM_010.jpg
245.813	1.344	1	generate	Run1	generate/STIM_010.jpg
250.03	1.153	1	generate	Run1	generate/STIM_010.jpg
254.456	1.566	0	generate	Run1	generate/STIM_010.jpg
259.14	1.154	1	generate	Run1	generate/STIM_010.jpg
262.635	2.077	1	generate	Run1	generate/STIM_011.jpg
268.033	1.274	1	generate	Run1	generate/STIM_011.jpg
272.732	2.232	0	generate	Run1	generate/STIM_011.jpg
277.701	1.666	1	generate	Run1	generate/STIM_011.jpg
282.781	1.81	0	generate	Run1	generate/STIM_011.jpg
286.955	1.689	1	generate	Run1	generate/STIM_012.jpg
291.641	1.028	1	generate	Run1	generate/STIM_012.jpg
295.449	1.712	1	generate	Run1	generate/STIM_012.jpg
300.898	1.527	1	generate	Run1	generate/STIM_012.jpg
306.01	1.91	0	generate	Run1	generate/STIM_012.jpg
311.565	2.335	1	generate	Run1	generate/STIM_013.jpg
316.334	2.245	1	generate	Run1	generate/STIM_013.jpg
320.967	1.847	1	generate	Run1	generate/STIM_013.jpg
327.066	2.09	1	generate	Run1	generate/STIM_013.jpg
331.597	1.267	1	generate	Run1	generate/STIM_013.jpg
336.21	2.36	1	generate	Run1	generate/STIM_014.jpg
342.467	2.171	1	generate	Run1	generate/STIM_014.jpg
347.945	2.37	1	generate	Run1	generate/STIM_014.jpg
353.702	1.131	1	generate	Run1	generate/STIM_014.jpg
358.342	0.986	1	generate	Run1	generate/STIM_014.jpg
362.181	1.756	1	generate	Run1	generate/STIM_015.jpg
367.589	1.24	1	generate	Run1	generate/STIM_015.jpg
372.476	2.03	1	generate	Run1	generate/STIM_015.jpg
377.291	1.424	1	generate	Run1	generate/STIM_015.jpg
381.083	1.52	1	generate	Run1	generate/STIM_015.jpg
385.137	1.262	1	generate	Run1	generate/STIM_016.jpg
389.688	1.142	1	generate	Run1	generate/STIM_016.jpg
393.302	1.455	0	generate	Run1	generate/STIM_016.jpg
396.925	1.848	1	generate	Run1	generate/STIM_016.jpg
402.804	1.19	1	generate	Run1	generate/STIM_016.jpg
406.769	1.923	1	generate	Run1	generate/STIM_017.jpg
412.698	1.588	1	generate	Run1	generate/STIM_017.jpg
417.929	1.423	1	generate	Run1	generate/STIM_017.jpg
423.282	1.772	1	generate	Run1	generate/STIM_017.jpg
428.662	1.768	1	generate	Run1	generate/STIM_017.jpg
433.658	2.368	1	generate	Run1	generate/STIM_018.jpg
440.214	1.312	0	generate	Run1	generate/STIM_018.jpg
444.933	1.617	0	generate	Run1	generate/STIM_018.jpg
450.051	1.874	1	generate	Run1	generate/STIM_018.jpg
455.262	1.182	1	generate	Run1	generate/STIM_018.jpg
460.352	1.742	1	generate	Run1	generate/STIM_019.jpg
464.941	2.378	1	generate	Run1	generate/STIM_019.jpg
471.176	1.987	1	generate	Run1	generate/STIM_019.jpg
477.27	1.962	1	generate	Run1	generate/STIM_019.jpg
481.762	1.222	1	generate	Run1	generate/STIM_019.jpg
485.527	1.456	1	generate	Run1	generate/STIM_020.jpg
491.111	1.985	0	generate	Run1	generate/STIM_020.jpg
496.072	1.548	0	generate	Run1	generate/STIM_020.jpg
499.932	1.439	0	generate	Run1	generate/STIM_020.jpg
505.492	1.504	1	generate	Run1	generate/STIM_020.jpg
510.733	2.579	1	generate	Run1	generate/STIM_021.jpg
516.328	1.088	0	generate	Run1	generate/STIM_021.jpg
519.662	1.836	1	generate	Run1	generate/STIM_021.jpg
525.605	1.784	1	generate	Run1	generate/STIM_021.jpg
530.579	1.206	1	generate	Run1	generate/STIM_021.jpg
535.839	2.252	1	generate	Run1	generate/STIM_022.jpg
541.922	1.457	1	generate	Run1	generate/STIM_022.jpg
546.579	1.357	1	generate	Run1	generate/STIM_022.jpg
551.099	1.258	1	generate	Run1	generate/STIM_022.jpg
554.867	1.822	1	generate	Run1	generate/STIM_022.jpg
560.249	2.616	1	generate	Run1	generate/STIM_023.jpg
565.244	2.272	0	generate	Run1	generate/STIM_023.jpg
570.806	1.74	1	generate	Run1	generate/STIM_023.jpg
576.016	1.154	1	generate	Run1	generate/STIM_023.jpg
580.946	1.85	1	generate	Run1	generate/STIM_023.jpg
585.903	1.655	1	generate	Run1	generate/STIM_024.jpg
589.722	1.784	1	generate	Run1	generate/STIM_024.jpg
594.542	1.81	0	generate	Run1	generate/STIM_024.jpg
599.229	1.867	0	generate	Run1	generate/STIM_024.jpg
603.873	1.401	1	generate	Run1	generate/STIM_024.jpg
608.133	0.753	1	repeat	Run1	repeat/STIM_000.jpg
612.736	0.591	1	repeat	Run1	repeat/STIM_000.jpg
616.469	0.806	1	repeat	Run1	repeat/STIM_000.jpg
621.377	0.666	1	repeat	Run1	repeat/STIM_000.jpg
624.304	0.512	1	repeat	Run1	repeat/STIM_000.jpg
627.632	0.876	1	repeat	Run1	repeat/STIM_001.jpg
632.046	0.559	1	repeat	Run1	repeat/STIM_001.jpg
634.934	0.873	1	repeat	Run1	repeat/STIM_001.jpg
638.402	0.603	1	repeat	Run1	repeat/STIM_001.jpg
641.226	0.726	1	repeat	Run1	repeat/STIM_001.jpg
644.655	0.753	1	repeat	Run1	repeat/STIM_002.jpg
648.121	0.543	1	repeat	Run1	repeat/STIM_002.jpg
652.07	0.615	1	repeat	Run1	repeat/STIM_002.jpg
654.917	0.742	1	repeat	Run1	repeat/STIM_002.jpg
659.179	0.703	1	repeat	Run1	repeat/STIM_002.jpg
663.417	0.72	1	repeat	Run1	repeat/STIM_003.jpg
666.767	0.645	0	repeat	Run1	repeat/STIM_003.jpg
669.605	0.753	1	repeat	Run1	repeat/STIM_003.jpg
673.366	0.534	1	repeat	Run1	repeat/STIM_003.jpg
677.723	0.609	1	repeat	Run1	repeat/STIM_003.jpg
680.989	0.418	1	repeat	Run1	repeat/STIM_004.jpg
685.067	0.687	1	repeat	Run1	repeat/STIM_004.jpg
688.677	0.712	1	repeat	Run1	repeat/STIM_004.jpg
693.236	0.675	1	repeat	Run1	repeat/STIM_004.jpg
697.73	0.727	1	repeat	Run1	repeat/STIM_004.jpg
702.514	0.622	1	repeat	Run1	repeat/STIM_005.jpg
706.508	0.716	1	repeat	Run1	repeat/STIM_005.jpg
710.797	0.636	1	repeat	Run1	repeat/STIM_005.jpg
715.463	0.567	1	repeat	Run1	repeat/STIM_005.jpg
718.867	0.744	1	repeat	Run1	repeat/STIM_005.jpg
723.673	0.599	1	repeat	Run1	repeat/STIM_006.jpg
726.945	0.675	1	repeat	Run1	repeat/STIM_006.jpg
729.721	0.79	1	repeat	Run1	repeat/STIM_006.jpg
734.145	0.744	1	repeat	Run1	repeat/STIM_006.jpg
738.226	0.552	1	repeat	Run1	repeat/STIM_006.jpg
742.052	0.571	1	repeat	Run1	repeat/STIM_007.jpg
746.442	0.612	1	repeat	Run1	repeat/STIM_007.jpg
749.76	0.586	1	repeat	Run1	repeat/STIM_007.jpg
752.938	0.734	1	repeat	Run1	repeat/STIM_007.jpg
755.876	0.634	1	repeat	Run1	repeat/STIM_007.jpg
759.801	0.579	1	repeat	Run1	repeat/STIM_008.jpg
764.338	0.834	1	repeat	Run1	repeat/STIM_008.jpg
768.776	0.738	1	repeat	Run1	repeat/STIM_008.jpg
772.927	0.424	1	repeat	Run1	repeat/STIM_008.jpg
777.393	0.792	1	repeat	Run1	repeat/STIM_008.jpg
781.742	0.658	1	repeat	Run1	repeat/STIM_009.jpg
786.392	0.517	1	repeat	Run1	repeat/STIM_009.jpg
789.615	0.762	1	repeat	Run1	repeat/STIM_009.jpg
792.785	0.411	1	repeat	Run1	repeat/STIM_009.jpg
796.815	0.91	1	repeat	Run1	repeat/STIM_009.jpg
801.666	0.717	1	repeat	Run1	repeat/STIM_010.jpg
804.495	0.814	1	repeat	Run1	repeat/STIM_010.jpg
807.505	0.587	1	repeat	Run1	repeat/STIM_010.jpg
810.219	0.47	1	repeat	Run1	repeat/STIM_010.jpg
813.532	0.508	1	repeat	Run1	repeat/STIM_010.jpg
816.812	0.654	1	repeat	Run1	repeat/STIM_011.jpg
819.936	0.624	1	repeat	Run1	repeat/STIM_011.jpg
824.302	0.579	1	repeat	Run1	repeat/STIM_011.jpg
828.177	0.717	1	repeat	Run1	repeat/STIM_011.jpg
832.025	0.534	1	repeat	Run1	repeat/STIM_011.jpg
836.57	0.696	1	repeat	Run1	repeat/STIM_012.jpg
839.392	0.761	0	repeat	Run1	repeat/STIM_012.jpg
842.894	0.634	1	repeat	Run1	repeat/STIM_012.jpg
847.564	0.626	1	repeat	Run1	repeat/STIM_012.jpg
850.69	0.701	1	repeat	Run1	repeat/STIM_012.jpg
855.495	0.613	1	repeat	Run1	repeat/STIM_013.jpg
858.998	0.736	1	repeat	Run1	repeat/STIM_013.jpg
863.184	0.407	1	repeat	Run1	repeat/STIM_013.jpg
866.581	0.777	1	repeat	Run1	repeat/STIM_013.jpg
870.76	0.448	1	repeat	Run1	repeat/STIM_013.jpg
875.178	0.909	1	repeat	Run1	repeat/STIM_014.jpg
880.102	0.501	1	repeat	Run1	repeat/STIM_014.jpg
884.618	0.843	1	repeat	Run1	repeat/STIM_014.jpg
888.719	0.516	1	repeat	Run1	repeat/STIM_014.jpg
893.209	0.754	1	repeat	Run1	repeat/STIM_014.jpg
896.112	1.914	1	generate	Run2	generate/STIM_000.jpg
901.738	1.47	1	generate	Run2	generate/STIM_000.jpg
907.011	1.222	1	generate	Run2	generate/STIM_000.jpg
910.463	1.354	1	generate	Run2	generate/STIM_000.jpg
915.148	1.033	1	generate	Run2	generate/STIM_000.jpg
918.54	1.104	1	generate	Run2	generate/STIM_001.jpg
922.4	1.609	1	generate	Run2	generate/STIM_001.jpg
926.952	1.297	1	generate	Run2	generate/STIM_001.jpg
930.859	1.725	1	generate	Run2	generate/STIM_001.jpg
934.871	1.57	1	generate	Run2	generate/STIM_001.jpg
940.42	2.229	0	generate	Run2	generate/STIM_002.jpg
945.452	1.576	1	generate	Run2	generate/STIM_002.jpg
949.446	1.622	1	generate	Run2	generate/STIM_002.jpg
955.192	0.988	1	generate	Run2	generate/STIM_002.jpg
958.853	0.766	0	generate	Run2	generate/STIM_002.jpg
961.831	1.702	1	generate	Run2	generate/STIM_003.jpg
966.498	1.773	1	generate	Run2	generate/STIM_003.jpg
971.975	0.971	1	generate	Run2	generate/STIM_003.jpg
975.308	0.753	1	generate	Run2	generate/STIM_003.jpg
979.322	0.983	1	generate	Run2	generate/STIM_003.jpg
982.678	2.074	1	generate	Run2	generate/STIM_004.jpg
987.269	1.812	0	generate	Run2	generate/STIM_004.jpg
993.28	0.909	1	generate	Run2	generate/STIM_004.jpg
996.306	1.004	1	generate	Run2	generate/STIM_004.jpg
1000.882	1.758	1	generate	Run2	generate/STIM_004.jpg
1005.802	1.637	1	generate	Run2	generate/STIM_005.jpg
1010.928	1.38	1	generate	Run2	generate/STIM_005.jpg
1015.916	1.78	0	generate	Run2	generate/STIM_005.jpg
1020.79	1.842	0	generate	Run2	generate/STIM_005.jpg
1025.369	1.519	1	generate	Run2	generate/STIM_005.jpg
1030.388	1.445	1	generate	Run2	generate/STIM_006.jpg
1034.313	1.083	1	generate	Run2	generate/STIM_006.jpg
1038.63	1.924	0	generate	Run2	generate/STIM_006.jpg
1043.95	1.053	1	generate	Run2	generate/STIM_006.jpg
1047.966	1.585	1	generate	Run2	generate/STIM_006.jpg
1052.363	2.16	1	generate	Run2	generate/STIM_007.jpg
1057.656	1.229	1	generate	Run2	generate/STIM_007.jpg
1062.329	0.932	1	generate	Run2	generate/STIM_007.jpg
1066.923	1.554	1	generate	Run2	generate/STIM_007.jpg
1071.081	1.315	1	generate	Run2	generate/STIM_007.jpg
1074.848	1.039	1	generate	Run2	generate/STIM_008.jpg
1079.192	1.893	1	generate	Run2	generate/STIM_008.jpg
1084.264	1.225	1	generate	Run2	generate/STIM_008.jpg
1089.432	1.751	1	generate	Run2	generate/STIM_008.jpg
1094.575	1.482	1	generate	Run2	generate/STIM_008.jpg
1099.918	1.712	1	generate	Run2	generate/STIM_009.jpg
1103.986	2.022	0	generate	Run2	generate/STIM_009.jpg
1109.641	1.245	0	generate	Run2	generate/STIM_009.jpg
1113.101	0.78	1	generate	Run2	generate/STIM_009.jpg
1117.956	0.921	1	generate	Run2	generate/STIM_009.jpg
1121.634	1.261	1	generate	Run2	generate/STIM_010.jpg
1126.707	1.884	1	generate	Run2	generate/STIM_010.jpg
1132.712	1.301	1	generate	Run2	generate/STIM_010.jpg
1136.627	1.6	1	generate	Run2	generate/STIM_010.jpg
1142.222	1.598	1	generate	Run2	generate/STIM_010.jpg
1147.401	1.51	1	generate	Run2	generate/STIM_011.jpg
1151.653	1.051	1	generate	Run2	generate/STIM_011.jpg
1155.978	1.118	1	generate	Run2	generate/STIM_011.jpg
1161.202	1.531	1	generate	Run2	generate/STIM_011.jpg
1167.028	1.762	1	generate	Run2	generate/STIM_011.jpg
1172.725	2.122	1	generate	Run2	generate/STIM_012.jpg
1177.591	1.648	1	generate	Run2	generate/STIM_012.jpg
1181.876	1.486	1	generate	Run2	generate/STIM_012.jpg
1185.581	0.894	1	generate	Run2	generate/STIM_012.jpg
1188.592	1.39	1	generate	Run2	generate/STIM_012.jpg
1194.191	1.37	1	generate	Run2	generate/STIM_013.jpg
1197.79	1.32	1	generate	Run2	generate/STIM_013.jpg
1202.215	1.349	1	generate	Run2	generate/STIM_013.jpg
1206.043	1.245	1	generate	Run2	generate/STIM_013.jpg
1210.634	1.243	1	generate	Run2	generate/STIM_013.jpg
1215.822	1.268	1	generate	Run2	generate/STIM_014.jpg
1220.559	1.732	1	generate	Run2	generate/STIM_014.jpg
1226.008	1.181	1	generate	Run2	generate/STIM_014.jpg
1231.113	1.676	1	generate	Run2	generate/STIM_014.jpg
1235.714	1.734	1	generate	Run2	generate/STIM_014.jpg
1240.041	1.904	1	generate	Run2	generate/STIM_015.jpg
1245.014	1.025	1	generate	Run2	generate/STIM_015.jpg
1248.871	1.085	1	generate	Run2	generate/STIM_015.jpg
1253.709	1.302	1	generate	Run2	generate/STIM_015.jpg
1258.417	0.948	1	generate	Run2	generate/STIM_015.jpg
1261.692	1.413	1	generate	Run2	generate/STIM_016.jpg
1265.582	1.459	1	generate	Run2	generate/STIM_016.jpg
1271.048	1.028	1	generate	Run2	generate/STIM_016.jpg
1275.083	1.335	1	generate	Run2	generate/STIM_016.jpg
1280.189	1.164	1	generate	Run2	generate/STIM_016.jpg
1284.977	1.86	1	generate	Run2	generate/STIM_017.jpg
1289.445	1.719	1	generate	Run2	generate/STIM_017.jpg
1295.089	1.995	0	generate	Run2	generate/STIM_017.jpg
1300.495	1.669	1	generate	Run2	generate/STIM_017.jpg
1306.213	1.463	1	generate	Run2	generate/STIM_017.jpg
1311.0	1.905	1	generate	Run2	generate/STIM_018.jpg
1315.815	0.916	1	generate	Run2	generate/STIM_018.jpg
1319.122	0.949	1	generate	Run2	generate/STIM_018.jpg
1323.75	1.331	1	generate	Run2	generate/STIM_018.jpg
1328.565	1.199	0	generate	Run2	generate/STIM_018.jpg
1332.861	1.231	1	generate	Run2	generate/STIM_019.jpg
1337.876	0.93	1	generate	Run2	generate/STIM_019.jpg
1341.883	1.073	1	generate	Run2	generate/STIM_019.jpg
1346.688	1.102	0	generate	Run2	generate/STIM_019.jpg
1351.132	0.872	1	generate	Run2	generate/STIM_019.jpg
1355.25	2.02	1	generate	Run2	generate/STIM_020.jpg
1359.956	2.042	1	generate	Run2	generate/STIM_020.jpg
1364.477	1.367	0	generate	Run2	generate/STIM_020.jpg
1369.19	1.664	0	generate	Run2	generate/STIM_020.jpg
1375.111	1.635	1	generate	Run2	generate/STIM_020.jpg
1380.182	1.911	1	generate	Run2	generate/STIM_021.jpg
1384.933	1.127	1	generate	Run2	generate/STIM_021.jpg
1389.772	0.895	1	generate	Run2	generate/STIM_021.jpg
1393.636	0.82	1	generate	Run2	generate/STIM_021.jpg
1397.662	0.996	1	generate	Run2	generate/STIM_021.jpg
1401.108	1.34	0	generate	Run2	generate/STIM_022.jpg
1404.677	1.202	1	generate	Run2	generate/STIM_022.jpg
1408.173	0.905	1	generate	Run2	generate/STIM_022.jpg
1411.366	1.545	1	generate	Run2	generate/STIM_022.jpg
1415.193	1.748	0	generate	Run2	generate/STIM_022.jpg
1419.817	1.761	0	generate	Run2	generate/STIM_023.jpg
1424.428	1.545	1	generate	Run2	generate/STIM_023.jpg
1428.299	1.533	0	generate	Run2	generate/STIM_023.jpg
1433.212	1.085	1	generate	Run2	generate/STIM_023.jpg
1438.016	1.004	1	generate	Run2	generate/STIM_023.jpg
1442.295	1.91	1	generate	Run2	generate/STIM_024.jpg
1446.73	1.299	1	generate	Run2	generate/STIM_024.jpg
1450.443	1.904	1	generate	Run2	generate/STIM_024.jpg
1456.557	1.094	1	generate	Run2	generate/STIM_024.jpg
1461.64	1.309	1	generate	Run2	generate/STIM_024.jpg
1466.097	0.834	1	repeat	Run2	repeat/STIM_000.jpg
1469.934	0.422	1	repeat	Run2	repeat/STIM_000.jpg
1472.846	0.456	1	repeat	Run2	repeat/STIM_000.jpg
1476.871	0.787	1	repeat	Run2	repeat/STIM_000.jpg
1480.376	0.71	1	repeat	Run2	repeat/STIM_000.jpg
1484.472	0.566	1	repeat	Run2	repeat/STIM_001.jpg
1488.73	0.727	1	repeat	Run2	repeat/STIM_001.jpg
1492.855	0.734	1	repeat	Run2	repeat/STIM_001.jpg
1496.021	0.797	1	repeat	Run2	repeat/STIM_001.jpg
1500.129	0.552	1	repeat	Run2	repeat/STIM_001.jpg
1503.372	0.607	0	repeat	Run2	repeat/STIM_002.jpg
1506.472	0.557	1	repeat	Run2	repeat/STIM_002.jpg
1510.704	0.725	1	repeat	Run2	repeat/STIM_002.jpg
1515.515	0.67	1	repeat	Run2	repeat/STIM_002.jpg
1518.437	0.722	1	repeat	Run2	repeat/STIM_002.jpg
1522.666	0.69	1	repeat	Run2	repeat/STIM_003.jpg
1526.644	0.483	1	repeat	Run2	repeat/STIM_003.jpg
1530.076	0.613	1	repeat	Run2	repeat/STIM_003.jpg
1532.998	0.758	1	repeat	Run2	repeat/STIM_003.jpg
1537.233	0.63	1	repeat	Run2	repeat/STIM_003.jpg
1540.061	0.878	1	repeat	Run2	repeat/STIM_004.jpg
1544.221	0.559	1	repeat	Run2	repeat/STIM_004.jpg
1547.32	0.671	1	repeat	Run2	repeat/STIM_004.jpg
1551.886	0.811	1	repeat	Run2	repeat/STIM_004.jpg
1555.453	0.753	1	repeat	Run2	repeat/STIM_004.jpg
1558.736	0.949	1	repeat	Run2	repeat/STIM_005.jpg
1563.03	0.889	1	repeat	Run2	repeat/STIM_005.jpg
1567.828	0.934	1	repeat	Run2	repeat/STIM_005.jpg
1571.978	0.502	1	repeat	Run2	repeat/STIM_005.jpg
1575.779	0.786	1	repeat	Run2	repeat/STIM_005.jpg
1579.92	0.885	1	repeat	Run2	repeat/STIM_006.jpg
1583.727	0.554	1	repeat	Run2	repeat/STIM_006.jpg
1587.592	0.63	1	repeat	Run2	repeat/STIM_006.jpg
1590.6	0.794	1	repeat	Run2	repeat/STIM_006.jpg
1594.629	0.749	1	repeat	Run2	repeat/STIM_006.jpg
1598.734	0.636	1	repeat	Run2	repeat/STIM_007.jpg
1601.952	0.768	1	repeat	Run2	repeat/STIM_007.jpg
1605.789	0.466	1	repeat	Run2	repeat/STIM_007.jpg
1610.227	0.836	1	repeat	Run2	repeat/STIM_007.jpg
1614.467	0.578	1	repeat	Run2	repeat/STIM_007.jpg
1618.334	0.456	1	repeat	Run2	repeat/STIM_008.jpg
1621.932	0.836	1	repeat	Run2	repeat/STIM_008.jpg
1626.652	0.752	1	repeat	Run2	repeat/STIM_008.jpg
1630.414	0.835	1	repeat	Run2	repeat/STIM_008.jpg
1633.342	0.702	0	repeat	Run2	repeat/STIM_008.jpg
1636.62	0.444	1	repeat	Run2	repeat/STIM_009.jpg
1639.829	0.446	0	repeat	Run2	repeat/STIM_009.jpg
1642.378	0.73	1	repeat	Run2	repeat/STIM_009.jpg
1646.394	0.817	1	repeat	Run2	repeat/STIM_009.jpg
1650.863	0.916	1	repeat	Run2	repeat/STIM_009.jpg
1655.21	0.641	1	repeat	Run2	repeat/STIM_010.jpg
1659.018	0.538	1	repeat	Run2	repeat/STIM_010.jpg
1663.685	0.844	1	repeat	Run2	repeat/STIM_010.jpg
1667.292	0.648	1	repeat	Run2	repeat/STIM_010.jpg
1670.989	0.763	0	repeat	Run2	repeat/STIM_010.jpg
1675.744	0.749	1	repeat	Run2	repeat/STIM_011.jpg
1679.151	0.734	0	repeat	Run2	repeat/STIM_011.jpg
1683.558	0.52	1	repeat	Run2	repeat/STIM_011.jpg
1686.229	0.72	1	repeat	Run2	repeat/STIM_011.jpg
1689.34	0.536	1	repeat	Run2	repeat/STIM_011.jpg
1692.711	0.634	1	repeat	Run2	repeat/STIM_012.jpg
1697.23	0.657	1	repeat	Run2	repeat/STIM_012.jpg
1701.71	0.774	1	repeat	Run2	repeat/STIM_012.jpg
1704.732	0.733	1	repeat	Run2	repeat/STIM_012.jpg
1708.676	0.65	1	repeat	Run2	repeat/STIM_012.jpg
1711.822	0.743	1	repeat	Run2	repeat/STIM_013.jpg
1715.898	0.726	1	repeat	Run2	repeat/STIM_013.jpg
1720.64	0.604	1	repeat	Run2	repeat/STIM_013.jpg
1723.571	0.571	1	repeat	Run2	repeat/STIM_013.jpg
1726.682	0.662	1	repeat	Run2	repeat/STIM_013.jpg
1731.378	0.771	1	repeat	Run2	repeat/STIM_014.jpg
1736.031	0.799	1	repeat	Run2	repeat/STIM_014.jpg
1739.054	0.841	1	repeat	Run2	repeat/STIM_014.jpg
1742.647	0.425	1	repeat	Run2	repeat/STIM_014.jpg
1747.115	0.694	1	repeat	Run2	repeat/STIM_014.jpg
1751.33	1.034	1	generate	Run3	generate/STIM_000.jpg
1756.019	1.467	1	generate	Run3	generate/STIM_000.jpg
1761.183	0.811	1	generate	Run3	generate/STIM_000.jpg
1765.299	1.333	1	generate	Run3	generate/STIM_000.jpg
1769.318	1.864	1	generate	Run3	generate/STIM_000.jpg
1774.941	1.72	1	generate	Run3	generate/STIM_001.jpg
1780.826	1.445	1	generate	Run3	generate/STIM_001.jpg
1786.172	0.778	0	generate	Run3	generate/STIM_001.jpg
1790.424	0.895	1	generate	Run3	generate/STIM_001.jpg
1794.162	0.962	1	generate	Run3	generate/STIM_001.jpg
1797.552	1.754	1	generate	Run3	generate/STIM_002.jpg
1803.618	1.273	0	generate	Run3	generate/STIM_002.jpg
1807.812	1.11	1	generate	Run3	generate/STIM_002.jpg
1812.528	1.677	1	generate	Run3	generate/STIM_002.jpg
1817.526	1.279	1	generate	Run3	generate/STIM_002.jpg
1821.176	1.86	1	generate	Run3	generate/STIM_003.jpg
1825.704	1.395	1	generate	Run3	generate/STIM_003.jpg
1830.777	1.637	1	generate	Run3	generate/STIM_003.jpg
1835.522	0.888	1	generate	Run3	generate/STIM_003.jpg
1840.054	1.723	1	generate	Run3	generate/STIM_003.jpg
1845.284	1.118	1	generate	Run3	generate/STIM_004.jpg
1848.773	1.065	1	generate	Run3	generate/STIM_004.jpg
1852.288	1.392	1	generate	Run3	generate/STIM_004.jpg
1857.167	1.681	1	generate	Run3	generate/STIM_004.jpg
1862.577	0.807	0	generate	Run3	generate/STIM_004.jpg
1866.242	1.315	1	generate	Run3	generate/STIM_005.jpg
1870.453	1.365	1	generate	Run3	generate/STIM_005.jpg
1875.311	1.527	1	generate	Run3	generate/STIM_005.jpg
1880.9	1.67	1	generate	Run3	generate/STIM_005.jpg
1885.372	1.56	1	generate	Run3	generate/STIM_005.jpg
1890.283	1.667	1	generate	Run3	generate/STIM_006.jpg
1894.543	1.396	0	generate	Run3	generate/STIM_006.jpg
1898.698	1.641	1	generate	Run3	generate/STIM_006.jpg
1903.818	1.787	1	generate	Run3	generate/STIM_006.jpg
1908.814	1.542	1	generate	Run3	generate/STIM_006.jpg
1912.734	0.734	1	generate	Run3	generate/STIM_007.jpg
1916.281	1.283	1	generate	Run3	generate/STIM_007.jpg
1920.51	1.104	1	generate	Run3	generate/STIM_007.jpg
1925.643	0.937	1	generate	Run3	generate/STIM_007.jpg
1930.48	1.656	1	generate	Run3	generate/STIM_007.jpg
1935.375	1.467	1	generate	Run3	generate/STIM_008.jpg
1941.123	1.853	1	generate	Run3	generate/STIM_008.jpg
1945.434	1.07	1	generate	Run3	generate/STIM_008.jpg
1948.926	0.835	1	generate	Run3	generate/STIM_008.jpg
1951.969	0.99	0	generate	Run3	generate/STIM_008.jpg
1956.808	1.276	1	generate	Run3	generate/STIM_009.jpg
1961.278	1.191	1	generate	Run3	generate/STIM_009.jpg
1965.4	1.243	1	generate	Run3	generate/STIM_009.jpg
1970.246	1.362	1	generate	Run3	generate/STIM_009.jpg
1975.379	1.406	1	generate	Run3	generate/STIM_009.jpg
1979.097	1.144	1	generate	Run3	generate/STIM_010.jpg
1983.779	1.683	1	generate	Run3	generate/STIM_010.jpg
1988.475	1.088	0	generate	Run3	generate/STIM_010.jpg
1992.884	1.366	1	generate	Run3	generate/STIM_010.jpg
1997.897	1.249	1	generate	Run3	generate/STIM_010.jpg
2002.54	1.664	1	generate	Run3	generate/STIM_011.jpg
2006.932	1.528	1	generate	Run3	generate/STIM_011.jpg
2012.187	1.606	1	generate	Run3	generate/STIM_011.jpg
2017.326	1.668	1	generate	Run3	generate/STIM_011.jpg
2021.67	0.897	0	generate	Run3	generate/STIM_011.jpg
2025.342	1.256	1	generate	Run3	generate/STIM_012.jpg
2030.685	1.77	1	generate	Run3	generate/STIM_012.jpg
2036.653	1.631	0	generate	Run3	generate/STIM_012.jpg
2042.228	1.62	1	generate	Run3	generate/STIM_012.jpg
2046.625	1.668	1	generate	Run3	generate/STIM_012.jpg
2051.481	1.598	1	generate	Run3	generate/STIM_013.jpg
2056.742	1.258	1	generate	Run3	generate/STIM_013.jpg
2061.529	1.35	1	generate	Run3	generate/STIM_013.jpg
2066.596	0.719	1	generate	Run3	generate/STIM_013.jpg
2070.467	1.389	0	generate	Run3	generate/STIM_013.jpg
2074.151	1.196	0	generate	Run3	generate/STIM_014.jpg
2077.63	1.502	1	generate	Run3	generate/STIM_014.jpg
2082.032	1.208	1	generate	Run3	generate/STIM_014.jpg
2085.595	1.216	0	generate	Run3	generate/STIM_014.jpg
2090.725	1.36	1	generate	Run3	generate/STIM_014.jpg
2094.798	1.222	1	generate	Run3	generate/STIM_015.jpg
2100.08	1.202	1	generate	Run3	generate/STIM_015.jpg
2103.585	1.422	1	generate	Run3	generate/STIM_015.jpg
2108.333	0.874	1	generate	Run3	generate/STIM_015.jpg
2111.977	1.528	1	generate	Run3	generate/STIM_015.jpg
2116.859	1.818	1	generate	Run3	generate/STIM_016.jpg
2121.462	1.045	1	generate	Run3	generate/STIM_016.jpg
2125.32	1.557	1	generate	Run3	generate/STIM_016.jpg
2129.258	0.994	1	generate	Run3	generate/STIM_016.jpg
2133.531	1.338	1	generate	Run3	generate/STIM_016.jpg
2138.784	1.45	1	generate	Run3	generate/STIM_017.jpg
2142.947	1.626	1	generate	Run3	generate/STIM_017.jpg
2148.663	1.468	1	generate	Run3	generate/STIM_017.jpg
2152.34	1.029	1	generate	Run3	generate/STIM_017.jpg
2155.474	1.278	1	generate	Run3	generate/STIM_017.jpg
2159.221	1.025	1	generate	Run3	generate/STIM_018.jpg
2163.811	1.358	1	generate	Run3	generate/STIM_018.jpg
2167.729	0.913	1	generate	Run3	generate/STIM_018.jpg
2170.916	1.58	0	generate	Run3	generate/STIM_018.jpg
2175.748	1.784	1	generate	Run3	generate/STIM_018.jpg
2180.402	0.999	1	generate	Run3	generate/STIM_019.jpg
2185.4	1.195	1	generate	Run3	generate/STIM_019.jpg
2189.602	1.01	1	generate	Run3	generate/STIM_019.jpg
2193.914	1.705	1	generate	Run3	generate/STIM_019.jpg
2199.343	1.689	1	generate	Run3	generate/STIM_019.jpg
2204.334	1.574	1	generate	Run3	generate/STIM_020.jpg
2209.458	1.4	1	generate	Run3	generate/STIM_020.jpg
2214.532	1.838	1	generate	Run3	generate/STIM_020.jpg
2220.198	1.489	1	generate	Run3	generate/STIM_020.jpg
2225.712	0.824	1	generate	Run3	generate/STIM_020.jpg
2229.676	1.208	1	generate	Run3	generate/STIM_021.jpg
2234.976	1.114	1	generate	Run3	generate/STIM_021.jpg
2238.766	0.895	1	generate	Run3	generate/STIM_021.jpg
2242.162	1.554	1	generate	Run3	generate/STIM_021.jpg
2247.05	1.414	1	generate	Run3	generate/STIM_021.jpg
2252.102	0.965	1	generate	Run3	generate/STIM_022.jpg
2257.041	1.854	0	generate	Run3	generate/STIM_022.jpg
2261.102	0.83	1	generate	Run3	generate/STIM_022.jpg
2264.542	0.798	0	generate	Run3	generate/STIM_022.jpg
2269.0	0.979	1	generate	Run3	generate/STIM_022.jpg
2272.853	1.355	0	generate	Run3	generate/STIM_023.jpg
2278.362	1.762	1	generate	Run3	generate/STIM_023.jpg
2284.412	1.813	1	generate	Run3	generate/STIM_023.jpg
2288.695	0.922	1	generate	Run3	generate/STIM_023.jpg
2293.033	0.998	1	generate	Run3	generate/STIM_023.jpg
2296.417	0.966	1	generate	Run3	generate/STIM_024.jpg
2301.415	1.577	1	generate	Run3	generate/STIM_024.jpg
2306.546	1.345	1	generate	Run3	generate/STIM_024.jpg
2311.267	0.969	1	generate	Run3	generate/STIM_024.jpg
2314.512	1.067	1	generate	Run3	generate/STIM_024.jpg
2319.628	0.546	1	repeat	Run3	repeat/STIM_000.jpg
2324.194	0.545	1	repeat	Run3	repeat/STIM_000.jpg
2328.028	0.738	1	repeat	Run3	repeat/STIM_000.jpg
2332.1	0.871	1	repeat	Run3	repeat/STIM_000.jpg
2336.215	0.693	1	repeat	Run3	repeat/STIM_000.jpg
2340.424	0.608	1	repeat	Run3	repeat/STIM_001.jpg
2344.227	0.65	1	repeat	Run3	repeat/STIM_001.jpg
2347.973	0.786	1	repeat	Run3	repeat/STIM_001.jpg
2352.867	0.737	1	repeat	Run3	repeat/STIM_001.jpg
2356.502	0.512	1	repeat	Run3	repeat/STIM_001.jpg
2359.449	0.62	1	repeat	Run3	repeat/STIM_002.jpg
2363.766	0.698	1	repeat	Run3	repeat/STIM_002.jpg
2367.543	0.56	1	repeat	Run3	repeat/STIM_002.jpg
2370.872	0.893	1	repeat	Run3	repeat/STIM_002.jpg
2375.711	0.455	1	repeat	Run3	repeat/STIM_002.jpg
2378.561	0.738	1	repeat	Run3	repeat/STIM_003.jpg
2383.385	0.455	0	repeat	Run3	repeat/STIM_003.jpg
2386.619	0.557	1	repeat	Run3	repeat/STIM_003.jpg
2390.529	0.727	1	repeat	Run3	repeat/STIM_003.jpg
2394.819	0.565	1	repeat	Run3	repeat/STIM_003.jpg
2399.208	0.873	1	repeat	Run3	repeat/STIM_004.jpg
2403.187	0.886	1	repeat	Run3	repeat/STIM_004.jpg
2407.235	0.378	1	repeat	Run3	repeat/STIM_004.jpg
2410.078	0.672	1	repeat	Run3	repeat/STIM_004.jpg
2413.967	0.82	1	repeat	Run3	repeat/STIM_004.jpg
2418.833	0.41	1	repeat	Run3	repeat/STIM_005.jpg
2421.466	0.486	1	repeat	Run3	repeat/STIM_005.jpg
2424.092	0.865	1	repeat	Run3	repeat/STIM_005.jpg
2427.373	0.57	1	repeat	Run3	repeat/STIM_005.jpg
2431.206	0.554	1	repeat	Run3	repeat/STIM_005.jpg
2435.146	0.423	1	repeat	Run3	repeat/STIM_006.jpg
2437.878	0.761	1	repeat	Run3	repeat/STIM_006.jpg
2440.97	0.566	1	repeat	Run3	repeat/STIM_006.jpg
2443.767	0.855	0	repeat	Run3	repeat/STIM_006.jpg
2447.795	0.663	1	repeat	Run3	repeat/STIM_006.jpg
2452.358	0.65	0	repeat	Run3	repeat/STIM_007.jpg
2456.916	0.609	1	repeat	Run3	repeat/STIM_007.jpg
2461.253	0.413	1	repeat	Run3	repeat/STIM_007.jpg
2463.813	0.872	1	repeat	Run3	repeat/STIM_007.jpg
2468.425	0.791	1	repeat	Run3	repeat/STIM_007.jpg
2472.634	0.747	1	repeat	Run3	repeat/STIM_008.jpg
2477.181	0.694	1	repeat	Run3	repeat/STIM_008.jpg
2480.081	0.768	1	repeat	Run3	repeat/STIM_008.jpg
2484.87	0.681	1	repeat	Run3	repeat/STIM_008.jpg
2488.452	0.534	1	repeat	Run3	repeat/STIM_008.jpg
2492.233	0.667	1	repeat	Run3	repeat/STIM_009.jpg
2496.997	0.651	1	repeat	Run3	repeat/STIM_009.jpg
2500.467	0.873	0	repeat	Run3	repeat/STIM_009.jpg
2504.206	0.574	1	repeat	Run3	repeat/STIM_009.jpg
2508.622	0.541	1	repeat	Run3	repeat/STIM_009.jpg
2511.753	0.829	1	repeat	Run3	repeat/STIM_010.jpg
2516.606	0.914	1	repeat	Run3	repeat/STIM_010.jpg
2521.519	0.817	1	repeat	Run3	repeat/STIM_010.jpg
2526.405	0.803	1	repeat	Run3	repeat/STIM_010.jpg
2529.557	0.465	1	repeat	Run3	repeat/STIM_010.jpg
2533.162	0.58	1	repeat	Run3	repeat/STIM_011.jpg
2536.238	0.827	1	repeat	Run3	repeat/STIM_011.jpg
2540.211	0.804	1	repeat	Run3	repeat/STIM_011.jpg
2543.62	0.672	1	repeat	Run3	repeat/STIM_011.jpg
2547.284	0.624	1	repeat	Run3	repeat/STIM_011.jpg
2551.284	0.784	1	repeat	Run3	repeat/STIM_012.jpg
2555.178	0.554	1	repeat	Run3	repeat/STIM_012.jpg
2559.38	0.733	1	repeat	Run3	repeat/STIM_012.jpg
2562.971	0.625	1	repeat	Run3	repeat/STIM_012.jpg
2566.157	0.74	1	repeat	Run3	repeat/STIM_012.jpg
2569.819	0.552	1	repeat	Run3	repeat/STIM_013.jpg
2572.881	0.726	1	repeat	Run3	repeat/STIM_013.jpg
2576.012	0.922	1	repeat	Run3	repeat/STIM_013.jpg
2579.57	0.442	1	repeat	Run3	repeat/STIM_013.jpg
2582.91	0.768	1	repeat	Run3	repeat/STIM_013.jpg
2586.302	0.768	1	repeat	Run3	repeat/STIM_014.jpg
2590.677	0.594	1	repeat	Run3	repeat/STIM_014.jpg
2594.847	0.604	1	repeat	Run3	repeat/STIM_014.jpg
2597.935	0.493	1	repeat	Run3	repeat/STIM_014.jpg
2601.167	0.828	1	repeat	Run3	repeat/STIM_014.jpg
2605.938	1.261	1	generate	Run4	generate/STIM_000.jpg
2610.19	1.329	1	generate	Run4	generate/STIM_000.jpg
2615.219	1.545	1	generate	Run4	generate/STIM_000.jpg
2620.654	1.497	1	generate	Run4	generate/STIM_000.jpg
2624.87	1.474	1	generate	Run4	generate/STIM_000.jpg
2629.507	0.946	1	generate	Run4	generate/STIM_001.jpg
2634.348	1.604	1	generate	Run4	generate/STIM_001.jpg
2639.363	1.662	1	generate	Run4	generate/STIM_001.jpg
2643.765	1.106	1	generate	Run4	generate/STIM_001.jpg
2647.176	0.925	1	generate	Run4	generate/STIM_001.jpg
2651.194	1.312	1	generate	Run4	generate/STIM_002.jpg
2656.44	1.772	1	generate	Run4	generate/STIM_002.jpg
2661.74	1.748	1	generate	Run4	generate/STIM_002.jpg
2667.155	1.804	1	generate	Run4	generate/STIM_002.jpg
2672.479	1.067	1	generate	Run4	generate/STIM_002.jpg
2676.446	1.776	1	generate	Run4	generate/STIM_003.jpg
2682.186	1.366	1	generate	Run4	generate/STIM_003.jpg
2687.538	0.971	1	generate	Run4	generate/STIM_003.jpg
2691.598	1.273	1	generate	Run4	generate/STIM_003.jpg
2696.056	0.864	1	generate	Run4	generate/STIM_003.jpg
2699.599	0.77	1	generate	Run4	generate/STIM_004.jpg
2703.29	1.322	1	generate	Run4	generate/STIM_004.jpg
2708.362	0.972	1	generate	Run4	generate/STIM_004.jpg
2713.157	1.374	1	generate	Run4	generate/STIM_004.jpg
2718.563	1.532	1	generate	Run4	generate/STIM_004.jpg
2724.026	1.461	1	generate	Run4	generate/STIM_005.jpg
2728.06	1.118	1	generate	Run4	generate/STIM_005.jpg
2732.855	1.628	1	generate	Run4	generate/STIM_005.jpg
2738.305	1.02	1	generate	Run4	generate/STIM_005.jpg
2743.048	0.844	1	generate	Run4	generate/STIM_005.jpg
2747.915	1.819	1	generate	Run4	generate/STIM_006.jpg
2753.818	1.487	1	generate	Run4	generate/STIM_006.jpg
2758.949	0.989	1	generate	Run4	generate/STIM_006.jpg
2763.744	1.321	1	generate	Run4	generate/STIM_006.jpg
2767.584	1.826	1	generate	Run4	generate/STIM_006.jpg
2773.222	1.816	1	generate	Run4	generate/STIM_007.jpg
2779.127	1.219	1	generate	Run4	generate/STIM_007.jpg
2783.004	1.476	1	generate	Run4	generate/STIM_007.jpg
2787.369	1.771	1	generate	Run4	generate/STIM_007.jpg
2793.173	1.185	1	generate	Run4	generate/STIM_007.jpg
2797.692	1.214	1	generate	Run4	generate/STIM_008.jpg
2801.631	1.69	1	generate	Run4	generate/STIM_008.jpg
2806.431	1.379	1	generate	Run4	generate/STIM_008.jpg
2811.868	1.306	1	generate	Run4	generate/STIM_008.jpg
2816.961	1.719	1	generate	Run4	generate/STIM_008.jpg
2821.706	1.439	1	generate	Run4	generate/STIM_009.jpg
2826.601	1.057	1	generate	Run4	generate/STIM_009.jpg
2830.352	1.469	1	generate	Run4	generate/STIM_009.jpg
2834.029	1.425	1	generate	Run4	generate/STIM_009.jpg
2838.751	1.327	1	generate	Run4	generate/STIM_009.jpg
2844.182	1.475	1	generate	Run4	generate/STIM_010.jpg
2849.182	1.574	1	generate	Run4	generate/STIM_010.jpg
2854.318	1.877	1	generate	Run4	generate/STIM_010.jpg
2859.101	1.843	1	generate	Run4	generate/STIM_010.jpg
2863.534	1.48	1	generate	Run4	generate/STIM_010.jpg
2868.063	0.77	1	generate	Run4	generate/STIM_011.jpg
2872.102	1.51	1	generate	Run4	generate/STIM_011.jpg
2877.667	1.145	0	generate	Run4	generate/STIM_011.jpg
2881.357	0.821	0	generate	Run4	generate/STIM_011.jpg
2885.58	1.039	1	generate	Run4	generate/STIM_011.jpg
2890.401	1.25	1	generate	Run4	generate/STIM_012.jpg
2895.657	1.394	1	generate	Run4	generate/STIM_012.jpg
2900.462	1.448	1	generate	Run4	generate/STIM_012.jpg
2905.842	0.99	1	generate	Run4	generate/STIM_012.jpg
2909.009	1.23	1	generate	Run4	generate/STIM_012.jpg
2912.587	0.776	1	generate	Run4	generate/STIM_013.jpg
2917.126	1.579	1	generate	Run4	generate/STIM_013.jpg
2922.104	0.959	1	generate	Run4	generate/STIM_013.jpg
2925.679	1.798	1	generate	Run4	generate/STIM_013.jpg
2929.854	0.696	1	generate	Run4	generate/STIM_013.jpg
2933.924	1.115	1	generate	Run4	generate/STIM_014.jpg
2938.999	1.532	1	generate	Run4	generate/STIM_014.jpg
2943.511	0.821	1	generate	Run4	generate/STIM_014.jpg
2948.477	1.036	1	generate	Run4	generate/STIM_014.jpg
2952.801	1.178	1	generate	Run4	generate/STIM_014.jpg
2957.967	1.176	1	generate	Run4	generate/STIM_015.jpg
2961.697	1.39	1	generate	Run4	generate/STIM_015.jpg
2966.456	1.111	1	generate	Run4	generate/STIM_015.jpg
2970.488	1.048	1	generate	Run4	generate/STIM_015.jpg
2974.565	0.79	1	generate	Run4	generate/STIM_015.jpg
2978.458	1.297	1	generate	Run4	generate/STIM_016.jpg
2982.763	0.893	1	generate	Run4	generate/STIM_016.jpg
2986.269	0.72	1	generate	Run4	generate/STIM_016.jpg
2989.381	1.108	1	generate	Run4	generate/STIM_016.jpg
2992.687	0.812	1	generate	Run4	generate/STIM_016.jpg
2997.464	1.011	1	generate	Run4	generate/STIM_017.jpg
3001.448	0.766	1	generate	Run4	generate/STIM_017.jpg
3005.515	1.403	1	generate	Run4	generate/STIM_017.jpg
3009.948	0.887	1	generate	Run4	generate/STIM_017.jpg
3014.132	1.463	1	generate	Run4	generate/STIM_017.jpg
3018.017	1.175	1	generate	Run4	generate/STIM_018.jpg
3021.664	1.413	1	generate	Run4	generate/STIM_018.jpg
3025.972	1.788	1	generate	Run4	generate/STIM_018.jpg
3030.695	1.098	1	generate	Run4	generate/STIM_018.jpg
3034.874	1.594	1	generate	Run4	generate/STIM_018.jpg
3039.182	0.872	0	generate	Run4	generate/STIM_019.jpg
3042.902	0.904	1	generate	Run4	generate/STIM_019.jpg
3046.943	1.664	1	generate	Run4	generate/STIM_019.jpg
3052.541	0.91	1	generate	Run4	generate/STIM_019.jpg
3056.056	1.05	1	generate	Run4	generate/STIM_019.jpg
3060.39	0.916	1	generate	Run4	generate/STIM_020.jpg
3065.42	1.313	1	generate	Run4	generate/STIM_020.jpg
3069.046	1.138	1	generate	Run4	generate/STIM_020.jpg
3073.455	1.828	1	generate	Run4	generate/STIM_020.jpg
3078.11	1.201	1	generate	Run4	generate/STIM_020.jpg
3081.696	0.988	1	generate	Run4	generate/STIM_021.jpg
3085.555	0.818	1	generate	Run4	generate/STIM_021.jpg
3089.032	1.086	1	generate	Run4	generate/STIM_021.jpg
3093.335	1.086	1	generate	Run4	generate/STIM_021.jpg
3098.49	1.555	1	generate	Run4	generate/STIM_021.jpg
3104.142	1.504	1	generate	Run4	generate/STIM_022.jpg
3107.854	0.677	1	generate	Run4	generate/STIM_022.jpg
3112.413	0.867	1	generate	Run4	generate/STIM_022.jpg
3116.239	1.674	1	generate	Run4	generate/STIM_022.jpg
3120.545	0.95	1	generate	Run4	generate/STIM_022.jpg
3124.66	1.519	1	generate	Run4	generate/STIM_023.jpg
3130.087	1.822	1	generate	Run4	generate/STIM_023.jpg
3135.679	1.501	1	generate	Run4	generate/STIM_023.jpg
3139.872	1.355	1	generate	Run4	generate/STIM_023.jpg
3144.52	0.921	1	generate	Run4	generate/STIM_023.jpg
3148.899	0.863	1	generate	Run4	generate/STIM_024.jpg
3153.723	0.804	1	generate	Run4	generate/STIM_024.jpg
3157.009	0.869	1	generate	Run4	generate/STIM_024.jpg
3160.32	1.118	1	generate	Run4	generate/STIM_024.jpg
3165.314	1.471	1	generate	Run4	generate/STIM_024.jpg
3170.13	0.597	1	repeat	Run4	repeat/STIM_000.jpg
3174.294	0.88	1	repeat	Run4	repeat/STIM_000.jpg
3178.568	0.472	1	repeat	Run4	repeat/STIM_000.jpg
3182.332	0.672	0	repeat	Run4	repeat/STIM_000.jpg
3186.661	0.784	0	repeat	Run4	repeat/STIM_000.jpg
3190.419	0.701	1	repeat	Run4	repeat/STIM_001.jpg
3194.219	0.647	1	repeat	Run4	repeat/STIM_001.jpg
3197.232	0.878	1	repeat	Run4	repeat/STIM_001.jpg
3201.522	0.485	1	repeat	Run4	repeat/STIM_001.jpg
3204.732	0.743	1	repeat	Run4	repeat/STIM_001.jpg
3208.015	0.754	1	repeat	Run4	repeat/STIM_002.jpg
3211.106	0.542	1	repeat	Run4	repeat/STIM_002.jpg
3215.437	0.443	1	repeat	Run4	repeat/STIM_002.jpg
3218.576	0.469	1	repeat	Run4	repeat/STIM_002.jpg
3222.199	0.606	1	repeat	Run4	repeat/STIM_002.jpg
3225.31	0.4	1	repeat	Run4	repeat/STIM_003.jpg
3228.817	0.459	1	repeat	Run4	repeat/STIM_003.jpg
3232.596	0.685	1	repeat	Run4	repeat/STIM_003.jpg
3235.814	0.829	1	repeat	Run4	repeat/STIM_003.jpg
3240.709	0.735	1	repeat	Run4	repeat/STIM_003.jpg
3244.853	0.588	0	repeat	Run4	repeat/STIM_004.jpg
3248.48	0.614	1	repeat	Run4	repeat/STIM_004.jpg
3251.897	0.7	1	repeat	Run4	repeat/STIM_004.jpg
3254.91	0.436	1	repeat	Run4	repeat/STIM_004.jpg
3259.42	0.555	1	repeat	Run4	repeat/STIM_004.jpg
3263.112	0.87	1	repeat	Run4	repeat/STIM_005.jpg
3266.139	0.555	1	repeat	Run4	repeat/STIM_005.jpg
3268.783	0.794	1	repeat	Run4	repeat/STIM_005.jpg
3272.556	0.446	1	repeat	Run4	repeat/STIM_005.jpg
3275.124	0.677	1	repeat	Run4	repeat/STIM_005.jpg
3279.644	0.567	1	repeat	Run4	repeat/STIM_006.jpg
3283.075	0.827	1	repeat	Run4	repeat/STIM_006.jpg
3287.767	0.538	1	repeat	Run4	repeat/STIM_006.jpg
3291.722	0.758	1	repeat	Run4	repeat/STIM_006.jpg
3294.938	0.664	1	repeat	Run4	repeat/STIM_006.jpg
3297.719	0.861	1	repeat	Run4	repeat/STIM_007.jpg
3301.952	0.498	1	repeat	Run4	repeat/STIM_007.jpg
3306.136	0.631	1	repeat	Run4	repeat/STIM_007.jpg
3310.757	0.722	1	repeat	Run4	repeat/STIM_007.jpg
3313.877	0.684	1	repeat	Run4	repeat/STIM_007.jpg
3317.256	0.642	1	repeat	Run4	repeat/STIM_008.jpg
3321.974	0.462	1	repeat	Run4	repeat/STIM_008.jpg
3326.533	0.536	0	repeat	Run4	repeat/STIM_008.jpg
3330.134	0.599	1	repeat	Run4	repeat/STIM_008.jpg
3334.239	0.486	1	repeat	Run4	repeat/STIM_008.jpg
3337.442	0.655	1	repeat	Run4	repeat/STIM_009.jpg
3340.912	0.758	1	repeat	Run4	repeat/STIM_009.jpg
3345.176	0.729	1	repeat	Run4	repeat/STIM_009.jpg
3348.065	0.684	1	repeat	Run4	repeat/STIM_009.jpg
3351.776	0.647	1	repeat	Run4	repeat/STIM_009.jpg
3355.678	0.556	1	repeat	Run4	repeat/STIM_010.jpg
3358.952	0.671	1	repeat	Run4	repeat/STIM_010.jpg
3361.837	0.717	0	repeat	Run4	repeat/STIM_010.jpg
3365.22	0.737	1	repeat	Run4	repeat/STIM_010.jpg
3368.923	0.696	1	repeat	Run4	repeat/STIM_010.jpg
3372.961	0.852	1	repeat	Run4	repeat/STIM_011.jpg
3376.59	0.501	1	repeat	Run4	repeat/STIM_011.jpg
3379.479	0.845	1	repeat	Run4	repeat/STIM_011.jpg
3384.353	0.846	1	repeat	Run4	repeat/STIM_011.jpg
3389.146	0.489	1	repeat	Run4	repeat/STIM_011.jpg
3393.389	0.7	1	repeat	Run4	repeat/STIM_012.jpg
3398.037	0.538	1	repeat	Run4	repeat/STIM_012.jpg
3400.627	0.552	1	repeat	Run4	repeat/STIM_012.jpg
3404.78	0.679	1	repeat	Run4	repeat/STIM_012.jpg
3407.64	0.536	1	repeat	Run4	repeat/STIM_012.jpg
3411.584	0.498	1	repeat	Run4	repeat/STIM_013.jpg
3415.274	0.871	1	repeat	Run4	repeat/STIM_013.jpg
3419.327	0.526	1	repeat	Run4	repeat/STIM_013.jpg
3423.806	0.61	1	repeat	Run4	repeat/STIM_013.jpg
3426.77	0.898	1	repeat	Run4	repeat/STIM_013.jpg
3430.676	0.764	1	repeat	Run4	repeat/STIM_014.jpg
3434.861	0.496	1	repeat	Run4	repeat/STIM_014.jpg
3438.866	0.696	1	repeat	Run4	repeat/STIM_014.jpg
3442.722	0.625	1	repeat	Run4	repeat/STIM_014.jpg
3446.127	0.499	1	repeat	Run4	repeat/STIM_014.jpg
