onset	duration	accuracy	trial_type	learning_stage	stimulus
0.0	1.962	correct	generate	Run1	generate/STIM_000.jpg
4.909	2.13	incorrect	generate	Run1	generate/STIM_000.jpg
10.886	1.122	correct	generate	Run1	generate/STIM_000.jpg
14.297	1.718	correct	generate	Run1	generate/STIM_000.jpg
18.777	1.749	incorrect	generate	Run1	generate/STIM_000.jpg
22.82	1.963	correct	generate	Run1	generate/STIM_001.jpg
27.034	2.275	correct	generate	Run1	generate/STIM_001.jpg
32.132	1.03	correct	generate	Run1	generate/STIM_001.jpg
36.841	1.732	correct	generate	Run1	generate/STIM_001.jpg
42.109	1.929	correct	generate	Run1	generate/STIM_001.jpg
47.869	1.243	correct	generate	Run1	generate/STIM_002.jpg
52.229	1.835	correct	generate	Run1	generate/STIM_002.jpg
56.456	1.248	incorrect	generate	Run1	generate/STIM_002.jpg
59.935	1.042	incorrect	generate	Run1	generate/STIM_002.jpg
64.613	1.258	incorrect	generate	Run1	generate/STIM_002.jpg
68.318	2.36	correct	generate	Run1	generate/STIM_003.jpg
73.932	1.473	correct	generate	Run1	generate/STIM_003.jpg
77.935	2.051	incorrect	generate	Run1	generate/STIM_003.jpg
82.651	1.778	correct	generate	Run1	generate/STIM_003.jpg
86.959	1.853	correct	generate	Run1	generate/STIM_003.jpg
92.899	2.56	correct	generate	Run1	generate/STIM_004.jpg
99.286	1.138	correct	generate	Run1	generate/STIM_004.jpg
102.904	1.673	correct	generate	Run1	generate/STIM_004.jpg
108.644	1.387	incorrect	generate	Run1	generate/STIM_004.jpg
113.974	1.424	incorrect	generate	Run1	generate/STIM_004.jpg
118.68	1.753	correct	generate	Run1	generate/STIM_005.jpg
123.824	2.115	incorrect	generate	Run1	generate/STIM_005.jpg
128.826	1.658	correct	generate	Run1	generate/STIM_005.jpg
133.43	1.096	correct	generate	Run1	generate/STIM_005.jpg
137.767	1.954	correct	generate	Run1	generate/STIM_005.jpg
143.153	1.438	correct	generate	Run1	generate/STIM_006.jpg
148.079	1.426	correct	generate	Run1	generate/STIM_006.jpg
152.765	1.931	correct	generate	Run1	generate/STIM_006.jpg
157.777	1.768	correct	generate	Run1	generate/STIM_006.jpg
161.828	1.353	correct	generate	Run1	generate/STIM_006.jpg
166.041	2.575	correct	generate	Run1	generate/STIM_007.jpg
172.573	1.322	correct	generate	Run1	generate/STIM_007.jpg
177.932	1.359	correct	generate	Run1	generate/STIM_007.jpg
183.403	1.093	correct	generate	Run1	generate/STIM_007.jpg
187.285	1.185	correct	generate	Run1	generate/STIM_007.jpg
191.795	2.367	correct	generate	Run1	generate/STIM_008.jpg
197.57	2.12	correct	generate	Run1	generate/STIM_008.jpg
203.177	2.285	correct	generate	Run1	generate/STIM_008.jpg
207.776	2.024	incorrect	generate	Run1	generate/STIM_008.jpg
213.669	1.267	correct	generate	Run1	generate/STIM_008.jpg
217.835	2.486	correct	generate	Run1	generate/STIM_009.jpg
224.144	1.673	correct	generate	Run1	generate/STIM_009.jpg
228.132	0.995	correct	generate	Run1	generate/STIM_009.jpg
231.665	2.074	incorrect	generate	Run1	generate/STIM_009.jpg
237.286	1.684	incorrect	generate	Run1	generate/STIM_009.jpg
241.963	1.574	correct	generate	Run1	generate/STIM_010.jpg
245.813	1.344	correct	generate	Run1	generate/STIM_010.jpg
250.03	1.153	correct	generate	Run1	generate/STIM_010.jpg
254.456	1.566	incorrect	generate	Run1	generate/STIM_010.jpg
259.14	1.154	correct	generate	Run1	generate/STIM_010.jpg
262.635	2.077	correct	generate	Run1	generate/STIM_011.jpg
268.033	1.274	correct	generate	Run1	generate/STIM_011.jpg
272.732	2.232	incorrect	generate	Run1	generate/STIM_011.jpg
277.701	1.666	correct	generate	Run1	generate/STIM_011.jpg
282.781	1.81	incorrect	generate	Run1	generate/STIM_011.jpg
286.955	1.689	correct	generate	Run1	generate/STIM_012.jpg
291.641	1.028	correct	generate	Run1	generate/STIM_012.jpg
295.449	1.712	correct	generate	Run1	generate/STIM_012.jpg
300.898	1.527	correct	generate	Run1	generate/STIM_012.jpg
306.01	1.91	incorrect	generate	Run1	generate/STIM_012.jpg
311.565	2.335	correct	generate	Run1	generate/STIM_013.jpg
316.334	2.245	correct	generate	Run1	generate/STIM_013.jpg
320.967	1.847	correct	generate	Run1	generate/STIM_013.jpg
327.066	2.09	correct	generate	Run1	generate/STIM_013.jpg
331.597	1.267	correct	generate	Run1	generate/STIM_013.jpg
336.21	2.36	correct	generate	Run1	generate/STIM_014.jpg
342.467	2.171	correct	generate	Run1	generate/STIM_014.jpg
347.945	2.37	correct	generate	Run1	generate/STIM_014.jpg
353.702	1.131	correct	generate	Run1	generate/STIM_014.jpg
358.342	0.986	correct	generate	Run1	generate/STIM_014.jpg
362.181	1.756	correct	generate	Run1	generate/STIM_015.jpg
367.589	1.24	correct	generate	Run1	generate/STIM_015.jpg
372.476	2.03	correct	generate	Run1	generate/STIM_015.jpg
377.291	1.424	correct	generate	Run1	generate/STIM_015.jpg
381.083	1.52	correct	generate	Run1	generate/STIM_015.jpg
385.137	1.262	correct	generate	Run1	generate/STIM_016.jpg
389.688	1.142	correct	generate	Run1	generate/STIM_016.jpg
393.302	1.455	incorrect	generate	Run1	generate/STIM_016.jpg
396.925	1.848	correct	generate	Run1	generate/STIM_016.jpg
402.804	1.19	correct	generate	Run1	generate/STIM_016.jpg
406.769	1.923	correct	generate	Run1	generate/STIM_017.jpg
412.698	1.588	correct	generate	Run1	generate/STIM_017.jpg
417.929	1.423	correct	generate	Run1	generate/STIM_017.jpg
423.282	1.772	correct	generate	Run1	generate/STIM_017.jpg
428.662	1.768	correct	generate	Run1	generate/STIM_017.jpg
433.658	2.368	correct	generate	Run1	generate/STIM_018.jpg
440.214	1.312	incorrect	generate	Run1	generate/STIM_018.jpg
444.933	1.617	incorrect	generate	Run1	generate/STIM_018.jpg
450.051	1.874	correct	generate	Run1	generate/STIM_018.jpg
455.262	1.182	correct	generate	Run1	generate/STIM_018.jpg
460.352	1.742	correct	generate	Run1	generate/STIM_019.jpg
464.941	2.378	correct	generate	Run1	generate/STIM_019.jpg
471.176	1.987	correct	generate	Run1	generate/STIM_019.jpg
477.27	1.962	correct	generate	Run1	generate/STIM_019.jpg
481.762	1.222	correct	generate	Run1	generate/STIM_019.jpg
485.527	1.456	correct	generate	Run1	generate/STIM_020.jpg
491.111	1.985	incorrect	generate	Run1	generate/STIM_020.jpg
496.072	1.548	incorrect	generate	Run1	generate/STIM_020.jpg
499.932	1.439	incorrect	generate	Run1	generate/STIM_020.jpg
505.492	1.504	correct	generate	Run1	generate/STIM_020.jpg
510.733	2.579	correct	generate	Run1	generate/STIM_021.jpg
516.328	1.088	incorrect	generate	Run1	generate/STIM_021.jpg
519.662	1.836	correct	generate	Run1	generate/STIM_021.jpg
525.605	1.784	correct	generate	Run1	generate/STIM_021.jpg
530.579	1.206	correct	generate	Run1	generate/STIM_021.jpg
535.839	2.252	correct	generate	Run1	generate/STIM_022.jpg
541.922	1.457	correct	generate	Run1	generate/STIM_022.jpg
546.579	1.357	correct	generate	Run1	generate/STIM_022.jpg
551.099	1.258	correct	generate	Run1	generate/STIM_022.jpg
554.867	1.822	correct	generate	Run1	generate/STIM_022.jpg
560.249	2.616	correct	generate	Run1	generate/STIM_023.jpg
565.244	2.272	incorrect	generate	Run1	generate/STIM_023.jpg
570.806	1.74	correct	generate	Run1	generate/STIM_023.jpg
576.016	1.154	correct	generate	Run1	generate/STIM_023.jpg
580.946	1.85	correct	generate	Run1	generate/STIM_023.jpg
585.903	1.655	correct	generate	Run1	generate/STIM_024.jpg
589.722	1.784	correct	generate	Run1	generate/STIM_024.jpg
594.542	1.81	incorrect	generate	Run1	generate/STIM_024.jpg
599.229	1.867	incorrect	generate	Run1	generate/STIM_024.jpg
603.873	1.401	correct	generate	Run1	generate/STIM_024.jpg
608.133	0.753	correct	repeat	Run1	repeat/STIM_000.jpg
612.736	0.591	correct	repeat	Run1	repeat/STIM_000.jpg
616.469	0.806	correct	repeat	Run1	repeat/STIM_000.jpg
621.377	0.666	correct	repeat	Run1	repeat/STIM_000.jpg
624.304	0.512	correct	repeat	Run1	repeat/STIM_000.jpg
627.632	0.876	correct	repeat	Run1	repeat/STIM_001.jpg
632.046	0.559	correct	repeat	Run1	repeat/STIM_001.jpg
634.934	0.873	correct	repeat	Run1	repeat/STIM_001.jpg
638.402	0.603	correct	repeat	Run1	repeat/STIM_001.jpg
641.226	0.726	correct	repeat	Run1	repeat/STIM_001.jpg
644.655	0.753	correct	repeat	Run1	repeat/STIM_002.jpg
648.121	0.543	correct	repeat	Run1	repeat/STIM_002.jpg
652.07	0.615	correct	repeat	Run1	repeat/STIM_002.jpg
654.917	0.742	correct	repeat	Run1	repeat/STIM_002.jpg
659.179	0.703	correct	repeat	Run1	repeat/STIM_002.jpg
663.417	0.72	correct	repeat	Run1	repeat/STIM_003.jpg
666.767	0.645	incorrect	repeat	Run1	repeat/STIM_003.jpg
669.605	0.753	correct	repeat	Run1	repeat/STIM_003.jpg
673.366	0.534	correct	repeat	Run1	repeat/STIM_003.jpg
677.723	0.609	correct	repeat	Run1	repeat/STIM_003.jpg
680.989	0.418	correct	repeat	Run1	repeat/STIM_004.jpg
685.067	0.687	correct	repeat	Run1	repeat/STIM_004.jpg
688.677	0.712	correct	repeat	Run1	repeat/STIM_004.jpg
693.236	0.675	correct	repeat	Run1	repeat/STIM_004.jpg
697.73	0.727	correct	repeat	Run1	repeat/STIM_004.jpg
702.514	0.622	correct	repeat	Run1	repeat/STIM_005.jpg
706.508	0.716	correct	repeat	Run1	repeat/STIM_005.jpg
710.797	0.636	correct	repeat	Run1	repeat/STIM_005.jpg
715.463	0.567	correct	repeat	Run1	repeat/STIM_005.jpg
718.867	0.744	correct	repeat	Run1	repeat/STIM_005.jpg
723.673	0.599	correct	repeat	Run1	repeat/STIM_006.jpg
726.945	0.675	correct	repeat	Run1	repeat/STIM_006.jpg
729.721	0.79	correct	repeat	Run1	repeat/STIM_006.jpg
734.145	0.744	correct	repeat	Run1	repeat/STIM_006.jpg
738.226	0.552	correct	repeat	Run1	repeat/STIM_006.jpg
742.052	0.571	correct	repeat	Run1	repeat/STIM_007.jpg
746.442	0.612	correct	repeat	Run1	repeat/STIM_007.jpg
749.76	0.586	correct	repeat	Run1	repeat/STIM_007.jpg
752.938	0.734	correct	repeat	Run1	repeat/STIM_007.jpg
755.876	0.634	correct	repeat	Run1	repeat/STIM_007.jpg
759.801	0.579	correct	repeat	Run1	repeat/STIM_008.jpg
764.338	0.834	correct	repeat	Run1	repeat/STIM_008.jpg
768.776	0.738	correct	repeat	Run1	repeat/STIM_008.jpg
772.927	0.424	correct	repeat	Run1	repeat/STIM_008.jpg
777.393	0.792	correct	repeat	Run1	repeat/STIM_008.jpg
781.742	0.658	correct	repeat	Run1	repeat/STIM_009.jpg
786.392	0.517	correct	repeat	Run1	repeat/STIM_009.jpg
789.615	0.762	correct	repeat	Run1	repeat/STIM_009.jpg
792.785	0.411	correct	repeat	Run1	repeat/STIM_009.jpg
796.815	0.91	correct	repeat	Run1	repeat/STIM_009.jpg
801.666	0.717	correct	repeat	Run1	repeat/STIM_010.jpg
804.495	0.814	correct	repeat	Run1	repeat/STIM_010.jpg
807.505	0.587	correct	repeat	Run1	repeat/STIM_010.jpg
810.219	0.47	correct	repeat	Run1	repeat/STIM_010.jpg
813.532	0.508	correct	repeat	Run1	repeat/STIM_010.jpg
816.812	0.654	correct	repeat	Run1	repeat/STIM_011.jpg
819.936	0.624	correct	repeat	Run1	repeat/STIM_011.jpg
824.302	0.579	correct	repeat	Run1	repeat/STIM_011.jpg
828.177	0.717	correct	repeat	Run1	repeat/STIM_011.jpg
832.025	0.534	correct	repeat	Run1	repeat/STIM_011.jpg
836.57	0.696	correct	repeat	Run1	repeat/STIM_012.jpg
839.392	0.761	incorrect	repeat	Run1	repeat/STIM_012.jpg
842.894	0.634	correct	repeat	Run1	repeat/STIM_012.jpg
847.564	0.626	correct	repeat	Run1	repeat/STIM_012.jpg
850.69	0.701	correct	repeat	Run1	repeat/STIM_012.jpg
855.495	0.613	correct	repeat	Run1	repeat/STIM_013.jpg
858.998	0.736	correct	repeat	Run1	repeat/STIM_013.jpg
863.184	0.407	correct	repeat	Run1	repeat/STIM_013.jpg
866.581	0.777	correct	repeat	Run1	repeat/STIM_013.jpg
870.76	0.448	correct	repeat	Run1	repeat/STIM_013.jpg
875.178	0.909	correct	repeat	Run1	repeat/STIM_014.jpg
880.102	0.501	correct	repeat	Run1	repeat/STIM_014.jpg
884.618	0.843	correct	repeat	Run1	repeat/STIM_014.jpg
888.719	0.516	correct	repeat	Run1	repeat/STIM_014.jpg
893.209	0.754	correct	repeat	Run1	repeat/STIM_014.jpg
896.112	1.914	correct	generate	Run2	generate/STIM_000.jpg
901.738	1.47	correct	generate	Run2	generate/STIM_000.jpg
907.011	1.222	correct	generate	Run2	generate/STIM_000.jpg
910.463	1.354	correct	generate	Run2	generate/STIM_000.jpg
915.148	1.033	correct	generate	Run2	generate/STIM_000.jpg
918.54	1.104	correct	generate	Run2	generate/STIM_001.jpg
922.4	1.609	correct	generate	Run2	generate/STIM_001.jpg
926.952	1.297	correct	generate	Run2	generate/STIM_001.jpg
930.859	1.725	correct	generate	Run2	generate/STIM_001.jpg
934.871	1.57	correct	generate	Run2	generate/STIM_001.jpg
940.42	2.229	incorrect	generate	Run2	generate/STIM_002.jpg
945.452	1.576	correct	generate	Run2	generate/STIM_002.jpg
949.446	1.622	correct	generate	Run2	generate/STIM_002.jpg
955.192	0.988	correct	generate	Run2	generate/STIM_002.jpg
958.853	0.766	incorrect	generate	Run2	generate/STIM_002.jpg
961.831	1.702	correct	generate	Run2	generate/STIM_003.jpg
966.498	1.773	correct	generate	Run2	generate/STIM_003.jpg
971.975	0.971	correct	generate	Run2	generate/STIM_003.jpg
975.308	0.753	correct	generate	Run2	generate/STIM_003.jpg
979.322	0.983	correct	generate	Run2	generate/STIM_003.jpg
982.678	2.074	correct	generate	Run2	generate/STIM_004.jpg
987.269	1.812	incorrect	generate	Run2	generate/STIM_004.jpg
993.28	0.909	correct	generate	Run2	generate/STIM_004.jpg
996.306	1.004	correct	generate	Run2	generate/STIM_004.jpg
1000.882	1.758	correct	generate	Run2	generate/STIM_004.jpg
1005.802	1.637	correct	generate	Run2	generate/STIM_005.jpg
1010.928	1.38	correct	generate	Run2	generate/STIM_005.jpg
1015.916	1.78	incorrect	generate	Run2	generate/STIM_005.jpg
1020.79	1.842	incorrect	generate	Run2	generate/STIM_005.jpg
1025.369	1.519	correct	generate	Run2	generate/STIM_005.jpg
1030.388	1.445	correct	generate	Run2	generate/STIM_006.jpg
1034.313	1.083	correct	generate	Run2	generate/STIM_006.jpg
1038.63	1.924	incorrect	generate	Run2	generate/STIM_006.jpg
1043.95	1.053	correct	generate	Run2	generate/STIM_006.jpg
1047.966	1.585	correct	generate	Run2	generate/STIM_006.jpg
1052.363	2.16	correct	generate	Run2	generate/STIM_007.jpg
1057.656	1.229	correct	generate	Run2	generate/STIM_007.jpg
1062.329	0.932	correct	generate	Run2	generate/STIM_007.jpg
1066.923	1.554	correct	generate	Run2	generate/STIM_007.jpg
1071.081	1.315	correct	generate	Run2	generate/STIM_007.jpg
1074.848	1.039	correct	generate	Run2	generate/STIM_008.jpg
1079.192	1.893	correct	generate	Run2	generate/STIM_008.jpg
1084.264	1.225	correct	generate	Run2	generate/STIM_008.jpg
1089.432	1.751	correct	generate	Run2	generate/STIM_008.jpg
1094.575	1.482	correct	generate	Run2	generate/STIM_008.jpg
1099.918	1.712	correct	generate	Run2	generate/STIM_009.jpg
1103.986	2.022	incorrect	generate	Run2	generate/STIM_009.jpg
1109.641	1.245	incorrect	generate	Run2	generate/STIM_009.jpg
1113.101	0.78	correct	generate	Run2	generate/STIM_009.jpg
1117.956	0.921	correct	generate	Run2	generate/STIM_009.jpg
1121.634	1.261	correct	generate	Run2	generate/STIM_010.jpg
1126.707	1.884	correct	generate	Run2	generate/STIM_010.jpg
1132.712	1.301	correct	generate	Run2	generate/STIM_010.jpg
1136.627	1.6	correct	generate	Run2	generate/STIM_010.jpg
1142.222	1.598	correct	generate	Run2	generate/STIM_010.jpg
1147.401	1.51	correct	generate	Run2	generate/STIM_011.jpg
1151.653	1.051	correct	generate	Run2	generate/STIM_011.jpg
1155.978	1.118	correct	generate	Run2	generate/STIM_011.jpg
1161.202	1.531	correct	generate	Run2	generate/STIM_011.jpg
1167.028	1.762	correct	generate	Run2	generate/STIM_011.jpg
1172.725	2.122	correct	generate	Run2	generate/STIM_012.jpg
1177.591	1.648	correct	generate	Run2	generate/STIM_012.jpg
1181.876	1.486	correct	generate	Run2	generate/STIM_012.jpg
1185.581	0.894	correct	generate	Run2	generate/STIM_012.jpg
1188.592	1.39	correct	generate	Run2	generate/STIM_012.jpg
1194.191	1.37	correct	generate	Run2	generate/STIM_013.jpg
1197.79	1.32	correct	generate	Run2	generate/STIM_013.jpg
1202.215	1.349	correct	generate	Run2	generate/STIM_013.jpg
1206.043	1.245	correct	generate	Run2	generate/STIM_013.jpg
1210.634	1.243	correct	generate	Run2	generate/STIM_013.jpg
1215.822	1.268	correct	generate	Run2	generate/STIM_014.jpg
1220.559	1.732	correct	generate	Run2	generate/STIM_014.jpg
1226.008	1.181	correct	generate	Run2	generate/STIM_014.jpg
1231.113	1.676	correct	generate	Run2	generate/STIM_014.jpg
1235.714	1.734	correct	generate	Run2	generate/STIM_014.jpg
1240.041	1.904	correct	generate	Run2	generate/STIM_015.jpg
1245.014	1.025	correct	generate	Run2	generate/STIM_015.jpg
1248.871	1.085	correct	generate	Run2	generate/STIM_015.jpg
1253.709	1.302	correct	generate	Run2	generate/STIM_015.jpg
1258.417	0.948	correct	generate	Run2	generate/STIM_015.jpg
1261.692	1.413	correct	generate	Run2	generate/STIM_016.jpg
1265.582	1.459	correct	generate	Run2	generate/STIM_016.jpg
1271.048	1.028	correct	generate	Run2	generate/STIM_016.jpg
1275.083	1.335	correct	generate	Run2	generate/STIM_016.jpg
1280.189	1.164	correct	generate	Run2	generate/STIM_016.jpg
1284.977	1.86	correct	generate	Run2	generate/STIM_017.jpg
1289.445	1.719	correct	generate	Run2	generate/STIM_017.jpg
1295.089	1.995	incorrect	generate	Run2	generate/STIM_017.jpg
1300.495	1.669	correct	generate	Run2	generate/STIM_017.jpg
1306.213	1.463	correct	generate	Run2	generate/STIM_017.jpg
1311.0	1.905	correct	generate	Run2	generate/STIM_018.jpg
1315.815	0.916	correct	generate	Run2	generate/STIM_018.jpg
1319.122	0.949	correct	generate	Run2	generate/STIM_018.jpg
1323.75	1.331	correct	generate	Run2	generate/STIM_018.jpg
1328.565	1.199	incorrect	generate	Run2	generate/STIM_018.jpg
1332.861	1.231	correct	generate	Run2	generate/STIM_019.jpg
1337.876	0.93	correct	generate	Run2	generate/STIM_019.jpg
1341.883	1.073	correct	generate	Run2	generate/STIM_019.jpg
1346.688	1.102	incorrect	generate	Run2	generate/STIM_019.jpg
1351.132	0.872	correct	generate	Run2	generate/STIM_019.jpg
1355.25	2.02	correct	generate	Run2	generate/STIM_020.jpg
1359.956	2.042	correct	generate	Run2	generate/STIM_020.jpg
1364.477	1.367	incorrect	generate	Run2	generate/STIM_020.jpg
1369.19	1.664	incorrect	generate	Run2	generate/STIM_020.jpg
1375.111	1.635	correct	generate	Run2	generate/STIM_020.jpg
1380.182	1.911	correct	generate	Run2	generate/STIM_021.jpg
1384.933	1.127	correct	generate	Run2	generate/STIM_021.jpg
1389.772	0.895	correct	generate	Run2	generate/STIM_021.jpg
1393.636	0.82	correct	generate	Run2	generate/STIM_021.jpg
1397.662	0.996	correct	generate	Run2	generate/STIM_021.jpg
1401.108	1.34	incorrect	generate	Run2	generate/STIM_022.jpg
1404.677	1.202	correct	generate	Run2	generate/STIM_022.jpg
1408.173	0.905	correct	generate	Run2	generate/STIM_022.jpg
1411.366	1.545	correct	generate	Run2	generate/STIM_022.jpg
1415.193	1.748	incorrect	generate	Run2	generate/STIM_022.jpg
1419.817	1.761	incorrect	generate	Run2	generate/STIM_023.jpg
1424.428	1.545	correct	generate	Run2	generate/STIM_023.jpg
1428.299	1.533	incorrect	generate	Run2	generate/STIM_023.jpg
1433.212	1.085	correct	generate	Run2	generate/STIM_023.jpg
1438.016	1.004	correct	generate	Run2	generate/STIM_023.jpg
1442.295	1.91	correct	generate	Run2	generate/STIM_024.jpg
1446.73	1.299	correct	generate	Run2	generate/STIM_024.jpg
1450.443	1.904	correct	generate	Run2	generate/STIM_024.jpg
1456.557	1.094	correct	generate	Run2	generate/STIM_024.jpg
1461.64	1.309	correct	generate	Run2	generate/STIM_024.jpg
1466.097	0.834	correct	repeat	Run2	repeat/STIM_000.jpg
1469.934	0.422	correct	repeat	Run2	repeat/STIM_000.jpg
1472.846	0.456	correct	repeat	Run2	repeat/STIM_000.jpg
1476.871	0.787	correct	repeat	Run2	repeat/STIM_000.jpg
1480.376	0.71	correct	repeat	Run2	repeat/STIM_000.jpg
1484.472	0.566	correct	repeat	Run2	repeat/STIM_001.jpg
1488.73	0.727	correct	repeat	Run2	repeat/STIM_001.jpg
1492.855	0.734	correct	repeat	Run2	repeat/STIM_001.jpg
1496.021	0.797	correct	repeat	Run2	repeat/STIM_001.jpg
1500.129	0.552	correct	repeat	Run2	repeat/STIM_001.jpg
1503.372	0.607	incorrect	repeat	Run2	repeat/STIM_002.jpg
1506.472	0.557	correct	repeat	Run2	repeat/STIM_002.jpg
1510.704	0.725	correct	repeat	Run2	repeat/STIM_002.jpg
1515.515	0.67	correct	repeat	Run2	repeat/STIM_002.jpg
1518.437	0.722	correct	repeat	Run2	repeat/STIM_002.jpg
1522.666	0.69	correct	repeat	Run2	repeat/STIM_003.jpg
1526.644	0.483	correct	repeat	Run2	repeat/STIM_003.jpg
1530.076	0.613	correct	repeat	Run2	repeat/STIM_003.jpg
1532.998	0.758	correct	repeat	Run2	repeat/STIM_003.jpg
1537.233	0.63	correct	repeat	Run2	repeat/STIM_003.jpg
1540.061	0.878	correct	repeat	Run2	repeat/STIM_004.jpg
1544.221	0.559	correct	repeat	Run2	repeat/STIM_004.jpg
1547.32	0.671	correct	repeat	Run2	repeat/STIM_004.jpg
1551.886	0.811	correct	repeat	Run2	repeat/STIM_004.jpg
1555.453	0.753	correct	repeat	Run2	repeat/STIM_004.jpg
1558.736	0.949	correct	repeat	Run2	repeat/STIM_005.jpg
1563.03	0.889	correct	repeat	Run2	repeat/STIM_005.jpg
1567.828	0.934	correct	repeat	Run2	repeat/STIM_005.jpg
1571.978	0.502	correct	repeat	Run2	repeat/STIM_005.jpg
1575.779	0.786	correct	repeat	Run2	repeat/STIM_005.jpg
1579.92	0.885	correct	repeat	Run2	repeat/STIM_006.jpg
1583.727	0.554	correct	repeat	Run2	repeat/STIM_006.jpg
1587.592	0.63	correct	repeat	Run2	repeat/STIM_006.jpg
1590.6	0.794	correct	repeat	Run2	repeat/STIM_006.jpg
1594.629	0.749	correct	repeat	Run2	repeat/STIM_006.jpg
1598.734	0.636	correct	repeat	Run2	repeat/STIM_007.jpg
1601.952	0.768	correct	repeat	Run2	repeat/STIM_007.jpg
1605.789	0.466	correct	repeat	Run2	repeat/STIM_007.jpg
1610.227	0.836	correct	repeat	Run2	repeat/STIM_007.jpg
1614.467	0.578	correct	repeat	Run2	repeat/STIM_007.jpg
1618.334	0.456	correct	repeat	Run2	repeat/STIM_008.jpg
1621.932	0.836	correct	repeat	Run2	repeat/STIM_008.jpg
1626.652	0.752	correct	repeat	Run2	repeat/STIM_008.jpg
1630.414	0.835	correct	repeat	Run2	repeat/STIM_008.jpg
1633.342	0.702	incorrect	repeat	Run2	repeat/STIM_008.jpg
1636.62	0.444	correct	repeat	Run2	repeat/STIM_009.jpg
1639.829	0.446	incorrect	repeat	Run2	repeat/STIM_009.jpg
1642.378	0.73	correct	repeat	Run2	repeat/STIM_009.jpg
1646.394	0.817	correct	repeat	Run2	repeat/STIM_009.jpg
1650.863	0.916	correct	repeat	Run2	repeat/STIM_009.jpg
1655.21	0.641	correct	repeat	Run2	repeat/STIM_010.jpg
1659.018	0.538	correct	repeat	Run2	repeat/STIM_010.jpg
1663.685	0.844	correct	repeat	Run2	repeat/STIM_010.jpg
1667.292	0.648	correct	repeat	Run2	repeat/STIM_010.jpg
1670.989	0.763	incorrect	repeat	Run2	repeat/STIM_010.jpg
1675.744	0.749	correct	repeat	Run2	repeat/STIM_011.jpg
1679.151	0.734	incorrect	repeat	Run2	repeat/STIM_011.jpg
1683.558	0.52	correct	repeat	Run2	repeat/STIM_011.jpg
1686.229	0.72	correct	repeat	Run2	repeat/STIM_011.jpg
1689.34	0.536	correct	repeat	Run2	repeat/STIM_011.jpg
1692.711	0.634	correct	repeat	Run2	repeat/STIM_012.jpg
1697.23	0.657	correct	repeat	Run2	repeat/STIM_012.jpg
1701.71	0.774	correct	repeat	Run2	repeat/STIM_012.jpg
1704.732	0.733	correct	repeat	Run2	repeat/STIM_012.jpg
1708.676	0.65	correct	repeat	Run2	repeat/STIM_012.jpg
1711.822	0.743	correct	repeat	Run2	repeat/STIM_013.jpg
1715.898	0.726	correct	repeat	Run2	repeat/STIM_013.jpg
1720.64	0.604	correct	repeat	Run2	repeat/STIM_013.jpg
1723.571	0.571	correct	repeat	Run2	repeat/STIM_013.jpg
1726.682	0.662	correct	repeat	Run2	repeat/STIM_013.jpg
1731.378	0.771	correct	repeat	Run2	repeat/STIM_014.jpg
1736.031	0.799	correct	repeat	Run2	repeat/STIM_014.jpg
1739.054	0.841	correct	repeat	Run2	repeat/STIM_014.jpg
1742.647	0.425	correct	repeat	Run2	repeat/STIM_014.jpg
1747.115	0.694	correct	repeat	Run2	repeat/STIM_014.jpg
1751.33	1.034	correct	generate	Run3	generate/STIM_000.jpg
1756.019	1.467	correct	generate	Run3	generate/STIM_000.jpg
1761.183	0.811	correct	generate	Run3	generate/STIM_000.jpg
1765.299	1.333	correct	generate	Run3	generate/STIM_000.jpg
1769.318	1.864	correct	generate	Run3	generate/STIM_000.jpg
1774.941	1.72	correct	generate	Run3	generate/STIM_001.jpg
1780.826	1.445	correct	generate	Run3	generate/STIM_001.jpg
1786.172	0.778	incorrect	generate	Run3	generate/STIM_001.jpg
1790.424	0.895	correct	generate	Run3	generate/STIM_001.jpg
1794.162	0.962	correct	generate	Run3	generate/STIM_001.jpg
1797.552	1.754	correct	generate	Run3	generate/STIM_002.jpg
1803.618	1.273	incorrect	generate	Run3	generate/STIM_002.jpg
1807.812	1.11	correct	generate	Run3	generate/STIM_002.jpg
1812.528	1.677	correct	generate	Run3	generate/STIM_002.jpg
1817.526	1.279	correct	generate	Run3	generate/STIM_002.jpg
1821.176	1.86	correct	generate	Run3	generate/STIM_003.jpg
1825.704	1.395	correct	generate	Run3	generate/STIM_003.jpg
1830.777	1.637	correct	generate	Run3	generate/STIM_003.jpg
1835.522	0.888	correct	generate	Run3	generate/STIM_003.jpg
1840.054	1.723	correct	generate	Run3	generate/STIM_003.jpg
1845.284	1.118	correct	generate	Run3	generate/STIM_004.jpg
1848.773	1.065	correct	generate	Run3	generate/STIM_004.jpg
1852.288	1.392	correct	generate	Run3	generate/STIM_004.jpg
1857.167	1.681	correct	generate	Run3	generate/STIM_004.jpg
1862.577	0.807	incorrect	generate	Run3	generate/STIM_004.jpg
1866.242	1.315	correct	generate	Run3	generate/STIM_005.jpg
1870.453	1.365	correct	generate	Run3	generate/STIM_005.jpg
1875.311	1.527	correct	generate	Run3	generate/STIM_005.jpg
1880.9	1.67	correct	generate	Run3	generate/STIM_005.jpg
1885.372	1.56	correct	generate	Run3	generate/STIM_005.jpg
1890.283	1.667	correct	generate	Run3	generate/STIM_006.jpg
1894.543	1.396	incorrect	generate	Run3	generate/STIM_006.jpg
1898.698	1.641	correct	generate	Run3	generate/STIM_006.jpg
1903.818	1.787	correct	generate	Run3	generate/STIM_006.jpg
1908.814	1.542	correct	generate	Run3	generate/STIM_006.jpg
1912.734	0.734	correct	generate	Run3	generate/STIM_007.jpg
1916.281	1.283	correct	generate	Run3	generate/STIM_007.jpg
1920.51	1.104	correct	generate	Run3	generate/STIM_007.jpg
1925.643	0.937	correct	generate	Run3	generate/STIM_007.jpg
1930.48	1.656	correct	generate	Run3	generate/STIM_007.jpg
1935.375	1.467	correct	generate	Run3	generate/STIM_008.jpg
1941.123	1.853	correct	generate	Run3	generate/STIM_008.jpg
1945.434	1.07	correct	generate	Run3	generate/STIM_008.jpg
1948.926	0.835	correct	generate	Run3	generate/STIM_008.jpg
1951.969	0.99	incorrect	generate	Run3	generate/STIM_008.jpg
1956.808	1.276	correct	generate	Run3	generate/STIM_009.jpg
1961.278	1.191	correct	generate	Run3	generate/STIM_009.jpg
1965.4	1.243	correct	generate	Run3	generate/STIM_009.jpg
1970.246	1.362	correct	generate	Run3	generate/STIM_009.jpg
1975.379	1.406	correct	generate	Run3	generate/STIM_009.jpg
1979.097	1.144	correct	generate	Run3	generate/STIM_010.jpg
1983.779	1.683	correct	generate	Run3	generate/STIM_010.jpg
1988.475	1.088	incorrect	generate	Run3	generate/STIM_010.jpg
1992.884	1.366	correct	generate	Run3	generate/STIM_010.jpg
1997.897	1.249	correct	generate	Run3	generate/STIM_010.jpg
2002.54	1.664	correct	generate	Run3	generate/STIM_011.jpg
2006.932	1.528	correct	generate	Run3	generate/STIM_011.jpg
2012.187	1.606	correct	generate	Run3	generate/STIM_011.jpg
2017.326	1.668	correct	generate	Run3	generate/STIM_011.jpg
2021.67	0.897	incorrect	generate	Run3	generate/STIM_011.jpg
2025.342	1.256	correct	generate	Run3	generate/STIM_012.jpg
2030.685	1.77	correct	generate	Run3	generate/STIM_012.jpg
2036.653	1.631	incorrect	generate	Run3	generate/STIM_012.jpg
2042.228	1.62	correct	generate	Run3	generate/STIM_012.jpg
2046.625	1.668	correct	generate	Run3	generate/STIM_012.jpg
2051.481	1.598	correct	generate	Run3	generate/STIM_013.jpg
2056.742	1.258	correct	generate	Run3	generate/STIM_013.jpg
2061.529	1.35	correct	generate	Run3	generate/STIM_013.jpg
2066.596	0.719	correct	generate	Run3	generate/STIM_013.jpg
2070.467	1.389	incorrect	generate	Run3	generate/STIM_013.jpg
2074.151	1.196	incorrect	generate	Run3	generate/STIM_014.jpg
2077.63	1.502	correct	generate	Run3	generate/STIM_014.jpg
2082.032	1.208	correct	generate	Run3	generate/STIM_014.jpg
2085.595	1.216	incorrect	generate	Run3	generate/STIM_014.jpg
2090.725	1.36	correct	generate	Run3	generate/STIM_014.jpg
2094.798	1.222	correct	generate	Run3	generate/STIM_015.jpg
2100.08	1.202	correct	generate	Run3	generate/STIM_015.jpg
2103.585	1.422	correct	generate	Run3	generate/STIM_015.jpg
2108.333	0.874	correct	generate	Run3	generate/STIM_015.jpg
2111.977	1.528	correct	generate	Run3	generate/STIM_015.jpg
2116.859	1.818	correct	generate	Run3	generate/STIM_016.jpg
2121.462	1.045	correct	generate	Run3	generate/STIM_016.jpg
2125.32	1.557	correct	generate	Run3	generate/STIM_016.jpg
2129.258	0.994	correct	generate	Run3	generate/STIM_016.jpg
2133.531	1.338	correct	generate	Run3	generate/STIM_016.jpg
2138.784	1.45	correct	generate	Run3	generate/STIM_017.jpg
2142.947	1.626	correct	generate	Run3	generate/STIM_017.jpg
2148.663	1.468	correct	generate	Run3	generate/STIM_017.jpg
2152.34	1.029	correct	generate	Run3	generate/STIM_017.jpg
2155.474	1.278	correct	generate	Run3	generate/STIM_017.jpg
2159.221	1.025	correct	generate	Run3	generate/STIM_018.jpg
2163.811	1.358	correct	generate	Run3	generate/STIM_018.jpg
2167.729	0.913	correct	generate	Run3	generate/STIM_018.jpg
2170.916	1.58	incorrect	generate	Run3	generate/STIM_018.jpg
2175.748	1.784	correct	generate	Run3	generate/STIM_018.jpg
2180.402	0.999	correct	generate	Run3	generate/STIM_019.jpg
2185.4	1.195	correct	generate	Run3	generate/STIM_019.jpg
2189.602	1.01	correct	generate	Run3	generate/STIM_019.jpg
2193.914	1.705	correct	generate	Run3	generate/STIM_019.jpg
2199.343	1.689	correct	generate	Run3	generate/STIM_019.jpg
2204.334	1.574	correct	generate	Run3	generate/STIM_020.jpg
2209.458	1.4	correct	generate	Run3	generate/STIM_020.jpg
2214.532	1.838	correct	generate	Run3	generate/STIM_020.jpg
2220.198	1.489	correct	generate	Run3	generate/STIM_020.jpg
2225.712	0.824	correct	generate	Run3	generate/STIM_020.jpg
2229.676	1.208	correct	generate	Run3	generate/STIM_021.jpg
2234.976	1.114	correct	generate	Run3	generate/STIM_021.jpg
2238.766	0.895	correct	generate	Run3	generate/STIM_021.jpg
2242.162	1.554	correct	generate	Run3	generate/STIM_021.jpg
2247.05	1.414	correct	generate	Run3	generate/STIM_021.jpg
2252.102	0.965	correct	generate	Run3	generate/STIM_022.jpg
2257.041	1.854	incorrect	generate	Run3	generate/STIM_022.jpg
2261.102	0.83	correct	generate	Run3	generate/STIM_022.jpg
2264.542	0.798	incorrect	generate	Run3	generate/STIM_022.jpg
2269.0	0.979	correct	generate	Run3	generate/STIM_022.jpg
2272.853	1.355	incorrect	generate	Run3	generate/STIM_023.jpg
2278.362	1.762	correct	generate	Run3	generate/STIM_023.jpg
2284.412	1.813	correct	generate	Run3	generate/STIM_023.jpg
2288.695	0.922	correct	generate	Run3	generate/STIM_023.jpg
2293.033	0.998	correct	generate	Run3	generate/STIM_023.jpg
2296.417	0.966	correct	generate	Run3	generate/STIM_024.jpg
2301.415	1.577	correct	generate	Run3	generate/STIM_024.jpg
2306.546	1.345	correct	generate	Run3	generate/STIM_024.jpg
2311.267	0.969	correct	generate	Run3	generate/STIM_024.jpg
2314.512	1.067	correct	generate	Run3	generate/STIM_024.jpg
2319.628	0.546	correct	repeat	Run3	repeat/STIM_000.jpg
2324.194	0.545	correct	repeat	Run3	repeat/STIM_000.jpg
2328.028	0.738	correct	repeat	Run3	repeat/STIM_000.jpg
2332.1	0.871	correct	repeat	Run3	repeat/STIM_000.jpg
2336.215	0.693	correct	repeat	Run3	repeat/STIM_000.jpg
2340.424	0.608	correct	repeat	Run3	repeat/STIM_001.jpg
2344.227	0.65	correct	repeat	Run3	repeat/STIM_001.jpg
2347.973	0.786	correct	repeat	Run3	repeat/STIM_001.jpg
2352.867	0.737	correct	repeat	Run3	repeat/STIM_001.jpg
2356.502	0.512	correct	repeat	Run3	repeat/STIM_001.jpg
2359.449	0.62	correct	repeat	Run3	repeat/STIM_002.jpg
2363.766	0.698	correct	repeat	Run3	repeat/STIM_002.jpg
2367.543	0.56	correct	repeat	Run3	repeat/STIM_002.jpg
2370.872	0.893	correct	repeat	Run3	repeat/STIM_002.jpg
2375.711	0.455	correct	repeat	Run3	repeat/STIM_002.jpg
2378.561	0.738	correct	repeat	Run3	repeat/STIM_003.jpg
2383.385	0.455	incorrect	repeat	Run3	repeat/STIM_003.jpg
2386.619	0.557	correct	repeat	Run3	repeat/STIM_003.jpg
2390.529	0.727	correct	repeat	Run3	repeat/STIM_003.jpg
2394.819	0.565	correct	repeat	Run3	repeat/STIM_003.jpg
2399.208	0.873	correct	repeat	Run3	repeat/STIM_004.jpg
2403.187	0.886	correct	repeat	Run3	repeat/STIM_004.jpg
2407.235	0.378	correct	repeat	Run3	repeat/STIM_004.jpg
2410.078	0.672	correct	repeat	Run3	repeat/STIM_004.jpg
2413.967	0.82	correct	repeat	Run3	repeat/STIM_004.jpg
2418.833	0.41	correct	repeat	Run3	repeat/STIM_005.jpg
2421.466	0.486	correct	repeat	Run3	repeat/STIM_005.jpg
2424.092	0.865	correct	repeat	Run3	repeat/STIM_005.jpg
2427.373	0.57	correct	repeat	Run3	repeat/STIM_005.jpg
2431.206	0.554	correct	repeat	Run3	repeat/STIM_005.jpg
2435.146	0.423	correct	repeat	Run3	repeat/STIM_006.jpg
2437.878	0.761	correct	repeat	Run3	repeat/STIM_006.jpg
2440.97	0.566	correct	repeat	Run3	repeat/STIM_006.jpg
2443.767	0.855	incorrect	repeat	Run3	repeat/STIM_006.jpg
2447.795	0.663	correct	repeat	Run3	repeat/STIM_006.jpg
2452.358	0.65	incorrect	repeat	Run3	repeat/STIM_007.jpg
2456.916	0.609	correct	repeat	Run3	repeat/STIM_007.jpg
2461.253	0.413	correct	repeat	Run3	repeat/STIM_007.jpg
2463.813	0.872	correct	repeat	Run3	repeat/STIM_007.jpg
2468.425	0.791	correct	repeat	Run3	repeat/STIM_007.jpg
2472.634	0.747	correct	repeat	Run3	repeat/STIM_008.jpg
2477.181	0.694	correct	repeat	Run3	repeat/STIM_008.jpg
2480.081	0.768	correct	repeat	Run3	repeat/STIM_008.jpg
2484.87	0.681	correct	repeat	Run3	repeat/STIM_008.jpg
2488.452	0.534	correct	repeat	Run3	repeat/STIM_008.jpg
2492.233	0.667	correct	repeat	Run3	repeat/STIM_009.jpg
2496.997	0.651	correct	repeat	Run3	repeat/STIM_009.jpg
2500.467	0.873	incorrect	repeat	Run3	repeat/STIM_009.jpg
2504.206	0.574	correct	repeat	Run3	repeat/STIM_009.jpg
2508.622	0.541	correct	repeat	Run3	repeat/STIM_009.jpg
2511.753	0.829	correct	repeat	Run3	repeat/STIM_010.jpg
2516.606	0.914	correct	repeat	Run3	repeat/STIM_010.jpg
2521.519	0.817	correct	repeat	Run3	repeat/STIM_010.jpg
2526.405	0.803	correct	repeat	Run3	repeat/STIM_010.jpg
2529.557	0.465	correct	repeat	Run3	repeat/STIM_010.jpg
2533.162	0.58	correct	repeat	Run3	repeat/STIM_011.jpg
2536.238	0.827	correct	repeat	Run3	repeat/STIM_011.jpg
2540.211	0.804	correct	repeat	Run3	repeat/STIM_011.jpg
2543.62	0.672	correct	repeat	Run3	repeat/STIM_011.jpg
2547.284	0.624	correct	repeat	Run3	repeat/STIM_011.jpg
2551.284	0.784	correct	repeat	Run3	repeat/STIM_012.jpg
2555.178	0.554	correct	repeat	Run3	repeat/STIM_012.jpg
2559.38	0.733	correct	repeat	Run3	repeat/STIM_012.jpg
2562.971	0.625	correct	repeat	Run3	repeat/STIM_012.jpg
2566.157	0.74	correct	repeat	Run3	repeat/STIM_012.jpg
2569.819	0.552	correct	repeat	Run3	repeat/STIM_013.jpg
2572.881	0.726	correct	repeat	Run3	repeat/STIM_013.jpg
2576.012	0.922	correct	repeat	Run3	repeat/STIM_013.jpg
2579.57	0.442	correct	repeat	Run3	repeat/STIM_013.jpg
2582.91	0.768	correct	repeat	Run3	repeat/STIM_013.jpg
2586.302	0.768	correct	repeat	Run3	repeat/STIM_014.jpg
2590.677	0.594	correct	repeat	Run3	repeat/STIM_014.jpg
2594.847	0.604	correct	repeat	Run3	repeat/STIM_014.jpg
2597.935	0.493	correct	repeat	Run3	repeat/STIM_014.jpg
2601.167	0.828	correct	repeat	Run3	repeat/STIM_014.jpg
2605.938	1.261	correct	generate	Run4	generate/STIM_000.jpg
2610.19	1.329	correct	generate	Run4	generate/STIM_000.jpg
2615.219	1.545	correct	generate	Run4	generate/STIM_000.jpg
2620.654	1.497	correct	generate	Run4	generate/STIM_000.jpg
2624.87	1.474	correct	generate	Run4	generate/STIM_000.jpg
2629.507	0.946	correct	generate	Run4	generate/STIM_001.jpg
2634.348	1.604	correct	generate	Run4	generate/STIM_001.jpg
2639.363	1.662	correct	generate	Run4	generate/STIM_001.jpg
2643.765	1.106	correct	generate	Run4	generate/STIM_001.jpg
2647.176	0.925	correct	generate	Run4	generate/STIM_001.jpg
2651.194	1.312	correct	generate	Run4	generate/STIM_002.jpg
2656.44	1.772	correct	generate	Run4	generate/STIM_002.jpg
2661.74	1.748	correct	generate	Run4	generate/STIM_002.jpg
2667.155	1.804	correct	generate	Run4	generate/STIM_002.jpg
2672.479	1.067	correct	generate	Run4	generate/STIM_002.jpg
2676.446	1.776	correct	generate	Run4	generate/STIM_003.jpg
2682.186	1.366	correct	generate	Run4	generate/STIM_003.jpg
2687.538	0.971	correct	generate	Run4	generate/STIM_003.jpg
2691.598	1.273	correct	generate	Run4	generate/STIM_003.jpg
2696.056	0.864	correct	generate	Run4	generate/STIM_003.jpg
2699.599	0.77	correct	generate	Run4	generate/STIM_004.jpg
2703.29	1.322	correct	generate	Run4	generate/STIM_004.jpg
2708.362	0.972	correct	generate	Run4	generate/STIM_004.jpg
2713.157	1.374	correct	generate	Run4	generate/STIM_004.jpg
2718.563	1.532	correct	generate	Run4	generate/STIM_004.jpg
2724.026	1.461	correct	generate	Run4	generate/STIM_005.jpg
2728.06	1.118	correct	generate	Run4	generate/STIM_005.jpg
2732.855	1.628	correct	generate	Run4	generate/STIM_005.jpg
2738.305	1.02	correct	generate	Run4	generate/STIM_005.jpg
2743.048	0.844	correct	generate	Run4	generate/STIM_005.jpg
2747.915	1.819	correct	generate	Run4	generate/STIM_006.jpg
2753.818	1.487	correct	generate	Run4	generate/STIM_006.jpg
2758.949	0.989	correct	generate	Run4	generate/STIM_006.jpg
2763.744	1.321	correct	generate	Run4	generate/STIM_006.jpg
2767.584	1.826	correct	generate	Run4	generate/STIM_006.jpg
2773.222	1.816	correct	generate	Run4	generate/STIM_007.jpg
2779.127	1.219	correct	generate	Run4	generate/STIM_007.jpg
2783.004	1.476	correct	generate	Run4	generate/STIM_007.jpg
2787.369	1.771	correct	generate	Run4	generate/STIM_007.jpg
2793.173	1.185	correct	generate	Run4	generate/STIM_007.jpg
2797.692	1.214	correct	generate	Run4	generate/STIM_008.jpg
2801.631	1.69	correct	generate	Run4	generate/STIM_008.jpg
2806.431	1.379	correct	generate	Run4	generate/STIM_008.jpg
2811.868	1.306	correct	generate	Run4	generate/STIM_008.jpg
2816.961	1.719	correct	generate	Run4	generate/STIM_008.jpg
2821.706	1.439	correct	generate	Run4	generate/STIM_009.jpg
2826.601	1.057	correct	generate	Run4	generate/STIM_009.jpg
2830.352	1.469	correct	generate	Run4	generate/STIM_009.jpg
2834.029	1.425	correct	generate	Run4	generate/STIM_009.jpg
2838.751	1.327	correct	generate	Run4	generate/STIM_009.jpg
2844.182	1.475	correct	generate	Run4	generate/STIM_010.jpg
2849.182	1.574	correct	generate	Run4	generate/STIM_010.jpg
2854.318	1.877	correct	generate	Run4	generate/STIM_010.jpg
2859.101	1.843	correct	generate	Run4	generate/STIM_010.jpg
2863.534	1.48	correct	generate	Run4	generate/STIM_010.jpg
2868.063	0.77	correct	generate	Run4	generate/STIM_011.jpg
2872.102	1.51	correct	generate	Run4	generate/STIM_011.jpg
2877.667	1.145	incorrect	generate	Run4	generate/STIM_011.jpg
2881.357	0.821	incorrect	generate	Run4	generate/STIM_011.jpg
2885.58	1.039	correct	generate	Run4	generate/STIM_011.jpg
2890.401	1.25	correct	generate	Run4	generate/STIM_012.jpg
2895.657	1.394	correct	generate	Run4	generate/STIM_012.jpg
2900.462	1.448	correct	generate	Run4	generate/STIM_012.jpg
2905.842	0.99	correct	generate	Run4	generate/STIM_012.jpg
2909.009	1.23	correct	generate	Run4	generate/STIM_012.jpg
2912.587	0.776	correct	generate	Run4	generate/STIM_013.jpg
2917.126	1.579	correct	generate	Run4	generate/STIM_013.jpg
2922.104	0.959	correct	generate	Run4	generate/STIM_013.jpg
2925.679	1.798	correct	generate	Run4	generate/STIM_013.jpg
2929.854	0.696	correct	generate	Run4	generate/STIM_013.jpg
2933.924	1.115	correct	generate	Run4	generate/STIM_014.jpg
2938.999	1.532	correct	generate	Run4	generate/STIM_014.jpg
2943.511	0.821	correct	generate	Run4	generate/STIM_014.jpg
2948.477	1.036	correct	generate	Run4	generate/STIM_014.jpg
2952.801	1.178	correct	generate	Run4	generate/STIM_014.jpg
2957.967	1.176	correct	generate	Run4	generate/STIM_015.jpg
2961.697	1.39	correct	generate	Run4	generate/STIM_015.jpg
2966.456	1.111	correct	generate	Run4	generate/STIM_015.jpg
2970.488	1.048	correct	generate	Run4	generate/STIM_015.jpg
2974.565	0.79	correct	generate	Run4	generate/STIM_015.jpg
2978.458	1.297	correct	generate	Run4	generate/STIM_016.jpg
2982.763	0.893	correct	generate	Run4	generate/STIM_016.jpg
2986.269	0.72	correct	generate	Run4	generate/STIM_016.jpg
2989.381	1.108	correct	generate	Run4	generate/STIM_016.jpg
2992.687	0.812	correct	generate	Run4	generate/STIM_016.jpg
2997.464	1.011	correct	generate	Run4	generate/STIM_017.jpg
3001.448	0.766	correct	generate	Run4	generate/STIM_017.jpg
3005.515	1.403	correct	generate	Run4	generate/STIM_017.jpg
3009.948	0.887	correct	generate	Run4	generate/STIM_017.jpg
3014.132	1.463	correct	generate	Run4	generate/STIM_017.jpg
3018.017	1.175	correct	generate	Run4	generate/STIM_018.jpg
3021.664	1.413	correct	generate	Run4	generate/STIM_018.jpg
3025.972	1.788	correct	generate	Run4	generate/STIM_018.jpg
3030.695	1.098	correct	generate	Run4	generate/STIM_018.jpg
3034.874	1.594	correct	generate	Run4	generate/STIM_018.jpg
3039.182	0.872	incorrect	generate	Run4	generate/STIM_019.jpg
3042.902	0.904	correct	generate	Run4	generate/STIM_019.jpg
3046.943	1.664	correct	generate	Run4	generate/STIM_019.jpg
3052.541	0.91	correct	generate	Run4	generate/STIM_019.jpg
3056.056	1.05	correct	generate	Run4	generate/STIM_019.jpg
3060.39	0.916	correct	generate	Run4	generate/STIM_020.jpg
3065.42	1.313	correct	generate	Run4	generate/STIM_020.jpg
3069.046	1.138	correct	generate	Run4	generate/STIM_020.jpg
3073.455	1.828	correct	generate	Run4	generate/STIM_020.jpg
3078.11	1.201	correct	generate	Run4	generate/STIM_020.jpg
3081.696	0.988	correct	generate	Run4	generate/STIM_021.jpg
3085.555	0.818	correct	generate	Run4	generate/STIM_021.jpg
3089.032	1.086	correct	generate	Run4	generate/STIM_021.jpg
3093.335	1.086	correct	generate	Run4	generate/STIM_021.jpg
3098.49	1.555	correct	generate	Run4	generate/STIM_021.jpg
3104.142	1.504	correct	generate	Run4	generate/STIM_022.jpg
3107.854	0.677	correct	generate	Run4	generate/STIM_022.jpg
3112.413	0.867	correct	generate	Run4	generate/STIM_022.jpg
3116.239	1.674	correct	generate	Run4	generate/STIM_022.jpg
3120.545	0.95	correct	generate	Run4	generate/STIM_022.jpg
3124.66	1.519	correct	generate	Run4	generate/STIM_023.jpg
3130.087	1.822	correct	generate	Run4	generate/STIM_023.jpg
3135.679	1.501	correct	generate	Run4	generate/STIM_023.jpg
3139.872	1.355	correct	generate	Run4	generate/STIM_023.jpg
3144.52	0.921	correct	generate	Run4	generate/STIM_023.jpg
3148.899	0.863	correct	generate	Run4	generate/STIM_024.jpg
3153.723	0.804	correct	generate	Run4	generate/STIM_024.jpg
3157.009	0.869	correct	generate	Run4	generate/STIM_024.jpg
3160.32	1.118	correct	generate	Run4	generate/STIM_024.jpg
3165.314	1.471	correct	generate	Run4	generate/STIM_024.jpg
3170.13	0.597	correct	repeat	Run4	repeat/STIM_000.jpg
3174.294	0.88	correct	repeat	Run4	repeat/STIM_000.jpg
3178.568	0.472	correct	repeat	Run4	repeat/STIM_000.jpg
3182.332	0.672	incorrect	repeat	Run4	repeat/STIM_000.jpg
3186.661	0.784	incorrect	repeat	Run4	repeat/STIM_000.jpg
3190.419	0.701	correct	repeat	Run4	repeat/STIM_001.jpg
3194.219	0.647	correct	repeat	Run4	repeat/STIM_001.jpg
3197.232	0.878	correct	repeat	Run4	repeat/STIM_001.jpg
3201.522	0.485	correct	repeat	Run4	repeat/STIM_001.jpg
3204.732	0.743	correct	repeat	Run4	repeat/STIM_001.jpg
3208.015	0.754	correct	repeat	Run4	repeat/STIM_002.jpg
3211.106	0.542	correct	repeat	Run4	repeat/STIM_002.jpg
3215.437	0.443	correct	repeat	Run4	repeat/STIM_002.jpg
3218.576	0.469	correct	repeat	Run4	repeat/STIM_002.jpg
3222.199	0.606	correct	repeat	Run4	repeat/STIM_002.jpg
3225.31	0.4	correct	repeat	Run4	repeat/STIM_003.jpg
3228.817	0.459	correct	repeat	Run4	repeat/STIM_003.jpg
3232.596	0.685	correct	repeat	Run4	repeat/STIM_003.jpg
3235.814	0.829	correct	repeat	Run4	repeat/STIM_003.jpg
3240.709	0.735	correct	repeat	Run4	repeat/STIM_003.jpg
3244.853	0.588	incorrect	repeat	Run4	repeat/STIM_004.jpg
3248.48	0.614	correct	repeat	Run4	repeat/STIM_004.jpg
3251.897	0.7	correct	repeat	Run4	repeat/STIM_004.jpg
3254.91	0.436	correct	repeat	Run4	repeat/STIM_004.jpg
3259.42	0.555	correct	repeat	Run4	repeat/STIM_004.jpg
3263.112	0.87	correct	repeat	Run4	repeat/STIM_005.jpg
3266.139	0.555	correct	repeat	Run4	repeat/STIM_005.jpg
3268.783	0.794	correct	repeat	Run4	repeat/STIM_005.jpg
3272.556	0.446	correct	repeat	Run4	repeat/STIM_005.jpg
3275.124	0.677	correct	repeat	Run4	repeat/STIM_005.jpg
3279.644	0.567	correct	repeat	Run4	repeat/STIM_006.jpg
3283.075	0.827	correct	repeat	Run4	repeat/STIM_006.jpg
3287.767	0.538	correct	repeat	Run4	repeat/STIM_006.jpg
3291.722	0.758	correct	repeat	Run4	repeat/STIM_006.jpg
3294.938	0.664	correct	repeat	Run4	repeat/STIM_006.jpg
3297.719	0.861	correct	repeat	Run4	repeat/STIM_007.jpg
3301.952	0.498	correct	repeat	Run4	repeat/STIM_007.jpg
3306.136	0.631	correct	repeat	Run4	repeat/STIM_007.jpg
3310.757	0.722	correct	repeat	Run4	repeat/STIM_007.jpg
3313.877	0.684	correct	repeat	Run4	repeat/STIM_007.jpg
3317.256	0.642	correct	repeat	Run4	repeat/STIM_008.jpg
3321.974	0.462	correct	repeat	Run4	repeat/STIM_008.jpg
3326.533	0.536	incorrect	repeat	Run4	repeat/STIM_008.jpg
3330.134	0.599	correct	repeat	Run4	repeat/STIM_008.jpg
3334.239	0.486	correct	repeat	Run4	repeat/STIM_008.jpg
3337.442	0.655	correct	repeat	Run4	repeat/STIM_009.jpg
3340.912	0.758	correct	repeat	Run4	repeat/STIM_009.jpg
3345.176	0.729	correct	repeat	Run4	repeat/STIM_009.jpg
3348.065	0.684	correct	repeat	Run4	repeat/STIM_009.jpg
3351.776	0.647	correct	repeat	Run4	repeat/STIM_009.jpg
3355.678	0.556	correct	repeat	Run4	repeat/STIM_010.jpg
3358.952	0.671	correct	repeat	Run4	repeat/STIM_010.jpg
3361.837	0.717	incorrect	repeat	Run4	repeat/STIM_010.jpg
3365.22	0.737	correct	repeat	Run4	repeat/STIM_010.jpg
3368.923	0.696	correct	repeat	Run4	repeat/STIM_010.jpg
3372.961	0.852	correct	repeat	Run4	repeat/STIM_011.jpg
3376.59	0.501	correct	repeat	Run4	repeat/STIM_011.jpg
3379.479	0.845	correct	repeat	Run4	repeat/STIM_011.jpg
3384.353	0.846	correct	repeat	Run4	repeat/STIM_011.jpg
3389.146	0.489	correct	repeat	Run4	repeat/STIM_011.jpg
3393.389	0.7	correct	repeat	Run4	repeat/STIM_012.jpg
3398.037	0.538	correct	repeat	Run4	repeat/STIM_012.jpg
3400.627	0.552	correct	repeat	Run4	repeat/STIM_012.jpg
3404.78	0.679	correct	repeat	Run4	repeat/STIM_012.jpg
3407.64	0.536	correct	repeat	Run4	repeat/STIM_012.jpg
3411.584	0.498	correct	repeat	Run4	repeat/STIM_013.jpg
3415.274	0.871	correct	repeat	Run4	repeat/STIM_013.jpg
3419.327	0.526	correct	repeat	Run4	repeat/STIM_013.jpg
3423.806	0.61	correct	repeat	Run4	repeat/STIM_013.jpg
3426.77	0.898	correct	repeat	Run4	repeat/STIM_013.jpg
3430.676	0.764	correct	repeat	Run4	repeat/STIM_014.jpg
3434.861	0.496	correct	repeat	Run4	repeat/STIM_014.jpg
3438.866	0.696	correct	repeat	Run4	repeat/STIM_014.jpg
3442.722	0.625	correct	repeat	Run4	repeat/STIM_014.jpg
3446.127	0.499	correct	repeat	Run4	repeat/STIM_014.jpg
