onset	duration	response_time_ms	trial_type	learning_stage	stimulus	coherence	response_port
0.000	14.270	14270.0	learning	LS1	PICTURE_720.jpg	i	n/a
14.270	9.692	9692.0	learning	LS1	PICTURE_235.jpg	i	n/a
23.962	13.115	13115.0	learning	LS1	PICTURE_297.jpg	c	n/a
37.077	14.453	14453.0	learning	LS1	PICTURE_235.jpg	c	n/a
51.530	13.378	13378.0	learning	LS1	PICTURE_23.jpg	i	n/a
64.908	12.303	12303.0	learning	LS1	PICTURE_746.jpg	c	n/a
77.211	10.750	10750.0	learning	LS1	PICTURE_297.jpg	i	n/a
87.961	11.436	11436.0	learning	LS1	PICTURE_720.jpg	c	n/a
99.397	12.439	12439.0	learning	LS1	PICTURE_23.jpg	c	n/a
111.836	12.172	12172.0	learning	LS1	PICTURE_746.jpg	i	n/a
124.008	10.230	10230.0	learning	LS2	PICTURE_235.jpg	c	n/a
134.238	11.565	11565.0	learning	LS2	PICTURE_746.jpg	i	n/a
145.803	8.747	8747.0	learning	LS2	PICTURE_297.jpg	c	n/a
154.550	10.086	10086.0	learning	LS2	PICTURE_746.jpg	c	n/a
164.636	10.305	10305.0	learning	LS2	PICTURE_23.jpg	i	n/a
174.941	9.725	9725.0	learning	LS2	PICTURE_720.jpg	i	n/a
184.666	8.825	8825.0	learning	LS2	PICTURE_23.jpg	c	n/a
193.491	9.684	9684.0	learning	LS2	PICTURE_235.jpg	i	n/a
203.175	8.792	8792.0	learning	LS2	PICTURE_297.jpg	i	n/a
211.967	9.971	9971.0	learning	LS2	PICTURE_720.jpg	c	n/a
221.938	9.643	9643.0	learning	LS3	PICTURE_720.jpg	c	n/a
231.581	10.347	10347.0	learning	LS3	PICTURE_746.jpg	i	n/a
241.928	10.406	10406.0	learning	LS3	PICTURE_720.jpg	i	n/a
252.334	9.991	9991.0	learning	LS3	PICTURE_235.jpg	c	n/a
262.325	8.299	8299.0	learning	LS3	PICTURE_23.jpg	i	n/a
270.624	10.437	10437.0	learning	LS3	PICTURE_746.jpg	c	n/a
281.061	10.175	10175.0	learning	LS3	PICTURE_297.jpg	c	n/a
291.236	9.101	9101.0	learning	LS3	PICTURE_23.jpg	c	n/a
300.337	8.825	8825.0	learning	LS3	PICTURE_235.jpg	i	n/a
309.162	7.750	7750.0	learning	LS3	PICTURE_297.jpg	i	n/a
316.912	8.036	8036.0	learning	LS4	PICTURE_297.jpg	c	n/a
324.948	8.726	8726.0	learning	LS4	PICTURE_23.jpg	c	n/a
333.674	7.338	7338.0	learning	LS4	PICTURE_720.jpg	c	n/a
341.012	8.195	8195.0	learning	LS4	PICTURE_746.jpg	i	n/a
349.207	6.975	6975.0	learning	LS4	PICTURE_23.jpg	i	n/a
356.182	7.832	7832.0	learning	LS4	PICTURE_235.jpg	i	n/a
364.014	7.732	7732.0	learning	LS4	PICTURE_297.jpg	i	n/a
371.746	7.310	7310.0	learning	LS4	PICTURE_720.jpg	i	n/a
379.056	8.807	8807.0	learning	LS4	PICTURE_746.jpg	c	n/a
387.863	8.546	8546.0	learning	LS4	PICTURE_235.jpg	c	n/a
396.409	9.345	9345.0	control	LS1	PICTURE_2.jpg	c	n/a
405.754	8.132	8132.0	control	LS1	PICTURE_430.jpg	c	n/a
413.886	8.678	8678.0	control	LS1	PICTURE_2.jpg	i	n/a
422.564	12.734	12734.0	control	LS1	PICTURE_292.jpg	c	n/a
435.298	11.040	11040.0	control	LS1	PICTURE_286.jpg	i	n/a
446.338	8.527	8527.0	control	LS1	PICTURE_430.jpg	i	n/a
454.865	12.089	12089.0	control	LS1	PICTURE_718.jpg	i	n/a
466.954	9.415	9415.0	control	LS1	PICTURE_292.jpg	i	n/a
476.369	8.501	8501.0	control	LS1	PICTURE_718.jpg	c	n/a
484.870	8.707	8707.0	control	LS1	PICTURE_286.jpg	c	n/a
493.577	8.046	8046.0	control	LS2	PICTURE_292.jpg	c	n/a
501.623	7.460	7460.0	control	LS2	PICTURE_718.jpg	c	n/a
509.083	8.316	8316.0	control	LS2	PICTURE_2.jpg	i	n/a
517.399	9.495	9495.0	control	LS2	PICTURE_292.jpg	i	n/a
526.894	7.476	7476.0	control	LS2	PICTURE_430.jpg	i	n/a
534.370	8.334	8334.0	control	LS2	PICTURE_718.jpg	i	n/a
542.704	7.433	7433.0	control	LS2	PICTURE_286.jpg	c	n/a
550.137	7.973	7973.0	control	LS2	PICTURE_2.jpg	c	n/a
558.110	7.551	7551.0	control	LS2	PICTURE_430.jpg	c	n/a
565.661	8.730	8730.0	control	LS2	PICTURE_286.jpg	i	n/a
574.391	8.557	8557.0	control	LS3	PICTURE_134.jpg	c	n/a
582.948	8.621	8621.0	control	LS3	PICTURE_733.jpg	c	n/a
591.569	12.680	12680.0	control	LS3	PICTURE_645.jpg	c	n/a
604.249	9.229	9229.0	control	LS3	PICTURE_98.jpg	i	n/a
613.478	7.854	7854.0	control	LS3	PICTURE_134.jpg	i	n/a
621.332	7.761	7761.0	control	LS3	PICTURE_733.jpg	i	n/a
629.093	8.785	8785.0	control	LS3	PICTURE_731.jpg	c	n/a
637.878	7.245	7245.0	control	LS3	PICTURE_645.jpg	i	n/a
645.123	7.131	7131.0	control	LS3	PICTURE_98.jpg	c	n/a
652.254	7.817	7817.0	control	LS3	PICTURE_731.jpg	i	n/a
660.071	8.581	8581.0	control	LS4	PICTURE_731.jpg	c	n/a
668.652	8.784	8784.0	control	LS4	PICTURE_733.jpg	i	n/a
677.436	8.037	8037.0	control	LS4	PICTURE_98.jpg	i	n/a
685.473	7.929	7929.0	control	LS4	PICTURE_731.jpg	i	n/a
693.402	7.348	7348.0	control	LS4	PICTURE_98.jpg	c	n/a
700.750	7.247	7247.0	control	LS4	PICTURE_733.jpg	c	n/a
707.997	7.625	7625.0	control	LS4	PICTURE_645.jpg	c	n/a
715.622	7.205	7205.0	control	LS4	PICTURE_134.jpg	c	n/a
722.827	9.182	9182.0	control	LS4	PICTURE_645.jpg	i	n/a
732.009	7.481	7481.0	control	LS4	PICTURE_134.jpg	i	n/a
739.490	10.688	10688.0	learning	LS1	PICTURE_462.jpg	i	n/a
750.178	10.434	10434.0	learning	LS1	PICTURE_400.jpg	c	n/a
760.612	14.336	14336.0	learning	LS1	PICTURE_21.jpg	c	n/a
774.948	11.036	11036.0	learning	LS1	PICTURE_400.jpg	i	n/a
785.984	9.662	9662.0	learning	LS1	PICTURE_462.jpg	c	n/a
795.646	9.890	9890.0	learning	LS1	PICTURE_402.jpg	c	n/a
805.536	10.907	10907.0	learning	LS1	PICTURE_405.jpg	c	n/a
816.443	12.391	12391.0	learning	LS1	PICTURE_402.jpg	i	n/a
828.834	11.158	11158.0	learning	LS1	PICTURE_21.jpg	i	n/a
839.992	15.682	15682.0	learning	LS1	PICTURE_405.jpg	i	n/a
855.674	7.492	7492.0	learning	LS2	PICTURE_400.jpg	c	n/a
863.166	8.983	8983.0	learning	LS2	PICTURE_402.jpg	c	n/a
872.149	9.195	9195.0	learning	LS2	PICTURE_405.jpg	c	n/a
881.344	15.328	15328.0	learning	LS2	PICTURE_462.jpg	i	n/a
896.672	8.350	8350.0	learning	LS2	PICTURE_21.jpg	c	n/a
905.022	7.769	7769.0	learning	LS2	PICTURE_462.jpg	c	n/a
912.791	9.745	9745.0	learning	LS2	PICTURE_21.jpg	i	n/a
922.536	9.962	9962.0	learning	LS2	PICTURE_400.jpg	i	n/a
932.498	8.421	8421.0	learning	LS2	PICTURE_402.jpg	i	n/a
940.919	10.238	10238.0	learning	LS2	PICTURE_405.jpg	i	n/a
951.157	9.106	9106.0	learning	LS3	PICTURE_21.jpg	c	n/a
960.263	8.211	8211.0	learning	LS3	PICTURE_405.jpg	i	n/a
968.474	7.956	7956.0	learning	LS3	PICTURE_402.jpg	c	n/a
976.430	8.820	8820.0	learning	LS3	PICTURE_400.jpg	i	n/a
985.250	8.557	8557.0	learning	LS3	PICTURE_405.jpg	c	n/a
993.807	11.020	11020.0	learning	LS3	PICTURE_21.jpg	i	n/a
1004.827	8.370	8370.0	learning	LS3	PICTURE_402.jpg	i	n/a
1013.197	8.109	8109.0	learning	LS3	PICTURE_462.jpg	c	n/a
1021.306	7.695	7695.0	learning	LS3	PICTURE_400.jpg	c	n/a
1029.001	9.819	9819.0	learning	LS3	PICTURE_462.jpg	i	n/a
1038.820	10.421	10421.0	learning	LS4	PICTURE_400.jpg	i	n/a
1049.241	7.588	7588.0	learning	LS4	PICTURE_402.jpg	i	n/a
1056.829	8.274	8274.0	learning	LS4	PICTURE_462.jpg	c	n/a
1065.103	8.485	8485.0	learning	LS4	PICTURE_402.jpg	c	n/a
1073.588	7.417	7417.0	learning	LS4	PICTURE_21.jpg	c	n/a
1081.005	8.597	8597.0	learning	LS4	PICTURE_405.jpg	c	n/a
1089.602	7.375	7375.0	learning	LS4	PICTURE_21.jpg	i	n/a
1096.977	7.914	7914.0	learning	LS4	PICTURE_405.jpg	i	n/a
1104.891	8.452	8452.0	learning	LS4	PICTURE_462.jpg	i	n/a
1113.343	8.191	8191.0	learning	LS4	PICTURE_400.jpg	c	n/a
1121.534	12.038	12038.0	learning	LS1	PICTURE_95.jpg	c	n/a
1133.572	11.458	11458.0	learning	LS1	PICTURE_15.jpg	c	n/a
1145.030	7.679	7679.0	learning	LS1	PICTURE_480.jpg	i	n/a
1152.709	10.304	10304.0	learning	LS1	PICTURE_95.jpg	i	n/a
1163.013	11.490	11490.0	learning	LS1	PICTURE_480.jpg	c	n/a
1174.503	11.396	11396.0	learning	LS1	PICTURE_508.jpg	i	n/a
1185.899	11.614	11614.0	learning	LS1	PICTURE_488.jpg	c	n/a
1197.513	10.233	10233.0	learning	LS1	PICTURE_508.jpg	c	n/a
1207.746	11.238	11238.0	learning	LS1	PICTURE_488.jpg	i	n/a
1218.984	13.043	13043.0	learning	LS1	PICTURE_15.jpg	i	n/a
1232.027	10.449	10449.0	learning	LS2	PICTURE_488.jpg	i	n/a
1242.476	9.062	9062.0	learning	LS2	PICTURE_508.jpg	i	n/a
1251.538	8.954	8954.0	learning	LS2	PICTURE_480.jpg	i	n/a
1260.492	9.964	9964.0	learning	LS2	PICTURE_15.jpg	c	n/a
1270.456	10.025	10025.0	learning	LS2	PICTURE_480.jpg	c	n/a
1280.481	10.083	10083.0	learning	LS2	PICTURE_488.jpg	c	n/a
1290.564	13.180	13180.0	learning	LS2	PICTURE_95.jpg	i	n/a
1303.744	8.442	8442.0	learning	LS2	PICTURE_508.jpg	c	n/a
1312.186	8.662	8662.0	learning	LS2	PICTURE_15.jpg	i	n/a
1320.848	8.562	8562.0	learning	LS2	PICTURE_95.jpg	c	n/a
1329.410	9.187	9187.0	learning	LS3	PICTURE_15.jpg	i	n/a
1338.597	7.814	7814.0	learning	LS3	PICTURE_508.jpg	i	n/a
1346.411	7.872	7872.0	learning	LS3	PICTURE_480.jpg	i	n/a
1354.283	9.537	9537.0	learning	LS3	PICTURE_488.jpg	c	n/a
1363.820	9.602	9602.0	learning	LS3	PICTURE_95.jpg	c	n/a
1373.422	9.181	9181.0	learning	LS3	PICTURE_15.jpg	c	n/a
1382.603	9.087	9087.0	learning	LS3	PICTURE_508.jpg	c	n/a
1391.690	7.874	7874.0	learning	LS3	PICTURE_488.jpg	i	n/a
1399.564	8.891	8891.0	learning	LS3	PICTURE_95.jpg	i	n/a
1408.455	9.915	9915.0	learning	LS3	PICTURE_480.jpg	c	n/a
1418.370	7.640	7640.0	learning	LS4	PICTURE_15.jpg	c	n/a
1426.010	8.166	8166.0	learning	LS4	PICTURE_488.jpg	i	n/a
1434.176	8.370	8370.0	learning	LS4	PICTURE_95.jpg	i	n/a
1442.546	9.214	9214.0	learning	LS4	PICTURE_15.jpg	i	n/a
1451.760	7.669	7669.0	learning	LS4	PICTURE_508.jpg	i	n/a
1459.429	7.401	7401.0	learning	LS4	PICTURE_488.jpg	c	n/a
1466.830	7.301	7301.0	learning	LS4	PICTURE_480.jpg	c	n/a
1474.131	8.799	8799.0	learning	LS4	PICTURE_508.jpg	c	n/a
1482.930	7.099	7099.0	learning	LS4	PICTURE_480.jpg	i	n/a
1490.029	9.235	9235.0	learning	LS4	PICTURE_95.jpg	c	n/a
1499.264	14.833	14833.0	control	LS1	PICTURE_418.jpg	c	n/a
1514.097	9.303	9303.0	control	LS1	PICTURE_350.jpg	i	n/a
1523.400	8.563	8563.0	control	LS1	PICTURE_418.jpg	i	n/a
1531.963	7.349	7349.0	control	LS1	PICTURE_350.jpg	c	n/a
1539.312	7.896	7896.0	control	LS1	PICTURE_549.jpg	c	n/a
1547.208	12.438	12438.0	control	LS1	PICTURE_485.jpg	i	n/a
1559.646	13.295	13295.0	control	LS1	PICTURE_498.jpg	i	n/a
1572.941	7.918	7918.0	control	LS1	PICTURE_485.jpg	c	n/a
1580.859	9.576	9576.0	control	LS1	PICTURE_549.jpg	i	n/a
1590.435	7.703	7703.0	control	LS1	PICTURE_498.jpg	c	n/a
1598.138	7.189	7189.0	control	LS2	PICTURE_350.jpg	c	n/a
1605.327	7.874	7874.0	control	LS2	PICTURE_498.jpg	i	n/a
1613.201	7.599	7599.0	control	LS2	PICTURE_418.jpg	i	n/a
1620.800	7.810	7810.0	control	LS2	PICTURE_498.jpg	c	n/a
1628.610	7.704	7704.0	control	LS2	PICTURE_549.jpg	c	n/a
1636.314	8.884	8884.0	control	LS2	PICTURE_485.jpg	i	n/a
1645.198	8.623	8623.0	control	LS2	PICTURE_549.jpg	i	n/a
1653.821	10.119	10119.0	control	LS2	PICTURE_350.jpg	i	n/a
1663.940	9.699	9699.0	control	LS2	PICTURE_485.jpg	c	n/a
1673.639	7.679	7679.0	control	LS2	PICTURE_418.jpg	c	n/a
1681.318	8.141	8141.0	control	LS3	PICTURE_314.jpg	c	n/a
1689.459	8.679	8679.0	control	LS3	PICTURE_663.jpg	c	n/a
1698.138	12.575	12575.0	control	LS3	PICTURE_552.jpg	c	n/a
1710.713	9.755	9755.0	control	LS3	PICTURE_388.jpg	i	n/a
1720.468	13.180	13180.0	control	LS3	PICTURE_663.jpg	i	n/a
1733.648	8.609	8609.0	control	LS3	PICTURE_552.jpg	i	n/a
1742.257	12.504	12504.0	control	LS3	PICTURE_476.jpg	i	n/a
1754.761	7.451	7451.0	control	LS3	PICTURE_388.jpg	c	n/a
1762.212	7.517	7517.0	control	LS3	PICTURE_476.jpg	c	n/a
1769.729	9.182	9182.0	control	LS3	PICTURE_314.jpg	i	n/a
1778.911	14.284	14284.0	control	LS4	PICTURE_663.jpg	i	n/a
1793.195	7.297	7297.0	control	LS4	PICTURE_552.jpg	c	n/a
1800.492	9.420	9420.0	control	LS4	PICTURE_314.jpg	c	n/a
1809.912	9.305	9305.0	control	LS4	PICTURE_552.jpg	i	n/a
1819.217	12.707	12707.0	control	LS4	PICTURE_388.jpg	c	n/a
1831.924	7.645	7645.0	control	LS4	PICTURE_663.jpg	c	n/a
1839.569	8.016	8016.0	control	LS4	PICTURE_476.jpg	i	n/a
1847.585	7.910	7910.0	control	LS4	PICTURE_388.jpg	i	n/a
1855.495	8.607	8607.0	control	LS4	PICTURE_476.jpg	c	n/a
1864.102	8.825	8825.0	control	LS4	PICTURE_314.jpg	i	n/a
1872.927	9.620	9620.0	learning	LS1	PICTURE_576.jpg	i	n/a
1882.547	14.473	14473.0	learning	LS1	PICTURE_581.jpg	c	n/a
1897.020	11.179	11179.0	learning	LS1	PICTURE_605.jpg	c	n/a
1908.199	12.682	12682.0	learning	LS1	PICTURE_52.jpg	c	n/a
1920.881	12.429	12429.0	learning	LS1	PICTURE_594.jpg	c	n/a
1933.310	10.896	10896.0	learning	LS1	PICTURE_576.jpg	c	n/a
1944.206	12.880	12880.0	learning	LS1	PICTURE_581.jpg	i	n/a
1957.086	10.868	10868.0	learning	LS1	PICTURE_594.jpg	i	n/a
1967.954	13.173	13173.0	learning	LS1	PICTURE_605.jpg	i	n/a
1981.127	10.998	10998.0	learning	LS1	PICTURE_52.jpg	i	n/a
1992.125	12.081	12081.0	learning	LS2	PICTURE_594.jpg	c	n/a
2004.206	9.090	9090.0	learning	LS2	PICTURE_52.jpg	c	n/a
2013.296	8.496	8496.0	learning	LS2	PICTURE_576.jpg	c	n/a
2021.792	11.259	11259.0	learning	LS2	PICTURE_605.jpg	c	n/a
2033.051	10.990	10990.0	learning	LS2	PICTURE_576.jpg	i	n/a
2044.041	10.722	10722.0	learning	LS2	PICTURE_605.jpg	i	n/a
2054.763	n/a	n/a	learning	LS2	PICTURE_594.jpg	i	n/a
2079.763	10.839	10839.0	learning	LS2	PICTURE_581.jpg	c	n/a
2090.602	11.377	11377.0	learning	LS2	PICTURE_52.jpg	i	n/a
2101.979	9.518	9518.0	learning	LS2	PICTURE_581.jpg	i	n/a
2111.497	10.941	10941.0	learning	LS3	PICTURE_605.jpg	i	n/a
2122.438	11.799	11799.0	learning	LS3	PICTURE_52.jpg	i	n/a
2134.237	7.861	7861.0	learning	LS3	PICTURE_576.jpg	i	n/a
2142.098	8.078	8078.0	learning	LS3	PICTURE_581.jpg	i	n/a
2150.176	8.464	8464.0	learning	LS3	PICTURE_576.jpg	c	n/a
2158.640	8.050	8050.0	learning	LS3	PICTURE_605.jpg	c	n/a
2166.690	8.434	8434.0	learning	LS3	PICTURE_594.jpg	c	n/a
2175.124	8.173	8173.0	learning	LS3	PICTURE_52.jpg	c	n/a
2183.297	8.399	8399.0	learning	LS3	PICTURE_594.jpg	i	n/a
2191.696	8.786	8786.0	learning	LS3	PICTURE_581.jpg	c	n/a
2200.482	11.176	11176.0	learning	LS4	PICTURE_581.jpg	c	n/a
2211.658	7.718	7718.0	learning	LS4	PICTURE_52.jpg	i	n/a
2219.376	8.880	8880.0	learning	LS4	PICTURE_576.jpg	c	n/a
2228.256	7.807	7807.0	learning	LS4	PICTURE_605.jpg	c	n/a
2236.063	7.213	7213.0	learning	LS4	PICTURE_594.jpg	c	n/a
2243.276	8.697	8697.0	learning	LS4	PICTURE_581.jpg	i	n/a
2251.973	8.429	8429.0	learning	LS4	PICTURE_576.jpg	i	n/a
2260.402	7.840	7840.0	learning	LS4	PICTURE_605.jpg	i	n/a
2268.242	11.729	11729.0	learning	LS4	PICTURE_594.jpg	i	n/a
2279.971	8.431	8431.0	learning	LS4	PICTURE_52.jpg	c	n/a
2288.402	8.432	8432.0	learning	LS1	PICTURE_741.jpg	i	n/a
2296.834	8.970	8970.0	learning	LS1	PICTURE_247.jpg	c	n/a
2305.804	9.988	9988.0	learning	LS1	PICTURE_610.jpg	c	n/a
2315.792	10.527	10527.0	learning	LS1	PICTURE_247.jpg	i	n/a
2326.319	10.273	10273.0	learning	LS1	PICTURE_610.jpg	i	n/a
2336.592	11.931	11931.0	learning	LS1	PICTURE_599.jpg	i	n/a
2348.523	8.000	8000.0	learning	LS1	PICTURE_43.jpg	i	n/a
2356.523	12.701	12701.0	learning	LS1	PICTURE_599.jpg	c	n/a
2369.224	10.369	10369.0	learning	LS1	PICTURE_741.jpg	c	n/a
2379.593	9.472	9472.0	learning	LS1	PICTURE_43.jpg	c	n/a
2389.065	8.019	8019.0	learning	LS2	PICTURE_610.jpg	c	n/a
2397.084	7.421	7421.0	learning	LS2	PICTURE_741.jpg	c	n/a
2404.505	7.308	7308.0	learning	LS2	PICTURE_599.jpg	c	n/a
2411.813	9.592	9592.0	learning	LS2	PICTURE_247.jpg	c	n/a
2421.405	8.998	8998.0	learning	LS2	PICTURE_43.jpg	i	n/a
2430.403	14.485	14485.0	learning	LS2	PICTURE_610.jpg	i	n/a
2444.888	7.822	7822.0	learning	LS2	PICTURE_43.jpg	c	n/a
2452.710	8.999	8999.0	learning	LS2	PICTURE_599.jpg	i	n/a
2461.709	7.620	7620.0	learning	LS2	PICTURE_247.jpg	i	n/a
2469.329	7.680	7680.0	learning	LS2	PICTURE_741.jpg	i	n/a
2477.009	8.785	8785.0	learning	LS3	PICTURE_741.jpg	c	n/a
2485.794	7.887	7887.0	learning	LS3	PICTURE_247.jpg	c	n/a
2493.681	8.115	8115.0	learning	LS3	PICTURE_741.jpg	i	n/a
2501.796	8.340	8340.0	learning	LS3	PICTURE_599.jpg	c	n/a
2510.136	7.919	7919.0	learning	LS3	PICTURE_610.jpg	c	n/a
2518.055	8.783	8783.0	learning	LS3	PICTURE_599.jpg	i	n/a
2526.838	9.322	9322.0	learning	LS3	PICTURE_247.jpg	i	n/a
2536.160	8.100	8100.0	learning	LS3	PICTURE_43.jpg	i	n/a
2544.260	8.487	8487.0	learning	LS3	PICTURE_610.jpg	i	n/a
2552.747	9.030	9030.0	learning	LS3	PICTURE_43.jpg	c	n/a
2561.777	9.341	9341.0	learning	LS4	PICTURE_741.jpg	i	n/a
2571.118	9.245	9245.0	learning	LS4	PICTURE_599.jpg	c	n/a
2580.363	8.824	8824.0	learning	LS4	PICTURE_247.jpg	c	n/a
2589.187	13.179	13179.0	learning	LS4	PICTURE_599.jpg	i	n/a
2602.366	8.909	8909.0	learning	LS4	PICTURE_610.jpg	c	n/a
2611.275	7.995	7995.0	learning	LS4	PICTURE_43.jpg	c	n/a
2619.270	9.638	9638.0	learning	LS4	PICTURE_247.jpg	i	n/a
2628.908	10.010	10010.0	learning	LS4	PICTURE_43.jpg	i	n/a
2638.918	7.662	7662.0	learning	LS4	PICTURE_610.jpg	i	n/a
2646.580	8.354	8354.0	learning	LS4	PICTURE_741.jpg	c	n/a
2654.934	10.417	10417.0	learning	LS1	PICTURE_216.jpg	c	n/a
2665.351	11.118	11118.0	learning	LS1	PICTURE_703.jpg	i	n/a
2676.469	11.498	11498.0	learning	LS1	PICTURE_53.jpg	i	n/a
2687.967	11.877	11877.0	learning	LS1	PICTURE_695.jpg	i	n/a
2699.844	11.615	11615.0	learning	LS1	PICTURE_220.jpg	i	n/a
2711.459	9.754	9754.0	learning	LS1	PICTURE_703.jpg	c	n/a
2721.213	9.341	9341.0	learning	LS1	PICTURE_695.jpg	c	n/a
2730.554	8.759	8759.0	learning	LS1	PICTURE_53.jpg	c	n/a
2739.313	9.784	9784.0	learning	LS1	PICTURE_216.jpg	i	n/a
2749.097	9.371	9371.0	learning	LS1	PICTURE_220.jpg	c	n/a
2758.468	7.443	7443.0	learning	LS2	PICTURE_220.jpg	c	n/a
2765.911	7.829	7829.0	learning	LS2	PICTURE_53.jpg	c	n/a
2773.740	10.933	10933.0	learning	LS2	PICTURE_703.jpg	i	n/a
2784.673	8.279	8279.0	learning	LS2	PICTURE_220.jpg	i	n/a
2792.952	16.979	16979.0	learning	LS2	PICTURE_695.jpg	i	n/a
2809.931	13.820	13820.0	learning	LS2	PICTURE_53.jpg	i	n/a
2823.751	7.949	7949.0	learning	LS2	PICTURE_216.jpg	i	n/a
2831.700	11.191	11191.0	learning	LS2	PICTURE_703.jpg	c	n/a
2842.891	9.795	9795.0	learning	LS2	PICTURE_695.jpg	c	n/a
2852.686	7.762	7762.0	learning	LS2	PICTURE_216.jpg	c	n/a
2860.448	7.900	7900.0	learning	LS3	PICTURE_216.jpg	c	n/a
2868.348	7.791	7791.0	learning	LS3	PICTURE_220.jpg	c	n/a
2876.139	7.530	7530.0	learning	LS3	PICTURE_695.jpg	c	n/a
2883.669	9.187	9187.0	learning	LS3	PICTURE_53.jpg	c	n/a
2892.856	9.245	9245.0	learning	LS3	PICTURE_695.jpg	i	n/a
2902.101	12.502	12502.0	learning	LS3	PICTURE_703.jpg	c	n/a
2914.603	9.202	9202.0	learning	LS3	PICTURE_53.jpg	i	n/a
2923.805	12.302	12302.0	learning	LS3	PICTURE_703.jpg	i	n/a
2936.107	8.529	8529.0	learning	LS3	PICTURE_216.jpg	i	n/a
2944.636	7.789	7789.0	learning	LS3	PICTURE_220.jpg	i	n/a
2952.425	8.890	8890.0	learning	LS4	PICTURE_695.jpg	c	n/a
2961.315	8.476	8476.0	learning	LS4	PICTURE_53.jpg	c	n/a
2969.791	9.501	9501.0	learning	LS4	PICTURE_695.jpg	i	n/a
2979.292	8.449	8449.0	learning	LS4	PICTURE_703.jpg	i	n/a
2987.741	9.627	9627.0	learning	LS4	PICTURE_216.jpg	i	n/a
2997.368	9.212	9212.0	learning	LS4	PICTURE_220.jpg	i	n/a
3006.580	9.910	9910.0	learning	LS4	PICTURE_703.jpg	c	n/a
3016.490	7.730	7730.0	learning	LS4	PICTURE_220.jpg	c	n/a
3024.220	10.015	10015.0	learning	LS4	PICTURE_216.jpg	c	n/a
3034.235	7.662	7662.0	learning	LS4	PICTURE_53.jpg	i	n/a
