onset	duration	accuracy	trial_type	learning_stage	stimulus
0.0	2.315	correct	generate	Run1	generate/STIM_000.jpg
5.458	3.187	incorrect	generate	Run1	generate/STIM_000.jpg
11.675	3.007	correct	generate	Run1	generate/STIM_000.jpg
17.685	1.353	incorrect	generate	Run1	generate/STIM_000.jpg
22.339	2.009	incorrect	generate	Run1	generate/STIM_000.jpg
28.105	3.385	correct	generate	Run1	generate/STIM_001.jpg
34.92	2.332	correct	generate	Run1	generate/STIM_001.jpg
38.936	1.978	correct	generate	Run1	generate/STIM_001.jpg
43.834	2.435	correct	generate	Run1	generate/STIM_001.jpg
49.735	1.65	correct	generate	Run1	generate/STIM_001.jpg
55.014	2.449	correct	generate	Run1	generate/STIM_002.jpg
60.501	2.157	correct	generate	Run1	generate/STIM_002.jpg
66.313	1.989	correct	generate	Run1	generate/STIM_002.jpg
70.417	2.962	correct	generate	Run1	generate/STIM_002.jpg
76.504	2.534	correct	generate	Run1	generate/STIM_002.jpg
82.139	1.715	correct	generate	Run1	generate/STIM_003.jpg
86.94	2.192	correct	generate	Run1	generate/STIM_003.jpg
91.259	1.418	incorrect	generate	Run1	generate/STIM_003.jpg
95.927	1.961	correct	generate	Run1	generate/STIM_003.jpg
101.234	2.163	incorrect	generate	Run1	generate/STIM_003.jpg
105.218	1.706	correct	generate	Run1	generate/STIM_004.jpg
109.558	2.673	correct	generate	Run1	generate/STIM_004.jpg
115.318	2.384	incorrect	generate	Run1	generate/STIM_004.jpg
120.738	2.001	correct	generate	Run1	generate/STIM_004.jpg
125.425	1.931	correct	generate	Run1	generate/STIM_004.jpg
129.628	3.077	correct	generate	Run1	generate/STIM_005.jpg
135.221	1.446	incorrect	generate	Run1	generate/STIM_005.jpg
138.658	1.975	incorrect	generate	Run1	generate/STIM_005.jpg
143.083	2.432	incorrect	generate	Run1	generate/STIM_005.jpg
147.656	2.126	correct	generate	Run1	generate/STIM_005.jpg
152.822	2.889	incorrect	generate	Run1	generate/STIM_006.jpg
159.15	1.511	correct	generate	Run1	generate/STIM_006.jpg
164.033	2.977	correct	generate	Run1	generate/STIM_006.jpg
168.734	2.671	correct	generate	Run1	generate/STIM_006.jpg
174.381	2.262	incorrect	generate	Run1	generate/STIM_006.jpg
180.059	2.441	correct	generate	Run1	generate/STIM_007.jpg
184.37	2.949	correct	generate	Run1	generate/STIM_007.jpg
190.853	1.341	correct	generate	Run1	generate/STIM_007.jpg
194.507	1.386	incorrect	generate	Run1	generate/STIM_007.jpg
199.463	2.429	incorrect	generate	Run1	generate/STIM_007.jpg
204.025	2.005	incorrect	generate	Run1	generate/STIM_008.jpg
207.977	3.108	correct	generate	Run1	generate/STIM_008.jpg
214.025	2.547	incorrect	generate	Run1	generate/STIM_008.jpg
219.303	1.812	correct	generate	Run1	generate/STIM_008.jpg
223.115	1.644	correct	generate	Run1	generate/STIM_008.jpg
226.585	2.033	correct	generate	Run1	generate/STIM_009.jpg
232.056	2.03	correct	generate	Run1	generate/STIM_009.jpg
236.454	2.414	correct	generate	Run1	generate/STIM_009.jpg
242.522	2.013	correct	generate	Run1	generate/STIM_009.jpg
247.171	2.59	correct	generate	Run1	generate/STIM_009.jpg
252.483	1.574	correct	generate	Run1	generate/STIM_010.jpg
255.935	1.725	correct	generate	Run1	generate/STIM_010.jpg
260.998	1.78	correct	generate	Run1	generate/STIM_010.jpg
266.544	1.869	correct	generate	Run1	generate/STIM_010.jpg
270.816	1.38	incorrect	generate	Run1	generate/STIM_010.jpg
274.519	2.953	incorrect	generate	Run1	generate/STIM_011.jpg
279.748	1.396	correct	generate	Run1	generate/STIM_011.jpg
283.115	2.947	correct	generate	Run1	generate/STIM_011.jpg
288.832	2.076	correct	generate	Run1	generate/STIM_011.jpg
293.541	2.691	correct	generate	Run1	generate/STIM_011.jpg
298.628	1.487	incorrect	generate	Run1	generate/STIM_012.jpg
303.377	2.912	correct	generate	Run1	generate/STIM_012.jpg
309.232	2.364	correct	generate	Run1	generate/STIM_012.jpg
313.428	2.414	incorrect	generate	Run1	generate/STIM_012.jpg
318.675	1.266	incorrect	generate	Run1	generate/STIM_012.jpg
322.432	3.186	incorrect	generate	Run1	generate/STIM_013.jpg
328.19	1.913	correct	generate	Run1	generate/STIM_013.jpg
332.582	2.41	correct	generate	Run1	generate/STIM_013.jpg
338.079	2.838	correct	generate	Run1	generate/STIM_013.jpg
343.094	1.779	incorrect	generate	Run1	generate/STIM_013.jpg
347.02	2.09	incorrect	generate	Run1	generate/STIM_014.jpg
352.219	1.419	correct	generate	Run1	generate/STIM_014.jpg
356.33	1.37	correct	generate	Run1	generate/STIM_014.jpg
360.152	2.482	correct	generate	Run1	generate/STIM_014.jpg
364.753	1.603	correct	generate	Run1	generate/STIM_014.jpg
370.066	1.904	correct	generate	Run1	generate/STIM_015.jpg
374.915	2.58	correct	generate	Run1	generate/STIM_015.jpg
379.736	1.638	correct	generate	Run1	generate/STIM_015.jpg
383.753	1.584	correct	generate	Run1	generate/STIM_015.jpg
388.899	1.524	correct	generate	Run1	generate/STIM_015.jpg
394.255	1.586	incorrect	generate	Run1	generate/STIM_016.jpg
397.859	1.899	incorrect	generate	Run1	generate/STIM_016.jpg
401.889	2.634	correct	generate	Run1	generate/STIM_016.jpg
406.283	1.148	correct	generate	Run1	generate/STIM_016.jpg
410.013	2.572	correct	generate	Run1	generate/STIM_016.jpg
415.022	2.038	incorrect	generate	Run1	generate/STIM_017.jpg
419.179	2.384	correct	generate	Run1	generate/STIM_017.jpg
425.294	1.835	correct	generate	Run1	generate/STIM_017.jpg
430.165	1.71	correct	generate	Run1	generate/STIM_017.jpg
434.732	1.951	correct	generate	Run1	generate/STIM_017.jpg
439.75	3.058	correct	generate	Run1	generate/STIM_018.jpg
445.742	1.391	incorrect	generate	Run1	generate/STIM_018.jpg
449.886	1.682	incorrect	generate	Run1	generate/STIM_018.jpg
454.936	2.492	correct	generate	Run1	generate/STIM_018.jpg
461.147	1.85	correct	generate	Run1	generate/STIM_018.jpg
464.773	1.494	correct	generate	Run1	generate/STIM_019.jpg
469.519	1.42	correct	generate	Run1	generate/STIM_019.jpg
473.797	1.897	incorrect	generate	Run1	generate/STIM_019.jpg
478.18	1.875	incorrect	generate	Run1	generate/STIM_019.jpg
483.375	2.179	correct	generate	Run1	generate/STIM_019.jpg
488.979	1.618	correct	generate	Run1	generate/STIM_020.jpg
494.093	1.648	correct	generate	Run1	generate/STIM_020.jpg
497.7	2.782	correct	generate	Run1	generate/STIM_020.jpg
502.909	1.924	incorrect	generate	Run1	generate/STIM_020.jpg
507.182	2.496	correct	generate	Run1	generate/STIM_020.jpg
511.565	2.299	correct	generate	Run1	generate/STIM_021.jpg
517.215	2.676	correct	generate	Run1	generate/STIM_021.jpg
522.98	1.773	correct	generate	Run1	generate/STIM_021.jpg
526.673	1.216	correct	generate	Run1	generate/STIM_021.jpg
531.456	1.058	correct	generate	Run1	generate/STIM_021.jpg
535.886	2.689	correct	generate	Run1	generate/STIM_022.jpg
540.492	1.348	incorrect	generate	Run1	generate/STIM_022.jpg
544.888	2.423	correct	generate	Run1	generate/STIM_022.jpg
549.314	2.437	correct	generate	Run1	generate/STIM_022.jpg
554.385	1.487	correct	generate	Run1	generate/STIM_022.jpg
559.538	2.576	incorrect	generate	Run1	generate/STIM_023.jpg
565.005	2.72	correct	generate	Run1	generate/STIM_023.jpg
569.453	1.568	incorrect	generate	Run1	generate/STIM_023.jpg
574.467	2.642	correct	generate	Run1	generate/STIM_023.jpg
579.565	1.211	correct	generate	Run1	generate/STIM_023.jpg
583.613	2.914	correct	generate	Run1	generate/STIM_024.jpg
588.513	3.13	correct	generate	Run1	generate/STIM_024.jpg
594.437	1.58	correct	generate	Run1	generate/STIM_024.jpg
599.778	1.659	correct	generate	Run1	generate/STIM_024.jpg
604.895	1.74	correct	generate	Run1	generate/STIM_024.jpg
608.832	0.528	correct	repeat	Run1	repeat/STIM_000.jpg
612.333	0.763	correct	repeat	Run1	repeat/STIM_000.jpg
615.161	0.907	correct	repeat	Run1	repeat/STIM_000.jpg
618.785	1.172	correct	repeat	Run1	repeat/STIM_000.jpg
623.627	0.539	correct	repeat	Run1	repeat/STIM_000.jpg
626.862	0.739	incorrect	repeat	Run1	repeat/STIM_001.jpg
631.4	0.747	correct	repeat	Run1	repeat/STIM_001.jpg
635.513	1.038	correct	repeat	Run1	repeat/STIM_001.jpg
639.596	0.668	correct	repeat	Run1	repeat/STIM_001.jpg
643.345	0.965	correct	repeat	Run1	repeat/STIM_001.jpg
647.441	1.024	correct	repeat	Run1	repeat/STIM_002.jpg
650.546	1.124	correct	repeat	Run1	repeat/STIM_002.jpg
654.942	0.701	correct	repeat	Run1	repeat/STIM_002.jpg
658.729	0.555	correct	repeat	Run1	repeat/STIM_002.jpg
662.893	0.874	correct	repeat	Run1	repeat/STIM_002.jpg
667.358	0.94	correct	repeat	Run1	repeat/STIM_003.jpg
672.044	1.118	correct	repeat	Run1	repeat/STIM_003.jpg
675.806	1.063	correct	repeat	Run1	repeat/STIM_003.jpg
680.228	0.59	correct	repeat	Run1	repeat/STIM_003.jpg
683.873	0.762	incorrect	repeat	Run1	repeat/STIM_003.jpg
686.726	1.008	correct	repeat	Run1	repeat/STIM_004.jpg
689.988	1.036	correct	repeat	Run1	repeat/STIM_004.jpg
693.331	0.67	correct	repeat	Run1	repeat/STIM_004.jpg
696.448	0.638	correct	repeat	Run1	repeat/STIM_004.jpg
699.862	0.569	correct	repeat	Run1	repeat/STIM_004.jpg
702.868	0.679	correct	repeat	Run1	repeat/STIM_005.jpg
706.036	0.821	incorrect	repeat	Run1	repeat/STIM_005.jpg
708.989	0.986	correct	repeat	Run1	repeat/STIM_005.jpg
713.147	0.668	correct	repeat	Run1	repeat/STIM_005.jpg
717.334	0.758	correct	repeat	Run1	repeat/STIM_005.jpg
721.766	0.833	correct	repeat	Run1	repeat/STIM_006.jpg
726.246	0.59	correct	repeat	Run1	repeat/STIM_006.jpg
730.441	0.626	correct	repeat	Run1	repeat/STIM_006.jpg
733.519	0.697	correct	repeat	Run1	repeat/STIM_006.jpg
736.894	0.775	correct	repeat	Run1	repeat/STIM_006.jpg
741.145	1.044	correct	repeat	Run1	repeat/STIM_007.jpg
744.951	1.077	correct	repeat	Run1	repeat/STIM_007.jpg
748.473	0.721	correct	repeat	Run1	repeat/STIM_007.jpg
752.079	0.835	correct	repeat	Run1	repeat/STIM_007.jpg
756.301	0.98	correct	repeat	Run1	repeat/STIM_007.jpg
759.943	0.647	correct	repeat	Run1	repeat/STIM_008.jpg
763.04	0.902	correct	repeat	Run1	repeat/STIM_008.jpg
767.713	0.62	correct	repeat	Run1	repeat/STIM_008.jpg
771.873	0.661	correct	repeat	Run1	repeat/STIM_008.jpg
775.718	0.832	correct	repeat	Run1	repeat/STIM_008.jpg
778.507	0.788	correct	repeat	Run1	repeat/STIM_009.jpg
782.018	0.681	correct	repeat	Run1	repeat/STIM_009.jpg
785.479	0.926	correct	repeat	Run1	repeat/STIM_009.jpg
788.756	0.585	correct	repeat	Run1	repeat/STIM_009.jpg
793.281	1.072	correct	repeat	Run1	repeat/STIM_009.jpg
797.771	0.606	correct	repeat	Run1	repeat/STIM_010.jpg
801.852	1.021	correct	repeat	Run1	repeat/STIM_010.jpg
806.327	0.955	correct	repeat	Run1	repeat/STIM_010.jpg
810.769	0.761	correct	repeat	Run1	repeat/STIM_010.jpg
815.336	0.631	correct	repeat	Run1	repeat/STIM_010.jpg
817.947	0.872	incorrect	repeat	Run1	repeat/STIM_011.jpg
820.847	1.032	correct	repeat	Run1	repeat/STIM_011.jpg
824.592	1.0	correct	repeat	Run1	repeat/STIM_011.jpg
828.818	0.904	correct	repeat	Run1	repeat/STIM_011.jpg
832.743	1.13	incorrect	repeat	Run1	repeat/STIM_011.jpg
837.08	0.889	correct	repeat	Run1	repeat/STIM_012.jpg
841.33	1.062	correct	repeat	Run1	repeat/STIM_012.jpg
845.018	0.952	correct	repeat	Run1	repeat/STIM_012.jpg
848.07	1.067	correct	repeat	Run1	repeat/STIM_012.jpg
851.38	0.786	correct	repeat	Run1	repeat/STIM_012.jpg
854.704	0.946	correct	repeat	Run1	repeat/STIM_013.jpg
857.999	0.944	correct	repeat	Run1	repeat/STIM_013.jpg
862.161	0.48	correct	repeat	Run1	repeat/STIM_013.jpg
866.522	0.856	correct	repeat	Run1	repeat/STIM_013.jpg
869.68	0.562	correct	repeat	Run1	repeat/STIM_013.jpg
873.421	0.868	correct	repeat	Run1	repeat/STIM_014.jpg
876.429	1.06	correct	repeat	Run1	repeat/STIM_014.jpg
880.585	0.969	correct	repeat	Run1	repeat/STIM_014.jpg
883.829	0.652	correct	repeat	Run1	repeat/STIM_014.jpg
888.008	0.753	correct	repeat	Run1	repeat/STIM_014.jpg
891.099	1.492	correct	generate	Run2	generate/STIM_000.jpg
895.843	2.4	incorrect	generate	Run2	generate/STIM_000.jpg
900.686	2.343	correct	generate	Run2	generate/STIM_000.jpg
905.76	2.111	correct	generate	Run2	generate/STIM_000.jpg
909.695	1.412	correct	generate	Run2	generate/STIM_000.jpg
913.392	1.684	correct	generate	Run2	generate/STIM_001.jpg
917.631	2.221	incorrect	generate	Run2	generate/STIM_001.jpg
923.074	1.09	incorrect	generate	Run2	generate/STIM_001.jpg
927.092	1.72	incorrect	generate	Run2	generate/STIM_001.jpg
930.804	1.622	correct	generate	Run2	generate/STIM_001.jpg
934.552	1.554	correct	generate	Run2	generate/STIM_002.jpg
938.328	1.877	correct	generate	Run2	generate/STIM_002.jpg
942.298	2.323	correct	generate	Run2	generate/STIM_002.jpg
947.885	1.667	correct	generate	Run2	generate/STIM_002.jpg
952.629	1.942	incorrect	generate	Run2	generate/STIM_002.jpg
957.489	1.665	correct	generate	Run2	generate/STIM_003.jpg
961.541	1.358	correct	generate	Run2	generate/STIM_003.jpg
965.068	2.112	correct	generate	Run2	generate/STIM_003.jpg
969.742	0.938	correct	generate	Run2	generate/STIM_003.jpg
973.724	0.995	incorrect	generate	Run2	generate/STIM_003.jpg
978.023	1.984	incorrect	generate	Run2	generate/STIM_004.jpg
982.18	2.148	correct	generate	Run2	generate/STIM_004.jpg
987.031	1.42	incorrect	generate	Run2	generate/STIM_004.jpg
992.313	1.052	correct	generate	Run2	generate/STIM_004.jpg
995.297	1.506	correct	generate	Run2	generate/STIM_004.jpg
999.887	1.85	correct	generate	Run2	generate/STIM_005.jpg
1004.385	2.449	incorrect	generate	Run2	generate/STIM_005.jpg
1009.672	2.111	correct	generate	Run2	generate/STIM_005.jpg
1014.728	1.027	correct	generate	Run2	generate/STIM_005.jpg
1018.317	1.128	correct	generate	Run2	generate/STIM_005.jpg
1021.666	1.614	incorrect	generate	Run2	generate/STIM_006.jpg
1025.952	1.511	correct	generate	Run2	generate/STIM_006.jpg
1029.657	2.355	correct	generate	Run2	generate/STIM_006.jpg
1035.087	2.365	correct	generate	Run2	generate/STIM_006.jpg
1040.532	1.493	correct	generate	Run2	generate/STIM_006.jpg
1044.315	2.815	correct	generate	Run2	generate/STIM_007.jpg
1049.565	2.309	correct	generate	Run2	generate/STIM_007.jpg
1054.315	1.623	incorrect	generate	Run2	generate/STIM_007.jpg
1057.797	1.604	correct	generate	Run2	generate/STIM_007.jpg
1061.75	1.832	correct	generate	Run2	generate/STIM_007.jpg
1066.776	1.162	correct	generate	Run2	generate/STIM_008.jpg
1071.558	2.19	correct	generate	Run2	generate/STIM_008.jpg
1077.092	1.213	correct	generate	Run2	generate/STIM_008.jpg
1081.917	1.289	correct	generate	Run2	generate/STIM_008.jpg
1087.004	1.858	incorrect	generate	Run2	generate/STIM_008.jpg
1090.934	1.887	correct	generate	Run2	generate/STIM_009.jpg
1094.878	1.553	correct	generate	Run2	generate/STIM_009.jpg
1099.996	1.568	correct	generate	Run2	generate/STIM_009.jpg
1105.097	1.323	correct	generate	Run2	generate/STIM_009.jpg
1108.508	1.844	correct	generate	Run2	generate/STIM_009.jpg
1114.065	1.95	correct	generate	Run2	generate/STIM_010.jpg
1119.005	1.682	correct	generate	Run2	generate/STIM_010.jpg
1123.033	0.957	correct	generate	Run2	generate/STIM_010.jpg
1127.466	1.959	correct	generate	Run2	generate/STIM_010.jpg
1132.186	1.499	correct	generate	Run2	generate/STIM_010.jpg
1136.799	2.613	correct	generate	Run2	generate/STIM_011.jpg
1141.565	2.176	correct	generate	Run2	generate/STIM_011.jpg
1146.133	1.644	correct	generate	Run2	generate/STIM_011.jpg
1150.101	1.394	correct	generate	Run2	generate/STIM_011.jpg
1153.766	1.32	correct	generate	Run2	generate/STIM_011.jpg
1158.506	1.674	correct	generate	Run2	generate/STIM_012.jpg
1162.974	1.97	correct	generate	Run2	generate/STIM_012.jpg
1167.364	1.895	correct	generate	Run2	generate/STIM_012.jpg
1171.223	1.601	correct	generate	Run2	generate/STIM_012.jpg
1176.244	2.109	correct	generate	Run2	generate/STIM_012.jpg
1181.276	1.188	correct	generate	Run2	generate/STIM_013.jpg
1184.651	1.987	correct	generate	Run2	generate/STIM_013.jpg
1188.485	1.131	correct	generate	Run2	generate/STIM_013.jpg
1192.15	2.228	correct	generate	Run2	generate/STIM_013.jpg
1196.376	1.403	correct	generate	Run2	generate/STIM_013.jpg
1200.222	1.796	correct	generate	Run2	generate/STIM_014.jpg
1204.703	1.765	incorrect	generate	Run2	generate/STIM_014.jpg
1209.122	1.043	correct	generate	Run2	generate/STIM_014.jpg
1212.343	0.98	correct	generate	Run2	generate/STIM_014.jpg
1217.047	1.444	incorrect	generate	Run2	generate/STIM_014.jpg
1222.232	1.308	correct	generate	Run2	generate/STIM_015.jpg
1226.692	1.568	correct	generate	Run2	generate/STIM_015.jpg
1230.68	1.355	correct	generate	Run2	generate/STIM_015.jpg
1234.412	1.29	correct	generate	Run2	generate/STIM_015.jpg
1237.763	1.648	correct	generate	Run2	generate/STIM_015.jpg
1241.391	2.137	correct	generate	Run2	generate/STIM_016.jpg
1245.544	1.151	correct	generate	Run2	generate/STIM_016.jpg
1249.757	2.194	correct	generate	Run2	generate/STIM_016.jpg
1255.182	1.938	correct	generate	Run2	generate/STIM_016.jpg
1259.953	1.357	correct	generate	Run2	generate/STIM_016.jpg
1264.565	2.248	correct	generate	Run2	generate/STIM_017.jpg
1268.619	2.398	incorrect	generate	Run2	generate/STIM_017.jpg
1274.127	1.541	correct	generate	Run2	generate/STIM_017.jpg
1277.662	1.139	correct	generate	Run2	generate/STIM_017.jpg
1280.732	2.299	correct	generate	Run2	generate/STIM_017.jpg
1286.049	2.844	incorrect	generate	Run2	generate/STIM_018.jpg
1290.654	2.492	correct	generate	Run2	generate/STIM_018.jpg
1296.836	1.905	incorrect	generate	Run2	generate/STIM_018.jpg
1300.942	1.168	correct	generate	Run2	generate/STIM_018.jpg
1305.792	0.919	correct	generate	Run2	generate/STIM_018.jpg
1310.044	2.188	correct	generate	Run2	generate/STIM_019.jpg
1315.382	2.071	correct	generate	Run2	generate/STIM_019.jpg
1319.806	1.476	correct	generate	Run2	generate/STIM_019.jpg
1323.695	1.839	correct	generate	Run2	generate/STIM_019.jpg
1327.523	1.726	correct	generate	Run2	generate/STIM_019.jpg
1332.814	1.708	correct	generate	Run2	generate/STIM_020.jpg
1337.004	1.947	incorrect	generate	Run2	generate/STIM_020.jpg
1341.484	2.376	correct	generate	Run2	generate/STIM_020.jpg
1346.959	1.245	correct	generate	Run2	generate/STIM_020.jpg
1350.71	1.974	correct	generate	Run2	generate/STIM_020.jpg
1355.331	1.508	correct	generate	Run2	generate/STIM_021.jpg
1358.868	1.813	correct	generate	Run2	generate/STIM_021.jpg
1364.118	1.55	correct	generate	Run2	generate/STIM_021.jpg
1368.261	1.678	correct	generate	Run2	generate/STIM_021.jpg
1372.398	1.534	correct	generate	Run2	generate/STIM_021.jpg
1377.356	1.161	correct	generate	Run2	generate/STIM_022.jpg
1380.742	2.246	incorrect	generate	Run2	generate/STIM_022.jpg
1384.965	1.966	correct	generate	Run2	generate/STIM_022.jpg
1390.525	1.253	correct	generate	Run2	generate/STIM_022.jpg
1394.189	1.201	correct	generate	Run2	generate/STIM_022.jpg
1398.816	1.393	incorrect	generate	Run2	generate/STIM_023.jpg
1403.913	1.792	correct	generate	Run2	generate/STIM_023.jpg
1408.731	2.071	correct	generate	Run2	generate/STIM_023.jpg
1412.946	1.883	correct	generate	Run2	generate/STIM_023.jpg
1417.761	1.368	incorrect	generate	Run2	generate/STIM_023.jpg
1421.279	2.177	correct	generate	Run2	generate/STIM_024.jpg
1426.397	1.383	correct	generate	Run2	generate/STIM_024.jpg
1430.655	1.249	correct	generate	Run2	generate/STIM_024.jpg
1435.249	2.025	incorrect	generate	Run2	generate/STIM_024.jpg
1439.339	1.321	incorrect	generate	Run2	generate/STIM_024.jpg
1443.218	0.808	correct	repeat	Run2	repeat/STIM_000.jpg
1446.057	0.798	incorrect	repeat	Run2	repeat/STIM_000.jpg
1449.408	0.618	correct	repeat	Run2	repeat/STIM_000.jpg
1453.064	1.12	correct	repeat	Run2	repeat/STIM_000.jpg
1457.017	0.992	correct	repeat	Run2	repeat/STIM_000.jpg
1461.443	0.994	correct	repeat	Run2	repeat/STIM_001.jpg
1465.098	0.696	correct	repeat	Run2	repeat/STIM_001.jpg
1469.657	1.002	correct	repeat	Run2	repeat/STIM_001.jpg
1472.571	0.783	correct	repeat	Run2	repeat/STIM_001.jpg
1475.618	0.589	correct	repeat	Run2	repeat/STIM_001.jpg
1478.431	0.79	correct	repeat	Run2	repeat/STIM_002.jpg
1483.158	0.852	correct	repeat	Run2	repeat/STIM_002.jpg
1487.694	1.042	correct	repeat	Run2	repeat/STIM_002.jpg
1491.792	1.058	correct	repeat	Run2	repeat/STIM_002.jpg
1496.478	1.077	correct	repeat	Run2	repeat/STIM_002.jpg
1499.969	0.739	correct	repeat	Run2	repeat/STIM_003.jpg
1503.951	0.745	correct	repeat	Run2	repeat/STIM_003.jpg
1507.892	0.786	correct	repeat	Run2	repeat/STIM_003.jpg
1510.735	0.807	correct	repeat	Run2	repeat/STIM_003.jpg
1513.652	0.729	correct	repeat	Run2	repeat/STIM_003.jpg
1517.782	1.056	correct	repeat	Run2	repeat/STIM_004.jpg
1521.905	0.802	correct	repeat	Run2	repeat/STIM_004.jpg
1526.002	1.066	correct	repeat	Run2	repeat/STIM_004.jpg
1530.112	1.046	correct	repeat	Run2	repeat/STIM_004.jpg
1534.672	0.787	correct	repeat	Run2	repeat/STIM_004.jpg
1538.984	0.924	correct	repeat	Run2	repeat/STIM_005.jpg
1543.566	0.657	correct	repeat	Run2	repeat/STIM_005.jpg
1547.368	0.657	correct	repeat	Run2	repeat/STIM_005.jpg
1550.29	0.806	correct	repeat	Run2	repeat/STIM_005.jpg
1553.445	0.892	correct	repeat	Run2	repeat/STIM_005.jpg
1558.026	0.93	correct	repeat	Run2	repeat/STIM_006.jpg
1562.252	0.739	correct	repeat	Run2	repeat/STIM_006.jpg
1566.818	0.737	correct	repeat	Run2	repeat/STIM_006.jpg
1570.353	0.548	incorrect	repeat	Run2	repeat/STIM_006.jpg
1574.321	0.657	correct	repeat	Run2	repeat/STIM_006.jpg
1578.761	1.04	correct	repeat	Run2	repeat/STIM_007.jpg
1583.051	0.892	correct	repeat	Run2	repeat/STIM_007.jpg
1587.725	1.125	correct	repeat	Run2	repeat/STIM_007.jpg
1592.615	0.671	correct	repeat	Run2	repeat/STIM_007.jpg
1596.695	0.996	correct	repeat	Run2	repeat/STIM_007.jpg
1599.676	0.578	correct	repeat	Run2	repeat/STIM_008.jpg
1602.912	0.858	correct	repeat	Run2	repeat/STIM_008.jpg
1607.04	0.652	correct	repeat	Run2	repeat/STIM_008.jpg
1611.459	0.706	correct	repeat	Run2	repeat/STIM_008.jpg
1615.966	0.86	correct	repeat	Run2	repeat/STIM_008.jpg
1619.924	0.835	correct	repeat	Run2	repeat/STIM_009.jpg
1624.591	1.011	correct	repeat	Run2	repeat/STIM_009.jpg
1627.903	0.591	correct	repeat	Run2	repeat/STIM_009.jpg
1631.591	1.091	correct	repeat	Run2	repeat/STIM_009.jpg
1636.29	0.973	correct	repeat	Run2	repeat/STIM_009.jpg
1640.199	1.027	incorrect	repeat	Run2	repeat/STIM_010.jpg
1644.697	0.89	correct	repeat	Run2	repeat/STIM_010.jpg
1648.313	0.712	correct	repeat	Run2	repeat/STIM_010.jpg
1651.127	0.583	correct	repeat	Run2	repeat/STIM_010.jpg
1654.826	0.791	correct	repeat	Run2	repeat/STIM_010.jpg
1658.119	0.774	correct	repeat	Run2	repeat/STIM_011.jpg
1662.139	0.542	correct	repeat	Run2	repeat/STIM_011.jpg
1664.746	0.735	correct	repeat	Run2	repeat/STIM_011.jpg
1667.733	0.727	correct	repeat	Run2	repeat/STIM_011.jpg
1671.749	0.972	correct	repeat	Run2	repeat/STIM_011.jpg
1675.62	1.018	incorrect	repeat	Run2	repeat/STIM_012.jpg
1679.481	0.954	correct	repeat	Run2	repeat/STIM_012.jpg
1682.799	0.796	correct	repeat	Run2	repeat/STIM_012.jpg
1686.159	0.94	correct	repeat	Run2	repeat/STIM_012.jpg
1690.183	0.738	correct	repeat	Run2	repeat/STIM_012.jpg
1694.088	1.126	correct	repeat	Run2	repeat/STIM_013.jpg
1697.844	1.066	correct	repeat	Run2	repeat/STIM_013.jpg
1702.593	0.584	correct	repeat	Run2	repeat/STIM_013.jpg
1706.182	0.701	correct	repeat	Run2	repeat/STIM_013.jpg
1709.321	1.124	correct	repeat	Run2	repeat/STIM_013.jpg
1714.189	1.101	correct	repeat	Run2	repeat/STIM_014.jpg
1717.231	0.521	correct	repeat	Run2	repeat/STIM_014.jpg
1721.309	0.819	correct	repeat	Run2	repeat/STIM_014.jpg
1724.305	1.054	correct	repeat	Run2	repeat/STIM_014.jpg
1729.175	1.112	correct	repeat	Run2	repeat/STIM_014.jpg
1733.886	1.161	incorrect	generate	Run3	generate/STIM_000.jpg
1738.749	1.982	correct	generate	Run3	generate/STIM_000.jpg
1744.079	2.074	correct	generate	Run3	generate/STIM_000.jpg
1748.265	2.277	correct	generate	Run3	generate/STIM_000.jpg
1753.392	1.724	correct	generate	Run3	generate/STIM_000.jpg
1758.534	2.052	correct	generate	Run3	generate/STIM_001.jpg
1764.117	2.423	correct	generate	Run3	generate/STIM_001.jpg
1768.87	2.002	correct	generate	Run3	generate/STIM_001.jpg
1773.35	0.998	correct	generate	Run3	generate/STIM_001.jpg
1777.197	1.63	correct	generate	Run3	generate/STIM_001.jpg
1782.182	1.465	correct	generate	Run3	generate/STIM_002.jpg
1786.384	1.963	correct	generate	Run3	generate/STIM_002.jpg
1790.74	2.13	correct	generate	Run3	generate/STIM_002.jpg
1796.014	1.947	correct	generate	Run3	generate/STIM_002.jpg
1800.914	2.167	correct	generate	Run3	generate/STIM_002.jpg
1804.863	2.219	correct	generate	Run3	generate/STIM_003.jpg
1809.224	1.244	correct	generate	Run3	generate/STIM_003.jpg
1813.17	2.028	correct	generate	Run3	generate/STIM_003.jpg
1817.877	1.88	correct	generate	Run3	generate/STIM_003.jpg
1822.814	1.763	correct	generate	Run3	generate/STIM_003.jpg
1827.774	1.261	correct	generate	Run3	generate/STIM_004.jpg
1830.972	1.836	incorrect	generate	Run3	generate/STIM_004.jpg
1836.029	1.38	correct	generate	Run3	generate/STIM_004.jpg
1839.316	2.109	correct	generate	Run3	generate/STIM_004.jpg
1844.335	1.89	correct	generate	Run3	generate/STIM_004.jpg
1848.405	1.39	correct	generate	Run3	generate/STIM_005.jpg
1853.138	2.311	correct	generate	Run3	generate/STIM_005.jpg
1859.194	2.188	correct	generate	Run3	generate/STIM_005.jpg
1863.145	1.468	correct	generate	Run3	generate/STIM_005.jpg
1868.168	1.109	correct	generate	Run3	generate/STIM_005.jpg
1871.28	1.981	correct	generate	Run3	generate/STIM_006.jpg
1875.608	1.916	correct	generate	Run3	generate/STIM_006.jpg
1881.07	1.429	correct	generate	Run3	generate/STIM_006.jpg
1886.242	1.62	correct	generate	Run3	generate/STIM_006.jpg
1891.23	0.993	correct	generate	Run3	generate/STIM_006.jpg
1894.245	1.849	incorrect	generate	Run3	generate/STIM_007.jpg
1898.311	0.868	incorrect	generate	Run3	generate/STIM_007.jpg
1902.446	1.98	correct	generate	Run3	generate/STIM_007.jpg
1908.21	1.178	correct	generate	Run3	generate/STIM_007.jpg
1911.947	1.974	correct	generate	Run3	generate/STIM_007.jpg
1916.599	1.54	correct	generate	Run3	generate/STIM_008.jpg
1921.769	1.812	correct	generate	Run3	generate/STIM_008.jpg
1926.291	0.944	correct	generate	Run3	generate/STIM_008.jpg
1929.641	1.536	correct	generate	Run3	generate/STIM_008.jpg
1933.807	2.05	correct	generate	Run3	generate/STIM_008.jpg
1939.03	2.248	correct	generate	Run3	generate/STIM_009.jpg
1944.276	1.227	correct	generate	Run3	generate/STIM_009.jpg
1948.939	2.026	correct	generate	Run3	generate/STIM_009.jpg
1953.908	1.656	correct	generate	Run3	generate/STIM_009.jpg
1959.379	1.61	correct	generate	Run3	generate/STIM_009.jpg
1963.292	1.33	correct	generate	Run3	generate/STIM_010.jpg
1967.365	1.982	correct	generate	Run3	generate/STIM_010.jpg
1971.498	1.734	correct	generate	Run3	generate/STIM_010.jpg
1975.704	1.507	correct	generate	Run3	generate/STIM_010.jpg
1980.287	1.278	correct	generate	Run3	generate/STIM_010.jpg
1983.656	1.552	correct	generate	Run3	generate/STIM_011.jpg
1987.934	1.573	correct	generate	Run3	generate/STIM_011.jpg
1992.038	1.877	correct	generate	Run3	generate/STIM_011.jpg
1997.609	1.734	correct	generate	Run3	generate/STIM_011.jpg
2001.989	1.211	correct	generate	Run3	generate/STIM_011.jpg
2005.762	1.733	correct	generate	Run3	generate/STIM_012.jpg
2010.58	2.12	correct	generate	Run3	generate/STIM_012.jpg
2016.153	2.268	correct	generate	Run3	generate/STIM_012.jpg
2020.897	1.413	correct	generate	Run3	generate/STIM_012.jpg
2025.086	1.471	correct	generate	Run3	generate/STIM_012.jpg
2029.896	1.946	correct	generate	Run3	generate/STIM_013.jpg
2035.106	1.443	correct	generate	Run3	generate/STIM_013.jpg
2039.323	2.423	correct	generate	Run3	generate/STIM_013.jpg
2044.01	1.207	correct	generate	Run3	generate/STIM_013.jpg
2048.273	1.727	correct	generate	Run3	generate/STIM_013.jpg
2053.365	1.494	correct	generate	Run3	generate/STIM_014.jpg
2056.801	1.144	correct	generate	Run3	generate/STIM_014.jpg
2061.27	1.08	correct	generate	Run3	generate/STIM_014.jpg
2065.025	1.574	correct	generate	Run3	generate/STIM_014.jpg
2069.553	2.314	correct	generate	Run3	generate/STIM_014.jpg
2075.265	1.794	correct	generate	Run3	generate/STIM_015.jpg
2080.923	1.504	incorrect	generate	Run3	generate/STIM_015.jpg
2084.869	2.358	correct	generate	Run3	generate/STIM_015.jpg
2090.51	1.507	correct	generate	Run3	generate/STIM_015.jpg
2095.009	0.979	correct	generate	Run3	generate/STIM_015.jpg
2099.444	2.061	correct	generate	Run3	generate/STIM_016.jpg
2103.982	2.162	correct	generate	Run3	generate/STIM_016.jpg
2108.188	1.024	correct	generate	Run3	generate/STIM_016.jpg
2111.637	2.015	correct	generate	Run3	generate/STIM_016.jpg
2115.601	1.767	correct	generate	Run3	generate/STIM_016.jpg
2120.142	1.11	correct	generate	Run3	generate/STIM_017.jpg
2124.297	2.07	correct	generate	Run3	generate/STIM_017.jpg
2129.902	2.106	correct	generate	Run3	generate/STIM_017.jpg
2134.43	1.734	correct	generate	Run3	generate/STIM_017.jpg
2139.516	1.863	correct	generate	Run3	generate/STIM_017.jpg
2143.723	1.692	correct	generate	Run3	generate/STIM_018.jpg
2147.919	1.958	correct	generate	Run3	generate/STIM_018.jpg
2153.534	1.759	correct	generate	Run3	generate/STIM_018.jpg
2158.82	1.062	correct	generate	Run3	generate/STIM_018.jpg
2162.071	2.173	correct	generate	Run3	generate/STIM_018.jpg
2166.249	1.348	correct	generate	Run3	generate/STIM_019.jpg
2169.841	1.79	correct	generate	Run3	generate/STIM_019.jpg
2173.705	1.516	correct	generate	Run3	generate/STIM_019.jpg
2178.002	2.161	correct	generate	Run3	generate/STIM_019.jpg
2183.585	2.108	correct	generate	Run3	generate/STIM_019.jpg
2189.047	1.546	correct	generate	Run3	generate/STIM_020.jpg
2192.498	1.231	correct	generate	Run3	generate/STIM_020.jpg
2197.355	1.965	correct	generate	Run3	generate/STIM_020.jpg
2202.787	1.914	correct	generate	Run3	generate/STIM_020.jpg
2208.437	1.171	correct	generate	Run3	generate/STIM_020.jpg
2213.101	2.251	correct	generate	Run3	generate/STIM_021.jpg
2219.031	1.748	correct	generate	Run3	generate/STIM_021.jpg
2223.951	2.182	correct	generate	Run3	generate/STIM_021.jpg
2229.534	1.299	correct	generate	Run3	generate/STIM_021.jpg
2232.977	1.979	correct	generate	Run3	generate/STIM_021.jpg
2237.688	2.051	correct	generate	Run3	generate/STIM_022.jpg
2242.261	1.832	correct	generate	Run3	generate/STIM_022.jpg
2246.069	1.692	correct	generate	Run3	generate/STIM_022.jpg
2250.269	1.315	correct	generate	Run3	generate/STIM_022.jpg
2253.989	2.183	correct	generate	Run3	generate/STIM_022.jpg
2259.205	2.116	correct	generate	Run3	generate/STIM_023.jpg
2263.107	1.472	correct	generate	Run3	generate/STIM_023.jpg
2267.544	1.929	correct	generate	Run3	generate/STIM_023.jpg
2272.264	2.054	correct	generate	Run3	generate/STIM_023.jpg
2276.799	1.007	correct	generate	Run3	generate/STIM_023.jpg
2280.259	1.055	correct	generate	Run3	generate/STIM_024.jpg
2284.381	1.721	incorrect	generate	Run3	generate/STIM_024.jpg
2289.325	1.248	correct	generate	Run3	generate/STIM_024.jpg
2293.743	1.044	correct	generate	Run3	generate/STIM_024.jpg
2298.113	1.739	correct	generate	Run3	generate/STIM_024.jpg
2303.333	0.928	correct	repeat	Run3	repeat/STIM_000.jpg
2307.706	1.015	correct	repeat	Run3	repeat/STIM_000.jpg
2312.167	0.775	correct	repeat	Run3	repeat/STIM_000.jpg
2315.699	0.768	correct	repeat	Run3	repeat/STIM_000.jpg
2319.987	1.044	correct	repeat	Run3	repeat/STIM_000.jpg
2323.857	0.607	correct	repeat	Run3	repeat/STIM_001.jpg
2327.739	1.126	correct	repeat	Run3	repeat/STIM_001.jpg
2331.902	0.811	correct	repeat	Run3	repeat/STIM_001.jpg
2334.823	0.572	correct	repeat	Run3	repeat/STIM_001.jpg
2339.144	0.901	correct	repeat	Run3	repeat/STIM_001.jpg
2343.157	1.025	correct	repeat	Run3	repeat/STIM_002.jpg
2347.523	0.6	correct	repeat	Run3	repeat/STIM_002.jpg
2350.982	0.71	correct	repeat	Run3	repeat/STIM_002.jpg
2355.492	0.533	correct	repeat	Run3	repeat/STIM_002.jpg
2359.024	0.778	correct	repeat	Run3	repeat/STIM_002.jpg
2363.32	0.793	correct	repeat	Run3	repeat/STIM_003.jpg
2367.805	0.93	correct	repeat	Run3	repeat/STIM_003.jpg
2371.539	0.815	correct	repeat	Run3	repeat/STIM_003.jpg
2374.262	0.837	correct	repeat	Run3	repeat/STIM_003.jpg
2378.695	0.445	correct	repeat	Run3	repeat/STIM_003.jpg
2381.641	0.86	correct	repeat	Run3	repeat/STIM_004.jpg
2385.996	0.677	correct	repeat	Run3	repeat/STIM_004.jpg
2389.92	0.908	correct	repeat	Run3	repeat/STIM_004.jpg
2392.81	0.645	correct	repeat	Run3	repeat/STIM_004.jpg
2395.581	0.82	correct	repeat	Run3	repeat/STIM_004.jpg
2399.879	0.947	correct	repeat	Run3	repeat/STIM_005.jpg
2403.162	0.824	correct	repeat	Run3	repeat/STIM_005.jpg
2406.259	0.686	correct	repeat	Run3	repeat/STIM_005.jpg
2409.686	0.61	correct	repeat	Run3	repeat/STIM_005.jpg
2414.156	0.799	correct	repeat	Run3	repeat/STIM_005.jpg
2417.939	0.964	correct	repeat	Run3	repeat/STIM_006.jpg
2422.281	0.706	correct	repeat	Run3	repeat/STIM_006.jpg
2425.99	0.873	correct	repeat	Run3	repeat/STIM_006.jpg
2430.247	0.926	correct	repeat	Run3	repeat/STIM_006.jpg
2434.676	0.655	correct	repeat	Run3	repeat/STIM_006.jpg
2438.52	0.56	correct	repeat	Run3	repeat/STIM_007.jpg
2442.233	0.822	correct	repeat	Run3	repeat/STIM_007.jpg
2445.39	0.872	correct	repeat	Run3	repeat/STIM_007.jpg
2448.498	0.936	correct	repeat	Run3	repeat/STIM_007.jpg
2451.525	1.007	correct	repeat	Run3	repeat/STIM_007.jpg
2455.299	1.189	correct	repeat	Run3	repeat/STIM_008.jpg
2459.387	0.61	correct	repeat	Run3	repeat/STIM_008.jpg
2462.49	0.597	correct	repeat	Run3	repeat/STIM_008.jpg
2465.98	0.686	correct	repeat	Run3	repeat/STIM_008.jpg
2470.169	1.085	correct	repeat	Run3	repeat/STIM_008.jpg
2473.874	0.656	correct	repeat	Run3	repeat/STIM_009.jpg
2478.344	0.988	correct	repeat	Run3	repeat/STIM_009.jpg
2482.425	0.594	correct	repeat	Run3	repeat/STIM_009.jpg
2485.594	0.673	incorrect	repeat	Run3	repeat/STIM_009.jpg
2488.298	0.971	correct	repeat	Run3	repeat/STIM_009.jpg
2492.132	0.996	correct	repeat	Run3	repeat/STIM_010.jpg
2496.626	1.05	correct	repeat	Run3	repeat/STIM_010.jpg
2499.763	1.067	correct	repeat	Run3	repeat/STIM_010.jpg
2504.61	0.848	correct	repeat	Run3	repeat/STIM_010.jpg
2508.15	1.184	correct	repeat	Run3	repeat/STIM_010.jpg
2511.239	0.664	correct	repeat	Run3	repeat/STIM_011.jpg
2515.685	1.024	correct	repeat	Run3	repeat/STIM_011.jpg
2519.311	0.653	correct	repeat	Run3	repeat/STIM_011.jpg
2522.166	0.939	correct	repeat	Run3	repeat/STIM_011.jpg
2526.185	0.987	correct	repeat	Run3	repeat/STIM_011.jpg
2529.357	0.992	correct	repeat	Run3	repeat/STIM_012.jpg
2533.448	1.028	correct	repeat	Run3	repeat/STIM_012.jpg
2536.77	0.885	correct	repeat	Run3	repeat/STIM_012.jpg
2539.879	0.942	correct	repeat	Run3	repeat/STIM_012.jpg
2543.969	0.633	correct	repeat	Run3	repeat/STIM_012.jpg
2547.958	0.943	correct	repeat	Run3	repeat/STIM_013.jpg
2552.23	0.844	correct	repeat	Run3	repeat/STIM_013.jpg
2556.28	0.767	correct	repeat	Run3	repeat/STIM_013.jpg
2560.931	0.837	correct	repeat	Run3	repeat/STIM_013.jpg
2564.732	0.884	correct	repeat	Run3	repeat/STIM_013.jpg
2568.847	0.622	correct	repeat	Run3	repeat/STIM_014.jpg
2571.713	0.858	correct	repeat	Run3	repeat/STIM_014.jpg
2575.879	1.034	correct	repeat	Run3	repeat/STIM_014.jpg
2579.831	1.028	correct	repeat	Run3	repeat/STIM_014.jpg
2584.0	0.601	correct	repeat	Run3	repeat/STIM_014.jpg
2587.832	2.3	correct	generate	Run4	generate/STIM_000.jpg
2593.709	2.175	correct	generate	Run4	generate/STIM_000.jpg
2598.816	2.139	correct	generate	Run4	generate/STIM_000.jpg
2604.408	1.813	correct	generate	Run4	generate/STIM_000.jpg
2609.373	2.379	correct	generate	Run4	generate/STIM_000.jpg
2613.69	1.207	correct	generate	Run4	generate/STIM_001.jpg
2617.037	1.908	correct	generate	Run4	generate/STIM_001.jpg
2621.213	2.161	correct	generate	Run4	generate/STIM_001.jpg
2626.43	1.336	correct	generate	Run4	generate/STIM_001.jpg
2630.37	2.024	correct	generate	Run4	generate/STIM_001.jpg
2634.37	2.397	correct	generate	Run4	generate/STIM_002.jpg
2638.754	1.384	correct	generate	Run4	generate/STIM_002.jpg
2643.444	2.038	correct	generate	Run4	generate/STIM_002.jpg
2648.585	2.07	correct	generate	Run4	generate/STIM_002.jpg
2653.577	1.498	correct	generate	Run4	generate/STIM_002.jpg
2657.584	1.434	correct	generate	Run4	generate/STIM_003.jpg
2662.357	1.857	correct	generate	Run4	generate/STIM_003.jpg
2666.992	2.162	correct	generate	Run4	generate/STIM_003.jpg
2672.621	1.114	correct	generate	Run4	generate/STIM_003.jpg
2676.423	1.373	correct	generate	Run4	generate/STIM_003.jpg
2679.74	1.187	correct	generate	Run4	generate/STIM_004.jpg
2683.723	1.593	correct	generate	Run4	generate/STIM_004.jpg
2687.534	1.784	correct	generate	Run4	generate/STIM_004.jpg
2692.689	1.531	correct	generate	Run4	generate/STIM_004.jpg
2697.896	1.005	correct	generate	Run4	generate/STIM_004.jpg
2702.756	1.694	correct	generate	Run4	generate/STIM_005.jpg
2707.377	1.647	correct	generate	Run4	generate/STIM_005.jpg
2712.733	1.915	correct	generate	Run4	generate/STIM_005.jpg
2717.042	1.819	correct	generate	Run4	generate/STIM_005.jpg
2721.993	1.464	correct	generate	Run4	generate/STIM_005.jpg
2725.376	1.504	incorrect	generate	Run4	generate/STIM_006.jpg
2728.924	2.28	incorrect	generate	Run4	generate/STIM_006.jpg
2734.371	1.229	correct	generate	Run4	generate/STIM_006.jpg
2738.48	1.213	correct	generate	Run4	generate/STIM_006.jpg
2743.222	1.057	correct	generate	Run4	generate/STIM_006.jpg
2746.424	1.809	correct	generate	Run4	generate/STIM_007.jpg
2751.227	1.293	correct	generate	Run4	generate/STIM_007.jpg
2755.314	1.328	correct	generate	Run4	generate/STIM_007.jpg
2760.534	1.924	correct	generate	Run4	generate/STIM_007.jpg
2765.199	1.242	correct	generate	Run4	generate/STIM_007.jpg
2768.374	2.122	correct	generate	Run4	generate/STIM_008.jpg
2773.608	1.549	correct	generate	Run4	generate/STIM_008.jpg
2778.295	1.604	correct	generate	Run4	generate/STIM_008.jpg
2783.101	1.025	correct	generate	Run4	generate/STIM_008.jpg
2787.115	1.475	correct	generate	Run4	generate/STIM_008.jpg
2791.53	2.255	correct	generate	Run4	generate/STIM_009.jpg
2797.5	2.218	correct	generate	Run4	generate/STIM_009.jpg
2802.479	2.172	correct	generate	Run4	generate/STIM_009.jpg
2807.55	1.325	correct	generate	Run4	generate/STIM_009.jpg
2810.953	1.98	correct	generate	Run4	generate/STIM_009.jpg
2816.282	2.123	correct	generate	Run4	generate/STIM_010.jpg
2822.21	1.138	correct	generate	Run4	generate/STIM_010.jpg
2825.739	1.889	correct	generate	Run4	generate/STIM_010.jpg
2829.981	1.452	correct	generate	Run4	generate/STIM_010.jpg
2833.857	1.868	correct	generate	Run4	generate/STIM_010.jpg
2837.979	1.384	correct	generate	Run4	generate/STIM_011.jpg
2842.468	1.536	correct	generate	Run4	generate/STIM_011.jpg
2846.306	1.1	correct	generate	Run4	generate/STIM_011.jpg
2849.316	1.728	correct	generate	Run4	generate/STIM_011.jpg
2854.716	2.076	correct	generate	Run4	generate/STIM_011.jpg
2859.34	1.728	correct	generate	Run4	generate/STIM_012.jpg
2864.571	1.092	correct	generate	Run4	generate/STIM_012.jpg
2868.992	1.383	correct	generate	Run4	generate/STIM_012.jpg
2872.69	1.367	correct	generate	Run4	generate/STIM_012.jpg
2876.972	1.402	correct	generate	Run4	generate/STIM_012.jpg
2881.762	2.226	correct	generate	Run4	generate/STIM_013.jpg
2886.003	2.137	correct	generate	Run4	generate/STIM_013.jpg
2890.597	1.704	correct	generate	Run4	generate/STIM_013.jpg
2895.503	1.4	correct	generate	Run4	generate/STIM_013.jpg
2900.275	1.656	correct	generate	Run4	generate/STIM_013.jpg
2904.451	2.114	correct	generate	Run4	generate/STIM_014.jpg
2909.7	1.335	correct	generate	Run4	generate/STIM_014.jpg
2914.059	1.694	correct	generate	Run4	generate/STIM_014.jpg
2917.844	1.664	correct	generate	Run4	generate/STIM_014.jpg
2922.011	2.386	correct	generate	Run4	generate/STIM_014.jpg
2927.731	1.306	correct	generate	Run4	generate/STIM_015.jpg
2932.621	2.226	correct	generate	Run4	generate/STIM_015.jpg
2938.033	1.008	correct	generate	Run4	generate/STIM_015.jpg
2942.34	1.484	correct	generate	Run4	generate/STIM_015.jpg
2946.054	0.966	correct	generate	Run4	generate/STIM_015.jpg
2949.601	2.06	correct	generate	Run4	generate/STIM_016.jpg
2954.623	1.302	correct	generate	Run4	generate/STIM_016.jpg
2959.514	1.167	correct	generate	Run4	generate/STIM_016.jpg
2962.876	2.113	correct	generate	Run4	generate/STIM_016.jpg
2967.764	2.176	correct	generate	Run4	generate/STIM_016.jpg
2973.023	0.913	correct	generate	Run4	generate/STIM_017.jpg
2976.49	1.516	correct	generate	Run4	generate/STIM_017.jpg
2980.017	1.347	correct	generate	Run4	generate/STIM_017.jpg
2983.937	2.06	correct	generate	Run4	generate/STIM_017.jpg
2989.007	1.442	correct	generate	Run4	generate/STIM_017.jpg
2994.014	1.162	correct	generate	Run4	generate/STIM_018.jpg
2997.097	0.98	correct	generate	Run4	generate/STIM_018.jpg
3001.305	1.457	correct	generate	Run4	generate/STIM_018.jpg
3005.912	2.338	correct	generate	Run4	generate/STIM_018.jpg
3011.158	1.91	correct	generate	Run4	generate/STIM_018.jpg
3015.811	1.663	correct	generate	Run4	generate/STIM_019.jpg
3020.76	1.737	correct	generate	Run4	generate/STIM_019.jpg
3024.776	2.294	correct	generate	Run4	generate/STIM_019.jpg
3028.846	1.962	correct	generate	Run4	generate/STIM_019.jpg
3032.716	1.926	correct	generate	Run4	generate/STIM_019.jpg
3038.344	1.782	correct	generate	Run4	generate/STIM_020.jpg
3043.199	1.937	correct	generate	Run4	generate/STIM_020.jpg
3046.962	1.194	correct	generate	Run4	generate/STIM_020.jpg
3051.619	1.888	correct	generate	Run4	generate/STIM_020.jpg
3056.003	1.913	correct	generate	Run4	generate/STIM_020.jpg
3060.02	1.867	correct	generate	Run4	generate/STIM_021.jpg
3065.236	1.617	correct	generate	Run4	generate/STIM_021.jpg
3070.16	1.836	correct	generate	Run4	generate/STIM_021.jpg
3074.011	2.013	correct	generate	Run4	generate/STIM_021.jpg
3078.818	1.66	correct	generate	Run4	generate/STIM_021.jpg
3082.503	1.488	correct	generate	Run4	generate/STIM_022.jpg
3087.197	2.285	incorrect	generate	Run4	generate/STIM_022.jpg
3093.034	1.423	correct	generate	Run4	generate/STIM_022.jpg
3097.287	1.402	correct	generate	Run4	generate/STIM_022.jpg
3101.526	1.154	correct	generate	Run4	generate/STIM_022.jpg
3104.529	2.367	correct	generate	Run4	generate/STIM_023.jpg
3110.308	1.093	correct	generate	Run4	generate/STIM_023.jpg
3114.977	2.382	correct	generate	Run4	generate/STIM_023.jpg
3119.278	2.218	correct	generate	Run4	generate/STIM_023.jpg
3123.862	1.084	correct	generate	Run4	generate/STIM_023.jpg
3128.736	1.676	correct	generate	Run4	generate/STIM_024.jpg
3134.257	2.134	correct	generate	Run4	generate/STIM_024.jpg
3139.452	2.019	correct	generate	Run4	generate/STIM_024.jpg
3143.667	1.747	correct	generate	Run4	generate/STIM_024.jpg
3148.456	1.071	correct	generate	Run4	generate/STIM_024.jpg
3152.825	0.806	correct	repeat	Run4	repeat/STIM_000.jpg
3157.369	0.953	correct	repeat	Run4	repeat/STIM_000.jpg
3162.192	0.882	correct	repeat	Run4	repeat/STIM_000.jpg
3165.887	0.662	correct	repeat	Run4	repeat/STIM_000.jpg
3169.019	0.717	correct	repeat	Run4	repeat/STIM_000.jpg
3172.767	0.985	correct	repeat	Run4	repeat/STIM_001.jpg
3177.475	1.119	correct	repeat	Run4	repeat/STIM_001.jpg
3182.236	0.728	correct	repeat	Run4	repeat/STIM_001.jpg
3186.611	0.808	correct	repeat	Run4	repeat/STIM_001.jpg
3190.815	1.057	correct	repeat	Run4	repeat/STIM_001.jpg
3193.951	0.698	correct	repeat	Run4	repeat/STIM_002.jpg
3198.562	0.692	incorrect	repeat	Run4	repeat/STIM_002.jpg
3201.767	0.575	correct	repeat	Run4	repeat/STIM_002.jpg
3206.074	0.66	correct	repeat	Run4	repeat/STIM_002.jpg
3209.157	0.916	correct	repeat	Run4	repeat/STIM_002.jpg
3212.772	1.13	correct	repeat	Run4	repeat/STIM_003.jpg
3216.35	0.474	correct	repeat	Run4	repeat/STIM_003.jpg
3220.753	0.994	correct	repeat	Run4	repeat/STIM_003.jpg
3225.33	0.735	correct	repeat	Run4	repeat/STIM_003.jpg
3228.897	0.505	correct	repeat	Run4	repeat/STIM_003.jpg
3232.518	0.931	correct	repeat	Run4	repeat/STIM_004.jpg
3236.822	0.571	correct	repeat	Run4	repeat/STIM_004.jpg
3239.547	0.83	correct	repeat	Run4	repeat/STIM_004.jpg
3244.222	1.103	correct	repeat	Run4	repeat/STIM_004.jpg
3248.95	0.53	correct	repeat	Run4	repeat/STIM_004.jpg
3251.795	0.985	correct	repeat	Run4	repeat/STIM_005.jpg
3255.648	1.235	correct	repeat	Run4	repeat/STIM_005.jpg
3258.715	0.652	correct	repeat	Run4	repeat/STIM_005.jpg
3261.373	1.003	correct	repeat	Run4	repeat/STIM_005.jpg
3266.136	1.137	correct	repeat	Run4	repeat/STIM_005.jpg
3269.527	0.765	correct	repeat	Run4	repeat/STIM_006.jpg
3274.161	0.91	correct	repeat	Run4	repeat/STIM_006.jpg
3278.849	0.755	correct	repeat	Run4	repeat/STIM_006.jpg
3282.144	0.765	correct	repeat	Run4	repeat/STIM_006.jpg
3286.678	0.964	incorrect	repeat	Run4	repeat/STIM_006.jpg
3290.205	1.073	incorrect	repeat	Run4	repeat/STIM_007.jpg
3293.779	0.684	correct	repeat	Run4	repeat/STIM_007.jpg
3297.371	1.052	correct	repeat	Run4	repeat/STIM_007.jpg
3301.412	0.964	correct	repeat	Run4	repeat/STIM_007.jpg
3304.928	0.993	correct	repeat	Run4	repeat/STIM_007.jpg
3309.729	0.942	correct	repeat	Run4	repeat/STIM_008.jpg
3313.056	1.093	correct	repeat	Run4	repeat/STIM_008.jpg
3317.064	0.957	correct	repeat	Run4	repeat/STIM_008.jpg
3319.977	0.963	correct	repeat	Run4	repeat/STIM_008.jpg
3323.009	0.843	correct	repeat	Run4	repeat/STIM_008.jpg
3327.422	1.089	correct	repeat	Run4	repeat/STIM_009.jpg
3331.087	0.975	correct	repeat	Run4	repeat/STIM_009.jpg
3334.756	0.938	correct	repeat	Run4	repeat/STIM_009.jpg
3339.401	1.1	correct	repeat	Run4	repeat/STIM_009.jpg
3342.642	0.838	correct	repeat	Run4	repeat/STIM_009.jpg
3346.449	0.994	correct	repeat	Run4	repeat/STIM_010.jpg
3349.429	1.142	correct	repeat	Run4	repeat/STIM_010.jpg
3353.06	0.922	correct	repeat	Run4	repeat/STIM_010.jpg
3356.346	0.915	correct	repeat	Run4	repeat/STIM_010.jpg
3360.514	0.903	correct	repeat	Run4	repeat/STIM_010.jpg
3364.832	0.533	correct	repeat	Run4	repeat/STIM_011.jpg
3368.345	1.053	correct	repeat	Run4	repeat/STIM_011.jpg
3372.067	0.731	correct	repeat	Run4	repeat/STIM_011.jpg
3375.811	1.06	correct	repeat	Run4	repeat/STIM_011.jpg
3379.015	0.882	correct	repeat	Run4	repeat/STIM_011.jpg
3382.851	1.099	correct	repeat	Run4	repeat/STIM_012.jpg
3387.423	1.092	incorrect	repeat	Run4	repeat/STIM_012.jpg
3392.116	0.817	correct	repeat	Run4	repeat/STIM_012.jpg
3395.517	0.612	correct	repeat	Run4	repeat/STIM_012.jpg
3398.396	0.789	correct	repeat	Run4	repeat/STIM_012.jpg
3402.449	0.884	correct	repeat	Run4	repeat/STIM_013.jpg
3405.71	1.107	correct	repeat	Run4	repeat/STIM_013.jpg
3409.615	0.648	correct	repeat	Run4	repeat/STIM_013.jpg
3413.068	0.736	correct	repeat	Run4	repeat/STIM_013.jpg
3416.556	0.797	correct	repeat	Run4	repeat/STIM_013.jpg
3419.381	0.946	correct	repeat	Run4	repeat/STIM_014.jpg
3423.383	0.915	correct	repeat	Run4	repeat/STIM_014.jpg
3426.556	1.031	correct	repeat	Run4	repeat/STIM_014.jpg
3429.891	0.943	correct	repeat	Run4	repeat/STIM_014.jpg
3434.254	0.642	correct	repeat	Run4	repeat/STIM_014.jpg
