onset	duration	response_time_ms	trial_type	learning_stage	stimulus	response_port
0.0	3.299	3299.4	generate	Run1	generate/STIM_000.jpg	100
6.17	2.891	2890.8	generate	Run1	generate/STIM_000.jpg	99
12.542	1.605	1604.9	generate	Run1	generate/STIM_000.jpg	99
17.399	1.306	1305.9	generate	Run1	generate/STIM_000.jpg	99
22.166	2.811	2810.7	generate	Run1	generate/STIM_000.jpg	99
27.544	1.572	1571.8	generate	Run1	generate/STIM_001.jpg	99
33.073	2.521	2520.6	generate	Run1	generate/STIM_001.jpg	100
38.073	1.558	1557.6	generate	Run1	generate/STIM_001.jpg	99
42.65	2.59	2589.5	generate	Run1	generate/STIM_001.jpg	99
48.68	1.402	1402.1	generate	Run1	generate/STIM_001.jpg	100
52.459	2.261	2261.1	generate	Run1	generate/STIM_002.jpg	100
57.504	2.175	2174.8	generate	Run1	generate/STIM_002.jpg	100
61.957	1.992	1992.5	generate	Run1	generate/STIM_002.jpg	99
66.175	2.242	2241.5	generate	Run1	generate/STIM_002.jpg	99
70.686	2.604	2603.8	generate	Run1	generate/STIM_002.jpg	99
75.746	2.383	2383.0	generate	Run1	generate/STIM_003.jpg	99
80.542	1.556	1555.6	generate	Run1	generate/STIM_003.jpg	100
84.925	2.906	2906.3	generate	Run1	generate/STIM_003.jpg	99
91.515	1.547	1547.2	generate	Run1	generate/STIM_003.jpg	100
96.484	1.4	1399.5	generate	Run1	generate/STIM_003.jpg	100
101.421	2.659	2659.2	generate	Run1	generate/STIM_004.jpg	99
106.626	2.507	2507.2	generate	Run1	generate/STIM_004.jpg	100
111.182	2.283	2283.2	generate	Run1	generate/STIM_004.jpg	100
117.149	2.997	2997.0	generate	Run1	generate/STIM_004.jpg	99
122.416	1.761	1760.8	generate	Run1	generate/STIM_004.jpg	99
127.692	2.236	2235.6	generate	Run1	generate/STIM_005.jpg	100
133.457	3.44	3440.3	generate	Run1	generate/STIM_005.jpg	100
140.264	2.48	2479.5	generate	Run1	generate/STIM_005.jpg	100
146.383	1.272	1272.4	generate	Run1	generate/STIM_005.jpg	100
150.609	2.666	2665.8	generate	Run1	generate/STIM_005.jpg	99
157.069	3.458	3457.8	generate	Run1	generate/STIM_006.jpg	99
162.567	3.302	3302.4	generate	Run1	generate/STIM_006.jpg	100
169.67	1.561	1560.8	generate	Run1	generate/STIM_006.jpg	99
174.273	1.586	1586.3	generate	Run1	generate/STIM_006.jpg	99
179.135	2.435	2435.3	generate	Run1	generate/STIM_006.jpg	99
183.972	2.165	2165.0	generate	Run1	generate/STIM_007.jpg	100
189.842	2.724	2724.1	generate	Run1	generate/STIM_007.jpg	99
194.754	2.16	2159.6	generate	Run1	generate/STIM_007.jpg	99
200.532	2.216	2215.6	generate	Run1	generate/STIM_007.jpg	100
206.201	2.547	2546.8	generate	Run1	generate/STIM_007.jpg	99
211.657	1.732	1731.9	generate	Run1	generate/STIM_008.jpg	100
217.211	2.119	2118.9	generate	Run1	generate/STIM_008.jpg	99
221.979	3.035	3034.9	generate	Run1	generate/STIM_008.jpg	99
228.457	1.977	1976.7	generate	Run1	generate/STIM_008.jpg	99
234.394	2.206	2205.5	generate	Run1	generate/STIM_008.jpg	100
239.872	3.243	3243.0	generate	Run1	generate/STIM_009.jpg	100
246.143	1.675	1674.7	generate	Run1	generate/STIM_009.jpg	100
250.511	1.707	1707.0	generate	Run1	generate/STIM_009.jpg	99
256.017	2.328	2328.3	generate	Run1	generate/STIM_009.jpg	99
261.756	2.259	2259.2	generate	Run1	generate/STIM_009.jpg	99
267.488	3.074	3073.5	generate	Run1	generate/STIM_010.jpg	100
274.169	2.015	2015.5	generate	Run1	generate/STIM_010.jpg	100
278.728	2.725	2724.8	generate	Run1	generate/STIM_010.jpg	99
285.342	3.037	3037.3	generate	Run1	generate/STIM_010.jpg	99
292.366	2.206	2205.7	generate	Run1	generate/STIM_010.jpg	99
298.51	1.981	1980.6	generate	Run1	generate/STIM_011.jpg	100
303.381	1.682	1682.5	generate	Run1	generate/STIM_011.jpg	100
308.348	2.982	2982.0	generate	Run1	generate/STIM_011.jpg	99
313.96	1.802	1802.5	generate	Run1	generate/STIM_011.jpg	100
318.997	1.82	1820.2	generate	Run1	generate/STIM_011.jpg	99
323.787	3.555	3554.8	generate	Run1	generate/STIM_012.jpg	100
329.895	2.013	2012.8	generate	Run1	generate/STIM_012.jpg	100
335.733	2.121	2121.1	generate	Run1	generate/STIM_012.jpg	100
341.188	2.467	2466.7	generate	Run1	generate/STIM_012.jpg	99
347.016	2.827	2827.3	generate	Run1	generate/STIM_012.jpg	99
353.782	2.466	2466.4	generate	Run1	generate/STIM_013.jpg	99
360.223	2.649	2648.8	generate	Run1	generate/STIM_013.jpg	100
366.629	2.509	2509.3	generate	Run1	generate/STIM_013.jpg	100
371.362	1.615	1615.1	generate	Run1	generate/STIM_013.jpg	99
376.54	1.313	1312.8	generate	Run1	generate/STIM_013.jpg	100
380.978	3.477	3477.4	generate	Run1	generate/STIM_014.jpg	100
387.692	2.961	2961.4	generate	Run1	generate/STIM_014.jpg	99
393.985	2.907	2906.8	generate	Run1	generate/STIM_014.jpg	99
399.312	2.277	2277.4	generate	Run1	generate/STIM_014.jpg	100
404.985	1.683	1682.8	generate	Run1	generate/STIM_014.jpg	100
409.836	2.476	2475.5	generate	Run1	generate/STIM_015.jpg	99
415.149	2.435	2435.3	generate	Run1	generate/STIM_015.jpg	100
420.434	3.08	3079.9	generate	Run1	generate/STIM_015.jpg	99
426.875	2.235	2234.9	generate	Run1	generate/STIM_015.jpg	100
431.275	2.844	2843.9	generate	Run1	generate/STIM_015.jpg	100
436.61	2.816	2816.1	generate	Run1	generate/STIM_016.jpg	99
442.754	1.716	1716.3	generate	Run1	generate/STIM_016.jpg	100
447.317	2.013	2013.0	generate	Run1	generate/STIM_016.jpg	100
452.255	2.082	2081.9	generate	Run1	generate/STIM_016.jpg	99
457.671	1.884	1884.5	generate	Run1	generate/STIM_016.jpg	99
463.55	2.612	2611.5	generate	Run1	generate/STIM_017.jpg	100
468.542	2.112	2112.3	generate	Run1	generate/STIM_017.jpg	99
472.893	1.313	1313.1	generate	Run1	generate/STIM_017.jpg	99
476.824	1.753	1752.9	generate	Run1	generate/STIM_017.jpg	100
482.218	2.691	2691.1	generate	Run1	generate/STIM_017.jpg	99
488.1	2.679	2679.3	generate	Run1	generate/STIM_018.jpg	99
493.672	1.601	1600.9	generate	Run1	generate/STIM_018.jpg	100
498.749	2.812	2812.3	generate	Run1	generate/STIM_018.jpg	99
504.317	1.507	1507.3	generate	Run1	generate/STIM_018.jpg	100
509.672	2.024	2024.0	generate	Run1	generate/STIM_018.jpg	100
514.181	3.228	3228.5	generate	Run1	generate/STIM_019.jpg	99
519.924	2.872	2872.0	generate	Run1	generate/STIM_019.jpg	100
525.757	2.277	2277.1	generate	Run1	generate/STIM_019.jpg	99
531.677	1.682	1681.8	generate	Run1	generate/STIM_019.jpg	99
535.788	2.391	2391.2	generate	Run1	generate/STIM_019.jpg	99
541.945	2.067	2066.8	generate	Run1	generate/STIM_020.jpg	99
546.108	1.456	1455.6	generate	Run1	generate/STIM_020.jpg	99
550.952	1.553	1553.4	generate	Run1	generate/STIM_020.jpg	99
555.775	1.532	1531.6	generate	Run1	generate/STIM_020.jpg	100
559.905	1.619	1619.1	generate	Run1	generate/STIM_020.jpg	100
565.205	2.139	2138.7	generate	Run1	generate/STIM_021.jpg	100
569.913	2.193	2193.3	generate	Run1	generate/STIM_021.jpg	100
574.249	1.769	1769.3	generate	Run1	generate/STIM_021.jpg	100
579.536	2.142	2141.5	generate	Run1	generate/STIM_021.jpg	99
583.955	2.297	2296.7	generate	Run1	generate/STIM_021.jpg	99
590.175	3.244	3244.3	generate	Run1	generate/STIM_022.jpg	100
596.001	2.917	2916.7	generate	Run1	generate/STIM_022.jpg	100
601.579	3.234	3234.4	generate	Run1	generate/STIM_022.jpg	100
607.729	1.576	1575.8	generate	Run1	generate/STIM_022.jpg	99
612.172	2.773	2772.8	generate	Run1	generate/STIM_022.jpg	100
617.05	1.616	1616.5	generate	Run1	generate/STIM_023.jpg	99
621.366	2.006	2006.3	generate	Run1	generate/STIM_023.jpg	99
626.929	1.745	1745.3	generate	Run1	generate/STIM_023.jpg	99
630.976	2.791	2791.2	generate	Run1	generate/STIM_023.jpg	100
636.248	2.057	2056.6	generate	Run1	generate/STIM_023.jpg	99
642.213	3.606	3605.9	generate	Run1	generate/STIM_024.jpg	100
648.093	3.226	3226.5	generate	Run1	generate/STIM_024.jpg	100
654.279	1.742	1742.0	generate	Run1	generate/STIM_024.jpg	100
659.347	2.012	2011.8	generate	Run1	generate/STIM_024.jpg	99
665.128	1.605	1604.7	generate	Run1	generate/STIM_024.jpg	100
670.419	1.093	1092.7	repeat	Run1	repeat/STIM_000.jpg	100
673.879	0.922	921.8	repeat	Run1	repeat/STIM_000.jpg	100
677.661	0.822	822.3	repeat	Run1	repeat/STIM_000.jpg	100
680.9	1.071	1071.0	repeat	Run1	repeat/STIM_000.jpg	99
685.494	0.973	972.9	repeat	Run1	repeat/STIM_000.jpg	99
689.827	0.763	763.3	repeat	Run1	repeat/STIM_001.jpg	99
693.3	0.711	710.6	repeat	Run1	repeat/STIM_001.jpg	100
696.193	0.764	764.2	repeat	Run1	repeat/STIM_001.jpg	99
700.02	1.206	1206.2	repeat	Run1	repeat/STIM_001.jpg	99
705.067	0.966	966.5	repeat	Run1	repeat/STIM_001.jpg	99
709.505	1.044	1044.0	repeat	Run1	repeat/STIM_002.jpg	100
713.82	0.64	640.2	repeat	Run1	repeat/STIM_002.jpg	99
717.301	0.869	869.4	repeat	Run1	repeat/STIM_002.jpg	99
721.915	0.765	764.8	repeat	Run1	repeat/STIM_002.jpg	99
726.432	0.806	806.0	repeat	Run1	repeat/STIM_002.jpg	100
729.827	1.142	1141.6	repeat	Run1	repeat/STIM_003.jpg	99
733.948	0.836	835.9	repeat	Run1	repeat/STIM_003.jpg	100
738.677	0.808	808.5	repeat	Run1	repeat/STIM_003.jpg	100
742.51	0.633	632.7	repeat	Run1	repeat/STIM_003.jpg	100
746.497	0.765	764.7	repeat	Run1	repeat/STIM_003.jpg	99
750.139	1.094	1093.9	repeat	Run1	repeat/STIM_004.jpg	100
755.22	0.753	753.2	repeat	Run1	repeat/STIM_004.jpg	100
759.701	0.88	880.3	repeat	Run1	repeat/STIM_004.jpg	99
763.772	1.014	1013.9	repeat	Run1	repeat/STIM_004.jpg	99
768.505	0.993	993.3	repeat	Run1	repeat/STIM_004.jpg	100
772.185	0.949	948.6	repeat	Run1	repeat/STIM_005.jpg	100
776.542	0.738	737.8	repeat	Run1	repeat/STIM_005.jpg	100
781.228	0.85	850.0	repeat	Run1	repeat/STIM_005.jpg	99
785.609	1.19	1190.2	repeat	Run1	repeat/STIM_005.jpg	100
789.6	1.077	1077.2	repeat	Run1	repeat/STIM_005.jpg	99
794.6	0.708	707.7	repeat	Run1	repeat/STIM_006.jpg	99
798.723	1.028	1028.0	repeat	Run1	repeat/STIM_006.jpg	100
801.752	1.17	1169.8	repeat	Run1	repeat/STIM_006.jpg	100
806.114	0.854	854.3	repeat	Run1	repeat/STIM_006.jpg	99
809.662	0.844	843.8	repeat	Run1	repeat/STIM_006.jpg	100
813.329	1.082	1081.5	repeat	Run1	repeat/STIM_007.jpg	100
817.096	0.962	962.5	repeat	Run1	repeat/STIM_007.jpg	99
820.202	0.994	993.6	repeat	Run1	repeat/STIM_007.jpg	99
824.664	0.699	699.3	repeat	Run1	repeat/STIM_007.jpg	99
828.159	1.157	1157.3	repeat	Run1	repeat/STIM_007.jpg	100
832.782	1.187	1186.6	repeat	Run1	repeat/STIM_008.jpg	100
837.666	1.071	1070.9	repeat	Run1	repeat/STIM_008.jpg	100
841.973	1.047	1047.4	repeat	Run1	repeat/STIM_008.jpg	100
846.395	0.805	805.1	repeat	Run1	repeat/STIM_008.jpg	100
849.989	1.122	1122.4	repeat	Run1	repeat/STIM_008.jpg	100
853.374	1.143	1143.4	repeat	Run1	repeat/STIM_009.jpg	100
857.716	0.65	650.2	repeat	Run1	repeat/STIM_009.jpg	99
860.53	0.925	924.6	repeat	Run1	repeat/STIM_009.jpg	100
864.849	1.1	1100.2	repeat	Run1	repeat/STIM_009.jpg	100
868.379	1.161	1160.9	repeat	Run1	repeat/STIM_009.jpg	99
872.978	1.034	1034.1	repeat	Run1	repeat/STIM_010.jpg	100
876.113	0.692	691.9	repeat	Run1	repeat/STIM_010.jpg	99
879.927	0.826	825.7	repeat	Run1	repeat/STIM_010.jpg	100
883.552	1.204	1203.6	repeat	Run1	repeat/STIM_010.jpg	99
888.092	0.622	621.8	repeat	Run1	repeat/STIM_010.jpg	100
892.202	1.02	1019.7	repeat	Run1	repeat/STIM_011.jpg	99
895.821	0.709	709.0	repeat	Run1	repeat/STIM_011.jpg	99
900.392	1.15	1150.3	repeat	Run1	repeat/STIM_011.jpg	100
903.894	0.928	928.5	repeat	Run1	repeat/STIM_011.jpg	100
907.66	1.14	1140.5	repeat	Run1	repeat/STIM_011.jpg	100
910.862	0.688	687.8	repeat	Run1	repeat/STIM_012.jpg	100
914.881	0.944	943.7	repeat	Run1	repeat/STIM_012.jpg	99
919.823	1.037	1037.2	repeat	Run1	repeat/STIM_012.jpg	100
924.757	1.103	1103.2	repeat	Run1	repeat/STIM_012.jpg	99
929.051	0.875	874.9	repeat	Run1	repeat/STIM_012.jpg	99
931.934	0.793	793.2	repeat	Run1	repeat/STIM_013.jpg	100
935.041	1.091	1090.6	repeat	Run1	repeat/STIM_013.jpg	99
940.095	0.916	916.2	repeat	Run1	repeat/STIM_013.jpg	100
944.142	1.063	1063.2	repeat	Run1	repeat/STIM_013.jpg	100
948.711	1.108	1107.8	repeat	Run1	repeat/STIM_013.jpg	100
952.334	0.624	623.9	repeat	Run1	repeat/STIM_014.jpg	99
955.522	0.953	953.4	repeat	Run1	repeat/STIM_014.jpg	99
958.934	0.954	953.8	repeat	Run1	repeat/STIM_014.jpg	100
963.389	1.199	1199.1	repeat	Run1	repeat/STIM_014.jpg	100
968.476	0.876	876.4	repeat	Run1	repeat/STIM_014.jpg	100
972.7	2.469	2468.8	generate	Run2	generate/STIM_000.jpg	99
977.454	1.301	1301.0	generate	Run2	generate/STIM_000.jpg	99
981.355	1.802	1801.7	generate	Run2	generate/STIM_000.jpg	100
986.139	1.242	1241.5	generate	Run2	generate/STIM_000.jpg	99
990.709	2.116	2115.6	generate	Run2	generate/STIM_000.jpg	100
995.563	2.135	2135.0	generate	Run2	generate/STIM_001.jpg	99
1000.845	1.297	1297.0	generate	Run2	generate/STIM_001.jpg	100
1004.687	1.475	1474.9	generate	Run2	generate/STIM_001.jpg	100
1008.678	1.754	1754.3	generate	Run2	generate/STIM_001.jpg	99
1013.199	2.48	2480.2	generate	Run2	generate/STIM_001.jpg	99
1018.143	2.514	2513.9	generate	Run2	generate/STIM_002.jpg	99
1023.769	2.563	2563.1	generate	Run2	generate/STIM_002.jpg	99
1029.301	1.967	1967.3	generate	Run2	generate/STIM_002.jpg	100
1033.557	1.266	1265.5	generate	Run2	generate/STIM_002.jpg	99
1038.814	2.468	2468.2	generate	Run2	generate/STIM_002.jpg	99
1045.093	3.085	3084.9	generate	Run2	generate/STIM_003.jpg	99
1051.512	2.259	2259.3	generate	Run2	generate/STIM_003.jpg	99
1056.003	2.572	2572.2	generate	Run2	generate/STIM_003.jpg	100
1061.699	1.919	1918.8	generate	Run2	generate/STIM_003.jpg	99
1066.93	2.419	2418.7	generate	Run2	generate/STIM_003.jpg	99
1073.277	1.64	1640.4	generate	Run2	generate/STIM_004.jpg	99
1077.415	1.526	1525.9	generate	Run2	generate/STIM_004.jpg	99
1082.89	1.55	1550.1	generate	Run2	generate/STIM_004.jpg	100
1088.004	1.683	1683.3	generate	Run2	generate/STIM_004.jpg	100
1091.826	1.974	1974.4	generate	Run2	generate/STIM_004.jpg	99
1096.675	3.003	3003.4	generate	Run2	generate/STIM_005.jpg	100
1102.527	2.061	2061.1	generate	Run2	generate/STIM_005.jpg	100
1108.524	1.178	1178.4	generate	Run2	generate/STIM_005.jpg	100
1112.679	1.698	1697.8	generate	Run2	generate/STIM_005.jpg	100
1117.068	2.1	2100.4	generate	Run2	generate/STIM_005.jpg	99
1122.349	1.596	1596.1	generate	Run2	generate/STIM_006.jpg	100
1127.6	2.787	2787.0	generate	Run2	generate/STIM_006.jpg	99
1133.102	1.292	1292.4	generate	Run2	generate/STIM_006.jpg	100
1137.739	2.497	2497.3	generate	Run2	generate/STIM_006.jpg	100
1142.863	1.365	1365.3	generate	Run2	generate/STIM_006.jpg	99
1147.974	2.89	2890.4	generate	Run2	generate/STIM_007.jpg	100
1154.453	1.453	1453.4	generate	Run2	generate/STIM_007.jpg	99
1158.24	1.176	1176.5	generate	Run2	generate/STIM_007.jpg	100
1162.263	1.222	1221.7	generate	Run2	generate/STIM_007.jpg	99
1166.01	2.034	2034.1	generate	Run2	generate/STIM_007.jpg	100
1171.009	1.278	1277.7	generate	Run2	generate/STIM_008.jpg	100
1174.52	1.604	1603.7	generate	Run2	generate/STIM_008.jpg	99
1179.059	1.386	1386.5	generate	Run2	generate/STIM_008.jpg	99
1182.617	2.163	2163.0	generate	Run2	generate/STIM_008.jpg	100
1188.357	2.012	2012.4	generate	Run2	generate/STIM_008.jpg	100
1193.063	2.89	2890.0	generate	Run2	generate/STIM_009.jpg	100
1198.919	2.651	2650.7	generate	Run2	generate/STIM_009.jpg	99
1204.177	2.436	2435.9	generate	Run2	generate/STIM_009.jpg	99
1209.562	1.035	1034.7	generate	Run2	generate/STIM_009.jpg	99
1213.354	1.231	1231.0	generate	Run2	generate/STIM_009.jpg	100
1216.699	2.789	2789.1	generate	Run2	generate/STIM_010.jpg	99
1223.274	2.38	2379.8	generate	Run2	generate/STIM_010.jpg	99
1229.543	1.654	1653.8	generate	Run2	generate/STIM_010.jpg	100
1233.642	2.538	2537.9	generate	Run2	generate/STIM_010.jpg	100
1238.296	1.964	1963.7	generate	Run2	generate/STIM_010.jpg	99
1243.892	2.43	2429.5	generate	Run2	generate/STIM_011.jpg	100
1250.219	1.318	1318.0	generate	Run2	generate/STIM_011.jpg	99
1255.358	2.122	2121.9	generate	Run2	generate/STIM_011.jpg	99
1260.617	1.549	1548.6	generate	Run2	generate/STIM_011.jpg	99
1265.053	2.508	2507.7	generate	Run2	generate/STIM_011.jpg	100
1269.836	1.76	1759.6	generate	Run2	generate/STIM_012.jpg	100
1273.754	1.664	1663.5	generate	Run2	generate/STIM_012.jpg	100
1279.405	1.78	1780.0	generate	Run2	generate/STIM_012.jpg	100
1284.729	1.954	1953.9	generate	Run2	generate/STIM_012.jpg	100
1290.486	2.535	2534.9	generate	Run2	generate/STIM_012.jpg	99
1295.568	1.537	1537.4	generate	Run2	generate/STIM_013.jpg	100
1299.728	2.893	2893.2	generate	Run2	generate/STIM_013.jpg	99
1305.552	1.606	1606.2	generate	Run2	generate/STIM_013.jpg	99
1309.174	1.326	1326.4	generate	Run2	generate/STIM_013.jpg	100
1314.122	2.472	2471.8	generate	Run2	generate/STIM_013.jpg	100
1319.746	2.587	2586.6	generate	Run2	generate/STIM_014.jpg	99
1325.95	1.643	1642.9	generate	Run2	generate/STIM_014.jpg	99
1330.801	2.704	2703.6	generate	Run2	generate/STIM_014.jpg	100
1335.794	1.399	1398.7	generate	Run2	generate/STIM_014.jpg	100
1339.261	2.457	2457.0	generate	Run2	generate/STIM_014.jpg	99
1344.928	1.346	1346.2	generate	Run2	generate/STIM_015.jpg	99
1349.362	1.537	1536.7	generate	Run2	generate/STIM_015.jpg	99
1353.916	2.562	2561.9	generate	Run2	generate/STIM_015.jpg	100
1359.726	1.377	1376.9	generate	Run2	generate/STIM_015.jpg	99
1363.584	1.342	1342.2	generate	Run2	generate/STIM_015.jpg	99
1367.791	1.805	1804.8	generate	Run2	generate/STIM_016.jpg	99
1372.135	2.3	2299.8	generate	Run2	generate/STIM_016.jpg	100
1377.218	2.158	2158.2	generate	Run2	generate/STIM_016.jpg	100
1381.551	1.898	1898.5	generate	Run2	generate/STIM_016.jpg	100
1386.958	1.071	1070.9	generate	Run2	generate/STIM_016.jpg	100
1390.537	3.022	3021.9	generate	Run2	generate/STIM_017.jpg	99
1396.482	1.429	1429.0	generate	Run2	generate/STIM_017.jpg	100
1400.32	1.139	1139.2	generate	Run2	generate/STIM_017.jpg	99
1404.635	1.853	1852.6	generate	Run2	generate/STIM_017.jpg	99
1410.005	2.102	2101.8	generate	Run2	generate/STIM_017.jpg	99
1415.298	1.987	1987.3	generate	Run2	generate/STIM_018.jpg	99
1421.221	2.448	2447.6	generate	Run2	generate/STIM_018.jpg	100
1427.488	2.645	2644.9	generate	Run2	generate/STIM_018.jpg	99
1433.525	1.997	1997.0	generate	Run2	generate/STIM_018.jpg	100
1438.435	1.462	1461.5	generate	Run2	generate/STIM_018.jpg	99
1443.518	2.081	2081.1	generate	Run2	generate/STIM_019.jpg	99
1448.476	2.15	2150.0	generate	Run2	generate/STIM_019.jpg	99
1453.145	2.62	2620.3	generate	Run2	generate/STIM_019.jpg	99
1459.67	2.237	2237.3	generate	Run2	generate/STIM_019.jpg	99
1464.498	1.6	1600.3	generate	Run2	generate/STIM_019.jpg	100
1468.275	2.557	2556.7	generate	Run2	generate/STIM_020.jpg	100
1474.509	1.392	1392.3	generate	Run2	generate/STIM_020.jpg	100
1479.155	2.679	2679.4	generate	Run2	generate/STIM_020.jpg	99
1483.856	2.401	2400.9	generate	Run2	generate/STIM_020.jpg	99
1489.948	1.926	1926.0	generate	Run2	generate/STIM_020.jpg	99
1494.399	2.708	2708.4	generate	Run2	generate/STIM_021.jpg	100
1500.467	2.468	2468.1	generate	Run2	generate/STIM_021.jpg	99
1506.567	2.108	2108.2	generate	Run2	generate/STIM_021.jpg	100
1512.599	1.475	1475.1	generate	Run2	generate/STIM_021.jpg	100
1517.905	1.695	1695.1	generate	Run2	generate/STIM_021.jpg	100
1522.124	2.382	2382.2	generate	Run2	generate/STIM_022.jpg	100
1527.984	2.114	2114.3	generate	Run2	generate/STIM_022.jpg	100
1532.144	1.928	1927.5	generate	Run2	generate/STIM_022.jpg	100
1537.355	1.584	1583.5	generate	Run2	generate/STIM_022.jpg	100
1542.275	2.276	2276.2	generate	Run2	generate/STIM_022.jpg	99
1547.386	2.955	2954.6	generate	Run2	generate/STIM_023.jpg	100
1552.822	1.516	1516.3	generate	Run2	generate/STIM_023.jpg	100
1556.999	2.702	2702.0	generate	Run2	generate/STIM_023.jpg	99
1561.871	1.637	1637.2	generate	Run2	generate/STIM_023.jpg	99
1565.689	2.197	2196.9	generate	Run2	generate/STIM_023.jpg	99
1571.822	2.876	2876.5	generate	Run2	generate/STIM_024.jpg	100
1576.973	2.558	2558.5	generate	Run2	generate/STIM_024.jpg	99
1581.772	2.695	2694.8	generate	Run2	generate/STIM_024.jpg	99
1587.917	2.058	2057.6	generate	Run2	generate/STIM_024.jpg	99
1592.557	2.518	2517.6	generate	Run2	generate/STIM_024.jpg	100
1597.822	0.736	735.5	repeat	Run2	repeat/STIM_000.jpg	100
1601.075	0.823	823.1	repeat	Run2	repeat/STIM_000.jpg	99
1605.086	1.153	1152.8	repeat	Run2	repeat/STIM_000.jpg	100
1610.155	0.98	980.3	repeat	Run2	repeat/STIM_000.jpg	99
1614.9	0.859	858.9	repeat	Run2	repeat/STIM_000.jpg	100
1619.614	0.707	706.9	repeat	Run2	repeat/STIM_001.jpg	100
1623.211	0.8	800.3	repeat	Run2	repeat/STIM_001.jpg	100
1627.962	0.765	764.6	repeat	Run2	repeat/STIM_001.jpg	99
1630.983	1.076	1076.5	repeat	Run2	repeat/STIM_001.jpg	99
1635.1	1.158	1157.9	repeat	Run2	repeat/STIM_001.jpg	100
1639.488	0.879	879.4	repeat	Run2	repeat/STIM_002.jpg	100
1642.73	0.763	762.9	repeat	Run2	repeat/STIM_002.jpg	99
1646.732	0.73	729.8	repeat	Run2	repeat/STIM_002.jpg	100
1649.873	0.666	665.9	repeat	Run2	repeat/STIM_002.jpg	99
1652.97	1.054	1053.8	repeat	Run2	repeat/STIM_002.jpg	100
1656.882	0.739	739.0	repeat	Run2	repeat/STIM_003.jpg	100
1660.009	0.871	871.3	repeat	Run2	repeat/STIM_003.jpg	99
1663.545	0.772	771.8	repeat	Run2	repeat/STIM_003.jpg	100
1667.504	0.645	645.1	repeat	Run2	repeat/STIM_003.jpg	100
1670.25	0.647	646.9	repeat	Run2	repeat/STIM_003.jpg	100
1673.095	1.095	1094.6	repeat	Run2	repeat/STIM_004.jpg	99
1677.89	0.743	742.8	repeat	Run2	repeat/STIM_004.jpg	99
1682.309	1.211	1210.6	repeat	Run2	repeat/STIM_004.jpg	99
1687.317	0.953	952.6	repeat	Run2	repeat/STIM_004.jpg	100
1691.386	0.825	824.7	repeat	Run2	repeat/STIM_004.jpg	100
1694.583	1.105	1105.1	repeat	Run2	repeat/STIM_005.jpg	100
1699.601	0.775	775.3	repeat	Run2	repeat/STIM_005.jpg	100
1702.422	0.89	889.5	repeat	Run2	repeat/STIM_005.jpg	99
1705.606	0.826	826.0	repeat	Run2	repeat/STIM_005.jpg	99
1709.375	0.691	690.8	repeat	Run2	repeat/STIM_005.jpg	99
1712.791	0.954	954.0	repeat	Run2	repeat/STIM_006.jpg	100
1717.3	0.833	832.7	repeat	Run2	repeat/STIM_006.jpg	100
1720.814	1.169	1169.2	repeat	Run2	repeat/STIM_006.jpg	100
1725.643	0.696	695.5	repeat	Run2	repeat/STIM_006.jpg	99
1729.502	0.907	907.4	repeat	Run2	repeat/STIM_006.jpg	99
1733.228	0.941	941.2	repeat	Run2	repeat/STIM_007.jpg	100
1737.063	0.873	873.2	repeat	Run2	repeat/STIM_007.jpg	99
1739.988	0.972	971.7	repeat	Run2	repeat/STIM_007.jpg	99
1743.082	0.633	632.6	repeat	Run2	repeat/STIM_007.jpg	100
1745.81	0.757	757.1	repeat	Run2	repeat/STIM_007.jpg	99
1749.242	1.011	1010.7	repeat	Run2	repeat/STIM_008.jpg	99
1754.232	0.784	783.5	repeat	Run2	repeat/STIM_008.jpg	99
1757.077	0.639	639.2	repeat	Run2	repeat/STIM_008.jpg	100
1761.535	0.943	943.1	repeat	Run2	repeat/STIM_008.jpg	99
1766.224	0.644	643.7	repeat	Run2	repeat/STIM_008.jpg	99
1770.518	1.129	1128.7	repeat	Run2	repeat/STIM_009.jpg	99
1773.727	1.037	1036.6	repeat	Run2	repeat/STIM_009.jpg	99
1777.038	1.049	1049.3	repeat	Run2	repeat/STIM_009.jpg	100
1781.333	0.701	700.7	repeat	Run2	repeat/STIM_009.jpg	100
1785.378	0.625	625.0	repeat	Run2	repeat/STIM_009.jpg	100
1788.52	1.113	1113.1	repeat	Run2	repeat/STIM_010.jpg	99
1792.095	0.97	970.1	repeat	Run2	repeat/STIM_010.jpg	100
1795.297	0.868	867.5	repeat	Run2	repeat/STIM_010.jpg	99
1799.998	1.029	1028.8	repeat	Run2	repeat/STIM_010.jpg	100
1804.474	1.143	1143.2	repeat	Run2	repeat/STIM_010.jpg	99
1807.879	0.857	857.3	repeat	Run2	repeat/STIM_011.jpg	100
1811.824	0.62	620.2	repeat	Run2	repeat/STIM_011.jpg	99
1816.026	1.054	1054.0	repeat	Run2	repeat/STIM_011.jpg	100
1820.775	0.836	836.0	repeat	Run2	repeat/STIM_011.jpg	99
1824.956	1.108	1107.8	repeat	Run2	repeat/STIM_011.jpg	99
1828.124	1.037	1036.7	repeat	Run2	repeat/STIM_012.jpg	99
1832.66	0.819	819.0	repeat	Run2	repeat/STIM_012.jpg	99
1836.261	0.66	660.2	repeat	Run2	repeat/STIM_012.jpg	99
1840.534	0.706	706.4	repeat	Run2	repeat/STIM_012.jpg	99
1844.517	1.076	1075.7	repeat	Run2	repeat/STIM_012.jpg	99
1848.485	0.848	848.3	repeat	Run2	repeat/STIM_013.jpg	100
1851.455	0.926	926.2	repeat	Run2	repeat/STIM_013.jpg	99
1855.505	0.819	819.1	repeat	Run2	repeat/STIM_013.jpg	100
1859.481	0.779	779.0	repeat	Run2	repeat/STIM_013.jpg	100
1862.422	0.967	967.0	repeat	Run2	repeat/STIM_013.jpg	100
1866.24	1.01	1010.5	repeat	Run2	repeat/STIM_014.jpg	99
1869.724	0.793	793.2	repeat	Run2	repeat/STIM_014.jpg	99
1872.764	0.837	836.9	repeat	Run2	repeat/STIM_014.jpg	99
1876.147	0.689	688.7	repeat	Run2	repeat/STIM_014.jpg	100
1879.549	0.644	643.9	repeat	Run2	repeat/STIM_014.jpg	99
1883.604	2.143	2142.8	generate	Run3	generate/STIM_000.jpg	100
1889.391	1.722	1721.7	generate	Run3	generate/STIM_000.jpg	100
1895.065	2.359	2358.8	generate	Run3	generate/STIM_000.jpg	99
1901.037	1.857	1856.6	generate	Run3	generate/STIM_000.jpg	100
1905.823	1.403	1402.9	generate	Run3	generate/STIM_000.jpg	100
1909.324	1.457	1457.1	generate	Run3	generate/STIM_001.jpg	100
1914.074	1.988	1988.1	generate	Run3	generate/STIM_001.jpg	99
1918.439	2.214	2214.4	generate	Run3	generate/STIM_001.jpg	99
1922.664	2.071	2071.0	generate	Run3	generate/STIM_001.jpg	100
1926.981	2.447	2446.6	generate	Run3	generate/STIM_001.jpg	100
1932.582	1.412	1412.3	generate	Run3	generate/STIM_002.jpg	99
1936.194	1.144	1144.0	generate	Run3	generate/STIM_002.jpg	99
1939.64	2.478	2478.4	generate	Run3	generate/STIM_002.jpg	100
1945.527	1.832	1831.5	generate	Run3	generate/STIM_002.jpg	99
1950.003	1.844	1844.5	generate	Run3	generate/STIM_002.jpg	100
1954.334	1.369	1368.8	generate	Run3	generate/STIM_003.jpg	100
1959.124	1.922	1922.2	generate	Run3	generate/STIM_003.jpg	99
1964.556	1.533	1532.7	generate	Run3	generate/STIM_003.jpg	100
1968.433	2.326	2325.6	generate	Run3	generate/STIM_003.jpg	100
1974.283	1.52	1520.2	generate	Run3	generate/STIM_003.jpg	100
1978.745	1.773	1773.1	generate	Run3	generate/STIM_004.jpg	100
1983.094	1.434	1433.8	generate	Run3	generate/STIM_004.jpg	99
1988.344	1.27	1270.0	generate	Run3	generate/STIM_004.jpg	99
1993.291	1.357	1356.9	generate	Run3	generate/STIM_004.jpg	99
1996.813	2.2	2200.4	generate	Run3	generate/STIM_004.jpg	100
2002.921	1.441	1440.7	generate	Run3	generate/STIM_005.jpg	100
2007.136	1.812	1812.2	generate	Run3	generate/STIM_005.jpg	99
2012.09	1.337	1337.4	generate	Run3	generate/STIM_005.jpg	100
2017.064	1.335	1335.4	generate	Run3	generate/STIM_005.jpg	100
2021.97	2.003	2003.1	generate	Run3	generate/STIM_005.jpg	100
2026.604	1.251	1250.8	generate	Run3	generate/STIM_006.jpg	100
2030.598	2.31	2310.4	generate	Run3	generate/STIM_006.jpg	100
2036.593	2.52	2520.5	generate	Run3	generate/STIM_006.jpg	99
2041.745	2.308	2308.1	generate	Run3	generate/STIM_006.jpg	100
2047.381	2.449	2449.4	generate	Run3	generate/STIM_006.jpg	100
2051.841	1.82	1819.9	generate	Run3	generate/STIM_007.jpg	100
2056.814	2.393	2393.1	generate	Run3	generate/STIM_007.jpg	100
2062.201	2.314	2314.5	generate	Run3	generate/STIM_007.jpg	100
2066.79	1.413	1412.7	generate	Run3	generate/STIM_007.jpg	99
2071.436	2.301	2300.7	generate	Run3	generate/STIM_007.jpg	100
2077.602	2.514	2513.5	generate	Run3	generate/STIM_008.jpg	100
2082.871	2.355	2355.3	generate	Run3	generate/STIM_008.jpg	99
2088.364	1.274	1274.4	generate	Run3	generate/STIM_008.jpg	100
2092.087	1.34	1339.9	generate	Run3	generate/STIM_008.jpg	100
2097.18	1.035	1034.7	generate	Run3	generate/STIM_008.jpg	100
2100.228	2.318	2318.4	generate	Run3	generate/STIM_009.jpg	99
2104.807	1.626	1625.6	generate	Run3	generate/STIM_009.jpg	100
2108.945	1.999	1998.6	generate	Run3	generate/STIM_009.jpg	99
2113.576	2.498	2498.5	generate	Run3	generate/STIM_009.jpg	100
2118.437	2.167	2166.8	generate	Run3	generate/STIM_009.jpg	100
2122.709	2.437	2437.4	generate	Run3	generate/STIM_010.jpg	100
2128.423	1.176	1175.6	generate	Run3	generate/STIM_010.jpg	99
2131.627	2.087	2087.0	generate	Run3	generate/STIM_010.jpg	99
2137.355	2.009	2009.1	generate	Run3	generate/STIM_010.jpg	99
2142.358	1.336	1336.1	generate	Run3	generate/STIM_010.jpg	99
2147.461	1.557	1556.6	generate	Run3	generate/STIM_011.jpg	99
2151.398	2.478	2478.0	generate	Run3	generate/STIM_011.jpg	99
2157.084	1.019	1018.9	generate	Run3	generate/STIM_011.jpg	99
2161.106	1.824	1824.0	generate	Run3	generate/STIM_011.jpg	99
2166.805	1.794	1793.9	generate	Run3	generate/STIM_011.jpg	100
2170.758	2.406	2406.3	generate	Run3	generate/STIM_012.jpg	100
2175.971	2.45	2449.9	generate	Run3	generate/STIM_012.jpg	99
2181.446	1.51	1509.6	generate	Run3	generate/STIM_012.jpg	100
2186.387	2.29	2290.3	generate	Run3	generate/STIM_012.jpg	99
2192.5	1.89	1889.9	generate	Run3	generate/STIM_012.jpg	99
2197.557	1.863	1862.8	generate	Run3	generate/STIM_013.jpg	99
2202.795	2.273	2273.3	generate	Run3	generate/STIM_013.jpg	99
2208.022	1.52	1519.5	generate	Run3	generate/STIM_013.jpg	100
2212.864	2.281	2281.4	generate	Run3	generate/STIM_013.jpg	99
2217.177	2.439	2439.0	generate	Run3	generate/STIM_013.jpg	100
2222.761	1.296	1296.3	generate	Run3	generate/STIM_014.jpg	99
2226.103	1.965	1965.0	generate	Run3	generate/STIM_014.jpg	99
2230.126	1.751	1750.9	generate	Run3	generate/STIM_014.jpg	99
2234.31	1.646	1645.8	generate	Run3	generate/STIM_014.jpg	99
2238.831	2.533	2533.4	generate	Run3	generate/STIM_014.jpg	99
2244.955	1.416	1416.0	generate	Run3	generate/STIM_015.jpg	100
2249.478	1.735	1734.8	generate	Run3	generate/STIM_015.jpg	99
2254.167	1.899	1899.0	generate	Run3	generate/STIM_015.jpg	100
2258.491	1.311	1311.1	generate	Run3	generate/STIM_015.jpg	100
2262.471	1.06	1060.2	generate	Run3	generate/STIM_015.jpg	99
2266.945	2.086	2085.6	generate	Run3	generate/STIM_016.jpg	99
2273.026	2.542	2542.1	generate	Run3	generate/STIM_016.jpg	100
2277.642	1.889	1889.3	generate	Run3	generate/STIM_016.jpg	100
2283.339	2.143	2142.6	generate	Run3	generate/STIM_016.jpg	99
2288.751	2.418	2418.2	generate	Run3	generate/STIM_016.jpg	100
2293.341	1.7	1699.7	generate	Run3	generate/STIM_017.jpg	99
2297.247	1.386	1386.3	generate	Run3	generate/STIM_017.jpg	100
2301.802	1.162	1162.5	generate	Run3	generate/STIM_017.jpg	100
2305.466	2.441	2440.6	generate	Run3	generate/STIM_017.jpg	100
2310.815	2.192	2192.1	generate	Run3	generate/STIM_017.jpg	100
2316.851	1.188	1187.8	generate	Run3	generate/STIM_018.jpg	100
2321.483	1.253	1252.9	generate	Run3	generate/STIM_018.jpg	99
2325.979	1.785	1785.1	generate	Run3	generate/STIM_018.jpg	99
2330.392	2.114	2114.4	generate	Run3	generate/STIM_018.jpg	99
2336.288	1.885	1885.3	generate	Run3	generate/STIM_018.jpg	100
2341.398	2.49	2489.9	generate	Run3	generate/STIM_019.jpg	99
2346.002	2.145	2144.7	generate	Run3	generate/STIM_019.jpg	100
2350.717	1.189	1189.3	generate	Run3	generate/STIM_019.jpg	99
2355.284	1.344	1344.4	generate	Run3	generate/STIM_019.jpg	99
2360.109	1.084	1083.6	generate	Run3	generate/STIM_019.jpg	100
2365.002	1.528	1528.0	generate	Run3	generate/STIM_020.jpg	99
2370.125	1.641	1641.0	generate	Run3	generate/STIM_020.jpg	99
2374.326	1.264	1264.3	generate	Run3	generate/STIM_020.jpg	99
2378.726	2.035	2034.6	generate	Run3	generate/STIM_020.jpg	99
2384.103	2.077	2077.3	generate	Run3	generate/STIM_020.jpg	99
2389.296	1.807	1807.3	generate	Run3	generate/STIM_021.jpg	100
2394.973	1.637	1636.6	generate	Run3	generate/STIM_021.jpg	99
2398.984	2.319	2319.2	generate	Run3	generate/STIM_021.jpg	99
2405.0	1.806	1806.1	generate	Run3	generate/STIM_021.jpg	100
2410.502	1.676	1675.6	generate	Run3	generate/STIM_021.jpg	99
2414.366	1.606	1606.0	generate	Run3	generate/STIM_022.jpg	100
2418.356	1.767	1767.4	generate	Run3	generate/STIM_022.jpg	99
2423.018	1.16	1159.9	generate	Run3	generate/STIM_022.jpg	99
2427.113	1.091	1091.2	generate	Run3	generate/STIM_022.jpg	100
2431.938	2.038	2037.6	generate	Run3	generate/STIM_022.jpg	100
2436.456	2.198	2198.4	generate	Run3	generate/STIM_023.jpg	99
2442.323	1.806	1805.9	generate	Run3	generate/STIM_023.jpg	100
2447.431	1.081	1081.3	generate	Run3	generate/STIM_023.jpg	99
2451.214	1.639	1638.7	generate	Run3	generate/STIM_023.jpg	100
2456.365	2.216	2215.7	generate	Run3	generate/STIM_023.jpg	100
2462.178	1.468	1468.4	generate	Run3	generate/STIM_024.jpg	99
2465.814	1.554	1554.0	generate	Run3	generate/STIM_024.jpg	100
2470.145	1.364	1364.4	generate	Run3	generate/STIM_024.jpg	100
2473.784	1.951	1951.3	generate	Run3	generate/STIM_024.jpg	100
2477.896	1.758	1758.3	generate	Run3	generate/STIM_024.jpg	99
2483.58	1.089	1089.4	repeat	Run3	repeat/STIM_000.jpg	99
2487.439	1.143	1142.7	repeat	Run3	repeat/STIM_000.jpg	99
2492.548	0.785	784.9	repeat	Run3	repeat/STIM_000.jpg	99
2495.858	0.882	881.9	repeat	Run3	repeat/STIM_000.jpg	100
2500.329	0.72	720.4	repeat	Run3	repeat/STIM_000.jpg	100
2504.719	1.13	1129.8	repeat	Run3	repeat/STIM_001.jpg	99
2509.467	1.005	1004.7	repeat	Run3	repeat/STIM_001.jpg	100
2514.162	1.169	1169.2	repeat	Run3	repeat/STIM_001.jpg	100
2517.801	0.687	686.6	repeat	Run3	repeat/STIM_001.jpg	99
2520.857	0.991	991.2	repeat	Run3	repeat/STIM_001.jpg	99
2523.881	0.857	857.4	repeat	Run3	repeat/STIM_002.jpg	99
2527.203	1.124	1124.3	repeat	Run3	repeat/STIM_002.jpg	100
2531.423	1.003	1002.9	repeat	Run3	repeat/STIM_002.jpg	100
2535.408	0.786	785.7	repeat	Run3	repeat/STIM_002.jpg	100
2539.722	0.638	637.8	repeat	Run3	repeat/STIM_002.jpg	99
2542.413	1.201	1201.2	repeat	Run3	repeat/STIM_003.jpg	99
2546.783	1.13	1130.5	repeat	Run3	repeat/STIM_003.jpg	100
2550.886	1.049	1048.7	repeat	Run3	repeat/STIM_003.jpg	99
2553.974	1.184	1184.5	repeat	Run3	repeat/STIM_003.jpg	100
2559.104	0.836	836.2	repeat	Run3	repeat/STIM_003.jpg	100
2562.206	0.965	965.4	repeat	Run3	repeat/STIM_004.jpg	99
2565.896	0.636	635.8	repeat	Run3	repeat/STIM_004.jpg	99
2569.191	0.738	738.1	repeat	Run3	repeat/STIM_004.jpg	99
2572.226	0.647	647.3	repeat	Run3	repeat/STIM_004.jpg	99
2576.762	0.818	818.0	repeat	Run3	repeat/STIM_004.jpg	100
2581.222	0.697	697.3	repeat	Run3	repeat/STIM_005.jpg	99
2584.638	0.922	922.2	repeat	Run3	repeat/STIM_005.jpg	100
2589.47	0.972	971.6	repeat	Run3	repeat/STIM_005.jpg	99
2592.729	0.726	725.7	repeat	Run3	repeat/STIM_005.jpg	100
2595.907	1.054	1054.5	repeat	Run3	repeat/STIM_005.jpg	100
2600.079	0.728	728.1	repeat	Run3	repeat/STIM_006.jpg	99
2603.349	0.958	958.1	repeat	Run3	repeat/STIM_006.jpg	99
2607.315	0.823	822.7	repeat	Run3	repeat/STIM_006.jpg	100
2611.16	1.041	1040.8	repeat	Run3	repeat/STIM_006.jpg	100
2614.696	0.701	701.3	repeat	Run3	repeat/STIM_006.jpg	99
2618.815	0.876	876.3	repeat	Run3	repeat/STIM_007.jpg	99
2621.903	1.02	1020.1	repeat	Run3	repeat/STIM_007.jpg	99
2625.399	0.669	669.3	repeat	Run3	repeat/STIM_007.jpg	99
2628.945	0.802	802.2	repeat	Run3	repeat/STIM_007.jpg	100
2631.773	0.618	618.3	repeat	Run3	repeat/STIM_007.jpg	99
2634.392	1.211	1211.2	repeat	Run3	repeat/STIM_008.jpg	100
2637.745	1.052	1052.3	repeat	Run3	repeat/STIM_008.jpg	99
2641.375	0.922	922.0	repeat	Run3	repeat/STIM_008.jpg	99
2644.427	1.085	1085.2	repeat	Run3	repeat/STIM_008.jpg	99
2648.51	0.697	697.2	repeat	Run3	repeat/STIM_008.jpg	99
2652.916	0.753	753.2	repeat	Run3	repeat/STIM_009.jpg	100
2656.892	1.021	1020.8	repeat	Run3	repeat/STIM_009.jpg	99
2660.135	1.208	1208.2	repeat	Run3	repeat/STIM_009.jpg	99
2663.926	0.617	617.2	repeat	Run3	repeat/STIM_009.jpg	100
2666.654	0.606	606.4	repeat	Run3	repeat/STIM_009.jpg	99
2670.495	1.06	1060.1	repeat	Run3	repeat/STIM_010.jpg	100
2675.421	1.085	1085.2	repeat	Run3	repeat/STIM_010.jpg	99
2678.865	0.624	624.2	repeat	Run3	repeat/STIM_010.jpg	100
2683.126	1.088	1088.5	repeat	Run3	repeat/STIM_010.jpg	100
2687.198	0.805	805.1	repeat	Run3	repeat/STIM_010.jpg	100
2691.474	0.61	610.2	repeat	Run3	repeat/STIM_011.jpg	100
2695.934	0.755	755.2	repeat	Run3	repeat/STIM_011.jpg	99
2699.52	0.709	708.9	repeat	Run3	repeat/STIM_011.jpg	100
2702.834	0.823	822.9	repeat	Run3	repeat/STIM_011.jpg	99
2705.965	0.858	857.6	repeat	Run3	repeat/STIM_011.jpg	99
2709.528	0.98	980.3	repeat	Run3	repeat/STIM_012.jpg	100
2714.24	1.204	1204.1	repeat	Run3	repeat/STIM_012.jpg	99
2718.361	0.731	731.1	repeat	Run3	repeat/STIM_012.jpg	99
2722.909	1.16	1159.8	repeat	Run3	repeat/STIM_012.jpg	99
2726.083	1.185	1185.4	repeat	Run3	repeat/STIM_012.jpg	99
2730.299	0.995	994.9	repeat	Run3	repeat/STIM_013.jpg	99
2733.479	1.037	1037.3	repeat	Run3	repeat/STIM_013.jpg	99
2737.091	1.198	1197.7	repeat	Run3	repeat/STIM_013.jpg	99
2741.416	0.823	823.3	repeat	Run3	repeat/STIM_013.jpg	99
2745.98	0.852	852.3	repeat	Run3	repeat/STIM_013.jpg	100
2748.965	0.691	690.8	repeat	Run3	repeat/STIM_014.jpg	100
2752.551	0.674	674.1	repeat	Run3	repeat/STIM_014.jpg	100
2756.185	1.024	1024.1	repeat	Run3	repeat/STIM_014.jpg	99
2760.105	1.085	1084.8	repeat	Run3	repeat/STIM_014.jpg	100
2764.569	0.689	689.1	repeat	Run3	repeat/STIM_014.jpg	100
2768.953	1.617	1617.2	generate	Run4	generate/STIM_000.jpg	99
2773.557	1.858	1857.8	generate	Run4	generate/STIM_000.jpg	99
2778.288	1.813	1813.4	generate	Run4	generate/STIM_000.jpg	99
2782.376	2.012	2012.1	generate	Run4	generate/STIM_000.jpg	99
2787.555	1.099	1099.3	generate	Run4	generate/STIM_000.jpg	100
2790.939	1.901	1901.3	generate	Run4	generate/STIM_001.jpg	100
2796.337	1.2	1200.1	generate	Run4	generate/STIM_001.jpg	100
2800.233	1.881	1880.9	generate	Run4	generate/STIM_001.jpg	99
2805.684	1.614	1614.0	generate	Run4	generate/STIM_001.jpg	99
2811.038	2.522	2522.5	generate	Run4	generate/STIM_001.jpg	100
2817.37	1.13	1129.9	generate	Run4	generate/STIM_002.jpg	99
2821.525	2.245	2244.8	generate	Run4	generate/STIM_002.jpg	100
2826.885	1.418	1418.1	generate	Run4	generate/STIM_002.jpg	100
2831.269	1.343	1342.6	generate	Run4	generate/STIM_002.jpg	99
2835.864	1.245	1245.4	generate	Run4	generate/STIM_002.jpg	99
2839.898	1.069	1069.4	generate	Run4	generate/STIM_003.jpg	99
2843.797	1.264	1263.5	generate	Run4	generate/STIM_003.jpg	99
2848.334	2.274	2273.6	generate	Run4	generate/STIM_003.jpg	100
2852.792	1.102	1102.5	generate	Run4	generate/STIM_003.jpg	99
2857.229	2.447	2447.0	generate	Run4	generate/STIM_003.jpg	100
2861.806	1.463	1463.2	generate	Run4	generate/STIM_004.jpg	100
2867.254	1.652	1652.2	generate	Run4	generate/STIM_004.jpg	99
2871.753	1.726	1726.5	generate	Run4	generate/STIM_004.jpg	99
2875.572	2.415	2414.8	generate	Run4	generate/STIM_004.jpg	100
2879.997	2.153	2153.3	generate	Run4	generate/STIM_004.jpg	100
2885.467	2.154	2154.0	generate	Run4	generate/STIM_005.jpg	100
2890.96	1.156	1156.2	generate	Run4	generate/STIM_005.jpg	99
2895.378	2.404	2404.2	generate	Run4	generate/STIM_005.jpg	99
2900.179	1.817	1816.7	generate	Run4	generate/STIM_005.jpg	100
2905.777	1.9	1899.7	generate	Run4	generate/STIM_005.jpg	99
2910.204	1.888	1887.6	generate	Run4	generate/STIM_006.jpg	100
2915.12	2.026	2026.5	generate	Run4	generate/STIM_006.jpg	100
2919.849	2.345	2344.6	generate	Run4	generate/STIM_006.jpg	100
2924.571	1.599	1599.1	generate	Run4	generate/STIM_006.jpg	99
2928.692	2.526	2526.0	generate	Run4	generate/STIM_006.jpg	99
2934.516	1.791	1791.1	generate	Run4	generate/STIM_007.jpg	99
2938.492	1.939	1938.6	generate	Run4	generate/STIM_007.jpg	100
2943.195	1.7	1700.1	generate	Run4	generate/STIM_007.jpg	100
2948.875	1.246	1245.8	generate	Run4	generate/STIM_007.jpg	100
2952.301	1.358	1358.0	generate	Run4	generate/STIM_007.jpg	99
2955.904	2.362	2362.0	generate	Run4	generate/STIM_008.jpg	100
2960.795	2.347	2346.6	generate	Run4	generate/STIM_008.jpg	100
2965.201	2.194	2194.4	generate	Run4	generate/STIM_008.jpg	100
2970.865	1.251	1250.6	generate	Run4	generate/STIM_008.jpg	100
2974.637	1.131	1130.7	generate	Run4	generate/STIM_008.jpg	100
2979.436	1.201	1201.3	generate	Run4	generate/STIM_009.jpg	99
2984.511	2.437	2436.9	generate	Run4	generate/STIM_009.jpg	100
2989.962	1.822	1822.2	generate	Run4	generate/STIM_009.jpg	99
2994.055	1.351	1351.2	generate	Run4	generate/STIM_009.jpg	100
2998.79	1.832	1832.4	generate	Run4	generate/STIM_009.jpg	100
3004.293	1.906	1905.5	generate	Run4	generate/STIM_010.jpg	99
3008.388	1.109	1108.6	generate	Run4	generate/STIM_010.jpg	100
3013.16	1.188	1187.8	generate	Run4	generate/STIM_010.jpg	100
3017.116	1.909	1909.4	generate	Run4	generate/STIM_010.jpg	99
3021.229	1.643	1643.4	generate	Run4	generate/STIM_010.jpg	99
3025.223	1.911	1910.9	generate	Run4	generate/STIM_011.jpg	99
3030.446	2.267	2267.3	generate	Run4	generate/STIM_011.jpg	100
3035.774	2.293	2292.7	generate	Run4	generate/STIM_011.jpg	99
3040.617	1.316	1315.8	generate	Run4	generate/STIM_011.jpg	99
3044.321	2.513	2513.2	generate	Run4	generate/STIM_011.jpg	100
3050.466	1.057	1057.0	generate	Run4	generate/STIM_012.jpg	99
3053.759	1.516	1515.7	generate	Run4	generate/STIM_012.jpg	100
3057.978	1.112	1112.3	generate	Run4	generate/STIM_012.jpg	100
3062.08	1.154	1153.7	generate	Run4	generate/STIM_012.jpg	100
3065.622	1.435	1434.8	generate	Run4	generate/STIM_012.jpg	99
3070.955	2.339	2339.1	generate	Run4	generate/STIM_013.jpg	99
3075.891	1.038	1037.8	generate	Run4	generate/STIM_013.jpg	100
3080.021	1.85	1850.3	generate	Run4	generate/STIM_013.jpg	100
3084.953	1.066	1066.3	generate	Run4	generate/STIM_013.jpg	100
3089.251	1.287	1287.1	generate	Run4	generate/STIM_013.jpg	100
3093.556	2.238	2237.6	generate	Run4	generate/STIM_014.jpg	100
3097.97	1.559	1559.3	generate	Run4	generate/STIM_014.jpg	99
3103.249	2.084	2083.5	generate	Run4	generate/STIM_014.jpg	100
3108.2	1.463	1462.7	generate	Run4	generate/STIM_014.jpg	100
3112.611	1.102	1102.0	generate	Run4	generate/STIM_014.jpg	100
3115.946	1.098	1097.9	generate	Run4	generate/STIM_015.jpg	100
3119.645	1.864	1864.2	generate	Run4	generate/STIM_015.jpg	100
3125.413	2.06	2060.0	generate	Run4	generate/STIM_015.jpg	99
3131.439	1.116	1115.6	generate	Run4	generate/STIM_015.jpg	100
3134.884	1.292	1291.5	generate	Run4	generate/STIM_015.jpg	100
3139.556	1.021	1020.7	generate	Run4	generate/STIM_016.jpg	100
3143.936	2.448	2448.5	generate	Run4	generate/STIM_016.jpg	99
3149.833	1.833	1833.3	generate	Run4	generate/STIM_016.jpg	99
3154.765	1.428	1427.8	generate	Run4	generate/STIM_016.jpg	100
3159.938	2.289	2289.2	generate	Run4	generate/STIM_016.jpg	99
3165.436	1.419	1419.2	generate	Run4	generate/STIM_017.jpg	100
3168.863	2.168	2168.4	generate	Run4	generate/STIM_017.jpg	100
3174.766	2.511	2511.4	generate	Run4	generate/STIM_017.jpg	100
3181.161	2.417	2417.4	generate	Run4	generate/STIM_017.jpg	99
3187.321	2.112	2112.1	generate	Run4	generate/STIM_017.jpg	100
3192.925	1.757	1757.1	generate	Run4	generate/STIM_018.jpg	100
3198.215	2.359	2359.0	generate	Run4	generate/STIM_018.jpg	99
3202.594	1.919	1919.0	generate	Run4	generate/STIM_018.jpg	100
3208.27	1.144	1144.5	generate	Run4	generate/STIM_018.jpg	99
3212.667	1.624	1623.9	generate	Run4	generate/STIM_018.jpg	99
3216.89	2.411	2411.0	generate	Run4	generate/STIM_019.jpg	100
3223.21	2.264	2263.5	generate	Run4	generate/STIM_019.jpg	100
3228.353	2.01	2009.5	generate	Run4	generate/STIM_019.jpg	99
3232.521	1.715	1714.8	generate	Run4	generate/STIM_019.jpg	100
3236.808	2.466	2466.0	generate	Run4	generate/STIM_019.jpg	100
3241.908	1.127	1126.8	generate	Run4	generate/STIM_020.jpg	99
3245.999	1.144	1144.2	generate	Run4	generate/STIM_020.jpg	100
3250.282	1.581	1581.4	generate	Run4	generate/STIM_020.jpg	100
3253.93	2.529	2528.6	generate	Run4	generate/STIM_020.jpg	100
3259.888	2.108	2107.5	generate	Run4	generate/STIM_020.jpg	99
3264.429	1.517	1517.4	generate	Run4	generate/STIM_021.jpg	99
3268.429	1.337	1337.1	generate	Run4	generate/STIM_021.jpg	99
3273.66	2.531	2530.8	generate	Run4	generate/STIM_021.jpg	99
3279.897	2.463	2462.6	generate	Run4	generate/STIM_021.jpg	100
3285.42	2.347	2346.8	generate	Run4	generate/STIM_021.jpg	100
3291.62	1.125	1124.9	generate	Run4	generate/STIM_022.jpg	100
3295.898	1.881	1881.0	generate	Run4	generate/STIM_022.jpg	99
3300.289	1.802	1802.3	generate	Run4	generate/STIM_022.jpg	100
3305.933	1.138	1137.9	generate	Run4	generate/STIM_022.jpg	100
3310.216	2.249	2249.1	generate	Run4	generate/STIM_022.jpg	100
3315.182	1.045	1044.9	generate	Run4	generate/STIM_023.jpg	100
3318.246	1.397	1396.7	generate	Run4	generate/STIM_023.jpg	100
3321.653	1.412	1412.2	generate	Run4	generate/STIM_023.jpg	100
3325.553	1.422	1421.8	generate	Run4	generate/STIM_023.jpg	99
3329.32	2.117	2117.3	generate	Run4	generate/STIM_023.jpg	100
3334.414	1.165	1164.6	generate	Run4	generate/STIM_024.jpg	99
3337.796	1.078	1077.8	generate	Run4	generate/STIM_024.jpg	99
3341.449	1.38	1380.0	generate	Run4	generate/STIM_024.jpg	99
3345.207	2.133	2133.2	generate	Run4	generate/STIM_024.jpg	99
3349.654	2.372	2372.3	generate	Run4	generate/STIM_024.jpg	99
3354.323	1.196	1195.8	repeat	Run4	repeat/STIM_000.jpg	100
3358.527	1.012	1011.6	repeat	Run4	repeat/STIM_000.jpg	100
3363.129	0.9	899.8	repeat	Run4	repeat/STIM_000.jpg	100
3367.654	0.81	809.6	repeat	Run4	repeat/STIM_000.jpg	100
3371.155	0.789	788.9	repeat	Run4	repeat/STIM_000.jpg	99
3375.76	0.637	637.1	repeat	Run4	repeat/STIM_001.jpg	100
3379.62	0.62	619.9	repeat	Run4	repeat/STIM_001.jpg	99
3382.64	0.893	893.1	repeat	Run4	repeat/STIM_001.jpg	100
3385.595	1.11	1110.5	repeat	Run4	repeat/STIM_001.jpg	100
3388.97	0.877	876.9	repeat	Run4	repeat/STIM_001.jpg	99
3392.175	0.979	978.8	repeat	Run4	repeat/STIM_002.jpg	100
3395.816	0.855	854.8	repeat	Run4	repeat/STIM_002.jpg	99
3399.387	0.872	871.8	repeat	Run4	repeat/STIM_002.jpg	100
3403.663	1.095	1094.9	repeat	Run4	repeat/STIM_002.jpg	99
3406.814	0.682	681.6	repeat	Run4	repeat/STIM_002.jpg	100
3410.924	1.121	1121.0	repeat	Run4	repeat/STIM_003.jpg	100
3414.372	0.722	721.8	repeat	Run4	repeat/STIM_003.jpg	100
3417.665	0.64	640.5	repeat	Run4	repeat/STIM_003.jpg	99
3421.366	1.202	1202.3	repeat	Run4	repeat/STIM_003.jpg	99
3425.035	1.083	1083.0	repeat	Run4	repeat/STIM_003.jpg	100
3429.187	1.099	1099.2	repeat	Run4	repeat/STIM_004.jpg	100
3432.745	1.003	1003.0	repeat	Run4	repeat/STIM_004.jpg	99
3437.53	0.659	658.8	repeat	Run4	repeat/STIM_004.jpg	99
3440.567	0.787	786.8	repeat	Run4	repeat/STIM_004.jpg	99
3444.601	0.658	657.7	repeat	Run4	repeat/STIM_004.jpg	99
3448.578	0.717	717.0	repeat	Run4	repeat/STIM_005.jpg	100
3453.24	1.19	1190.5	repeat	Run4	repeat/STIM_005.jpg	99
3456.501	1.144	1144.4	repeat	Run4	repeat/STIM_005.jpg	100
3460.496	0.689	689.2	repeat	Run4	repeat/STIM_005.jpg	99
3464.383	0.614	613.7	repeat	Run4	repeat/STIM_005.jpg	99
3468.121	1.183	1182.8	repeat	Run4	repeat/STIM_006.jpg	100
3471.898	0.739	739.0	repeat	Run4	repeat/STIM_006.jpg	99
3475.648	1.075	1075.0	repeat	Run4	repeat/STIM_006.jpg	100
3480.059	0.946	946.4	repeat	Run4	repeat/STIM_006.jpg	99
3484.637	0.941	940.7	repeat	Run4	repeat/STIM_006.jpg	100
3489.516	0.908	907.7	repeat	Run4	repeat/STIM_007.jpg	100
3493.594	1.059	1059.3	repeat	Run4	repeat/STIM_007.jpg	99
3497.853	0.934	933.6	repeat	Run4	repeat/STIM_007.jpg	99
3502.383	1.144	1143.5	repeat	Run4	repeat/STIM_007.jpg	100
3506.366	0.68	680.0	repeat	Run4	repeat/STIM_007.jpg	99
3509.528	1.051	1050.8	repeat	Run4	repeat/STIM_008.jpg	100
3513.844	0.845	844.8	repeat	Run4	repeat/STIM_008.jpg	100
3517.573	0.71	709.9	repeat	Run4	repeat/STIM_008.jpg	99
3521.044	1.075	1074.6	repeat	Run4	repeat/STIM_008.jpg	100
3525.633	0.854	854.0	repeat	Run4	repeat/STIM_008.jpg	99
3530.006	0.688	688.1	repeat	Run4	repeat/STIM_009.jpg	99
3534.564	0.991	991.3	repeat	Run4	repeat/STIM_009.jpg	99
3538.48	0.752	752.1	repeat	Run4	repeat/STIM_009.jpg	100
3542.717	1.076	1076.4	repeat	Run4	repeat/STIM_009.jpg	99
3546.114	1.004	1003.7	repeat	Run4	repeat/STIM_009.jpg	99
3549.244	1.055	1054.9	repeat	Run4	repeat/STIM_010.jpg	100
3553.952	0.99	990.4	repeat	Run4	repeat/STIM_010.jpg	99
3558.679	0.978	977.7	repeat	Run4	repeat/STIM_010.jpg	100
3563.072	0.657	657.2	repeat	Run4	repeat/STIM_010.jpg	100
3566.701	0.941	940.9	repeat	Run4	repeat/STIM_010.jpg	99
3569.933	1.092	1091.9	repeat	Run4	repeat/STIM_011.jpg	99
3573.357	0.951	951.2	repeat	Run4	repeat/STIM_011.jpg	99
3577.448	0.686	685.9	repeat	Run4	repeat/STIM_011.jpg	99
3580.178	0.876	875.9	repeat	Run4	repeat/STIM_011.jpg	99
3583.353	0.763	762.8	repeat	Run4	repeat/STIM_011.jpg	99
3588.006	1.002	1002.0	repeat	Run4	repeat/STIM_012.jpg	100
3592.559	1.101	1100.6	repeat	Run4	repeat/STIM_012.jpg	100
3597.201	1.039	1038.7	repeat	Run4	repeat/STIM_012.jpg	100
3602.105	0.83	830.1	repeat	Run4	repeat/STIM_012.jpg	100
3606.125	0.722	722.1	repeat	Run4	repeat/STIM_012.jpg	100
3609.292	0.659	659.0	repeat	Run4	repeat/STIM_013.jpg	100
3612.994	1.142	1141.6	repeat	Run4	repeat/STIM_013.jpg	100
3617.68	1.091	1091.4	repeat	Run4	repeat/STIM_013.jpg	99
3621.749	0.785	784.8	repeat	Run4	repeat/STIM_013.jpg	99
3625.047	0.726	726.5	repeat	Run4	repeat/STIM_013.jpg	100
3628.643	0.632	631.6	repeat	Run4	repeat/STIM_014.jpg	99
3632.402	0.999	998.8	repeat	Run4	repeat/STIM_014.jpg	99
3637.185	0.782	782.0	repeat	Run4	repeat/STIM_014.jpg	100
3641.71	1.103	1103.2	repeat	Run4	repeat/STIM_014.jpg	100
3644.824	0.766	766.2	repeat	Run4	repeat/STIM_014.jpg	100
