onset	duration	response_time_ms	trial_type	learning_stage	stimulus	response_port
0.0	1.345	1345.3	regulate	Run1	regulate/STIM_000.jpg	99
4.442	1.695	1695.3	regulate	Run1	regulate/STIM_000.jpg	99
9.754	1.426	1426.0	regulate	Run1	regulate/STIM_000.jpg	100
14.158	2.566	2566.1	regulate	Run1	regulate/STIM_000.jpg	99
20.194	1.7	1700.1	regulate	Run1	regulate/STIM_001.jpg	99
25.883	1.628	1628.2	regulate	Run1	regulate/STIM_001.jpg	99
31.293	1.918	1917.6	regulate	Run1	regulate/STIM_001.jpg	100
36.25	2.427	2427.0	regulate	Run1	regulate/STIM_001.jpg	99
42.251	2.758	2758.3	regulate	Run1	regulate/STIM_002.jpg	100
48.464	1.347	1346.9	regulate	Run1	regulate/STIM_002.jpg	99
52.286	1.602	1602.2	regulate	Run1	regulate/STIM_002.jpg	99
58.065	1.834	1834.3	regulate	Run1	regulate/STIM_002.jpg	99
63.052	1.646	1646.5	regulate	Run1	regulate/STIM_003.jpg	100
68.037	1.76	1760.4	regulate	Run1	regulate/STIM_003.jpg	99
73.399	2.666	2665.9	regulate	Run1	regulate/STIM_003.jpg	99
79.29	1.523	1523.2	regulate	Run1	regulate/STIM_003.jpg	99
83.225	2.18	2180.4	regulate	Run1	regulate/STIM_004.jpg	99
87.828	2.602	2602.2	regulate	Run1	regulate/STIM_004.jpg	99
94.26	2.758	2758.4	regulate	Run1	regulate/STIM_004.jpg	100
100.174	2.052	2051.6	regulate	Run1	regulate/STIM_004.jpg	100
104.96	1.643	1643.0	regulate	Run1	regulate/STIM_005.jpg	99
110.273	2.415	2414.6	regulate	Run1	regulate/STIM_005.jpg	100
115.251	1.2	1200.5	regulate	Run1	regulate/STIM_005.jpg	99
118.962	1.265	1264.8	regulate	Run1	regulate/STIM_005.jpg	100
124.011	1.848	1848.3	regulate	Run1	regulate/STIM_006.jpg	100
129.294	1.417	1417.4	regulate	Run1	regulate/STIM_006.jpg	100
134.106	2.613	2613.0	regulate	Run1	regulate/STIM_006.jpg	100
139.462	1.297	1296.9	regulate	Run1	regulate/STIM_006.jpg	100
143.39	1.47	1470.5	regulate	Run1	regulate/STIM_007.jpg	99
147.966	2.421	2420.7	regulate	Run1	regulate/STIM_007.jpg	100
153.767	2.358	2358.3	regulate	Run1	regulate/STIM_007.jpg	99
160.165	1.475	1475.2	regulate	Run1	regulate/STIM_007.jpg	100
163.926	2.721	2721.3	regulate	Run1	regulate/STIM_008.jpg	99
170.283	2.542	2541.9	regulate	Run1	regulate/STIM_008.jpg	100
176.556	2.508	2507.8	regulate	Run1	regulate/STIM_008.jpg	100
183.228	2.362	2362.0	regulate	Run1	regulate/STIM_008.jpg	99
188.131	2.979	2979.2	regulate	Run1	regulate/STIM_009.jpg	99
195.269	2.862	2861.5	regulate	Run1	regulate/STIM_009.jpg	100
202.483	1.549	1549.1	regulate	Run1	regulate/STIM_009.jpg	99
206.833	1.553	1553.3	regulate	Run1	regulate/STIM_009.jpg	99
211.641	2.973	2972.8	regulate	Run1	regulate/STIM_010.jpg	99
218.753	1.756	1756.5	regulate	Run1	regulate/STIM_010.jpg	100
223.471	2.422	2422.0	regulate	Run1	regulate/STIM_010.jpg	100
228.551	2.418	2417.5	regulate	Run1	regulate/STIM_010.jpg	99
233.718	2.595	2595.4	regulate	Run1	regulate/STIM_011.jpg	99
239.038	2.111	2110.9	regulate	Run1	regulate/STIM_011.jpg	99
245.084	1.406	1406.3	regulate	Run1	regulate/STIM_011.jpg	99
250.433	2.274	2273.5	regulate	Run1	regulate/STIM_011.jpg	99
256.58	2.925	2924.7	regulate	Run1	regulate/STIM_012.jpg	100
262.771	2.172	2171.7	regulate	Run1	regulate/STIM_012.jpg	99
268.851	2.602	2602.0	regulate	Run1	regulate/STIM_012.jpg	99
274.207	1.757	1757.3	regulate	Run1	regulate/STIM_012.jpg	99
279.971	2.927	2927.1	regulate	Run1	regulate/STIM_013.jpg	100
286.411	1.562	1562.5	regulate	Run1	regulate/STIM_013.jpg	100
291.212	1.683	1682.9	regulate	Run1	regulate/STIM_013.jpg	99
295.678	2.118	2117.6	regulate	Run1	regulate/STIM_013.jpg	99
301.16	2.385	2384.6	regulate	Run1	regulate/STIM_014.jpg	99
307.141	1.365	1365.0	regulate	Run1	regulate/STIM_014.jpg	99
311.552	1.412	1412.0	regulate	Run1	regulate/STIM_014.jpg	100
316.808	2.47	2469.6	regulate	Run1	regulate/STIM_014.jpg	99
322.578	2.885	2885.4	regulate	Run1	regulate/STIM_015.jpg	99
329.336	1.598	1598.4	regulate	Run1	regulate/STIM_015.jpg	99
333.168	2.035	2035.5	regulate	Run1	regulate/STIM_015.jpg	100
338.784	2.124	2123.7	regulate	Run1	regulate/STIM_015.jpg	99
344.841	2.026	2025.9	regulate	Run1	regulate/STIM_016.jpg	99
351.044	2.212	2212.1	regulate	Run1	regulate/STIM_016.jpg	99
355.929	1.798	1797.7	regulate	Run1	regulate/STIM_016.jpg	99
360.879	2.453	2453.1	regulate	Run1	regulate/STIM_016.jpg	100
366.046	2.158	2157.6	regulate	Run1	regulate/STIM_017.jpg	100
370.52	1.701	1701.1	regulate	Run1	regulate/STIM_017.jpg	99
375.429	1.614	1614.3	regulate	Run1	regulate/STIM_017.jpg	100
379.792	1.282	1282.4	regulate	Run1	regulate/STIM_017.jpg	100
384.946	2.215	2215.1	regulate	Run1	regulate/STIM_018.jpg	100
390.083	1.668	1667.8	regulate	Run1	regulate/STIM_018.jpg	100
394.129	2.696	2696.0	regulate	Run1	regulate/STIM_018.jpg	100
400.981	1.181	1180.6	regulate	Run1	regulate/STIM_018.jpg	99
404.467	2.539	2538.7	regulate	Run1	regulate/STIM_019.jpg	100
409.933	1.514	1513.5	regulate	Run1	regulate/STIM_019.jpg	99
415.343	1.196	1196.4	regulate	Run1	regulate/STIM_019.jpg	99
419.771	2.28	2280.1	regulate	Run1	regulate/STIM_019.jpg	99
424.61	1.652	1652.2	regulate	Run1	regulate/STIM_020.jpg	99
428.691	2.043	2043.3	regulate	Run1	regulate/STIM_020.jpg	99
434.562	2.502	2502.1	regulate	Run1	regulate/STIM_020.jpg	99
440.855	2.519	2519.4	regulate	Run1	regulate/STIM_020.jpg	99
447.587	2.597	2597.3	regulate	Run1	regulate/STIM_021.jpg	99
454.444	2.289	2288.6	regulate	Run1	regulate/STIM_021.jpg	99
459.204	1.811	1811.2	regulate	Run1	regulate/STIM_021.jpg	100
464.724	2.005	2005.4	regulate	Run1	regulate/STIM_021.jpg	99
469.296	1.782	1782.5	regulate	Run1	regulate/STIM_022.jpg	99
475.039	1.354	1353.8	regulate	Run1	regulate/STIM_022.jpg	99
480.312	1.544	1544.3	regulate	Run1	regulate/STIM_022.jpg	100
485.606	2.406	2406.5	regulate	Run1	regulate/STIM_022.jpg	99
491.678	1.804	1804.2	regulate	Run1	regulate/STIM_023.jpg	100
497.03	2.129	2128.6	regulate	Run1	regulate/STIM_023.jpg	99
501.968	2.444	2444.4	regulate	Run1	regulate/STIM_023.jpg	100
507.724	2.554	2554.5	regulate	Run1	regulate/STIM_023.jpg	100
513.052	2.763	2763.3	regulate	Run1	regulate/STIM_024.jpg	100
518.342	2.139	2139.2	regulate	Run1	regulate/STIM_024.jpg	99
523.095	2.376	2375.6	regulate	Run1	regulate/STIM_024.jpg	99
527.888	1.35	1350.3	regulate	Run1	regulate/STIM_024.jpg	99
531.676	2.24	2240.3	regulate	Run1	regulate/STIM_025.jpg	99
537.273	1.631	1630.6	regulate	Run1	regulate/STIM_025.jpg	99
541.645	1.866	1865.6	regulate	Run1	regulate/STIM_025.jpg	99
546.522	1.308	1307.6	regulate	Run1	regulate/STIM_025.jpg	99
551.261	2.26	2260.5	regulate	Run1	regulate/STIM_026.jpg	99
556.549	2.473	2473.3	regulate	Run1	regulate/STIM_026.jpg	100
562.212	1.429	1428.8	regulate	Run1	regulate/STIM_026.jpg	100
566.578	1.824	1824.2	regulate	Run1	regulate/STIM_026.jpg	99
571.36	2.304	2304.3	regulate	Run1	regulate/STIM_027.jpg	99
577.36	2.538	2537.6	regulate	Run1	regulate/STIM_027.jpg	99
583.386	1.867	1866.9	regulate	Run1	regulate/STIM_027.jpg	100
587.892	1.419	1418.6	regulate	Run1	regulate/STIM_027.jpg	100
591.755	2.653	2653.3	regulate	Run1	regulate/STIM_028.jpg	99
598.267	1.393	1393.4	regulate	Run1	regulate/STIM_028.jpg	99
602.505	2.605	2604.8	regulate	Run1	regulate/STIM_028.jpg	100
609.149	1.467	1467.0	regulate	Run1	regulate/STIM_028.jpg	99
612.961	1.468	1467.7	regulate	Run1	regulate/STIM_029.jpg	99
617.621	1.997	1996.9	regulate	Run1	regulate/STIM_029.jpg	100
622.751	1.281	1281.1	regulate	Run1	regulate/STIM_029.jpg	99
627.128	2.487	2487.2	regulate	Run1	regulate/STIM_029.jpg	100
633.869	0.98	979.8	observe	Run1	observe/STIM_000.jpg	100
637.718	1.128	1127.7	observe	Run1	observe/STIM_000.jpg	99
642.488	1.32	1319.6	observe	Run1	observe/STIM_000.jpg	99
647.124	1.314	1314.1	observe	Run1	observe/STIM_000.jpg	99
651.858	0.948	948.2	observe	Run1	observe/STIM_001.jpg	99
655.526	1.113	1112.8	observe	Run1	observe/STIM_001.jpg	100
659.163	0.85	849.5	observe	Run1	observe/STIM_001.jpg	100
663.233	1.327	1327.1	observe	Run1	observe/STIM_001.jpg	99
668.016	1.337	1336.8	observe	Run1	observe/STIM_002.jpg	100
672.632	0.763	763.2	observe	Run1	observe/STIM_002.jpg	100
675.592	0.788	788.5	observe	Run1	observe/STIM_002.jpg	100
680.343	1.186	1186.2	observe	Run1	observe/STIM_002.jpg	100
685.58	1.166	1166.4	observe	Run1	observe/STIM_003.jpg	100
690.332	1.2	1200.5	observe	Run1	observe/STIM_003.jpg	99
695.107	0.852	852.5	observe	Run1	observe/STIM_003.jpg	99
699.862	1.161	1160.7	observe	Run1	observe/STIM_003.jpg	99
703.992	1.257	1257.2	observe	Run1	observe/STIM_004.jpg	99
709.054	1.042	1041.5	observe	Run1	observe/STIM_004.jpg	100
713.661	1.38	1379.5	observe	Run1	observe/STIM_004.jpg	100
717.53	1.026	1025.9	observe	Run1	observe/STIM_004.jpg	99
722.378	1.294	1294.2	observe	Run1	observe/STIM_005.jpg	100
727.114	1.176	1176.4	observe	Run1	observe/STIM_005.jpg	100
730.577	0.883	883.0	observe	Run1	observe/STIM_005.jpg	100
734.724	1.383	1382.8	observe	Run1	observe/STIM_005.jpg	100
739.435	1.366	1365.5	observe	Run1	observe/STIM_006.jpg	99
743.311	0.955	954.6	observe	Run1	observe/STIM_006.jpg	100
747.023	1.261	1261.2	observe	Run1	observe/STIM_006.jpg	99
750.991	1.27	1270.4	observe	Run1	observe/STIM_006.jpg	100
756.237	0.927	926.6	observe	Run1	observe/STIM_007.jpg	99
760.93	1.011	1011.3	observe	Run1	observe/STIM_007.jpg	99
764.6	1.386	1386.2	observe	Run1	observe/STIM_007.jpg	100
768.729	1.052	1051.6	observe	Run1	observe/STIM_007.jpg	99
772.996	1.071	1070.7	observe	Run1	observe/STIM_008.jpg	99
777.596	1.252	1252.0	observe	Run1	observe/STIM_008.jpg	99
782.616	0.876	876.0	observe	Run1	observe/STIM_008.jpg	100
786.668	0.921	921.4	observe	Run1	observe/STIM_008.jpg	99
789.969	1.139	1138.6	observe	Run1	observe/STIM_009.jpg	100
794.665	1.123	1123.0	observe	Run1	observe/STIM_009.jpg	99
799.27	1.317	1316.7	observe	Run1	observe/STIM_009.jpg	100
803.964	1.149	1149.4	observe	Run1	observe/STIM_009.jpg	100
809.147	0.901	901.4	observe	Run1	observe/STIM_010.jpg	100
813.723	0.775	775.2	observe	Run1	observe/STIM_010.jpg	99
816.925	0.804	803.6	observe	Run1	observe/STIM_010.jpg	99
820.079	0.875	875.3	observe	Run1	observe/STIM_010.jpg	99
823.655	0.835	834.6	observe	Run1	observe/STIM_011.jpg	100
826.855	1.229	1229.3	observe	Run1	observe/STIM_011.jpg	99
830.659	0.964	964.4	observe	Run1	observe/STIM_011.jpg	100
834.851	1.119	1119.2	observe	Run1	observe/STIM_011.jpg	99
838.779	1.076	1075.8	observe	Run1	observe/STIM_012.jpg	100
843.42	1.09	1090.1	observe	Run1	observe/STIM_012.jpg	100
848.577	1.322	1321.6	observe	Run1	observe/STIM_012.jpg	100
853.241	0.979	979.4	observe	Run1	observe/STIM_012.jpg	100
857.221	1.311	1310.9	observe	Run1	observe/STIM_013.jpg	100
862.487	1.155	1155.3	observe	Run1	observe/STIM_013.jpg	100
866.133	0.774	774.0	observe	Run1	observe/STIM_013.jpg	99
870.086	1.387	1387.0	observe	Run1	observe/STIM_013.jpg	100
873.892	1.24	1240.3	observe	Run1	observe/STIM_014.jpg	100
878.927	1.398	1398.1	observe	Run1	observe/STIM_014.jpg	99
883.08	1.254	1253.5	observe	Run1	observe/STIM_014.jpg	100
887.783	0.766	765.9	observe	Run1	observe/STIM_014.jpg	100
892.249	1.041	1041.1	observe	Run1	observe/STIM_015.jpg	100
895.769	1.292	1292.1	observe	Run1	observe/STIM_015.jpg	99
899.868	1.084	1084.0	observe	Run1	observe/STIM_015.jpg	100
903.288	1.309	1309.1	observe	Run1	observe/STIM_015.jpg	99
907.4	1.281	1281.0	observe	Run1	observe/STIM_016.jpg	100
912.465	1.119	1119.0	observe	Run1	observe/STIM_016.jpg	100
916.32	1.113	1113.4	observe	Run1	observe/STIM_016.jpg	100
921.475	1.247	1247.0	observe	Run1	observe/STIM_016.jpg	99
925.751	0.928	927.5	observe	Run1	observe/STIM_017.jpg	100
928.952	1.14	1140.0	observe	Run1	observe/STIM_017.jpg	99
933.595	0.754	754.1	observe	Run1	observe/STIM_017.jpg	99
936.615	0.823	823.0	observe	Run1	observe/STIM_017.jpg	100
941.216	0.974	974.1	observe	Run1	observe/STIM_018.jpg	100
946.122	0.982	982.4	observe	Run1	observe/STIM_018.jpg	100
950.262	0.792	792.5	observe	Run1	observe/STIM_018.jpg	99
954.1	0.712	711.8	observe	Run1	observe/STIM_018.jpg	99
957.755	1.004	1004.1	observe	Run1	observe/STIM_019.jpg	99
961.711	1.364	1363.6	observe	Run1	observe/STIM_019.jpg	100
965.389	0.752	751.9	observe	Run1	observe/STIM_019.jpg	99
969.395	1.004	1004.3	observe	Run1	observe/STIM_019.jpg	99
973.846	1.806	1805.9	regulate	Run2	regulate/STIM_000.jpg	99
979.34	1.562	1562.2	regulate	Run2	regulate/STIM_000.jpg	100
984.182	2.026	2026.5	regulate	Run2	regulate/STIM_000.jpg	99
988.97	2.051	2050.7	regulate	Run2	regulate/STIM_000.jpg	100
993.821	2.596	2596.5	regulate	Run2	regulate/STIM_001.jpg	100
999.969	1.555	1555.1	regulate	Run2	regulate/STIM_001.jpg	100
1004.324	1.281	1281.4	regulate	Run2	regulate/STIM_001.jpg	99
1007.924	1.138	1137.7	regulate	Run2	regulate/STIM_001.jpg	99
1011.827	2.197	2197.2	regulate	Run2	regulate/STIM_002.jpg	99
1017.514	1.874	1873.5	regulate	Run2	regulate/STIM_002.jpg	100
1023.006	1.354	1354.3	regulate	Run2	regulate/STIM_002.jpg	100
1026.578	1.321	1320.9	regulate	Run2	regulate/STIM_002.jpg	99
1031.318	2.052	2051.7	regulate	Run2	regulate/STIM_003.jpg	100
1036.987	1.959	1958.6	regulate	Run2	regulate/STIM_003.jpg	99
1042.361	1.229	1228.6	regulate	Run2	regulate/STIM_003.jpg	99
1045.844	1.121	1121.2	regulate	Run2	regulate/STIM_003.jpg	99
1050.176	1.413	1413.0	regulate	Run2	regulate/STIM_004.jpg	99
1054.742	2.14	2140.4	regulate	Run2	regulate/STIM_004.jpg	99
1060.976	1.96	1959.8	regulate	Run2	regulate/STIM_004.jpg	100
1066.784	2.049	2049.1	regulate	Run2	regulate/STIM_004.jpg	100
1072.921	2.447	2447.4	regulate	Run2	regulate/STIM_005.jpg	100
1078.011	1.896	1896.2	regulate	Run2	regulate/STIM_005.jpg	99
1084.099	1.848	1848.2	regulate	Run2	regulate/STIM_005.jpg	100
1088.534	1.76	1760.2	regulate	Run2	regulate/STIM_005.jpg	99
1093.99	1.983	1983.0	regulate	Run2	regulate/STIM_006.jpg	100
1099.199	2.239	2238.8	regulate	Run2	regulate/STIM_006.jpg	100
1104.477	1.74	1740.4	regulate	Run2	regulate/STIM_006.jpg	99
1108.581	1.87	1869.5	regulate	Run2	regulate/STIM_006.jpg	99
1113.154	1.165	1164.9	regulate	Run2	regulate/STIM_007.jpg	100
1118.243	2.434	2434.1	regulate	Run2	regulate/STIM_007.jpg	99
1124.693	1.162	1162.1	regulate	Run2	regulate/STIM_007.jpg	99
1129.72	1.947	1946.7	regulate	Run2	regulate/STIM_007.jpg	99
1134.765	2.355	2355.1	regulate	Run2	regulate/STIM_008.jpg	100
1140.474	1.57	1570.2	regulate	Run2	regulate/STIM_008.jpg	100
1145.694	1.137	1136.8	regulate	Run2	regulate/STIM_008.jpg	99
1149.815	1.43	1430.2	regulate	Run2	regulate/STIM_008.jpg	100
1153.864	2.424	2424.5	regulate	Run2	regulate/STIM_009.jpg	99
1160.405	2.301	2301.4	regulate	Run2	regulate/STIM_009.jpg	100
1166.123	1.041	1040.8	regulate	Run2	regulate/STIM_009.jpg	99
1169.835	2.029	2028.9	regulate	Run2	regulate/STIM_009.jpg	100
1175.68	2.363	2362.6	regulate	Run2	regulate/STIM_010.jpg	99
1181.224	2.1	2100.0	regulate	Run2	regulate/STIM_010.jpg	99
1187.143	1.491	1491.1	regulate	Run2	regulate/STIM_010.jpg	100
1192.002	1.716	1715.8	regulate	Run2	regulate/STIM_010.jpg	99
1197.188	1.663	1662.6	regulate	Run2	regulate/STIM_011.jpg	99
1201.349	1.372	1371.9	regulate	Run2	regulate/STIM_011.jpg	100
1206.23	1.044	1044.5	regulate	Run2	regulate/STIM_011.jpg	99
1210.344	2.132	2131.5	regulate	Run2	regulate/STIM_011.jpg	100
1214.924	2.409	2409.2	regulate	Run2	regulate/STIM_012.jpg	99
1220.502	1.475	1475.0	regulate	Run2	regulate/STIM_012.jpg	100
1224.51	1.844	1844.0	regulate	Run2	regulate/STIM_012.jpg	100
1229.335	1.677	1676.9	regulate	Run2	regulate/STIM_012.jpg	99
1234.008	1.273	1273.3	regulate	Run2	regulate/STIM_013.jpg	99
1237.884	1.172	1171.7	regulate	Run2	regulate/STIM_013.jpg	99
1243.108	1.156	1155.9	regulate	Run2	regulate/STIM_013.jpg	100
1247.306	1.066	1066.3	regulate	Run2	regulate/STIM_013.jpg	100
1251.687	1.924	1924.1	regulate	Run2	regulate/STIM_014.jpg	99
1257.108	2.102	2102.5	regulate	Run2	regulate/STIM_014.jpg	100
1261.834	2.049	2048.9	regulate	Run2	regulate/STIM_014.jpg	100
1267.164	1.439	1438.8	regulate	Run2	regulate/STIM_014.jpg	99
1271.186	1.473	1473.2	regulate	Run2	regulate/STIM_015.jpg	100
1275.589	1.454	1454.3	regulate	Run2	regulate/STIM_015.jpg	100
1280.377	1.512	1512.2	regulate	Run2	regulate/STIM_015.jpg	99
1285.073	2.111	2110.7	regulate	Run2	regulate/STIM_015.jpg	99
1289.682	2.599	2599.1	regulate	Run2	regulate/STIM_016.jpg	100
1295.206	1.311	1310.6	regulate	Run2	regulate/STIM_016.jpg	99
1299.844	1.118	1118.5	regulate	Run2	regulate/STIM_016.jpg	99
1303.252	1.226	1226.1	regulate	Run2	regulate/STIM_016.jpg	100
1308.113	1.876	1876.1	regulate	Run2	regulate/STIM_017.jpg	100
1313.546	2.346	2346.2	regulate	Run2	regulate/STIM_017.jpg	100
1320.025	1.166	1165.8	regulate	Run2	regulate/STIM_017.jpg	99
1323.542	1.744	1744.5	regulate	Run2	regulate/STIM_017.jpg	100
1329.09	1.124	1123.7	regulate	Run2	regulate/STIM_018.jpg	100
1333.845	2.262	2262.2	regulate	Run2	regulate/STIM_018.jpg	100
1340.148	1.339	1338.9	regulate	Run2	regulate/STIM_018.jpg	100
1345.653	1.481	1481.0	regulate	Run2	regulate/STIM_018.jpg	99
1350.624	2.147	2147.0	regulate	Run2	regulate/STIM_019.jpg	99
1356.654	2.085	2085.4	regulate	Run2	regulate/STIM_019.jpg	99
1362.712	1.185	1185.3	regulate	Run2	regulate/STIM_019.jpg	100
1367.587	1.078	1077.8	regulate	Run2	regulate/STIM_019.jpg	99
1372.802	1.961	1960.8	regulate	Run2	regulate/STIM_020.jpg	100
1378.476	2.12	2119.5	regulate	Run2	regulate/STIM_020.jpg	100
1382.989	1.648	1647.9	regulate	Run2	regulate/STIM_020.jpg	100
1387.073	1.005	1005.4	regulate	Run2	regulate/STIM_020.jpg	99
1391.809	1.634	1634.5	regulate	Run2	regulate/STIM_021.jpg	100
1396.175	2.149	2149.4	regulate	Run2	regulate/STIM_021.jpg	99
1400.925	1.642	1641.7	regulate	Run2	regulate/STIM_021.jpg	99
1406.532	1.671	1671.3	regulate	Run2	regulate/STIM_021.jpg	99
1410.475	2.348	2347.6	regulate	Run2	regulate/STIM_022.jpg	99
1415.639	1.535	1534.6	regulate	Run2	regulate/STIM_022.jpg	100
1420.573	1.75	1750.5	regulate	Run2	regulate/STIM_022.jpg	99
1425.748	1.769	1769.1	regulate	Run2	regulate/STIM_022.jpg	100
1430.194	2.12	2120.0	regulate	Run2	regulate/STIM_023.jpg	99
1435.634	1.615	1615.4	regulate	Run2	regulate/STIM_023.jpg	99
1440.845	1.717	1717.1	regulate	Run2	regulate/STIM_023.jpg	99
1446.219	1.53	1530.2	regulate	Run2	regulate/STIM_023.jpg	99
1450.655	2.37	2369.8	regulate	Run2	regulate/STIM_024.jpg	100
1456.647	1.474	1473.6	regulate	Run2	regulate/STIM_024.jpg	100
1461.437	1.081	1081.2	regulate	Run2	regulate/STIM_024.jpg	99
1465.074	1.058	1058.1	regulate	Run2	regulate/STIM_024.jpg	100
1469.271	2.309	2308.6	regulate	Run2	regulate/STIM_025.jpg	99
1475.178	1.991	1991.0	regulate	Run2	regulate/STIM_025.jpg	100
1480.189	1.334	1334.4	regulate	Run2	regulate/STIM_025.jpg	100
1483.973	1.434	1434.5	regulate	Run2	regulate/STIM_025.jpg	99
1489.228	2.398	2397.6	regulate	Run2	regulate/STIM_026.jpg	99
1494.811	2.014	2014.5	regulate	Run2	regulate/STIM_026.jpg	99
1500.563	1.167	1166.9	regulate	Run2	regulate/STIM_026.jpg	99
1504.516	1.446	1445.6	regulate	Run2	regulate/STIM_026.jpg	99
1508.777	1.713	1712.8	regulate	Run2	regulate/STIM_027.jpg	100
1512.941	2.386	2386.5	regulate	Run2	regulate/STIM_027.jpg	100
1518.287	1.838	1838.4	regulate	Run2	regulate/STIM_027.jpg	100
1522.58	1.811	1810.8	regulate	Run2	regulate/STIM_027.jpg	100
1527.363	1.394	1394.4	regulate	Run2	regulate/STIM_028.jpg	100
1532.24	1.729	1729.1	regulate	Run2	regulate/STIM_028.jpg	100
1537.547	1.856	1855.7	regulate	Run2	regulate/STIM_028.jpg	99
1542.641	1.536	1536.0	regulate	Run2	regulate/STIM_028.jpg	100
1547.314	2.453	2453.4	regulate	Run2	regulate/STIM_029.jpg	100
1553.472	1.595	1595.2	regulate	Run2	regulate/STIM_029.jpg	99
1557.878	1.437	1436.6	regulate	Run2	regulate/STIM_029.jpg	100
1562.152	1.716	1716.4	regulate	Run2	regulate/STIM_029.jpg	99
1567.606	0.733	733.4	observe	Run2	observe/STIM_000.jpg	99
1571.292	1.358	1357.8	observe	Run2	observe/STIM_000.jpg	99
1576.625	0.724	723.7	observe	Run2	observe/STIM_000.jpg	100
1580.134	1.085	1085.0	observe	Run2	observe/STIM_000.jpg	100
1583.461	1.39	1390.4	observe	Run2	observe/STIM_001.jpg	100
1587.845	0.931	930.7	observe	Run2	observe/STIM_001.jpg	100
1591.43	1.4	1399.5	observe	Run2	observe/STIM_001.jpg	100
1596.567	1.076	1076.5	observe	Run2	observe/STIM_001.jpg	99
1601.186	1.363	1362.9	observe	Run2	observe/STIM_002.jpg	100
1605.67	0.892	891.6	observe	Run2	observe/STIM_002.jpg	99
1610.342	1.284	1283.5	observe	Run2	observe/STIM_002.jpg	99
1615.142	0.957	957.3	observe	Run2	observe/STIM_002.jpg	100
1619.635	0.893	893.2	observe	Run2	observe/STIM_003.jpg	100
1623.001	1.29	1290.0	observe	Run2	observe/STIM_003.jpg	99
1627.532	1.287	1287.3	observe	Run2	observe/STIM_003.jpg	99
1632.443	0.814	813.7	observe	Run2	observe/STIM_003.jpg	100
1636.167	1.192	1192.2	observe	Run2	observe/STIM_004.jpg	100
1640.056	1.405	1405.0	observe	Run2	observe/STIM_004.jpg	100
1644.034	0.884	884.3	observe	Run2	observe/STIM_004.jpg	99
1647.737	0.727	727.2	observe	Run2	observe/STIM_004.jpg	99
1651.085	1.091	1090.7	observe	Run2	observe/STIM_005.jpg	100
1655.344	1.168	1168.4	observe	Run2	observe/STIM_005.jpg	100
1659.36	1.375	1374.8	observe	Run2	observe/STIM_005.jpg	99
1664.247	0.867	867.1	observe	Run2	observe/STIM_005.jpg	99
1668.767	1.321	1320.6	observe	Run2	observe/STIM_006.jpg	99
1672.456	1.155	1155.2	observe	Run2	observe/STIM_006.jpg	100
1677.71	1.225	1224.6	observe	Run2	observe/STIM_006.jpg	99
1682.927	0.961	961.4	observe	Run2	observe/STIM_006.jpg	99
1688.015	0.927	927.3	observe	Run2	observe/STIM_007.jpg	99
1692.676	0.707	707.0	observe	Run2	observe/STIM_007.jpg	100
1696.552	1.037	1037.1	observe	Run2	observe/STIM_007.jpg	100
1699.939	1.319	1319.4	observe	Run2	observe/STIM_007.jpg	99
1704.103	0.964	964.4	observe	Run2	observe/STIM_008.jpg	100
1709.168	1.23	1230.0	observe	Run2	observe/STIM_008.jpg	99
1714.177	1.355	1355.3	observe	Run2	observe/STIM_008.jpg	100
1719.358	1.35	1350.0	observe	Run2	observe/STIM_008.jpg	99
1724.114	1.086	1085.9	observe	Run2	observe/STIM_009.jpg	100
1728.908	0.709	709.4	observe	Run2	observe/STIM_009.jpg	99
1732.537	0.985	984.7	observe	Run2	observe/STIM_009.jpg	99
1736.768	1.394	1393.5	observe	Run2	observe/STIM_009.jpg	99
1741.517	1.188	1188.1	observe	Run2	observe/STIM_010.jpg	99
1746.209	0.776	775.5	observe	Run2	observe/STIM_010.jpg	99
1750.415	1.253	1253.1	observe	Run2	observe/STIM_010.jpg	99
1754.328	1.372	1372.2	observe	Run2	observe/STIM_010.jpg	99
1757.993	1.165	1165.3	observe	Run2	observe/STIM_011.jpg	100
1762.509	1.026	1025.9	observe	Run2	observe/STIM_011.jpg	99
1766.288	1.279	1278.6	observe	Run2	observe/STIM_011.jpg	99
1769.807	0.951	951.1	observe	Run2	observe/STIM_011.jpg	100
1773.004	0.864	863.9	observe	Run2	observe/STIM_012.jpg	100
1776.301	1.082	1082.2	observe	Run2	observe/STIM_012.jpg	99
1781.035	0.814	814.4	observe	Run2	observe/STIM_012.jpg	100
1785.919	1.267	1267.1	observe	Run2	observe/STIM_012.jpg	99
1790.738	0.871	871.0	observe	Run2	observe/STIM_013.jpg	100
1793.965	1.299	1298.9	observe	Run2	observe/STIM_013.jpg	99
1798.445	1.229	1228.6	observe	Run2	observe/STIM_013.jpg	100
1802.186	0.892	892.0	observe	Run2	observe/STIM_013.jpg	99
1805.831	0.871	871.0	observe	Run2	observe/STIM_014.jpg	100
1809.847	0.907	907.0	observe	Run2	observe/STIM_014.jpg	100
1813.542	0.84	839.9	observe	Run2	observe/STIM_014.jpg	99
1817.045	1.028	1027.6	observe	Run2	observe/STIM_014.jpg	100
1821.869	0.718	718.5	observe	Run2	observe/STIM_015.jpg	99
1825.614	1.389	1388.7	observe	Run2	observe/STIM_015.jpg	100
1831.189	0.81	809.6	observe	Run2	observe/STIM_015.jpg	99
1835.178	1.14	1139.8	observe	Run2	observe/STIM_015.jpg	99
1840.021	1.05	1049.7	observe	Run2	observe/STIM_016.jpg	100
1844.227	0.84	840.3	observe	Run2	observe/STIM_016.jpg	100
1847.497	1.033	1032.6	observe	Run2	observe/STIM_016.jpg	100
1850.726	0.855	854.8	observe	Run2	observe/STIM_016.jpg	99
1854.032	0.751	751.3	observe	Run2	observe/STIM_017.jpg	100
1857.049	0.814	814.4	observe	Run2	observe/STIM_017.jpg	99
1861.266	1.264	1263.8	observe	Run2	observe/STIM_017.jpg	100
1865.002	0.959	959.4	observe	Run2	observe/STIM_017.jpg	100
1869.621	1.119	1119.3	observe	Run2	observe/STIM_018.jpg	99
1873.15	0.963	962.8	observe	Run2	observe/STIM_018.jpg	99
1877.947	1.072	1071.6	observe	Run2	observe/STIM_018.jpg	99
1881.613	1.116	1115.6	observe	Run2	observe/STIM_018.jpg	99
1885.855	0.88	880.1	observe	Run2	observe/STIM_019.jpg	99
1890.211	1.388	1388.5	observe	Run2	observe/STIM_019.jpg	100
1893.88	1.336	1336.5	observe	Run2	observe/STIM_019.jpg	100
1897.739	0.729	728.9	observe	Run2	observe/STIM_019.jpg	100
1900.856	0.991	991.2	regulate	Run3	regulate/STIM_000.jpg	99
1905.142	1.406	1405.5	regulate	Run3	regulate/STIM_000.jpg	99
1909.98	2.077	2077.4	regulate	Run3	regulate/STIM_000.jpg	100
1914.371	1.638	1638.4	regulate	Run3	regulate/STIM_000.jpg	100
1919.381	1.987	1987.2	regulate	Run3	regulate/STIM_001.jpg	100
1924.11	1.809	1809.2	regulate	Run3	regulate/STIM_001.jpg	100
1928.39	1.595	1595.3	regulate	Run3	regulate/STIM_001.jpg	100
1933.265	1.827	1826.9	regulate	Run3	regulate/STIM_001.jpg	99
1937.596	1.724	1724.4	regulate	Run3	regulate/STIM_002.jpg	100
1941.891	1.528	1527.9	regulate	Run3	regulate/STIM_002.jpg	99
1947.579	1.722	1721.7	regulate	Run3	regulate/STIM_002.jpg	100
1952.645	1.164	1164.0	regulate	Run3	regulate/STIM_002.jpg	100
1957.602	1.763	1762.6	regulate	Run3	regulate/STIM_003.jpg	99
1962.428	1.109	1109.4	regulate	Run3	regulate/STIM_003.jpg	99
1967.642	1.196	1195.5	regulate	Run3	regulate/STIM_003.jpg	99
1972.758	1.078	1078.2	regulate	Run3	regulate/STIM_003.jpg	100
1976.803	2.009	2008.8	regulate	Run3	regulate/STIM_004.jpg	100
1982.482	1.508	1508.5	regulate	Run3	regulate/STIM_004.jpg	100
1988.008	1.225	1224.8	regulate	Run3	regulate/STIM_004.jpg	99
1992.303	1.964	1963.7	regulate	Run3	regulate/STIM_004.jpg	99
1997.16	1.743	1742.8	regulate	Run3	regulate/STIM_005.jpg	99
2002.247	2.03	2030.1	regulate	Run3	regulate/STIM_005.jpg	99
2007.174	1.244	1243.9	regulate	Run3	regulate/STIM_005.jpg	100
2010.857	2.022	2021.7	regulate	Run3	regulate/STIM_005.jpg	99
2015.725	2.127	2126.9	regulate	Run3	regulate/STIM_006.jpg	99
2020.15	1.11	1110.3	regulate	Run3	regulate/STIM_006.jpg	100
2023.915	1.836	1836.3	regulate	Run3	regulate/STIM_006.jpg	99
2028.646	1.07	1070.4	regulate	Run3	regulate/STIM_006.jpg	100
2032.404	1.153	1152.6	regulate	Run3	regulate/STIM_007.jpg	100
2037.302	1.605	1604.7	regulate	Run3	regulate/STIM_007.jpg	99
2042.989	1.278	1277.7	regulate	Run3	regulate/STIM_007.jpg	100
2047.957	2.102	2101.9	regulate	Run3	regulate/STIM_007.jpg	99
2054.152	1.039	1039.3	regulate	Run3	regulate/STIM_008.jpg	99
2058.461	1.605	1604.8	regulate	Run3	regulate/STIM_008.jpg	99
2062.801	1.223	1223.0	regulate	Run3	regulate/STIM_008.jpg	99
2066.736	1.363	1362.6	regulate	Run3	regulate/STIM_008.jpg	99
2070.474	1.35	1349.8	regulate	Run3	regulate/STIM_009.jpg	99
2075.981	1.366	1366.5	regulate	Run3	regulate/STIM_009.jpg	99
2080.74	0.988	987.6	regulate	Run3	regulate/STIM_009.jpg	100
2084.753	1.434	1434.2	regulate	Run3	regulate/STIM_009.jpg	99
2089.243	1.983	1983.0	regulate	Run3	regulate/STIM_010.jpg	99
2094.079	1.801	1801.4	regulate	Run3	regulate/STIM_010.jpg	100
2098.588	1.725	1725.3	regulate	Run3	regulate/STIM_010.jpg	99
2104.075	1.062	1062.4	regulate	Run3	regulate/STIM_010.jpg	99
2109.041	1.912	1912.0	regulate	Run3	regulate/STIM_011.jpg	99
2113.366	1.901	1900.8	regulate	Run3	regulate/STIM_011.jpg	99
2117.953	1.9	1900.1	regulate	Run3	regulate/STIM_011.jpg	99
2122.343	1.715	1714.9	regulate	Run3	regulate/STIM_011.jpg	99
2127.438	2.032	2031.6	regulate	Run3	regulate/STIM_012.jpg	100
2133.642	2.101	2101.2	regulate	Run3	regulate/STIM_012.jpg	100
2139.452	2.098	2098.3	regulate	Run3	regulate/STIM_012.jpg	99
2144.733	1.937	1936.8	regulate	Run3	regulate/STIM_012.jpg	100
2150.425	1.519	1519.3	regulate	Run3	regulate/STIM_013.jpg	99
2156.121	1.403	1403.0	regulate	Run3	regulate/STIM_013.jpg	100
2160.591	1.4	1400.5	regulate	Run3	regulate/STIM_013.jpg	100
2165.72	1.423	1423.2	regulate	Run3	regulate/STIM_013.jpg	100
2170.934	1.755	1755.3	regulate	Run3	regulate/STIM_014.jpg	99
2175.04	1.495	1494.6	regulate	Run3	regulate/STIM_014.jpg	100
2179.016	1.377	1377.2	regulate	Run3	regulate/STIM_014.jpg	100
2183.464	1.704	1703.9	regulate	Run3	regulate/STIM_014.jpg	100
2187.682	1.75	1750.1	regulate	Run3	regulate/STIM_015.jpg	99
2192.274	1.883	1882.8	regulate	Run3	regulate/STIM_015.jpg	99
2197.899	1.82	1820.2	regulate	Run3	regulate/STIM_015.jpg	100
2203.596	1.055	1055.0	regulate	Run3	regulate/STIM_015.jpg	100
2208.673	1.907	1907.1	regulate	Run3	regulate/STIM_016.jpg	100
2213.732	1.908	1907.9	regulate	Run3	regulate/STIM_016.jpg	99
2218.819	1.809	1809.0	regulate	Run3	regulate/STIM_016.jpg	99
2223.849	1.224	1223.8	regulate	Run3	regulate/STIM_016.jpg	100
2227.636	1.759	1759.1	regulate	Run3	regulate/STIM_017.jpg	99
2233.046	1.802	1802.3	regulate	Run3	regulate/STIM_017.jpg	99
2238.893	2.087	2086.8	regulate	Run3	regulate/STIM_017.jpg	100
2245.217	1.96	1959.6	regulate	Run3	regulate/STIM_017.jpg	100
2249.556	2.121	2121.3	regulate	Run3	regulate/STIM_018.jpg	100
2255.442	1.81	1810.2	regulate	Run3	regulate/STIM_018.jpg	99
2260.138	1.854	1854.1	regulate	Run3	regulate/STIM_018.jpg	99
2266.047	2.033	2033.2	regulate	Run3	regulate/STIM_018.jpg	100
2270.813	1.638	1637.5	regulate	Run3	regulate/STIM_019.jpg	99
2276.378	1.178	1178.2	regulate	Run3	regulate/STIM_019.jpg	100
2281.208	2.004	2004.2	regulate	Run3	regulate/STIM_019.jpg	100
2285.527	1.062	1062.0	regulate	Run3	regulate/STIM_019.jpg	100
2289.08	0.932	932.3	regulate	Run3	regulate/STIM_020.jpg	99
2293.536	1.683	1683.0	regulate	Run3	regulate/STIM_020.jpg	99
2298.748	1.314	1313.9	regulate	Run3	regulate/STIM_020.jpg	100
2303.614	1.609	1608.6	regulate	Run3	regulate/STIM_020.jpg	99
2309.042	1.063	1063.0	regulate	Run3	regulate/STIM_021.jpg	100
2312.619	1.967	1967.1	regulate	Run3	regulate/STIM_021.jpg	100
2318.819	1.495	1494.9	regulate	Run3	regulate/STIM_021.jpg	99
2323.969	1.137	1136.6	regulate	Run3	regulate/STIM_021.jpg	100
2328.302	1.493	1493.3	regulate	Run3	regulate/STIM_022.jpg	99
2332.912	2.084	2083.7	regulate	Run3	regulate/STIM_022.jpg	99
2339.058	1.06	1060.3	regulate	Run3	regulate/STIM_022.jpg	100
2343.287	0.936	935.9	regulate	Run3	regulate/STIM_022.jpg	99
2347.546	1.225	1224.7	regulate	Run3	regulate/STIM_023.jpg	99
2352.725	1.865	1865.3	regulate	Run3	regulate/STIM_023.jpg	100
2357.888	2.149	2148.8	regulate	Run3	regulate/STIM_023.jpg	100
2362.937	1.18	1179.6	regulate	Run3	regulate/STIM_023.jpg	99
2366.767	1.397	1397.4	regulate	Run3	regulate/STIM_024.jpg	99
2371.395	1.864	1863.7	regulate	Run3	regulate/STIM_024.jpg	99
2375.76	2.157	2157.2	regulate	Run3	regulate/STIM_024.jpg	99
2381.326	1.944	1943.9	regulate	Run3	regulate/STIM_024.jpg	99
2385.873	0.928	928.5	regulate	Run3	regulate/STIM_025.jpg	99
2389.042	1.412	1411.7	regulate	Run3	regulate/STIM_025.jpg	100
2393.174	1.988	1987.6	regulate	Run3	regulate/STIM_025.jpg	99
2398.729	1.811	1811.3	regulate	Run3	regulate/STIM_025.jpg	99
2404.649	1.955	1954.9	regulate	Run3	regulate/STIM_026.jpg	100
2410.456	1.436	1436.4	regulate	Run3	regulate/STIM_026.jpg	100
2414.856	0.961	961.3	regulate	Run3	regulate/STIM_026.jpg	99
2419.459	2.053	2052.6	regulate	Run3	regulate/STIM_026.jpg	100
2424.081	0.999	999.4	regulate	Run3	regulate/STIM_027.jpg	100
2428.257	2.149	2149.3	regulate	Run3	regulate/STIM_027.jpg	99
2433.043	1.74	1739.9	regulate	Run3	regulate/STIM_027.jpg	99
2437.15	1.153	1153.1	regulate	Run3	regulate/STIM_027.jpg	99
2441.744	1.535	1534.6	regulate	Run3	regulate/STIM_028.jpg	100
2447.477	1.936	1936.1	regulate	Run3	regulate/STIM_028.jpg	99
2452.914	1.502	1502.2	regulate	Run3	regulate/STIM_028.jpg	100
2457.147	0.946	945.7	regulate	Run3	regulate/STIM_028.jpg	100
2461.005	1.529	1529.4	regulate	Run3	regulate/STIM_029.jpg	100
2466.208	2.104	2104.3	regulate	Run3	regulate/STIM_029.jpg	100
2471.393	1.944	1943.9	regulate	Run3	regulate/STIM_029.jpg	100
2477.28	1.63	1630.5	regulate	Run3	regulate/STIM_029.jpg	99
2482.715	0.758	757.7	observe	Run3	observe/STIM_000.jpg	100
2486.12	1.03	1030.4	observe	Run3	observe/STIM_000.jpg	99
2490.904	1.121	1120.6	observe	Run3	observe/STIM_000.jpg	99
2495.85	1.291	1290.9	observe	Run3	observe/STIM_000.jpg	99
2500.68	1.162	1161.7	observe	Run3	observe/STIM_001.jpg	100
2504.154	0.728	728.2	observe	Run3	observe/STIM_001.jpg	99
2507.824	1.245	1245.0	observe	Run3	observe/STIM_001.jpg	100
2513.049	1.237	1236.6	observe	Run3	observe/STIM_001.jpg	100
2517.254	0.915	915.4	observe	Run3	observe/STIM_002.jpg	100
2520.797	0.93	930.0	observe	Run3	observe/STIM_002.jpg	100
2523.883	0.72	720.1	observe	Run3	observe/STIM_002.jpg	99
2527.85	0.871	871.4	observe	Run3	observe/STIM_002.jpg	99
2531.914	1.245	1244.9	observe	Run3	observe/STIM_003.jpg	99
2537.056	0.713	712.9	observe	Run3	observe/STIM_003.jpg	100
2540.308	1.328	1327.7	observe	Run3	observe/STIM_003.jpg	99
2545.043	0.762	762.4	observe	Run3	observe/STIM_003.jpg	99
2547.926	1.213	1213.4	observe	Run3	observe/STIM_004.jpg	100
2552.085	0.79	790.5	observe	Run3	observe/STIM_004.jpg	100
2555.659	1.248	1248.3	observe	Run3	observe/STIM_004.jpg	100
2559.349	1.198	1198.5	observe	Run3	observe/STIM_004.jpg	99
2563.108	0.848	847.7	observe	Run3	observe/STIM_005.jpg	100
2566.299	1.05	1050.4	observe	Run3	observe/STIM_005.jpg	100
2569.841	1.301	1301.1	observe	Run3	observe/STIM_005.jpg	100
2574.673	0.793	792.7	observe	Run3	observe/STIM_005.jpg	100
2578.095	0.759	759.1	observe	Run3	observe/STIM_006.jpg	100
2581.642	1.323	1322.8	observe	Run3	observe/STIM_006.jpg	100
2586.605	0.712	711.8	observe	Run3	observe/STIM_006.jpg	99
2591.198	1.385	1385.2	observe	Run3	observe/STIM_006.jpg	99
2596.065	0.881	881.4	observe	Run3	observe/STIM_007.jpg	99
2599.889	0.976	976.1	observe	Run3	observe/STIM_007.jpg	99
2604.775	1.291	1290.6	observe	Run3	observe/STIM_007.jpg	99
2610.136	1.091	1091.3	observe	Run3	observe/STIM_007.jpg	100
2614.762	0.838	837.7	observe	Run3	observe/STIM_008.jpg	99
2618.678	0.958	958.1	observe	Run3	observe/STIM_008.jpg	99
2622.327	0.909	908.6	observe	Run3	observe/STIM_008.jpg	99
2625.511	1.009	1008.9	observe	Run3	observe/STIM_008.jpg	99
2629.479	1.348	1348.3	observe	Run3	observe/STIM_009.jpg	99
2634.048	1.267	1266.8	observe	Run3	observe/STIM_009.jpg	99
2638.474	1.02	1020.2	observe	Run3	observe/STIM_009.jpg	100
2642.653	1.153	1153.4	observe	Run3	observe/STIM_009.jpg	99
2646.899	0.826	825.9	observe	Run3	observe/STIM_010.jpg	99
2650.822	1.237	1236.8	observe	Run3	observe/STIM_010.jpg	100
2654.714	1.079	1079.3	observe	Run3	observe/STIM_010.jpg	99
2659.153	1.387	1387.4	observe	Run3	observe/STIM_010.jpg	100
2663.719	1.32	1320.2	observe	Run3	observe/STIM_011.jpg	100
2667.591	1.352	1351.6	observe	Run3	observe/STIM_011.jpg	100
2672.461	1.356	1356.3	observe	Run3	observe/STIM_011.jpg	99
2676.92	1.264	1263.6	observe	Run3	observe/STIM_011.jpg	100
2681.926	0.9	899.9	observe	Run3	observe/STIM_012.jpg	100
2685.923	0.89	890.5	observe	Run3	observe/STIM_012.jpg	99
2689.812	0.724	724.5	observe	Run3	observe/STIM_012.jpg	99
2693.862	0.841	840.9	observe	Run3	observe/STIM_012.jpg	99
2698.731	1.166	1166.0	observe	Run3	observe/STIM_013.jpg	99
2702.411	0.788	788.0	observe	Run3	observe/STIM_013.jpg	100
2706.8	1.082	1082.3	observe	Run3	observe/STIM_013.jpg	100
2710.043	1.008	1008.1	observe	Run3	observe/STIM_013.jpg	100
2714.484	1.306	1305.9	observe	Run3	observe/STIM_014.jpg	100
2719.173	0.947	947.4	observe	Run3	observe/STIM_014.jpg	100
2723.154	1.127	1126.9	observe	Run3	observe/STIM_014.jpg	100
2727.872	1.344	1344.3	observe	Run3	observe/STIM_014.jpg	99
2731.52	1.375	1375.3	observe	Run3	observe/STIM_015.jpg	100
2736.895	1.219	1219.4	observe	Run3	observe/STIM_015.jpg	99
2742.017	1.073	1073.3	observe	Run3	observe/STIM_015.jpg	100
2746.114	1.143	1142.8	observe	Run3	observe/STIM_015.jpg	99
2751.013	0.991	990.9	observe	Run3	observe/STIM_016.jpg	99
2755.502	1.197	1197.0	observe	Run3	observe/STIM_016.jpg	100
2760.614	1.04	1040.0	observe	Run3	observe/STIM_016.jpg	99
2764.524	1.218	1217.6	observe	Run3	observe/STIM_016.jpg	99
2767.99	1.135	1135.3	observe	Run3	observe/STIM_017.jpg	99
2771.812	1.36	1359.7	observe	Run3	observe/STIM_017.jpg	100
2776.503	1.16	1159.9	observe	Run3	observe/STIM_017.jpg	99
2780.95	1.037	1037.4	observe	Run3	observe/STIM_017.jpg	99
2786.075	0.886	885.6	observe	Run3	observe/STIM_018.jpg	100
2791.035	1.349	1349.3	observe	Run3	observe/STIM_018.jpg	99
2796.542	1.223	1223.2	observe	Run3	observe/STIM_018.jpg	100
2801.398	1.078	1077.6	observe	Run3	observe/STIM_018.jpg	99
2805.088	0.806	805.6	observe	Run3	observe/STIM_019.jpg	99
2809.57	1.274	1274.0	observe	Run3	observe/STIM_019.jpg	99
2814.669	0.775	774.6	observe	Run3	observe/STIM_019.jpg	100
2818.04	0.731	730.7	observe	Run3	observe/STIM_019.jpg	99
