onset	duration	accuracy_binary	trial_type	learning_stage	stimulus
0.0	1.345	1	regulate	Run1	regulate/STIM_000.jpg
4.442	1.695	1	regulate	Run1	regulate/STIM_000.jpg
9.754	1.426	1	regulate	Run1	regulate/STIM_000.jpg
14.158	2.566	1	regulate	Run1	regulate/STIM_000.jpg
20.194	1.7	1	regulate	Run1	regulate/STIM_001.jpg
25.883	1.628	1	regulate	Run1	regulate/STIM_001.jpg
31.293	1.918	1	regulate	Run1	regulate/STIM_001.jpg
36.25	2.427	1	regulate	Run1	regulate/STIM_001.jpg
42.251	2.758	1	regulate	Run1	regulate/STIM_002.jpg
48.464	1.347	1	regulate	Run1	regulate/STIM_002.jpg
52.286	1.602	0	regulate	Run1	regulate/STIM_002.jpg
58.065	1.834	1	regulate	Run1	regulate/STIM_002.jpg
63.052	1.646	0	regulate	Run1	regulate/STIM_003.jpg
68.037	1.76	1	regulate	Run1	regulate/STIM_003.jpg
73.399	2.666	1	regulate	Run1	regulate/STIM_003.jpg
79.29	1.523	0	regulate	Run1	regulate/STIM_003.jpg
83.225	2.18	1	regulate	Run1	regulate/STIM_004.jpg
87.828	2.602	1	regulate	Run1	regulate/STIM_004.jpg
94.26	2.758	1	regulate	Run1	regulate/STIM_004.jpg
100.174	2.052	1	regulate	Run1	regulate/STIM_004.jpg
104.96	1.643	1	regulate	Run1	regulate/STIM_005.jpg
110.273	2.415	0	regulate	Run1	regulate/STIM_005.jpg
115.251	1.2	0	regulate	Run1	regulate/STIM_005.jpg
118.962	1.265	1	regulate	Run1	regulate/STIM_005.jpg
124.011	1.848	1	regulate	Run1	regulate/STIM_006.jpg
129.294	1.417	0	regulate	Run1	regulate/STIM_006.jpg
134.106	2.613	0	regulate	Run1	regulate/STIM_006.jpg
139.462	1.297	1	regulate	Run1	regulate/STIM_006.jpg
143.39	1.47	0	regulate	Run1	regulate/STIM_007.jpg
147.966	2.421	1	regulate	Run1	regulate/STIM_007.jpg
153.767	2.358	1	regulate	Run1	regulate/STIM_007.jpg
160.165	1.475	1	regulate	Run1	regulate/STIM_007.jpg
163.926	2.721	1	regulate	Run1	regulate/STIM_008.jpg
170.283	2.542	1	regulate	Run1	regulate/STIM_008.jpg
176.556	2.508	1	regulate	Run1	regulate/STIM_008.jpg
183.228	2.362	0	regulate	Run1	regulate/STIM_008.jpg
188.131	2.979	1	regulate	Run1	regulate/STIM_009.jpg
195.269	2.862	0	regulate	Run1	regulate/STIM_009.jpg
202.483	1.549	1	regulate	Run1	regulate/STIM_009.jpg
206.833	1.553	0	regulate	Run1	regulate/STIM_009.jpg
211.641	2.973	0	regulate	Run1	regulate/STIM_010.jpg
218.753	1.756	1	regulate	Run1	regulate/STIM_010.jpg
223.471	2.422	1	regulate	Run1	regulate/STIM_010.jpg
228.551	2.418	0	regulate	Run1	regulate/STIM_010.jpg
233.718	2.595	1	regulate	Run1	regulate/STIM_011.jpg
239.038	2.111	1	regulate	Run1	regulate/STIM_011.jpg
245.084	1.406	1	regulate	Run1	regulate/STIM_011.jpg
250.433	2.274	1	regulate	Run1	regulate/STIM_011.jpg
256.58	2.925	1	regulate	Run1	regulate/STIM_012.jpg
262.771	2.172	0	regulate	Run1	regulate/STIM_012.jpg
268.851	2.602	1	regulate	Run1	regulate/STIM_012.jpg
274.207	1.757	1	regulate	Run1	regulate/STIM_012.jpg
279.971	2.927	1	regulate	Run1	regulate/STIM_013.jpg
286.411	1.562	1	regulate	Run1	regulate/STIM_013.jpg
291.212	1.683	1	regulate	Run1	regulate/STIM_013.jpg
295.678	2.118	1	regulate	Run1	regulate/STIM_013.jpg
301.16	2.385	1	regulate	Run1	regulate/STIM_014.jpg
307.141	1.365	1	regulate	Run1	regulate/STIM_014.jpg
311.552	1.412	1	regulate	Run1	regulate/STIM_014.jpg
316.808	2.47	1	regulate	Run1	regulate/STIM_014.jpg
322.578	2.885	1	regulate	Run1	regulate/STIM_015.jpg
329.336	1.598	0	regulate	Run1	regulate/STIM_015.jpg
333.168	2.035	1	regulate	Run1	regulate/STIM_015.jpg
338.784	2.124	1	regulate	Run1	regulate/STIM_015.jpg
344.841	2.026	1	regulate	Run1	regulate/STIM_016.jpg
351.044	2.212	0	regulate	Run1	regulate/STIM_016.jpg
355.929	1.798	1	regulate	Run1	regulate/STIM_016.jpg
360.879	2.453	1	regulate	Run1	regulate/STIM_016.jpg
366.046	2.158	1	regulate	Run1	regulate/STIM_017.jpg
370.52	1.701	0	regulate	Run1	regulate/STIM_017.jpg
375.429	1.614	1	regulate	Run1	regulate/STIM_017.jpg
379.792	1.282	1	regulate	Run1	regulate/STIM_017.jpg
384.946	2.215	0	regulate	Run1	regulate/STIM_018.jpg
390.083	1.668	1	regulate	Run1	regulate/STIM_018.jpg
394.129	2.696	1	regulate	Run1	regulate/STIM_018.jpg
400.981	1.181	1	regulate	Run1	regulate/STIM_018.jpg
404.467	2.539	1	regulate	Run1	regulate/STIM_019.jpg
409.933	1.514	0	regulate	Run1	regulate/STIM_019.jpg
415.343	1.196	1	regulate	Run1	regulate/STIM_019.jpg
419.771	2.28	1	regulate	Run1	regulate/STIM_019.jpg
424.61	1.652	1	regulate	Run1	regulate/STIM_020.jpg
428.691	2.043	1	regulate	Run1	regulate/STIM_020.jpg
434.562	2.502	1	regulate	Run1	regulate/STIM_020.jpg
440.855	2.519	1	regulate	Run1	regulate/STIM_020.jpg
447.587	2.597	1	regulate	Run1	regulate/STIM_021.jpg
454.444	2.289	1	regulate	Run1	regulate/STIM_021.jpg
459.204	1.811	1	regulate	Run1	regulate/STIM_021.jpg
464.724	2.005	0	regulate	Run1	regulate/STIM_021.jpg
469.296	1.782	1	regulate	Run1	regulate/STIM_022.jpg
475.039	1.354	1	regulate	Run1	regulate/STIM_022.jpg
480.312	1.544	1	regulate	Run1	regulate/STIM_022.jpg
485.606	2.406	1	regulate	Run1	regulate/STIM_022.jpg
491.678	1.804	1	regulate	Run1	regulate/STIM_023.jpg
497.03	2.129	1	regulate	Run1	regulate/STIM_023.jpg
501.968	2.444	1	regulate	Run1	regulate/STIM_023.jpg
507.724	2.554	0	regulate	Run1	regulate/STIM_023.jpg
513.052	2.763	1	regulate	Run1	regulate/STIM_024.jpg
518.342	2.139	1	regulate	Run1	regulate/STIM_024.jpg
523.095	2.376	1	regulate	Run1	regulate/STIM_024.jpg
527.888	1.35	1	regulate	Run1	regulate/STIM_024.jpg
531.676	2.24	1	regulate	Run1	regulate/STIM_025.jpg
537.273	1.631	1	regulate	Run1	regulate/STIM_025.jpg
541.645	1.866	0	regulate	Run1	regulate/STIM_025.jpg
546.522	1.308	1	regulate	Run1	regulate/STIM_025.jpg
551.261	2.26	1	regulate	Run1	regulate/STIM_026.jpg
556.549	2.473	1	regulate	Run1	regulate/STIM_026.jpg
562.212	1.429	1	regulate	Run1	regulate/STIM_026.jpg
566.578	1.824	1	regulate	Run1	regulate/STIM_026.jpg
571.36	2.304	1	regulate	Run1	regulate/STIM_027.jpg
577.36	2.538	1	regulate	Run1	regulate/STIM_027.jpg
583.386	1.867	1	regulate	Run1	regulate/STIM_027.jpg
587.892	1.419	1	regulate	Run1	regulate/STIM_027.jpg
591.755	2.653	0	regulate	Run1	regulate/STIM_028.jpg
598.267	1.393	1	regulate	Run1	regulate/STIM_028.jpg
602.505	2.605	1	regulate	Run1	regulate/STIM_028.jpg
609.149	1.467	1	regulate	Run1	regulate/STIM_028.jpg
612.961	1.468	1	regulate	Run1	regulate/STIM_029.jpg
617.621	1.997	1	regulate	Run1	regulate/STIM_029.jpg
622.751	1.281	1	regulate	Run1	regulate/STIM_029.jpg
627.128	2.487	1	regulate	Run1	regulate/STIM_029.jpg
633.869	0.98	1	observe	Run1	observe/STIM_000.jpg
637.718	1.128	1	observe	Run1	observe/STIM_000.jpg
642.488	1.32	1	observe	Run1	observe/STIM_000.jpg
647.124	1.314	0	observe	Run1	observe/STIM_000.jpg
651.858	0.948	1	observe	Run1	observe/STIM_001.jpg
655.526	1.113	0	observe	Run1	observe/STIM_001.jpg
659.163	0.85	1	observe	Run1	observe/STIM_001.jpg
663.233	1.327	1	observe	Run1	observe/STIM_001.jpg
668.016	1.337	1	observe	Run1	observe/STIM_002.jpg
672.632	0.763	1	observe	Run1	observe/STIM_002.jpg
675.592	0.788	1	observe	Run1	observe/STIM_002.jpg
680.343	1.186	1	observe	Run1	observe/STIM_002.jpg
685.58	1.166	1	observe	Run1	observe/STIM_003.jpg
690.332	1.2	1	observe	Run1	observe/STIM_003.jpg
695.107	0.852	1	observe	Run1	observe/STIM_003.jpg
699.862	1.161	0	observe	Run1	observe/STIM_003.jpg
703.992	1.257	1	observe	Run1	observe/STIM_004.jpg
709.054	1.042	1	observe	Run1	observe/STIM_004.jpg
713.661	1.38	1	observe	Run1	observe/STIM_004.jpg
717.53	1.026	1	observe	Run1	observe/STIM_004.jpg
722.378	1.294	1	observe	Run1	observe/STIM_005.jpg
727.114	1.176	0	observe	Run1	observe/STIM_005.jpg
730.577	0.883	1	observe	Run1	observe/STIM_005.jpg
734.724	1.383	1	observe	Run1	observe/STIM_005.jpg
739.435	1.366	1	observe	Run1	observe/STIM_006.jpg
743.311	0.955	0	observe	Run1	observe/STIM_006.jpg
747.023	1.261	1	observe	Run1	observe/STIM_006.jpg
750.991	1.27	1	observe	Run1	observe/STIM_006.jpg
756.237	0.927	1	observe	Run1	observe/STIM_007.jpg
760.93	1.011	1	observe	Run1	observe/STIM_007.jpg
764.6	1.386	1	observe	Run1	observe/STIM_007.jpg
768.729	1.052	1	observe	Run1	observe/STIM_007.jpg
772.996	1.071	1	observe	Run1	observe/STIM_008.jpg
777.596	1.252	0	observe	Run1	observe/STIM_008.jpg
782.616	0.876	1	observe	Run1	observe/STIM_008.jpg
786.668	0.921	1	observe	Run1	observe/STIM_008.jpg
789.969	1.139	1	observe	Run1	observe/STIM_009.jpg
794.665	1.123	0	observe	Run1	observe/STIM_009.jpg
799.27	1.317	1	observe	Run1	observe/STIM_009.jpg
803.964	1.149	1	observe	Run1	observe/STIM_009.jpg
809.147	0.901	1	observe	Run1	observe/STIM_010.jpg
813.723	0.775	1	observe	Run1	observe/STIM_010.jpg
816.925	0.804	0	observe	Run1	observe/STIM_010.jpg
820.079	0.875	1	observe	Run1	observe/STIM_010.jpg
823.655	0.835	0	observe	Run1	observe/STIM_011.jpg
826.855	1.229	0	observe	Run1	observe/STIM_011.jpg
830.659	0.964	1	observe	Run1	observe/STIM_011.jpg
834.851	1.119	1	observe	Run1	observe/STIM_011.jpg
838.779	1.076	1	observe	Run1	observe/STIM_012.jpg
843.42	1.09	1	observe	Run1	observe/STIM_012.jpg
848.577	1.322	1	observe	Run1	observe/STIM_012.jpg
853.241	0.979	1	observe	Run1	observe/STIM_012.jpg
857.221	1.311	1	observe	Run1	observe/STIM_013.jpg
862.487	1.155	1	observe	Run1	observe/STIM_013.jpg
866.133	0.774	1	observe	Run1	observe/STIM_013.jpg
870.086	1.387	1	observe	Run1	observe/STIM_013.jpg
873.892	1.24	1	observe	Run1	observe/STIM_014.jpg
878.927	1.398	1	observe	Run1	observe/STIM_014.jpg
883.08	1.254	1	observe	Run1	observe/STIM_014.jpg
887.783	0.766	1	observe	Run1	observe/STIM_014.jpg
892.249	1.041	1	observe	Run1	observe/STIM_015.jpg
895.769	1.292	1	observe	Run1	observe/STIM_015.jpg
899.868	1.084	1	observe	Run1	observe/STIM_015.jpg
903.288	1.309	1	observe	Run1	observe/STIM_015.jpg
907.4	1.281	1	observe	Run1	observe/STIM_016.jpg
912.465	1.119	1	observe	Run1	observe/STIM_016.jpg
916.32	1.113	0	observe	Run1	observe/STIM_016.jpg
921.475	1.247	0	observe	Run1	observe/STIM_016.jpg
925.751	0.928	1	observe	Run1	observe/STIM_017.jpg
928.952	1.14	1	observe	Run1	observe/STIM_017.jpg
933.595	0.754	1	observe	Run1	observe/STIM_017.jpg
936.615	0.823	1	observe	Run1	observe/STIM_017.jpg
941.216	0.974	0	observe	Run1	observe/STIM_018.jpg
946.122	0.982	1	observe	Run1	observe/STIM_018.jpg
950.262	0.792	1	observe	Run1	observe/STIM_018.jpg
954.1	0.712	1	observe	Run1	observe/STIM_018.jpg
957.755	1.004	1	observe	Run1	observe/STIM_019.jpg
961.711	1.364	1	observe	Run1	observe/STIM_019.jpg
965.389	0.752	1	observe	Run1	observe/STIM_019.jpg
969.395	1.004	1	observe	Run1	observe/STIM_019.jpg
973.846	1.806	0	regulate	Run2	regulate/STIM_000.jpg
979.34	1.562	1	regulate	Run2	regulate/STIM_000.jpg
984.182	2.026	1	regulate	Run2	regulate/STIM_000.jpg
988.97	2.051	1	regulate	Run2	regulate/STIM_000.jpg
993.821	2.596	1	regulate	Run2	regulate/STIM_001.jpg
999.969	1.555	1	regulate	Run2	regulate/STIM_001.jpg
1004.324	1.281	1	regulate	Run2	regulate/STIM_001.jpg
1007.924	1.138	1	regulate	Run2	regulate/STIM_001.jpg
1011.827	2.197	1	regulate	Run2	regulate/STIM_002.jpg
1017.514	1.874	1	regulate	Run2	regulate/STIM_002.jpg
1023.006	1.354	1	regulate	Run2	regulate/STIM_002.jpg
1026.578	1.321	1	regulate	Run2	regulate/STIM_002.jpg
1031.318	2.052	0	regulate	Run2	regulate/STIM_003.jpg
1036.987	1.959	1	regulate	Run2	regulate/STIM_003.jpg
1042.361	1.229	1	regulate	Run2	regulate/STIM_003.jpg
1045.844	1.121	1	regulate	Run2	regulate/STIM_003.jpg
1050.176	1.413	1	regulate	Run2	regulate/STIM_004.jpg
1054.742	2.14	1	regulate	Run2	regulate/STIM_004.jpg
1060.976	1.96	1	regulate	Run2	regulate/STIM_004.jpg
1066.784	2.049	1	regulate	Run2	regulate/STIM_004.jpg
1072.921	2.447	0	regulate	Run2	regulate/STIM_005.jpg
1078.011	1.896	1	regulate	Run2	regulate/STIM_005.jpg
1084.099	1.848	1	regulate	Run2	regulate/STIM_005.jpg
1088.534	1.76	1	regulate	Run2	regulate/STIM_005.jpg
1093.99	1.983	1	regulate	Run2	regulate/STIM_006.jpg
1099.199	2.239	1	regulate	Run2	regulate/STIM_006.jpg
1104.477	1.74	1	regulate	Run2	regulate/STIM_006.jpg
1108.581	1.87	1	regulate	Run2	regulate/STIM_006.jpg
1113.154	1.165	0	regulate	Run2	regulate/STIM_007.jpg
1118.243	2.434	1	regulate	Run2	regulate/STIM_007.jpg
1124.693	1.162	1	regulate	Run2	regulate/STIM_007.jpg
1129.72	1.947	1	regulate	Run2	regulate/STIM_007.jpg
1134.765	2.355	1	regulate	Run2	regulate/STIM_008.jpg
1140.474	1.57	1	regulate	Run2	regulate/STIM_008.jpg
1145.694	1.137	1	regulate	Run2	regulate/STIM_008.jpg
1149.815	1.43	1	regulate	Run2	regulate/STIM_008.jpg
1153.864	2.424	1	regulate	Run2	regulate/STIM_009.jpg
1160.405	2.301	1	regulate	Run2	regulate/STIM_009.jpg
1166.123	1.041	0	regulate	Run2	regulate/STIM_009.jpg
1169.835	2.029	1	regulate	Run2	regulate/STIM_009.jpg
1175.68	2.363	1	regulate	Run2	regulate/STIM_010.jpg
1181.224	2.1	1	regulate	Run2	regulate/STIM_010.jpg
1187.143	1.491	1	regulate	Run2	regulate/STIM_010.jpg
1192.002	1.716	1	regulate	Run2	regulate/STIM_010.jpg
1197.188	1.663	1	regulate	Run2	regulate/STIM_011.jpg
1201.349	1.372	1	regulate	Run2	regulate/STIM_011.jpg
1206.23	1.044	1	regulate	Run2	regulate/STIM_011.jpg
1210.344	2.132	1	regulate	Run2	regulate/STIM_011.jpg
1214.924	2.409	1	regulate	Run2	regulate/STIM_012.jpg
1220.502	1.475	1	regulate	Run2	regulate/STIM_012.jpg
1224.51	1.844	1	regulate	Run2	regulate/STIM_012.jpg
1229.335	1.677	0	regulate	Run2	regulate/STIM_012.jpg
1234.008	1.273	1	regulate	Run2	regulate/STIM_013.jpg
1237.884	1.172	1	regulate	Run2	regulate/STIM_013.jpg
1243.108	1.156	1	regulate	Run2	regulate/STIM_013.jpg
1247.306	1.066	1	regulate	Run2	regulate/STIM_013.jpg
1251.687	1.924	1	regulate	Run2	regulate/STIM_014.jpg
1257.108	2.102	1	regulate	Run2	regulate/STIM_014.jpg
1261.834	2.049	1	regulate	Run2	regulate/STIM_014.jpg
1267.164	1.439	1	regulate	Run2	regulate/STIM_014.jpg
1271.186	1.473	1	regulate	Run2	regulate/STIM_015.jpg
1275.589	1.454	1	regulate	Run2	regulate/STIM_015.jpg
1280.377	1.512	1	regulate	Run2	regulate/STIM_015.jpg
1285.073	2.111	1	regulate	Run2	regulate/STIM_015.jpg
1289.682	2.599	1	regulate	Run2	regulate/STIM_016.jpg
1295.206	1.311	1	regulate	Run2	regulate/STIM_016.jpg
1299.844	1.118	1	regulate	Run2	regulate/STIM_016.jpg
1303.252	1.226	1	regulate	Run2	regulate/STIM_016.jpg
1308.113	1.876	0	regulate	Run2	regulate/STIM_017.jpg
1313.546	2.346	1	regulate	Run2	regulate/STIM_017.jpg
1320.025	1.166	1	regulate	Run2	regulate/STIM_017.jpg
1323.542	1.744	1	regulate	Run2	regulate/STIM_017.jpg
1329.09	1.124	1	regulate	Run2	regulate/STIM_018.jpg
1333.845	2.262	1	regulate	Run2	regulate/STIM_018.jpg
1340.148	1.339	0	regulate	Run2	regulate/STIM_018.jpg
1345.653	1.481	0	regulate	Run2	regulate/STIM_018.jpg
1350.624	2.147	1	regulate	Run2	regulate/STIM_019.jpg
1356.654	2.085	1	regulate	Run2	regulate/STIM_019.jpg
1362.712	1.185	1	regulate	Run2	regulate/STIM_019.jpg
1367.587	1.078	1	regulate	Run2	regulate/STIM_019.jpg
1372.802	1.961	1	regulate	Run2	regulate/STIM_020.jpg
1378.476	2.12	0	regulate	Run2	regulate/STIM_020.jpg
1382.989	1.648	1	regulate	Run2	regulate/STIM_020.jpg
1387.073	1.005	1	regulate	Run2	regulate/STIM_020.jpg
1391.809	1.634	0	regulate	Run2	regulate/STIM_021.jpg
1396.175	2.149	1	regulate	Run2	regulate/STIM_021.jpg
1400.925	1.642	1	regulate	Run2	regulate/STIM_021.jpg
1406.532	1.671	1	regulate	Run2	regulate/STIM_021.jpg
1410.475	2.348	1	regulate	Run2	regulate/STIM_022.jpg
1415.639	1.535	1	regulate	Run2	regulate/STIM_022.jpg
1420.573	1.75	1	regulate	Run2	regulate/STIM_022.jpg
1425.748	1.769	1	regulate	Run2	regulate/STIM_022.jpg
1430.194	2.12	1	regulate	Run2	regulate/STIM_023.jpg
1435.634	1.615	1	regulate	Run2	regulate/STIM_023.jpg
1440.845	1.717	1	regulate	Run2	regulate/STIM_023.jpg
1446.219	1.53	1	regulate	Run2	regulate/STIM_023.jpg
1450.655	2.37	1	regulate	Run2	regulate/STIM_024.jpg
1456.647	1.474	1	regulate	Run2	regulate/STIM_024.jpg
1461.437	1.081	1	regulate	Run2	regulate/STIM_024.jpg
1465.074	1.058	1	regulate	Run2	regulate/STIM_024.jpg
1469.271	2.309	0	regulate	Run2	regulate/STIM_025.jpg
1475.178	1.991	1	regulate	Run2	regulate/STIM_025.jpg
1480.189	1.334	1	regulate	Run2	regulate/STIM_025.jpg
1483.973	1.434	1	regulate	Run2	regulate/STIM_025.jpg
1489.228	2.398	0	regulate	Run2	regulate/STIM_026.jpg
1494.811	2.014	1	regulate	Run2	regulate/STIM_026.jpg
1500.563	1.167	1	regulate	Run2	regulate/STIM_026.jpg
1504.516	1.446	1	regulate	Run2	regulate/STIM_026.jpg
1508.777	1.713	1	regulate	Run2	regulate/STIM_027.jpg
1512.941	2.386	1	regulate	Run2	regulate/STIM_027.jpg
1518.287	1.838	1	regulate	Run2	regulate/STIM_027.jpg
1522.58	1.811	1	regulate	Run2	regulate/STIM_027.jpg
1527.363	1.394	1	regulate	Run2	regulate/STIM_028.jpg
1532.24	1.729	1	regulate	Run2	regulate/STIM_028.jpg
1537.547	1.856	1	regulate	Run2	regulate/STIM_028.jpg
1542.641	1.536	1	regulate	Run2	regulate/STIM_028.jpg
1547.314	2.453	1	regulate	Run2	regulate/STIM_029.jpg
1553.472	1.595	1	regulate	Run2	regulate/STIM_029.jpg
1557.878	1.437	1	regulate	Run2	regulate/STIM_029.jpg
1562.152	1.716	1	regulate	Run2	regulate/STIM_029.jpg
1567.606	0.733	1	observe	Run2	observe/STIM_000.jpg
1571.292	1.358	1	observe	Run2	observe/STIM_000.jpg
1576.625	0.724	1	observe	Run2	observe/STIM_000.jpg
1580.134	1.085	1	observe	Run2	observe/STIM_000.jpg
1583.461	1.39	1	observe	Run2	observe/STIM_001.jpg
1587.845	0.931	1	observe	Run2	observe/STIM_001.jpg
1591.43	1.4	1	observe	Run2	observe/STIM_001.jpg
1596.567	1.076	1	observe	Run2	observe/STIM_001.jpg
1601.186	1.363	1	observe	Run2	observe/STIM_002.jpg
1605.67	0.892	0	observe	Run2	observe/STIM_002.jpg
1610.342	1.284	0	observe	Run2	observe/STIM_002.jpg
1615.142	0.957	1	observe	Run2	observe/STIM_002.jpg
1619.635	0.893	1	observe	Run2	observe/STIM_003.jpg
1623.001	1.29	0	observe	Run2	observe/STIM_003.jpg
1627.532	1.287	0	observe	Run2	observe/STIM_003.jpg
1632.443	0.814	1	observe	Run2	observe/STIM_003.jpg
1636.167	1.192	1	observe	Run2	observe/STIM_004.jpg
1640.056	1.405	1	observe	Run2	observe/STIM_004.jpg
1644.034	0.884	0	observe	Run2	observe/STIM_004.jpg
1647.737	0.727	1	observe	Run2	observe/STIM_004.jpg
1651.085	1.091	1	observe	Run2	observe/STIM_005.jpg
1655.344	1.168	1	observe	Run2	observe/STIM_005.jpg
1659.36	1.375	1	observe	Run2	observe/STIM_005.jpg
1664.247	0.867	1	observe	Run2	observe/STIM_005.jpg
1668.767	1.321	1	observe	Run2	observe/STIM_006.jpg
1672.456	1.155	1	observe	Run2	observe/STIM_006.jpg
1677.71	1.225	1	observe	Run2	observe/STIM_006.jpg
1682.927	0.961	1	observe	Run2	observe/STIM_006.jpg
1688.015	0.927	1	observe	Run2	observe/STIM_007.jpg
1692.676	0.707	0	observe	Run2	observe/STIM_007.jpg
1696.552	1.037	1	observe	Run2	observe/STIM_007.jpg
1699.939	1.319	1	observe	Run2	observe/STIM_007.jpg
1704.103	0.964	1	observe	Run2	observe/STIM_008.jpg
1709.168	1.23	1	observe	Run2	observe/STIM_008.jpg
1714.177	1.355	1	observe	Run2	observe/STIM_008.jpg
1719.358	1.35	1	observe	Run2	observe/STIM_008.jpg
1724.114	1.086	1	observe	Run2	observe/STIM_009.jpg
1728.908	0.709	1	observe	Run2	observe/STIM_009.jpg
1732.537	0.985	1	observe	Run2	observe/STIM_009.jpg
1736.768	1.394	1	observe	Run2	observe/STIM_009.jpg
1741.517	1.188	1	observe	Run2	observe/STIM_010.jpg
1746.209	0.776	1	observe	Run2	observe/STIM_010.jpg
1750.415	1.253	1	observe	Run2	observe/STIM_010.jpg
1754.328	1.372	1	observe	Run2	observe/STIM_010.jpg
1757.993	1.165	1	observe	Run2	observe/STIM_011.jpg
1762.509	1.026	1	observe	Run2	observe/STIM_011.jpg
1766.288	1.279	1	observe	Run2	observe/STIM_011.jpg
1769.807	0.951	1	observe	Run2	observe/STIM_011.jpg
1773.004	0.864	1	observe	Run2	observe/STIM_012.jpg
1776.301	1.082	1	observe	Run2	observe/STIM_012.jpg
1781.035	0.814	1	observe	Run2	observe/STIM_012.jpg
1785.919	1.267	1	observe	Run2	observe/STIM_012.jpg
1790.738	0.871	1	observe	Run2	observe/STIM_013.jpg
1793.965	1.299	1	observe	Run2	observe/STIM_013.jpg
1798.445	1.229	1	observe	Run2	observe/STIM_013.jpg
1802.186	0.892	1	observe	Run2	observe/STIM_013.jpg
1805.831	0.871	1	observe	Run2	observe/STIM_014.jpg
1809.847	0.907	1	observe	Run2	observe/STIM_014.jpg
1813.542	0.84	1	observe	Run2	observe/STIM_014.jpg
1817.045	1.028	1	observe	Run2	observe/STIM_014.jpg
1821.869	0.718	1	observe	Run2	observe/STIM_015.jpg
1825.614	1.389	1	observe	Run2	observe/STIM_015.jpg
1831.189	0.81	1	observe	Run2	observe/STIM_015.jpg
1835.178	1.14	0	observe	Run2	observe/STIM_015.jpg
1840.021	1.05	1	observe	Run2	observe/STIM_016.jpg
1844.227	0.84	1	observe	Run2	observe/STIM_016.jpg
1847.497	1.033	1	observe	Run2	observe/STIM_016.jpg
1850.726	0.855	1	observe	Run2	observe/STIM_016.jpg
1854.032	0.751	0	observe	Run2	observe/STIM_017.jpg
1857.049	0.814	1	observe	Run2	observe/STIM_017.jpg
1861.266	1.264	0	observe	Run2	observe/STIM_017.jpg
1865.002	0.959	1	observe	Run2	observe/STIM_017.jpg
1869.621	1.119	1	observe	Run2	observe/STIM_018.jpg
1873.15	0.963	1	observe	Run2	observe/STIM_018.jpg
1877.947	1.072	1	observe	Run2	observe/STIM_018.jpg
1881.613	1.116	1	observe	Run2	observe/STIM_018.jpg
1885.855	0.88	1	observe	Run2	observe/STIM_019.jpg
1890.211	1.388	1	observe	Run2	observe/STIM_019.jpg
1893.88	1.336	1	observe	Run2	observe/STIM_019.jpg
1897.739	0.729	1	observe	Run2	observe/STIM_019.jpg
1900.856	0.991	1	regulate	Run3	regulate/STIM_000.jpg
1905.142	1.406	1	regulate	Run3	regulate/STIM_000.jpg
1909.98	2.077	1	regulate	Run3	regulate/STIM_000.jpg
1914.371	1.638	1	regulate	Run3	regulate/STIM_000.jpg
1919.381	1.987	1	regulate	Run3	regulate/STIM_001.jpg
1924.11	1.809	1	regulate	Run3	regulate/STIM_001.jpg
1928.39	1.595	1	regulate	Run3	regulate/STIM_001.jpg
1933.265	1.827	1	regulate	Run3	regulate/STIM_001.jpg
1937.596	1.724	1	regulate	Run3	regulate/STIM_002.jpg
1941.891	1.528	1	regulate	Run3	regulate/STIM_002.jpg
1947.579	1.722	1	regulate	Run3	regulate/STIM_002.jpg
1952.645	1.164	1	regulate	Run3	regulate/STIM_002.jpg
1957.602	1.763	1	regulate	Run3	regulate/STIM_003.jpg
1962.428	1.109	1	regulate	Run3	regulate/STIM_003.jpg
1967.642	1.196	1	regulate	Run3	regulate/STIM_003.jpg
1972.758	1.078	0	regulate	Run3	regulate/STIM_003.jpg
1976.803	2.009	1	regulate	Run3	regulate/STIM_004.jpg
1982.482	1.508	1	regulate	Run3	regulate/STIM_004.jpg
1988.008	1.225	1	regulate	Run3	regulate/STIM_004.jpg
1992.303	1.964	1	regulate	Run3	regulate/STIM_004.jpg
1997.16	1.743	1	regulate	Run3	regulate/STIM_005.jpg
2002.247	2.03	1	regulate	Run3	regulate/STIM_005.jpg
2007.174	1.244	1	regulate	Run3	regulate/STIM_005.jpg
2010.857	2.022	1	regulate	Run3	regulate/STIM_005.jpg
2015.725	2.127	1	regulate	Run3	regulate/STIM_006.jpg
2020.15	1.11	1	regulate	Run3	regulate/STIM_006.jpg
2023.915	1.836	1	regulate	Run3	regulate/STIM_006.jpg
2028.646	1.07	1	regulate	Run3	regulate/STIM_006.jpg
2032.404	1.153	1	regulate	Run3	regulate/STIM_007.jpg
2037.302	1.605	1	regulate	Run3	regulate/STIM_007.jpg
2042.989	1.278	1	regulate	Run3	regulate/STIM_007.jpg
2047.957	2.102	1	regulate	Run3	regulate/STIM_007.jpg
2054.152	1.039	1	regulate	Run3	regulate/STIM_008.jpg
2058.461	1.605	1	regulate	Run3	regulate/STIM_008.jpg
2062.801	1.223	1	regulate	Run3	regulate/STIM_008.jpg
2066.736	1.363	1	regulate	Run3	regulate/STIM_008.jpg
2070.474	1.35	1	regulate	Run3	regulate/STIM_009.jpg
2075.981	1.366	1	regulate	Run3	regulate/STIM_009.jpg
2080.74	0.988	1	regulate	Run3	regulate/STIM_009.jpg
2084.753	1.434	1	regulate	Run3	regulate/STIM_009.jpg
2089.243	1.983	1	regulate	Run3	regulate/STIM_010.jpg
2094.079	1.801	1	regulate	Run3	regulate/STIM_010.jpg
2098.588	1.725	1	regulate	Run3	regulate/STIM_010.jpg
2104.075	1.062	1	regulate	Run3	regulate/STIM_010.jpg
2109.041	1.912	1	regulate	Run3	regulate/STIM_011.jpg
2113.366	1.901	1	regulate	Run3	regulate/STIM_011.jpg
2117.953	1.9	1	regulate	Run3	regulate/STIM_011.jpg
2122.343	1.715	1	regulate	Run3	regulate/STIM_011.jpg
2127.438	2.032	0	regulate	Run3	regulate/STIM_012.jpg
2133.642	2.101	1	regulate	Run3	regulate/STIM_012.jpg
2139.452	2.098	1	regulate	Run3	regulate/STIM_012.jpg
2144.733	1.937	1	regulate	Run3	regulate/STIM_012.jpg
2150.425	1.519	1	regulate	Run3	regulate/STIM_013.jpg
2156.121	1.403	1	regulate	Run3	regulate/STIM_013.jpg
2160.591	1.4	1	regulate	Run3	regulate/STIM_013.jpg
2165.72	1.423	1	regulate	Run3	regulate/STIM_013.jpg
2170.934	1.755	0	regulate	Run3	regulate/STIM_014.jpg
2175.04	1.495	1	regulate	Run3	regulate/STIM_014.jpg
2179.016	1.377	1	regulate	Run3	regulate/STIM_014.jpg
2183.464	1.704	1	regulate	Run3	regulate/STIM_014.jpg
2187.682	1.75	1	regulate	Run3	regulate/STIM_015.jpg
2192.274	1.883	1	regulate	Run3	regulate/STIM_015.jpg
2197.899	1.82	1	regulate	Run3	regulate/STIM_015.jpg
2203.596	1.055	1	regulate	Run3	regulate/STIM_015.jpg
2208.673	1.907	1	regulate	Run3	regulate/STIM_016.jpg
2213.732	1.908	1	regulate	Run3	regulate/STIM_016.jpg
2218.819	1.809	1	regulate	Run3	regulate/STIM_016.jpg
2223.849	1.224	1	regulate	Run3	regulate/STIM_016.jpg
2227.636	1.759	1	regulate	Run3	regulate/STIM_017.jpg
2233.046	1.802	1	regulate	Run3	regulate/STIM_017.jpg
2238.893	2.087	1	regulate	Run3	regulate/STIM_017.jpg
2245.217	1.96	1	regulate	Run3	regulate/STIM_017.jpg
2249.556	2.121	1	regulate	Run3	regulate/STIM_018.jpg
2255.442	1.81	1	regulate	Run3	regulate/STIM_018.jpg
2260.138	1.854	1	regulate	Run3	regulate/STIM_018.jpg
2266.047	2.033	1	regulate	Run3	regulate/STIM_018.jpg
2270.813	1.638	1	regulate	Run3	regulate/STIM_019.jpg
2276.378	1.178	1	regulate	Run3	regulate/STIM_019.jpg
2281.208	2.004	0	regulate	Run3	regulate/STIM_019.jpg
2285.527	1.062	1	regulate	Run3	regulate/STIM_019.jpg
2289.08	0.932	1	regulate	Run3	regulate/STIM_020.jpg
2293.536	1.683	1	regulate	Run3	regulate/STIM_020.jpg
2298.748	1.314	1	regulate	Run3	regulate/STIM_020.jpg
2303.614	1.609	1	regulate	Run3	regulate/STIM_020.jpg
2309.042	1.063	1	regulate	Run3	regulate/STIM_021.jpg
2312.619	1.967	1	regulate	Run3	regulate/STIM_021.jpg
2318.819	1.495	1	regulate	Run3	regulate/STIM_021.jpg
2323.969	1.137	1	regulate	Run3	regulate/STIM_021.jpg
2328.302	1.493	1	regulate	Run3	regulate/STIM_022.jpg
2332.912	2.084	1	regulate	Run3	regulate/STIM_022.jpg
2339.058	1.06	1	regulate	Run3	regulate/STIM_022.jpg
2343.287	0.936	1	regulate	Run3	regulate/STIM_022.jpg
2347.546	1.225	1	regulate	Run3	regulate/STIM_023.jpg
2352.725	1.865	1	regulate	Run3	regulate/STIM_023.jpg
2357.888	2.149	1	regulate	Run3	regulate/STIM_023.jpg
2362.937	1.18	1	regulate	Run3	regulate/STIM_023.jpg
2366.767	1.397	1	regulate	Run3	regulate/STIM_024.jpg
2371.395	1.864	1	regulate	Run3	regulate/STIM_024.jpg
2375.76	2.157	1	regulate	Run3	regulate/STIM_024.jpg
2381.326	1.944	1	regulate	Run3	regulate/STIM_024.jpg
2385.873	0.928	1	regulate	Run3	regulate/STIM_025.jpg
2389.042	1.412	1	regulate	Run3	regulate/STIM_025.jpg
2393.174	1.988	1	regulate	Run3	regulate/STIM_025.jpg
2398.729	1.811	1	regulate	Run3	regulate/STIM_025.jpg
2404.649	1.955	0	regulate	Run3	regulate/STIM_026.jpg
2410.456	1.436	1	regulate	Run3	regulate/STIM_026.jpg
2414.856	0.961	1	regulate	Run3	regulate/STIM_026.jpg
2419.459	2.053	1	regulate	Run3	regulate/STIM_026.jpg
2424.081	0.999	1	regulate	Run3	regulate/STIM_027.jpg
2428.257	2.149	1	regulate	Run3	regulate/STIM_027.jpg
2433.043	1.74	1	regulate	Run3	regulate/STIM_027.jpg
2437.15	1.153	1	regulate	Run3	regulate/STIM_027.jpg
2441.744	1.535	1	regulate	Run3	regulate/STIM_028.jpg
2447.477	1.936	1	regulate	Run3	regulate/STIM_028.jpg
2452.914	1.502	1	regulate	Run3	regulate/STIM_028.jpg
2457.147	0.946	1	regulate	Run3	regulate/STIM_028.jpg
2461.005	1.529	1	regulate	Run3	regulate/STIM_029.jpg
2466.208	2.104	1	regulate	Run3	regulate/STIM_029.jpg
2471.393	1.944	1	regulate	Run3	regulate/STIM_029.jpg
2477.28	1.63	1	regulate	Run3	regulate/STIM_029.jpg
2482.715	0.758	1	observe	Run3	observe/STIM_000.jpg
2486.12	1.03	1	observe	Run3	observe/STIM_000.jpg
2490.904	1.121	0	observe	Run3	observe/STIM_000.jpg
2495.85	1.291	1	observe	Run3	observe/STIM_000.jpg
2500.68	1.162	1	observe	Run3	observe/STIM_001.jpg
2504.154	0.728	1	observe	Run3	observe/STIM_001.jpg
2507.824	1.245	1	observe	Run3	observe/STIM_001.jpg
2513.049	1.237	1	observe	Run3	observe/STIM_001.jpg
2517.254	0.915	1	observe	Run3	observe/STIM_002.jpg
2520.797	0.93	1	observe	Run3	observe/STIM_002.jpg
2523.883	0.72	1	observe	Run3	observe/STIM_002.jpg
2527.85	0.871	1	observe	Run3	observe/STIM_002.jpg
2531.914	1.245	1	observe	Run3	observe/STIM_003.jpg
2537.056	0.713	1	observe	Run3	observe/STIM_003.jpg
2540.308	1.328	1	observe	Run3	observe/STIM_003.jpg
2545.043	0.762	1	observe	Run3	observe/STIM_003.jpg
2547.926	1.213	0	observe	Run3	observe/STIM_004.jpg
2552.085	0.79	1	observe	Run3	observe/STIM_004.jpg
2555.659	1.248	1	observe	Run3	observe/STIM_004.jpg
2559.349	1.198	1	observe	Run3	observe/STIM_004.jpg
2563.108	0.848	0	observe	Run3	observe/STIM_005.jpg
2566.299	1.05	1	observe	Run3	observe/STIM_005.jpg
2569.841	1.301	1	observe	Run3	observe/STIM_005.jpg
2574.673	0.793	1	observe	Run3	observe/STIM_005.jpg
2578.095	0.759	1	observe	Run3	observe/STIM_006.jpg
2581.642	1.323	1	observe	Run3	observe/STIM_006.jpg
2586.605	0.712	1	observe	Run3	observe/STIM_006.jpg
2591.198	1.385	1	observe	Run3	observe/STIM_006.jpg
2596.065	0.881	1	observe	Run3	observe/STIM_007.jpg
2599.889	0.976	1	observe	Run3	observe/STIM_007.jpg
2604.775	1.291	1	observe	Run3	observe/STIM_007.jpg
2610.136	1.091	1	observe	Run3	observe/STIM_007.jpg
2614.762	0.838	1	observe	Run3	observe/STIM_008.jpg
2618.678	0.958	1	observe	Run3	observe/STIM_008.jpg
2622.327	0.909	1	observe	Run3	observe/STIM_008.jpg
2625.511	1.009	1	observe	Run3	observe/STIM_008.jpg
2629.479	1.348	1	observe	Run3	observe/STIM_009.jpg
2634.048	1.267	1	observe	Run3	observe/STIM_009.jpg
2638.474	1.02	1	observe	Run3	observe/STIM_009.jpg
2642.653	1.153	1	observe	Run3	observe/STIM_009.jpg
2646.899	0.826	1	observe	Run3	observe/STIM_010.jpg
2650.822	1.237	1	observe	Run3	observe/STIM_010.jpg
2654.714	1.079	1	observe	Run3	observe/STIM_010.jpg
2659.153	1.387	1	observe	Run3	observe/STIM_010.jpg
2663.719	1.32	1	observe	Run3	observe/STIM_011.jpg
2667.591	1.352	1	observe	Run3	observe/STIM_011.jpg
2672.461	1.356	0	observe	Run3	observe/STIM_011.jpg
2676.92	1.264	1	observe	Run3	observe/STIM_011.jpg
2681.926	0.9	1	observe	Run3	observe/STIM_012.jpg
2685.923	0.89	1	observe	Run3	observe/STIM_012.jpg
2689.812	0.724	1	observe	Run3	observe/STIM_012.jpg
2693.862	0.841	1	observe	Run3	observe/STIM_012.jpg
2698.731	1.166	0	observe	Run3	observe/STIM_013.jpg
2702.411	0.788	1	observe	Run3	observe/STIM_013.jpg
2706.8	1.082	1	observe	Run3	observe/STIM_013.jpg
2710.043	1.008	1	observe	Run3	observe/STIM_013.jpg
2714.484	1.306	1	observe	Run3	observe/STIM_014.jpg
2719.173	0.947	0	observe	Run3	observe/STIM_014.jpg
2723.154	1.127	1	observe	Run3	observe/STIM_014.jpg
2727.872	1.344	1	observe	Run3	observe/STIM_014.jpg
2731.52	1.375	1	observe	Run3	observe/STIM_015.jpg
2736.895	1.219	1	observe	Run3	observe/STIM_015.jpg
2742.017	1.073	1	observe	Run3	observe/STIM_015.jpg
2746.114	1.143	1	observe	Run3	observe/STIM_015.jpg
2751.013	0.991	1	observe	Run3	observe/STIM_016.jpg
2755.502	1.197	1	observe	Run3	observe/STIM_016.jpg
2760.614	1.04	1	observe	Run3	observe/STIM_016.jpg
2764.524	1.218	1	observe	Run3	observe/STIM_016.jpg
2767.99	1.135	1	observe	Run3	observe/STIM_017.jpg
2771.812	1.36	1	observe	Run3	observe/STIM_017.jpg
2776.503	1.16	1	observe	Run3	observe/STIM_017.jpg
2780.95	1.037	1	observe	Run3	observe/STIM_017.jpg
2786.075	0.886	1	observe	Run3	observe/STIM_018.jpg
2791.035	1.349	1	observe	Run3	observe/STIM_018.jpg
2796.542	1.223	1	observe	Run3	observe/STIM_018.jpg
2801.398	1.078	1	observe	Run3	observe/STIM_018.jpg
2805.088	0.806	1	observe	Run3	observe/STIM_019.jpg
2809.57	1.274	0	observe	Run3	observe/STIM_019.jpg
2814.669	0.775	1	observe	Run3	observe/STIM_019.jpg
2818.04	0.731	1	observe	Run3	observe/STIM_019.jpg
