onset	duration	response_time_ms	trial_type	learning_stage	stimulus	response_port
0.0	1.84	1839.5	generate	Run1	generate/STIM_000.jpg	99
5.27	2.221	2221.1	generate	Run1	generate/STIM_000.jpg	99
10.994	2.066	2065.7	generate	Run1	generate/STIM_000.jpg	100
15.913	1.306	1305.6	generate	Run1	generate/STIM_000.jpg	100
20.521	0.956	955.9	generate	Run1	generate/STIM_000.jpg	100
24.249	1.977	1976.8	generate	Run1	generate/STIM_001.jpg	99
29.475	2.258	2258.4	generate	Run1	generate/STIM_001.jpg	99
34.707	1.553	1553.2	generate	Run1	generate/STIM_001.jpg	99
40.008	1.333	1332.9	generate	Run1	generate/STIM_001.jpg	100
44.966	2.222	2222.3	generate	Run1	generate/STIM_001.jpg	100
49.374	2.351	2351.4	generate	Run1	generate/STIM_002.jpg	100
54.668	2.69	2689.5	generate	Run1	generate/STIM_002.jpg	100
61.007	1.865	1865.4	generate	Run1	generate/STIM_002.jpg	100
65.926	1.947	1947.4	generate	Run1	generate/STIM_002.jpg	99
71.59	1.107	1107.4	generate	Run1	generate/STIM_002.jpg	99
75.414	2.249	2249.3	generate	Run1	generate/STIM_003.jpg	99
81.462	2.134	2134.5	generate	Run1	generate/STIM_003.jpg	99
85.733	1.073	1072.9	generate	Run1	generate/STIM_003.jpg	99
90.259	2.254	2254.0	generate	Run1	generate/STIM_003.jpg	100
95.196	2.065	2064.7	generate	Run1	generate/STIM_003.jpg	99
99.754	1.561	1561.1	generate	Run1	generate/STIM_004.jpg	100
104.97	2.225	2225.3	generate	Run1	generate/STIM_004.jpg	100
109.816	2.546	2546.2	generate	Run1	generate/STIM_004.jpg	100
116.259	1.568	1568.0	generate	Run1	generate/STIM_004.jpg	99
121.85	1.339	1338.7	generate	Run1	generate/STIM_004.jpg	99
126.463	1.37	1369.8	generate	Run1	generate/STIM_005.jpg	99
131.725	1.621	1621.2	generate	Run1	generate/STIM_005.jpg	99
136.408	2.234	2234.0	generate	Run1	generate/STIM_005.jpg	100
140.881	1.772	1772.2	generate	Run1	generate/STIM_005.jpg	99
146.379	1.516	1516.5	generate	Run1	generate/STIM_005.jpg	100
150.224	2.481	2480.8	generate	Run1	generate/STIM_006.jpg	99
155.711	2.5	2500.4	generate	Run1	generate/STIM_006.jpg	99
161.59	2.225	2225.1	generate	Run1	generate/STIM_006.jpg	99
166.243	1.844	1844.3	generate	Run1	generate/STIM_006.jpg	100
171.719	1.651	1650.9	generate	Run1	generate/STIM_006.jpg	99
175.695	2.88	2879.8	generate	Run1	generate/STIM_007.jpg	99
181.845	2.045	2045.4	generate	Run1	generate/STIM_007.jpg	99
187.579	2.308	2307.9	generate	Run1	generate/STIM_007.jpg	100
193.89	1.934	1933.9	generate	Run1	generate/STIM_007.jpg	99
199.82	2.019	2018.7	generate	Run1	generate/STIM_007.jpg	99
204.941	1.334	1334.4	generate	Run1	generate/STIM_008.jpg	100
208.628	1.84	1839.9	generate	Run1	generate/STIM_008.jpg	99
214.491	1.241	1241.3	generate	Run1	generate/STIM_008.jpg	100
217.783	1.174	1173.8	generate	Run1	generate/STIM_008.jpg	99
222.616	1.102	1102.3	generate	Run1	generate/STIM_008.jpg	99
227.718	1.208	1208.2	generate	Run1	generate/STIM_009.jpg	100
232.505	1.529	1528.6	generate	Run1	generate/STIM_009.jpg	100
237.456	1.756	1756.3	generate	Run1	generate/STIM_009.jpg	99
241.695	1.705	1705.3	generate	Run1	generate/STIM_009.jpg	100
246.881	1.019	1018.7	generate	Run1	generate/STIM_009.jpg	100
250.797	1.162	1161.6	generate	Run1	generate/STIM_010.jpg	100
254.554	1.805	1804.9	generate	Run1	generate/STIM_010.jpg	100
259.653	1.95	1949.5	generate	Run1	generate/STIM_010.jpg	100
264.149	1.13	1130.2	generate	Run1	generate/STIM_010.jpg	100
267.836	1.233	1232.7	generate	Run1	generate/STIM_010.jpg	99
271.87	1.738	1737.9	generate	Run1	generate/STIM_011.jpg	100
275.845	1.693	1693.2	generate	Run1	generate/STIM_011.jpg	99
280.3	1.925	1925.1	generate	Run1	generate/STIM_011.jpg	100
286.201	2.334	2334.0	generate	Run1	generate/STIM_011.jpg	99
290.944	1.472	1472.3	generate	Run1	generate/STIM_011.jpg	99
296.078	2.387	2387.1	generate	Run1	generate/STIM_012.jpg	99
302.029	1.287	1286.7	generate	Run1	generate/STIM_012.jpg	99
306.73	2.349	2348.7	generate	Run1	generate/STIM_012.jpg	99
311.699	1.494	1494.5	generate	Run1	generate/STIM_012.jpg	99
315.32	0.946	946.5	generate	Run1	generate/STIM_012.jpg	100
319.49	2.144	2144.1	generate	Run1	generate/STIM_013.jpg	100
323.832	2.144	2144.1	generate	Run1	generate/STIM_013.jpg	100
328.629	1.122	1121.5	generate	Run1	generate/STIM_013.jpg	99
333.314	1.052	1052.4	generate	Run1	generate/STIM_013.jpg	99
337.101	2.215	2215.4	generate	Run1	generate/STIM_013.jpg	99
342.319	2.317	2317.3	generate	Run1	generate/STIM_014.jpg	99
348.087	2.364	2364.0	generate	Run1	generate/STIM_014.jpg	100
353.465	1.46	1460.0	generate	Run1	generate/STIM_014.jpg	100
357.877	1.088	1087.8	generate	Run1	generate/STIM_014.jpg	100
362.787	1.527	1526.9	generate	Run1	generate/STIM_014.jpg	100
368.086	2.38	2379.8	generate	Run1	generate/STIM_015.jpg	99
373.855	1.487	1486.6	generate	Run1	generate/STIM_015.jpg	99
377.544	2.436	2435.6	generate	Run1	generate/STIM_015.jpg	100
383.741	1.3	1299.7	generate	Run1	generate/STIM_015.jpg	100
387.657	1.577	1577.4	generate	Run1	generate/STIM_015.jpg	100
393.01	1.695	1695.4	generate	Run1	generate/STIM_016.jpg	100
397.692	2.349	2349.1	generate	Run1	generate/STIM_016.jpg	100
402.772	2.053	2053.0	generate	Run1	generate/STIM_016.jpg	100
408.165	1.317	1317.3	generate	Run1	generate/STIM_016.jpg	100
412.365	1.304	1304.5	generate	Run1	generate/STIM_016.jpg	99
417.186	2.078	2077.5	generate	Run1	generate/STIM_017.jpg	100
422.579	1.283	1282.9	generate	Run1	generate/STIM_017.jpg	100
426.699	1.32	1320.4	generate	Run1	generate/STIM_017.jpg	100
430.908	2.343	2343.0	generate	Run1	generate/STIM_017.jpg	100
435.6	1.368	1367.8	generate	Run1	generate/STIM_017.jpg	100
439.507	2.431	2431.4	generate	Run1	generate/STIM_018.jpg	100
445.199	1.431	1431.1	generate	Run1	generate/STIM_018.jpg	99
449.019	1.93	1929.7	generate	Run1	generate/STIM_018.jpg	99
453.245	1.043	1042.8	generate	Run1	generate/STIM_018.jpg	99
457.11	1.937	1936.8	generate	Run1	generate/STIM_018.jpg	100
461.597	1.652	1651.6	generate	Run1	generate/STIM_019.jpg	100
465.975	2.449	2449.3	generate	Run1	generate/STIM_019.jpg	100
472.361	1.118	1117.8	generate	Run1	generate/STIM_019.jpg	99
476.902	1.75	1749.5	generate	Run1	generate/STIM_019.jpg	100
482.296	1.173	1173.4	generate	Run1	generate/STIM_019.jpg	99
485.629	1.618	1618.5	generate	Run1	generate/STIM_020.jpg	100
490.716	2.472	2472.0	generate	Run1	generate/STIM_020.jpg	99
496.344	2.556	2555.6	generate	Run1	generate/STIM_020.jpg	99
501.787	1.915	1915.0	generate	Run1	generate/STIM_020.jpg	99
505.817	1.622	1622.3	generate	Run1	generate/STIM_020.jpg	99
510.798	1.796	1796.4	generate	Run1	generate/STIM_021.jpg	100
516.053	1.197	1197.1	generate	Run1	generate/STIM_021.jpg	100
520.8	1.138	1138.2	generate	Run1	generate/STIM_021.jpg	99
524.766	1.756	1755.9	generate	Run1	generate/STIM_021.jpg	99
528.961	2.251	2250.9	generate	Run1	generate/STIM_021.jpg	99
534.191	2.113	2113.1	generate	Run1	generate/STIM_022.jpg	99
538.999	2.679	2678.8	generate	Run1	generate/STIM_022.jpg	99
544.912	2.142	2142.2	generate	Run1	generate/STIM_022.jpg	99
550.234	1.756	1755.8	generate	Run1	generate/STIM_022.jpg	100
554.294	1.354	1354.3	generate	Run1	generate/STIM_022.jpg	100
559.381	1.194	1193.7	generate	Run1	generate/STIM_023.jpg	99
564.366	2.368	2368.4	generate	Run1	generate/STIM_023.jpg	99
569.451	1.953	1953.3	generate	Run1	generate/STIM_023.jpg	99
575.375	1.564	1563.8	generate	Run1	generate/STIM_023.jpg	100
580.547	1.027	1026.7	generate	Run1	generate/STIM_023.jpg	99
584.192	1.335	1334.6	generate	Run1	generate/STIM_024.jpg	99
588.353	1.494	1494.5	generate	Run1	generate/STIM_024.jpg	99
593.222	1.591	1591.4	generate	Run1	generate/STIM_024.jpg	100
597.409	1.282	1282.3	generate	Run1	generate/STIM_024.jpg	99
601.682	1.51	1509.9	generate	Run1	generate/STIM_024.jpg	100
605.596	0.647	647.4	repeat	Run1	repeat/STIM_000.jpg	100
610.065	0.951	951.3	repeat	Run1	repeat/STIM_000.jpg	99
613.198	0.489	489.3	repeat	Run1	repeat/STIM_000.jpg	99
616.062	0.953	953.3	repeat	Run1	repeat/STIM_000.jpg	99
619.145	0.934	934.4	repeat	Run1	repeat/STIM_000.jpg	99
623.358	0.532	531.8	repeat	Run1	repeat/STIM_001.jpg	99
626.373	0.578	577.8	repeat	Run1	repeat/STIM_001.jpg	99
629.064	0.884	884.3	repeat	Run1	repeat/STIM_001.jpg	99
633.922	0.819	818.7	repeat	Run1	repeat/STIM_001.jpg	100
638.576	0.857	857.1	repeat	Run1	repeat/STIM_001.jpg	100
642.375	0.732	731.6	repeat	Run1	repeat/STIM_002.jpg	100
646.425	0.77	769.5	repeat	Run1	repeat/STIM_002.jpg	100
650.623	0.952	951.5	repeat	Run1	repeat/STIM_002.jpg	99
654.362	0.833	832.6	repeat	Run1	repeat/STIM_002.jpg	100
657.691	0.75	750.2	repeat	Run1	repeat/STIM_002.jpg	99
660.591	0.669	668.6	repeat	Run1	repeat/STIM_003.jpg	99
665.047	0.922	922.0	repeat	Run1	repeat/STIM_003.jpg	99
669.83	0.961	961.4	repeat	Run1	repeat/STIM_003.jpg	99
674.556	0.522	522.4	repeat	Run1	repeat/STIM_003.jpg	100
677.121	0.618	617.6	repeat	Run1	repeat/STIM_003.jpg	99
679.991	0.657	657.1	repeat	Run1	repeat/STIM_004.jpg	99
684.074	0.563	563.4	repeat	Run1	repeat/STIM_004.jpg	100
688.377	0.52	520.0	repeat	Run1	repeat/STIM_004.jpg	99
690.977	0.95	949.6	repeat	Run1	repeat/STIM_004.jpg	100
695.906	0.729	729.2	repeat	Run1	repeat/STIM_004.jpg	99
698.83	0.626	625.6	repeat	Run1	repeat/STIM_005.jpg	99
701.887	0.617	616.6	repeat	Run1	repeat/STIM_005.jpg	100
705.046	0.861	861.2	repeat	Run1	repeat/STIM_005.jpg	99
709.416	0.661	660.8	repeat	Run1	repeat/STIM_005.jpg	100
714.009	0.935	935.4	repeat	Run1	repeat/STIM_005.jpg	100
717.899	0.946	945.9	repeat	Run1	repeat/STIM_006.jpg	100
721.523	0.686	685.5	repeat	Run1	repeat/STIM_006.jpg	100
725.527	0.794	794.5	repeat	Run1	repeat/STIM_006.jpg	99
728.466	0.605	605.0	repeat	Run1	repeat/STIM_006.jpg	99
732.124	0.738	738.4	repeat	Run1	repeat/STIM_006.jpg	100
736.208	0.877	876.8	repeat	Run1	repeat/STIM_007.jpg	100
739.606	0.507	506.9	repeat	Run1	repeat/STIM_007.jpg	99
742.792	0.85	849.9	repeat	Run1	repeat/STIM_007.jpg	99
746.998	0.87	869.6	repeat	Run1	repeat/STIM_007.jpg	100
751.023	0.78	780.5	repeat	Run1	repeat/STIM_007.jpg	100
754.881	0.86	859.9	repeat	Run1	repeat/STIM_008.jpg	100
758.925	0.747	746.8	repeat	Run1	repeat/STIM_008.jpg	99
763.689	0.708	707.8	repeat	Run1	repeat/STIM_008.jpg	99
766.995	0.814	814.3	repeat	Run1	repeat/STIM_008.jpg	100
770.411	0.66	660.4	repeat	Run1	repeat/STIM_008.jpg	100
774.38	0.69	690.2	repeat	Run1	repeat/STIM_009.jpg	100
777.764	0.713	713.2	repeat	Run1	repeat/STIM_009.jpg	100
781.599	0.704	703.8	repeat	Run1	repeat/STIM_009.jpg	99
785.432	0.738	737.6	repeat	Run1	repeat/STIM_009.jpg	100
788.864	0.859	858.9	repeat	Run1	repeat/STIM_009.jpg	99
792.614	0.602	601.8	repeat	Run1	repeat/STIM_010.jpg	100
795.456	0.67	669.6	repeat	Run1	repeat/STIM_010.jpg	100
798.893	0.834	833.9	repeat	Run1	repeat/STIM_010.jpg	99
802.306	0.881	880.7	repeat	Run1	repeat/STIM_010.jpg	99
806.037	0.893	893.3	repeat	Run1	repeat/STIM_010.jpg	100
810.12	0.515	515.0	repeat	Run1	repeat/STIM_011.jpg	99
813.254	0.733	732.9	repeat	Run1	repeat/STIM_011.jpg	99
817.032	0.654	653.8	repeat	Run1	repeat/STIM_011.jpg	99
821.041	0.923	923.0	repeat	Run1	repeat/STIM_011.jpg	100
824.66	0.488	487.6	repeat	Run1	repeat/STIM_011.jpg	99
828.842	0.813	812.9	repeat	Run1	repeat/STIM_012.jpg	100
833.471	0.894	893.6	repeat	Run1	repeat/STIM_012.jpg	100
837.679	0.607	606.9	repeat	Run1	repeat/STIM_012.jpg	100
842.172	0.782	782.2	repeat	Run1	repeat/STIM_012.jpg	99
846.612	0.837	837.3	repeat	Run1	repeat/STIM_012.jpg	99
850.676	0.848	848.4	repeat	Run1	repeat/STIM_013.jpg	100
855.225	0.668	667.9	repeat	Run1	repeat/STIM_013.jpg	100
857.944	0.942	942.4	repeat	Run1	repeat/STIM_013.jpg	100
862.617	0.64	639.7	repeat	Run1	repeat/STIM_013.jpg	100
866.777	0.922	922.1	repeat	Run1	repeat/STIM_013.jpg	100
871.39	0.821	821.0	repeat	Run1	repeat/STIM_014.jpg	99
876.098	0.924	923.8	repeat	Run1	repeat/STIM_014.jpg	99
880.608	0.537	536.6	repeat	Run1	repeat/STIM_014.jpg	99
883.892	0.714	713.8	repeat	Run1	repeat/STIM_014.jpg	100
887.309	0.871	871.3	repeat	Run1	repeat/STIM_014.jpg	100
890.273	1.51	1509.9	generate	Run2	generate/STIM_000.jpg	100
895.687	1.102	1101.5	generate	Run2	generate/STIM_000.jpg	100
899.518	1.655	1655.2	generate	Run2	generate/STIM_000.jpg	100
904.896	1.579	1579.1	generate	Run2	generate/STIM_000.jpg	100
910.186	1.322	1322.2	generate	Run2	generate/STIM_000.jpg	100
914.709	1.398	1398.1	generate	Run2	generate/STIM_001.jpg	100
920.014	1.261	1261.4	generate	Run2	generate/STIM_001.jpg	99
923.756	0.891	890.8	generate	Run2	generate/STIM_001.jpg	100
928.643	1.148	1148.3	generate	Run2	generate/STIM_001.jpg	100
932.195	1.227	1227.1	generate	Run2	generate/STIM_001.jpg	100
936.454	2.45	2450.4	generate	Run2	generate/STIM_002.jpg	99
942.702	2.299	2298.9	generate	Run2	generate/STIM_002.jpg	99
949.09	1.94	1939.7	generate	Run2	generate/STIM_002.jpg	99
954.803	0.988	988.5	generate	Run2	generate/STIM_002.jpg	99
959.765	1.731	1731.0	generate	Run2	generate/STIM_002.jpg	99
965.107	1.406	1406.5	generate	Run2	generate/STIM_003.jpg	100
969.331	1.655	1655.3	generate	Run2	generate/STIM_003.jpg	99
974.529	1.649	1649.3	generate	Run2	generate/STIM_003.jpg	100
978.884	1.201	1200.8	generate	Run2	generate/STIM_003.jpg	99
983.075	1.384	1383.5	generate	Run2	generate/STIM_003.jpg	99
987.516	1.138	1137.5	generate	Run2	generate/STIM_004.jpg	100
992.557	1.702	1702.1	generate	Run2	generate/STIM_004.jpg	100
997.197	1.214	1213.7	generate	Run2	generate/STIM_004.jpg	100
1001.329	1.912	1912.1	generate	Run2	generate/STIM_004.jpg	99
1006.347	1.424	1424.4	generate	Run2	generate/STIM_004.jpg	99
1011.293	1.089	1089.3	generate	Run2	generate/STIM_005.jpg	100
1015.598	1.256	1255.9	generate	Run2	generate/STIM_005.jpg	100
1020.863	1.5	1500.0	generate	Run2	generate/STIM_005.jpg	100
1025.887	1.562	1561.6	generate	Run2	generate/STIM_005.jpg	99
1031.479	1.345	1344.8	generate	Run2	generate/STIM_005.jpg	99
1036.095	1.282	1281.7	generate	Run2	generate/STIM_006.jpg	100
1040.969	1.27	1269.9	generate	Run2	generate/STIM_006.jpg	99
1045.992	1.81	1810.0	generate	Run2	generate/STIM_006.jpg	100
1051.179	1.483	1483.4	generate	Run2	generate/STIM_006.jpg	99
1056.573	1.384	1384.5	generate	Run2	generate/STIM_006.jpg	99
1060.042	1.301	1300.8	generate	Run2	generate/STIM_007.jpg	100
1064.994	1.402	1402.0	generate	Run2	generate/STIM_007.jpg	99
1069.409	1.525	1525.0	generate	Run2	generate/STIM_007.jpg	99
1074.504	1.265	1265.1	generate	Run2	generate/STIM_007.jpg	99
1079.517	1.265	1265.1	generate	Run2	generate/STIM_007.jpg	100
1084.65	1.588	1587.5	generate	Run2	generate/STIM_008.jpg	99
1088.329	1.353	1353.2	generate	Run2	generate/STIM_008.jpg	99
1093.38	1.086	1085.5	generate	Run2	generate/STIM_008.jpg	99
1096.794	1.209	1209.1	generate	Run2	generate/STIM_008.jpg	99
1101.209	1.294	1293.7	generate	Run2	generate/STIM_008.jpg	100
1105.966	1.182	1182.5	generate	Run2	generate/STIM_009.jpg	100
1110.555	1.399	1398.8	generate	Run2	generate/STIM_009.jpg	100
1114.276	0.875	875.1	generate	Run2	generate/STIM_009.jpg	99
1118.688	1.49	1490.3	generate	Run2	generate/STIM_009.jpg	99
1122.881	0.818	818.4	generate	Run2	generate/STIM_009.jpg	99
1126.542	2.367	2366.8	generate	Run2	generate/STIM_010.jpg	100
1132.915	1.394	1394.5	generate	Run2	generate/STIM_010.jpg	99
1137.792	1.943	1942.7	generate	Run2	generate/STIM_010.jpg	99
1143.797	1.367	1366.6	generate	Run2	generate/STIM_010.jpg	99
1147.318	1.566	1566.0	generate	Run2	generate/STIM_010.jpg	99
1152.035	1.101	1100.6	generate	Run2	generate/STIM_011.jpg	100
1156.291	1.811	1811.1	generate	Run2	generate/STIM_011.jpg	99
1160.471	1.901	1900.9	generate	Run2	generate/STIM_011.jpg	100
1165.763	1.305	1304.6	generate	Run2	generate/STIM_011.jpg	100
1169.892	1.033	1033.1	generate	Run2	generate/STIM_011.jpg	100
1174.43	1.87	1870.0	generate	Run2	generate/STIM_012.jpg	99
1178.896	1.238	1237.9	generate	Run2	generate/STIM_012.jpg	100
1184.007	1.999	1998.8	generate	Run2	generate/STIM_012.jpg	99
1189.278	1.73	1729.8	generate	Run2	generate/STIM_012.jpg	99
1193.624	1.237	1236.6	generate	Run2	generate/STIM_012.jpg	99
1197.231	1.087	1087.4	generate	Run2	generate/STIM_013.jpg	100
1201.952	1.493	1493.4	generate	Run2	generate/STIM_013.jpg	100
1206.241	0.913	912.9	generate	Run2	generate/STIM_013.jpg	100
1210.775	1.743	1743.3	generate	Run2	generate/STIM_013.jpg	100
1215.758	1.209	1208.9	generate	Run2	generate/STIM_013.jpg	99
1220.79	1.456	1456.4	generate	Run2	generate/STIM_014.jpg	100
1224.485	1.645	1645.0	generate	Run2	generate/STIM_014.jpg	100
1229.975	1.844	1844.2	generate	Run2	generate/STIM_014.jpg	100
1235.337	2.004	2003.6	generate	Run2	generate/STIM_014.jpg	99
1240.34	1.18	1180.4	generate	Run2	generate/STIM_014.jpg	99
1244.94	1.518	1518.0	generate	Run2	generate/STIM_015.jpg	99
1250.487	2.002	2002.1	generate	Run2	generate/STIM_015.jpg	99
1256.421	1.901	1901.4	generate	Run2	generate/STIM_015.jpg	99
1261.312	1.479	1479.4	generate	Run2	generate/STIM_015.jpg	100
1264.914	0.923	922.6	generate	Run2	generate/STIM_015.jpg	100
1267.885	1.328	1327.5	generate	Run2	generate/STIM_016.jpg	99
1272.649	1.486	1485.9	generate	Run2	generate/STIM_016.jpg	100
1276.417	1.329	1328.8	generate	Run2	generate/STIM_016.jpg	99
1280.223	1.372	1372.2	generate	Run2	generate/STIM_016.jpg	100
1284.798	1.114	1113.5	generate	Run2	generate/STIM_016.jpg	99
1289.084	1.797	1797.0	generate	Run2	generate/STIM_017.jpg	99
1293.534	1.79	1790.3	generate	Run2	generate/STIM_017.jpg	100
1299.252	1.664	1664.1	generate	Run2	generate/STIM_017.jpg	100
1303.286	1.09	1090.0	generate	Run2	generate/STIM_017.jpg	99
1308.058	1.895	1894.9	generate	Run2	generate/STIM_017.jpg	99
1313.381	1.143	1143.4	generate	Run2	generate/STIM_018.jpg	99
1318.069	1.262	1262.3	generate	Run2	generate/STIM_018.jpg	100
1322.126	1.57	1570.5	generate	Run2	generate/STIM_018.jpg	100
1327.273	0.817	816.9	generate	Run2	generate/STIM_018.jpg	99
1330.48	1.084	1084.2	generate	Run2	generate/STIM_018.jpg	100
1334.253	1.128	1128.3	generate	Run2	generate/STIM_019.jpg	99
1337.686	1.367	1367.3	generate	Run2	generate/STIM_019.jpg	100
1341.597	1.601	1601.0	generate	Run2	generate/STIM_019.jpg	99
1346.498	0.836	835.5	generate	Run2	generate/STIM_019.jpg	99
1351.089	1.473	1473.1	generate	Run2	generate/STIM_019.jpg	100
1355.161	1.771	1770.9	generate	Run2	generate/STIM_020.jpg	99
1359.686	1.433	1433.3	generate	Run2	generate/STIM_020.jpg	99
1363.676	1.99	1990.5	generate	Run2	generate/STIM_020.jpg	99
1369.333	0.906	906.2	generate	Run2	generate/STIM_020.jpg	100
1372.976	1.77	1770.3	generate	Run2	generate/STIM_020.jpg	100
1378.726	2.184	2183.5	generate	Run2	generate/STIM_021.jpg	100
1383.568	1.842	1841.9	generate	Run2	generate/STIM_021.jpg	99
1389.179	1.582	1582.0	generate	Run2	generate/STIM_021.jpg	99
1393.182	1.784	1784.0	generate	Run2	generate/STIM_021.jpg	99
1397.124	0.888	888.0	generate	Run2	generate/STIM_021.jpg	99
1400.804	1.368	1367.7	generate	Run2	generate/STIM_022.jpg	100
1405.586	1.028	1027.6	generate	Run2	generate/STIM_022.jpg	99
1408.884	2.15	2150.4	generate	Run2	generate/STIM_022.jpg	100
1413.48	1.488	1487.6	generate	Run2	generate/STIM_022.jpg	99
1417.56	1.107	1107.3	generate	Run2	generate/STIM_022.jpg	100
1422.102	2.024	2023.7	generate	Run2	generate/STIM_023.jpg	99
1426.599	1.623	1622.8	generate	Run2	generate/STIM_023.jpg	100
1431.623	1.54	1540.4	generate	Run2	generate/STIM_023.jpg	100
1436.162	1.508	1508.2	generate	Run2	generate/STIM_023.jpg	99
1440.985	1.604	1604.1	generate	Run2	generate/STIM_023.jpg	99
1445.476	1.652	1652.1	generate	Run2	generate/STIM_024.jpg	100
1450.695	1.444	1444.4	generate	Run2	generate/STIM_024.jpg	100
1454.381	1.223	1223.2	generate	Run2	generate/STIM_024.jpg	100
1459.12	0.934	933.8	generate	Run2	generate/STIM_024.jpg	100
1463.363	1.993	1992.6	generate	Run2	generate/STIM_024.jpg	100
1467.441	0.645	645.1	repeat	Run2	repeat/STIM_000.jpg	100
1471.433	0.902	902.0	repeat	Run2	repeat/STIM_000.jpg	99
1474.792	0.579	578.8	repeat	Run2	repeat/STIM_000.jpg	99
1478.51	0.662	661.6	repeat	Run2	repeat/STIM_000.jpg	100
1481.577	0.581	580.7	repeat	Run2	repeat/STIM_000.jpg	100
1485.334	0.497	497.2	repeat	Run2	repeat/STIM_001.jpg	99
1489.685	0.766	766.3	repeat	Run2	repeat/STIM_001.jpg	100
1493.351	0.706	706.0	repeat	Run2	repeat/STIM_001.jpg	99
1497.585	0.588	588.2	repeat	Run2	repeat/STIM_001.jpg	99
1501.219	0.634	634.1	repeat	Run2	repeat/STIM_001.jpg	99
1505.147	0.766	765.6	repeat	Run2	repeat/STIM_002.jpg	99
1509.697	0.847	846.8	repeat	Run2	repeat/STIM_002.jpg	100
1514.346	0.693	693.2	repeat	Run2	repeat/STIM_002.jpg	99
1518.586	0.943	943.4	repeat	Run2	repeat/STIM_002.jpg	100
1522.505	0.941	941.1	repeat	Run2	repeat/STIM_002.jpg	99
1527.188	0.921	920.8	repeat	Run2	repeat/STIM_003.jpg	99
1531.437	0.58	580.2	repeat	Run2	repeat/STIM_003.jpg	99
1535.484	0.918	918.0	repeat	Run2	repeat/STIM_003.jpg	100
1538.479	0.585	585.0	repeat	Run2	repeat/STIM_003.jpg	99
1541.856	0.889	889.0	repeat	Run2	repeat/STIM_003.jpg	100
1545.467	0.684	684.1	repeat	Run2	repeat/STIM_004.jpg	99
1549.824	0.717	717.3	repeat	Run2	repeat/STIM_004.jpg	100
1553.601	0.672	671.5	repeat	Run2	repeat/STIM_004.jpg	99
1557.949	0.522	522.0	repeat	Run2	repeat/STIM_004.jpg	99
1562.409	0.928	927.8	repeat	Run2	repeat/STIM_004.jpg	100
1566.947	0.864	863.8	repeat	Run2	repeat/STIM_005.jpg	99
1569.995	0.844	843.7	repeat	Run2	repeat/STIM_005.jpg	100
1574.162	0.934	933.8	repeat	Run2	repeat/STIM_005.jpg	100
1577.547	0.528	527.8	repeat	Run2	repeat/STIM_005.jpg	99
1580.402	0.927	927.4	repeat	Run2	repeat/STIM_005.jpg	99
1584.701	0.569	568.8	repeat	Run2	repeat/STIM_006.jpg	100
1588.586	0.592	591.7	repeat	Run2	repeat/STIM_006.jpg	99
1591.32	0.773	772.8	repeat	Run2	repeat/STIM_006.jpg	99
1595.153	0.498	497.9	repeat	Run2	repeat/STIM_006.jpg	99
1597.975	0.492	491.5	repeat	Run2	repeat/STIM_006.jpg	99
1601.476	0.833	832.6	repeat	Run2	repeat/STIM_007.jpg	100
1606.268	0.874	873.9	repeat	Run2	repeat/STIM_007.jpg	99
1611.122	0.938	938.0	repeat	Run2	repeat/STIM_007.jpg	99
1615.936	0.587	587.0	repeat	Run2	repeat/STIM_007.jpg	99
1619.321	0.633	633.1	repeat	Run2	repeat/STIM_007.jpg	100
1622.503	0.59	589.8	repeat	Run2	repeat/STIM_008.jpg	100
1626.052	0.574	574.1	repeat	Run2	repeat/STIM_008.jpg	99
1630.274	0.824	824.4	repeat	Run2	repeat/STIM_008.jpg	100
1634.299	0.637	637.3	repeat	Run2	repeat/STIM_008.jpg	99
1638.036	0.626	626.1	repeat	Run2	repeat/STIM_008.jpg	99
1642.448	0.661	661.2	repeat	Run2	repeat/STIM_009.jpg	100
1645.838	0.902	902.5	repeat	Run2	repeat/STIM_009.jpg	100
1650.352	0.51	510.4	repeat	Run2	repeat/STIM_009.jpg	100
1654.255	0.868	867.5	repeat	Run2	repeat/STIM_009.jpg	100
1657.186	0.516	516.2	repeat	Run2	repeat/STIM_009.jpg	99
1660.18	0.553	552.9	repeat	Run2	repeat/STIM_010.jpg	100
1663.751	0.843	842.7	repeat	Run2	repeat/STIM_010.jpg	99
1667.39	0.668	668.5	repeat	Run2	repeat/STIM_010.jpg	99
1670.949	0.694	693.6	repeat	Run2	repeat/STIM_010.jpg	99
1674.48	0.551	551.0	repeat	Run2	repeat/STIM_010.jpg	100
1677.683	0.558	557.5	repeat	Run2	repeat/STIM_011.jpg	99
1681.998	0.688	687.5	repeat	Run2	repeat/STIM_011.jpg	100
1686.274	0.682	681.6	repeat	Run2	repeat/STIM_011.jpg	100
1689.359	0.563	563.1	repeat	Run2	repeat/STIM_011.jpg	99
1692.55	0.594	593.9	repeat	Run2	repeat/STIM_011.jpg	99
1695.266	0.588	588.3	repeat	Run2	repeat/STIM_012.jpg	99
1699.125	0.596	596.3	repeat	Run2	repeat/STIM_012.jpg	99
1702.94	0.959	959.4	repeat	Run2	repeat/STIM_012.jpg	100
1707.328	0.831	830.6	repeat	Run2	repeat/STIM_012.jpg	100
1710.445	0.686	686.1	repeat	Run2	repeat/STIM_012.jpg	99
1714.407	0.814	814.5	repeat	Run2	repeat/STIM_013.jpg	100
1717.263	0.509	509.4	repeat	Run2	repeat/STIM_013.jpg	100
1721.431	0.928	927.9	repeat	Run2	repeat/STIM_013.jpg	100
1726.069	0.688	688.4	repeat	Run2	repeat/STIM_013.jpg	99
1729.328	0.846	846.3	repeat	Run2	repeat/STIM_013.jpg	99
1733.027	0.727	727.4	repeat	Run2	repeat/STIM_014.jpg	99
1737.222	0.582	581.5	repeat	Run2	repeat/STIM_014.jpg	100
1740.613	0.551	551.1	repeat	Run2	repeat/STIM_014.jpg	99
1745.049	0.718	718.2	repeat	Run2	repeat/STIM_014.jpg	99
1747.937	0.565	564.8	repeat	Run2	repeat/STIM_014.jpg	99
1751.173	1.294	1294.2	generate	Run3	generate/STIM_000.jpg	99
1755.502	1.322	1321.7	generate	Run3	generate/STIM_000.jpg	99
1760.596	0.981	981.4	generate	Run3	generate/STIM_000.jpg	99
1764.138	1.242	1242.4	generate	Run3	generate/STIM_000.jpg	99
1768.262	1.419	1418.8	generate	Run3	generate/STIM_000.jpg	99
1773.667	0.829	829.4	generate	Run3	generate/STIM_001.jpg	99
1776.851	1.004	1004.1	generate	Run3	generate/STIM_001.jpg	99
1780.628	1.057	1056.6	generate	Run3	generate/STIM_001.jpg	100
1784.651	1.108	1108.0	generate	Run3	generate/STIM_001.jpg	99
1788.871	1.608	1607.9	generate	Run3	generate/STIM_001.jpg	99
1793.144	0.895	895.2	generate	Run3	generate/STIM_002.jpg	100
1797.231	1.786	1785.9	generate	Run3	generate/STIM_002.jpg	99
1801.419	1.617	1616.8	generate	Run3	generate/STIM_002.jpg	99
1805.678	0.855	854.8	generate	Run3	generate/STIM_002.jpg	99
1808.771	1.438	1437.7	generate	Run3	generate/STIM_002.jpg	99
1812.986	1.932	1932.5	generate	Run3	generate/STIM_003.jpg	99
1818.669	1.217	1217.4	generate	Run3	generate/STIM_003.jpg	99
1822.986	1.027	1027.3	generate	Run3	generate/STIM_003.jpg	100
1827.685	1.218	1217.5	generate	Run3	generate/STIM_003.jpg	99
1832.394	1.208	1208.4	generate	Run3	generate/STIM_003.jpg	99
1835.843	1.289	1288.6	generate	Run3	generate/STIM_004.jpg	100
1840.536	1.464	1463.7	generate	Run3	generate/STIM_004.jpg	99
1844.155	0.963	963.4	generate	Run3	generate/STIM_004.jpg	100
1847.873	1.362	1362.2	generate	Run3	generate/STIM_004.jpg	100
1853.049	1.667	1667.1	generate	Run3	generate/STIM_004.jpg	99
1857.272	1.616	1615.9	generate	Run3	generate/STIM_005.jpg	100
1861.633	1.482	1482.3	generate	Run3	generate/STIM_005.jpg	99
1866.008	1.707	1707.1	generate	Run3	generate/STIM_005.jpg	99
1871.072	1.033	1032.7	generate	Run3	generate/STIM_005.jpg	99
1874.691	2.017	2016.6	generate	Run3	generate/STIM_005.jpg	99
1879.949	1.565	1564.7	generate	Run3	generate/STIM_006.jpg	99
1885.179	1.885	1885.2	generate	Run3	generate/STIM_006.jpg	100
1890.899	1.258	1258.1	generate	Run3	generate/STIM_006.jpg	100
1894.891	1.76	1760.5	generate	Run3	generate/STIM_006.jpg	99
1899.42	1.157	1156.7	generate	Run3	generate/STIM_006.jpg	100
1903.995	1.783	1782.6	generate	Run3	generate/STIM_007.jpg	100
1909.448	1.376	1376.5	generate	Run3	generate/STIM_007.jpg	99
1913.156	1.384	1384.5	generate	Run3	generate/STIM_007.jpg	99
1917.628	2.018	2018.4	generate	Run3	generate/STIM_007.jpg	99
1922.301	1.431	1430.9	generate	Run3	generate/STIM_007.jpg	100
1927.364	1.428	1428.2	generate	Run3	generate/STIM_008.jpg	100
1931.66	1.468	1468.3	generate	Run3	generate/STIM_008.jpg	100
1937.067	1.533	1533.3	generate	Run3	generate/STIM_008.jpg	99
1941.313	1.899	1898.7	generate	Run3	generate/STIM_008.jpg	100
1945.978	1.598	1597.7	generate	Run3	generate/STIM_008.jpg	100
1949.762	0.866	865.5	generate	Run3	generate/STIM_009.jpg	99
1952.952	1.843	1842.7	generate	Run3	generate/STIM_009.jpg	100
1957.811	1.72	1720.0	generate	Run3	generate/STIM_009.jpg	99
1962.632	1.218	1218.4	generate	Run3	generate/STIM_009.jpg	99
1967.434	1.119	1119.4	generate	Run3	generate/STIM_009.jpg	100
1971.599	1.324	1323.8	generate	Run3	generate/STIM_010.jpg	100
1976.027	1.043	1042.6	generate	Run3	generate/STIM_010.jpg	99
1980.068	1.513	1512.9	generate	Run3	generate/STIM_010.jpg	99
1984.597	1.978	1978.5	generate	Run3	generate/STIM_010.jpg	99
1989.468	0.929	929.4	generate	Run3	generate/STIM_010.jpg	100
1993.072	1.29	1290.3	generate	Run3	generate/STIM_011.jpg	99
1996.543	1.633	1633.1	generate	Run3	generate/STIM_011.jpg	100
2002.208	1.903	1902.6	generate	Run3	generate/STIM_011.jpg	100
2007.043	1.548	1548.0	generate	Run3	generate/STIM_011.jpg	99
2011.813	1.419	1418.8	generate	Run3	generate/STIM_011.jpg	100
2016.075	1.246	1245.8	generate	Run3	generate/STIM_012.jpg	100
2020.858	1.638	1637.7	generate	Run3	generate/STIM_012.jpg	99
2026.361	1.159	1158.9	generate	Run3	generate/STIM_012.jpg	99
2031.411	1.741	1740.8	generate	Run3	generate/STIM_012.jpg	99
2035.613	1.799	1799.3	generate	Run3	generate/STIM_012.jpg	100
2039.882	1.493	1492.7	generate	Run3	generate/STIM_013.jpg	99
2043.816	0.906	906.3	generate	Run3	generate/STIM_013.jpg	100
2047.347	0.853	853.0	generate	Run3	generate/STIM_013.jpg	100
2050.982	1.798	1798.5	generate	Run3	generate/STIM_013.jpg	99
2055.788	1.546	1545.8	generate	Run3	generate/STIM_013.jpg	99
2060.393	0.977	977.2	generate	Run3	generate/STIM_014.jpg	99
2064.106	1.487	1486.8	generate	Run3	generate/STIM_014.jpg	99
2069.51	1.767	1766.8	generate	Run3	generate/STIM_014.jpg	99
2073.632	1.02	1019.6	generate	Run3	generate/STIM_014.jpg	100
2078.073	0.96	959.9	generate	Run3	generate/STIM_014.jpg	99
2082.78	1.9	1899.9	generate	Run3	generate/STIM_015.jpg	99
2087.796	0.925	924.7	generate	Run3	generate/STIM_015.jpg	99
2091.938	1.774	1773.6	generate	Run3	generate/STIM_015.jpg	100
2096.546	1.914	1913.6	generate	Run3	generate/STIM_015.jpg	100
2101.9	1.73	1730.5	generate	Run3	generate/STIM_015.jpg	100
2106.34	1.348	1348.0	generate	Run3	generate/STIM_016.jpg	99
2111.604	1.257	1256.7	generate	Run3	generate/STIM_016.jpg	99
2115.94	1.622	1622.3	generate	Run3	generate/STIM_016.jpg	100
2119.944	1.172	1172.3	generate	Run3	generate/STIM_016.jpg	99
2124.373	1.447	1447.3	generate	Run3	generate/STIM_016.jpg	100
2128.435	1.528	1528.1	generate	Run3	generate/STIM_017.jpg	100
2133.38	1.136	1136.5	generate	Run3	generate/STIM_017.jpg	99
2138.132	1.071	1070.6	generate	Run3	generate/STIM_017.jpg	99
2141.566	1.607	1606.7	generate	Run3	generate/STIM_017.jpg	99
2145.758	1.68	1679.6	generate	Run3	generate/STIM_017.jpg	99
2150.799	1.998	1998.0	generate	Run3	generate/STIM_018.jpg	100
2156.739	1.38	1379.6	generate	Run3	generate/STIM_018.jpg	100
2160.614	1.685	1684.8	generate	Run3	generate/STIM_018.jpg	99
2164.601	1.35	1350.2	generate	Run3	generate/STIM_018.jpg	99
2169.602	1.784	1784.5	generate	Run3	generate/STIM_018.jpg	100
2175.335	1.12	1120.5	generate	Run3	generate/STIM_019.jpg	100
2179.59	0.954	953.9	generate	Run3	generate/STIM_019.jpg	100
2183.236	1.812	1812.0	generate	Run3	generate/STIM_019.jpg	100
2188.654	1.894	1894.2	generate	Run3	generate/STIM_019.jpg	99
2193.523	0.819	819.0	generate	Run3	generate/STIM_019.jpg	100
2197.389	1.063	1062.7	generate	Run3	generate/STIM_020.jpg	99
2201.129	2.008	2007.7	generate	Run3	generate/STIM_020.jpg	100
2206.226	1.956	1955.5	generate	Run3	generate/STIM_020.jpg	99
2210.46	1.806	1805.9	generate	Run3	generate/STIM_020.jpg	100
2214.762	1.507	1507.0	generate	Run3	generate/STIM_020.jpg	100
2218.444	1.111	1111.2	generate	Run3	generate/STIM_021.jpg	100
2222.584	0.998	997.6	generate	Run3	generate/STIM_021.jpg	100
2227.014	1.271	1270.7	generate	Run3	generate/STIM_021.jpg	100
2231.485	1.091	1091.1	generate	Run3	generate/STIM_021.jpg	99
2236.11	0.872	872.5	generate	Run3	generate/STIM_021.jpg	100
2240.778	1.138	1138.1	generate	Run3	generate/STIM_022.jpg	99
2245.417	1.548	1547.6	generate	Run3	generate/STIM_022.jpg	99
2250.487	1.241	1241.2	generate	Run3	generate/STIM_022.jpg	99
2255.34	1.324	1323.6	generate	Run3	generate/STIM_022.jpg	100
2258.975	1.176	1176.2	generate	Run3	generate/STIM_022.jpg	100
2262.984	1.497	1496.6	generate	Run3	generate/STIM_023.jpg	99
2267.443	1.207	1206.6	generate	Run3	generate/STIM_023.jpg	99
2271.975	1.193	1193.2	generate	Run3	generate/STIM_023.jpg	100
2276.437	1.721	1720.9	generate	Run3	generate/STIM_023.jpg	99
2281.718	0.967	966.9	generate	Run3	generate/STIM_023.jpg	100
2284.789	1.692	1691.8	generate	Run3	generate/STIM_024.jpg	100
2290.24	1.736	1735.6	generate	Run3	generate/STIM_024.jpg	100
2295.482	1.885	1885.1	generate	Run3	generate/STIM_024.jpg	99
2301.363	1.124	1124.1	generate	Run3	generate/STIM_024.jpg	99
2306.453	0.957	957.1	generate	Run3	generate/STIM_024.jpg	99
2310.897	0.558	557.6	repeat	Run3	repeat/STIM_000.jpg	100
2314.96	0.907	907.1	repeat	Run3	repeat/STIM_000.jpg	99
2318.918	0.666	666.2	repeat	Run3	repeat/STIM_000.jpg	100
2322.534	0.83	829.5	repeat	Run3	repeat/STIM_000.jpg	99
2325.497	0.676	676.1	repeat	Run3	repeat/STIM_000.jpg	100
2330.049	0.517	517.4	repeat	Run3	repeat/STIM_001.jpg	100
2333.437	0.622	622.3	repeat	Run3	repeat/STIM_001.jpg	100
2337.668	0.574	574.5	repeat	Run3	repeat/STIM_001.jpg	99
2340.582	0.537	537.1	repeat	Run3	repeat/STIM_001.jpg	100
2343.896	0.752	751.9	repeat	Run3	repeat/STIM_001.jpg	99
2348.025	0.508	508.2	repeat	Run3	repeat/STIM_002.jpg	100
2352.193	0.749	748.7	repeat	Run3	repeat/STIM_002.jpg	99
2355.751	0.807	806.6	repeat	Run3	repeat/STIM_002.jpg	100
2360.058	0.534	533.5	repeat	Run3	repeat/STIM_002.jpg	100
2363.741	0.948	948.3	repeat	Run3	repeat/STIM_002.jpg	100
2368.241	0.779	779.2	repeat	Run3	repeat/STIM_003.jpg	99
2372.786	0.659	658.6	repeat	Run3	repeat/STIM_003.jpg	100
2376.062	0.952	951.6	repeat	Run3	repeat/STIM_003.jpg	99
2380.329	0.697	696.8	repeat	Run3	repeat/STIM_003.jpg	99
2384.944	0.951	950.7	repeat	Run3	repeat/STIM_003.jpg	99
2388.909	0.903	903.0	repeat	Run3	repeat/STIM_004.jpg	99
2392.607	0.794	794.3	repeat	Run3	repeat/STIM_004.jpg	99
2397.237	0.866	865.9	repeat	Run3	repeat/STIM_004.jpg	100
2401.304	0.632	632.2	repeat	Run3	repeat/STIM_004.jpg	100
2404.105	0.687	687.4	repeat	Run3	repeat/STIM_004.jpg	99
2407.688	0.956	956.4	repeat	Run3	repeat/STIM_005.jpg	100
2412.41	0.606	605.6	repeat	Run3	repeat/STIM_005.jpg	99
2415.451	0.732	732.2	repeat	Run3	repeat/STIM_005.jpg	100
2419.304	0.908	908.2	repeat	Run3	repeat/STIM_005.jpg	99
2423.41	0.657	657.2	repeat	Run3	repeat/STIM_005.jpg	99
2426.88	0.816	815.6	repeat	Run3	repeat/STIM_006.jpg	99
2430.085	0.603	603.4	repeat	Run3	repeat/STIM_006.jpg	99
2434.302	0.914	913.8	repeat	Run3	repeat/STIM_006.jpg	99
2438.55	0.889	889.0	repeat	Run3	repeat/STIM_006.jpg	99
2443.166	0.689	689.2	repeat	Run3	repeat/STIM_006.jpg	100
2446.867	0.631	631.4	repeat	Run3	repeat/STIM_007.jpg	99
2450.632	0.746	745.6	repeat	Run3	repeat/STIM_007.jpg	99
2454.03	0.747	747.2	repeat	Run3	repeat/STIM_007.jpg	99
2457.977	0.724	723.8	repeat	Run3	repeat/STIM_007.jpg	100
2461.598	0.731	731.3	repeat	Run3	repeat/STIM_007.jpg	100
2464.888	0.738	737.9	repeat	Run3	repeat/STIM_008.jpg	100
2469.337	0.532	532.4	repeat	Run3	repeat/STIM_008.jpg	99
2472.759	0.487	487.3	repeat	Run3	repeat/STIM_008.jpg	99
2476.246	0.576	575.8	repeat	Run3	repeat/STIM_008.jpg	99
2478.886	0.945	945.1	repeat	Run3	repeat/STIM_008.jpg	99
2482.477	0.954	954.0	repeat	Run3	repeat/STIM_009.jpg	100
2486.764	0.741	741.4	repeat	Run3	repeat/STIM_009.jpg	99
2491.248	0.95	950.3	repeat	Run3	repeat/STIM_009.jpg	99
2496.192	0.579	578.6	repeat	Run3	repeat/STIM_009.jpg	99
2500.464	0.882	882.2	repeat	Run3	repeat/STIM_009.jpg	100
2504.051	0.722	721.7	repeat	Run3	repeat/STIM_010.jpg	99
2507.491	0.816	815.8	repeat	Run3	repeat/STIM_010.jpg	100
2511.543	0.811	811.1	repeat	Run3	repeat/STIM_010.jpg	99
2514.425	0.675	674.6	repeat	Run3	repeat/STIM_010.jpg	99
2519.024	0.879	879.4	repeat	Run3	repeat/STIM_010.jpg	99
2523.766	0.583	583.1	repeat	Run3	repeat/STIM_011.jpg	100
2526.755	0.704	703.8	repeat	Run3	repeat/STIM_011.jpg	100
2530.808	0.684	684.3	repeat	Run3	repeat/STIM_011.jpg	99
2533.54	0.692	691.5	repeat	Run3	repeat/STIM_011.jpg	99
2536.801	0.673	673.0	repeat	Run3	repeat/STIM_011.jpg	99
2539.617	0.511	511.3	repeat	Run3	repeat/STIM_012.jpg	99
2542.386	0.874	873.8	repeat	Run3	repeat/STIM_012.jpg	100
2547.214	0.53	530.3	repeat	Run3	repeat/STIM_012.jpg	100
2551.51	0.906	906.1	repeat	Run3	repeat/STIM_012.jpg	99
2555.236	0.699	699.0	repeat	Run3	repeat/STIM_012.jpg	100
2559.551	0.754	753.7	repeat	Run3	repeat/STIM_013.jpg	100
2563.577	0.769	769.3	repeat	Run3	repeat/STIM_013.jpg	100
2566.752	0.651	651.1	repeat	Run3	repeat/STIM_013.jpg	99
2571.396	0.88	880.4	repeat	Run3	repeat/STIM_013.jpg	100
2575.058	0.73	730.3	repeat	Run3	repeat/STIM_013.jpg	100
2579.107	0.942	941.5	repeat	Run3	repeat/STIM_014.jpg	99
2582.638	0.482	481.6	repeat	Run3	repeat/STIM_014.jpg	100
2585.627	0.843	843.3	repeat	Run3	repeat/STIM_014.jpg	100
2589.702	0.49	490.4	repeat	Run3	repeat/STIM_014.jpg	100
2593.15	0.595	595.2	repeat	Run3	repeat/STIM_014.jpg	100
2597.121	1.744	1744.0	generate	Run4	generate/STIM_000.jpg	100
2602.563	1.674	1673.9	generate	Run4	generate/STIM_000.jpg	100
2608.137	1.605	1604.9	generate	Run4	generate/STIM_000.jpg	99
2613.747	0.953	952.8	generate	Run4	generate/STIM_000.jpg	100
2618.513	1.244	1244.0	generate	Run4	generate/STIM_000.jpg	99
2623.321	0.939	939.0	generate	Run4	generate/STIM_001.jpg	100
2626.448	1.59	1590.4	generate	Run4	generate/STIM_001.jpg	100
2631.68	1.758	1758.2	generate	Run4	generate/STIM_001.jpg	99
2637.178	1.185	1185.3	generate	Run4	generate/STIM_001.jpg	100
2641.503	1.376	1376.0	generate	Run4	generate/STIM_001.jpg	99
2645.987	1.414	1414.4	generate	Run4	generate/STIM_002.jpg	100
2650.064	1.556	1555.6	generate	Run4	generate/STIM_002.jpg	100
2654.369	1.277	1276.8	generate	Run4	generate/STIM_002.jpg	100
2657.944	1.76	1760.0	generate	Run4	generate/STIM_002.jpg	99
2662.263	1.889	1889.0	generate	Run4	generate/STIM_002.jpg	100
2666.828	0.996	995.7	generate	Run4	generate/STIM_003.jpg	100
2670.196	1.959	1958.6	generate	Run4	generate/STIM_003.jpg	100
2675.375	1.207	1207.4	generate	Run4	generate/STIM_003.jpg	99
2679.285	1.982	1982.5	generate	Run4	generate/STIM_003.jpg	99
2685.113	1.85	1849.7	generate	Run4	generate/STIM_003.jpg	99
2690.991	1.4	1399.8	generate	Run4	generate/STIM_004.jpg	99
2695.23	1.38	1379.9	generate	Run4	generate/STIM_004.jpg	99
2699.155	1.826	1825.5	generate	Run4	generate/STIM_004.jpg	100
2704.847	1.977	1977.3	generate	Run4	generate/STIM_004.jpg	99
2709.041	0.837	837.4	generate	Run4	generate/STIM_004.jpg	99
2713.095	1.795	1795.4	generate	Run4	generate/STIM_005.jpg	100
2718.445	1.754	1753.9	generate	Run4	generate/STIM_005.jpg	100
2723.982	0.852	852.5	generate	Run4	generate/STIM_005.jpg	99
2726.951	1.703	1702.6	generate	Run4	generate/STIM_005.jpg	99
2732.497	1.779	1779.4	generate	Run4	generate/STIM_005.jpg	100
2736.53	1.975	1975.4	generate	Run4	generate/STIM_006.jpg	99
2742.307	0.826	825.8	generate	Run4	generate/STIM_006.jpg	100
2745.327	1.099	1098.6	generate	Run4	generate/STIM_006.jpg	100
2749.902	2.018	2017.6	generate	Run4	generate/STIM_006.jpg	99
2755.107	1.238	1238.5	generate	Run4	generate/STIM_006.jpg	100
2760.082	1.104	1103.5	generate	Run4	generate/STIM_007.jpg	99
2763.32	1.13	1130.1	generate	Run4	generate/STIM_007.jpg	99
2768.354	1.444	1443.8	generate	Run4	generate/STIM_007.jpg	100
2772.091	1.772	1772.5	generate	Run4	generate/STIM_007.jpg	99
2776.893	1.505	1504.9	generate	Run4	generate/STIM_007.jpg	99
2781.01	1.966	1966.4	generate	Run4	generate/STIM_008.jpg	100
2786.676	1.228	1227.6	generate	Run4	generate/STIM_008.jpg	99
2790.272	1.462	1462.0	generate	Run4	generate/STIM_008.jpg	100
2794.121	0.911	911.3	generate	Run4	generate/STIM_008.jpg	99
2798.859	1.818	1817.8	generate	Run4	generate/STIM_008.jpg	100
2803.801	1.811	1811.0	generate	Run4	generate/STIM_009.jpg	99
2808.823	1.902	1901.5	generate	Run4	generate/STIM_009.jpg	100
2813.915	1.379	1379.3	generate	Run4	generate/STIM_009.jpg	99
2818.505	1.622	1622.3	generate	Run4	generate/STIM_009.jpg	99
2823.449	1.527	1527.4	generate	Run4	generate/STIM_009.jpg	99
2828.408	1.143	1142.7	generate	Run4	generate/STIM_010.jpg	99
2832.097	1.379	1378.9	generate	Run4	generate/STIM_010.jpg	100
2836.279	1.584	1583.5	generate	Run4	generate/STIM_010.jpg	100
2841.412	1.88	1879.8	generate	Run4	generate/STIM_010.jpg	99
2846.368	1.866	1866.5	generate	Run4	generate/STIM_010.jpg	99
2851.433	0.839	838.8	generate	Run4	generate/STIM_011.jpg	100
2854.516	1.091	1091.2	generate	Run4	generate/STIM_011.jpg	100
2857.859	1.587	1586.7	generate	Run4	generate/STIM_011.jpg	100
2863.279	1.129	1128.8	generate	Run4	generate/STIM_011.jpg	100
2868.071	1.97	1969.7	generate	Run4	generate/STIM_011.jpg	99
2873.24	1.747	1747.1	generate	Run4	generate/STIM_012.jpg	100
2878.003	1.675	1675.0	generate	Run4	generate/STIM_012.jpg	100
2882.94	1.887	1887.1	generate	Run4	generate/STIM_012.jpg	99
2886.918	1.02	1019.6	generate	Run4	generate/STIM_012.jpg	99
2890.51	1.22	1220.3	generate	Run4	generate/STIM_012.jpg	100
2893.785	1.895	1894.9	generate	Run4	generate/STIM_013.jpg	100
2899.382	1.375	1375.4	generate	Run4	generate/STIM_013.jpg	100
2904.491	1.335	1335.0	generate	Run4	generate/STIM_013.jpg	99
2908.752	1.615	1614.9	generate	Run4	generate/STIM_013.jpg	99
2914.147	1.868	1868.3	generate	Run4	generate/STIM_013.jpg	100
2919.652	1.559	1559.4	generate	Run4	generate/STIM_014.jpg	100
2924.291	1.859	1859.1	generate	Run4	generate/STIM_014.jpg	100
2928.353	1.547	1546.7	generate	Run4	generate/STIM_014.jpg	99
2932.626	1.823	1823.4	generate	Run4	generate/STIM_014.jpg	100
2937.565	0.959	959.4	generate	Run4	generate/STIM_014.jpg	99
2940.737	1.562	1562.4	generate	Run4	generate/STIM_015.jpg	100
2945.33	1.508	1508.3	generate	Run4	generate/STIM_015.jpg	99
2949.281	1.882	1882.2	generate	Run4	generate/STIM_015.jpg	100
2955.046	2.001	2000.6	generate	Run4	generate/STIM_015.jpg	99
2959.962	1.349	1349.3	generate	Run4	generate/STIM_015.jpg	100
2965.225	1.104	1104.1	generate	Run4	generate/STIM_016.jpg	99
2970.277	1.216	1215.8	generate	Run4	generate/STIM_016.jpg	100
2973.654	1.939	1939.1	generate	Run4	generate/STIM_016.jpg	100
2978.13	1.409	1408.9	generate	Run4	generate/STIM_016.jpg	100
2983.255	1.442	1442.3	generate	Run4	generate/STIM_016.jpg	100
2987.065	1.559	1559.4	generate	Run4	generate/STIM_017.jpg	99
2992.652	1.676	1675.5	generate	Run4	generate/STIM_017.jpg	99
2998.252	1.548	1548.4	generate	Run4	generate/STIM_017.jpg	99
3002.435	1.496	1495.9	generate	Run4	generate/STIM_017.jpg	100
3007.78	1.813	1812.9	generate	Run4	generate/STIM_017.jpg	100
3012.064	1.402	1402.0	generate	Run4	generate/STIM_018.jpg	99
3017.503	1.344	1344.1	generate	Run4	generate/STIM_018.jpg	100
3022.068	1.955	1955.3	generate	Run4	generate/STIM_018.jpg	100
3026.537	1.936	1935.9	generate	Run4	generate/STIM_018.jpg	100
3032.347	1.868	1868.1	generate	Run4	generate/STIM_018.jpg	100
3037.488	1.712	1712.2	generate	Run4	generate/STIM_019.jpg	99
3042.995	1.61	1609.9	generate	Run4	generate/STIM_019.jpg	99
3046.789	0.847	846.9	generate	Run4	generate/STIM_019.jpg	100
3049.922	1.865	1865.0	generate	Run4	generate/STIM_019.jpg	99
3055.584	0.846	846.3	generate	Run4	generate/STIM_019.jpg	99
3059.092	1.622	1622.0	generate	Run4	generate/STIM_020.jpg	99
3063.58	1.933	1932.6	generate	Run4	generate/STIM_020.jpg	99
3068.781	0.961	961.4	generate	Run4	generate/STIM_020.jpg	100
3072.43	1.178	1178.1	generate	Run4	generate/STIM_020.jpg	99
3076.555	1.149	1148.9	generate	Run4	generate/STIM_020.jpg	99
3080.03	1.841	1841.4	generate	Run4	generate/STIM_021.jpg	100
3084.439	1.871	1870.7	generate	Run4	generate/STIM_021.jpg	99
3089.296	1.114	1114.2	generate	Run4	generate/STIM_021.jpg	100
3092.665	0.876	876.3	generate	Run4	generate/STIM_021.jpg	99
3096.142	1.472	1472.0	generate	Run4	generate/STIM_021.jpg	100
3100.279	1.775	1774.6	generate	Run4	generate/STIM_022.jpg	100
3105.924	1.903	1902.8	generate	Run4	generate/STIM_022.jpg	100
3111.752	1.803	1803.0	generate	Run4	generate/STIM_022.jpg	99
3115.632	1.61	1609.9	generate	Run4	generate/STIM_022.jpg	100
3119.606	0.888	887.8	generate	Run4	generate/STIM_022.jpg	99
3123.186	1.918	1917.9	generate	Run4	generate/STIM_023.jpg	99
3128.762	1.576	1576.0	generate	Run4	generate/STIM_023.jpg	99
3133.324	1.382	1382.1	generate	Run4	generate/STIM_023.jpg	99
3138.749	1.605	1604.9	generate	Run4	generate/STIM_023.jpg	100
3142.916	0.811	811.1	generate	Run4	generate/STIM_023.jpg	100
3146.404	0.857	856.6	generate	Run4	generate/STIM_024.jpg	99
3149.777	1.849	1849.3	generate	Run4	generate/STIM_024.jpg	99
3154.351	1.384	1384.2	generate	Run4	generate/STIM_024.jpg	99
3158.006	0.872	871.9	generate	Run4	generate/STIM_024.jpg	100
3161.258	1.248	1248.1	generate	Run4	generate/STIM_024.jpg	100
3165.131	0.782	781.9	repeat	Run4	repeat/STIM_000.jpg	99
3169.646	0.651	651.1	repeat	Run4	repeat/STIM_000.jpg	100
3173.314	0.519	518.6	repeat	Run4	repeat/STIM_000.jpg	100
3176.156	0.493	493.3	repeat	Run4	repeat/STIM_000.jpg	99
3179.5	0.783	782.7	repeat	Run4	repeat/STIM_000.jpg	99
3183.978	0.81	810.0	repeat	Run4	repeat/STIM_001.jpg	100
3187.493	0.937	937.2	repeat	Run4	repeat/STIM_001.jpg	99
3191.341	0.919	919.3	repeat	Run4	repeat/STIM_001.jpg	100
3195.208	0.799	799.3	repeat	Run4	repeat/STIM_001.jpg	99
3199.162	0.794	793.9	repeat	Run4	repeat/STIM_001.jpg	100
3202.839	0.596	596.0	repeat	Run4	repeat/STIM_002.jpg	100
3207.049	0.762	761.9	repeat	Run4	repeat/STIM_002.jpg	100
3210.234	0.86	859.8	repeat	Run4	repeat/STIM_002.jpg	99
3213.881	0.812	811.6	repeat	Run4	repeat/STIM_002.jpg	100
3218.035	0.677	677.3	repeat	Run4	repeat/STIM_002.jpg	100
3221.819	0.657	656.9	repeat	Run4	repeat/STIM_003.jpg	100
3225.153	0.552	551.6	repeat	Run4	repeat/STIM_003.jpg	100
3229.292	0.677	676.7	repeat	Run4	repeat/STIM_003.jpg	99
3233.343	0.772	772.0	repeat	Run4	repeat/STIM_003.jpg	100
3236.213	0.534	533.6	repeat	Run4	repeat/STIM_003.jpg	99
3238.806	0.616	615.6	repeat	Run4	repeat/STIM_004.jpg	99
3242.082	0.639	639.3	repeat	Run4	repeat/STIM_004.jpg	99
3245.128	0.917	916.9	repeat	Run4	repeat/STIM_004.jpg	99
3249.009	0.592	591.9	repeat	Run4	repeat/STIM_004.jpg	99
3251.698	0.542	541.7	repeat	Run4	repeat/STIM_004.jpg	99
3254.861	0.647	646.8	repeat	Run4	repeat/STIM_005.jpg	100
3258.046	0.638	638.3	repeat	Run4	repeat/STIM_005.jpg	100
3261.972	0.717	716.9	repeat	Run4	repeat/STIM_005.jpg	99
3266.144	0.901	900.8	repeat	Run4	repeat/STIM_005.jpg	100
3270.045	0.597	597.0	repeat	Run4	repeat/STIM_005.jpg	99
3272.995	0.877	877.4	repeat	Run4	repeat/STIM_006.jpg	100
3276.035	0.927	927.0	repeat	Run4	repeat/STIM_006.jpg	100
3279.336	0.76	759.9	repeat	Run4	repeat/STIM_006.jpg	99
3283.557	0.85	849.6	repeat	Run4	repeat/STIM_006.jpg	99
3287.726	0.767	766.8	repeat	Run4	repeat/STIM_006.jpg	100
3291.76	0.504	504.4	repeat	Run4	repeat/STIM_007.jpg	99
3295.476	0.803	803.4	repeat	Run4	repeat/STIM_007.jpg	100
3300.032	0.657	657.4	repeat	Run4	repeat/STIM_007.jpg	100
3304.282	0.635	634.8	repeat	Run4	repeat/STIM_007.jpg	100
3307.845	0.537	537.3	repeat	Run4	repeat/STIM_007.jpg	100
3311.569	0.529	529.2	repeat	Run4	repeat/STIM_008.jpg	100
3314.2	0.538	538.5	repeat	Run4	repeat/STIM_008.jpg	100
3318.036	0.512	511.7	repeat	Run4	repeat/STIM_008.jpg	100
3322.22	0.924	924.3	repeat	Run4	repeat/STIM_008.jpg	100
3327.111	0.783	783.4	repeat	Run4	repeat/STIM_008.jpg	99
3331.373	0.569	569.2	repeat	Run4	repeat/STIM_009.jpg	100
3334.63	0.587	586.7	repeat	Run4	repeat/STIM_009.jpg	100
3338.634	0.528	527.7	repeat	Run4	repeat/STIM_009.jpg	100
3342.135	0.513	512.6	repeat	Run4	repeat/STIM_009.jpg	100
3346.59	0.535	535.1	repeat	Run4	repeat/STIM_009.jpg	100
3350.487	0.599	599.2	repeat	Run4	repeat/STIM_010.jpg	99
3353.917	0.927	927.4	repeat	Run4	repeat/STIM_010.jpg	100
3358.631	0.513	513.2	repeat	Run4	repeat/STIM_010.jpg	100
3361.799	0.516	515.7	repeat	Run4	repeat/STIM_010.jpg	100
3365.041	0.956	955.7	repeat	Run4	repeat/STIM_010.jpg	100
3369.296	0.792	791.7	repeat	Run4	repeat/STIM_011.jpg	99
3372.353	0.911	911.3	repeat	Run4	repeat/STIM_011.jpg	100
3376.418	0.693	692.8	repeat	Run4	repeat/STIM_011.jpg	100
3380.769	0.891	891.0	repeat	Run4	repeat/STIM_011.jpg	100
3384.732	0.867	866.9	repeat	Run4	repeat/STIM_011.jpg	100
3389.206	0.497	497.3	repeat	Run4	repeat/STIM_012.jpg	100
3392.711	0.914	914.4	repeat	Run4	repeat/STIM_012.jpg	100
3396.002	0.784	783.7	repeat	Run4	repeat/STIM_012.jpg	99
3399.49	0.662	661.7	repeat	Run4	repeat/STIM_012.jpg	99
3402.703	0.509	509.3	repeat	Run4	repeat/STIM_012.jpg	100
3406.926	0.65	650.5	repeat	Run4	repeat/STIM_013.jpg	100
3410.8	0.488	487.6	repeat	Run4	repeat/STIM_013.jpg	99
3414.779	0.632	631.5	repeat	Run4	repeat/STIM_013.jpg	100
3419.155	0.824	824.4	repeat	Run4	repeat/STIM_013.jpg	99
3423.867	0.644	643.8	repeat	Run4	repeat/STIM_013.jpg	99
3427.512	0.592	592.3	repeat	Run4	repeat/STIM_014.jpg	100
3432.117	0.795	794.9	repeat	Run4	repeat/STIM_014.jpg	99
3436.681	0.908	907.8	repeat	Run4	repeat/STIM_014.jpg	99
3439.679	0.524	524.1	repeat	Run4	repeat/STIM_014.jpg	100
3442.84	0.718	717.6	repeat	Run4	repeat/STIM_014.jpg	99
