onset	duration	response_time_ms	trial_type	learning_stage	stimulus	response_port
0.0	3.269	3269.1	generate	Run1	generate/STIM_000.jpg	99
6.873	3.211	3211.1	generate	Run1	generate/STIM_000.jpg	99
13.941	3.025	3024.7	generate	Run1	generate/STIM_000.jpg	100
20.453	2.457	2457.2	generate	Run1	generate/STIM_000.jpg	100
26.58	1.391	1391.3	generate	Run1	generate/STIM_000.jpg	100
31.138	2.911	2910.8	generate	Run1	generate/STIM_001.jpg	99
36.749	2.342	2342.4	generate	Run1	generate/STIM_001.jpg	99
41.51	1.779	1779.3	generate	Run1	generate/STIM_001.jpg	99
46.892	2.284	2283.5	generate	Run1	generate/STIM_001.jpg	100
52.677	1.294	1293.9	generate	Run1	generate/STIM_001.jpg	100
56.931	1.848	1848.0	generate	Run1	generate/STIM_002.jpg	100
62.226	2.349	2349.3	generate	Run1	generate/STIM_002.jpg	100
66.635	1.946	1945.6	generate	Run1	generate/STIM_002.jpg	100
71.081	2.309	2308.9	generate	Run1	generate/STIM_002.jpg	99
77.025	1.214	1214.5	generate	Run1	generate/STIM_002.jpg	99
80.638	1.842	1841.9	generate	Run1	generate/STIM_003.jpg	99
84.995	2.853	2852.9	generate	Run1	generate/STIM_003.jpg	99
90.887	2.748	2748.1	generate	Run1	generate/STIM_003.jpg	99
96.167	2.957	2957.4	generate	Run1	generate/STIM_003.jpg	100
101.935	1.83	1830.3	generate	Run1	generate/STIM_003.jpg	99
105.789	2.903	2902.9	generate	Run1	generate/STIM_004.jpg	100
111.695	2.59	2589.7	generate	Run1	generate/STIM_004.jpg	100
118.089	1.69	1690.1	generate	Run1	generate/STIM_004.jpg	100
123.127	2.029	2028.5	generate	Run1	generate/STIM_004.jpg	99
128.069	2.115	2115.1	generate	Run1	generate/STIM_004.jpg	99
133.673	3.414	3414.5	generate	Run1	generate/STIM_005.jpg	99
139.484	2.964	2964.5	generate	Run1	generate/STIM_005.jpg	99
144.749	1.551	1550.9	generate	Run1	generate/STIM_005.jpg	100
149.453	2.151	2150.8	generate	Run1	generate/STIM_005.jpg	99
153.776	1.464	1463.7	generate	Run1	generate/STIM_005.jpg	100
157.301	3.201	3201.1	generate	Run1	generate/STIM_006.jpg	99
163.408	1.887	1887.4	generate	Run1	generate/STIM_006.jpg	99
167.481	1.29	1289.6	generate	Run1	generate/STIM_006.jpg	99
171.046	2.273	2272.6	generate	Run1	generate/STIM_006.jpg	100
175.995	1.799	1799.2	generate	Run1	generate/STIM_006.jpg	99
180.983	3.054	3054.4	generate	Run1	generate/STIM_007.jpg	99
186.779	2.84	2839.8	generate	Run1	generate/STIM_007.jpg	99
191.674	2.761	2760.7	generate	Run1	generate/STIM_007.jpg	100
197.369	2.255	2255.4	generate	Run1	generate/STIM_007.jpg	99
202.703	1.974	1973.7	generate	Run1	generate/STIM_007.jpg	99
207.517	2.925	2925.2	generate	Run1	generate/STIM_008.jpg	100
214.357	1.938	1938.4	generate	Run1	generate/STIM_008.jpg	99
218.743	2.839	2839.1	generate	Run1	generate/STIM_008.jpg	100
224.634	1.891	1890.6	generate	Run1	generate/STIM_008.jpg	99
230.055	2.281	2280.6	generate	Run1	generate/STIM_008.jpg	99
235.612	2.068	2067.9	generate	Run1	generate/STIM_009.jpg	100
241.577	2.395	2394.6	generate	Run1	generate/STIM_009.jpg	100
247.388	3.141	3140.7	generate	Run1	generate/STIM_009.jpg	99
254.452	2.748	2748.0	generate	Run1	generate/STIM_009.jpg	100
261.175	2.321	2320.8	generate	Run1	generate/STIM_009.jpg	100
265.517	1.416	1416.5	generate	Run1	generate/STIM_010.jpg	100
268.996	2.066	2065.6	generate	Run1	generate/STIM_010.jpg	100
273.314	1.307	1307.4	generate	Run1	generate/STIM_010.jpg	100
276.627	1.425	1424.8	generate	Run1	generate/STIM_010.jpg	100
280.518	1.459	1458.9	generate	Run1	generate/STIM_010.jpg	99
285.247	2.363	2363.0	generate	Run1	generate/STIM_011.jpg	100
289.67	3.226	3225.9	generate	Run1	generate/STIM_011.jpg	99
296.804	2.78	2780.5	generate	Run1	generate/STIM_011.jpg	100
302.098	2.624	2623.8	generate	Run1	generate/STIM_011.jpg	99
308.605	2.492	2492.0	generate	Run1	generate/STIM_011.jpg	99
314.375	2.288	2288.2	generate	Run1	generate/STIM_012.jpg	99
320.109	2.34	2340.1	generate	Run1	generate/STIM_012.jpg	99
325.112	1.303	1302.9	generate	Run1	generate/STIM_012.jpg	99
330.084	2.562	2562.2	generate	Run1	generate/STIM_012.jpg	99
336.082	1.913	1913.4	generate	Run1	generate/STIM_012.jpg	100
341.406	2.087	2086.9	generate	Run1	generate/STIM_013.jpg	100
345.695	2.149	2148.9	generate	Run1	generate/STIM_013.jpg	100
351.762	1.967	1966.7	generate	Run1	generate/STIM_013.jpg	99
357.19	2.258	2257.7	generate	Run1	generate/STIM_013.jpg	99
362.297	2.794	2794.3	generate	Run1	generate/STIM_013.jpg	99
367.243	1.988	1987.8	generate	Run1	generate/STIM_014.jpg	99
372.454	2.424	2424.0	generate	Run1	generate/STIM_014.jpg	100
376.926	1.881	1881.3	generate	Run1	generate/STIM_014.jpg	100
381.786	1.75	1750.5	generate	Run1	generate/STIM_014.jpg	100
387.133	1.5	1500.2	generate	Run1	generate/STIM_014.jpg	100
391.312	1.419	1419.4	generate	Run1	generate/STIM_015.jpg	99
395.441	2.437	2437.2	generate	Run1	generate/STIM_015.jpg	99
400.144	2.682	2681.5	generate	Run1	generate/STIM_015.jpg	100
406.426	1.787	1787.3	generate	Run1	generate/STIM_015.jpg	100
410.461	1.303	1303.0	generate	Run1	generate/STIM_015.jpg	100
414.1	3.16	3160.5	generate	Run1	generate/STIM_016.jpg	100
420.262	1.448	1448.4	generate	Run1	generate/STIM_016.jpg	100
425.487	1.69	1689.5	generate	Run1	generate/STIM_016.jpg	100
430.786	2.86	2860.1	generate	Run1	generate/STIM_016.jpg	100
436.361	2.753	2752.9	generate	Run1	generate/STIM_016.jpg	99
442.264	2.823	2823.1	generate	Run1	generate/STIM_017.jpg	100
448.825	2.143	2143.2	generate	Run1	generate/STIM_017.jpg	100
453.726	2.582	2582.0	generate	Run1	generate/STIM_017.jpg	100
459.695	2.296	2295.6	generate	Run1	generate/STIM_017.jpg	100
464.032	1.311	1311.0	generate	Run1	generate/STIM_017.jpg	100
468.47	2.144	2144.3	generate	Run1	generate/STIM_018.jpg	100
472.944	2.997	2996.7	generate	Run1	generate/STIM_018.jpg	99
479.691	2.172	2172.4	generate	Run1	generate/STIM_018.jpg	99
485.771	1.337	1336.6	generate	Run1	generate/STIM_018.jpg	99
489.297	1.432	1432.0	generate	Run1	generate/STIM_018.jpg	100
493.345	3.175	3175.3	generate	Run1	generate/STIM_019.jpg	100
499.805	2.86	2859.7	generate	Run1	generate/STIM_019.jpg	100
504.927	1.645	1645.0	generate	Run1	generate/STIM_019.jpg	99
510.451	2.838	2838.5	generate	Run1	generate/STIM_019.jpg	100
517.174	1.828	1827.5	generate	Run1	generate/STIM_019.jpg	99
521.306	3.239	3239.3	generate	Run1	generate/STIM_020.jpg	100
528.467	2.349	2348.8	generate	Run1	generate/STIM_020.jpg	99
533.398	3.09	3089.8	generate	Run1	generate/STIM_020.jpg	99
540.148	2.608	2608.1	generate	Run1	generate/STIM_020.jpg	99
544.879	1.314	1314.3	generate	Run1	generate/STIM_020.jpg	99
548.712	3.157	3156.8	generate	Run1	generate/STIM_021.jpg	100
554.451	2.701	2701.1	generate	Run1	generate/STIM_021.jpg	100
560.732	2.221	2221.2	generate	Run1	generate/STIM_021.jpg	99
565.565	2.294	2294.0	generate	Run1	generate/STIM_021.jpg	99
570.943	1.649	1648.6	generate	Run1	generate/STIM_021.jpg	99
575.559	1.988	1987.7	generate	Run1	generate/STIM_022.jpg	99
580.549	1.364	1364.2	generate	Run1	generate/STIM_022.jpg	99
584.133	1.341	1340.6	generate	Run1	generate/STIM_022.jpg	99
588.276	1.575	1574.7	generate	Run1	generate/STIM_022.jpg	100
592.085	1.656	1655.6	generate	Run1	generate/STIM_022.jpg	100
596.395	3.114	3114.2	generate	Run1	generate/STIM_023.jpg	99
602.075	1.77	1770.1	generate	Run1	generate/STIM_023.jpg	99
607.708	1.559	1559.3	generate	Run1	generate/STIM_023.jpg	99
611.398	2.313	2312.8	generate	Run1	generate/STIM_023.jpg	100
616.425	2.195	2195.2	generate	Run1	generate/STIM_023.jpg	99
621.712	1.637	1637.4	generate	Run1	generate/STIM_024.jpg	99
625.742	2.674	2673.9	generate	Run1	generate/STIM_024.jpg	99
631.066	1.942	1941.6	generate	Run1	generate/STIM_024.jpg	100
636.377	2.23	2230.2	generate	Run1	generate/STIM_024.jpg	99
641.721	2.389	2389.3	generate	Run1	generate/STIM_024.jpg	100
647.111	0.686	685.6	repeat	Run1	repeat/STIM_000.jpg	100
650.699	0.704	704.1	repeat	Run1	repeat/STIM_000.jpg	99
653.535	0.907	907.2	repeat	Run1	repeat/STIM_000.jpg	99
657.895	1.107	1106.9	repeat	Run1	repeat/STIM_000.jpg	99
662.466	1.014	1014.3	repeat	Run1	repeat/STIM_000.jpg	99
666.633	1.047	1047.1	repeat	Run1	repeat/STIM_001.jpg	99
670.572	0.619	618.8	repeat	Run1	repeat/STIM_001.jpg	99
674.42	0.967	966.7	repeat	Run1	repeat/STIM_001.jpg	99
679.11	1.105	1104.6	repeat	Run1	repeat/STIM_001.jpg	100
682.228	0.916	915.9	repeat	Run1	repeat/STIM_001.jpg	100
685.999	0.665	664.6	repeat	Run1	repeat/STIM_002.jpg	100
689.864	0.9	900.1	repeat	Run1	repeat/STIM_002.jpg	100
693.52	0.836	836.1	repeat	Run1	repeat/STIM_002.jpg	99
696.718	0.604	604.1	repeat	Run1	repeat/STIM_002.jpg	100
699.609	0.961	961.2	repeat	Run1	repeat/STIM_002.jpg	99
704.564	0.59	590.3	repeat	Run1	repeat/STIM_003.jpg	99
707.993	1.168	1167.7	repeat	Run1	repeat/STIM_003.jpg	99
712.66	1.153	1153.1	repeat	Run1	repeat/STIM_003.jpg	99
717.574	0.762	762.5	repeat	Run1	repeat/STIM_003.jpg	100
722.077	0.927	926.8	repeat	Run1	repeat/STIM_003.jpg	99
725.826	0.618	618.0	repeat	Run1	repeat/STIM_004.jpg	99
730.037	1.026	1025.6	repeat	Run1	repeat/STIM_004.jpg	100
733.788	1.129	1128.8	repeat	Run1	repeat/STIM_004.jpg	99
738.549	1.052	1052.3	repeat	Run1	repeat/STIM_004.jpg	100
742.041	0.846	845.6	repeat	Run1	repeat/STIM_004.jpg	99
745.827	0.853	853.1	repeat	Run1	repeat/STIM_005.jpg	99
750.011	0.642	642.4	repeat	Run1	repeat/STIM_005.jpg	100
753.452	1.045	1045.3	repeat	Run1	repeat/STIM_005.jpg	99
757.423	0.841	841.0	repeat	Run1	repeat/STIM_005.jpg	100
760.39	0.775	775.4	repeat	Run1	repeat/STIM_005.jpg	100
764.717	0.594	594.4	repeat	Run1	repeat/STIM_006.jpg	100
768.134	0.687	686.6	repeat	Run1	repeat/STIM_006.jpg	100
772.593	0.68	680.1	repeat	Run1	repeat/STIM_006.jpg	99
775.513	1.126	1126.5	repeat	Run1	repeat/STIM_006.jpg	99
780.0	0.631	630.7	repeat	Run1	repeat/STIM_006.jpg	100
783.565	0.725	725.3	repeat	Run1	repeat/STIM_007.jpg	100
786.423	0.742	742.4	repeat	Run1	repeat/STIM_007.jpg	99
789.517	0.72	719.6	repeat	Run1	repeat/STIM_007.jpg	99
792.29	0.871	871.2	repeat	Run1	repeat/STIM_007.jpg	100
796.983	0.591	590.7	repeat	Run1	repeat/STIM_007.jpg	100
801.174	0.898	897.5	repeat	Run1	repeat/STIM_008.jpg	100
805.51	1.112	1112.4	repeat	Run1	repeat/STIM_008.jpg	99
809.358	0.996	996.3	repeat	Run1	repeat/STIM_008.jpg	99
813.754	0.96	959.7	repeat	Run1	repeat/STIM_008.jpg	100
816.93	0.969	968.8	repeat	Run1	repeat/STIM_008.jpg	100
820.069	0.774	774.5	repeat	Run1	repeat/STIM_009.jpg	100
824.294	0.777	777.4	repeat	Run1	repeat/STIM_009.jpg	100
827.461	0.84	840.4	repeat	Run1	repeat/STIM_009.jpg	99
832.17	0.661	661.0	repeat	Run1	repeat/STIM_009.jpg	100
835.199	0.923	922.7	repeat	Run1	repeat/STIM_009.jpg	99
838.175	1.162	1162.1	repeat	Run1	repeat/STIM_010.jpg	100
841.798	0.953	952.7	repeat	Run1	repeat/STIM_010.jpg	100
846.042	1.123	1122.6	repeat	Run1	repeat/STIM_010.jpg	99
850.652	1.167	1167.0	repeat	Run1	repeat/STIM_010.jpg	99
854.661	0.958	957.8	repeat	Run1	repeat/STIM_010.jpg	100
859.005	0.886	886.1	repeat	Run1	repeat/STIM_011.jpg	99
863.387	0.598	598.0	repeat	Run1	repeat/STIM_011.jpg	99
866.769	0.689	689.3	repeat	Run1	repeat/STIM_011.jpg	99
870.736	0.99	990.3	repeat	Run1	repeat/STIM_011.jpg	100
875.275	1.03	1030.0	repeat	Run1	repeat/STIM_011.jpg	99
879.657	0.643	642.9	repeat	Run1	repeat/STIM_012.jpg	100
882.487	0.902	901.5	repeat	Run1	repeat/STIM_012.jpg	100
885.504	0.88	880.4	repeat	Run1	repeat/STIM_012.jpg	100
888.615	1.112	1112.4	repeat	Run1	repeat/STIM_012.jpg	99
893.077	0.602	602.3	repeat	Run1	repeat/STIM_012.jpg	99
897.203	0.736	736.1	repeat	Run1	repeat/STIM_013.jpg	100
901.648	1.085	1085.3	repeat	Run1	repeat/STIM_013.jpg	100
906.197	0.631	630.7	repeat	Run1	repeat/STIM_013.jpg	100
909.095	1.004	1004.2	repeat	Run1	repeat/STIM_013.jpg	100
912.294	0.87	870.4	repeat	Run1	repeat/STIM_013.jpg	100
915.956	1.129	1128.6	repeat	Run1	repeat/STIM_014.jpg	99
919.371	0.696	695.9	repeat	Run1	repeat/STIM_014.jpg	99
923.771	1.058	1057.7	repeat	Run1	repeat/STIM_014.jpg	99
928.294	1.07	1069.8	repeat	Run1	repeat/STIM_014.jpg	100
932.298	0.772	771.6	repeat	Run1	repeat/STIM_014.jpg	100
936.253	1.89	1890.1	generate	Run2	generate/STIM_000.jpg	100
940.996	1.575	1575.1	generate	Run2	generate/STIM_000.jpg	100
945.696	1.103	1103.0	generate	Run2	generate/STIM_000.jpg	100
950.531	1.309	1309.2	generate	Run2	generate/STIM_000.jpg	100
955.823	1.289	1289.2	generate	Run2	generate/STIM_000.jpg	100
960.809	2.485	2485.1	generate	Run2	generate/STIM_001.jpg	100
965.599	2.15	2150.4	generate	Run2	generate/STIM_001.jpg	99
969.849	1.77	1770.5	generate	Run2	generate/STIM_001.jpg	100
974.775	2.454	2454.4	generate	Run2	generate/STIM_001.jpg	100
980.565	2.405	2405.3	generate	Run2	generate/STIM_001.jpg	100
986.209	2.956	2955.7	generate	Run2	generate/STIM_002.jpg	99
992.857	2.792	2791.6	generate	Run2	generate/STIM_002.jpg	99
999.443	2.223	2222.9	generate	Run2	generate/STIM_002.jpg	99
1004.71	1.154	1154.5	generate	Run2	generate/STIM_002.jpg	99
1008.394	1.644	1644.5	generate	Run2	generate/STIM_002.jpg	99
1012.356	2.267	2267.4	generate	Run2	generate/STIM_003.jpg	100
1017.303	1.768	1767.6	generate	Run2	generate/STIM_003.jpg	99
1022.389	1.915	1914.6	generate	Run2	generate/STIM_003.jpg	100
1028.236	2.065	2065.3	generate	Run2	generate/STIM_003.jpg	99
1033.83	2.211	2210.6	generate	Run2	generate/STIM_003.jpg	99
1039.957	1.477	1476.7	generate	Run2	generate/STIM_004.jpg	100
1044.119	2.215	2214.9	generate	Run2	generate/STIM_004.jpg	100
1048.991	2.61	2609.9	generate	Run2	generate/STIM_004.jpg	100
1054.451	1.207	1206.9	generate	Run2	generate/STIM_004.jpg	99
1059.148	1.378	1378.2	generate	Run2	generate/STIM_004.jpg	99
1062.808	2.727	2726.8	generate	Run2	generate/STIM_005.jpg	100
1068.002	2.01	2009.5	generate	Run2	generate/STIM_005.jpg	100
1073.819	2.437	2437.0	generate	Run2	generate/STIM_005.jpg	100
1080.23	2.211	2210.7	generate	Run2	generate/STIM_005.jpg	99
1085.268	2.286	2285.5	generate	Run2	generate/STIM_005.jpg	99
1091.123	1.646	1645.6	generate	Run2	generate/STIM_006.jpg	100
1095.662	1.146	1146.0	generate	Run2	generate/STIM_006.jpg	99
1100.177	2.188	2188.0	generate	Run2	generate/STIM_006.jpg	100
1104.587	1.009	1009.1	generate	Run2	generate/STIM_006.jpg	99
1108.782	1.966	1966.5	generate	Run2	generate/STIM_006.jpg	99
1112.98	2.014	2014.0	generate	Run2	generate/STIM_007.jpg	100
1117.866	2.465	2464.6	generate	Run2	generate/STIM_007.jpg	99
1123.028	2.269	2269.4	generate	Run2	generate/STIM_007.jpg	99
1128.441	1.295	1294.9	generate	Run2	generate/STIM_007.jpg	99
1132.382	1.67	1670.4	generate	Run2	generate/STIM_007.jpg	100
1136.467	1.982	1981.8	generate	Run2	generate/STIM_008.jpg	99
1142.435	2.075	2075.3	generate	Run2	generate/STIM_008.jpg	99
1146.693	1.787	1786.8	generate	Run2	generate/STIM_008.jpg	99
1151.973	2.03	2030.5	generate	Run2	generate/STIM_008.jpg	99
1157.509	1.256	1256.4	generate	Run2	generate/STIM_008.jpg	100
1162.439	2.162	2161.6	generate	Run2	generate/STIM_009.jpg	100
1168.408	2.422	2422.3	generate	Run2	generate/STIM_009.jpg	100
1173.622	1.65	1650.3	generate	Run2	generate/STIM_009.jpg	99
1177.777	2.311	2310.8	generate	Run2	generate/STIM_009.jpg	99
1182.615	1.336	1335.9	generate	Run2	generate/STIM_009.jpg	99
1186.665	1.62	1619.5	generate	Run2	generate/STIM_010.jpg	100
1192.161	1.206	1205.6	generate	Run2	generate/STIM_010.jpg	99
1197.03	1.172	1171.5	generate	Run2	generate/STIM_010.jpg	99
1201.917	1.85	1849.9	generate	Run2	generate/STIM_010.jpg	99
1206.433	1.096	1096.1	generate	Run2	generate/STIM_010.jpg	99
1209.594	1.764	1764.5	generate	Run2	generate/STIM_011.jpg	100
1214.993	1.433	1433.4	generate	Run2	generate/STIM_011.jpg	99
1219.979	2.582	2581.5	generate	Run2	generate/STIM_011.jpg	100
1225.167	1.778	1778.3	generate	Run2	generate/STIM_011.jpg	100
1230.393	0.992	991.8	generate	Run2	generate/STIM_011.jpg	100
1234.797	2.625	2624.8	generate	Run2	generate/STIM_012.jpg	99
1239.961	2.786	2786.1	generate	Run2	generate/STIM_012.jpg	100
1246.432	1.069	1068.9	generate	Run2	generate/STIM_012.jpg	99
1251.281	1.067	1067.0	generate	Run2	generate/STIM_012.jpg	99
1254.45	1.17	1170.4	generate	Run2	generate/STIM_012.jpg	99
1258.315	2.868	2868.5	generate	Run2	generate/STIM_013.jpg	100
1264.683	1.388	1387.8	generate	Run2	generate/STIM_013.jpg	100
1268.917	2.127	2126.8	generate	Run2	generate/STIM_013.jpg	100
1273.17	1.863	1862.6	generate	Run2	generate/STIM_013.jpg	100
1278.058	2.302	2301.9	generate	Run2	generate/STIM_013.jpg	99
1283.574	1.994	1994.0	generate	Run2	generate/STIM_014.jpg	100
1289.203	2.776	2776.3	generate	Run2	generate/STIM_014.jpg	100
1294.496	1.539	1539.1	generate	Run2	generate/STIM_014.jpg	100
1299.268	1.493	1493.2	generate	Run2	generate/STIM_014.jpg	99
1303.437	2.099	2099.1	generate	Run2	generate/STIM_014.jpg	99
1308.219	2.239	2239.3	generate	Run2	generate/STIM_015.jpg	99
1313.168	2.026	2026.1	generate	Run2	generate/STIM_015.jpg	99
1317.302	2.279	2279.0	generate	Run2	generate/STIM_015.jpg	99
1322.191	2.078	2077.5	generate	Run2	generate/STIM_015.jpg	100
1327.632	1.009	1008.7	generate	Run2	generate/STIM_015.jpg	100
1331.177	1.345	1344.8	generate	Run2	generate/STIM_016.jpg	99
1336.059	1.149	1149.3	generate	Run2	generate/STIM_016.jpg	100
1340.23	2.258	2257.7	generate	Run2	generate/STIM_016.jpg	99
1345.965	2.009	2008.5	generate	Run2	generate/STIM_016.jpg	100
1350.203	2.189	2189.4	generate	Run2	generate/STIM_016.jpg	99
1354.671	2.051	2051.0	generate	Run2	generate/STIM_017.jpg	99
1360.222	1.291	1290.8	generate	Run2	generate/STIM_017.jpg	100
1364.735	1.196	1196.0	generate	Run2	generate/STIM_017.jpg	100
1369.4	1.879	1879.4	generate	Run2	generate/STIM_017.jpg	99
1373.73	1.449	1448.7	generate	Run2	generate/STIM_017.jpg	99
1377.909	2.417	2416.6	generate	Run2	generate/STIM_018.jpg	99
1383.423	2.406	2406.3	generate	Run2	generate/STIM_018.jpg	100
1388.94	2.517	2516.9	generate	Run2	generate/STIM_018.jpg	100
1393.684	1.453	1452.9	generate	Run2	generate/STIM_018.jpg	99
1398.95	2.386	2386.5	generate	Run2	generate/STIM_018.jpg	100
1404.432	1.833	1833.4	generate	Run2	generate/STIM_019.jpg	99
1408.49	2.536	2536.3	generate	Run2	generate/STIM_019.jpg	100
1413.333	1.68	1680.0	generate	Run2	generate/STIM_019.jpg	99
1418.222	2.415	2414.8	generate	Run2	generate/STIM_019.jpg	99
1424.404	1.156	1155.7	generate	Run2	generate/STIM_019.jpg	100
1429.514	2.116	2115.7	generate	Run2	generate/STIM_020.jpg	99
1433.948	2.198	2198.0	generate	Run2	generate/STIM_020.jpg	99
1438.358	1.674	1673.9	generate	Run2	generate/STIM_020.jpg	99
1442.927	2.079	2079.4	generate	Run2	generate/STIM_020.jpg	100
1448.837	1.132	1131.8	generate	Run2	generate/STIM_020.jpg	100
1452.238	2.085	2085.0	generate	Run2	generate/STIM_021.jpg	100
1457.514	2.238	2237.6	generate	Run2	generate/STIM_021.jpg	99
1462.784	2.141	2141.0	generate	Run2	generate/STIM_021.jpg	99
1468.606	2.184	2183.7	generate	Run2	generate/STIM_021.jpg	99
1473.472	1.613	1613.3	generate	Run2	generate/STIM_021.jpg	99
1478.723	2.634	2633.5	generate	Run2	generate/STIM_022.jpg	100
1484.251	2.748	2748.3	generate	Run2	generate/STIM_022.jpg	99
1489.342	2.048	2048.1	generate	Run2	generate/STIM_022.jpg	100
1493.396	1.354	1353.6	generate	Run2	generate/STIM_022.jpg	99
1498.613	2.091	2091.3	generate	Run2	generate/STIM_022.jpg	100
1503.531	2.099	2098.6	generate	Run2	generate/STIM_023.jpg	99
1508.567	1.484	1484.2	generate	Run2	generate/STIM_023.jpg	100
1513.056	1.485	1485.1	generate	Run2	generate/STIM_023.jpg	100
1516.642	1.033	1032.7	generate	Run2	generate/STIM_023.jpg	99
1521.425	1.31	1310.5	generate	Run2	generate/STIM_023.jpg	99
1526.625	1.331	1331.3	generate	Run2	generate/STIM_024.jpg	100
1530.492	1.954	1953.8	generate	Run2	generate/STIM_024.jpg	100
1535.873	2.361	2361.4	generate	Run2	generate/STIM_024.jpg	100
1541.807	1.871	1870.8	generate	Run2	generate/STIM_024.jpg	100
1547.15	2.307	2307.2	generate	Run2	generate/STIM_024.jpg	100
1551.999	0.711	710.7	repeat	Run2	repeat/STIM_000.jpg	100
1555.652	0.849	849.1	repeat	Run2	repeat/STIM_000.jpg	99
1558.79	1.164	1163.9	repeat	Run2	repeat/STIM_000.jpg	99
1562.349	0.876	875.5	repeat	Run2	repeat/STIM_000.jpg	100
1566.991	1.031	1031.1	repeat	Run2	repeat/STIM_000.jpg	100
1571.713	0.637	636.9	repeat	Run2	repeat/STIM_001.jpg	99
1574.887	0.726	726.2	repeat	Run2	repeat/STIM_001.jpg	100
1578.054	0.606	605.7	repeat	Run2	repeat/STIM_001.jpg	99
1580.85	0.807	806.9	repeat	Run2	repeat/STIM_001.jpg	99
1585.339	0.895	894.7	repeat	Run2	repeat/STIM_001.jpg	99
1588.728	0.716	716.4	repeat	Run2	repeat/STIM_002.jpg	99
1593.27	0.718	717.6	repeat	Run2	repeat/STIM_002.jpg	100
1597.507	0.652	651.5	repeat	Run2	repeat/STIM_002.jpg	99
1600.358	0.79	789.6	repeat	Run2	repeat/STIM_002.jpg	100
1603.977	0.943	943.4	repeat	Run2	repeat/STIM_002.jpg	99
1608.762	0.877	877.4	repeat	Run2	repeat/STIM_003.jpg	99
1612.048	0.747	746.9	repeat	Run2	repeat/STIM_003.jpg	99
1616.646	1.168	1167.5	repeat	Run2	repeat/STIM_003.jpg	100
1620.697	0.596	596.1	repeat	Run2	repeat/STIM_003.jpg	99
1623.531	0.851	850.9	repeat	Run2	repeat/STIM_003.jpg	100
1627.094	0.824	823.5	repeat	Run2	repeat/STIM_004.jpg	99
1630.786	0.754	754.1	repeat	Run2	repeat/STIM_004.jpg	100
1634.686	0.739	738.7	repeat	Run2	repeat/STIM_004.jpg	99
1638.569	0.615	615.4	repeat	Run2	repeat/STIM_004.jpg	99
1641.441	1.003	1003.3	repeat	Run2	repeat/STIM_004.jpg	100
1646.301	0.731	730.6	repeat	Run2	repeat/STIM_005.jpg	99
1650.826	1.131	1131.2	repeat	Run2	repeat/STIM_005.jpg	100
1654.594	0.658	658.4	repeat	Run2	repeat/STIM_005.jpg	100
1658.775	0.879	879.0	repeat	Run2	repeat/STIM_005.jpg	99
1662.478	1.111	1111.4	repeat	Run2	repeat/STIM_005.jpg	99
1666.454	0.765	764.8	repeat	Run2	repeat/STIM_006.jpg	100
1670.44	0.675	674.7	repeat	Run2	repeat/STIM_006.jpg	99
1675.069	1.057	1057.4	repeat	Run2	repeat/STIM_006.jpg	99
1679.369	0.796	796.0	repeat	Run2	repeat/STIM_006.jpg	99
1682.769	0.766	766.5	repeat	Run2	repeat/STIM_006.jpg	99
1687.435	0.696	696.0	repeat	Run2	repeat/STIM_007.jpg	100
1691.736	0.953	953.2	repeat	Run2	repeat/STIM_007.jpg	99
1695.119	0.974	973.7	repeat	Run2	repeat/STIM_007.jpg	99
1699.366	0.883	883.1	repeat	Run2	repeat/STIM_007.jpg	99
1703.59	0.871	870.6	repeat	Run2	repeat/STIM_007.jpg	100
1707.274	0.929	929.2	repeat	Run2	repeat/STIM_008.jpg	100
1710.938	0.902	901.8	repeat	Run2	repeat/STIM_008.jpg	99
1714.122	0.902	902.4	repeat	Run2	repeat/STIM_008.jpg	100
1717.569	1.0	1000.1	repeat	Run2	repeat/STIM_008.jpg	99
1721.076	0.846	845.7	repeat	Run2	repeat/STIM_008.jpg	99
1724.857	0.999	999.4	repeat	Run2	repeat/STIM_009.jpg	100
1728.371	1.053	1053.4	repeat	Run2	repeat/STIM_009.jpg	100
1732.024	0.772	772.3	repeat	Run2	repeat/STIM_009.jpg	100
1736.365	0.682	681.7	repeat	Run2	repeat/STIM_009.jpg	100
1740.242	1.008	1008.0	repeat	Run2	repeat/STIM_009.jpg	99
1745.236	0.702	702.5	repeat	Run2	repeat/STIM_010.jpg	100
1749.328	0.908	908.1	repeat	Run2	repeat/STIM_010.jpg	99
1753.382	0.813	812.9	repeat	Run2	repeat/STIM_010.jpg	99
1756.291	0.861	861.0	repeat	Run2	repeat/STIM_010.jpg	99
1760.719	0.846	846.5	repeat	Run2	repeat/STIM_010.jpg	100
1763.904	0.843	843.1	repeat	Run2	repeat/STIM_011.jpg	99
1767.857	0.922	922.5	repeat	Run2	repeat/STIM_011.jpg	100
1772.5	1.033	1033.2	repeat	Run2	repeat/STIM_011.jpg	100
1776.671	0.92	920.5	repeat	Run2	repeat/STIM_011.jpg	99
1780.117	1.167	1166.8	repeat	Run2	repeat/STIM_011.jpg	99
1784.872	0.8	800.1	repeat	Run2	repeat/STIM_012.jpg	99
1789.03	1.011	1011.0	repeat	Run2	repeat/STIM_012.jpg	99
1792.271	1.001	1001.0	repeat	Run2	repeat/STIM_012.jpg	100
1797.072	1.014	1013.8	repeat	Run2	repeat/STIM_012.jpg	100
1801.557	0.935	934.8	repeat	Run2	repeat/STIM_012.jpg	99
1804.537	0.828	828.2	repeat	Run2	repeat/STIM_013.jpg	100
1807.896	0.873	873.0	repeat	Run2	repeat/STIM_013.jpg	100
1811.477	0.948	948.5	repeat	Run2	repeat/STIM_013.jpg	100
1814.696	0.902	902.3	repeat	Run2	repeat/STIM_013.jpg	99
1817.863	1.15	1149.7	repeat	Run2	repeat/STIM_013.jpg	99
1822.063	0.71	709.8	repeat	Run2	repeat/STIM_014.jpg	99
1826.031	1.074	1073.9	repeat	Run2	repeat/STIM_014.jpg	100
1829.143	0.978	977.9	repeat	Run2	repeat/STIM_014.jpg	99
1834.053	0.98	979.8	repeat	Run2	repeat/STIM_014.jpg	99
1838.038	1.03	1029.6	repeat	Run2	repeat/STIM_014.jpg	99
1841.715	1.35	1349.7	generate	Run3	generate/STIM_000.jpg	99
1845.965	1.458	1457.7	generate	Run3	generate/STIM_000.jpg	99
1850.05	2.159	2158.9	generate	Run3	generate/STIM_000.jpg	99
1855.412	1.009	1008.6	generate	Run3	generate/STIM_000.jpg	99
1859.22	2.215	2215.2	generate	Run3	generate/STIM_000.jpg	99
1864.105	2.03	2030.5	generate	Run3	generate/STIM_001.jpg	99
1870.057	1.072	1071.9	generate	Run3	generate/STIM_001.jpg	99
1873.617	1.362	1362.2	generate	Run3	generate/STIM_001.jpg	100
1877.795	2.232	2231.6	generate	Run3	generate/STIM_001.jpg	99
1883.834	2.314	2314.0	generate	Run3	generate/STIM_001.jpg	99
1888.167	2.009	2008.5	generate	Run3	generate/STIM_002.jpg	100
1893.455	2.279	2279.4	generate	Run3	generate/STIM_002.jpg	99
1898.486	1.616	1616.2	generate	Run3	generate/STIM_002.jpg	99
1902.638	1.362	1361.9	generate	Run3	generate/STIM_002.jpg	99
1906.755	1.451	1451.4	generate	Run3	generate/STIM_002.jpg	99
1910.515	1.732	1731.7	generate	Run3	generate/STIM_003.jpg	99
1914.435	1.174	1174.2	generate	Run3	generate/STIM_003.jpg	99
1917.777	1.334	1333.7	generate	Run3	generate/STIM_003.jpg	100
1921.586	1.706	1706.5	generate	Run3	generate/STIM_003.jpg	99
1926.599	2.032	2032.0	generate	Run3	generate/STIM_003.jpg	99
1931.462	1.015	1015.1	generate	Run3	generate/STIM_004.jpg	100
1936.139	1.207	1207.0	generate	Run3	generate/STIM_004.jpg	99
1940.243	2.221	2220.7	generate	Run3	generate/STIM_004.jpg	100
1944.755	1.887	1887.1	generate	Run3	generate/STIM_004.jpg	100
1949.022	1.302	1301.6	generate	Run3	generate/STIM_004.jpg	99
1953.134	1.368	1368.5	generate	Run3	generate/STIM_005.jpg	100
1956.604	1.657	1657.4	generate	Run3	generate/STIM_005.jpg	99
1960.689	1.401	1400.6	generate	Run3	generate/STIM_005.jpg	99
1964.514	1.74	1739.5	generate	Run3	generate/STIM_005.jpg	99
1969.458	1.9	1900.0	generate	Run3	generate/STIM_005.jpg	99
1974.459	1.948	1948.1	generate	Run3	generate/STIM_006.jpg	99
1979.547	1.057	1057.4	generate	Run3	generate/STIM_006.jpg	100
1983.989	2.092	2092.0	generate	Run3	generate/STIM_006.jpg	100
1989.138	1.155	1155.0	generate	Run3	generate/STIM_006.jpg	99
1992.533	1.633	1632.6	generate	Run3	generate/STIM_006.jpg	100
1997.328	1.466	1466.3	generate	Run3	generate/STIM_007.jpg	100
2002.378	2.307	2307.2	generate	Run3	generate/STIM_007.jpg	99
2008.623	1.659	1658.7	generate	Run3	generate/STIM_007.jpg	99
2013.381	2.413	2412.7	generate	Run3	generate/STIM_007.jpg	99
2018.054	1.718	1717.8	generate	Run3	generate/STIM_007.jpg	100
2023.265	1.97	1970.2	generate	Run3	generate/STIM_008.jpg	100
2027.424	2.215	2215.2	generate	Run3	generate/STIM_008.jpg	100
2032.633	1.216	1215.8	generate	Run3	generate/STIM_008.jpg	99
2037.352	1.871	1870.6	generate	Run3	generate/STIM_008.jpg	100
2042.332	1.2	1200.5	generate	Run3	generate/STIM_008.jpg	100
2047.209	1.274	1273.8	generate	Run3	generate/STIM_009.jpg	99
2050.984	1.225	1225.0	generate	Run3	generate/STIM_009.jpg	100
2055.299	1.204	1203.8	generate	Run3	generate/STIM_009.jpg	99
2060.303	1.6	1600.5	generate	Run3	generate/STIM_009.jpg	99
2064.046	2.288	2287.5	generate	Run3	generate/STIM_009.jpg	100
2069.589	1.328	1328.5	generate	Run3	generate/STIM_010.jpg	100
2073.893	2.05	2049.7	generate	Run3	generate/STIM_010.jpg	99
2079.652	2.438	2437.7	generate	Run3	generate/STIM_010.jpg	99
2085.38	2.388	2388.3	generate	Run3	generate/STIM_010.jpg	99
2091.076	1.061	1060.6	generate	Run3	generate/STIM_010.jpg	100
2095.114	1.958	1958.5	generate	Run3	generate/STIM_011.jpg	99
2100.145	1.35	1350.5	generate	Run3	generate/STIM_011.jpg	100
2105.133	1.187	1187.4	generate	Run3	generate/STIM_011.jpg	100
2110.067	2.156	2155.8	generate	Run3	generate/STIM_011.jpg	99
2114.599	1.8	1799.8	generate	Run3	generate/STIM_011.jpg	100
2118.821	1.727	1726.8	generate	Run3	generate/STIM_012.jpg	100
2124.129	2.408	2407.7	generate	Run3	generate/STIM_012.jpg	99
2129.958	1.828	1827.9	generate	Run3	generate/STIM_012.jpg	99
2135.756	1.654	1654.5	generate	Run3	generate/STIM_012.jpg	99
2140.031	2.429	2429.4	generate	Run3	generate/STIM_012.jpg	100
2144.877	2.023	2023.5	generate	Run3	generate/STIM_013.jpg	99
2150.263	1.728	1728.2	generate	Run3	generate/STIM_013.jpg	100
2154.495	1.313	1313.1	generate	Run3	generate/STIM_013.jpg	100
2157.984	2.107	2106.9	generate	Run3	generate/STIM_013.jpg	99
2162.133	0.988	987.7	generate	Run3	generate/STIM_013.jpg	99
2167.064	1.62	1620.3	generate	Run3	generate/STIM_014.jpg	99
2172.068	1.191	1191.1	generate	Run3	generate/STIM_014.jpg	99
2177.043	2.119	2119.4	generate	Run3	generate/STIM_014.jpg	99
2182.008	1.096	1096.3	generate	Run3	generate/STIM_014.jpg	100
2186.47	1.93	1930.4	generate	Run3	generate/STIM_014.jpg	99
2191.164	1.335	1334.8	generate	Run3	generate/STIM_015.jpg	99
2195.385	1.538	1538.5	generate	Run3	generate/STIM_015.jpg	99
2200.546	1.5	1499.7	generate	Run3	generate/STIM_015.jpg	100
2204.293	1.81	1810.4	generate	Run3	generate/STIM_015.jpg	100
2208.569	1.6	1599.9	generate	Run3	generate/STIM_015.jpg	100
2212.853	1.204	1204.0	generate	Run3	generate/STIM_016.jpg	99
2216.8	1.038	1037.9	generate	Run3	generate/STIM_016.jpg	99
2220.821	1.659	1659.1	generate	Run3	generate/STIM_016.jpg	100
2225.488	1.687	1687.2	generate	Run3	generate/STIM_016.jpg	99
2229.315	1.123	1123.0	generate	Run3	generate/STIM_016.jpg	100
2233.922	1.083	1082.6	generate	Run3	generate/STIM_017.jpg	100
2238.763	2.011	2010.9	generate	Run3	generate/STIM_017.jpg	99
2242.854	1.717	1716.7	generate	Run3	generate/STIM_017.jpg	99
2248.448	1.072	1071.7	generate	Run3	generate/STIM_017.jpg	99
2252.785	1.855	1855.0	generate	Run3	generate/STIM_017.jpg	99
2256.715	1.986	1986.5	generate	Run3	generate/STIM_018.jpg	100
2262.368	1.635	1635.1	generate	Run3	generate/STIM_018.jpg	100
2267.715	1.304	1303.7	generate	Run3	generate/STIM_018.jpg	99
2271.939	1.968	1968.5	generate	Run3	generate/STIM_018.jpg	99
2276.55	1.902	1902.5	generate	Run3	generate/STIM_018.jpg	100
2282.368	1.075	1075.0	generate	Run3	generate/STIM_019.jpg	100
2285.482	2.013	2012.5	generate	Run3	generate/STIM_019.jpg	100
2289.914	2.006	2006.5	generate	Run3	generate/STIM_019.jpg	100
2294.195	1.747	1746.6	generate	Run3	generate/STIM_019.jpg	99
2299.811	1.895	1895.2	generate	Run3	generate/STIM_019.jpg	100
2305.363	2.201	2200.7	generate	Run3	generate/STIM_020.jpg	99
2311.008	2.155	2154.9	generate	Run3	generate/STIM_020.jpg	100
2316.358	2.005	2004.6	generate	Run3	generate/STIM_020.jpg	99
2321.989	2.028	2027.6	generate	Run3	generate/STIM_020.jpg	100
2327.665	1.504	1504.2	generate	Run3	generate/STIM_020.jpg	100
2331.808	2.276	2276.0	generate	Run3	generate/STIM_021.jpg	100
2337.94	2.301	2301.4	generate	Run3	generate/STIM_021.jpg	100
2342.903	1.066	1065.7	generate	Run3	generate/STIM_021.jpg	100
2347.663	1.908	1907.7	generate	Run3	generate/STIM_021.jpg	99
2351.949	1.083	1082.8	generate	Run3	generate/STIM_021.jpg	100
2355.731	1.637	1636.8	generate	Run3	generate/STIM_022.jpg	99
2360.654	1.484	1484.1	generate	Run3	generate/STIM_022.jpg	99
2365.086	1.809	1809.2	generate	Run3	generate/STIM_022.jpg	99
2369.536	2.039	2039.1	generate	Run3	generate/STIM_022.jpg	100
2374.471	1.937	1936.8	generate	Run3	generate/STIM_022.jpg	100
2379.477	1.948	1947.5	generate	Run3	generate/STIM_023.jpg	99
2383.691	1.23	1230.4	generate	Run3	generate/STIM_023.jpg	99
2388.841	0.998	997.7	generate	Run3	generate/STIM_023.jpg	100
2392.405	1.213	1213.1	generate	Run3	generate/STIM_023.jpg	99
2396.881	1.898	1898.0	generate	Run3	generate/STIM_023.jpg	100
2401.349	1.791	1791.4	generate	Run3	generate/STIM_024.jpg	100
2406.455	2.231	2231.4	generate	Run3	generate/STIM_024.jpg	100
2411.807	2.016	2015.6	generate	Run3	generate/STIM_024.jpg	99
2417.515	1.404	1404.4	generate	Run3	generate/STIM_024.jpg	99
2422.8	2.368	2368.4	generate	Run3	generate/STIM_024.jpg	99
2429.014	1.134	1134.2	repeat	Run3	repeat/STIM_000.jpg	100
2432.573	0.617	617.1	repeat	Run3	repeat/STIM_000.jpg	99
2435.46	0.699	699.4	repeat	Run3	repeat/STIM_000.jpg	100
2438.486	0.895	895.4	repeat	Run3	repeat/STIM_000.jpg	99
2441.529	0.729	729.2	repeat	Run3	repeat/STIM_000.jpg	100
2444.656	0.672	671.6	repeat	Run3	repeat/STIM_001.jpg	100
2447.622	0.605	605.3	repeat	Run3	repeat/STIM_001.jpg	100
2452.063	1.171	1171.0	repeat	Run3	repeat/STIM_001.jpg	99
2456.321	0.624	624.4	repeat	Run3	repeat/STIM_001.jpg	100
2459.311	1.017	1017.4	repeat	Run3	repeat/STIM_001.jpg	99
2463.969	0.945	945.3	repeat	Run3	repeat/STIM_002.jpg	100
2468.906	0.644	643.9	repeat	Run3	repeat/STIM_002.jpg	99
2472.108	0.595	595.1	repeat	Run3	repeat/STIM_002.jpg	100
2476.012	1.125	1125.3	repeat	Run3	repeat/STIM_002.jpg	100
2480.764	0.906	905.8	repeat	Run3	repeat/STIM_002.jpg	100
2485.174	0.724	723.6	repeat	Run3	repeat/STIM_003.jpg	99
2488.524	0.959	958.8	repeat	Run3	repeat/STIM_003.jpg	100
2493.363	1.121	1121.4	repeat	Run3	repeat/STIM_003.jpg	99
2496.634	0.676	676.5	repeat	Run3	repeat/STIM_003.jpg	99
2500.761	0.852	851.6	repeat	Run3	repeat/STIM_003.jpg	99
2505.307	1.071	1070.8	repeat	Run3	repeat/STIM_004.jpg	99
2509.361	0.952	952.0	repeat	Run3	repeat/STIM_004.jpg	99
2514.244	1.051	1050.6	repeat	Run3	repeat/STIM_004.jpg	100
2519.021	0.678	678.3	repeat	Run3	repeat/STIM_004.jpg	100
2521.895	0.694	694.1	repeat	Run3	repeat/STIM_004.jpg	99
2525.626	0.665	665.2	repeat	Run3	repeat/STIM_005.jpg	100
2528.518	0.751	750.6	repeat	Run3	repeat/STIM_005.jpg	99
2532.669	1.114	1113.6	repeat	Run3	repeat/STIM_005.jpg	100
2537.524	1.087	1087.1	repeat	Run3	repeat/STIM_005.jpg	99
2542.315	1.005	1005.2	repeat	Run3	repeat/STIM_005.jpg	99
2546.505	0.824	823.7	repeat	Run3	repeat/STIM_006.jpg	99
2550.542	0.866	865.5	repeat	Run3	repeat/STIM_006.jpg	99
2555.358	0.971	970.6	repeat	Run3	repeat/STIM_006.jpg	99
2559.54	0.69	690.2	repeat	Run3	repeat/STIM_006.jpg	99
2564.171	0.719	719.4	repeat	Run3	repeat/STIM_006.jpg	100
2567.462	0.592	591.6	repeat	Run3	repeat/STIM_007.jpg	99
2571.255	1.048	1047.5	repeat	Run3	repeat/STIM_007.jpg	99
2574.573	0.657	657.4	repeat	Run3	repeat/STIM_007.jpg	99
2578.658	0.782	782.4	repeat	Run3	repeat/STIM_007.jpg	100
2581.868	0.955	955.2	repeat	Run3	repeat/STIM_007.jpg	100
2585.487	0.595	594.8	repeat	Run3	repeat/STIM_008.jpg	100
2588.523	0.596	596.0	repeat	Run3	repeat/STIM_008.jpg	99
2591.657	1.155	1154.6	repeat	Run3	repeat/STIM_008.jpg	99
2596.429	1.063	1063.4	repeat	Run3	repeat/STIM_008.jpg	99
2601.074	1.075	1075.1	repeat	Run3	repeat/STIM_008.jpg	99
2606.004	0.741	740.6	repeat	Run3	repeat/STIM_009.jpg	100
2609.002	1.164	1164.2	repeat	Run3	repeat/STIM_009.jpg	99
2612.808	0.987	986.8	repeat	Run3	repeat/STIM_009.jpg	99
2616.554	1.08	1079.5	repeat	Run3	repeat/STIM_009.jpg	99
2621.236	0.638	637.5	repeat	Run3	repeat/STIM_009.jpg	100
2624.977	0.72	720.5	repeat	Run3	repeat/STIM_010.jpg	99
2629.39	0.876	875.6	repeat	Run3	repeat/STIM_010.jpg	100
2634.234	1.06	1060.3	repeat	Run3	repeat/STIM_010.jpg	99
2639.281	1.168	1168.5	repeat	Run3	repeat/STIM_010.jpg	99
2644.191	1.095	1095.4	repeat	Run3	repeat/STIM_010.jpg	99
2647.641	0.91	910.3	repeat	Run3	repeat/STIM_011.jpg	100
2652.545	1.037	1037.3	repeat	Run3	repeat/STIM_011.jpg	100
2656.724	0.6	599.5	repeat	Run3	repeat/STIM_011.jpg	99
2660.853	0.765	764.8	repeat	Run3	repeat/STIM_011.jpg	99
2663.726	0.637	637.4	repeat	Run3	repeat/STIM_011.jpg	99
2666.49	0.944	944.3	repeat	Run3	repeat/STIM_012.jpg	99
2670.141	0.684	684.1	repeat	Run3	repeat/STIM_012.jpg	100
2674.205	0.62	620.0	repeat	Run3	repeat/STIM_012.jpg	100
2676.842	0.76	760.1	repeat	Run3	repeat/STIM_012.jpg	99
2680.874	1.005	1004.8	repeat	Run3	repeat/STIM_012.jpg	100
2684.122	0.834	833.7	repeat	Run3	repeat/STIM_013.jpg	100
2687.508	0.745	744.8	repeat	Run3	repeat/STIM_013.jpg	100
2690.353	1.106	1105.8	repeat	Run3	repeat/STIM_013.jpg	99
2695.354	1.152	1151.7	repeat	Run3	repeat/STIM_013.jpg	100
2700.261	0.597	597.3	repeat	Run3	repeat/STIM_013.jpg	100
2704.041	0.688	688.3	repeat	Run3	repeat/STIM_014.jpg	99
2708.216	1.007	1006.6	repeat	Run3	repeat/STIM_014.jpg	100
2712.618	1.116	1115.6	repeat	Run3	repeat/STIM_014.jpg	100
2717.213	0.951	951.3	repeat	Run3	repeat/STIM_014.jpg	100
2721.138	0.85	850.3	repeat	Run3	repeat/STIM_014.jpg	100
2725.66	1.497	1496.7	generate	Run4	generate/STIM_000.jpg	100
2730.0	1.232	1231.6	generate	Run4	generate/STIM_000.jpg	100
2734.438	1.494	1494.4	generate	Run4	generate/STIM_000.jpg	99
2737.977	1.348	1348.3	generate	Run4	generate/STIM_000.jpg	100
2742.708	1.65	1649.5	generate	Run4	generate/STIM_000.jpg	99
2746.824	2.272	2272.1	generate	Run4	generate/STIM_001.jpg	100
2752.159	1.936	1935.6	generate	Run4	generate/STIM_001.jpg	100
2757.972	2.232	2232.2	generate	Run4	generate/STIM_001.jpg	99
2763.502	1.265	1265.0	generate	Run4	generate/STIM_001.jpg	100
2767.901	2.359	2359.4	generate	Run4	generate/STIM_001.jpg	99
2772.769	2.275	2275.3	generate	Run4	generate/STIM_002.jpg	100
2778.552	1.58	1579.6	generate	Run4	generate/STIM_002.jpg	100
2783.044	1.87	1869.9	generate	Run4	generate/STIM_002.jpg	100
2787.634	1.572	1572.1	generate	Run4	generate/STIM_002.jpg	99
2793.047	2.245	2245.4	generate	Run4	generate/STIM_002.jpg	100
2798.246	1.108	1108.0	generate	Run4	generate/STIM_003.jpg	100
2801.876	1.606	1605.9	generate	Run4	generate/STIM_003.jpg	100
2805.553	2.345	2345.4	generate	Run4	generate/STIM_003.jpg	99
2810.484	1.79	1790.2	generate	Run4	generate/STIM_003.jpg	99
2814.437	1.041	1040.6	generate	Run4	generate/STIM_003.jpg	99
2817.602	1.697	1697.2	generate	Run4	generate/STIM_004.jpg	99
2822.061	1.608	1607.7	generate	Run4	generate/STIM_004.jpg	99
2826.729	2.286	2285.9	generate	Run4	generate/STIM_004.jpg	100
2832.048	1.425	1425.0	generate	Run4	generate/STIM_004.jpg	99
2837.283	1.514	1514.3	generate	Run4	generate/STIM_004.jpg	99
2841.468	1.462	1461.9	generate	Run4	generate/STIM_005.jpg	100
2846.344	1.62	1619.5	generate	Run4	generate/STIM_005.jpg	100
2850.147	1.243	1242.7	generate	Run4	generate/STIM_005.jpg	99
2855.093	1.19	1190.3	generate	Run4	generate/STIM_005.jpg	99
2859.388	1.086	1085.5	generate	Run4	generate/STIM_005.jpg	100
2863.373	2.348	2348.0	generate	Run4	generate/STIM_006.jpg	99
2868.156	1.992	1992.5	generate	Run4	generate/STIM_006.jpg	100
2873.423	1.001	1000.9	generate	Run4	generate/STIM_006.jpg	100
2877.839	2.123	2122.6	generate	Run4	generate/STIM_006.jpg	99
2882.902	2.355	2355.3	generate	Run4	generate/STIM_006.jpg	100
2888.18	1.944	1944.4	generate	Run4	generate/STIM_007.jpg	99
2892.834	2.363	2363.4	generate	Run4	generate/STIM_007.jpg	99
2897.43	2.19	2190.2	generate	Run4	generate/STIM_007.jpg	100
2901.699	1.739	1738.9	generate	Run4	generate/STIM_007.jpg	99
2907.107	1.84	1839.7	generate	Run4	generate/STIM_007.jpg	99
2911.584	1.698	1698.1	generate	Run4	generate/STIM_008.jpg	100
2915.546	1.411	1410.8	generate	Run4	generate/STIM_008.jpg	99
2919.924	1.78	1779.8	generate	Run4	generate/STIM_008.jpg	100
2924.195	2.092	2092.4	generate	Run4	generate/STIM_008.jpg	99
2929.518	1.471	1471.4	generate	Run4	generate/STIM_008.jpg	100
2934.477	1.609	1608.8	generate	Run4	generate/STIM_009.jpg	99
2939.907	2.399	2398.8	generate	Run4	generate/STIM_009.jpg	100
2945.665	1.788	1788.0	generate	Run4	generate/STIM_009.jpg	99
2951.397	1.209	1209.2	generate	Run4	generate/STIM_009.jpg	99
2956.226	1.692	1692.0	generate	Run4	generate/STIM_009.jpg	99
2960.117	1.91	1910.1	generate	Run4	generate/STIM_010.jpg	99
2964.778	1.045	1044.9	generate	Run4	generate/STIM_010.jpg	100
2968.094	1.462	1462.1	generate	Run4	generate/STIM_010.jpg	100
2972.317	2.067	2067.2	generate	Run4	generate/STIM_010.jpg	99
2976.733	1.839	1839.1	generate	Run4	generate/STIM_010.jpg	99
2982.364	1.87	1870.5	generate	Run4	generate/STIM_011.jpg	100
2986.607	1.951	1951.0	generate	Run4	generate/STIM_011.jpg	100
2992.096	1.771	1770.6	generate	Run4	generate/STIM_011.jpg	100
2996.325	1.235	1235.2	generate	Run4	generate/STIM_011.jpg	100
3001.044	2.229	2229.4	generate	Run4	generate/STIM_011.jpg	99
3005.372	1.664	1664.2	generate	Run4	generate/STIM_012.jpg	100
3010.106	0.997	997.0	generate	Run4	generate/STIM_012.jpg	100
3015.002	2.366	2365.7	generate	Run4	generate/STIM_012.jpg	99
3019.713	1.684	1683.8	generate	Run4	generate/STIM_012.jpg	99
3025.301	1.774	1774.3	generate	Run4	generate/STIM_012.jpg	100
3030.668	1.115	1114.8	generate	Run4	generate/STIM_013.jpg	100
3035.44	1.006	1006.4	generate	Run4	generate/STIM_013.jpg	100
3038.737	1.655	1655.1	generate	Run4	generate/STIM_013.jpg	99
3043.916	1.48	1479.6	generate	Run4	generate/STIM_013.jpg	99
3047.778	1.264	1263.7	generate	Run4	generate/STIM_013.jpg	100
3052.064	1.801	1801.2	generate	Run4	generate/STIM_014.jpg	100
3057.478	1.636	1635.7	generate	Run4	generate/STIM_014.jpg	100
3062.243	1.931	1931.3	generate	Run4	generate/STIM_014.jpg	99
3067.553	1.622	1622.4	generate	Run4	generate/STIM_014.jpg	100
3072.061	1.944	1943.6	generate	Run4	generate/STIM_014.jpg	99
3077.85	2.136	2136.3	generate	Run4	generate/STIM_015.jpg	100
3083.65	1.36	1360.5	generate	Run4	generate/STIM_015.jpg	99
3087.43	1.965	1965.4	generate	Run4	generate/STIM_015.jpg	100
3091.584	2.344	2343.8	generate	Run4	generate/STIM_015.jpg	99
3097.847	1.992	1992.3	generate	Run4	generate/STIM_015.jpg	100
3103.476	1.051	1050.6	generate	Run4	generate/STIM_016.jpg	99
3107.744	1.212	1211.9	generate	Run4	generate/STIM_016.jpg	100
3112.281	1.5	1499.7	generate	Run4	generate/STIM_016.jpg	100
3117.458	1.404	1404.3	generate	Run4	generate/STIM_016.jpg	100
3122.128	2.267	2267.4	generate	Run4	generate/STIM_016.jpg	100
3126.68	2.36	2359.5	generate	Run4	generate/STIM_017.jpg	99
3132.454	2.133	2133.2	generate	Run4	generate/STIM_017.jpg	99
3138.448	1.523	1523.0	generate	Run4	generate/STIM_017.jpg	99
3142.625	1.033	1032.9	generate	Run4	generate/STIM_017.jpg	100
3147.292	1.659	1659.1	generate	Run4	generate/STIM_017.jpg	100
3151.962	1.415	1414.8	generate	Run4	generate/STIM_018.jpg	99
3157.297	2.119	2118.9	generate	Run4	generate/STIM_018.jpg	100
3163.208	1.12	1120.2	generate	Run4	generate/STIM_018.jpg	100
3167.231	1.626	1625.6	generate	Run4	generate/STIM_018.jpg	100
3172.503	1.792	1792.5	generate	Run4	generate/STIM_018.jpg	100
3178.283	2.034	2034.3	generate	Run4	generate/STIM_019.jpg	99
3184.21	1.227	1227.3	generate	Run4	generate/STIM_019.jpg	99
3188.854	1.671	1671.4	generate	Run4	generate/STIM_019.jpg	100
3193.614	1.088	1087.8	generate	Run4	generate/STIM_019.jpg	99
3197.329	2.337	2336.8	generate	Run4	generate/STIM_019.jpg	99
3203.191	1.437	1436.8	generate	Run4	generate/STIM_020.jpg	99
3207.565	1.851	1851.3	generate	Run4	generate/STIM_020.jpg	99
3212.365	1.444	1443.8	generate	Run4	generate/STIM_020.jpg	100
3217.007	1.616	1616.2	generate	Run4	generate/STIM_020.jpg	99
3221.384	1.154	1154.2	generate	Run4	generate/STIM_020.jpg	99
3225.144	1.979	1979.1	generate	Run4	generate/STIM_021.jpg	100
3229.807	1.149	1148.8	generate	Run4	generate/STIM_021.jpg	99
3234.288	2.151	2151.1	generate	Run4	generate/STIM_021.jpg	100
3240.214	1.586	1585.6	generate	Run4	generate/STIM_021.jpg	99
3243.809	2.123	2122.9	generate	Run4	generate/STIM_021.jpg	100
3248.559	2.282	2281.8	generate	Run4	generate/STIM_022.jpg	100
3254.758	1.802	1802.2	generate	Run4	generate/STIM_022.jpg	100
3259.346	1.066	1065.9	generate	Run4	generate/STIM_022.jpg	99
3262.873	1.325	1325.2	generate	Run4	generate/STIM_022.jpg	100
3268.067	1.558	1558.4	generate	Run4	generate/STIM_022.jpg	99
3271.87	1.717	1717.4	generate	Run4	generate/STIM_023.jpg	99
3277.127	2.378	2378.0	generate	Run4	generate/STIM_023.jpg	99
3282.832	1.945	1945.2	generate	Run4	generate/STIM_023.jpg	99
3288.182	2.029	2028.6	generate	Run4	generate/STIM_023.jpg	100
3293.662	1.737	1736.7	generate	Run4	generate/STIM_023.jpg	100
3299.384	1.441	1441.2	generate	Run4	generate/STIM_024.jpg	99
3304.369	2.327	2327.3	generate	Run4	generate/STIM_024.jpg	99
3310.526	1.116	1116.2	generate	Run4	generate/STIM_024.jpg	99
3314.884	2.095	2094.8	generate	Run4	generate/STIM_024.jpg	100
3319.747	1.41	1410.1	generate	Run4	generate/STIM_024.jpg	100
3324.001	1.051	1050.6	repeat	Run4	repeat/STIM_000.jpg	99
3327.412	0.946	946.2	repeat	Run4	repeat/STIM_000.jpg	100
3332.236	0.765	764.9	repeat	Run4	repeat/STIM_000.jpg	100
3335.261	0.925	925.0	repeat	Run4	repeat/STIM_000.jpg	99
3339.83	0.902	901.6	repeat	Run4	repeat/STIM_000.jpg	99
3344.117	1.045	1044.8	repeat	Run4	repeat/STIM_001.jpg	100
3348.942	1.126	1125.9	repeat	Run4	repeat/STIM_001.jpg	99
3353.334	0.594	594.2	repeat	Run4	repeat/STIM_001.jpg	100
3356.635	1.162	1161.6	repeat	Run4	repeat/STIM_001.jpg	99
3360.737	1.148	1147.8	repeat	Run4	repeat/STIM_001.jpg	100
3364.986	0.971	971.1	repeat	Run4	repeat/STIM_002.jpg	100
3368.863	0.671	671.1	repeat	Run4	repeat/STIM_002.jpg	100
3373.194	0.696	695.8	repeat	Run4	repeat/STIM_002.jpg	99
3376.533	0.658	657.9	repeat	Run4	repeat/STIM_002.jpg	100
3380.397	0.751	750.7	repeat	Run4	repeat/STIM_002.jpg	100
3384.322	0.837	836.6	repeat	Run4	repeat/STIM_003.jpg	100
3387.527	0.949	948.7	repeat	Run4	repeat/STIM_003.jpg	100
3391.414	0.774	773.8	repeat	Run4	repeat/STIM_003.jpg	99
3396.106	0.929	929.3	repeat	Run4	repeat/STIM_003.jpg	100
3400.134	1.126	1125.9	repeat	Run4	repeat/STIM_003.jpg	99
3403.288	1.006	1005.8	repeat	Run4	repeat/STIM_004.jpg	99
3407.995	0.917	917.3	repeat	Run4	repeat/STIM_004.jpg	99
3410.921	0.684	684.2	repeat	Run4	repeat/STIM_004.jpg	99
3413.964	1.048	1048.1	repeat	Run4	repeat/STIM_004.jpg	99
3417.024	0.935	935.0	repeat	Run4	repeat/STIM_004.jpg	99
3421.926	0.767	766.9	repeat	Run4	repeat/STIM_005.jpg	100
3425.462	0.863	862.7	repeat	Run4	repeat/STIM_005.jpg	100
3429.938	0.888	888.1	repeat	Run4	repeat/STIM_005.jpg	99
3434.065	0.839	839.0	repeat	Run4	repeat/STIM_005.jpg	100
3437.904	0.827	826.8	repeat	Run4	repeat/STIM_005.jpg	99
3442.536	0.978	978.0	repeat	Run4	repeat/STIM_006.jpg	100
3445.986	0.724	723.9	repeat	Run4	repeat/STIM_006.jpg	100
3448.714	1.052	1051.5	repeat	Run4	repeat/STIM_006.jpg	99
3452.44	0.728	727.5	repeat	Run4	repeat/STIM_006.jpg	99
3456.164	0.783	783.1	repeat	Run4	repeat/STIM_006.jpg	100
3460.262	0.785	785.3	repeat	Run4	repeat/STIM_007.jpg	99
3464.974	0.872	871.8	repeat	Run4	repeat/STIM_007.jpg	100
3467.949	0.739	739.1	repeat	Run4	repeat/STIM_007.jpg	100
3471.233	1.095	1094.6	repeat	Run4	repeat/STIM_007.jpg	100
3475.893	0.736	735.7	repeat	Run4	repeat/STIM_007.jpg	100
3479.179	0.729	728.8	repeat	Run4	repeat/STIM_008.jpg	100
3483.154	0.848	847.8	repeat	Run4	repeat/STIM_008.jpg	100
3487.936	0.697	697.3	repeat	Run4	repeat/STIM_008.jpg	100
3491.117	0.874	873.8	repeat	Run4	repeat/STIM_008.jpg	100
3495.52	0.861	861.3	repeat	Run4	repeat/STIM_008.jpg	99
3498.793	1.082	1082.0	repeat	Run4	repeat/STIM_009.jpg	100
3503.784	0.686	685.7	repeat	Run4	repeat/STIM_009.jpg	100
3507.663	0.857	857.4	repeat	Run4	repeat/STIM_009.jpg	100
3511.536	0.839	839.0	repeat	Run4	repeat/STIM_009.jpg	100
3515.963	0.962	962.4	repeat	Run4	repeat/STIM_009.jpg	100
3520.847	0.658	658.2	repeat	Run4	repeat/STIM_010.jpg	99
3524.975	0.794	793.8	repeat	Run4	repeat/STIM_010.jpg	100
3527.784	0.66	659.8	repeat	Run4	repeat/STIM_010.jpg	100
3531.471	0.968	968.2	repeat	Run4	repeat/STIM_010.jpg	100
3536.18	0.768	767.9	repeat	Run4	repeat/STIM_010.jpg	100
3539.618	0.64	640.5	repeat	Run4	repeat/STIM_011.jpg	99
3542.857	0.67	670.5	repeat	Run4	repeat/STIM_011.jpg	100
3547.277	0.74	740.2	repeat	Run4	repeat/STIM_011.jpg	100
3550.9	0.929	929.1	repeat	Run4	repeat/STIM_011.jpg	100
3555.298	0.823	822.8	repeat	Run4	repeat/STIM_011.jpg	100
3559.703	0.69	690.4	repeat	Run4	repeat/STIM_012.jpg	100
3563.336	0.797	797.4	repeat	Run4	repeat/STIM_012.jpg	100
3567.921	0.716	715.5	repeat	Run4	repeat/STIM_012.jpg	99
3570.796	1.03	1029.5	repeat	Run4	repeat/STIM_012.jpg	99
3574.367	1.122	1121.8	repeat	Run4	repeat/STIM_012.jpg	100
3577.791	1.026	1026.3	repeat	Run4	repeat/STIM_013.jpg	100
3581.519	0.99	990.0	repeat	Run4	repeat/STIM_013.jpg	99
3586.48	0.791	790.8	repeat	Run4	repeat/STIM_013.jpg	100
3589.303	0.744	743.7	repeat	Run4	repeat/STIM_013.jpg	99
3593.236	0.949	949.1	repeat	Run4	repeat/STIM_013.jpg	99
3596.281	0.639	638.9	repeat	Run4	repeat/STIM_014.jpg	100
3599.821	0.61	610.4	repeat	Run4	repeat/STIM_014.jpg	99
3602.538	1.094	1094.4	repeat	Run4	repeat/STIM_014.jpg	99
3607.014	0.641	641.2	repeat	Run4	repeat/STIM_014.jpg	100
3611.516	0.985	984.8	repeat	Run4	repeat/STIM_014.jpg	99
