onset	duration	accuracy_binary	trial_type	learning_stage	stimulus
0.0	1.84	1	generate	Run1	generate/STIM_000.jpg
5.27	2.221	1	generate	Run1	generate/STIM_000.jpg
10.994	2.066	1	generate	Run1	generate/STIM_000.jpg
15.913	1.306	0	generate	Run1	generate/STIM_000.jpg
20.521	0.956	1	generate	Run1	generate/STIM_000.jpg
24.249	1.977	1	generate	Run1	generate/STIM_001.jpg
29.475	2.258	1	generate	Run1	generate/STIM_001.jpg
34.707	1.553	1	generate	Run1	generate/STIM_001.jpg
40.008	1.333	1	generate	Run1	generate/STIM_001.jpg
44.966	2.222	1	generate	Run1	generate/STIM_001.jpg
49.374	2.351	1	generate	Run1	generate/STIM_002.jpg
54.668	2.69	1	generate	Run1	generate/STIM_002.jpg
61.007	1.865	1	generate	Run1	generate/STIM_002.jpg
65.926	1.947	0	generate	Run1	generate/STIM_002.jpg
71.59	1.107	1	generate	Run1	generate/STIM_002.jpg
75.414	2.249	1	generate	Run1	generate/STIM_003.jpg
81.462	2.134	1	generate	Run1	generate/STIM_003.jpg
85.733	1.073	1	generate	Run1	generate/STIM_003.jpg
90.259	2.254	0	generate	Run1	generate/STIM_003.jpg
95.196	2.065	0	generate	Run1	generate/STIM_003.jpg
99.754	1.561	1	generate	Run1	generate/STIM_004.jpg
104.97	2.225	1	generate	Run1	generate/STIM_004.jpg
109.816	2.546	1	generate	Run1	generate/STIM_004.jpg
116.259	1.568	1	generate	Run1	generate/STIM_004.jpg
121.85	1.339	1	generate	Run1	generate/STIM_004.jpg
126.463	1.37	1	generate	Run1	generate/STIM_005.jpg
131.725	1.621	0	generate	Run1	generate/STIM_005.jpg
136.408	2.234	1	generate	Run1	generate/STIM_005.jpg
140.881	1.772	1	generate	Run1	generate/STIM_005.jpg
146.379	1.516	1	generate	Run1	generate/STIM_005.jpg
150.224	2.481	0	generate	Run1	generate/STIM_006.jpg
155.711	2.5	1	generate	Run1	generate/STIM_006.jpg
161.59	2.225	1	generate	Run1	generate/STIM_006.jpg
166.243	1.844	1	generate	Run1	generate/STIM_006.jpg
171.719	1.651	1	generate	Run1	generate/STIM_006.jpg
175.695	2.88	1	generate	Run1	generate/STIM_007.jpg
181.845	2.045	1	generate	Run1	generate/STIM_007.jpg
187.579	2.308	1	generate	Run1	generate/STIM_007.jpg
193.89	1.934	1	generate	Run1	generate/STIM_007.jpg
199.82	2.019	0	generate	Run1	generate/STIM_007.jpg
204.941	1.334	1	generate	Run1	generate/STIM_008.jpg
208.628	1.84	0	generate	Run1	generate/STIM_008.jpg
214.491	1.241	1	generate	Run1	generate/STIM_008.jpg
217.783	1.174	1	generate	Run1	generate/STIM_008.jpg
222.616	1.102	1	generate	Run1	generate/STIM_008.jpg
227.718	1.208	1	generate	Run1	generate/STIM_009.jpg
232.505	1.529	1	generate	Run1	generate/STIM_009.jpg
237.456	1.756	1	generate	Run1	generate/STIM_009.jpg
241.695	1.705	1	generate	Run1	generate/STIM_009.jpg
246.881	1.019	1	generate	Run1	generate/STIM_009.jpg
250.797	1.162	1	generate	Run1	generate/STIM_010.jpg
254.554	1.805	1	generate	Run1	generate/STIM_010.jpg
259.653	1.95	0	generate	Run1	generate/STIM_010.jpg
264.149	1.13	1	generate	Run1	generate/STIM_010.jpg
267.836	1.233	1	generate	Run1	generate/STIM_010.jpg
271.87	1.738	1	generate	Run1	generate/STIM_011.jpg
275.845	1.693	1	generate	Run1	generate/STIM_011.jpg
280.3	1.925	1	generate	Run1	generate/STIM_011.jpg
286.201	2.334	1	generate	Run1	generate/STIM_011.jpg
290.944	1.472	1	generate	Run1	generate/STIM_011.jpg
296.078	2.387	1	generate	Run1	generate/STIM_012.jpg
302.029	1.287	0	generate	Run1	generate/STIM_012.jpg
306.73	2.349	0	generate	Run1	generate/STIM_012.jpg
311.699	1.494	1	generate	Run1	generate/STIM_012.jpg
315.32	0.946	1	generate	Run1	generate/STIM_012.jpg
319.49	2.144	1	generate	Run1	generate/STIM_013.jpg
323.832	2.144	1	generate	Run1	generate/STIM_013.jpg
328.629	1.122	1	generate	Run1	generate/STIM_013.jpg
333.314	1.052	1	generate	Run1	generate/STIM_013.jpg
337.101	2.215	1	generate	Run1	generate/STIM_013.jpg
342.319	2.317	1	generate	Run1	generate/STIM_014.jpg
348.087	2.364	1	generate	Run1	generate/STIM_014.jpg
353.465	1.46	1	generate	Run1	generate/STIM_014.jpg
357.877	1.088	1	generate	Run1	generate/STIM_014.jpg
362.787	1.527	1	generate	Run1	generate/STIM_014.jpg
368.086	2.38	1	generate	Run1	generate/STIM_015.jpg
373.855	1.487	1	generate	Run1	generate/STIM_015.jpg
377.544	2.436	1	generate	Run1	generate/STIM_015.jpg
383.741	1.3	1	generate	Run1	generate/STIM_015.jpg
387.657	1.577	0	generate	Run1	generate/STIM_015.jpg
393.01	1.695	1	generate	Run1	generate/STIM_016.jpg
397.692	2.349	0	generate	Run1	generate/STIM_016.jpg
402.772	2.053	1	generate	Run1	generate/STIM_016.jpg
408.165	1.317	1	generate	Run1	generate/STIM_016.jpg
412.365	1.304	1	generate	Run1	generate/STIM_016.jpg
417.186	2.078	0	generate	Run1	generate/STIM_017.jpg
422.579	1.283	0	generate	Run1	generate/STIM_017.jpg
426.699	1.32	1	generate	Run1	generate/STIM_017.jpg
430.908	2.343	1	generate	Run1	generate/STIM_017.jpg
435.6	1.368	0	generate	Run1	generate/STIM_017.jpg
439.507	2.431	1	generate	Run1	generate/STIM_018.jpg
445.199	1.431	1	generate	Run1	generate/STIM_018.jpg
449.019	1.93	1	generate	Run1	generate/STIM_018.jpg
453.245	1.043	1	generate	Run1	generate/STIM_018.jpg
457.11	1.937	1	generate	Run1	generate/STIM_018.jpg
461.597	1.652	1	generate	Run1	generate/STIM_019.jpg
465.975	2.449	0	generate	Run1	generate/STIM_019.jpg
472.361	1.118	1	generate	Run1	generate/STIM_019.jpg
476.902	1.75	1	generate	Run1	generate/STIM_019.jpg
482.296	1.173	1	generate	Run1	generate/STIM_019.jpg
485.629	1.618	0	generate	Run1	generate/STIM_020.jpg
490.716	2.472	1	generate	Run1	generate/STIM_020.jpg
496.344	2.556	1	generate	Run1	generate/STIM_020.jpg
501.787	1.915	1	generate	Run1	generate/STIM_020.jpg
505.817	1.622	1	generate	Run1	generate/STIM_020.jpg
510.798	1.796	0	generate	Run1	generate/STIM_021.jpg
516.053	1.197	0	generate	Run1	generate/STIM_021.jpg
520.8	1.138	1	generate	Run1	generate/STIM_021.jpg
524.766	1.756	1	generate	Run1	generate/STIM_021.jpg
528.961	2.251	1	generate	Run1	generate/STIM_021.jpg
534.191	2.113	1	generate	Run1	generate/STIM_022.jpg
538.999	2.679	1	generate	Run1	generate/STIM_022.jpg
544.912	2.142	1	generate	Run1	generate/STIM_022.jpg
550.234	1.756	1	generate	Run1	generate/STIM_022.jpg
554.294	1.354	0	generate	Run1	generate/STIM_022.jpg
559.381	1.194	1	generate	Run1	generate/STIM_023.jpg
564.366	2.368	1	generate	Run1	generate/STIM_023.jpg
569.451	1.953	1	generate	Run1	generate/STIM_023.jpg
575.375	1.564	1	generate	Run1	generate/STIM_023.jpg
580.547	1.027	1	generate	Run1	generate/STIM_023.jpg
584.192	1.335	0	generate	Run1	generate/STIM_024.jpg
588.353	1.494	1	generate	Run1	generate/STIM_024.jpg
593.222	1.591	1	generate	Run1	generate/STIM_024.jpg
597.409	1.282	1	generate	Run1	generate/STIM_024.jpg
601.682	1.51	1	generate	Run1	generate/STIM_024.jpg
605.596	0.647	1	repeat	Run1	repeat/STIM_000.jpg
610.065	0.951	1	repeat	Run1	repeat/STIM_000.jpg
613.198	0.489	1	repeat	Run1	repeat/STIM_000.jpg
616.062	0.953	1	repeat	Run1	repeat/STIM_000.jpg
619.145	0.934	1	repeat	Run1	repeat/STIM_000.jpg
623.358	0.532	1	repeat	Run1	repeat/STIM_001.jpg
626.373	0.578	1	repeat	Run1	repeat/STIM_001.jpg
629.064	0.884	1	repeat	Run1	repeat/STIM_001.jpg
633.922	0.819	1	repeat	Run1	repeat/STIM_001.jpg
638.576	0.857	0	repeat	Run1	repeat/STIM_001.jpg
642.375	0.732	1	repeat	Run1	repeat/STIM_002.jpg
646.425	0.77	1	repeat	Run1	repeat/STIM_002.jpg
650.623	0.952	1	repeat	Run1	repeat/STIM_002.jpg
654.362	0.833	1	repeat	Run1	repeat/STIM_002.jpg
657.691	0.75	1	repeat	Run1	repeat/STIM_002.jpg
660.591	0.669	1	repeat	Run1	repeat/STIM_003.jpg
665.047	0.922	1	repeat	Run1	repeat/STIM_003.jpg
669.83	0.961	1	repeat	Run1	repeat/STIM_003.jpg
674.556	0.522	1	repeat	Run1	repeat/STIM_003.jpg
677.121	0.618	1	repeat	Run1	repeat/STIM_003.jpg
679.991	0.657	1	repeat	Run1	repeat/STIM_004.jpg
684.074	0.563	1	repeat	Run1	repeat/STIM_004.jpg
688.377	0.52	1	repeat	Run1	repeat/STIM_004.jpg
690.977	0.95	1	repeat	Run1	repeat/STIM_004.jpg
695.906	0.729	1	repeat	Run1	repeat/STIM_004.jpg
698.83	0.626	1	repeat	Run1	repeat/STIM_005.jpg
701.887	0.617	1	repeat	Run1	repeat/STIM_005.jpg
705.046	0.861	1	repeat	Run1	repeat/STIM_005.jpg
709.416	0.661	1	repeat	Run1	repeat/STIM_005.jpg
714.009	0.935	1	repeat	Run1	repeat/STIM_005.jpg
717.899	0.946	1	repeat	Run1	repeat/STIM_006.jpg
721.523	0.686	1	repeat	Run1	repeat/STIM_006.jpg
725.527	0.794	1	repeat	Run1	repeat/STIM_006.jpg
728.466	0.605	1	repeat	Run1	repeat/STIM_006.jpg
732.124	0.738	1	repeat	Run1	repeat/STIM_006.jpg
736.208	0.877	1	repeat	Run1	repeat/STIM_007.jpg
739.606	0.507	1	repeat	Run1	repeat/STIM_007.jpg
742.792	0.85	1	repeat	Run1	repeat/STIM_007.jpg
746.998	0.87	1	repeat	Run1	repeat/STIM_007.jpg
751.023	0.78	1	repeat	Run1	repeat/STIM_007.jpg
754.881	0.86	1	repeat	Run1	repeat/STIM_008.jpg
758.925	0.747	1	repeat	Run1	repeat/STIM_008.jpg
763.689	0.708	1	repeat	Run1	repeat/STIM_008.jpg
766.995	0.814	1	repeat	Run1	repeat/STIM_008.jpg
770.411	0.66	1	repeat	Run1	repeat/STIM_008.jpg
774.38	0.69	1	repeat	Run1	repeat/STIM_009.jpg
777.764	0.713	1	repeat	Run1	repeat/STIM_009.jpg
781.599	0.704	1	repeat	Run1	repeat/STIM_009.jpg
785.432	0.738	1	repeat	Run1	repeat/STIM_009.jpg
788.864	0.859	1	repeat	Run1	repeat/STIM_009.jpg
792.614	0.602	1	repeat	Run1	repeat/STIM_010.jpg
795.456	0.67	1	repeat	Run1	repeat/STIM_010.jpg
798.893	0.834	1	repeat	Run1	repeat/STIM_010.jpg
802.306	0.881	1	repeat	Run1	repeat/STIM_010.jpg
806.037	0.893	1	repeat	Run1	repeat/STIM_010.jpg
810.12	0.515	1	repeat	Run1	repeat/STIM_011.jpg
813.254	0.733	1	repeat	Run1	repeat/STIM_011.jpg
817.032	0.654	1	repeat	Run1	repeat/STIM_011.jpg
821.041	0.923	1	repeat	Run1	repeat/STIM_011.jpg
824.66	0.488	1	repeat	Run1	repeat/STIM_011.jpg
828.842	0.813	1	repeat	Run1	repeat/STIM_012.jpg
833.471	0.894	1	repeat	Run1	repeat/STIM_012.jpg
837.679	0.607	1	repeat	Run1	repeat/STIM_012.jpg
842.172	0.782	1	repeat	Run1	repeat/STIM_012.jpg
846.612	0.837	1	repeat	Run1	repeat/STIM_012.jpg
850.676	0.848	1	repeat	Run1	repeat/STIM_013.jpg
855.225	0.668	1	repeat	Run1	repeat/STIM_013.jpg
857.944	0.942	1	repeat	Run1	repeat/STIM_013.jpg
862.617	0.64	1	repeat	Run1	repeat/STIM_013.jpg
866.777	0.922	1	repeat	Run1	repeat/STIM_013.jpg
871.39	0.821	1	repeat	Run1	repeat/STIM_014.jpg
876.098	0.924	1	repeat	Run1	repeat/STIM_014.jpg
880.608	0.537	1	repeat	Run1	repeat/STIM_014.jpg
883.892	0.714	1	repeat	Run1	repeat/STIM_014.jpg
887.309	0.871	1	repeat	Run1	repeat/STIM_014.jpg
890.273	1.51	1	generate	Run2	generate/STIM_000.jpg
895.687	1.102	1	generate	Run2	generate/STIM_000.jpg
899.518	1.655	1	generate	Run2	generate/STIM_000.jpg
904.896	1.579	1	generate	Run2	generate/STIM_000.jpg
910.186	1.322	1	generate	Run2	generate/STIM_000.jpg
914.709	1.398	1	generate	Run2	generate/STIM_001.jpg
920.014	1.261	1	generate	Run2	generate/STIM_001.jpg
923.756	0.891	1	generate	Run2	generate/STIM_001.jpg
928.643	1.148	1	generate	Run2	generate/STIM_001.jpg
932.195	1.227	1	generate	Run2	generate/STIM_001.jpg
936.454	2.45	0	generate	Run2	generate/STIM_002.jpg
942.702	2.299	0	generate	Run2	generate/STIM_002.jpg
949.09	1.94	0	generate	Run2	generate/STIM_002.jpg
954.803	0.988	1	generate	Run2	generate/STIM_002.jpg
959.765	1.731	1	generate	Run2	generate/STIM_002.jpg
965.107	1.406	1	generate	Run2	generate/STIM_003.jpg
969.331	1.655	1	generate	Run2	generate/STIM_003.jpg
974.529	1.649	1	generate	Run2	generate/STIM_003.jpg
978.884	1.201	1	generate	Run2	generate/STIM_003.jpg
983.075	1.384	1	generate	Run2	generate/STIM_003.jpg
987.516	1.138	1	generate	Run2	generate/STIM_004.jpg
992.557	1.702	1	generate	Run2	generate/STIM_004.jpg
997.197	1.214	0	generate	Run2	generate/STIM_004.jpg
1001.329	1.912	1	generate	Run2	generate/STIM_004.jpg
1006.347	1.424	1	generate	Run2	generate/STIM_004.jpg
1011.293	1.089	0	generate	Run2	generate/STIM_005.jpg
1015.598	1.256	1	generate	Run2	generate/STIM_005.jpg
1020.863	1.5	1	generate	Run2	generate/STIM_005.jpg
1025.887	1.562	1	generate	Run2	generate/STIM_005.jpg
1031.479	1.345	1	generate	Run2	generate/STIM_005.jpg
1036.095	1.282	0	generate	Run2	generate/STIM_006.jpg
1040.969	1.27	1	generate	Run2	generate/STIM_006.jpg
1045.992	1.81	1	generate	Run2	generate/STIM_006.jpg
1051.179	1.483	1	generate	Run2	generate/STIM_006.jpg
1056.573	1.384	1	generate	Run2	generate/STIM_006.jpg
1060.042	1.301	1	generate	Run2	generate/STIM_007.jpg
1064.994	1.402	1	generate	Run2	generate/STIM_007.jpg
1069.409	1.525	1	generate	Run2	generate/STIM_007.jpg
1074.504	1.265	1	generate	Run2	generate/STIM_007.jpg
1079.517	1.265	1	generate	Run2	generate/STIM_007.jpg
1084.65	1.588	1	generate	Run2	generate/STIM_008.jpg
1088.329	1.353	1	generate	Run2	generate/STIM_008.jpg
1093.38	1.086	1	generate	Run2	generate/STIM_008.jpg
1096.794	1.209	1	generate	Run2	generate/STIM_008.jpg
1101.209	1.294	1	generate	Run2	generate/STIM_008.jpg
1105.966	1.182	1	generate	Run2	generate/STIM_009.jpg
1110.555	1.399	0	generate	Run2	generate/STIM_009.jpg
1114.276	0.875	0	generate	Run2	generate/STIM_009.jpg
1118.688	1.49	1	generate	Run2	generate/STIM_009.jpg
1122.881	0.818	1	generate	Run2	generate/STIM_009.jpg
1126.542	2.367	1	generate	Run2	generate/STIM_010.jpg
1132.915	1.394	1	generate	Run2	generate/STIM_010.jpg
1137.792	1.943	1	generate	Run2	generate/STIM_010.jpg
1143.797	1.367	1	generate	Run2	generate/STIM_010.jpg
1147.318	1.566	1	generate	Run2	generate/STIM_010.jpg
1152.035	1.101	1	generate	Run2	generate/STIM_011.jpg
1156.291	1.811	1	generate	Run2	generate/STIM_011.jpg
1160.471	1.901	1	generate	Run2	generate/STIM_011.jpg
1165.763	1.305	1	generate	Run2	generate/STIM_011.jpg
1169.892	1.033	1	generate	Run2	generate/STIM_011.jpg
1174.43	1.87	1	generate	Run2	generate/STIM_012.jpg
1178.896	1.238	1	generate	Run2	generate/STIM_012.jpg
1184.007	1.999	1	generate	Run2	generate/STIM_012.jpg
1189.278	1.73	1	generate	Run2	generate/STIM_012.jpg
1193.624	1.237	1	generate	Run2	generate/STIM_012.jpg
1197.231	1.087	1	generate	Run2	generate/STIM_013.jpg
1201.952	1.493	1	generate	Run2	generate/STIM_013.jpg
1206.241	0.913	0	generate	Run2	generate/STIM_013.jpg
1210.775	1.743	1	generate	Run2	generate/STIM_013.jpg
1215.758	1.209	1	generate	Run2	generate/STIM_013.jpg
1220.79	1.456	1	generate	Run2	generate/STIM_014.jpg
1224.485	1.645	1	generate	Run2	generate/STIM_014.jpg
1229.975	1.844	1	generate	Run2	generate/STIM_014.jpg
1235.337	2.004	1	generate	Run2	generate/STIM_014.jpg
1240.34	1.18	1	generate	Run2	generate/STIM_014.jpg
1244.94	1.518	0	generate	Run2	generate/STIM_015.jpg
1250.487	2.002	1	generate	Run2	generate/STIM_015.jpg
1256.421	1.901	1	generate	Run2	generate/STIM_015.jpg
1261.312	1.479	1	generate	Run2	generate/STIM_015.jpg
1264.914	0.923	0	generate	Run2	generate/STIM_015.jpg
1267.885	1.328	1	generate	Run2	generate/STIM_016.jpg
1272.649	1.486	1	generate	Run2	generate/STIM_016.jpg
1276.417	1.329	1	generate	Run2	generate/STIM_016.jpg
1280.223	1.372	1	generate	Run2	generate/STIM_016.jpg
1284.798	1.114	1	generate	Run2	generate/STIM_016.jpg
1289.084	1.797	1	generate	Run2	generate/STIM_017.jpg
1293.534	1.79	1	generate	Run2	generate/STIM_017.jpg
1299.252	1.664	1	generate	Run2	generate/STIM_017.jpg
1303.286	1.09	1	generate	Run2	generate/STIM_017.jpg
1308.058	1.895	1	generate	Run2	generate/STIM_017.jpg
1313.381	1.143	1	generate	Run2	generate/STIM_018.jpg
1318.069	1.262	1	generate	Run2	generate/STIM_018.jpg
1322.126	1.57	1	generate	Run2	generate/STIM_018.jpg
1327.273	0.817	1	generate	Run2	generate/STIM_018.jpg
1330.48	1.084	1	generate	Run2	generate/STIM_018.jpg
1334.253	1.128	1	generate	Run2	generate/STIM_019.jpg
1337.686	1.367	1	generate	Run2	generate/STIM_019.jpg
1341.597	1.601	1	generate	Run2	generate/STIM_019.jpg
1346.498	0.836	1	generate	Run2	generate/STIM_019.jpg
1351.089	1.473	1	generate	Run2	generate/STIM_019.jpg
1355.161	1.771	1	generate	Run2	generate/STIM_020.jpg
1359.686	1.433	1	generate	Run2	generate/STIM_020.jpg
1363.676	1.99	1	generate	Run2	generate/STIM_020.jpg
1369.333	0.906	1	generate	Run2	generate/STIM_020.jpg
1372.976	1.77	0	generate	Run2	generate/STIM_020.jpg
1378.726	2.184	1	generate	Run2	generate/STIM_021.jpg
1383.568	1.842	1	generate	Run2	generate/STIM_021.jpg
1389.179	1.582	1	generate	Run2	generate/STIM_021.jpg
1393.182	1.784	1	generate	Run2	generate/STIM_021.jpg
1397.124	0.888	1	generate	Run2	generate/STIM_021.jpg
1400.804	1.368	1	generate	Run2	generate/STIM_022.jpg
1405.586	1.028	1	generate	Run2	generate/STIM_022.jpg
1408.884	2.15	1	generate	Run2	generate/STIM_022.jpg
1413.48	1.488	1	generate	Run2	generate/STIM_022.jpg
1417.56	1.107	1	generate	Run2	generate/STIM_022.jpg
1422.102	2.024	1	generate	Run2	generate/STIM_023.jpg
1426.599	1.623	1	generate	Run2	generate/STIM_023.jpg
1431.623	1.54	1	generate	Run2	generate/STIM_023.jpg
1436.162	1.508	0	generate	Run2	generate/STIM_023.jpg
1440.985	1.604	0	generate	Run2	generate/STIM_023.jpg
1445.476	1.652	1	generate	Run2	generate/STIM_024.jpg
1450.695	1.444	1	generate	Run2	generate/STIM_024.jpg
1454.381	1.223	1	generate	Run2	generate/STIM_024.jpg
1459.12	0.934	1	generate	Run2	generate/STIM_024.jpg
1463.363	1.993	1	generate	Run2	generate/STIM_024.jpg
1467.441	0.645	1	repeat	Run2	repeat/STIM_000.jpg
1471.433	0.902	1	repeat	Run2	repeat/STIM_000.jpg
1474.792	0.579	1	repeat	Run2	repeat/STIM_000.jpg
1478.51	0.662	1	repeat	Run2	repeat/STIM_000.jpg
1481.577	0.581	1	repeat	Run2	repeat/STIM_000.jpg
1485.334	0.497	1	repeat	Run2	repeat/STIM_001.jpg
1489.685	0.766	1	repeat	Run2	repeat/STIM_001.jpg
1493.351	0.706	1	repeat	Run2	repeat/STIM_001.jpg
1497.585	0.588	1	repeat	Run2	repeat/STIM_001.jpg
1501.219	0.634	0	repeat	Run2	repeat/STIM_001.jpg
1505.147	0.766	1	repeat	Run2	repeat/STIM_002.jpg
1509.697	0.847	1	repeat	Run2	repeat/STIM_002.jpg
1514.346	0.693	1	repeat	Run2	repeat/STIM_002.jpg
1518.586	0.943	1	repeat	Run2	repeat/STIM_002.jpg
1522.505	0.941	1	repeat	Run2	repeat/STIM_002.jpg
1527.188	0.921	1	repeat	Run2	repeat/STIM_003.jpg
1531.437	0.58	1	repeat	Run2	repeat/STIM_003.jpg
1535.484	0.918	1	repeat	Run2	repeat/STIM_003.jpg
1538.479	0.585	1	repeat	Run2	repeat/STIM_003.jpg
1541.856	0.889	1	repeat	Run2	repeat/STIM_003.jpg
1545.467	0.684	1	repeat	Run2	repeat/STIM_004.jpg
1549.824	0.717	1	repeat	Run2	repeat/STIM_004.jpg
1553.601	0.672	1	repeat	Run2	repeat/STIM_004.jpg
1557.949	0.522	1	repeat	Run2	repeat/STIM_004.jpg
1562.409	0.928	1	repeat	Run2	repeat/STIM_004.jpg
1566.947	0.864	1	repeat	Run2	repeat/STIM_005.jpg
1569.995	0.844	1	repeat	Run2	repeat/STIM_005.jpg
1574.162	0.934	1	repeat	Run2	repeat/STIM_005.jpg
1577.547	0.528	1	repeat	Run2	repeat/STIM_005.jpg
1580.402	0.927	1	repeat	Run2	repeat/STIM_005.jpg
1584.701	0.569	1	repeat	Run2	repeat/STIM_006.jpg
1588.586	0.592	1	repeat	Run2	repeat/STIM_006.jpg
1591.32	0.773	1	repeat	Run2	repeat/STIM_006.jpg
1595.153	0.498	1	repeat	Run2	repeat/STIM_006.jpg
1597.975	0.492	1	repeat	Run2	repeat/STIM_006.jpg
1601.476	0.833	1	repeat	Run2	repeat/STIM_007.jpg
1606.268	0.874	1	repeat	Run2	repeat/STIM_007.jpg
1611.122	0.938	1	repeat	Run2	repeat/STIM_007.jpg
1615.936	0.587	1	repeat	Run2	repeat/STIM_007.jpg
1619.321	0.633	1	repeat	Run2	repeat/STIM_007.jpg
1622.503	0.59	1	repeat	Run2	repeat/STIM_008.jpg
1626.052	0.574	1	repeat	Run2	repeat/STIM_008.jpg
1630.274	0.824	1	repeat	Run2	repeat/STIM_008.jpg
1634.299	0.637	1	repeat	Run2	repeat/STIM_008.jpg
1638.036	0.626	1	repeat	Run2	repeat/STIM_008.jpg
1642.448	0.661	1	repeat	Run2	repeat/STIM_009.jpg
1645.838	0.902	1	repeat	Run2	repeat/STIM_009.jpg
1650.352	0.51	1	repeat	Run2	repeat/STIM_009.jpg
1654.255	0.868	1	repeat	Run2	repeat/STIM_009.jpg
1657.186	0.516	1	repeat	Run2	repeat/STIM_009.jpg
1660.18	0.553	1	repeat	Run2	repeat/STIM_010.jpg
1663.751	0.843	1	repeat	Run2	repeat/STIM_010.jpg
1667.39	0.668	1	repeat	Run2	repeat/STIM_010.jpg
1670.949	0.694	1	repeat	Run2	repeat/STIM_010.jpg
1674.48	0.551	1	repeat	Run2	repeat/STIM_010.jpg
1677.683	0.558	1	repeat	Run2	repeat/STIM_011.jpg
1681.998	0.688	1	repeat	Run2	repeat/STIM_011.jpg
1686.274	0.682	1	repeat	Run2	repeat/STIM_011.jpg
1689.359	0.563	1	repeat	Run2	repeat/STIM_011.jpg
1692.55	0.594	1	repeat	Run2	repeat/STIM_011.jpg
1695.266	0.588	1	repeat	Run2	repeat/STIM_012.jpg
1699.125	0.596	1	repeat	Run2	repeat/STIM_012.jpg
1702.94	0.959	1	repeat	Run2	repeat/STIM_012.jpg
1707.328	0.831	1	repeat	Run2	repeat/STIM_012.jpg
1710.445	0.686	0	repeat	Run2	repeat/STIM_012.jpg
1714.407	0.814	1	repeat	Run2	repeat/STIM_013.jpg
1717.263	0.509	1	repeat	Run2	repeat/STIM_013.jpg
1721.431	0.928	1	repeat	Run2	repeat/STIM_013.jpg
1726.069	0.688	0	repeat	Run2	repeat/STIM_013.jpg
1729.328	0.846	1	repeat	Run2	repeat/STIM_013.jpg
1733.027	0.727	1	repeat	Run2	repeat/STIM_014.jpg
1737.222	0.582	1	repeat	Run2	repeat/STIM_014.jpg
1740.613	0.551	1	repeat	Run2	repeat/STIM_014.jpg
1745.049	0.718	0	repeat	Run2	repeat/STIM_014.jpg
1747.937	0.565	1	repeat	Run2	repeat/STIM_014.jpg
1751.173	1.294	1	generate	Run3	generate/STIM_000.jpg
1755.502	1.322	1	generate	Run3	generate/STIM_000.jpg
1760.596	0.981	1	generate	Run3	generate/STIM_000.jpg
1764.138	1.242	0	generate	Run3	generate/STIM_000.jpg
1768.262	1.419	1	generate	Run3	generate/STIM_000.jpg
1773.667	0.829	1	generate	Run3	generate/STIM_001.jpg
1776.851	1.004	1	generate	Run3	generate/STIM_001.jpg
1780.628	1.057	1	generate	Run3	generate/STIM_001.jpg
1784.651	1.108	1	generate	Run3	generate/STIM_001.jpg
1788.871	1.608	1	generate	Run3	generate/STIM_001.jpg
1793.144	0.895	1	generate	Run3	generate/STIM_002.jpg
1797.231	1.786	1	generate	Run3	generate/STIM_002.jpg
1801.419	1.617	1	generate	Run3	generate/STIM_002.jpg
1805.678	0.855	1	generate	Run3	generate/STIM_002.jpg
1808.771	1.438	1	generate	Run3	generate/STIM_002.jpg
1812.986	1.932	1	generate	Run3	generate/STIM_003.jpg
1818.669	1.217	1	generate	Run3	generate/STIM_003.jpg
1822.986	1.027	1	generate	Run3	generate/STIM_003.jpg
1827.685	1.218	1	generate	Run3	generate/STIM_003.jpg
1832.394	1.208	1	generate	Run3	generate/STIM_003.jpg
1835.843	1.289	1	generate	Run3	generate/STIM_004.jpg
1840.536	1.464	1	generate	Run3	generate/STIM_004.jpg
1844.155	0.963	0	generate	Run3	generate/STIM_004.jpg
1847.873	1.362	1	generate	Run3	generate/STIM_004.jpg
1853.049	1.667	1	generate	Run3	generate/STIM_004.jpg
1857.272	1.616	1	generate	Run3	generate/STIM_005.jpg
1861.633	1.482	1	generate	Run3	generate/STIM_005.jpg
1866.008	1.707	1	generate	Run3	generate/STIM_005.jpg
1871.072	1.033	1	generate	Run3	generate/STIM_005.jpg
1874.691	2.017	1	generate	Run3	generate/STIM_005.jpg
1879.949	1.565	1	generate	Run3	generate/STIM_006.jpg
1885.179	1.885	1	generate	Run3	generate/STIM_006.jpg
1890.899	1.258	1	generate	Run3	generate/STIM_006.jpg
1894.891	1.76	1	generate	Run3	generate/STIM_006.jpg
1899.42	1.157	1	generate	Run3	generate/STIM_006.jpg
1903.995	1.783	1	generate	Run3	generate/STIM_007.jpg
1909.448	1.376	1	generate	Run3	generate/STIM_007.jpg
1913.156	1.384	1	generate	Run3	generate/STIM_007.jpg
1917.628	2.018	1	generate	Run3	generate/STIM_007.jpg
1922.301	1.431	1	generate	Run3	generate/STIM_007.jpg
1927.364	1.428	1	generate	Run3	generate/STIM_008.jpg
1931.66	1.468	1	generate	Run3	generate/STIM_008.jpg
1937.067	1.533	1	generate	Run3	generate/STIM_008.jpg
1941.313	1.899	0	generate	Run3	generate/STIM_008.jpg
1945.978	1.598	1	generate	Run3	generate/STIM_008.jpg
1949.762	0.866	1	generate	Run3	generate/STIM_009.jpg
1952.952	1.843	1	generate	Run3	generate/STIM_009.jpg
1957.811	1.72	0	generate	Run3	generate/STIM_009.jpg
1962.632	1.218	1	generate	Run3	generate/STIM_009.jpg
1967.434	1.119	0	generate	Run3	generate/STIM_009.jpg
1971.599	1.324	1	generate	Run3	generate/STIM_010.jpg
1976.027	1.043	1	generate	Run3	generate/STIM_010.jpg
1980.068	1.513	0	generate	Run3	generate/STIM_010.jpg
1984.597	1.978	1	generate	Run3	generate/STIM_010.jpg
1989.468	0.929	1	generate	Run3	generate/STIM_010.jpg
1993.072	1.29	1	generate	Run3	generate/STIM_011.jpg
1996.543	1.633	1	generate	Run3	generate/STIM_011.jpg
2002.208	1.903	1	generate	Run3	generate/STIM_011.jpg
2007.043	1.548	1	generate	Run3	generate/STIM_011.jpg
2011.813	1.419	1	generate	Run3	generate/STIM_011.jpg
2016.075	1.246	1	generate	Run3	generate/STIM_012.jpg
2020.858	1.638	1	generate	Run3	generate/STIM_012.jpg
2026.361	1.159	1	generate	Run3	generate/STIM_012.jpg
2031.411	1.741	1	generate	Run3	generate/STIM_012.jpg
2035.613	1.799	1	generate	Run3	generate/STIM_012.jpg
2039.882	1.493	1	generate	Run3	generate/STIM_013.jpg
2043.816	0.906	1	generate	Run3	generate/STIM_013.jpg
2047.347	0.853	0	generate	Run3	generate/STIM_013.jpg
2050.982	1.798	1	generate	Run3	generate/STIM_013.jpg
2055.788	1.546	1	generate	Run3	generate/STIM_013.jpg
2060.393	0.977	0	generate	Run3	generate/STIM_014.jpg
2064.106	1.487	1	generate	Run3	generate/STIM_014.jpg
2069.51	1.767	1	generate	Run3	generate/STIM_014.jpg
2073.632	1.02	1	generate	Run3	generate/STIM_014.jpg
2078.073	0.96	1	generate	Run3	generate/STIM_014.jpg
2082.78	1.9	1	generate	Run3	generate/STIM_015.jpg
2087.796	0.925	1	generate	Run3	generate/STIM_015.jpg
2091.938	1.774	1	generate	Run3	generate/STIM_015.jpg
2096.546	1.914	1	generate	Run3	generate/STIM_015.jpg
2101.9	1.73	1	generate	Run3	generate/STIM_015.jpg
2106.34	1.348	1	generate	Run3	generate/STIM_016.jpg
2111.604	1.257	1	generate	Run3	generate/STIM_016.jpg
2115.94	1.622	1	generate	Run3	generate/STIM_016.jpg
2119.944	1.172	1	generate	Run3	generate/STIM_016.jpg
2124.373	1.447	1	generate	Run3	generate/STIM_016.jpg
2128.435	1.528	1	generate	Run3	generate/STIM_017.jpg
2133.38	1.136	0	generate	Run3	generate/STIM_017.jpg
2138.132	1.071	0	generate	Run3	generate/STIM_017.jpg
2141.566	1.607	1	generate	Run3	generate/STIM_017.jpg
2145.758	1.68	1	generate	Run3	generate/STIM_017.jpg
2150.799	1.998	1	generate	Run3	generate/STIM_018.jpg
2156.739	1.38	1	generate	Run3	generate/STIM_018.jpg
2160.614	1.685	1	generate	Run3	generate/STIM_018.jpg
2164.601	1.35	1	generate	Run3	generate/STIM_018.jpg
2169.602	1.784	1	generate	Run3	generate/STIM_018.jpg
2175.335	1.12	1	generate	Run3	generate/STIM_019.jpg
2179.59	0.954	1	generate	Run3	generate/STIM_019.jpg
2183.236	1.812	1	generate	Run3	generate/STIM_019.jpg
2188.654	1.894	1	generate	Run3	generate/STIM_019.jpg
2193.523	0.819	0	generate	Run3	generate/STIM_019.jpg
2197.389	1.063	1	generate	Run3	generate/STIM_020.jpg
2201.129	2.008	1	generate	Run3	generate/STIM_020.jpg
2206.226	1.956	1	generate	Run3	generate/STIM_020.jpg
2210.46	1.806	1	generate	Run3	generate/STIM_020.jpg
2214.762	1.507	1	generate	Run3	generate/STIM_020.jpg
2218.444	1.111	1	generate	Run3	generate/STIM_021.jpg
2222.584	0.998	1	generate	Run3	generate/STIM_021.jpg
2227.014	1.271	1	generate	Run3	generate/STIM_021.jpg
2231.485	1.091	1	generate	Run3	generate/STIM_021.jpg
2236.11	0.872	0	generate	Run3	generate/STIM_021.jpg
2240.778	1.138	1	generate	Run3	generate/STIM_022.jpg
2245.417	1.548	1	generate	Run3	generate/STIM_022.jpg
2250.487	1.241	1	generate	Run3	generate/STIM_022.jpg
2255.34	1.324	1	generate	Run3	generate/STIM_022.jpg
2258.975	1.176	1	generate	Run3	generate/STIM_022.jpg
2262.984	1.497	0	generate	Run3	generate/STIM_023.jpg
2267.443	1.207	1	generate	Run3	generate/STIM_023.jpg
2271.975	1.193	1	generate	Run3	generate/STIM_023.jpg
2276.437	1.721	1	generate	Run3	generate/STIM_023.jpg
2281.718	0.967	1	generate	Run3	generate/STIM_023.jpg
2284.789	1.692	1	generate	Run3	generate/STIM_024.jpg
2290.24	1.736	1	generate	Run3	generate/STIM_024.jpg
2295.482	1.885	1	generate	Run3	generate/STIM_024.jpg
2301.363	1.124	0	generate	Run3	generate/STIM_024.jpg
2306.453	0.957	1	generate	Run3	generate/STIM_024.jpg
2310.897	0.558	1	repeat	Run3	repeat/STIM_000.jpg
2314.96	0.907	1	repeat	Run3	repeat/STIM_000.jpg
2318.918	0.666	1	repeat	Run3	repeat/STIM_000.jpg
2322.534	0.83	0	repeat	Run3	repeat/STIM_000.jpg
2325.497	0.676	0	repeat	Run3	repeat/STIM_000.jpg
2330.049	0.517	1	repeat	Run3	repeat/STIM_001.jpg
2333.437	0.622	1	repeat	Run3	repeat/STIM_001.jpg
2337.668	0.574	1	repeat	Run3	repeat/STIM_001.jpg
2340.582	0.537	1	repeat	Run3	repeat/STIM_001.jpg
2343.896	0.752	1	repeat	Run3	repeat/STIM_001.jpg
2348.025	0.508	1	repeat	Run3	repeat/STIM_002.jpg
2352.193	0.749	1	repeat	Run3	repeat/STIM_002.jpg
2355.751	0.807	1	repeat	Run3	repeat/STIM_002.jpg
2360.058	0.534	1	repeat	Run3	repeat/STIM_002.jpg
2363.741	0.948	1	repeat	Run3	repeat/STIM_002.jpg
2368.241	0.779	1	repeat	Run3	repeat/STIM_003.jpg
2372.786	0.659	1	repeat	Run3	repeat/STIM_003.jpg
2376.062	0.952	1	repeat	Run3	repeat/STIM_003.jpg
2380.329	0.697	1	repeat	Run3	repeat/STIM_003.jpg
2384.944	0.951	1	repeat	Run3	repeat/STIM_003.jpg
2388.909	0.903	1	repeat	Run3	repeat/STIM_004.jpg
2392.607	0.794	1	repeat	Run3	repeat/STIM_004.jpg
2397.237	0.866	1	repeat	Run3	repeat/STIM_004.jpg
2401.304	0.632	1	repeat	Run3	repeat/STIM_004.jpg
2404.105	0.687	1	repeat	Run3	repeat/STIM_004.jpg
2407.688	0.956	1	repeat	Run3	repeat/STIM_005.jpg
2412.41	0.606	1	repeat	Run3	repeat/STIM_005.jpg
2415.451	0.732	1	repeat	Run3	repeat/STIM_005.jpg
2419.304	0.908	1	repeat	Run3	repeat/STIM_005.jpg
2423.41	0.657	1	repeat	Run3	repeat/STIM_005.jpg
2426.88	0.816	1	repeat	Run3	repeat/STIM_006.jpg
2430.085	0.603	1	repeat	Run3	repeat/STIM_006.jpg
2434.302	0.914	1	repeat	Run3	repeat/STIM_006.jpg
2438.55	0.889	1	repeat	Run3	repeat/STIM_006.jpg
2443.166	0.689	1	repeat	Run3	repeat/STIM_006.jpg
2446.867	0.631	0	repeat	Run3	repeat/STIM_007.jpg
2450.632	0.746	1	repeat	Run3	repeat/STIM_007.jpg
2454.03	0.747	1	repeat	Run3	repeat/STIM_007.jpg
2457.977	0.724	1	repeat	Run3	repeat/STIM_007.jpg
2461.598	0.731	1	repeat	Run3	repeat/STIM_007.jpg
2464.888	0.738	1	repeat	Run3	repeat/STIM_008.jpg
2469.337	0.532	1	repeat	Run3	repeat/STIM_008.jpg
2472.759	0.487	1	repeat	Run3	repeat/STIM_008.jpg
2476.246	0.576	1	repeat	Run3	repeat/STIM_008.jpg
2478.886	0.945	1	repeat	Run3	repeat/STIM_008.jpg
2482.477	0.954	1	repeat	Run3	repeat/STIM_009.jpg
2486.764	0.741	1	repeat	Run3	repeat/STIM_009.jpg
2491.248	0.95	1	repeat	Run3	repeat/STIM_009.jpg
2496.192	0.579	1	repeat	Run3	repeat/STIM_009.jpg
2500.464	0.882	1	repeat	Run3	repeat/STIM_009.jpg
2504.051	0.722	1	repeat	Run3	repeat/STIM_010.jpg
2507.491	0.816	1	repeat	Run3	repeat/STIM_010.jpg
2511.543	0.811	1	repeat	Run3	repeat/STIM_010.jpg
2514.425	0.675	1	repeat	Run3	repeat/STIM_010.jpg
2519.024	0.879	1	repeat	Run3	repeat/STIM_010.jpg
2523.766	0.583	1	repeat	Run3	repeat/STIM_011.jpg
2526.755	0.704	1	repeat	Run3	repeat/STIM_011.jpg
2530.808	0.684	1	repeat	Run3	repeat/STIM_011.jpg
2533.54	0.692	1	repeat	Run3	repeat/STIM_011.jpg
2536.801	0.673	1	repeat	Run3	repeat/STIM_011.jpg
2539.617	0.511	1	repeat	Run3	repeat/STIM_012.jpg
2542.386	0.874	1	repeat	Run3	repeat/STIM_012.jpg
2547.214	0.53	1	repeat	Run3	repeat/STIM_012.jpg
2551.51	0.906	1	repeat	Run3	repeat/STIM_012.jpg
2555.236	0.699	1	repeat	Run3	repeat/STIM_012.jpg
2559.551	0.754	1	repeat	Run3	repeat/STIM_013.jpg
2563.577	0.769	1	repeat	Run3	repeat/STIM_013.jpg
2566.752	0.651	1	repeat	Run3	repeat/STIM_013.jpg
2571.396	0.88	1	repeat	Run3	repeat/STIM_013.jpg
2575.058	0.73	1	repeat	Run3	repeat/STIM_013.jpg
2579.107	0.942	1	repeat	Run3	repeat/STIM_014.jpg
2582.638	0.482	1	repeat	Run3	repeat/STIM_014.jpg
2585.627	0.843	1	repeat	Run3	repeat/STIM_014.jpg
2589.702	0.49	0	repeat	Run3	repeat/STIM_014.jpg
2593.15	0.595	1	repeat	Run3	repeat/STIM_014.jpg
2597.121	1.744	1	generate	Run4	generate/STIM_000.jpg
2602.563	1.674	1	generate	Run4	generate/STIM_000.jpg
2608.137	1.605	1	generate	Run4	generate/STIM_000.jpg
2613.747	0.953	1	generate	Run4	generate/STIM_000.jpg
2618.513	1.244	1	generate	Run4	generate/STIM_000.jpg
2623.321	0.939	1	generate	Run4	generate/STIM_001.jpg
2626.448	1.59	1	generate	Run4	generate/STIM_001.jpg
2631.68	1.758	1	generate	Run4	generate/STIM_001.jpg
2637.178	1.185	1	generate	Run4	generate/STIM_001.jpg
2641.503	1.376	1	generate	Run4	generate/STIM_001.jpg
2645.987	1.414	0	generate	Run4	generate/STIM_002.jpg
2650.064	1.556	1	generate	Run4	generate/STIM_002.jpg
2654.369	1.277	1	generate	Run4	generate/STIM_002.jpg
2657.944	1.76	1	generate	Run4	generate/STIM_002.jpg
2662.263	1.889	1	generate	Run4	generate/STIM_002.jpg
2666.828	0.996	1	generate	Run4	generate/STIM_003.jpg
2670.196	1.959	1	generate	Run4	generate/STIM_003.jpg
2675.375	1.207	1	generate	Run4	generate/STIM_003.jpg
2679.285	1.982	1	generate	Run4	generate/STIM_003.jpg
2685.113	1.85	1	generate	Run4	generate/STIM_003.jpg
2690.991	1.4	1	generate	Run4	generate/STIM_004.jpg
2695.23	1.38	1	generate	Run4	generate/STIM_004.jpg
2699.155	1.826	1	generate	Run4	generate/STIM_004.jpg
2704.847	1.977	1	generate	Run4	generate/STIM_004.jpg
2709.041	0.837	1	generate	Run4	generate/STIM_004.jpg
2713.095	1.795	1	generate	Run4	generate/STIM_005.jpg
2718.445	1.754	1	generate	Run4	generate/STIM_005.jpg
2723.982	0.852	1	generate	Run4	generate/STIM_005.jpg
2726.951	1.703	1	generate	Run4	generate/STIM_005.jpg
2732.497	1.779	1	generate	Run4	generate/STIM_005.jpg
2736.53	1.975	1	generate	Run4	generate/STIM_006.jpg
2742.307	0.826	1	generate	Run4	generate/STIM_006.jpg
2745.327	1.099	1	generate	Run4	generate/STIM_006.jpg
2749.902	2.018	1	generate	Run4	generate/STIM_006.jpg
2755.107	1.238	1	generate	Run4	generate/STIM_006.jpg
2760.082	1.104	1	generate	Run4	generate/STIM_007.jpg
2763.32	1.13	1	generate	Run4	generate/STIM_007.jpg
2768.354	1.444	1	generate	Run4	generate/STIM_007.jpg
2772.091	1.772	1	generate	Run4	generate/STIM_007.jpg
2776.893	1.505	1	generate	Run4	generate/STIM_007.jpg
2781.01	1.966	1	generate	Run4	generate/STIM_008.jpg
2786.676	1.228	1	generate	Run4	generate/STIM_008.jpg
2790.272	1.462	1	generate	Run4	generate/STIM_008.jpg
2794.121	0.911	1	generate	Run4	generate/STIM_008.jpg
2798.859	1.818	1	generate	Run4	generate/STIM_008.jpg
2803.801	1.811	1	generate	Run4	generate/STIM_009.jpg
2808.823	1.902	1	generate	Run4	generate/STIM_009.jpg
2813.915	1.379	1	generate	Run4	generate/STIM_009.jpg
2818.505	1.622	1	generate	Run4	generate/STIM_009.jpg
2823.449	1.527	1	generate	Run4	generate/STIM_009.jpg
2828.408	1.143	1	generate	Run4	generate/STIM_010.jpg
2832.097	1.379	1	generate	Run4	generate/STIM_010.jpg
2836.279	1.584	1	generate	Run4	generate/STIM_010.jpg
2841.412	1.88	1	generate	Run4	generate/STIM_010.jpg
2846.368	1.866	1	generate	Run4	generate/STIM_010.jpg
2851.433	0.839	1	generate	Run4	generate/STIM_011.jpg
2854.516	1.091	1	generate	Run4	generate/STIM_011.jpg
2857.859	1.587	1	generate	Run4	generate/STIM_011.jpg
2863.279	1.129	1	generate	Run4	generate/STIM_011.jpg
2868.071	1.97	1	generate	Run4	generate/STIM_011.jpg
2873.24	1.747	1	generate	Run4	generate/STIM_012.jpg
2878.003	1.675	1	generate	Run4	generate/STIM_012.jpg
2882.94	1.887	1	generate	Run4	generate/STIM_012.jpg
2886.918	1.02	1	generate	Run4	generate/STIM_012.jpg
2890.51	1.22	1	generate	Run4	generate/STIM_012.jpg
2893.785	1.895	1	generate	Run4	generate/STIM_013.jpg
2899.382	1.375	1	generate	Run4	generate/STIM_013.jpg
2904.491	1.335	1	generate	Run4	generate/STIM_013.jpg
2908.752	1.615	1	generate	Run4	generate/STIM_013.jpg
2914.147	1.868	1	generate	Run4	generate/STIM_013.jpg
2919.652	1.559	1	generate	Run4	generate/STIM_014.jpg
2924.291	1.859	1	generate	Run4	generate/STIM_014.jpg
2928.353	1.547	1	generate	Run4	generate/STIM_014.jpg
2932.626	1.823	1	generate	Run4	generate/STIM_014.jpg
2937.565	0.959	1	generate	Run4	generate/STIM_014.jpg
2940.737	1.562	0	generate	Run4	generate/STIM_015.jpg
2945.33	1.508	1	generate	Run4	generate/STIM_015.jpg
2949.281	1.882	1	generate	Run4	generate/STIM_015.jpg
2955.046	2.001	1	generate	Run4	generate/STIM_015.jpg
2959.962	1.349	1	generate	Run4	generate/STIM_015.jpg
2965.225	1.104	1	generate	Run4	generate/STIM_016.jpg
2970.277	1.216	1	generate	Run4	generate/STIM_016.jpg
2973.654	1.939	1	generate	Run4	generate/STIM_016.jpg
2978.13	1.409	1	generate	Run4	generate/STIM_016.jpg
2983.255	1.442	1	generate	Run4	generate/STIM_016.jpg
2987.065	1.559	1	generate	Run4	generate/STIM_017.jpg
2992.652	1.676	1	generate	Run4	generate/STIM_017.jpg
2998.252	1.548	1	generate	Run4	generate/STIM_017.jpg
3002.435	1.496	1	generate	Run4	generate/STIM_017.jpg
3007.78	1.813	1	generate	Run4	generate/STIM_017.jpg
3012.064	1.402	1	generate	Run4	generate/STIM_018.jpg
3017.503	1.344	1	generate	Run4	generate/STIM_018.jpg
3022.068	1.955	1	generate	Run4	generate/STIM_018.jpg
3026.537	1.936	1	generate	Run4	generate/STIM_018.jpg
3032.347	1.868	1	generate	Run4	generate/STIM_018.jpg
3037.488	1.712	1	generate	Run4	generate/STIM_019.jpg
3042.995	1.61	1	generate	Run4	generate/STIM_019.jpg
3046.789	0.847	0	generate	Run4	generate/STIM_019.jpg
3049.922	1.865	1	generate	Run4	generate/STIM_019.jpg
3055.584	0.846	1	generate	Run4	generate/STIM_019.jpg
3059.092	1.622	0	generate	Run4	generate/STIM_020.jpg
3063.58	1.933	1	generate	Run4	generate/STIM_020.jpg
3068.781	0.961	1	generate	Run4	generate/STIM_020.jpg
3072.43	1.178	1	generate	Run4	generate/STIM_020.jpg
3076.555	1.149	1	generate	Run4	generate/STIM_020.jpg
3080.03	1.841	1	generate	Run4	generate/STIM_021.jpg
3084.439	1.871	1	generate	Run4	generate/STIM_021.jpg
3089.296	1.114	0	generate	Run4	generate/STIM_021.jpg
3092.665	0.876	1	generate	Run4	generate/STIM_021.jpg
3096.142	1.472	1	generate	Run4	generate/STIM_021.jpg
3100.279	1.775	1	generate	Run4	generate/STIM_022.jpg
3105.924	1.903	1	generate	Run4	generate/STIM_022.jpg
3111.752	1.803	1	generate	Run4	generate/STIM_022.jpg
3115.632	1.61	1	generate	Run4	generate/STIM_022.jpg
3119.606	0.888	1	generate	Run4	generate/STIM_022.jpg
3123.186	1.918	1	generate	Run4	generate/STIM_023.jpg
3128.762	1.576	1	generate	Run4	generate/STIM_023.jpg
3133.324	1.382	1	generate	Run4	generate/STIM_023.jpg
3138.749	1.605	1	generate	Run4	generate/STIM_023.jpg
3142.916	0.811	1	generate	Run4	generate/STIM_023.jpg
3146.404	0.857	1	generate	Run4	generate/STIM_024.jpg
3149.777	1.849	1	generate	Run4	generate/STIM_024.jpg
3154.351	1.384	1	generate	Run4	generate/STIM_024.jpg
3158.006	0.872	1	generate	Run4	generate/STIM_024.jpg
3161.258	1.248	1	generate	Run4	generate/STIM_024.jpg
3165.131	0.782	1	repeat	Run4	repeat/STIM_000.jpg
3169.646	0.651	1	repeat	Run4	repeat/STIM_000.jpg
3173.314	0.519	1	repeat	Run4	repeat/STIM_000.jpg
3176.156	0.493	1	repeat	Run4	repeat/STIM_000.jpg
3179.5	0.783	1	repeat	Run4	repeat/STIM_000.jpg
3183.978	0.81	1	repeat	Run4	repeat/STIM_001.jpg
3187.493	0.937	1	repeat	Run4	repeat/STIM_001.jpg
3191.341	0.919	1	repeat	Run4	repeat/STIM_001.jpg
3195.208	0.799	1	repeat	Run4	repeat/STIM_001.jpg
3199.162	0.794	1	repeat	Run4	repeat/STIM_001.jpg
3202.839	0.596	1	repeat	Run4	repeat/STIM_002.jpg
3207.049	0.762	1	repeat	Run4	repeat/STIM_002.jpg
3210.234	0.86	1	repeat	Run4	repeat/STIM_002.jpg
3213.881	0.812	1	repeat	Run4	repeat/STIM_002.jpg
3218.035	0.677	1	repeat	Run4	repeat/STIM_002.jpg
3221.819	0.657	1	repeat	Run4	repeat/STIM_003.jpg
3225.153	0.552	1	repeat	Run4	repeat/STIM_003.jpg
3229.292	0.677	1	repeat	Run4	repeat/STIM_003.jpg
3233.343	0.772	1	repeat	Run4	repeat/STIM_003.jpg
3236.213	0.534	1	repeat	Run4	repeat/STIM_003.jpg
3238.806	0.616	1	repeat	Run4	repeat/STIM_004.jpg
3242.082	0.639	1	repeat	Run4	repeat/STIM_004.jpg
3245.128	0.917	1	repeat	Run4	repeat/STIM_004.jpg
3249.009	0.592	1	repeat	Run4	repeat/STIM_004.jpg
3251.698	0.542	1	repeat	Run4	repeat/STIM_004.jpg
3254.861	0.647	1	repeat	Run4	repeat/STIM_005.jpg
3258.046	0.638	1	repeat	Run4	repeat/STIM_005.jpg
3261.972	0.717	1	repeat	Run4	repeat/STIM_005.jpg
3266.144	0.901	1	repeat	Run4	repeat/STIM_005.jpg
3270.045	0.597	1	repeat	Run4	repeat/STIM_005.jpg
3272.995	0.877	1	repeat	Run4	repeat/STIM_006.jpg
3276.035	0.927	0	repeat	Run4	repeat/STIM_006.jpg
3279.336	0.76	1	repeat	Run4	repeat/STIM_006.jpg
3283.557	0.85	1	repeat	Run4	repeat/STIM_006.jpg
3287.726	0.767	1	repeat	Run4	repeat/STIM_006.jpg
3291.76	0.504	1	repeat	Run4	repeat/STIM_007.jpg
3295.476	0.803	1	repeat	Run4	repeat/STIM_007.jpg
3300.032	0.657	1	repeat	Run4	repeat/STIM_007.jpg
3304.282	0.635	1	repeat	Run4	repeat/STIM_007.jpg
3307.845	0.537	1	repeat	Run4	repeat/STIM_007.jpg
3311.569	0.529	1	repeat	Run4	repeat/STIM_008.jpg
3314.2	0.538	1	repeat	Run4	repeat/STIM_008.jpg
3318.036	0.512	1	repeat	Run4	repeat/STIM_008.jpg
3322.22	0.924	1	repeat	Run4	repeat/STIM_008.jpg
3327.111	0.783	1	repeat	Run4	repeat/STIM_008.jpg
3331.373	0.569	1	repeat	Run4	repeat/STIM_009.jpg
3334.63	0.587	1	repeat	Run4	repeat/STIM_009.jpg
3338.634	0.528	1	repeat	Run4	repeat/STIM_009.jpg
3342.135	0.513	1	repeat	Run4	repeat/STIM_009.jpg
3346.59	0.535	1	repeat	Run4	repeat/STIM_009.jpg
3350.487	0.599	1	repeat	Run4	repeat/STIM_010.jpg
3353.917	0.927	1	repeat	Run4	repeat/STIM_010.jpg
3358.631	0.513	1	repeat	Run4	repeat/STIM_010.jpg
3361.799	0.516	1	repeat	Run4	repeat/STIM_010.jpg
3365.041	0.956	1	repeat	Run4	repeat/STIM_010.jpg
3369.296	0.792	1	repeat	Run4	repeat/STIM_011.jpg
3372.353	0.911	1	repeat	Run4	repeat/STIM_011.jpg
3376.418	0.693	1	repeat	Run4	repeat/STIM_011.jpg
3380.769	0.891	1	repeat	Run4	repeat/STIM_011.jpg
3384.732	0.867	1	repeat	Run4	repeat/STIM_011.jpg
3389.206	0.497	1	repeat	Run4	repeat/STIM_012.jpg
3392.711	0.914	1	repeat	Run4	repeat/STIM_012.jpg
3396.002	0.784	1	repeat	Run4	repeat/STIM_012.jpg
3399.49	0.662	1	repeat	Run4	repeat/STIM_012.jpg
3402.703	0.509	1	repeat	Run4	repeat/STIM_012.jpg
3406.926	0.65	0	repeat	Run4	repeat/STIM_013.jpg
3410.8	0.488	1	repeat	Run4	repeat/STIM_013.jpg
3414.779	0.632	1	repeat	Run4	repeat/STIM_013.jpg
3419.155	0.824	1	repeat	Run4	repeat/STIM_013.jpg
3423.867	0.644	1	repeat	Run4	repeat/STIM_013.jpg
3427.512	0.592	1	repeat	Run4	repeat/STIM_014.jpg
3432.117	0.795	1	repeat	Run4	repeat/STIM_014.jpg
3436.681	0.908	1	repeat	Run4	repeat/STIM_014.jpg
3439.679	0.524	1	repeat	Run4	repeat/STIM_014.jpg
3442.84	0.718	1	repeat	Run4	repeat/STIM_014.jpg
