onset	duration	response_time_ms	trial_type	learning_stage	stimulus	response_port
0.0	1.017	1017.4	incongruent	Block1	incongruent/STIM_000.jpg	100
4.184	1.084	1083.6	incongruent	Block1	incongruent/STIM_000.jpg	100
8.308	1.162	1162.1	incongruent	Block1	incongruent/STIM_000.jpg	100
12.659	0.925	925.0	incongruent	Block1	incongruent/STIM_000.jpg	100
17.007	0.855	855.4	incongruent	Block1	incongruent/STIM_000.jpg	99
20.491	1.29	1290.0	incongruent	Block1	incongruent/STIM_001.jpg	100
24.046	0.698	697.9	incongruent	Block1	incongruent/STIM_001.jpg	100
26.931	1.138	1138.2	incongruent	Block1	incongruent/STIM_001.jpg	99
30.791	0.898	897.8	incongruent	Block1	incongruent/STIM_001.jpg	99
33.801	0.79	789.8	incongruent	Block1	incongruent/STIM_001.jpg	99
36.787	0.761	761.0	incongruent	Block1	incongruent/STIM_002.jpg	100
40.723	1.305	1304.8	incongruent	Block1	incongruent/STIM_002.jpg	99
45.19	1.142	1141.6	incongruent	Block1	incongruent/STIM_002.jpg	100
49.969	0.838	837.7	incongruent	Block1	incongruent/STIM_002.jpg	100
53.139	0.986	985.6	incongruent	Block1	incongruent/STIM_002.jpg	100
57.507	1.018	1018.5	incongruent	Block1	incongruent/STIM_003.jpg	100
61.995	0.922	922.1	incongruent	Block1	incongruent/STIM_003.jpg	100
65.69	0.67	670.0	incongruent	Block1	incongruent/STIM_003.jpg	99
69.953	0.659	658.9	incongruent	Block1	incongruent/STIM_003.jpg	100
73.724	0.774	773.8	incongruent	Block1	incongruent/STIM_003.jpg	99
78.454	1.348	1348.3	incongruent	Block1	incongruent/STIM_004.jpg	100
82.739	0.914	914.5	incongruent	Block1	incongruent/STIM_004.jpg	99
87.318	0.604	604.0	incongruent	Block1	incongruent/STIM_004.jpg	99
92.018	1.031	1031.3	incongruent	Block1	incongruent/STIM_004.jpg	99
96.168	0.589	588.9	incongruent	Block1	incongruent/STIM_004.jpg	99
99.595	1.363	1363.2	incongruent	Block1	incongruent/STIM_005.jpg	100
103.915	1.198	1198.0	incongruent	Block1	incongruent/STIM_005.jpg	99
107.551	1.189	1188.6	incongruent	Block1	incongruent/STIM_005.jpg	99
110.827	1.28	1280.3	incongruent	Block1	incongruent/STIM_005.jpg	99
115.318	1.071	1071.1	incongruent	Block1	incongruent/STIM_005.jpg	99
119.446	0.976	976.0	incongruent	Block1	incongruent/STIM_006.jpg	100
123.095	1.245	1245.2	incongruent	Block1	incongruent/STIM_006.jpg	99
126.547	0.989	988.9	incongruent	Block1	incongruent/STIM_006.jpg	99
130.78	1.099	1099.0	incongruent	Block1	incongruent/STIM_006.jpg	99
135.65	0.655	654.7	incongruent	Block1	incongruent/STIM_006.jpg	100
139.64	0.778	778.1	incongruent	Block1	incongruent/STIM_007.jpg	99
143.672	1.084	1083.6	incongruent	Block1	incongruent/STIM_007.jpg	99
148.736	0.798	798.5	incongruent	Block1	incongruent/STIM_007.jpg	100
152.804	0.701	700.8	incongruent	Block1	incongruent/STIM_007.jpg	99
156.223	1.009	1009.0	incongruent	Block1	incongruent/STIM_007.jpg	100
159.913	1.161	1161.2	incongruent	Block1	incongruent/STIM_008.jpg	99
163.252	0.925	925.0	incongruent	Block1	incongruent/STIM_008.jpg	100
166.281	0.742	741.6	incongruent	Block1	incongruent/STIM_008.jpg	99
169.968	1.105	1105.1	incongruent	Block1	incongruent/STIM_008.jpg	99
174.024	1.108	1108.5	incongruent	Block1	incongruent/STIM_008.jpg	100
177.51	0.93	929.8	incongruent	Block1	incongruent/STIM_009.jpg	99
180.684	1.122	1121.5	incongruent	Block1	incongruent/STIM_009.jpg	100
184.188	1.157	1157.2	incongruent	Block1	incongruent/STIM_009.jpg	99
188.193	1.168	1167.8	incongruent	Block1	incongruent/STIM_009.jpg	99
192.947	1.105	1104.7	incongruent	Block1	incongruent/STIM_009.jpg	99
197.239	1.367	1366.9	incongruent	Block1	incongruent/STIM_010.jpg	100
201.388	0.844	844.5	incongruent	Block1	incongruent/STIM_010.jpg	99
205.363	1.262	1262.5	incongruent	Block1	incongruent/STIM_010.jpg	100
210.422	1.074	1074.0	incongruent	Block1	incongruent/STIM_010.jpg	100
214.79	0.611	610.8	incongruent	Block1	incongruent/STIM_010.jpg	99
218.953	0.928	927.6	incongruent	Block1	incongruent/STIM_011.jpg	100
222.973	0.898	898.2	incongruent	Block1	incongruent/STIM_011.jpg	100
226.196	1.108	1108.0	incongruent	Block1	incongruent/STIM_011.jpg	99
229.965	0.672	672.3	incongruent	Block1	incongruent/STIM_011.jpg	99
233.364	0.628	628.5	incongruent	Block1	incongruent/STIM_011.jpg	99
237.776	1.436	1435.6	incongruent	Block1	incongruent/STIM_012.jpg	99
241.845	1.348	1347.9	incongruent	Block1	incongruent/STIM_012.jpg	100
245.467	0.774	773.8	incongruent	Block1	incongruent/STIM_012.jpg	100
249.177	0.791	791.4	incongruent	Block1	incongruent/STIM_012.jpg	99
252.867	0.612	612.2	incongruent	Block1	incongruent/STIM_012.jpg	99
255.766	0.663	663.2	incongruent	Block1	incongruent/STIM_013.jpg	100
259.348	1.228	1228.2	incongruent	Block1	incongruent/STIM_013.jpg	99
262.825	1.317	1317.2	incongruent	Block1	incongruent/STIM_013.jpg	100
268.03	0.977	977.1	incongruent	Block1	incongruent/STIM_013.jpg	99
271.229	1.157	1157.4	incongruent	Block1	incongruent/STIM_013.jpg	100
275.177	1.007	1007.3	incongruent	Block1	incongruent/STIM_014.jpg	99
279.305	1.06	1059.7	incongruent	Block1	incongruent/STIM_014.jpg	99
283.106	0.74	740.1	incongruent	Block1	incongruent/STIM_014.jpg	100
287.348	0.718	718.1	incongruent	Block1	incongruent/STIM_014.jpg	99
291.979	0.779	779.0	incongruent	Block1	incongruent/STIM_014.jpg	99
296.518	1.413	1412.6	incongruent	Block1	incongruent/STIM_015.jpg	100
300.402	0.876	876.2	incongruent	Block1	incongruent/STIM_015.jpg	99
304.571	0.798	798.1	incongruent	Block1	incongruent/STIM_015.jpg	99
308.402	0.889	889.3	incongruent	Block1	incongruent/STIM_015.jpg	99
311.955	0.969	969.4	incongruent	Block1	incongruent/STIM_015.jpg	99
316.206	1.057	1056.8	incongruent	Block1	incongruent/STIM_016.jpg	100
320.008	0.847	846.7	incongruent	Block1	incongruent/STIM_016.jpg	100
324.071	0.822	821.8	incongruent	Block1	incongruent/STIM_016.jpg	100
327.435	0.826	825.5	incongruent	Block1	incongruent/STIM_016.jpg	100
331.251	0.914	914.0	incongruent	Block1	incongruent/STIM_016.jpg	100
334.401	0.873	873.1	incongruent	Block1	incongruent/STIM_017.jpg	100
337.514	1.118	1118.4	incongruent	Block1	incongruent/STIM_017.jpg	100
342.236	0.925	925.4	incongruent	Block1	incongruent/STIM_017.jpg	99
345.614	1.086	1086.4	incongruent	Block1	incongruent/STIM_017.jpg	100
350.582	0.887	887.4	incongruent	Block1	incongruent/STIM_017.jpg	99
354.463	0.951	950.6	incongruent	Block1	incongruent/STIM_018.jpg	99
358.56	0.727	726.9	incongruent	Block1	incongruent/STIM_018.jpg	99
363.12	0.769	768.7	incongruent	Block1	incongruent/STIM_018.jpg	100
367.414	1.053	1052.9	incongruent	Block1	incongruent/STIM_018.jpg	99
371.392	0.591	590.6	incongruent	Block1	incongruent/STIM_018.jpg	100
374.61	1.378	1377.7	incongruent	Block1	incongruent/STIM_019.jpg	100
379.699	1.203	1202.9	incongruent	Block1	incongruent/STIM_019.jpg	100
384.151	1.236	1235.9	incongruent	Block1	incongruent/STIM_019.jpg	100
387.645	0.716	715.5	incongruent	Block1	incongruent/STIM_019.jpg	100
391.969	0.91	909.5	incongruent	Block1	incongruent/STIM_019.jpg	99
396.339	1.296	1295.9	incongruent	Block1	incongruent/STIM_020.jpg	99
400.461	0.869	869.0	incongruent	Block1	incongruent/STIM_020.jpg	100
403.716	0.634	633.8	incongruent	Block1	incongruent/STIM_020.jpg	100
407.774	1.15	1149.6	incongruent	Block1	incongruent/STIM_020.jpg	100
411.338	0.749	749.0	incongruent	Block1	incongruent/STIM_020.jpg	100
416.008	1.107	1106.6	incongruent	Block1	incongruent/STIM_021.jpg	99
419.792	1.331	1330.9	incongruent	Block1	incongruent/STIM_021.jpg	100
424.119	1.246	1246.1	incongruent	Block1	incongruent/STIM_021.jpg	100
427.455	0.685	684.7	incongruent	Block1	incongruent/STIM_021.jpg	100
431.681	1.126	1126.5	incongruent	Block1	incongruent/STIM_021.jpg	100
435.441	1.001	1000.7	incongruent	Block1	incongruent/STIM_022.jpg	99
439.46	0.841	841.1	incongruent	Block1	incongruent/STIM_022.jpg	100
443.326	1.2	1199.9	incongruent	Block1	incongruent/STIM_022.jpg	99
446.845	1.192	1192.3	incongruent	Block1	incongruent/STIM_022.jpg	99
451.915	0.724	724.4	incongruent	Block1	incongruent/STIM_022.jpg	100
455.884	1.465	1464.6	incongruent	Block1	incongruent/STIM_023.jpg	99
460.593	0.743	743.2	incongruent	Block1	incongruent/STIM_023.jpg	100
463.986	1.205	1204.9	incongruent	Block1	incongruent/STIM_023.jpg	99
467.609	0.859	859.2	incongruent	Block1	incongruent/STIM_023.jpg	100
471.376	0.548	548.1	incongruent	Block1	incongruent/STIM_023.jpg	99
475.161	1.246	1246.2	incongruent	Block1	incongruent/STIM_024.jpg	100
479.556	1.333	1332.7	incongruent	Block1	incongruent/STIM_024.jpg	99
483.268	0.998	997.5	incongruent	Block1	incongruent/STIM_024.jpg	100
487.717	1.015	1015.2	incongruent	Block1	incongruent/STIM_024.jpg	100
492.126	0.888	888.5	incongruent	Block1	incongruent/STIM_024.jpg	99
496.046	1.117	1116.8	incongruent	Block1	incongruent/STIM_025.jpg	100
500.68	1.096	1096.3	incongruent	Block1	incongruent/STIM_025.jpg	100
504.514	0.663	663.4	incongruent	Block1	incongruent/STIM_025.jpg	99
508.518	0.564	564.3	incongruent	Block1	incongruent/STIM_025.jpg	100
512.094	1.096	1096.0	incongruent	Block1	incongruent/STIM_025.jpg	99
515.367	1.161	1161.0	incongruent	Block1	incongruent/STIM_026.jpg	100
519.376	0.924	923.7	incongruent	Block1	incongruent/STIM_026.jpg	100
523.275	0.691	691.0	incongruent	Block1	incongruent/STIM_026.jpg	99
526.833	1.162	1161.5	incongruent	Block1	incongruent/STIM_026.jpg	100
530.049	0.751	750.8	incongruent	Block1	incongruent/STIM_026.jpg	99
534.187	1.134	1134.3	incongruent	Block1	incongruent/STIM_027.jpg	100
538.775	1.297	1297.1	incongruent	Block1	incongruent/STIM_027.jpg	100
542.593	1.101	1100.9	incongruent	Block1	incongruent/STIM_027.jpg	100
546.299	1.119	1118.7	incongruent	Block1	incongruent/STIM_027.jpg	100
550.887	1.063	1063.3	incongruent	Block1	incongruent/STIM_027.jpg	100
555.199	0.736	736.2	incongruent	Block1	incongruent/STIM_028.jpg	99
558.687	0.858	857.9	incongruent	Block1	incongruent/STIM_028.jpg	99
562.257	1.05	1050.4	incongruent	Block1	incongruent/STIM_028.jpg	100
565.892	1.068	1067.8	incongruent	Block1	incongruent/STIM_028.jpg	100
569.945	1.098	1097.5	incongruent	Block1	incongruent/STIM_028.jpg	99
574.252	0.806	805.8	incongruent	Block1	incongruent/STIM_029.jpg	100
578.421	1.27	1270.4	incongruent	Block1	incongruent/STIM_029.jpg	99
581.759	0.996	995.5	incongruent	Block1	incongruent/STIM_029.jpg	99
584.974	0.673	673.2	incongruent	Block1	incongruent/STIM_029.jpg	99
587.991	0.589	589.0	incongruent	Block1	incongruent/STIM_029.jpg	99
592.599	0.886	886.3	congruent	Block1	congruent/STIM_000.jpg	100
596.307	0.748	748.1	congruent	Block1	congruent/STIM_000.jpg	99
600.084	0.833	833.2	congruent	Block1	congruent/STIM_000.jpg	99
602.99	0.702	702.4	congruent	Block1	congruent/STIM_000.jpg	100
606.889	0.796	795.5	congruent	Block1	congruent/STIM_000.jpg	99
610.916	0.56	560.1	congruent	Block1	congruent/STIM_001.jpg	100
615.159	0.556	555.7	congruent	Block1	congruent/STIM_001.jpg	99
618.918	0.634	634.4	congruent	Block1	congruent/STIM_001.jpg	99
623.189	0.658	658.2	congruent	Block1	congruent/STIM_001.jpg	100
626.21	0.523	523.2	congruent	Block1	congruent/STIM_001.jpg	99
628.926	0.664	664.3	congruent	Block1	congruent/STIM_002.jpg	100
632.816	0.678	677.8	congruent	Block1	congruent/STIM_002.jpg	99
636.315	0.544	543.8	congruent	Block1	congruent/STIM_002.jpg	100
640.557	0.579	579.4	congruent	Block1	congruent/STIM_002.jpg	100
644.844	0.736	735.6	congruent	Block1	congruent/STIM_002.jpg	99
649.143	0.926	925.7	congruent	Block1	congruent/STIM_003.jpg	100
652.917	0.823	823.2	congruent	Block1	congruent/STIM_003.jpg	99
655.804	0.796	795.8	congruent	Block1	congruent/STIM_003.jpg	100
660.324	0.804	803.8	congruent	Block1	congruent/STIM_003.jpg	100
664.44	0.765	764.8	congruent	Block1	congruent/STIM_003.jpg	100
668.29	0.515	515.2	congruent	Block1	congruent/STIM_004.jpg	100
671.13	0.548	547.9	congruent	Block1	congruent/STIM_004.jpg	100
675.238	0.927	926.6	congruent	Block1	congruent/STIM_004.jpg	100
678.461	0.67	669.7	congruent	Block1	congruent/STIM_004.jpg	100
682.052	0.707	707.3	congruent	Block1	congruent/STIM_004.jpg	100
686.498	0.838	837.5	congruent	Block1	congruent/STIM_005.jpg	99
690.071	0.623	622.9	congruent	Block1	congruent/STIM_005.jpg	100
693.919	0.763	762.6	congruent	Block1	congruent/STIM_005.jpg	99
698.301	0.854	854.4	congruent	Block1	congruent/STIM_005.jpg	100
701.282	0.958	958.4	congruent	Block1	congruent/STIM_005.jpg	99
704.923	0.667	666.8	congruent	Block1	congruent/STIM_006.jpg	99
708.155	0.536	536.0	congruent	Block1	congruent/STIM_006.jpg	99
711.069	0.805	805.4	congruent	Block1	congruent/STIM_006.jpg	99
714.271	0.841	841.2	congruent	Block1	congruent/STIM_006.jpg	99
718.053	0.654	654.0	congruent	Block1	congruent/STIM_006.jpg	100
721.011	0.778	777.9	congruent	Block1	congruent/STIM_007.jpg	100
725.169	0.793	793.4	congruent	Block1	congruent/STIM_007.jpg	99
728.035	0.642	642.3	congruent	Block1	congruent/STIM_007.jpg	100
731.463	0.662	662.2	congruent	Block1	congruent/STIM_007.jpg	100
735.423	0.612	611.7	congruent	Block1	congruent/STIM_007.jpg	99
739.325	0.412	411.8	congruent	Block1	congruent/STIM_008.jpg	100
742.367	0.884	883.5	congruent	Block1	congruent/STIM_008.jpg	99
747.012	0.48	479.8	congruent	Block1	congruent/STIM_008.jpg	100
749.909	0.792	792.1	congruent	Block1	congruent/STIM_008.jpg	100
753.518	0.607	606.9	congruent	Block1	congruent/STIM_008.jpg	100
757.993	0.528	527.8	congruent	Block1	congruent/STIM_009.jpg	100
762.507	0.843	843.1	congruent	Block1	congruent/STIM_009.jpg	100
767.161	0.752	751.9	congruent	Block1	congruent/STIM_009.jpg	99
771.166	0.673	672.8	congruent	Block1	congruent/STIM_009.jpg	100
773.972	0.612	612.5	congruent	Block1	congruent/STIM_009.jpg	100
776.684	0.781	781.1	congruent	Block1	congruent/STIM_010.jpg	100
779.996	0.489	489.3	congruent	Block1	congruent/STIM_010.jpg	99
784.413	0.587	587.4	congruent	Block1	congruent/STIM_010.jpg	99
788.455	0.673	673.4	congruent	Block1	congruent/STIM_010.jpg	99
792.645	0.707	706.8	congruent	Block1	congruent/STIM_010.jpg	100
795.768	0.533	533.2	congruent	Block1	congruent/STIM_011.jpg	99
798.627	0.718	718.4	congruent	Block1	congruent/STIM_011.jpg	99
802.213	0.574	573.5	congruent	Block1	congruent/STIM_011.jpg	99
804.792	0.592	591.6	congruent	Block1	congruent/STIM_011.jpg	100
808.551	0.809	809.0	congruent	Block1	congruent/STIM_011.jpg	99
811.576	0.64	639.5	congruent	Block1	congruent/STIM_012.jpg	100
815.725	0.748	747.6	congruent	Block1	congruent/STIM_012.jpg	99
818.667	0.768	768.2	congruent	Block1	congruent/STIM_012.jpg	100
823.176	0.759	759.0	congruent	Block1	congruent/STIM_012.jpg	100
826.268	0.468	467.7	congruent	Block1	congruent/STIM_012.jpg	100
829.531	0.683	683.0	congruent	Block1	congruent/STIM_013.jpg	100
833.555	0.803	803.2	congruent	Block1	congruent/STIM_013.jpg	99
836.76	0.774	773.9	congruent	Block1	congruent/STIM_013.jpg	99
839.771	0.582	581.9	congruent	Block1	congruent/STIM_013.jpg	100
842.693	0.539	538.8	congruent	Block1	congruent/STIM_013.jpg	99
845.737	0.552	552.0	congruent	Block1	congruent/STIM_014.jpg	99
848.869	0.595	595.3	congruent	Block1	congruent/STIM_014.jpg	99
851.746	0.787	786.7	congruent	Block1	congruent/STIM_014.jpg	100
855.476	0.493	492.7	congruent	Block1	congruent/STIM_014.jpg	100
858.143	0.583	583.2	congruent	Block1	congruent/STIM_014.jpg	100
861.272	0.68	680.1	congruent	Block1	congruent/STIM_015.jpg	100
865.864	0.593	592.7	congruent	Block1	congruent/STIM_015.jpg	100
869.9	0.66	660.0	congruent	Block1	congruent/STIM_015.jpg	100
873.859	0.861	861.3	congruent	Block1	congruent/STIM_015.jpg	99
877.414	0.524	524.2	congruent	Block1	congruent/STIM_015.jpg	99
881.811	0.747	746.9	congruent	Block1	congruent/STIM_016.jpg	100
885.778	0.654	653.9	congruent	Block1	congruent/STIM_016.jpg	100
889.773	0.575	574.9	congruent	Block1	congruent/STIM_016.jpg	99
894.034	0.857	857.2	congruent	Block1	congruent/STIM_016.jpg	100
898.709	0.744	744.2	congruent	Block1	congruent/STIM_016.jpg	99
901.847	0.788	787.6	congruent	Block1	congruent/STIM_017.jpg	99
904.98	0.649	648.7	congruent	Block1	congruent/STIM_017.jpg	99
908.781	0.761	761.0	congruent	Block1	congruent/STIM_017.jpg	100
913.507	0.531	531.1	congruent	Block1	congruent/STIM_017.jpg	99
917.798	0.768	768.0	congruent	Block1	congruent/STIM_017.jpg	100
922.084	0.615	615.2	congruent	Block1	congruent/STIM_018.jpg	100
925.197	0.528	528.1	congruent	Block1	congruent/STIM_018.jpg	100
928.752	0.584	584.5	congruent	Block1	congruent/STIM_018.jpg	99
931.814	0.59	590.0	congruent	Block1	congruent/STIM_018.jpg	99
935.524	0.543	543.1	congruent	Block1	congruent/STIM_018.jpg	100
939.645	0.769	769.0	congruent	Block1	congruent/STIM_019.jpg	99
943.989	0.716	715.5	congruent	Block1	congruent/STIM_019.jpg	99
948.304	0.75	750.0	congruent	Block1	congruent/STIM_019.jpg	99
951.672	0.547	547.0	congruent	Block1	congruent/STIM_019.jpg	99
955.778	0.666	666.0	congruent	Block1	congruent/STIM_019.jpg	100
959.515	0.595	595.4	congruent	Block1	congruent/STIM_020.jpg	100
964.042	0.814	813.9	congruent	Block1	congruent/STIM_020.jpg	100
966.998	0.61	609.8	congruent	Block1	congruent/STIM_020.jpg	100
969.79	0.628	628.2	congruent	Block1	congruent/STIM_020.jpg	100
973.046	0.75	749.6	congruent	Block1	congruent/STIM_020.jpg	99
976.744	0.863	862.8	congruent	Block1	congruent/STIM_021.jpg	99
981.499	0.471	471.2	congruent	Block1	congruent/STIM_021.jpg	100
984.93	0.569	568.8	congruent	Block1	congruent/STIM_021.jpg	100
988.015	0.592	592.0	congruent	Block1	congruent/STIM_021.jpg	100
991.505	0.638	637.6	congruent	Block1	congruent/STIM_021.jpg	100
994.341	0.575	575.4	congruent	Block1	congruent/STIM_022.jpg	99
997.397	0.563	563.2	congruent	Block1	congruent/STIM_022.jpg	99
1000.325	0.419	418.9	congruent	Block1	congruent/STIM_022.jpg	99
1004.529	0.72	719.9	congruent	Block1	congruent/STIM_022.jpg	100
1007.484	0.55	550.4	congruent	Block1	congruent/STIM_022.jpg	99
1011.778	0.786	786.1	congruent	Block1	congruent/STIM_023.jpg	100
1016.203	0.725	725.4	congruent	Block1	congruent/STIM_023.jpg	99
1019.298	0.746	746.1	congruent	Block1	congruent/STIM_023.jpg	99
1023.757	0.494	494.4	congruent	Block1	congruent/STIM_023.jpg	100
1026.902	0.701	700.6	congruent	Block1	congruent/STIM_023.jpg	100
1030.084	0.623	623.2	congruent	Block1	congruent/STIM_024.jpg	99
1033.513	0.626	626.0	congruent	Block1	congruent/STIM_024.jpg	99
1037.448	0.802	802.0	congruent	Block1	congruent/STIM_024.jpg	99
1041.472	0.67	670.1	congruent	Block1	congruent/STIM_024.jpg	100
1045.455	0.62	619.5	congruent	Block1	congruent/STIM_024.jpg	100
1049.827	0.708	708.2	congruent	Block1	congruent/STIM_025.jpg	99
1054.119	0.624	624.4	congruent	Block1	congruent/STIM_025.jpg	99
1058.648	0.76	760.5	congruent	Block1	congruent/STIM_025.jpg	99
1061.431	0.706	705.7	congruent	Block1	congruent/STIM_025.jpg	100
1064.225	0.638	637.9	congruent	Block1	congruent/STIM_025.jpg	99
1068.379	0.808	807.8	congruent	Block1	congruent/STIM_026.jpg	100
1072.834	0.527	526.7	congruent	Block1	congruent/STIM_026.jpg	100
1075.783	0.416	416.3	congruent	Block1	congruent/STIM_026.jpg	99
1079.35	0.751	750.7	congruent	Block1	congruent/STIM_026.jpg	99
1083.137	0.567	566.9	congruent	Block1	congruent/STIM_026.jpg	100
1087.254	0.851	850.8	congruent	Block1	congruent/STIM_027.jpg	100
1090.962	0.79	789.9	congruent	Block1	congruent/STIM_027.jpg	100
1094.901	0.598	597.9	congruent	Block1	congruent/STIM_027.jpg	99
1098.789	0.822	822.1	congruent	Block1	congruent/STIM_027.jpg	99
1103.279	0.786	786.0	congruent	Block1	congruent/STIM_027.jpg	99
1107.007	0.671	670.6	congruent	Block1	congruent/STIM_028.jpg	100
1109.782	0.845	844.6	congruent	Block1	congruent/STIM_028.jpg	100
1113.211	0.793	793.4	congruent	Block1	congruent/STIM_028.jpg	100
1117.261	0.659	658.9	congruent	Block1	congruent/STIM_028.jpg	100
1121.722	0.448	447.7	congruent	Block1	congruent/STIM_028.jpg	100
1126.076	0.794	794.1	congruent	Block1	congruent/STIM_029.jpg	99
1129.44	0.737	737.4	congruent	Block1	congruent/STIM_029.jpg	99
1133.028	0.614	613.7	congruent	Block1	congruent/STIM_029.jpg	100
1135.973	0.52	520.1	congruent	Block1	congruent/STIM_029.jpg	100
1139.991	0.774	773.9	congruent	Block1	congruent/STIM_029.jpg	99
1143.133	1.207	1207.4	incongruent	Block2	incongruent/STIM_000.jpg	100
1147.146	0.913	912.8	incongruent	Block2	incongruent/STIM_000.jpg	100
1150.981	0.693	693.1	incongruent	Block2	incongruent/STIM_000.jpg	99
1154.733	0.763	763.2	incongruent	Block2	incongruent/STIM_000.jpg	100
1158.154	0.846	846.3	incongruent	Block2	incongruent/STIM_000.jpg	100
1161.031	1.131	1130.7	incongruent	Block2	incongruent/STIM_001.jpg	100
1165.79	0.969	968.6	incongruent	Block2	incongruent/STIM_001.jpg	100
1169.657	0.917	916.6	incongruent	Block2	incongruent/STIM_001.jpg	99
1174.38	0.789	789.4	incongruent	Block2	incongruent/STIM_001.jpg	100
1178.353	0.904	903.9	incongruent	Block2	incongruent/STIM_001.jpg	99
1181.481	0.775	775.4	incongruent	Block2	incongruent/STIM_002.jpg	99
1184.855	1.045	1044.9	incongruent	Block2	incongruent/STIM_002.jpg	99
1189.517	0.953	953.4	incongruent	Block2	incongruent/STIM_002.jpg	99
1192.691	0.504	504.0	incongruent	Block2	incongruent/STIM_002.jpg	100
1196.763	0.561	560.9	incongruent	Block2	incongruent/STIM_002.jpg	100
1199.984	0.904	904.3	incongruent	Block2	incongruent/STIM_003.jpg	99
1203.351	0.782	782.5	incongruent	Block2	incongruent/STIM_003.jpg	99
1207.181	0.869	868.7	incongruent	Block2	incongruent/STIM_003.jpg	99
1210.901	1.051	1051.2	incongruent	Block2	incongruent/STIM_003.jpg	99
1215.52	0.58	579.6	incongruent	Block2	incongruent/STIM_003.jpg	99
1218.182	0.926	926.0	incongruent	Block2	incongruent/STIM_004.jpg	100
1222.307	1.098	1097.8	incongruent	Block2	incongruent/STIM_004.jpg	99
1226.017	0.971	971.3	incongruent	Block2	incongruent/STIM_004.jpg	100
1229.847	0.858	858.5	incongruent	Block2	incongruent/STIM_004.jpg	99
1233.655	0.956	955.8	incongruent	Block2	incongruent/STIM_004.jpg	100
1238.68	1.11	1109.6	incongruent	Block2	incongruent/STIM_005.jpg	99
1242.415	0.855	855.3	incongruent	Block2	incongruent/STIM_005.jpg	100
1246.438	0.856	856.0	incongruent	Block2	incongruent/STIM_005.jpg	100
1250.627	0.673	673.3	incongruent	Block2	incongruent/STIM_005.jpg	99
1255.022	0.535	534.9	incongruent	Block2	incongruent/STIM_005.jpg	100
1258.032	0.775	775.4	incongruent	Block2	incongruent/STIM_006.jpg	99
1261.085	0.852	851.7	incongruent	Block2	incongruent/STIM_006.jpg	99
1264.949	0.618	618.4	incongruent	Block2	incongruent/STIM_006.jpg	100
1268.228	1.061	1061.0	incongruent	Block2	incongruent/STIM_006.jpg	99
1272.307	1.011	1011.3	incongruent	Block2	incongruent/STIM_006.jpg	99
1276.436	0.861	860.8	incongruent	Block2	incongruent/STIM_007.jpg	99
1280.849	0.609	608.9	incongruent	Block2	incongruent/STIM_007.jpg	100
1284.963	0.602	602.0	incongruent	Block2	incongruent/STIM_007.jpg	99
1289.193	0.618	618.4	incongruent	Block2	incongruent/STIM_007.jpg	99
1293.717	0.509	509.1	incongruent	Block2	incongruent/STIM_007.jpg	100
1296.43	1.033	1033.0	incongruent	Block2	incongruent/STIM_008.jpg	100
1299.873	0.98	980.2	incongruent	Block2	incongruent/STIM_008.jpg	100
1303.828	0.635	634.6	incongruent	Block2	incongruent/STIM_008.jpg	99
1308.359	0.895	894.7	incongruent	Block2	incongruent/STIM_008.jpg	100
1311.998	0.792	792.5	incongruent	Block2	incongruent/STIM_008.jpg	99
1316.335	1.116	1115.5	incongruent	Block2	incongruent/STIM_009.jpg	100
1320.036	0.843	843.4	incongruent	Block2	incongruent/STIM_009.jpg	99
1323.558	0.661	661.1	incongruent	Block2	incongruent/STIM_009.jpg	100
1326.592	0.633	632.6	incongruent	Block2	incongruent/STIM_009.jpg	100
1329.693	0.753	752.7	incongruent	Block2	incongruent/STIM_009.jpg	100
1332.722	0.782	781.6	incongruent	Block2	incongruent/STIM_010.jpg	99
1337.414	0.936	935.8	incongruent	Block2	incongruent/STIM_010.jpg	99
1340.518	0.483	483.3	incongruent	Block2	incongruent/STIM_010.jpg	99
1343.198	1.033	1032.6	incongruent	Block2	incongruent/STIM_010.jpg	99
1348.176	0.577	577.3	incongruent	Block2	incongruent/STIM_010.jpg	99
1352.718	0.635	635.2	incongruent	Block2	incongruent/STIM_011.jpg	99
1357.243	1.086	1085.9	incongruent	Block2	incongruent/STIM_011.jpg	100
1361.261	0.582	581.9	incongruent	Block2	incongruent/STIM_011.jpg	99
1364.14	0.635	635.1	incongruent	Block2	incongruent/STIM_011.jpg	99
1367.768	0.83	830.2	incongruent	Block2	incongruent/STIM_011.jpg	100
1371.844	0.929	929.0	incongruent	Block2	incongruent/STIM_012.jpg	99
1376.383	0.789	789.3	incongruent	Block2	incongruent/STIM_012.jpg	99
1379.891	0.835	835.3	incongruent	Block2	incongruent/STIM_012.jpg	100
1383.003	0.898	898.3	incongruent	Block2	incongruent/STIM_012.jpg	99
1387.274	1.005	1004.6	incongruent	Block2	incongruent/STIM_012.jpg	100
1390.787	1.152	1151.5	incongruent	Block2	incongruent/STIM_013.jpg	99
1393.987	0.634	634.0	incongruent	Block2	incongruent/STIM_013.jpg	99
1397.36	0.587	587.4	incongruent	Block2	incongruent/STIM_013.jpg	99
1400.463	0.52	520.1	incongruent	Block2	incongruent/STIM_013.jpg	99
1403.91	1.063	1063.2	incongruent	Block2	incongruent/STIM_013.jpg	99
1408.899	0.666	666.1	incongruent	Block2	incongruent/STIM_014.jpg	100
1412.147	0.946	946.1	incongruent	Block2	incongruent/STIM_014.jpg	100
1415.956	0.722	722.2	incongruent	Block2	incongruent/STIM_014.jpg	100
1418.89	0.521	521.2	incongruent	Block2	incongruent/STIM_014.jpg	99
1421.943	0.525	525.0	incongruent	Block2	incongruent/STIM_014.jpg	99
1425.077	0.959	959.0	incongruent	Block2	incongruent/STIM_015.jpg	99
1429.939	0.957	957.2	incongruent	Block2	incongruent/STIM_015.jpg	99
1433.501	0.748	748.2	incongruent	Block2	incongruent/STIM_015.jpg	100
1436.31	0.708	708.5	incongruent	Block2	incongruent/STIM_015.jpg	100
1440.656	0.595	594.9	incongruent	Block2	incongruent/STIM_015.jpg	99
1445.076	0.751	750.7	incongruent	Block2	incongruent/STIM_016.jpg	99
1448.561	0.55	549.6	incongruent	Block2	incongruent/STIM_016.jpg	100
1452.358	1.087	1086.7	incongruent	Block2	incongruent/STIM_016.jpg	99
1456.179	0.765	765.0	incongruent	Block2	incongruent/STIM_016.jpg	100
1459.841	1.078	1078.3	incongruent	Block2	incongruent/STIM_016.jpg	100
1463.919	1.233	1232.6	incongruent	Block2	incongruent/STIM_017.jpg	99
1468.054	1.186	1186.3	incongruent	Block2	incongruent/STIM_017.jpg	100
1471.66	0.662	662.1	incongruent	Block2	incongruent/STIM_017.jpg	99
1476.316	0.983	983.3	incongruent	Block2	incongruent/STIM_017.jpg	99
1480.414	0.693	693.0	incongruent	Block2	incongruent/STIM_017.jpg	100
1484.034	0.981	980.8	incongruent	Block2	incongruent/STIM_018.jpg	99
1488.562	1.045	1045.2	incongruent	Block2	incongruent/STIM_018.jpg	100
1493.483	0.812	811.9	incongruent	Block2	incongruent/STIM_018.jpg	99
1497.476	0.9	900.2	incongruent	Block2	incongruent/STIM_018.jpg	100
1500.967	0.492	491.5	incongruent	Block2	incongruent/STIM_018.jpg	100
1504.705	1.18	1179.6	incongruent	Block2	incongruent/STIM_019.jpg	100
1509.784	0.955	955.3	incongruent	Block2	incongruent/STIM_019.jpg	99
1513.507	0.593	593.1	incongruent	Block2	incongruent/STIM_019.jpg	100
1517.091	0.809	809.1	incongruent	Block2	incongruent/STIM_019.jpg	99
1520.557	1.008	1008.1	incongruent	Block2	incongruent/STIM_019.jpg	100
1525.564	1.035	1035.3	incongruent	Block2	incongruent/STIM_020.jpg	99
1530.535	1.2	1199.6	incongruent	Block2	incongruent/STIM_020.jpg	100
1534.137	0.645	645.2	incongruent	Block2	incongruent/STIM_020.jpg	99
1537.924	0.646	645.6	incongruent	Block2	incongruent/STIM_020.jpg	99
1540.757	0.578	578.2	incongruent	Block2	incongruent/STIM_020.jpg	100
1543.329	0.674	674.5	incongruent	Block2	incongruent/STIM_021.jpg	100
1547.816	0.817	816.8	incongruent	Block2	incongruent/STIM_021.jpg	99
1551.061	0.692	692.2	incongruent	Block2	incongruent/STIM_021.jpg	99
1555.423	0.87	870.5	incongruent	Block2	incongruent/STIM_021.jpg	100
1558.46	0.55	549.7	incongruent	Block2	incongruent/STIM_021.jpg	99
1562.734	1.02	1019.7	incongruent	Block2	incongruent/STIM_022.jpg	99
1567.024	0.701	700.8	incongruent	Block2	incongruent/STIM_022.jpg	100
1571.204	0.897	896.6	incongruent	Block2	incongruent/STIM_022.jpg	100
1574.14	0.934	933.9	incongruent	Block2	incongruent/STIM_022.jpg	99
1578.765	0.72	720.5	incongruent	Block2	incongruent/STIM_022.jpg	99
1582.435	0.915	915.1	incongruent	Block2	incongruent/STIM_023.jpg	99
1585.999	0.719	718.7	incongruent	Block2	incongruent/STIM_023.jpg	99
1589.03	1.054	1053.7	incongruent	Block2	incongruent/STIM_023.jpg	100
1593.669	0.603	603.1	incongruent	Block2	incongruent/STIM_023.jpg	100
1598.293	0.557	557.1	incongruent	Block2	incongruent/STIM_023.jpg	99
1601.589	1.178	1178.0	incongruent	Block2	incongruent/STIM_024.jpg	100
1605.744	0.686	686.5	incongruent	Block2	incongruent/STIM_024.jpg	99
1609.466	0.688	688.5	incongruent	Block2	incongruent/STIM_024.jpg	99
1612.481	0.951	951.2	incongruent	Block2	incongruent/STIM_024.jpg	100
1616.592	0.614	614.5	incongruent	Block2	incongruent/STIM_024.jpg	99
1620.175	0.607	607.3	incongruent	Block2	incongruent/STIM_025.jpg	99
1624.665	0.748	748.4	incongruent	Block2	incongruent/STIM_025.jpg	100
1628.141	0.793	793.0	incongruent	Block2	incongruent/STIM_025.jpg	100
1631.444	0.676	676.1	incongruent	Block2	incongruent/STIM_025.jpg	100
1635.454	0.56	559.7	incongruent	Block2	incongruent/STIM_025.jpg	99
1638.533	1.161	1161.0	incongruent	Block2	incongruent/STIM_026.jpg	99
1643.365	0.966	966.0	incongruent	Block2	incongruent/STIM_026.jpg	100
1648.095	0.995	994.8	incongruent	Block2	incongruent/STIM_026.jpg	99
1652.8	0.742	741.6	incongruent	Block2	incongruent/STIM_026.jpg	100
1656.025	0.583	583.0	incongruent	Block2	incongruent/STIM_026.jpg	99
1659.809	0.933	933.3	incongruent	Block2	incongruent/STIM_027.jpg	100
1663.183	0.808	807.6	incongruent	Block2	incongruent/STIM_027.jpg	100
1667.924	0.988	988.1	incongruent	Block2	incongruent/STIM_027.jpg	100
1671.628	0.89	890.2	incongruent	Block2	incongruent/STIM_027.jpg	99
1674.608	0.547	546.7	incongruent	Block2	incongruent/STIM_027.jpg	100
1677.74	0.677	676.8	incongruent	Block2	incongruent/STIM_028.jpg	99
1681.901	0.859	858.7	incongruent	Block2	incongruent/STIM_028.jpg	100
1685.702	0.667	667.4	incongruent	Block2	incongruent/STIM_028.jpg	99
1690.332	0.962	962.1	incongruent	Block2	incongruent/STIM_028.jpg	100
1694.067	0.985	984.8	incongruent	Block2	incongruent/STIM_028.jpg	99
1698.981	1.112	1112.0	incongruent	Block2	incongruent/STIM_029.jpg	100
1702.878	1.144	1143.9	incongruent	Block2	incongruent/STIM_029.jpg	100
1707.731	1.039	1038.8	incongruent	Block2	incongruent/STIM_029.jpg	99
1711.248	0.796	796.4	incongruent	Block2	incongruent/STIM_029.jpg	100
1714.69	1.06	1059.5	incongruent	Block2	incongruent/STIM_029.jpg	99
1717.915	0.658	657.8	congruent	Block2	congruent/STIM_000.jpg	100
1721.463	0.815	814.6	congruent	Block2	congruent/STIM_000.jpg	100
1724.995	0.51	510.1	congruent	Block2	congruent/STIM_000.jpg	99
1728.351	0.542	541.8	congruent	Block2	congruent/STIM_000.jpg	99
1732.82	0.592	592.3	congruent	Block2	congruent/STIM_000.jpg	100
1737.11	0.638	637.9	congruent	Block2	congruent/STIM_001.jpg	99
1740.843	0.7	700.5	congruent	Block2	congruent/STIM_001.jpg	99
1743.985	0.694	694.1	congruent	Block2	congruent/STIM_001.jpg	100
1747.827	0.662	661.8	congruent	Block2	congruent/STIM_001.jpg	99
1751.471	0.519	518.9	congruent	Block2	congruent/STIM_001.jpg	99
1755.624	0.856	856.2	congruent	Block2	congruent/STIM_002.jpg	99
1759.846	0.584	584.3	congruent	Block2	congruent/STIM_002.jpg	100
1763.338	0.832	832.5	congruent	Block2	congruent/STIM_002.jpg	100
1766.576	0.539	538.6	congruent	Block2	congruent/STIM_002.jpg	100
1771.119	0.586	585.5	congruent	Block2	congruent/STIM_002.jpg	99
1774.871	0.528	527.8	congruent	Block2	congruent/STIM_003.jpg	100
1778.173	0.5	499.6	congruent	Block2	congruent/STIM_003.jpg	99
1781.63	0.584	584.0	congruent	Block2	congruent/STIM_003.jpg	99
1786.207	0.872	872.3	congruent	Block2	congruent/STIM_003.jpg	100
1789.086	0.903	902.6	congruent	Block2	congruent/STIM_003.jpg	100
1793.373	0.59	590.5	congruent	Block2	congruent/STIM_004.jpg	100
1797.394	0.7	700.2	congruent	Block2	congruent/STIM_004.jpg	99
1800.465	0.847	846.6	congruent	Block2	congruent/STIM_004.jpg	100
1803.367	0.788	787.9	congruent	Block2	congruent/STIM_004.jpg	100
1807.906	0.818	818.5	congruent	Block2	congruent/STIM_004.jpg	99
1811.403	0.49	490.1	congruent	Block2	congruent/STIM_005.jpg	99
1815.468	0.588	588.1	congruent	Block2	congruent/STIM_005.jpg	99
1819.62	0.53	529.6	congruent	Block2	congruent/STIM_005.jpg	100
1822.228	0.531	530.8	congruent	Block2	congruent/STIM_005.jpg	100
1825.578	0.68	680.4	congruent	Block2	congruent/STIM_005.jpg	100
1828.345	0.642	642.5	congruent	Block2	congruent/STIM_006.jpg	99
1832.535	0.952	952.5	congruent	Block2	congruent/STIM_006.jpg	99
1837.137	0.644	644.2	congruent	Block2	congruent/STIM_006.jpg	100
1839.895	0.756	755.5	congruent	Block2	congruent/STIM_006.jpg	99
1842.993	0.871	871.4	congruent	Block2	congruent/STIM_006.jpg	100
1846.233	0.763	763.4	congruent	Block2	congruent/STIM_007.jpg	100
1849.628	0.628	627.6	congruent	Block2	congruent/STIM_007.jpg	100
1852.251	0.784	783.6	congruent	Block2	congruent/STIM_007.jpg	99
1856.657	0.743	742.6	congruent	Block2	congruent/STIM_007.jpg	100
1859.529	0.64	639.7	congruent	Block2	congruent/STIM_007.jpg	99
1863.156	0.6	600.0	congruent	Block2	congruent/STIM_008.jpg	99
1867.762	0.563	562.6	congruent	Block2	congruent/STIM_008.jpg	100
1872.304	0.694	693.5	congruent	Block2	congruent/STIM_008.jpg	99
1875.87	0.817	816.7	congruent	Block2	congruent/STIM_008.jpg	99
1880.143	0.495	495.0	congruent	Block2	congruent/STIM_008.jpg	100
1882.823	0.642	641.9	congruent	Block2	congruent/STIM_009.jpg	100
1886.835	0.683	682.9	congruent	Block2	congruent/STIM_009.jpg	100
1890.642	0.593	592.8	congruent	Block2	congruent/STIM_009.jpg	99
1894.413	0.517	517.1	congruent	Block2	congruent/STIM_009.jpg	99
1897.523	0.686	686.2	congruent	Block2	congruent/STIM_009.jpg	100
1901.395	0.821	820.7	congruent	Block2	congruent/STIM_010.jpg	99
1905.923	0.634	633.7	congruent	Block2	congruent/STIM_010.jpg	100
1908.9	0.559	559.2	congruent	Block2	congruent/STIM_010.jpg	100
1911.869	0.66	659.5	congruent	Block2	congruent/STIM_010.jpg	99
1915.387	0.594	594.3	congruent	Block2	congruent/STIM_010.jpg	100
1918.287	0.7	699.5	congruent	Block2	congruent/STIM_011.jpg	100
1922.776	0.554	554.4	congruent	Block2	congruent/STIM_011.jpg	99
1927.221	0.801	801.1	congruent	Block2	congruent/STIM_011.jpg	99
1930.82	0.551	550.7	congruent	Block2	congruent/STIM_011.jpg	99
1934.386	0.74	740.5	congruent	Block2	congruent/STIM_011.jpg	100
1938.646	0.823	823.2	congruent	Block2	congruent/STIM_012.jpg	99
1942.321	0.726	726.3	congruent	Block2	congruent/STIM_012.jpg	100
1945.931	0.611	610.7	congruent	Block2	congruent/STIM_012.jpg	99
1949.256	0.696	695.8	congruent	Block2	congruent/STIM_012.jpg	100
1953.642	0.824	823.6	congruent	Block2	congruent/STIM_012.jpg	100
1956.888	0.805	805.4	congruent	Block2	congruent/STIM_013.jpg	99
1960.742	0.614	614.1	congruent	Block2	congruent/STIM_013.jpg	99
1964.119	0.458	458.1	congruent	Block2	congruent/STIM_013.jpg	100
1968.122	0.843	842.7	congruent	Block2	congruent/STIM_013.jpg	100
1972.773	0.723	722.8	congruent	Block2	congruent/STIM_013.jpg	99
1977.195	0.854	854.1	congruent	Block2	congruent/STIM_014.jpg	99
1980.653	0.687	686.7	congruent	Block2	congruent/STIM_014.jpg	99
1985.297	0.658	658.1	congruent	Block2	congruent/STIM_014.jpg	100
1987.956	0.584	584.0	congruent	Block2	congruent/STIM_014.jpg	99
1991.497	0.736	735.9	congruent	Block2	congruent/STIM_014.jpg	99
1994.46	0.656	655.6	congruent	Block2	congruent/STIM_015.jpg	100
1998.223	0.754	753.5	congruent	Block2	congruent/STIM_015.jpg	99
2002.967	0.718	718.5	congruent	Block2	congruent/STIM_015.jpg	100
2006.911	0.787	787.3	congruent	Block2	congruent/STIM_015.jpg	99
2010.748	0.844	843.8	congruent	Block2	congruent/STIM_015.jpg	100
2014.45	0.668	667.9	congruent	Block2	congruent/STIM_016.jpg	99
2017.198	0.606	606.4	congruent	Block2	congruent/STIM_016.jpg	100
2020.204	0.873	873.4	congruent	Block2	congruent/STIM_016.jpg	100
2024.19	0.718	718.3	congruent	Block2	congruent/STIM_016.jpg	99
2028.467	0.819	819.2	congruent	Block2	congruent/STIM_016.jpg	100
2031.531	0.602	602.0	congruent	Block2	congruent/STIM_017.jpg	99
2034.274	0.695	694.7	congruent	Block2	congruent/STIM_017.jpg	99
2037.179	0.696	696.2	congruent	Block2	congruent/STIM_017.jpg	100
2041.117	0.895	894.6	congruent	Block2	congruent/STIM_017.jpg	100
2044.027	0.609	609.2	congruent	Block2	congruent/STIM_017.jpg	99
2048.164	0.864	864.5	congruent	Block2	congruent/STIM_018.jpg	99
2052.882	0.792	792.1	congruent	Block2	congruent/STIM_018.jpg	99
2056.809	0.852	852.1	congruent	Block2	congruent/STIM_018.jpg	99
2060.36	0.535	534.8	congruent	Block2	congruent/STIM_018.jpg	99
2063.524	0.787	787.0	congruent	Block2	congruent/STIM_018.jpg	100
2066.862	0.827	827.0	congruent	Block2	congruent/STIM_019.jpg	100
2070.061	0.797	797.4	congruent	Block2	congruent/STIM_019.jpg	100
2073.932	0.757	757.3	congruent	Block2	congruent/STIM_019.jpg	99
2077.813	0.676	675.9	congruent	Block2	congruent/STIM_019.jpg	99
2080.559	0.378	377.5	congruent	Block2	congruent/STIM_019.jpg	100
2084.812	0.823	822.7	congruent	Block2	congruent/STIM_020.jpg	99
2088.867	0.773	773.0	congruent	Block2	congruent/STIM_020.jpg	99
2092.78	0.92	920.5	congruent	Block2	congruent/STIM_020.jpg	99
2096.61	0.854	853.6	congruent	Block2	congruent/STIM_020.jpg	100
2100.044	0.859	858.9	congruent	Block2	congruent/STIM_020.jpg	100
2104.15	0.509	508.8	congruent	Block2	congruent/STIM_021.jpg	99
2107.058	0.642	641.9	congruent	Block2	congruent/STIM_021.jpg	100
2110.911	0.542	542.0	congruent	Block2	congruent/STIM_021.jpg	100
2113.771	0.546	546.3	congruent	Block2	congruent/STIM_021.jpg	99
2118.189	0.82	820.1	congruent	Block2	congruent/STIM_021.jpg	99
2122.666	0.765	765.0	congruent	Block2	congruent/STIM_022.jpg	99
2127.2	0.737	736.8	congruent	Block2	congruent/STIM_022.jpg	99
2130.389	0.626	625.9	congruent	Block2	congruent/STIM_022.jpg	99
2133.016	0.487	487.2	congruent	Block2	congruent/STIM_022.jpg	100
2137.418	0.795	795.2	congruent	Block2	congruent/STIM_022.jpg	100
2140.895	0.535	535.1	congruent	Block2	congruent/STIM_023.jpg	99
2143.565	0.725	724.6	congruent	Block2	congruent/STIM_023.jpg	100
2148.232	0.656	655.6	congruent	Block2	congruent/STIM_023.jpg	99
2152.541	0.608	607.9	congruent	Block2	congruent/STIM_023.jpg	100
2155.258	0.624	624.3	congruent	Block2	congruent/STIM_023.jpg	100
2159.513	0.822	822.5	congruent	Block2	congruent/STIM_024.jpg	99
2162.808	0.55	550.2	congruent	Block2	congruent/STIM_024.jpg	99
2166.496	0.527	527.2	congruent	Block2	congruent/STIM_024.jpg	100
2171.058	0.514	514.3	congruent	Block2	congruent/STIM_024.jpg	99
2174.665	0.603	603.2	congruent	Block2	congruent/STIM_024.jpg	99
2177.47	0.525	524.9	congruent	Block2	congruent/STIM_025.jpg	99
2180.212	0.6	600.1	congruent	Block2	congruent/STIM_025.jpg	99
2184.833	0.73	729.9	congruent	Block2	congruent/STIM_025.jpg	99
2189.498	0.623	622.9	congruent	Block2	congruent/STIM_025.jpg	99
2193.421	0.736	736.2	congruent	Block2	congruent/STIM_025.jpg	99
2198.131	0.779	779.2	congruent	Block2	congruent/STIM_026.jpg	100
2201.118	0.712	712.1	congruent	Block2	congruent/STIM_026.jpg	100
2205.03	0.792	792.1	congruent	Block2	congruent/STIM_026.jpg	100
2209.115	0.546	546.3	congruent	Block2	congruent/STIM_026.jpg	99
2212.611	0.661	660.6	congruent	Block2	congruent/STIM_026.jpg	99
2216.206	0.609	608.9	congruent	Block2	congruent/STIM_027.jpg	100
2220.217	0.57	570.0	congruent	Block2	congruent/STIM_027.jpg	99
2224.254	0.835	835.1	congruent	Block2	congruent/STIM_027.jpg	100
2227.763	0.486	485.6	congruent	Block2	congruent/STIM_027.jpg	99
2231.718	0.722	722.0	congruent	Block2	congruent/STIM_027.jpg	100
2235.164	0.724	724.1	congruent	Block2	congruent/STIM_028.jpg	100
2239.395	0.71	710.5	congruent	Block2	congruent/STIM_028.jpg	99
2243.98	0.928	927.5	congruent	Block2	congruent/STIM_028.jpg	100
2246.971	0.666	665.9	congruent	Block2	congruent/STIM_028.jpg	100
2250.009	0.801	801.2	congruent	Block2	congruent/STIM_028.jpg	99
2254.404	0.834	834.2	congruent	Block2	congruent/STIM_029.jpg	100
2257.449	0.684	684.1	congruent	Block2	congruent/STIM_029.jpg	99
2261.302	0.801	801.4	congruent	Block2	congruent/STIM_029.jpg	100
2265.776	0.814	813.5	congruent	Block2	congruent/STIM_029.jpg	100
2270.399	0.62	620.2	congruent	Block2	congruent/STIM_029.jpg	100
2274.133	0.869	868.7	incongruent	Block3	incongruent/STIM_000.jpg	100
2278.072	0.659	658.8	incongruent	Block3	incongruent/STIM_000.jpg	99
2281.184	0.853	853.3	incongruent	Block3	incongruent/STIM_000.jpg	99
2284.151	0.814	814.1	incongruent	Block3	incongruent/STIM_000.jpg	99
2287.434	0.964	963.7	incongruent	Block3	incongruent/STIM_000.jpg	100
2290.856	0.741	741.0	incongruent	Block3	incongruent/STIM_001.jpg	99
2294.086	0.877	876.9	incongruent	Block3	incongruent/STIM_001.jpg	100
2297.135	0.721	720.6	incongruent	Block3	incongruent/STIM_001.jpg	99
2300.336	0.687	687.4	incongruent	Block3	incongruent/STIM_001.jpg	99
2303.67	0.605	604.6	incongruent	Block3	incongruent/STIM_001.jpg	99
2307.285	0.737	737.1	incongruent	Block3	incongruent/STIM_002.jpg	99
2311.289	0.47	469.6	incongruent	Block3	incongruent/STIM_002.jpg	99
2314.382	0.667	667.3	incongruent	Block3	incongruent/STIM_002.jpg	99
2317.235	0.921	920.6	incongruent	Block3	incongruent/STIM_002.jpg	100
2321.091	0.474	473.9	incongruent	Block3	incongruent/STIM_002.jpg	99
2325.191	0.622	622.0	incongruent	Block3	incongruent/STIM_003.jpg	100
2327.906	0.625	624.6	incongruent	Block3	incongruent/STIM_003.jpg	100
2332.328	1.008	1008.3	incongruent	Block3	incongruent/STIM_003.jpg	100
2335.779	0.544	544.3	incongruent	Block3	incongruent/STIM_003.jpg	100
2340.012	0.934	934.2	incongruent	Block3	incongruent/STIM_003.jpg	100
2344.118	0.868	868.3	incongruent	Block3	incongruent/STIM_004.jpg	99
2347.843	0.576	575.8	incongruent	Block3	incongruent/STIM_004.jpg	100
2351.065	0.896	895.6	incongruent	Block3	incongruent/STIM_004.jpg	99
2355.08	0.883	883.2	incongruent	Block3	incongruent/STIM_004.jpg	100
2358.248	0.591	590.7	incongruent	Block3	incongruent/STIM_004.jpg	100
2362.476	0.688	688.3	incongruent	Block3	incongruent/STIM_005.jpg	100
2365.416	0.683	682.7	incongruent	Block3	incongruent/STIM_005.jpg	100
2369.822	0.859	859.4	incongruent	Block3	incongruent/STIM_005.jpg	99
2374.336	0.89	890.2	incongruent	Block3	incongruent/STIM_005.jpg	100
2377.567	0.539	538.6	incongruent	Block3	incongruent/STIM_005.jpg	100
2381.311	0.87	870.1	incongruent	Block3	incongruent/STIM_006.jpg	99
2384.373	0.458	457.9	incongruent	Block3	incongruent/STIM_006.jpg	100
2387.051	0.933	933.2	incongruent	Block3	incongruent/STIM_006.jpg	100
2390.282	0.433	433.3	incongruent	Block3	incongruent/STIM_006.jpg	100
2392.868	0.95	949.7	incongruent	Block3	incongruent/STIM_006.jpg	100
2397.699	0.903	902.7	incongruent	Block3	incongruent/STIM_007.jpg	99
2402.573	0.597	596.7	incongruent	Block3	incongruent/STIM_007.jpg	99
2406.708	0.722	722.0	incongruent	Block3	incongruent/STIM_007.jpg	99
2410.844	0.548	548.2	incongruent	Block3	incongruent/STIM_007.jpg	100
2414.346	0.586	586.3	incongruent	Block3	incongruent/STIM_007.jpg	99
2418.184	0.733	733.2	incongruent	Block3	incongruent/STIM_008.jpg	99
2422.384	0.618	617.7	incongruent	Block3	incongruent/STIM_008.jpg	99
2426.117	0.456	455.9	incongruent	Block3	incongruent/STIM_008.jpg	99
2429.162	0.832	831.5	incongruent	Block3	incongruent/STIM_008.jpg	99
2432.044	0.532	531.9	incongruent	Block3	incongruent/STIM_008.jpg	100
2434.611	1.026	1026.3	incongruent	Block3	incongruent/STIM_009.jpg	100
2437.845	0.87	869.7	incongruent	Block3	incongruent/STIM_009.jpg	99
2442.489	0.776	775.7	incongruent	Block3	incongruent/STIM_009.jpg	100
2447.065	0.975	974.6	incongruent	Block3	incongruent/STIM_009.jpg	100
2450.638	0.522	521.8	incongruent	Block3	incongruent/STIM_009.jpg	100
2453.409	1.015	1015.4	incongruent	Block3	incongruent/STIM_010.jpg	100
2457.431	0.814	813.7	incongruent	Block3	incongruent/STIM_010.jpg	99
2461.312	0.584	584.3	incongruent	Block3	incongruent/STIM_010.jpg	99
2465.55	0.786	786.3	incongruent	Block3	incongruent/STIM_010.jpg	100
2469.203	0.552	551.8	incongruent	Block3	incongruent/STIM_010.jpg	100
2472.989	0.922	922.3	incongruent	Block3	incongruent/STIM_011.jpg	100
2477.826	0.987	987.2	incongruent	Block3	incongruent/STIM_011.jpg	100
2482.269	0.587	586.9	incongruent	Block3	incongruent/STIM_011.jpg	100
2484.963	0.994	993.7	incongruent	Block3	incongruent/STIM_011.jpg	100
2488.14	0.706	706.1	incongruent	Block3	incongruent/STIM_011.jpg	100
2490.938	0.91	909.8	incongruent	Block3	incongruent/STIM_012.jpg	99
2494.01	0.476	475.9	incongruent	Block3	incongruent/STIM_012.jpg	100
2497.566	0.888	887.6	incongruent	Block3	incongruent/STIM_012.jpg	99
2500.711	0.7	700.4	incongruent	Block3	incongruent/STIM_012.jpg	100
2505.337	0.523	523.1	incongruent	Block3	incongruent/STIM_012.jpg	100
2508.755	0.499	499.1	incongruent	Block3	incongruent/STIM_013.jpg	99
2512.298	0.875	875.3	incongruent	Block3	incongruent/STIM_013.jpg	100
2515.616	0.87	870.3	incongruent	Block3	incongruent/STIM_013.jpg	100
2520.356	0.799	798.7	incongruent	Block3	incongruent/STIM_013.jpg	100
2525.149	0.573	572.9	incongruent	Block3	incongruent/STIM_013.jpg	100
2528.861	0.736	735.6	incongruent	Block3	incongruent/STIM_014.jpg	99
2531.753	0.912	912.3	incongruent	Block3	incongruent/STIM_014.jpg	100
2534.837	0.509	508.8	incongruent	Block3	incongruent/STIM_014.jpg	100
2537.724	0.569	568.9	incongruent	Block3	incongruent/STIM_014.jpg	99
2541.719	0.546	546.4	incongruent	Block3	incongruent/STIM_014.jpg	100
2545.981	0.95	949.9	incongruent	Block3	incongruent/STIM_015.jpg	99
2550.253	0.677	677.4	incongruent	Block3	incongruent/STIM_015.jpg	99
2553.974	0.702	702.0	incongruent	Block3	incongruent/STIM_015.jpg	100
2558.021	0.886	886.0	incongruent	Block3	incongruent/STIM_015.jpg	99
2561.046	0.783	783.4	incongruent	Block3	incongruent/STIM_015.jpg	100
2564.802	0.606	606.1	incongruent	Block3	incongruent/STIM_016.jpg	99
2567.499	0.608	607.6	incongruent	Block3	incongruent/STIM_016.jpg	100
2571.667	0.885	884.7	incongruent	Block3	incongruent/STIM_016.jpg	100
2575.033	0.811	810.7	incongruent	Block3	incongruent/STIM_016.jpg	100
2579.176	0.847	846.6	incongruent	Block3	incongruent/STIM_016.jpg	99
2583.458	0.853	853.2	incongruent	Block3	incongruent/STIM_017.jpg	99
2586.329	0.598	598.4	incongruent	Block3	incongruent/STIM_017.jpg	100
2590.355	0.788	787.7	incongruent	Block3	incongruent/STIM_017.jpg	100
2594.315	0.913	913.4	incongruent	Block3	incongruent/STIM_017.jpg	100
2597.438	0.426	426.4	incongruent	Block3	incongruent/STIM_017.jpg	100
2600.582	0.541	541.4	incongruent	Block3	incongruent/STIM_018.jpg	99
2604.348	0.62	619.9	incongruent	Block3	incongruent/STIM_018.jpg	100
2607.72	0.555	555.4	incongruent	Block3	incongruent/STIM_018.jpg	99
2611.036	0.474	474.0	incongruent	Block3	incongruent/STIM_018.jpg	100
2614.962	0.966	965.8	incongruent	Block3	incongruent/STIM_018.jpg	100
2619.214	0.751	751.2	incongruent	Block3	incongruent/STIM_019.jpg	100
2622.262	0.645	644.9	incongruent	Block3	incongruent/STIM_019.jpg	99
2625.773	0.494	494.1	incongruent	Block3	incongruent/STIM_019.jpg	99
2629.719	0.456	455.9	incongruent	Block3	incongruent/STIM_019.jpg	99
2632.828	0.804	804.5	incongruent	Block3	incongruent/STIM_019.jpg	100
2637.459	0.999	999.1	incongruent	Block3	incongruent/STIM_020.jpg	99
2640.485	0.627	626.7	incongruent	Block3	incongruent/STIM_020.jpg	100
2643.499	0.52	519.7	incongruent	Block3	incongruent/STIM_020.jpg	99
2646.866	0.694	693.9	incongruent	Block3	incongruent/STIM_020.jpg	99
2651.009	0.774	774.4	incongruent	Block3	incongruent/STIM_020.jpg	99
2654.625	0.818	818.2	incongruent	Block3	incongruent/STIM_021.jpg	99
2657.754	1.089	1089.3	incongruent	Block3	incongruent/STIM_021.jpg	99
2661.872	1.02	1019.8	incongruent	Block3	incongruent/STIM_021.jpg	99
2666.669	0.983	982.9	incongruent	Block3	incongruent/STIM_021.jpg	99
2670.316	0.762	762.5	incongruent	Block3	incongruent/STIM_021.jpg	99
2674.32	0.609	609.4	incongruent	Block3	incongruent/STIM_022.jpg	99
2678.491	1.01	1009.9	incongruent	Block3	incongruent/STIM_022.jpg	100
2683.377	0.677	677.0	incongruent	Block3	incongruent/STIM_022.jpg	99
2686.805	0.686	685.5	incongruent	Block3	incongruent/STIM_022.jpg	99
2691.405	1.07	1069.7	incongruent	Block3	incongruent/STIM_022.jpg	99
2695.574	0.801	801.1	incongruent	Block3	incongruent/STIM_023.jpg	100
2699.97	0.932	931.6	incongruent	Block3	incongruent/STIM_023.jpg	100
2703.779	0.9	899.9	incongruent	Block3	incongruent/STIM_023.jpg	100
2708.412	0.893	892.7	incongruent	Block3	incongruent/STIM_023.jpg	100
2713.271	0.608	608.2	incongruent	Block3	incongruent/STIM_023.jpg	100
2716.997	0.526	526.1	incongruent	Block3	incongruent/STIM_024.jpg	100
2721.493	0.667	666.9	incongruent	Block3	incongruent/STIM_024.jpg	99
2724.371	0.868	867.8	incongruent	Block3	incongruent/STIM_024.jpg	99
2728.211	0.879	879.1	incongruent	Block3	incongruent/STIM_024.jpg	99
2731.322	0.862	861.8	incongruent	Block3	incongruent/STIM_024.jpg	99
2735.203	0.557	556.6	incongruent	Block3	incongruent/STIM_025.jpg	100
2738.993	0.855	855.1	incongruent	Block3	incongruent/STIM_025.jpg	100
2743.317	0.755	755.2	incongruent	Block3	incongruent/STIM_025.jpg	100
2747.65	0.82	819.9	incongruent	Block3	incongruent/STIM_025.jpg	100
2752.144	0.478	477.7	incongruent	Block3	incongruent/STIM_025.jpg	99
2756.128	0.623	623.2	incongruent	Block3	incongruent/STIM_026.jpg	100
2760.064	0.875	875.1	incongruent	Block3	incongruent/STIM_026.jpg	99
2764.289	0.772	772.2	incongruent	Block3	incongruent/STIM_026.jpg	99
2767.895	0.842	842.2	incongruent	Block3	incongruent/STIM_026.jpg	100
2771.246	0.556	556.4	incongruent	Block3	incongruent/STIM_026.jpg	99
2775.319	0.654	654.2	incongruent	Block3	incongruent/STIM_027.jpg	100
2779.145	0.918	918.3	incongruent	Block3	incongruent/STIM_027.jpg	100
2783.139	0.897	897.3	incongruent	Block3	incongruent/STIM_027.jpg	99
2786.828	1.081	1081.3	incongruent	Block3	incongruent/STIM_027.jpg	99
2789.959	0.687	687.3	incongruent	Block3	incongruent/STIM_027.jpg	99
2794.033	0.71	710.0	incongruent	Block3	incongruent/STIM_028.jpg	99
2797.297	0.452	451.5	incongruent	Block3	incongruent/STIM_028.jpg	99
2800.868	0.932	932.4	incongruent	Block3	incongruent/STIM_028.jpg	99
2804.4	0.775	774.6	incongruent	Block3	incongruent/STIM_028.jpg	100
2807.664	1.0	1000.4	incongruent	Block3	incongruent/STIM_028.jpg	100
2812.341	0.919	918.8	incongruent	Block3	incongruent/STIM_029.jpg	99
2815.888	0.549	548.8	incongruent	Block3	incongruent/STIM_029.jpg	100
2819.489	0.715	714.7	incongruent	Block3	incongruent/STIM_029.jpg	99
2822.549	0.901	901.0	incongruent	Block3	incongruent/STIM_029.jpg	99
2826.066	0.756	756.2	incongruent	Block3	incongruent/STIM_029.jpg	100
2830.445	0.644	644.0	congruent	Block3	congruent/STIM_000.jpg	100
2833.111	0.758	758.3	congruent	Block3	congruent/STIM_000.jpg	99
2836.819	0.837	837.3	congruent	Block3	congruent/STIM_000.jpg	100
2841.372	0.825	824.7	congruent	Block3	congruent/STIM_000.jpg	100
2846.098	0.766	766.5	congruent	Block3	congruent/STIM_000.jpg	99
2849.501	0.685	685.1	congruent	Block3	congruent/STIM_001.jpg	100
2853.884	0.681	681.0	congruent	Block3	congruent/STIM_001.jpg	100
2858.016	0.671	671.1	congruent	Block3	congruent/STIM_001.jpg	100
2862.286	0.438	437.7	congruent	Block3	congruent/STIM_001.jpg	100
2865.26	0.495	494.8	congruent	Block3	congruent/STIM_001.jpg	99
2869.339	0.704	703.7	congruent	Block3	congruent/STIM_002.jpg	100
2873.552	0.747	747.0	congruent	Block3	congruent/STIM_002.jpg	99
2877.426	0.515	514.8	congruent	Block3	congruent/STIM_002.jpg	99
2881.323	0.637	636.8	congruent	Block3	congruent/STIM_002.jpg	99
2883.993	0.69	689.6	congruent	Block3	congruent/STIM_002.jpg	99
2888.556	0.704	704.3	congruent	Block3	congruent/STIM_003.jpg	99
2891.846	0.573	572.6	congruent	Block3	congruent/STIM_003.jpg	99
2895.822	0.849	849.3	congruent	Block3	congruent/STIM_003.jpg	99
2900.191	0.503	502.8	congruent	Block3	congruent/STIM_003.jpg	100
2904.537	0.686	686.5	congruent	Block3	congruent/STIM_003.jpg	99
2907.661	0.859	858.7	congruent	Block3	congruent/STIM_004.jpg	99
2912.485	0.804	804.1	congruent	Block3	congruent/STIM_004.jpg	99
2915.516	0.696	696.5	congruent	Block3	congruent/STIM_004.jpg	100
2918.431	0.522	522.5	congruent	Block3	congruent/STIM_004.jpg	100
2921.118	0.78	780.5	congruent	Block3	congruent/STIM_004.jpg	100
2924.118	0.558	558.3	congruent	Block3	congruent/STIM_005.jpg	99
2926.779	0.775	775.0	congruent	Block3	congruent/STIM_005.jpg	100
2930.783	0.646	646.1	congruent	Block3	congruent/STIM_005.jpg	100
2934.599	0.56	560.5	congruent	Block3	congruent/STIM_005.jpg	100
2939.176	0.579	579.2	congruent	Block3	congruent/STIM_005.jpg	99
2942.743	0.437	437.1	congruent	Block3	congruent/STIM_006.jpg	100
2945.531	0.6	600.1	congruent	Block3	congruent/STIM_006.jpg	100
2948.64	0.694	693.8	congruent	Block3	congruent/STIM_006.jpg	99
2953.34	0.486	486.5	congruent	Block3	congruent/STIM_006.jpg	99
2956.483	0.613	613.0	congruent	Block3	congruent/STIM_006.jpg	100
2960.935	0.816	815.8	congruent	Block3	congruent/STIM_007.jpg	100
2964.648	0.51	510.3	congruent	Block3	congruent/STIM_007.jpg	99
2968.602	0.574	574.0	congruent	Block3	congruent/STIM_007.jpg	99
2971.595	0.848	847.5	congruent	Block3	congruent/STIM_007.jpg	99
2975.819	0.442	441.8	congruent	Block3	congruent/STIM_007.jpg	100
2980.021	0.771	771.4	congruent	Block3	congruent/STIM_008.jpg	99
2982.999	0.632	631.6	congruent	Block3	congruent/STIM_008.jpg	99
2985.938	0.744	743.9	congruent	Block3	congruent/STIM_008.jpg	99
2989.343	0.637	637.2	congruent	Block3	congruent/STIM_008.jpg	99
2992.638	0.6	599.6	congruent	Block3	congruent/STIM_008.jpg	99
2996.356	0.581	580.9	congruent	Block3	congruent/STIM_009.jpg	99
2999.831	0.492	492.1	congruent	Block3	congruent/STIM_009.jpg	99
3003.608	0.572	571.5	congruent	Block3	congruent/STIM_009.jpg	100
3006.953	0.592	592.1	congruent	Block3	congruent/STIM_009.jpg	100
3010.505	0.66	659.7	congruent	Block3	congruent/STIM_009.jpg	100
3014.575	0.865	865.3	congruent	Block3	congruent/STIM_010.jpg	99
3018.684	0.732	732.5	congruent	Block3	congruent/STIM_010.jpg	100
3021.94	0.752	751.5	congruent	Block3	congruent/STIM_010.jpg	100
3026.706	0.854	853.6	congruent	Block3	congruent/STIM_010.jpg	100
3030.399	0.567	566.6	congruent	Block3	congruent/STIM_010.jpg	99
3033.896	0.885	885.1	congruent	Block3	congruent/STIM_011.jpg	100
3038.407	0.5	500.1	congruent	Block3	congruent/STIM_011.jpg	100
3042.219	0.836	835.7	congruent	Block3	congruent/STIM_011.jpg	100
3046.204	0.566	566.5	congruent	Block3	congruent/STIM_011.jpg	100
3049.117	0.852	852.4	congruent	Block3	congruent/STIM_011.jpg	99
3052.457	0.75	750.5	congruent	Block3	congruent/STIM_012.jpg	99
3056.489	0.648	648.0	congruent	Block3	congruent/STIM_012.jpg	100
3059.492	0.488	488.3	congruent	Block3	congruent/STIM_012.jpg	100
3063.562	0.701	700.6	congruent	Block3	congruent/STIM_012.jpg	99
3067.334	0.674	673.7	congruent	Block3	congruent/STIM_012.jpg	100
3071.214	0.456	456.3	congruent	Block3	congruent/STIM_013.jpg	100
3074.667	0.714	714.2	congruent	Block3	congruent/STIM_013.jpg	99
3078.341	0.661	661.2	congruent	Block3	congruent/STIM_013.jpg	99
3082.536	0.646	645.5	congruent	Block3	congruent/STIM_013.jpg	99
3085.79	0.733	733.1	congruent	Block3	congruent/STIM_013.jpg	100
3089.481	0.854	854.0	congruent	Block3	congruent/STIM_014.jpg	100
3093.515	0.861	860.6	congruent	Block3	congruent/STIM_014.jpg	100
3097.378	0.504	504.5	congruent	Block3	congruent/STIM_014.jpg	100
3101.533	0.606	606.1	congruent	Block3	congruent/STIM_014.jpg	99
3105.759	0.646	646.2	congruent	Block3	congruent/STIM_014.jpg	100
3109.839	0.625	625.3	congruent	Block3	congruent/STIM_015.jpg	99
3113.609	0.82	819.7	congruent	Block3	congruent/STIM_015.jpg	99
3117.597	0.586	586.5	congruent	Block3	congruent/STIM_015.jpg	100
3121.756	0.889	888.6	congruent	Block3	congruent/STIM_015.jpg	99
3125.23	0.838	837.8	congruent	Block3	congruent/STIM_015.jpg	99
3129.808	0.744	744.0	congruent	Block3	congruent/STIM_016.jpg	100
3132.921	0.814	814.3	congruent	Block3	congruent/STIM_016.jpg	100
3137.724	0.666	666.3	congruent	Block3	congruent/STIM_016.jpg	99
3142.115	0.609	609.2	congruent	Block3	congruent/STIM_016.jpg	100
3145.328	0.575	575.0	congruent	Block3	congruent/STIM_016.jpg	99
3149.002	0.719	719.1	congruent	Block3	congruent/STIM_017.jpg	100
3153.14	0.841	840.9	congruent	Block3	congruent/STIM_017.jpg	99
3157.728	0.785	785.0	congruent	Block3	congruent/STIM_017.jpg	99
3162.423	0.803	803.3	congruent	Block3	congruent/STIM_017.jpg	99
3167.022	0.77	770.2	congruent	Block3	congruent/STIM_017.jpg	100
3171.595	0.559	559.2	congruent	Block3	congruent/STIM_018.jpg	100
3175.776	0.843	843.0	congruent	Block3	congruent/STIM_018.jpg	99
3178.955	0.614	613.5	congruent	Block3	congruent/STIM_018.jpg	100
3181.705	0.805	805.0	congruent	Block3	congruent/STIM_018.jpg	99
3186.011	0.536	536.0	congruent	Block3	congruent/STIM_018.jpg	99
3190.613	0.627	627.1	congruent	Block3	congruent/STIM_019.jpg	100
3193.85	0.693	693.3	congruent	Block3	congruent/STIM_019.jpg	99
3196.939	0.679	678.6	congruent	Block3	congruent/STIM_019.jpg	99
3200.384	0.54	540.5	congruent	Block3	congruent/STIM_019.jpg	99
3203.113	0.782	782.4	congruent	Block3	congruent/STIM_019.jpg	100
3206.369	0.507	507.2	congruent	Block3	congruent/STIM_020.jpg	99
3210.373	0.749	749.1	congruent	Block3	congruent/STIM_020.jpg	100
3214.353	0.579	579.4	congruent	Block3	congruent/STIM_020.jpg	100
3218.14	0.69	690.4	congruent	Block3	congruent/STIM_020.jpg	100
3221.352	0.729	729.1	congruent	Block3	congruent/STIM_020.jpg	100
3225.456	0.717	716.9	congruent	Block3	congruent/STIM_021.jpg	99
3228.389	0.726	726.0	congruent	Block3	congruent/STIM_021.jpg	99
3232.188	0.809	808.7	congruent	Block3	congruent/STIM_021.jpg	99
3236.368	0.654	654.2	congruent	Block3	congruent/STIM_021.jpg	100
3239.57	0.747	747.2	congruent	Block3	congruent/STIM_021.jpg	99
3243.667	0.499	499.2	congruent	Block3	congruent/STIM_022.jpg	100
3247.071	0.677	677.0	congruent	Block3	congruent/STIM_022.jpg	100
3251.028	0.533	533.0	congruent	Block3	congruent/STIM_022.jpg	99
3254.863	0.593	592.9	congruent	Block3	congruent/STIM_022.jpg	99
3259.202	0.515	515.3	congruent	Block3	congruent/STIM_022.jpg	99
3262.925	0.731	731.0	congruent	Block3	congruent/STIM_023.jpg	100
3267.43	0.647	646.6	congruent	Block3	congruent/STIM_023.jpg	99
3270.171	0.694	694.2	congruent	Block3	congruent/STIM_023.jpg	100
3274.808	0.562	561.6	congruent	Block3	congruent/STIM_023.jpg	100
3278.745	0.831	831.1	congruent	Block3	congruent/STIM_023.jpg	100
3282.488	0.739	738.8	congruent	Block3	congruent/STIM_024.jpg	100
3286.738	0.518	518.5	congruent	Block3	congruent/STIM_024.jpg	99
3290.07	0.557	556.6	congruent	Block3	congruent/STIM_024.jpg	100
3294.521	0.74	740.4	congruent	Block3	congruent/STIM_024.jpg	100
3299.237	0.835	834.6	congruent	Block3	congruent/STIM_024.jpg	99
3302.481	0.9	900.2	congruent	Block3	congruent/STIM_025.jpg	100
3305.967	0.882	881.5	congruent	Block3	congruent/STIM_025.jpg	100
3310.241	0.616	615.8	congruent	Block3	congruent/STIM_025.jpg	100
3313.425	0.925	925.4	congruent	Block3	congruent/STIM_025.jpg	99
3318.13	0.532	532.0	congruent	Block3	congruent/STIM_025.jpg	100
3321.666	0.624	623.7	congruent	Block3	congruent/STIM_026.jpg	100
3324.488	0.603	602.6	congruent	Block3	congruent/STIM_026.jpg	100
3328.109	0.7	699.9	congruent	Block3	congruent/STIM_026.jpg	100
3332.637	0.546	545.6	congruent	Block3	congruent/STIM_026.jpg	100
3336.06	0.555	554.9	congruent	Block3	congruent/STIM_026.jpg	99
3339.802	0.776	776.5	congruent	Block3	congruent/STIM_027.jpg	100
3344.341	0.746	746.4	congruent	Block3	congruent/STIM_027.jpg	99
3348.512	0.756	756.0	congruent	Block3	congruent/STIM_027.jpg	100
3351.886	0.545	545.0	congruent	Block3	congruent/STIM_027.jpg	100
3355.836	0.844	843.9	congruent	Block3	congruent/STIM_027.jpg	99
3359.827	0.702	701.5	congruent	Block3	congruent/STIM_028.jpg	99
3364.103	0.808	807.6	congruent	Block3	congruent/STIM_028.jpg	99
3368.24	0.644	643.9	congruent	Block3	congruent/STIM_028.jpg	99
3372.306	0.618	618.2	congruent	Block3	congruent/STIM_028.jpg	100
3374.992	0.862	862.2	congruent	Block3	congruent/STIM_028.jpg	99
3379.264	0.624	624.5	congruent	Block3	congruent/STIM_029.jpg	100
3383.776	0.503	502.9	congruent	Block3	congruent/STIM_029.jpg	100
3386.371	0.816	816.3	congruent	Block3	congruent/STIM_029.jpg	100
3390.155	0.802	801.5	congruent	Block3	congruent/STIM_029.jpg	99
3393.577	0.769	768.9	congruent	Block3	congruent/STIM_029.jpg	99
