onset	duration	accuracy	trial_type	learning_stage	stimulus
0.0	1.017	incorrect	incongruent	Block1	incongruent/STIM_000.jpg
4.184	1.084	incorrect	incongruent	Block1	incongruent/STIM_000.jpg
8.308	1.162	correct	incongruent	Block1	incongruent/STIM_000.jpg
12.659	0.925	correct	incongruent	Block1	incongruent/STIM_000.jpg
17.007	0.855	correct	incongruent	Block1	incongruent/STIM_000.jpg
20.491	1.29	correct	incongruent	Block1	incongruent/STIM_001.jpg
24.046	0.698	correct	incongruent	Block1	incongruent/STIM_001.jpg
26.931	1.138	correct	incongruent	Block1	incongruent/STIM_001.jpg
30.791	0.898	correct	incongruent	Block1	incongruent/STIM_001.jpg
33.801	0.79	incorrect	incongruent	Block1	incongruent/STIM_001.jpg
36.787	0.761	correct	incongruent	Block1	incongruent/STIM_002.jpg
40.723	1.305	correct	incongruent	Block1	incongruent/STIM_002.jpg
45.19	1.142	correct	incongruent	Block1	incongruent/STIM_002.jpg
49.969	0.838	correct	incongruent	Block1	incongruent/STIM_002.jpg
53.139	0.986	correct	incongruent	Block1	incongruent/STIM_002.jpg
57.507	1.018	correct	incongruent	Block1	incongruent/STIM_003.jpg
61.995	0.922	incorrect	incongruent	Block1	incongruent/STIM_003.jpg
65.69	0.67	correct	incongruent	Block1	incongruent/STIM_003.jpg
69.953	0.659	correct	incongruent	Block1	incongruent/STIM_003.jpg
73.724	0.774	correct	incongruent	Block1	incongruent/STIM_003.jpg
78.454	1.348	incorrect	incongruent	Block1	incongruent/STIM_004.jpg
82.739	0.914	correct	incongruent	Block1	incongruent/STIM_004.jpg
87.318	0.604	correct	incongruent	Block1	incongruent/STIM_004.jpg
92.018	1.031	correct	incongruent	Block1	incongruent/STIM_004.jpg
96.168	0.589	correct	incongruent	Block1	incongruent/STIM_004.jpg
99.595	1.363	correct	incongruent	Block1	incongruent/STIM_005.jpg
103.915	1.198	correct	incongruent	Block1	incongruent/STIM_005.jpg
107.551	1.189	incorrect	incongruent	Block1	incongruent/STIM_005.jpg
110.827	1.28	correct	incongruent	Block1	incongruent/STIM_005.jpg
115.318	1.071	correct	incongruent	Block1	incongruent/STIM_005.jpg
119.446	0.976	correct	incongruent	Block1	incongruent/STIM_006.jpg
123.095	1.245	correct	incongruent	Block1	incongruent/STIM_006.jpg
126.547	0.989	correct	incongruent	Block1	incongruent/STIM_006.jpg
130.78	1.099	correct	incongruent	Block1	incongruent/STIM_006.jpg
135.65	0.655	correct	incongruent	Block1	incongruent/STIM_006.jpg
139.64	0.778	incorrect	incongruent	Block1	incongruent/STIM_007.jpg
143.672	1.084	correct	incongruent	Block1	incongruent/STIM_007.jpg
148.736	0.798	correct	incongruent	Block1	incongruent/STIM_007.jpg
152.804	0.701	correct	incongruent	Block1	incongruent/STIM_007.jpg
156.223	1.009	correct	incongruent	Block1	incongruent/STIM_007.jpg
159.913	1.161	correct	incongruent	Block1	incongruent/STIM_008.jpg
163.252	0.925	correct	incongruent	Block1	incongruent/STIM_008.jpg
166.281	0.742	incorrect	incongruent	Block1	incongruent/STIM_008.jpg
169.968	1.105	correct	incongruent	Block1	incongruent/STIM_008.jpg
174.024	1.108	correct	incongruent	Block1	incongruent/STIM_008.jpg
177.51	0.93	correct	incongruent	Block1	incongruent/STIM_009.jpg
180.684	1.122	correct	incongruent	Block1	incongruent/STIM_009.jpg
184.188	1.157	correct	incongruent	Block1	incongruent/STIM_009.jpg
188.193	1.168	correct	incongruent	Block1	incongruent/STIM_009.jpg
192.947	1.105	correct	incongruent	Block1	incongruent/STIM_009.jpg
197.239	1.367	correct	incongruent	Block1	incongruent/STIM_010.jpg
201.388	0.844	correct	incongruent	Block1	incongruent/STIM_010.jpg
205.363	1.262	correct	incongruent	Block1	incongruent/STIM_010.jpg
210.422	1.074	correct	incongruent	Block1	incongruent/STIM_010.jpg
214.79	0.611	correct	incongruent	Block1	incongruent/STIM_010.jpg
218.953	0.928	correct	incongruent	Block1	incongruent/STIM_011.jpg
222.973	0.898	correct	incongruent	Block1	incongruent/STIM_011.jpg
226.196	1.108	correct	incongruent	Block1	incongruent/STIM_011.jpg
229.965	0.672	correct	incongruent	Block1	incongruent/STIM_011.jpg
233.364	0.628	incorrect	incongruent	Block1	incongruent/STIM_011.jpg
237.776	1.436	incorrect	incongruent	Block1	incongruent/STIM_012.jpg
241.845	1.348	correct	incongruent	Block1	incongruent/STIM_012.jpg
245.467	0.774	correct	incongruent	Block1	incongruent/STIM_012.jpg
249.177	0.791	correct	incongruent	Block1	incongruent/STIM_012.jpg
252.867	0.612	correct	incongruent	Block1	incongruent/STIM_012.jpg
255.766	0.663	incorrect	incongruent	Block1	incongruent/STIM_013.jpg
259.348	1.228	correct	incongruent	Block1	incongruent/STIM_013.jpg
262.825	1.317	correct	incongruent	Block1	incongruent/STIM_013.jpg
268.03	0.977	correct	incongruent	Block1	incongruent/STIM_013.jpg
271.229	1.157	correct	incongruent	Block1	incongruent/STIM_013.jpg
275.177	1.007	correct	incongruent	Block1	incongruent/STIM_014.jpg
279.305	1.06	correct	incongruent	Block1	incongruent/STIM_014.jpg
283.106	0.74	correct	incongruent	Block1	incongruent/STIM_014.jpg
287.348	0.718	correct	incongruent	Block1	incongruent/STIM_014.jpg
291.979	0.779	correct	incongruent	Block1	incongruent/STIM_014.jpg
296.518	1.413	correct	incongruent	Block1	incongruent/STIM_015.jpg
300.402	0.876	correct	incongruent	Block1	incongruent/STIM_015.jpg
304.571	0.798	correct	incongruent	Block1	incongruent/STIM_015.jpg
308.402	0.889	correct	incongruent	Block1	incongruent/STIM_015.jpg
311.955	0.969	correct	incongruent	Block1	incongruent/STIM_015.jpg
316.206	1.057	correct	incongruent	Block1	incongruent/STIM_016.jpg
320.008	0.847	correct	incongruent	Block1	incongruent/STIM_016.jpg
324.071	0.822	incorrect	incongruent	Block1	incongruent/STIM_016.jpg
327.435	0.826	correct	incongruent	Block1	incongruent/STIM_016.jpg
331.251	0.914	correct	incongruent	Block1	incongruent/STIM_016.jpg
334.401	0.873	correct	incongruent	Block1	incongruent/STIM_017.jpg
337.514	1.118	incorrect	incongruent	Block1	incongruent/STIM_017.jpg
342.236	0.925	correct	incongruent	Block1	incongruent/STIM_017.jpg
345.614	1.086	correct	incongruent	Block1	incongruent/STIM_017.jpg
350.582	0.887	correct	incongruent	Block1	incongruent/STIM_017.jpg
354.463	0.951	correct	incongruent	Block1	incongruent/STIM_018.jpg
358.56	0.727	correct	incongruent	Block1	incongruent/STIM_018.jpg
363.12	0.769	correct	incongruent	Block1	incongruent/STIM_018.jpg
367.414	1.053	correct	incongruent	Block1	incongruent/STIM_018.jpg
371.392	0.591	correct	incongruent	Block1	incongruent/STIM_018.jpg
374.61	1.378	correct	incongruent	Block1	incongruent/STIM_019.jpg
379.699	1.203	correct	incongruent	Block1	incongruent/STIM_019.jpg
384.151	1.236	incorrect	incongruent	Block1	incongruent/STIM_019.jpg
387.645	0.716	correct	incongruent	Block1	incongruent/STIM_019.jpg
391.969	0.91	correct	incongruent	Block1	incongruent/STIM_019.jpg
396.339	1.296	incorrect	incongruent	Block1	incongruent/STIM_020.jpg
400.461	0.869	correct	incongruent	Block1	incongruent/STIM_020.jpg
403.716	0.634	correct	incongruent	Block1	incongruent/STIM_020.jpg
407.774	1.15	correct	incongruent	Block1	incongruent/STIM_020.jpg
411.338	0.749	correct	incongruent	Block1	incongruent/STIM_020.jpg
416.008	1.107	correct	incongruent	Block1	incongruent/STIM_021.jpg
419.792	1.331	correct	incongruent	Block1	incongruent/STIM_021.jpg
424.119	1.246	correct	incongruent	Block1	incongruent/STIM_021.jpg
427.455	0.685	correct	incongruent	Block1	incongruent/STIM_021.jpg
431.681	1.126	correct	incongruent	Block1	incongruent/STIM_021.jpg
435.441	1.001	correct	incongruent	Block1	incongruent/STIM_022.jpg
439.46	0.841	incorrect	incongruent	Block1	incongruent/STIM_022.jpg
443.326	1.2	correct	incongruent	Block1	incongruent/STIM_022.jpg
446.845	1.192	correct	incongruent	Block1	incongruent/STIM_022.jpg
451.915	0.724	correct	incongruent	Block1	incongruent/STIM_022.jpg
455.884	1.465	correct	incongruent	Block1	incongruent/STIM_023.jpg
460.593	0.743	correct	incongruent	Block1	incongruent/STIM_023.jpg
463.986	1.205	correct	incongruent	Block1	incongruent/STIM_023.jpg
467.609	0.859	correct	incongruent	Block1	incongruent/STIM_023.jpg
471.376	0.548	correct	incongruent	Block1	incongruent/STIM_023.jpg
475.161	1.246	correct	incongruent	Block1	incongruent/STIM_024.jpg
479.556	1.333	correct	incongruent	Block1	incongruent/STIM_024.jpg
483.268	0.998	incorrect	incongruent	Block1	incongruent/STIM_024.jpg
487.717	1.015	correct	incongruent	Block1	incongruent/STIM_024.jpg
492.126	0.888	correct	incongruent	Block1	incongruent/STIM_024.jpg
496.046	1.117	incorrect	incongruent	Block1	incongruent/STIM_025.jpg
500.68	1.096	incorrect	incongruent	Block1	incongruent/STIM_025.jpg
504.514	0.663	correct	incongruent	Block1	incongruent/STIM_025.jpg
508.518	0.564	incorrect	incongruent	Block1	incongruent/STIM_025.jpg
512.094	1.096	correct	incongruent	Block1	incongruent/STIM_025.jpg
515.367	1.161	correct	incongruent	Block1	incongruent/STIM_026.jpg
519.376	0.924	correct	incongruent	Block1	incongruent/STIM_026.jpg
523.275	0.691	correct	incongruent	Block1	incongruent/STIM_026.jpg
526.833	1.162	correct	incongruent	Block1	incongruent/STIM_026.jpg
530.049	0.751	correct	incongruent	Block1	incongruent/STIM_026.jpg
534.187	1.134	correct	incongruent	Block1	incongruent/STIM_027.jpg
538.775	1.297	correct	incongruent	Block1	incongruent/STIM_027.jpg
542.593	1.101	correct	incongruent	Block1	incongruent/STIM_027.jpg
546.299	1.119	correct	incongruent	Block1	incongruent/STIM_027.jpg
550.887	1.063	correct	incongruent	Block1	incongruent/STIM_027.jpg
555.199	0.736	correct	incongruent	Block1	incongruent/STIM_028.jpg
558.687	0.858	correct	incongruent	Block1	incongruent/STIM_028.jpg
562.257	1.05	correct	incongruent	Block1	incongruent/STIM_028.jpg
565.892	1.068	correct	incongruent	Block1	incongruent/STIM_028.jpg
569.945	1.098	correct	incongruent	Block1	incongruent/STIM_028.jpg
574.252	0.806	correct	incongruent	Block1	incongruent/STIM_029.jpg
578.421	1.27	correct	incongruent	Block1	incongruent/STIM_029.jpg
581.759	0.996	correct	incongruent	Block1	incongruent/STIM_029.jpg
584.974	0.673	correct	incongruent	Block1	incongruent/STIM_029.jpg
587.991	0.589	correct	incongruent	Block1	incongruent/STIM_029.jpg
592.599	0.886	correct	congruent	Block1	congruent/STIM_000.jpg
596.307	0.748	correct	congruent	Block1	congruent/STIM_000.jpg
600.084	0.833	correct	congruent	Block1	congruent/STIM_000.jpg
602.99	0.702	correct	congruent	Block1	congruent/STIM_000.jpg
606.889	0.796	correct	congruent	Block1	congruent/STIM_000.jpg
610.916	0.56	incorrect	congruent	Block1	congruent/STIM_001.jpg
615.159	0.556	correct	congruent	Block1	congruent/STIM_001.jpg
618.918	0.634	correct	congruent	Block1	congruent/STIM_001.jpg
623.189	0.658	correct	congruent	Block1	congruent/STIM_001.jpg
626.21	0.523	correct	congruent	Block1	congruent/STIM_001.jpg
628.926	0.664	incorrect	congruent	Block1	congruent/STIM_002.jpg
632.816	0.678	correct	congruent	Block1	congruent/STIM_002.jpg
636.315	0.544	correct	congruent	Block1	congruent/STIM_002.jpg
640.557	0.579	correct	congruent	Block1	congruent/STIM_002.jpg
644.844	0.736	correct	congruent	Block1	congruent/STIM_002.jpg
649.143	0.926	correct	congruent	Block1	congruent/STIM_003.jpg
652.917	0.823	correct	congruent	Block1	congruent/STIM_003.jpg
655.804	0.796	incorrect	congruent	Block1	congruent/STIM_003.jpg
660.324	0.804	correct	congruent	Block1	congruent/STIM_003.jpg
664.44	0.765	correct	congruent	Block1	congruent/STIM_003.jpg
668.29	0.515	correct	congruent	Block1	congruent/STIM_004.jpg
671.13	0.548	correct	congruent	Block1	congruent/STIM_004.jpg
675.238	0.927	correct	congruent	Block1	congruent/STIM_004.jpg
678.461	0.67	correct	congruent	Block1	congruent/STIM_004.jpg
682.052	0.707	correct	congruent	Block1	congruent/STIM_004.jpg
686.498	0.838	correct	congruent	Block1	congruent/STIM_005.jpg
690.071	0.623	correct	congruent	Block1	congruent/STIM_005.jpg
693.919	0.763	correct	congruent	Block1	congruent/STIM_005.jpg
698.301	0.854	correct	congruent	Block1	congruent/STIM_005.jpg
701.282	0.958	correct	congruent	Block1	congruent/STIM_005.jpg
704.923	0.667	correct	congruent	Block1	congruent/STIM_006.jpg
708.155	0.536	correct	congruent	Block1	congruent/STIM_006.jpg
711.069	0.805	incorrect	congruent	Block1	congruent/STIM_006.jpg
714.271	0.841	correct	congruent	Block1	congruent/STIM_006.jpg
718.053	0.654	correct	congruent	Block1	congruent/STIM_006.jpg
721.011	0.778	correct	congruent	Block1	congruent/STIM_007.jpg
725.169	0.793	correct	congruent	Block1	congruent/STIM_007.jpg
728.035	0.642	correct	congruent	Block1	congruent/STIM_007.jpg
731.463	0.662	correct	congruent	Block1	congruent/STIM_007.jpg
735.423	0.612	correct	congruent	Block1	congruent/STIM_007.jpg
739.325	0.412	correct	congruent	Block1	congruent/STIM_008.jpg
742.367	0.884	correct	congruent	Block1	congruent/STIM_008.jpg
747.012	0.48	correct	congruent	Block1	congruent/STIM_008.jpg
749.909	0.792	correct	congruent	Block1	congruent/STIM_008.jpg
753.518	0.607	incorrect	congruent	Block1	congruent/STIM_008.jpg
757.993	0.528	correct	congruent	Block1	congruent/STIM_009.jpg
762.507	0.843	correct	congruent	Block1	congruent/STIM_009.jpg
767.161	0.752	correct	congruent	Block1	congruent/STIM_009.jpg
771.166	0.673	correct	congruent	Block1	congruent/STIM_009.jpg
773.972	0.612	correct	congruent	Block1	congruent/STIM_009.jpg
776.684	0.781	correct	congruent	Block1	congruent/STIM_010.jpg
779.996	0.489	correct	congruent	Block1	congruent/STIM_010.jpg
784.413	0.587	correct	congruent	Block1	congruent/STIM_010.jpg
788.455	0.673	correct	congruent	Block1	congruent/STIM_010.jpg
792.645	0.707	correct	congruent	Block1	congruent/STIM_010.jpg
795.768	0.533	correct	congruent	Block1	congruent/STIM_011.jpg
798.627	0.718	correct	congruent	Block1	congruent/STIM_011.jpg
802.213	0.574	correct	congruent	Block1	congruent/STIM_011.jpg
804.792	0.592	correct	congruent	Block1	congruent/STIM_011.jpg
808.551	0.809	correct	congruent	Block1	congruent/STIM_011.jpg
811.576	0.64	correct	congruent	Block1	congruent/STIM_012.jpg
815.725	0.748	correct	congruent	Block1	congruent/STIM_012.jpg
818.667	0.768	correct	congruent	Block1	congruent/STIM_012.jpg
823.176	0.759	correct	congruent	Block1	congruent/STIM_012.jpg
826.268	0.468	correct	congruent	Block1	congruent/STIM_012.jpg
829.531	0.683	correct	congruent	Block1	congruent/STIM_013.jpg
833.555	0.803	correct	congruent	Block1	congruent/STIM_013.jpg
836.76	0.774	correct	congruent	Block1	congruent/STIM_013.jpg
839.771	0.582	correct	congruent	Block1	congruent/STIM_013.jpg
842.693	0.539	correct	congruent	Block1	congruent/STIM_013.jpg
845.737	0.552	correct	congruent	Block1	congruent/STIM_014.jpg
848.869	0.595	correct	congruent	Block1	congruent/STIM_014.jpg
851.746	0.787	correct	congruent	Block1	congruent/STIM_014.jpg
855.476	0.493	correct	congruent	Block1	congruent/STIM_014.jpg
858.143	0.583	correct	congruent	Block1	congruent/STIM_014.jpg
861.272	0.68	correct	congruent	Block1	congruent/STIM_015.jpg
865.864	0.593	correct	congruent	Block1	congruent/STIM_015.jpg
869.9	0.66	correct	congruent	Block1	congruent/STIM_015.jpg
873.859	0.861	correct	congruent	Block1	congruent/STIM_015.jpg
877.414	0.524	correct	congruent	Block1	congruent/STIM_015.jpg
881.811	0.747	correct	congruent	Block1	congruent/STIM_016.jpg
885.778	0.654	correct	congruent	Block1	congruent/STIM_016.jpg
889.773	0.575	correct	congruent	Block1	congruent/STIM_016.jpg
894.034	0.857	correct	congruent	Block1	congruent/STIM_016.jpg
898.709	0.744	correct	congruent	Block1	congruent/STIM_016.jpg
901.847	0.788	correct	congruent	Block1	congruent/STIM_017.jpg
904.98	0.649	correct	congruent	Block1	congruent/STIM_017.jpg
908.781	0.761	correct	congruent	Block1	congruent/STIM_017.jpg
913.507	0.531	correct	congruent	Block1	congruent/STIM_017.jpg
917.798	0.768	correct	congruent	Block1	congruent/STIM_017.jpg
922.084	0.615	correct	congruent	Block1	congruent/STIM_018.jpg
925.197	0.528	correct	congruent	Block1	congruent/STIM_018.jpg
928.752	0.584	correct	congruent	Block1	congruent/STIM_018.jpg
931.814	0.59	correct	congruent	Block1	congruent/STIM_018.jpg
935.524	0.543	correct	congruent	Block1	congruent/STIM_018.jpg
939.645	0.769	correct	congruent	Block1	congruent/STIM_019.jpg
943.989	0.716	correct	congruent	Block1	congruent/STIM_019.jpg
948.304	0.75	correct	congruent	Block1	congruent/STIM_019.jpg
951.672	0.547	correct	congruent	Block1	congruent/STIM_019.jpg
955.778	0.666	correct	congruent	Block1	congruent/STIM_019.jpg
959.515	0.595	correct	congruent	Block1	congruent/STIM_020.jpg
964.042	0.814	correct	congruent	Block1	congruent/STIM_020.jpg
966.998	0.61	correct	congruent	Block1	congruent/STIM_020.jpg
969.79	0.628	correct	congruent	Block1	congruent/STIM_020.jpg
973.046	0.75	correct	congruent	Block1	congruent/STIM_020.jpg
976.744	0.863	correct	congruent	Block1	congruent/STIM_021.jpg
981.499	0.471	correct	congruent	Block1	congruent/STIM_021.jpg
984.93	0.569	correct	congruent	Block1	congruent/STIM_021.jpg
988.015	0.592	correct	congruent	Block1	congruent/STIM_021.jpg
991.505	0.638	correct	congruent	Block1	congruent/STIM_021.jpg
994.341	0.575	incorrect	congruent	Block1	congruent/STIM_022.jpg
997.397	0.563	correct	congruent	Block1	congruent/STIM_022.jpg
1000.325	0.419	correct	congruent	Block1	congruent/STIM_022.jpg
1004.529	0.72	correct	congruent	Block1	congruent/STIM_022.jpg
1007.484	0.55	correct	congruent	Block1	congruent/STIM_022.jpg
1011.778	0.786	correct	congruent	Block1	congruent/STIM_023.jpg
1016.203	0.725	correct	congruent	Block1	congruent/STIM_023.jpg
1019.298	0.746	correct	congruent	Block1	congruent/STIM_023.jpg
1023.757	0.494	correct	congruent	Block1	congruent/STIM_023.jpg
1026.902	0.701	correct	congruent	Block1	congruent/STIM_023.jpg
1030.084	0.623	correct	congruent	Block1	congruent/STIM_024.jpg
1033.513	0.626	correct	congruent	Block1	congruent/STIM_024.jpg
1037.448	0.802	correct	congruent	Block1	congruent/STIM_024.jpg
1041.472	0.67	correct	congruent	Block1	congruent/STIM_024.jpg
1045.455	0.62	correct	congruent	Block1	congruent/STIM_024.jpg
1049.827	0.708	correct	congruent	Block1	congruent/STIM_025.jpg
1054.119	0.624	correct	congruent	Block1	congruent/STIM_025.jpg
1058.648	0.76	correct	congruent	Block1	congruent/STIM_025.jpg
1061.431	0.706	correct	congruent	Block1	congruent/STIM_025.jpg
1064.225	0.638	correct	congruent	Block1	congruent/STIM_025.jpg
1068.379	0.808	correct	congruent	Block1	congruent/STIM_026.jpg
1072.834	0.527	correct	congruent	Block1	congruent/STIM_026.jpg
1075.783	0.416	correct	congruent	Block1	congruent/STIM_026.jpg
1079.35	0.751	correct	congruent	Block1	congruent/STIM_026.jpg
1083.137	0.567	correct	congruent	Block1	congruent/STIM_026.jpg
1087.254	0.851	correct	congruent	Block1	congruent/STIM_027.jpg
1090.962	0.79	correct	congruent	Block1	congruent/STIM_027.jpg
1094.901	0.598	correct	congruent	Block1	congruent/STIM_027.jpg
1098.789	0.822	correct	congruent	Block1	congruent/STIM_027.jpg
1103.279	0.786	correct	congruent	Block1	congruent/STIM_027.jpg
1107.007	0.671	correct	congruent	Block1	congruent/STIM_028.jpg
1109.782	0.845	correct	congruent	Block1	congruent/STIM_028.jpg
1113.211	0.793	correct	congruent	Block1	congruent/STIM_028.jpg
1117.261	0.659	correct	congruent	Block1	congruent/STIM_028.jpg
1121.722	0.448	correct	congruent	Block1	congruent/STIM_028.jpg
1126.076	0.794	correct	congruent	Block1	congruent/STIM_029.jpg
1129.44	0.737	correct	congruent	Block1	congruent/STIM_029.jpg
1133.028	0.614	correct	congruent	Block1	congruent/STIM_029.jpg
1135.973	0.52	correct	congruent	Block1	congruent/STIM_029.jpg
1139.991	0.774	correct	congruent	Block1	congruent/STIM_029.jpg
1143.133	1.207	correct	incongruent	Block2	incongruent/STIM_000.jpg
1147.146	0.913	incorrect	incongruent	Block2	incongruent/STIM_000.jpg
1150.981	0.693	correct	incongruent	Block2	incongruent/STIM_000.jpg
1154.733	0.763	correct	incongruent	Block2	incongruent/STIM_000.jpg
1158.154	0.846	correct	incongruent	Block2	incongruent/STIM_000.jpg
1161.031	1.131	incorrect	incongruent	Block2	incongruent/STIM_001.jpg
1165.79	0.969	correct	incongruent	Block2	incongruent/STIM_001.jpg
1169.657	0.917	correct	incongruent	Block2	incongruent/STIM_001.jpg
1174.38	0.789	correct	incongruent	Block2	incongruent/STIM_001.jpg
1178.353	0.904	correct	incongruent	Block2	incongruent/STIM_001.jpg
1181.481	0.775	correct	incongruent	Block2	incongruent/STIM_002.jpg
1184.855	1.045	correct	incongruent	Block2	incongruent/STIM_002.jpg
1189.517	0.953	correct	incongruent	Block2	incongruent/STIM_002.jpg
1192.691	0.504	incorrect	incongruent	Block2	incongruent/STIM_002.jpg
1196.763	0.561	correct	incongruent	Block2	incongruent/STIM_002.jpg
1199.984	0.904	correct	incongruent	Block2	incongruent/STIM_003.jpg
1203.351	0.782	correct	incongruent	Block2	incongruent/STIM_003.jpg
1207.181	0.869	correct	incongruent	Block2	incongruent/STIM_003.jpg
1210.901	1.051	correct	incongruent	Block2	incongruent/STIM_003.jpg
1215.52	0.58	correct	incongruent	Block2	incongruent/STIM_003.jpg
1218.182	0.926	correct	incongruent	Block2	incongruent/STIM_004.jpg
1222.307	1.098	correct	incongruent	Block2	incongruent/STIM_004.jpg
1226.017	0.971	correct	incongruent	Block2	incongruent/STIM_004.jpg
1229.847	0.858	correct	incongruent	Block2	incongruent/STIM_004.jpg
1233.655	0.956	correct	incongruent	Block2	incongruent/STIM_004.jpg
1238.68	1.11	correct	incongruent	Block2	incongruent/STIM_005.jpg
1242.415	0.855	correct	incongruent	Block2	incongruent/STIM_005.jpg
1246.438	0.856	correct	incongruent	Block2	incongruent/STIM_005.jpg
1250.627	0.673	correct	incongruent	Block2	incongruent/STIM_005.jpg
1255.022	0.535	correct	incongruent	Block2	incongruent/STIM_005.jpg
1258.032	0.775	correct	incongruent	Block2	incongruent/STIM_006.jpg
1261.085	0.852	correct	incongruent	Block2	incongruent/STIM_006.jpg
1264.949	0.618	correct	incongruent	Block2	incongruent/STIM_006.jpg
1268.228	1.061	correct	incongruent	Block2	incongruent/STIM_006.jpg
1272.307	1.011	correct	incongruent	Block2	incongruent/STIM_006.jpg
1276.436	0.861	correct	incongruent	Block2	incongruent/STIM_007.jpg
1280.849	0.609	correct	incongruent	Block2	incongruent/STIM_007.jpg
1284.963	0.602	correct	incongruent	Block2	incongruent/STIM_007.jpg
1289.193	0.618	correct	incongruent	Block2	incongruent/STIM_007.jpg
1293.717	0.509	correct	incongruent	Block2	incongruent/STIM_007.jpg
1296.43	1.033	correct	incongruent	Block2	incongruent/STIM_008.jpg
1299.873	0.98	incorrect	incongruent	Block2	incongruent/STIM_008.jpg
1303.828	0.635	correct	incongruent	Block2	incongruent/STIM_008.jpg
1308.359	0.895	correct	incongruent	Block2	incongruent/STIM_008.jpg
1311.998	0.792	correct	incongruent	Block2	incongruent/STIM_008.jpg
1316.335	1.116	incorrect	incongruent	Block2	incongruent/STIM_009.jpg
1320.036	0.843	correct	incongruent	Block2	incongruent/STIM_009.jpg
1323.558	0.661	correct	incongruent	Block2	incongruent/STIM_009.jpg
1326.592	0.633	correct	incongruent	Block2	incongruent/STIM_009.jpg
1329.693	0.753	correct	incongruent	Block2	incongruent/STIM_009.jpg
1332.722	0.782	correct	incongruent	Block2	incongruent/STIM_010.jpg
1337.414	0.936	correct	incongruent	Block2	incongruent/STIM_010.jpg
1340.518	0.483	correct	incongruent	Block2	incongruent/STIM_010.jpg
1343.198	1.033	correct	incongruent	Block2	incongruent/STIM_010.jpg
1348.176	0.577	correct	incongruent	Block2	incongruent/STIM_010.jpg
1352.718	0.635	incorrect	incongruent	Block2	incongruent/STIM_011.jpg
1357.243	1.086	correct	incongruent	Block2	incongruent/STIM_011.jpg
1361.261	0.582	correct	incongruent	Block2	incongruent/STIM_011.jpg
1364.14	0.635	correct	incongruent	Block2	incongruent/STIM_011.jpg
1367.768	0.83	correct	incongruent	Block2	incongruent/STIM_011.jpg
1371.844	0.929	correct	incongruent	Block2	incongruent/STIM_012.jpg
1376.383	0.789	incorrect	incongruent	Block2	incongruent/STIM_012.jpg
1379.891	0.835	correct	incongruent	Block2	incongruent/STIM_012.jpg
1383.003	0.898	correct	incongruent	Block2	incongruent/STIM_012.jpg
1387.274	1.005	correct	incongruent	Block2	incongruent/STIM_012.jpg
1390.787	1.152	correct	incongruent	Block2	incongruent/STIM_013.jpg
1393.987	0.634	correct	incongruent	Block2	incongruent/STIM_013.jpg
1397.36	0.587	correct	incongruent	Block2	incongruent/STIM_013.jpg
1400.463	0.52	correct	incongruent	Block2	incongruent/STIM_013.jpg
1403.91	1.063	correct	incongruent	Block2	incongruent/STIM_013.jpg
1408.899	0.666	correct	incongruent	Block2	incongruent/STIM_014.jpg
1412.147	0.946	correct	incongruent	Block2	incongruent/STIM_014.jpg
1415.956	0.722	correct	incongruent	Block2	incongruent/STIM_014.jpg
1418.89	0.521	correct	incongruent	Block2	incongruent/STIM_014.jpg
1421.943	0.525	correct	incongruent	Block2	incongruent/STIM_014.jpg
1425.077	0.959	correct	incongruent	Block2	incongruent/STIM_015.jpg
1429.939	0.957	incorrect	incongruent	Block2	incongruent/STIM_015.jpg
1433.501	0.748	correct	incongruent	Block2	incongruent/STIM_015.jpg
1436.31	0.708	correct	incongruent	Block2	incongruent/STIM_015.jpg
1440.656	0.595	correct	incongruent	Block2	incongruent/STIM_015.jpg
1445.076	0.751	correct	incongruent	Block2	incongruent/STIM_016.jpg
1448.561	0.55	correct	incongruent	Block2	incongruent/STIM_016.jpg
1452.358	1.087	correct	incongruent	Block2	incongruent/STIM_016.jpg
1456.179	0.765	correct	incongruent	Block2	incongruent/STIM_016.jpg
1459.841	1.078	correct	incongruent	Block2	incongruent/STIM_016.jpg
1463.919	1.233	correct	incongruent	Block2	incongruent/STIM_017.jpg
1468.054	1.186	correct	incongruent	Block2	incongruent/STIM_017.jpg
1471.66	0.662	correct	incongruent	Block2	incongruent/STIM_017.jpg
1476.316	0.983	correct	incongruent	Block2	incongruent/STIM_017.jpg
1480.414	0.693	correct	incongruent	Block2	incongruent/STIM_017.jpg
1484.034	0.981	correct	incongruent	Block2	incongruent/STIM_018.jpg
1488.562	1.045	correct	incongruent	Block2	incongruent/STIM_018.jpg
1493.483	0.812	correct	incongruent	Block2	incongruent/STIM_018.jpg
1497.476	0.9	correct	incongruent	Block2	incongruent/STIM_018.jpg
1500.967	0.492	correct	incongruent	Block2	incongruent/STIM_018.jpg
1504.705	1.18	correct	incongruent	Block2	incongruent/STIM_019.jpg
1509.784	0.955	incorrect	incongruent	Block2	incongruent/STIM_019.jpg
1513.507	0.593	correct	incongruent	Block2	incongruent/STIM_019.jpg
1517.091	0.809	correct	incongruent	Block2	incongruent/STIM_019.jpg
1520.557	1.008	correct	incongruent	Block2	incongruent/STIM_019.jpg
1525.564	1.035	correct	incongruent	Block2	incongruent/STIM_020.jpg
1530.535	1.2	correct	incongruent	Block2	incongruent/STIM_020.jpg
1534.137	0.645	correct	incongruent	Block2	incongruent/STIM_020.jpg
1537.924	0.646	correct	incongruent	Block2	incongruent/STIM_020.jpg
1540.757	0.578	correct	incongruent	Block2	incongruent/STIM_020.jpg
1543.329	0.674	correct	incongruent	Block2	incongruent/STIM_021.jpg
1547.816	0.817	correct	incongruent	Block2	incongruent/STIM_021.jpg
1551.061	0.692	correct	incongruent	Block2	incongruent/STIM_021.jpg
1555.423	0.87	correct	incongruent	Block2	incongruent/STIM_021.jpg
1558.46	0.55	incorrect	incongruent	Block2	incongruent/STIM_021.jpg
1562.734	1.02	correct	incongruent	Block2	incongruent/STIM_022.jpg
1567.024	0.701	correct	incongruent	Block2	incongruent/STIM_022.jpg
1571.204	0.897	correct	incongruent	Block2	incongruent/STIM_022.jpg
1574.14	0.934	correct	incongruent	Block2	incongruent/STIM_022.jpg
1578.765	0.72	correct	incongruent	Block2	incongruent/STIM_022.jpg
1582.435	0.915	correct	incongruent	Block2	incongruent/STIM_023.jpg
1585.999	0.719	incorrect	incongruent	Block2	incongruent/STIM_023.jpg
1589.03	1.054	correct	incongruent	Block2	incongruent/STIM_023.jpg
1593.669	0.603	correct	incongruent	Block2	incongruent/STIM_023.jpg
1598.293	0.557	correct	incongruent	Block2	incongruent/STIM_023.jpg
1601.589	1.178	correct	incongruent	Block2	incongruent/STIM_024.jpg
1605.744	0.686	correct	incongruent	Block2	incongruent/STIM_024.jpg
1609.466	0.688	correct	incongruent	Block2	incongruent/STIM_024.jpg
1612.481	0.951	correct	incongruent	Block2	incongruent/STIM_024.jpg
1616.592	0.614	correct	incongruent	Block2	incongruent/STIM_024.jpg
1620.175	0.607	correct	incongruent	Block2	incongruent/STIM_025.jpg
1624.665	0.748	correct	incongruent	Block2	incongruent/STIM_025.jpg
1628.141	0.793	correct	incongruent	Block2	incongruent/STIM_025.jpg
1631.444	0.676	correct	incongruent	Block2	incongruent/STIM_025.jpg
1635.454	0.56	correct	incongruent	Block2	incongruent/STIM_025.jpg
1638.533	1.161	correct	incongruent	Block2	incongruent/STIM_026.jpg
1643.365	0.966	correct	incongruent	Block2	incongruent/STIM_026.jpg
1648.095	0.995	incorrect	incongruent	Block2	incongruent/STIM_026.jpg
1652.8	0.742	correct	incongruent	Block2	incongruent/STIM_026.jpg
1656.025	0.583	correct	incongruent	Block2	incongruent/STIM_026.jpg
1659.809	0.933	correct	incongruent	Block2	incongruent/STIM_027.jpg
1663.183	0.808	correct	incongruent	Block2	incongruent/STIM_027.jpg
1667.924	0.988	correct	incongruent	Block2	incongruent/STIM_027.jpg
1671.628	0.89	correct	incongruent	Block2	incongruent/STIM_027.jpg
1674.608	0.547	correct	incongruent	Block2	incongruent/STIM_027.jpg
1677.74	0.677	incorrect	incongruent	Block2	incongruent/STIM_028.jpg
1681.901	0.859	correct	incongruent	Block2	incongruent/STIM_028.jpg
1685.702	0.667	incorrect	incongruent	Block2	incongruent/STIM_028.jpg
1690.332	0.962	correct	incongruent	Block2	incongruent/STIM_028.jpg
1694.067	0.985	correct	incongruent	Block2	incongruent/STIM_028.jpg
1698.981	1.112	correct	incongruent	Block2	incongruent/STIM_029.jpg
1702.878	1.144	correct	incongruent	Block2	incongruent/STIM_029.jpg
1707.731	1.039	correct	incongruent	Block2	incongruent/STIM_029.jpg
1711.248	0.796	correct	incongruent	Block2	incongruent/STIM_029.jpg
1714.69	1.06	correct	incongruent	Block2	incongruent/STIM_029.jpg
1717.915	0.658	correct	congruent	Block2	congruent/STIM_000.jpg
1721.463	0.815	correct	congruent	Block2	congruent/STIM_000.jpg
1724.995	0.51	correct	congruent	Block2	congruent/STIM_000.jpg
1728.351	0.542	correct	congruent	Block2	congruent/STIM_000.jpg
1732.82	0.592	correct	congruent	Block2	congruent/STIM_000.jpg
1737.11	0.638	correct	congruent	Block2	congruent/STIM_001.jpg
1740.843	0.7	correct	congruent	Block2	congruent/STIM_001.jpg
1743.985	0.694	correct	congruent	Block2	congruent/STIM_001.jpg
1747.827	0.662	correct	congruent	Block2	congruent/STIM_001.jpg
1751.471	0.519	correct	congruent	Block2	congruent/STIM_001.jpg
1755.624	0.856	correct	congruent	Block2	congruent/STIM_002.jpg
1759.846	0.584	correct	congruent	Block2	congruent/STIM_002.jpg
1763.338	0.832	correct	congruent	Block2	congruent/STIM_002.jpg
1766.576	0.539	correct	congruent	Block2	congruent/STIM_002.jpg
1771.119	0.586	correct	congruent	Block2	congruent/STIM_002.jpg
1774.871	0.528	correct	congruent	Block2	congruent/STIM_003.jpg
1778.173	0.5	correct	congruent	Block2	congruent/STIM_003.jpg
1781.63	0.584	correct	congruent	Block2	congruent/STIM_003.jpg
1786.207	0.872	correct	congruent	Block2	congruent/STIM_003.jpg
1789.086	0.903	correct	congruent	Block2	congruent/STIM_003.jpg
1793.373	0.59	correct	congruent	Block2	congruent/STIM_004.jpg
1797.394	0.7	correct	congruent	Block2	congruent/STIM_004.jpg
1800.465	0.847	correct	congruent	Block2	congruent/STIM_004.jpg
1803.367	0.788	correct	congruent	Block2	congruent/STIM_004.jpg
1807.906	0.818	correct	congruent	Block2	congruent/STIM_004.jpg
1811.403	0.49	correct	congruent	Block2	congruent/STIM_005.jpg
1815.468	0.588	correct	congruent	Block2	congruent/STIM_005.jpg
1819.62	0.53	correct	congruent	Block2	congruent/STIM_005.jpg
1822.228	0.531	correct	congruent	Block2	congruent/STIM_005.jpg
1825.578	0.68	correct	congruent	Block2	congruent/STIM_005.jpg
1828.345	0.642	correct	congruent	Block2	congruent/STIM_006.jpg
1832.535	0.952	correct	congruent	Block2	congruent/STIM_006.jpg
1837.137	0.644	correct	congruent	Block2	congruent/STIM_006.jpg
1839.895	0.756	correct	congruent	Block2	congruent/STIM_006.jpg
1842.993	0.871	correct	congruent	Block2	congruent/STIM_006.jpg
1846.233	0.763	correct	congruent	Block2	congruent/STIM_007.jpg
1849.628	0.628	correct	congruent	Block2	congruent/STIM_007.jpg
1852.251	0.784	correct	congruent	Block2	congruent/STIM_007.jpg
1856.657	0.743	correct	congruent	Block2	congruent/STIM_007.jpg
1859.529	0.64	correct	congruent	Block2	congruent/STIM_007.jpg
1863.156	0.6	correct	congruent	Block2	congruent/STIM_008.jpg
1867.762	0.563	correct	congruent	Block2	congruent/STIM_008.jpg
1872.304	0.694	correct	congruent	Block2	congruent/STIM_008.jpg
1875.87	0.817	correct	congruent	Block2	congruent/STIM_008.jpg
1880.143	0.495	correct	congruent	Block2	congruent/STIM_008.jpg
1882.823	0.642	correct	congruent	Block2	congruent/STIM_009.jpg
1886.835	0.683	correct	congruent	Block2	congruent/STIM_009.jpg
1890.642	0.593	correct	congruent	Block2	congruent/STIM_009.jpg
1894.413	0.517	correct	congruent	Block2	congruent/STIM_009.jpg
1897.523	0.686	correct	congruent	Block2	congruent/STIM_009.jpg
1901.395	0.821	correct	congruent	Block2	congruent/STIM_010.jpg
1905.923	0.634	correct	congruent	Block2	congruent/STIM_010.jpg
1908.9	0.559	correct	congruent	Block2	congruent/STIM_010.jpg
1911.869	0.66	correct	congruent	Block2	congruent/STIM_010.jpg
1915.387	0.594	incorrect	congruent	Block2	congruent/STIM_010.jpg
1918.287	0.7	correct	congruent	Block2	congruent/STIM_011.jpg
1922.776	0.554	correct	congruent	Block2	congruent/STIM_011.jpg
1927.221	0.801	correct	congruent	Block2	congruent/STIM_011.jpg
1930.82	0.551	correct	congruent	Block2	congruent/STIM_011.jpg
1934.386	0.74	incorrect	congruent	Block2	congruent/STIM_011.jpg
1938.646	0.823	correct	congruent	Block2	congruent/STIM_012.jpg
1942.321	0.726	correct	congruent	Block2	congruent/STIM_012.jpg
1945.931	0.611	correct	congruent	Block2	congruent/STIM_012.jpg
1949.256	0.696	correct	congruent	Block2	congruent/STIM_012.jpg
1953.642	0.824	correct	congruent	Block2	congruent/STIM_012.jpg
1956.888	0.805	correct	congruent	Block2	congruent/STIM_013.jpg
1960.742	0.614	correct	congruent	Block2	congruent/STIM_013.jpg
1964.119	0.458	correct	congruent	Block2	congruent/STIM_013.jpg
1968.122	0.843	correct	congruent	Block2	congruent/STIM_013.jpg
1972.773	0.723	correct	congruent	Block2	congruent/STIM_013.jpg
1977.195	0.854	correct	congruent	Block2	congruent/STIM_014.jpg
1980.653	0.687	correct	congruent	Block2	congruent/STIM_014.jpg
1985.297	0.658	correct	congruent	Block2	congruent/STIM_014.jpg
1987.956	0.584	correct	congruent	Block2	congruent/STIM_014.jpg
1991.497	0.736	correct	congruent	Block2	congruent/STIM_014.jpg
1994.46	0.656	correct	congruent	Block2	congruent/STIM_015.jpg
1998.223	0.754	correct	congruent	Block2	congruent/STIM_015.jpg
2002.967	0.718	correct	congruent	Block2	congruent/STIM_015.jpg
2006.911	0.787	correct	congruent	Block2	congruent/STIM_015.jpg
2010.748	0.844	correct	congruent	Block2	congruent/STIM_015.jpg
2014.45	0.668	correct	congruent	Block2	congruent/STIM_016.jpg
2017.198	0.606	correct	congruent	Block2	congruent/STIM_016.jpg
2020.204	0.873	correct	congruent	Block2	congruent/STIM_016.jpg
2024.19	0.718	correct	congruent	Block2	congruent/STIM_016.jpg
2028.467	0.819	correct	congruent	Block2	congruent/STIM_016.jpg
2031.531	0.602	correct	congruent	Block2	congruent/STIM_017.jpg
2034.274	0.695	incorrect	congruent	Block2	congruent/STIM_017.jpg
2037.179	0.696	correct	congruent	Block2	congruent/STIM_017.jpg
2041.117	0.895	correct	congruent	Block2	congruent/STIM_017.jpg
2044.027	0.609	correct	congruent	Block2	congruent/STIM_017.jpg
2048.164	0.864	incorrect	congruent	Block2	congruent/STIM_018.jpg
2052.882	0.792	correct	congruent	Block2	congruent/STIM_018.jpg
2056.809	0.852	correct	congruent	Block2	congruent/STIM_018.jpg
2060.36	0.535	correct	congruent	Block2	congruent/STIM_018.jpg
2063.524	0.787	correct	congruent	Block2	congruent/STIM_018.jpg
2066.862	0.827	correct	congruent	Block2	congruent/STIM_019.jpg
2070.061	0.797	correct	congruent	Block2	congruent/STIM_019.jpg
2073.932	0.757	correct	congruent	Block2	congruent/STIM_019.jpg
2077.813	0.676	correct	congruent	Block2	congruent/STIM_019.jpg
2080.559	0.378	correct	congruent	Block2	congruent/STIM_019.jpg
2084.812	0.823	correct	congruent	Block2	congruent/STIM_020.jpg
2088.867	0.773	correct	congruent	Block2	congruent/STIM_020.jpg
2092.78	0.92	correct	congruent	Block2	congruent/STIM_020.jpg
2096.61	0.854	correct	congruent	Block2	congruent/STIM_020.jpg
2100.044	0.859	correct	congruent	Block2	congruent/STIM_020.jpg
2104.15	0.509	correct	congruent	Block2	congruent/STIM_021.jpg
2107.058	0.642	correct	congruent	Block2	congruent/STIM_021.jpg
2110.911	0.542	correct	congruent	Block2	congruent/STIM_021.jpg
2113.771	0.546	correct	congruent	Block2	congruent/STIM_021.jpg
2118.189	0.82	correct	congruent	Block2	congruent/STIM_021.jpg
2122.666	0.765	correct	congruent	Block2	congruent/STIM_022.jpg
2127.2	0.737	correct	congruent	Block2	congruent/STIM_022.jpg
2130.389	0.626	correct	congruent	Block2	congruent/STIM_022.jpg
2133.016	0.487	correct	congruent	Block2	congruent/STIM_022.jpg
2137.418	0.795	correct	congruent	Block2	congruent/STIM_022.jpg
2140.895	0.535	correct	congruent	Block2	congruent/STIM_023.jpg
2143.565	0.725	correct	congruent	Block2	congruent/STIM_023.jpg
2148.232	0.656	correct	congruent	Block2	congruent/STIM_023.jpg
2152.541	0.608	correct	congruent	Block2	congruent/STIM_023.jpg
2155.258	0.624	correct	congruent	Block2	congruent/STIM_023.jpg
2159.513	0.822	correct	congruent	Block2	congruent/STIM_024.jpg
2162.808	0.55	correct	congruent	Block2	congruent/STIM_024.jpg
2166.496	0.527	correct	congruent	Block2	congruent/STIM_024.jpg
2171.058	0.514	correct	congruent	Block2	congruent/STIM_024.jpg
2174.665	0.603	incorrect	congruent	Block2	congruent/STIM_024.jpg
2177.47	0.525	correct	congruent	Block2	congruent/STIM_025.jpg
2180.212	0.6	correct	congruent	Block2	congruent/STIM_025.jpg
2184.833	0.73	correct	congruent	Block2	congruent/STIM_025.jpg
2189.498	0.623	correct	congruent	Block2	congruent/STIM_025.jpg
2193.421	0.736	correct	congruent	Block2	congruent/STIM_025.jpg
2198.131	0.779	incorrect	congruent	Block2	congruent/STIM_026.jpg
2201.118	0.712	correct	congruent	Block2	congruent/STIM_026.jpg
2205.03	0.792	correct	congruent	Block2	congruent/STIM_026.jpg
2209.115	0.546	correct	congruent	Block2	congruent/STIM_026.jpg
2212.611	0.661	correct	congruent	Block2	congruent/STIM_026.jpg
2216.206	0.609	correct	congruent	Block2	congruent/STIM_027.jpg
2220.217	0.57	correct	congruent	Block2	congruent/STIM_027.jpg
2224.254	0.835	correct	congruent	Block2	congruent/STIM_027.jpg
2227.763	0.486	correct	congruent	Block2	congruent/STIM_027.jpg
2231.718	0.722	correct	congruent	Block2	congruent/STIM_027.jpg
2235.164	0.724	correct	congruent	Block2	congruent/STIM_028.jpg
2239.395	0.71	incorrect	congruent	Block2	congruent/STIM_028.jpg
2243.98	0.928	correct	congruent	Block2	congruent/STIM_028.jpg
2246.971	0.666	correct	congruent	Block2	congruent/STIM_028.jpg
2250.009	0.801	correct	congruent	Block2	congruent/STIM_028.jpg
2254.404	0.834	correct	congruent	Block2	congruent/STIM_029.jpg
2257.449	0.684	correct	congruent	Block2	congruent/STIM_029.jpg
2261.302	0.801	correct	congruent	Block2	congruent/STIM_029.jpg
2265.776	0.814	incorrect	congruent	Block2	congruent/STIM_029.jpg
2270.399	0.62	correct	congruent	Block2	congruent/STIM_029.jpg
2274.133	0.869	correct	incongruent	Block3	incongruent/STIM_000.jpg
2278.072	0.659	correct	incongruent	Block3	incongruent/STIM_000.jpg
2281.184	0.853	correct	incongruent	Block3	incongruent/STIM_000.jpg
2284.151	0.814	correct	incongruent	Block3	incongruent/STIM_000.jpg
2287.434	0.964	correct	incongruent	Block3	incongruent/STIM_000.jpg
2290.856	0.741	correct	incongruent	Block3	incongruent/STIM_001.jpg
2294.086	0.877	correct	incongruent	Block3	incongruent/STIM_001.jpg
2297.135	0.721	correct	incongruent	Block3	incongruent/STIM_001.jpg
2300.336	0.687	correct	incongruent	Block3	incongruent/STIM_001.jpg
2303.67	0.605	correct	incongruent	Block3	incongruent/STIM_001.jpg
2307.285	0.737	correct	incongruent	Block3	incongruent/STIM_002.jpg
2311.289	0.47	correct	incongruent	Block3	incongruent/STIM_002.jpg
2314.382	0.667	correct	incongruent	Block3	incongruent/STIM_002.jpg
2317.235	0.921	correct	incongruent	Block3	incongruent/STIM_002.jpg
2321.091	0.474	correct	incongruent	Block3	incongruent/STIM_002.jpg
2325.191	0.622	correct	incongruent	Block3	incongruent/STIM_003.jpg
2327.906	0.625	correct	incongruent	Block3	incongruent/STIM_003.jpg
2332.328	1.008	correct	incongruent	Block3	incongruent/STIM_003.jpg
2335.779	0.544	correct	incongruent	Block3	incongruent/STIM_003.jpg
2340.012	0.934	correct	incongruent	Block3	incongruent/STIM_003.jpg
2344.118	0.868	correct	incongruent	Block3	incongruent/STIM_004.jpg
2347.843	0.576	correct	incongruent	Block3	incongruent/STIM_004.jpg
2351.065	0.896	correct	incongruent	Block3	incongruent/STIM_004.jpg
2355.08	0.883	correct	incongruent	Block3	incongruent/STIM_004.jpg
2358.248	0.591	incorrect	incongruent	Block3	incongruent/STIM_004.jpg
2362.476	0.688	correct	incongruent	Block3	incongruent/STIM_005.jpg
2365.416	0.683	correct	incongruent	Block3	incongruent/STIM_005.jpg
2369.822	0.859	correct	incongruent	Block3	incongruent/STIM_005.jpg
2374.336	0.89	correct	incongruent	Block3	incongruent/STIM_005.jpg
2377.567	0.539	correct	incongruent	Block3	incongruent/STIM_005.jpg
2381.311	0.87	correct	incongruent	Block3	incongruent/STIM_006.jpg
2384.373	0.458	correct	incongruent	Block3	incongruent/STIM_006.jpg
2387.051	0.933	correct	incongruent	Block3	incongruent/STIM_006.jpg
2390.282	0.433	correct	incongruent	Block3	incongruent/STIM_006.jpg
2392.868	0.95	correct	incongruent	Block3	incongruent/STIM_006.jpg
2397.699	0.903	correct	incongruent	Block3	incongruent/STIM_007.jpg
2402.573	0.597	correct	incongruent	Block3	incongruent/STIM_007.jpg
2406.708	0.722	correct	incongruent	Block3	incongruent/STIM_007.jpg
2410.844	0.548	correct	incongruent	Block3	incongruent/STIM_007.jpg
2414.346	0.586	correct	incongruent	Block3	incongruent/STIM_007.jpg
2418.184	0.733	correct	incongruent	Block3	incongruent/STIM_008.jpg
2422.384	0.618	correct	incongruent	Block3	incongruent/STIM_008.jpg
2426.117	0.456	correct	incongruent	Block3	incongruent/STIM_008.jpg
2429.162	0.832	correct	incongruent	Block3	incongruent/STIM_008.jpg
2432.044	0.532	correct	incongruent	Block3	incongruent/STIM_008.jpg
2434.611	1.026	correct	incongruent	Block3	incongruent/STIM_009.jpg
2437.845	0.87	correct	incongruent	Block3	incongruent/STIM_009.jpg
2442.489	0.776	correct	incongruent	Block3	incongruent/STIM_009.jpg
2447.065	0.975	correct	incongruent	Block3	incongruent/STIM_009.jpg
2450.638	0.522	correct	incongruent	Block3	incongruent/STIM_009.jpg
2453.409	1.015	correct	incongruent	Block3	incongruent/STIM_010.jpg
2457.431	0.814	correct	incongruent	Block3	incongruent/STIM_010.jpg
2461.312	0.584	correct	incongruent	Block3	incongruent/STIM_010.jpg
2465.55	0.786	correct	incongruent	Block3	incongruent/STIM_010.jpg
2469.203	0.552	correct	incongruent	Block3	incongruent/STIM_010.jpg
2472.989	0.922	correct	incongruent	Block3	incongruent/STIM_011.jpg
2477.826	0.987	correct	incongruent	Block3	incongruent/STIM_011.jpg
2482.269	0.587	correct	incongruent	Block3	incongruent/STIM_011.jpg
2484.963	0.994	correct	incongruent	Block3	incongruent/STIM_011.jpg
2488.14	0.706	correct	incongruent	Block3	incongruent/STIM_011.jpg
2490.938	0.91	correct	incongruent	Block3	incongruent/STIM_012.jpg
2494.01	0.476	correct	incongruent	Block3	incongruent/STIM_012.jpg
2497.566	0.888	correct	incongruent	Block3	incongruent/STIM_012.jpg
2500.711	0.7	correct	incongruent	Block3	incongruent/STIM_012.jpg
2505.337	0.523	correct	incongruent	Block3	incongruent/STIM_012.jpg
2508.755	0.499	correct	incongruent	Block3	incongruent/STIM_013.jpg
2512.298	0.875	correct	incongruent	Block3	incongruent/STIM_013.jpg
2515.616	0.87	correct	incongruent	Block3	incongruent/STIM_013.jpg
2520.356	0.799	correct	incongruent	Block3	incongruent/STIM_013.jpg
2525.149	0.573	correct	incongruent	Block3	incongruent/STIM_013.jpg
2528.861	0.736	correct	incongruent	Block3	incongruent/STIM_014.jpg
2531.753	0.912	correct	incongruent	Block3	incongruent/STIM_014.jpg
2534.837	0.509	correct	incongruent	Block3	incongruent/STIM_014.jpg
2537.724	0.569	incorrect	incongruent	Block3	incongruent/STIM_014.jpg
2541.719	0.546	correct	incongruent	Block3	incongruent/STIM_014.jpg
2545.981	0.95	correct	incongruent	Block3	incongruent/STIM_015.jpg
2550.253	0.677	correct	incongruent	Block3	incongruent/STIM_015.jpg
2553.974	0.702	correct	incongruent	Block3	incongruent/STIM_015.jpg
2558.021	0.886	correct	incongruent	Block3	incongruent/STIM_015.jpg
2561.046	0.783	correct	incongruent	Block3	incongruent/STIM_015.jpg
2564.802	0.606	correct	incongruent	Block3	incongruent/STIM_016.jpg
2567.499	0.608	correct	incongruent	Block3	incongruent/STIM_016.jpg
2571.667	0.885	correct	incongruent	Block3	incongruent/STIM_016.jpg
2575.033	0.811	correct	incongruent	Block3	incongruent/STIM_016.jpg
2579.176	0.847	correct	incongruent	Block3	incongruent/STIM_016.jpg
2583.458	0.853	correct	incongruent	Block3	incongruent/STIM_017.jpg
2586.329	0.598	correct	incongruent	Block3	incongruent/STIM_017.jpg
2590.355	0.788	correct	incongruent	Block3	incongruent/STIM_017.jpg
2594.315	0.913	correct	incongruent	Block3	incongruent/STIM_017.jpg
2597.438	0.426	correct	incongruent	Block3	incongruent/STIM_017.jpg
2600.582	0.541	correct	incongruent	Block3	incongruent/STIM_018.jpg
2604.348	0.62	correct	incongruent	Block3	incongruent/STIM_018.jpg
2607.72	0.555	correct	incongruent	Block3	incongruent/STIM_018.jpg
2611.036	0.474	correct	incongruent	Block3	incongruent/STIM_018.jpg
2614.962	0.966	correct	incongruent	Block3	incongruent/STIM_018.jpg
2619.214	0.751	correct	incongruent	Block3	incongruent/STIM_019.jpg
2622.262	0.645	correct	incongruent	Block3	incongruent/STIM_019.jpg
2625.773	0.494	incorrect	incongruent	Block3	incongruent/STIM_019.jpg
2629.719	0.456	correct	incongruent	Block3	incongruent/STIM_019.jpg
2632.828	0.804	correct	incongruent	Block3	incongruent/STIM_019.jpg
2637.459	0.999	correct	incongruent	Block3	incongruent/STIM_020.jpg
2640.485	0.627	correct	incongruent	Block3	incongruent/STIM_020.jpg
2643.499	0.52	correct	incongruent	Block3	incongruent/STIM_020.jpg
2646.866	0.694	correct	incongruent	Block3	incongruent/STIM_020.jpg
2651.009	0.774	correct	incongruent	Block3	incongruent/STIM_020.jpg
2654.625	0.818	correct	incongruent	Block3	incongruent/STIM_021.jpg
2657.754	1.089	correct	incongruent	Block3	incongruent/STIM_021.jpg
2661.872	1.02	correct	incongruent	Block3	incongruent/STIM_021.jpg
2666.669	0.983	correct	incongruent	Block3	incongruent/STIM_021.jpg
2670.316	0.762	correct	incongruent	Block3	incongruent/STIM_021.jpg
2674.32	0.609	correct	incongruent	Block3	incongruent/STIM_022.jpg
2678.491	1.01	correct	incongruent	Block3	incongruent/STIM_022.jpg
2683.377	0.677	correct	incongruent	Block3	incongruent/STIM_022.jpg
2686.805	0.686	correct	incongruent	Block3	incongruent/STIM_022.jpg
2691.405	1.07	correct	incongruent	Block3	incongruent/STIM_022.jpg
2695.574	0.801	correct	incongruent	Block3	incongruent/STIM_023.jpg
2699.97	0.932	correct	incongruent	Block3	incongruent/STIM_023.jpg
2703.779	0.9	correct	incongruent	Block3	incongruent/STIM_023.jpg
2708.412	0.893	correct	incongruent	Block3	incongruent/STIM_023.jpg
2713.271	0.608	correct	incongruent	Block3	incongruent/STIM_023.jpg
2716.997	0.526	correct	incongruent	Block3	incongruent/STIM_024.jpg
2721.493	0.667	correct	incongruent	Block3	incongruent/STIM_024.jpg
2724.371	0.868	correct	incongruent	Block3	incongruent/STIM_024.jpg
2728.211	0.879	correct	incongruent	Block3	incongruent/STIM_024.jpg
2731.322	0.862	correct	incongruent	Block3	incongruent/STIM_024.jpg
2735.203	0.557	correct	incongruent	Block3	incongruent/STIM_025.jpg
2738.993	0.855	correct	incongruent	Block3	incongruent/STIM_025.jpg
2743.317	0.755	correct	incongruent	Block3	incongruent/STIM_025.jpg
2747.65	0.82	correct	incongruent	Block3	incongruent/STIM_025.jpg
2752.144	0.478	correct	incongruent	Block3	incongruent/STIM_025.jpg
2756.128	0.623	correct	incongruent	Block3	incongruent/STIM_026.jpg
2760.064	0.875	correct	incongruent	Block3	incongruent/STIM_026.jpg
2764.289	0.772	correct	incongruent	Block3	incongruent/STIM_026.jpg
2767.895	0.842	correct	incongruent	Block3	incongruent/STIM_026.jpg
2771.246	0.556	correct	incongruent	Block3	incongruent/STIM_026.jpg
2775.319	0.654	correct	incongruent	Block3	incongruent/STIM_027.jpg
2779.145	0.918	correct	incongruent	Block3	incongruent/STIM_027.jpg
2783.139	0.897	correct	incongruent	Block3	incongruent/STIM_027.jpg
2786.828	1.081	correct	incongruent	Block3	incongruent/STIM_027.jpg
2789.959	0.687	correct	incongruent	Block3	incongruent/STIM_027.jpg
2794.033	0.71	correct	incongruent	Block3	incongruent/STIM_028.jpg
2797.297	0.452	correct	incongruent	Block3	incongruent/STIM_028.jpg
2800.868	0.932	correct	incongruent	Block3	incongruent/STIM_028.jpg
2804.4	0.775	correct	incongruent	Block3	incongruent/STIM_028.jpg
2807.664	1.0	correct	incongruent	Block3	incongruent/STIM_028.jpg
2812.341	0.919	correct	incongruent	Block3	incongruent/STIM_029.jpg
2815.888	0.549	correct	incongruent	Block3	incongruent/STIM_029.jpg
2819.489	0.715	correct	incongruent	Block3	incongruent/STIM_029.jpg
2822.549	0.901	correct	incongruent	Block3	incongruent/STIM_029.jpg
2826.066	0.756	correct	incongruent	Block3	incongruent/STIM_029.jpg
2830.445	0.644	correct	congruent	Block3	congruent/STIM_000.jpg
2833.111	0.758	correct	congruent	Block3	congruent/STIM_000.jpg
2836.819	0.837	correct	congruent	Block3	congruent/STIM_000.jpg
2841.372	0.825	incorrect	congruent	Block3	congruent/STIM_000.jpg
2846.098	0.766	correct	congruent	Block3	congruent/STIM_000.jpg
2849.501	0.685	correct	congruent	Block3	congruent/STIM_001.jpg
2853.884	0.681	correct	congruent	Block3	congruent/STIM_001.jpg
2858.016	0.671	correct	congruent	Block3	congruent/STIM_001.jpg
2862.286	0.438	correct	congruent	Block3	congruent/STIM_001.jpg
2865.26	0.495	correct	congruent	Block3	congruent/STIM_001.jpg
2869.339	0.704	correct	congruent	Block3	congruent/STIM_002.jpg
2873.552	0.747	correct	congruent	Block3	congruent/STIM_002.jpg
2877.426	0.515	correct	congruent	Block3	congruent/STIM_002.jpg
2881.323	0.637	correct	congruent	Block3	congruent/STIM_002.jpg
2883.993	0.69	correct	congruent	Block3	congruent/STIM_002.jpg
2888.556	0.704	correct	congruent	Block3	congruent/STIM_003.jpg
2891.846	0.573	correct	congruent	Block3	congruent/STIM_003.jpg
2895.822	0.849	correct	congruent	Block3	congruent/STIM_003.jpg
2900.191	0.503	correct	congruent	Block3	congruent/STIM_003.jpg
2904.537	0.686	correct	congruent	Block3	congruent/STIM_003.jpg
2907.661	0.859	correct	congruent	Block3	congruent/STIM_004.jpg
2912.485	0.804	correct	congruent	Block3	congruent/STIM_004.jpg
2915.516	0.696	correct	congruent	Block3	congruent/STIM_004.jpg
2918.431	0.522	correct	congruent	Block3	congruent/STIM_004.jpg
2921.118	0.78	correct	congruent	Block3	congruent/STIM_004.jpg
2924.118	0.558	incorrect	congruent	Block3	congruent/STIM_005.jpg
2926.779	0.775	correct	congruent	Block3	congruent/STIM_005.jpg
2930.783	0.646	correct	congruent	Block3	congruent/STIM_005.jpg
2934.599	0.56	correct	congruent	Block3	congruent/STIM_005.jpg
2939.176	0.579	correct	congruent	Block3	congruent/STIM_005.jpg
2942.743	0.437	correct	congruent	Block3	congruent/STIM_006.jpg
2945.531	0.6	correct	congruent	Block3	congruent/STIM_006.jpg
2948.64	0.694	correct	congruent	Block3	congruent/STIM_006.jpg
2953.34	0.486	correct	congruent	Block3	congruent/STIM_006.jpg
2956.483	0.613	correct	congruent	Block3	congruent/STIM_006.jpg
2960.935	0.816	correct	congruent	Block3	congruent/STIM_007.jpg
2964.648	0.51	correct	congruent	Block3	congruent/STIM_007.jpg
2968.602	0.574	correct	congruent	Block3	congruent/STIM_007.jpg
2971.595	0.848	correct	congruent	Block3	congruent/STIM_007.jpg
2975.819	0.442	correct	congruent	Block3	congruent/STIM_007.jpg
2980.021	0.771	correct	congruent	Block3	congruent/STIM_008.jpg
2982.999	0.632	correct	congruent	Block3	congruent/STIM_008.jpg
2985.938	0.744	correct	congruent	Block3	congruent/STIM_008.jpg
2989.343	0.637	correct	congruent	Block3	congruent/STIM_008.jpg
2992.638	0.6	correct	congruent	Block3	congruent/STIM_008.jpg
2996.356	0.581	correct	congruent	Block3	congruent/STIM_009.jpg
2999.831	0.492	correct	congruent	Block3	congruent/STIM_009.jpg
3003.608	0.572	correct	congruent	Block3	congruent/STIM_009.jpg
3006.953	0.592	correct	congruent	Block3	congruent/STIM_009.jpg
3010.505	0.66	correct	congruent	Block3	congruent/STIM_009.jpg
3014.575	0.865	correct	congruent	Block3	congruent/STIM_010.jpg
3018.684	0.732	correct	congruent	Block3	congruent/STIM_010.jpg
3021.94	0.752	correct	congruent	Block3	congruent/STIM_010.jpg
3026.706	0.854	correct	congruent	Block3	congruent/STIM_010.jpg
3030.399	0.567	correct	congruent	Block3	congruent/STIM_010.jpg
3033.896	0.885	correct	congruent	Block3	congruent/STIM_011.jpg
3038.407	0.5	correct	congruent	Block3	congruent/STIM_011.jpg
3042.219	0.836	correct	congruent	Block3	congruent/STIM_011.jpg
3046.204	0.566	correct	congruent	Block3	congruent/STIM_011.jpg
3049.117	0.852	incorrect	congruent	Block3	congruent/STIM_011.jpg
3052.457	0.75	correct	congruent	Block3	congruent/STIM_012.jpg
3056.489	0.648	correct	congruent	Block3	congruent/STIM_012.jpg
3059.492	0.488	correct	congruent	Block3	congruent/STIM_012.jpg
3063.562	0.701	correct	congruent	Block3	congruent/STIM_012.jpg
3067.334	0.674	correct	congruent	Block3	congruent/STIM_012.jpg
3071.214	0.456	correct	congruent	Block3	congruent/STIM_013.jpg
3074.667	0.714	correct	congruent	Block3	congruent/STIM_013.jpg
3078.341	0.661	correct	congruent	Block3	congruent/STIM_013.jpg
3082.536	0.646	correct	congruent	Block3	congruent/STIM_013.jpg
3085.79	0.733	correct	congruent	Block3	congruent/STIM_013.jpg
3089.481	0.854	correct	congruent	Block3	congruent/STIM_014.jpg
3093.515	0.861	correct	congruent	Block3	congruent/STIM_014.jpg
3097.378	0.504	correct	congruent	Block3	congruent/STIM_014.jpg
3101.533	0.606	correct	congruent	Block3	congruent/STIM_014.jpg
3105.759	0.646	correct	congruent	Block3	congruent/STIM_014.jpg
3109.839	0.625	correct	congruent	Block3	congruent/STIM_015.jpg
3113.609	0.82	correct	congruent	Block3	congruent/STIM_015.jpg
3117.597	0.586	correct	congruent	Block3	congruent/STIM_015.jpg
3121.756	0.889	correct	congruent	Block3	congruent/STIM_015.jpg
3125.23	0.838	correct	congruent	Block3	congruent/STIM_015.jpg
3129.808	0.744	correct	congruent	Block3	congruent/STIM_016.jpg
3132.921	0.814	correct	congruent	Block3	congruent/STIM_016.jpg
3137.724	0.666	correct	congruent	Block3	congruent/STIM_016.jpg
3142.115	0.609	correct	congruent	Block3	congruent/STIM_016.jpg
3145.328	0.575	correct	congruent	Block3	congruent/STIM_016.jpg
3149.002	0.719	correct	congruent	Block3	congruent/STIM_017.jpg
3153.14	0.841	correct	congruent	Block3	congruent/STIM_017.jpg
3157.728	0.785	correct	congruent	Block3	congruent/STIM_017.jpg
3162.423	0.803	correct	congruent	Block3	congruent/STIM_017.jpg
3167.022	0.77	correct	congruent	Block3	congruent/STIM_017.jpg
3171.595	0.559	correct	congruent	Block3	congruent/STIM_018.jpg
3175.776	0.843	correct	congruent	Block3	congruent/STIM_018.jpg
3178.955	0.614	correct	congruent	Block3	congruent/STIM_018.jpg
3181.705	0.805	correct	congruent	Block3	congruent/STIM_018.jpg
3186.011	0.536	incorrect	congruent	Block3	congruent/STIM_018.jpg
3190.613	0.627	correct	congruent	Block3	congruent/STIM_019.jpg
3193.85	0.693	correct	congruent	Block3	congruent/STIM_019.jpg
3196.939	0.679	correct	congruent	Block3	congruent/STIM_019.jpg
3200.384	0.54	correct	congruent	Block3	congruent/STIM_019.jpg
3203.113	0.782	correct	congruent	Block3	congruent/STIM_019.jpg
3206.369	0.507	correct	congruent	Block3	congruent/STIM_020.jpg
3210.373	0.749	correct	congruent	Block3	congruent/STIM_020.jpg
3214.353	0.579	correct	congruent	Block3	congruent/STIM_020.jpg
3218.14	0.69	correct	congruent	Block3	congruent/STIM_020.jpg
3221.352	0.729	correct	congruent	Block3	congruent/STIM_020.jpg
3225.456	0.717	correct	congruent	Block3	congruent/STIM_021.jpg
3228.389	0.726	correct	congruent	Block3	congruent/STIM_021.jpg
3232.188	0.809	correct	congruent	Block3	congruent/STIM_021.jpg
3236.368	0.654	correct	congruent	Block3	congruent/STIM_021.jpg
3239.57	0.747	correct	congruent	Block3	congruent/STIM_021.jpg
3243.667	0.499	correct	congruent	Block3	congruent/STIM_022.jpg
3247.071	0.677	correct	congruent	Block3	congruent/STIM_022.jpg
3251.028	0.533	correct	congruent	Block3	congruent/STIM_022.jpg
3254.863	0.593	correct	congruent	Block3	congruent/STIM_022.jpg
3259.202	0.515	correct	congruent	Block3	congruent/STIM_022.jpg
3262.925	0.731	correct	congruent	Block3	congruent/STIM_023.jpg
3267.43	0.647	correct	congruent	Block3	congruent/STIM_023.jpg
3270.171	0.694	correct	congruent	Block3	congruent/STIM_023.jpg
3274.808	0.562	correct	congruent	Block3	congruent/STIM_023.jpg
3278.745	0.831	correct	congruent	Block3	congruent/STIM_023.jpg
3282.488	0.739	incorrect	congruent	Block3	congruent/STIM_024.jpg
3286.738	0.518	correct	congruent	Block3	congruent/STIM_024.jpg
3290.07	0.557	correct	congruent	Block3	congruent/STIM_024.jpg
3294.521	0.74	correct	congruent	Block3	congruent/STIM_024.jpg
3299.237	0.835	correct	congruent	Block3	congruent/STIM_024.jpg
3302.481	0.9	correct	congruent	Block3	congruent/STIM_025.jpg
3305.967	0.882	incorrect	congruent	Block3	congruent/STIM_025.jpg
3310.241	0.616	correct	congruent	Block3	congruent/STIM_025.jpg
3313.425	0.925	correct	congruent	Block3	congruent/STIM_025.jpg
3318.13	0.532	correct	congruent	Block3	congruent/STIM_025.jpg
3321.666	0.624	correct	congruent	Block3	congruent/STIM_026.jpg
3324.488	0.603	correct	congruent	Block3	congruent/STIM_026.jpg
3328.109	0.7	correct	congruent	Block3	congruent/STIM_026.jpg
3332.637	0.546	correct	congruent	Block3	congruent/STIM_026.jpg
3336.06	0.555	correct	congruent	Block3	congruent/STIM_026.jpg
3339.802	0.776	correct	congruent	Block3	congruent/STIM_027.jpg
3344.341	0.746	correct	congruent	Block3	congruent/STIM_027.jpg
3348.512	0.756	correct	congruent	Block3	congruent/STIM_027.jpg
3351.886	0.545	correct	congruent	Block3	congruent/STIM_027.jpg
3355.836	0.844	correct	congruent	Block3	congruent/STIM_027.jpg
3359.827	0.702	correct	congruent	Block3	congruent/STIM_028.jpg
3364.103	0.808	correct	congruent	Block3	congruent/STIM_028.jpg
3368.24	0.644	correct	congruent	Block3	congruent/STIM_028.jpg
3372.306	0.618	correct	congruent	Block3	congruent/STIM_028.jpg
3374.992	0.862	correct	congruent	Block3	congruent/STIM_028.jpg
3379.264	0.624	incorrect	congruent	Block3	congruent/STIM_029.jpg
3383.776	0.503	correct	congruent	Block3	congruent/STIM_029.jpg
3386.371	0.816	correct	congruent	Block3	congruent/STIM_029.jpg
3390.155	0.802	correct	congruent	Block3	congruent/STIM_029.jpg
3393.577	0.769	correct	congruent	Block3	congruent/STIM_029.jpg
