onset	duration	response_time_ms	trial_type	learning_stage	stimulus	response_port
0.0	0.814	813.8	incongruent	Block1	incongruent/STIM_000.jpg	100
3.802	0.746	745.6	incongruent	Block1	incongruent/STIM_000.jpg	100
6.916	0.878	877.6	incongruent	Block1	incongruent/STIM_000.jpg	100
11.732	1.002	1002.5	incongruent	Block1	incongruent/STIM_000.jpg	100
16.54	0.881	881.2	incongruent	Block1	incongruent/STIM_000.jpg	99
19.673	1.287	1287.1	incongruent	Block1	incongruent/STIM_001.jpg	100
23.928	1.22	1219.5	incongruent	Block1	incongruent/STIM_001.jpg	100
27.707	0.788	787.8	incongruent	Block1	incongruent/STIM_001.jpg	99
30.536	1.105	1104.8	incongruent	Block1	incongruent/STIM_001.jpg	99
33.77	0.847	846.8	incongruent	Block1	incongruent/STIM_001.jpg	99
38.563	0.741	741.2	incongruent	Block1	incongruent/STIM_002.jpg	100
42.507	1.179	1179.3	incongruent	Block1	incongruent/STIM_002.jpg	99
45.921	0.7	699.7	incongruent	Block1	incongruent/STIM_002.jpg	100
50.33	0.773	773.1	incongruent	Block1	incongruent/STIM_002.jpg	100
54.609	0.937	936.8	incongruent	Block1	incongruent/STIM_002.jpg	100
59.008	1.154	1154.3	incongruent	Block1	incongruent/STIM_003.jpg	100
63.491	1.068	1068.4	incongruent	Block1	incongruent/STIM_003.jpg	100
67.358	1.271	1271.1	incongruent	Block1	incongruent/STIM_003.jpg	99
70.844	0.906	906.4	incongruent	Block1	incongruent/STIM_003.jpg	100
74.974	0.603	603.3	incongruent	Block1	incongruent/STIM_003.jpg	99
78.225	1.216	1215.7	incongruent	Block1	incongruent/STIM_004.jpg	100
83.433	1.127	1127.1	incongruent	Block1	incongruent/STIM_004.jpg	99
87.888	0.858	857.6	incongruent	Block1	incongruent/STIM_004.jpg	99
91.501	0.982	982.5	incongruent	Block1	incongruent/STIM_004.jpg	99
96.129	0.667	667.3	incongruent	Block1	incongruent/STIM_004.jpg	99
99.087	1.097	1097.2	incongruent	Block1	incongruent/STIM_005.jpg	100
102.964	0.644	643.9	incongruent	Block1	incongruent/STIM_005.jpg	99
107.06	1.255	1255.1	incongruent	Block1	incongruent/STIM_005.jpg	99
110.585	1.062	1061.6	incongruent	Block1	incongruent/STIM_005.jpg	99
114.926	0.689	688.8	incongruent	Block1	incongruent/STIM_005.jpg	99
118.728	1.312	1311.9	incongruent	Block1	incongruent/STIM_006.jpg	100
124.001	0.823	822.7	incongruent	Block1	incongruent/STIM_006.jpg	99
127.797	0.868	868.2	incongruent	Block1	incongruent/STIM_006.jpg	99
130.952	1.1	1099.6	incongruent	Block1	incongruent/STIM_006.jpg	99
135.481	0.669	669.4	incongruent	Block1	incongruent/STIM_006.jpg	100
139.779	1.078	1077.5	incongruent	Block1	incongruent/STIM_007.jpg	99
142.995	0.952	952.4	incongruent	Block1	incongruent/STIM_007.jpg	99
146.015	0.864	863.7	incongruent	Block1	incongruent/STIM_007.jpg	100
150.796	1.058	1057.9	incongruent	Block1	incongruent/STIM_007.jpg	99
154.398	0.704	703.9	incongruent	Block1	incongruent/STIM_007.jpg	100
158.108	0.895	895.1	incongruent	Block1	incongruent/STIM_008.jpg	99
162.704	1.059	1059.2	incongruent	Block1	incongruent/STIM_008.jpg	100
167.083	1.08	1079.6	incongruent	Block1	incongruent/STIM_008.jpg	99
171.5	1.038	1038.0	incongruent	Block1	incongruent/STIM_008.jpg	99
175.511	0.753	753.2	incongruent	Block1	incongruent/STIM_008.jpg	100
178.375	0.98	980.3	incongruent	Block1	incongruent/STIM_009.jpg	99
182.554	0.884	883.6	incongruent	Block1	incongruent/STIM_009.jpg	100
187.177	0.684	684.3	incongruent	Block1	incongruent/STIM_009.jpg	99
191.003	1.056	1055.6	incongruent	Block1	incongruent/STIM_009.jpg	99
195.476	1.146	1146.2	incongruent	Block1	incongruent/STIM_009.jpg	99
200.076	1.322	1321.7	incongruent	Block1	incongruent/STIM_010.jpg	100
204.422	0.694	694.4	incongruent	Block1	incongruent/STIM_010.jpg	99
208.117	0.935	934.7	incongruent	Block1	incongruent/STIM_010.jpg	100
212.931	0.687	687.4	incongruent	Block1	incongruent/STIM_010.jpg	100
216.341	1.088	1088.1	incongruent	Block1	incongruent/STIM_010.jpg	99
221.279	1.341	1340.9	incongruent	Block1	incongruent/STIM_011.jpg	100
225.12	1.211	1210.8	incongruent	Block1	incongruent/STIM_011.jpg	100
228.835	0.953	952.8	incongruent	Block1	incongruent/STIM_011.jpg	99
232.824	0.582	582.0	incongruent	Block1	incongruent/STIM_011.jpg	99
236.31	1.148	1148.2	incongruent	Block1	incongruent/STIM_011.jpg	99
239.503	1.084	1084.4	incongruent	Block1	incongruent/STIM_012.jpg	99
243.036	1.002	1002.1	incongruent	Block1	incongruent/STIM_012.jpg	100
246.141	0.931	930.7	incongruent	Block1	incongruent/STIM_012.jpg	100
249.955	0.587	586.6	incongruent	Block1	incongruent/STIM_012.jpg	99
252.697	0.851	851.2	incongruent	Block1	incongruent/STIM_012.jpg	99
255.743	1.222	1221.7	incongruent	Block1	incongruent/STIM_013.jpg	100
260.964	0.921	921.1	incongruent	Block1	incongruent/STIM_013.jpg	99
265.569	0.673	672.8	incongruent	Block1	incongruent/STIM_013.jpg	100
269.854	0.741	740.8	incongruent	Block1	incongruent/STIM_013.jpg	99
274.102	0.766	765.8	incongruent	Block1	incongruent/STIM_013.jpg	100
278.787	0.704	704.0	incongruent	Block1	incongruent/STIM_014.jpg	99
282.959	0.693	693.1	incongruent	Block1	incongruent/STIM_014.jpg	99
285.922	1.285	1284.8	incongruent	Block1	incongruent/STIM_014.jpg	100
289.815	0.692	692.3	incongruent	Block1	incongruent/STIM_014.jpg	99
293.491	0.552	552.4	incongruent	Block1	incongruent/STIM_014.jpg	99
297.977	0.874	874.1	incongruent	Block1	incongruent/STIM_015.jpg	100
301.065	1.188	1188.4	incongruent	Block1	incongruent/STIM_015.jpg	99
306.139	0.967	966.9	incongruent	Block1	incongruent/STIM_015.jpg	99
311.052	1.045	1045.0	incongruent	Block1	incongruent/STIM_015.jpg	99
314.643	1.107	1106.6	incongruent	Block1	incongruent/STIM_015.jpg	99
319.08	1.046	1045.5	incongruent	Block1	incongruent/STIM_016.jpg	100
323.423	1.357	1356.8	incongruent	Block1	incongruent/STIM_016.jpg	100
328.509	0.636	635.6	incongruent	Block1	incongruent/STIM_016.jpg	100
332.088	0.816	816.4	incongruent	Block1	incongruent/STIM_016.jpg	100
336.784	0.97	969.8	incongruent	Block1	incongruent/STIM_016.jpg	100
341.709	1.341	1340.9	incongruent	Block1	incongruent/STIM_017.jpg	100
346.507	1.303	1302.7	incongruent	Block1	incongruent/STIM_017.jpg	100
349.865	0.787	787.3	incongruent	Block1	incongruent/STIM_017.jpg	99
354.6	1.11	1109.6	incongruent	Block1	incongruent/STIM_017.jpg	100
359.669	0.735	734.9	incongruent	Block1	incongruent/STIM_017.jpg	99
362.697	1.375	1375.4	incongruent	Block1	incongruent/STIM_018.jpg	99
366.646	0.943	942.6	incongruent	Block1	incongruent/STIM_018.jpg	99
369.632	0.98	980.1	incongruent	Block1	incongruent/STIM_018.jpg	100
374.594	0.918	918.0	incongruent	Block1	incongruent/STIM_018.jpg	99
378.824	0.71	710.1	incongruent	Block1	incongruent/STIM_018.jpg	100
382.441	0.812	812.5	incongruent	Block1	incongruent/STIM_019.jpg	100
386.043	0.715	715.3	incongruent	Block1	incongruent/STIM_019.jpg	100
389.595	1.27	1269.7	incongruent	Block1	incongruent/STIM_019.jpg	100
394.21	0.961	961.4	incongruent	Block1	incongruent/STIM_019.jpg	100
398.724	0.564	563.8	incongruent	Block1	incongruent/STIM_019.jpg	99
402.946	1.325	1324.8	incongruent	Block1	incongruent/STIM_020.jpg	99
407.195	0.686	685.7	incongruent	Block1	incongruent/STIM_020.jpg	100
411.604	0.672	672.1	incongruent	Block1	incongruent/STIM_020.jpg	100
414.403	0.714	713.8	incongruent	Block1	incongruent/STIM_020.jpg	100
418.671	0.878	877.7	incongruent	Block1	incongruent/STIM_020.jpg	100
422.993	1.222	1222.3	incongruent	Block1	incongruent/STIM_021.jpg	99
427.324	0.807	807.2	incongruent	Block1	incongruent/STIM_021.jpg	100
431.547	0.835	835.3	incongruent	Block1	incongruent/STIM_021.jpg	100
434.896	0.996	995.5	incongruent	Block1	incongruent/STIM_021.jpg	100
438.759	0.607	607.2	incongruent	Block1	incongruent/STIM_021.jpg	100
443.175	1.05	1049.7	incongruent	Block1	incongruent/STIM_022.jpg	99
446.623	0.802	802.0	incongruent	Block1	incongruent/STIM_022.jpg	100
450.375	0.616	615.8	incongruent	Block1	incongruent/STIM_022.jpg	99
453.944	1.038	1037.8	incongruent	Block1	incongruent/STIM_022.jpg	99
458.898	1.055	1054.8	incongruent	Block1	incongruent/STIM_022.jpg	100
463.319	1.065	1064.9	incongruent	Block1	incongruent/STIM_023.jpg	99
467.821	0.91	909.6	incongruent	Block1	incongruent/STIM_023.jpg	100
471.459	0.765	764.7	incongruent	Block1	incongruent/STIM_023.jpg	99
475.977	0.655	655.1	incongruent	Block1	incongruent/STIM_023.jpg	100
479.056	0.601	601.2	incongruent	Block1	incongruent/STIM_023.jpg	99
482.131	1.135	1135.1	incongruent	Block1	incongruent/STIM_024.jpg	100
485.686	1.318	1318.2	incongruent	Block1	incongruent/STIM_024.jpg	99
489.134	0.728	728.2	incongruent	Block1	incongruent/STIM_024.jpg	100
492.587	1.055	1055.4	incongruent	Block1	incongruent/STIM_024.jpg	100
496.772	0.693	693.1	incongruent	Block1	incongruent/STIM_024.jpg	99
500.533	1.402	1401.9	incongruent	Block1	incongruent/STIM_025.jpg	100
504.034	0.729	728.8	incongruent	Block1	incongruent/STIM_025.jpg	100
508.298	0.633	632.7	incongruent	Block1	incongruent/STIM_025.jpg	99
511.592	1.175	1175.1	incongruent	Block1	incongruent/STIM_025.jpg	100
515.558	0.619	618.9	incongruent	Block1	incongruent/STIM_025.jpg	99
520.081	0.845	844.8	incongruent	Block1	incongruent/STIM_026.jpg	100
523.568	0.731	731.4	incongruent	Block1	incongruent/STIM_026.jpg	100
527.184	0.852	852.2	incongruent	Block1	incongruent/STIM_026.jpg	99
531.973	0.662	662.0	incongruent	Block1	incongruent/STIM_026.jpg	100
534.887	0.683	683.4	incongruent	Block1	incongruent/STIM_026.jpg	99
537.674	0.759	759.4	incongruent	Block1	incongruent/STIM_027.jpg	100
541.685	0.916	916.3	incongruent	Block1	incongruent/STIM_027.jpg	100
544.798	0.862	862.0	incongruent	Block1	incongruent/STIM_027.jpg	100
548.685	0.962	961.9	incongruent	Block1	incongruent/STIM_027.jpg	100
552.198	0.752	752.3	incongruent	Block1	incongruent/STIM_027.jpg	100
556.587	0.943	942.6	incongruent	Block1	incongruent/STIM_028.jpg	99
559.767	1.191	1191.0	incongruent	Block1	incongruent/STIM_028.jpg	99
563.039	1.286	1286.0	incongruent	Block1	incongruent/STIM_028.jpg	100
566.765	0.939	939.1	incongruent	Block1	incongruent/STIM_028.jpg	100
571.427	0.952	952.2	incongruent	Block1	incongruent/STIM_028.jpg	99
575.031	1.259	1258.6	incongruent	Block1	incongruent/STIM_029.jpg	100
578.901	1.101	1100.8	incongruent	Block1	incongruent/STIM_029.jpg	99
583.502	1.047	1047.3	incongruent	Block1	incongruent/STIM_029.jpg	99
587.679	0.93	929.9	incongruent	Block1	incongruent/STIM_029.jpg	99
591.645	0.886	886.1	incongruent	Block1	incongruent/STIM_029.jpg	99
595.93	0.836	835.5	congruent	Block1	congruent/STIM_000.jpg	100
599.866	0.698	698.3	congruent	Block1	congruent/STIM_000.jpg	99
604.07	0.541	541.0	congruent	Block1	congruent/STIM_000.jpg	99
607.073	0.795	794.6	congruent	Block1	congruent/STIM_000.jpg	100
611.476	0.648	648.1	congruent	Block1	congruent/STIM_000.jpg	99
615.373	0.761	761.3	congruent	Block1	congruent/STIM_001.jpg	100
619.437	0.789	788.9	congruent	Block1	congruent/STIM_001.jpg	99
622.263	0.629	629.4	congruent	Block1	congruent/STIM_001.jpg	99
625.278	0.776	776.1	congruent	Block1	congruent/STIM_001.jpg	100
630.043	0.548	548.2	congruent	Block1	congruent/STIM_001.jpg	99
634.451	0.524	524.0	congruent	Block1	congruent/STIM_002.jpg	100
638.591	0.768	768.2	congruent	Block1	congruent/STIM_002.jpg	99
642.28	0.525	525.0	congruent	Block1	congruent/STIM_002.jpg	100
644.837	0.77	769.9	congruent	Block1	congruent/STIM_002.jpg	100
648.543	0.71	710.1	congruent	Block1	congruent/STIM_002.jpg	99
653.149	0.743	743.0	congruent	Block1	congruent/STIM_003.jpg	100
656.706	0.698	698.3	congruent	Block1	congruent/STIM_003.jpg	99
659.687	0.508	508.4	congruent	Block1	congruent/STIM_003.jpg	100
663.585	0.64	639.8	congruent	Block1	congruent/STIM_003.jpg	100
666.695	0.736	735.7	congruent	Block1	congruent/STIM_003.jpg	100
671.028	0.54	539.7	congruent	Block1	congruent/STIM_004.jpg	100
674.49	0.79	790.2	congruent	Block1	congruent/STIM_004.jpg	100
678.62	0.679	679.0	congruent	Block1	congruent/STIM_004.jpg	100
682.729	0.786	786.0	congruent	Block1	congruent/STIM_004.jpg	100
687.385	0.613	612.9	congruent	Block1	congruent/STIM_004.jpg	100
690.682	0.523	523.2	congruent	Block1	congruent/STIM_005.jpg	99
694.908	0.632	631.5	congruent	Block1	congruent/STIM_005.jpg	100
698.352	0.596	595.5	congruent	Block1	congruent/STIM_005.jpg	99
702.049	0.654	654.1	congruent	Block1	congruent/STIM_005.jpg	100
705.588	0.735	734.6	congruent	Block1	congruent/STIM_005.jpg	99
708.409	0.645	645.2	congruent	Block1	congruent/STIM_006.jpg	99
711.818	0.854	854.3	congruent	Block1	congruent/STIM_006.jpg	99
715.154	0.487	486.9	congruent	Block1	congruent/STIM_006.jpg	99
718.157	0.802	801.6	congruent	Block1	congruent/STIM_006.jpg	99
722.179	0.509	508.7	congruent	Block1	congruent/STIM_006.jpg	100
725.173	0.782	782.5	congruent	Block1	congruent/STIM_007.jpg	100
728.312	0.841	840.6	congruent	Block1	congruent/STIM_007.jpg	99
731.635	0.838	837.7	congruent	Block1	congruent/STIM_007.jpg	100
735.393	0.647	647.0	congruent	Block1	congruent/STIM_007.jpg	100
739.119	0.817	817.2	congruent	Block1	congruent/STIM_007.jpg	99
743.648	0.771	771.0	congruent	Block1	congruent/STIM_008.jpg	100
746.752	0.622	622.0	congruent	Block1	congruent/STIM_008.jpg	99
750.182	0.775	774.8	congruent	Block1	congruent/STIM_008.jpg	100
752.99	0.569	568.9	congruent	Block1	congruent/STIM_008.jpg	100
755.724	0.553	553.2	congruent	Block1	congruent/STIM_008.jpg	100
759.565	0.727	727.2	congruent	Block1	congruent/STIM_009.jpg	100
764.228	0.784	784.0	congruent	Block1	congruent/STIM_009.jpg	100
767.926	0.53	529.8	congruent	Block1	congruent/STIM_009.jpg	99
771.626	0.633	632.7	congruent	Block1	congruent/STIM_009.jpg	100
774.646	0.728	727.6	congruent	Block1	congruent/STIM_009.jpg	100
778.773	0.788	788.0	congruent	Block1	congruent/STIM_010.jpg	100
782.781	0.711	710.7	congruent	Block1	congruent/STIM_010.jpg	99
786.013	0.76	759.6	congruent	Block1	congruent/STIM_010.jpg	99
790.69	0.838	837.5	congruent	Block1	congruent/STIM_010.jpg	99
793.753	0.612	611.6	congruent	Block1	congruent/STIM_010.jpg	100
798.12	0.67	669.7	congruent	Block1	congruent/STIM_011.jpg	99
800.847	0.792	792.2	congruent	Block1	congruent/STIM_011.jpg	99
805.476	0.537	537.3	congruent	Block1	congruent/STIM_011.jpg	99
809.03	0.49	489.9	congruent	Block1	congruent/STIM_011.jpg	100
812.99	0.592	591.7	congruent	Block1	congruent/STIM_011.jpg	99
816.423	0.546	546.2	congruent	Block1	congruent/STIM_012.jpg	100
820.149	0.528	528.2	congruent	Block1	congruent/STIM_012.jpg	99
822.867	0.699	699.2	congruent	Block1	congruent/STIM_012.jpg	100
826.274	0.776	776.4	congruent	Block1	congruent/STIM_012.jpg	100
829.694	0.602	602.0	congruent	Block1	congruent/STIM_012.jpg	100
832.387	0.861	860.7	congruent	Block1	congruent/STIM_013.jpg	100
835.599	0.622	621.7	congruent	Block1	congruent/STIM_013.jpg	99
839.46	0.591	590.6	congruent	Block1	congruent/STIM_013.jpg	99
843.334	0.521	520.6	congruent	Block1	congruent/STIM_013.jpg	100
846.311	0.551	551.0	congruent	Block1	congruent/STIM_013.jpg	99
849.215	0.673	673.1	congruent	Block1	congruent/STIM_014.jpg	99
853.206	0.564	564.0	congruent	Block1	congruent/STIM_014.jpg	99
857.373	0.827	826.7	congruent	Block1	congruent/STIM_014.jpg	100
861.042	0.669	668.8	congruent	Block1	congruent/STIM_014.jpg	100
865.318	0.7	699.7	congruent	Block1	congruent/STIM_014.jpg	100
868.059	0.708	707.7	congruent	Block1	congruent/STIM_015.jpg	100
871.295	0.632	631.7	congruent	Block1	congruent/STIM_015.jpg	100
875.457	0.864	863.7	congruent	Block1	congruent/STIM_015.jpg	100
879.317	0.59	590.1	congruent	Block1	congruent/STIM_015.jpg	99
883.653	0.606	605.6	congruent	Block1	congruent/STIM_015.jpg	99
886.556	0.772	772.4	congruent	Block1	congruent/STIM_016.jpg	100
890.024	0.747	747.1	congruent	Block1	congruent/STIM_016.jpg	100
893.981	0.856	855.8	congruent	Block1	congruent/STIM_016.jpg	99
898.381	0.812	812.1	congruent	Block1	congruent/STIM_016.jpg	100
902.976	0.631	630.9	congruent	Block1	congruent/STIM_016.jpg	99
906.028	0.825	825.0	congruent	Block1	congruent/STIM_017.jpg	99
910.398	0.589	589.2	congruent	Block1	congruent/STIM_017.jpg	99
913.569	0.628	628.1	congruent	Block1	congruent/STIM_017.jpg	100
917.147	0.639	639.1	congruent	Block1	congruent/STIM_017.jpg	99
921.66	0.529	529.0	congruent	Block1	congruent/STIM_017.jpg	100
924.234	0.61	609.6	congruent	Block1	congruent/STIM_018.jpg	100
928.264	0.559	558.7	congruent	Block1	congruent/STIM_018.jpg	100
932.212	0.777	777.3	congruent	Block1	congruent/STIM_018.jpg	99
936.552	0.747	746.6	congruent	Block1	congruent/STIM_018.jpg	99
940.709	0.615	615.2	congruent	Block1	congruent/STIM_018.jpg	100
944.288	0.576	576.3	congruent	Block1	congruent/STIM_019.jpg	99
948.005	0.529	528.8	congruent	Block1	congruent/STIM_019.jpg	99
951.969	0.832	831.5	congruent	Block1	congruent/STIM_019.jpg	99
956.474	0.815	814.9	congruent	Block1	congruent/STIM_019.jpg	99
959.506	0.622	621.5	congruent	Block1	congruent/STIM_019.jpg	100
962.413	0.835	834.6	congruent	Block1	congruent/STIM_020.jpg	100
966.203	0.768	768.0	congruent	Block1	congruent/STIM_020.jpg	100
970.782	0.561	561.0	congruent	Block1	congruent/STIM_020.jpg	100
974.993	0.491	491.4	congruent	Block1	congruent/STIM_020.jpg	100
978.917	0.85	849.9	congruent	Block1	congruent/STIM_020.jpg	99
982.401	0.682	682.4	congruent	Block1	congruent/STIM_021.jpg	99
986.117	0.623	622.8	congruent	Block1	congruent/STIM_021.jpg	100
989.398	0.838	838.1	congruent	Block1	congruent/STIM_021.jpg	100
993.472	0.574	574.5	congruent	Block1	congruent/STIM_021.jpg	100
997.197	0.651	650.6	congruent	Block1	congruent/STIM_021.jpg	100
1001.419	0.758	758.1	congruent	Block1	congruent/STIM_022.jpg	99
1005.494	0.832	831.6	congruent	Block1	congruent/STIM_022.jpg	99
1008.973	0.542	541.9	congruent	Block1	congruent/STIM_022.jpg	99
1011.689	0.777	776.6	congruent	Block1	congruent/STIM_022.jpg	100
1016.049	0.643	642.7	congruent	Block1	congruent/STIM_022.jpg	99
1020.498	0.696	696.1	congruent	Block1	congruent/STIM_023.jpg	100
1023.684	0.681	681.4	congruent	Block1	congruent/STIM_023.jpg	99
1028.055	0.742	742.3	congruent	Block1	congruent/STIM_023.jpg	99
1032.368	0.542	541.8	congruent	Block1	congruent/STIM_023.jpg	100
1035.247	0.83	830.2	congruent	Block1	congruent/STIM_023.jpg	100
1038.487	0.815	814.6	congruent	Block1	congruent/STIM_024.jpg	99
1042.608	0.603	602.6	congruent	Block1	congruent/STIM_024.jpg	99
1046.502	0.852	852.1	congruent	Block1	congruent/STIM_024.jpg	99
1049.609	0.516	515.5	congruent	Block1	congruent/STIM_024.jpg	100
1053.572	0.608	607.5	congruent	Block1	congruent/STIM_024.jpg	100
1057.258	0.54	539.9	congruent	Block1	congruent/STIM_025.jpg	99
1061.154	0.775	774.9	congruent	Block1	congruent/STIM_025.jpg	99
1063.937	0.847	846.6	congruent	Block1	congruent/STIM_025.jpg	99
1068.114	0.482	481.8	congruent	Block1	congruent/STIM_025.jpg	100
1070.957	0.853	852.6	congruent	Block1	congruent/STIM_025.jpg	99
1074.058	0.807	807.3	congruent	Block1	congruent/STIM_026.jpg	100
1077.317	0.668	668.4	congruent	Block1	congruent/STIM_026.jpg	100
1080.378	0.778	777.7	congruent	Block1	congruent/STIM_026.jpg	99
1084.552	0.486	486.0	congruent	Block1	congruent/STIM_026.jpg	99
1087.251	0.584	584.1	congruent	Block1	congruent/STIM_026.jpg	100
1090.867	0.496	496.4	congruent	Block1	congruent/STIM_027.jpg	100
1094.968	0.54	539.7	congruent	Block1	congruent/STIM_027.jpg	100
1098.687	0.595	595.4	congruent	Block1	congruent/STIM_027.jpg	99
1101.351	0.534	533.8	congruent	Block1	congruent/STIM_027.jpg	99
1104.173	0.542	541.7	congruent	Block1	congruent/STIM_027.jpg	99
1107.84	0.496	495.9	congruent	Block1	congruent/STIM_028.jpg	100
1111.291	0.557	557.2	congruent	Block1	congruent/STIM_028.jpg	100
1114.659	0.596	596.3	congruent	Block1	congruent/STIM_028.jpg	100
1119.213	0.754	754.2	congruent	Block1	congruent/STIM_028.jpg	100
1122.485	0.528	527.6	congruent	Block1	congruent/STIM_028.jpg	100
1125.13	0.553	553.4	congruent	Block1	congruent/STIM_029.jpg	99
1128.74	0.675	674.7	congruent	Block1	congruent/STIM_029.jpg	99
1133.062	0.68	680.4	congruent	Block1	congruent/STIM_029.jpg	100
1136.232	0.488	487.6	congruent	Block1	congruent/STIM_029.jpg	100
1139.673	0.838	838.4	congruent	Block1	congruent/STIM_029.jpg	99
1144.207	1.009	1009.2	incongruent	Block2	incongruent/STIM_000.jpg	100
1148.291	1.088	1087.9	incongruent	Block2	incongruent/STIM_000.jpg	100
1151.483	0.988	988.4	incongruent	Block2	incongruent/STIM_000.jpg	99
1156.462	0.805	804.6	incongruent	Block2	incongruent/STIM_000.jpg	100
1160.628	0.756	756.4	incongruent	Block2	incongruent/STIM_000.jpg	100
1165.348	0.964	963.8	incongruent	Block2	incongruent/STIM_001.jpg	100
1169.288	0.757	757.2	incongruent	Block2	incongruent/STIM_001.jpg	100
1172.838	0.586	586.3	incongruent	Block2	incongruent/STIM_001.jpg	99
1175.572	0.899	898.6	incongruent	Block2	incongruent/STIM_001.jpg	100
1178.916	0.654	654.5	incongruent	Block2	incongruent/STIM_001.jpg	99
1182.195	1.106	1105.7	incongruent	Block2	incongruent/STIM_002.jpg	99
1186.122	0.967	967.0	incongruent	Block2	incongruent/STIM_002.jpg	99
1189.333	0.626	626.0	incongruent	Block2	incongruent/STIM_002.jpg	99
1193.306	0.719	719.0	incongruent	Block2	incongruent/STIM_002.jpg	100
1196.796	0.758	757.9	incongruent	Block2	incongruent/STIM_002.jpg	100
1200.546	0.807	807.0	incongruent	Block2	incongruent/STIM_003.jpg	99
1205.223	0.83	830.4	incongruent	Block2	incongruent/STIM_003.jpg	99
1208.495	0.626	626.1	incongruent	Block2	incongruent/STIM_003.jpg	99
1211.455	0.622	622.4	incongruent	Block2	incongruent/STIM_003.jpg	99
1215.991	0.504	504.0	incongruent	Block2	incongruent/STIM_003.jpg	99
1219.296	0.735	735.4	incongruent	Block2	incongruent/STIM_004.jpg	100
1223.331	0.895	895.0	incongruent	Block2	incongruent/STIM_004.jpg	99
1227.071	0.859	858.9	incongruent	Block2	incongruent/STIM_004.jpg	100
1231.564	0.526	526.3	incongruent	Block2	incongruent/STIM_004.jpg	99
1235.55	0.581	581.3	incongruent	Block2	incongruent/STIM_004.jpg	100
1238.683	0.731	731.3	incongruent	Block2	incongruent/STIM_005.jpg	99
1242.687	0.584	583.8	incongruent	Block2	incongruent/STIM_005.jpg	100
1247.049	0.547	546.6	incongruent	Block2	incongruent/STIM_005.jpg	100
1249.654	0.978	978.0	incongruent	Block2	incongruent/STIM_005.jpg	99
1252.646	0.798	797.9	incongruent	Block2	incongruent/STIM_005.jpg	100
1255.621	0.956	956.3	incongruent	Block2	incongruent/STIM_006.jpg	99
1260.571	0.602	602.5	incongruent	Block2	incongruent/STIM_006.jpg	99
1264.704	0.636	636.3	incongruent	Block2	incongruent/STIM_006.jpg	100
1267.403	0.951	951.4	incongruent	Block2	incongruent/STIM_006.jpg	99
1272.294	0.603	603.4	incongruent	Block2	incongruent/STIM_006.jpg	99
1275.719	0.961	960.7	incongruent	Block2	incongruent/STIM_007.jpg	99
1280.356	1.116	1115.5	incongruent	Block2	incongruent/STIM_007.jpg	100
1283.524	0.663	663.1	incongruent	Block2	incongruent/STIM_007.jpg	99
1286.662	0.673	672.7	incongruent	Block2	incongruent/STIM_007.jpg	99
1291.06	0.844	844.5	incongruent	Block2	incongruent/STIM_007.jpg	100
1294.829	0.676	676.0	incongruent	Block2	incongruent/STIM_008.jpg	100
1299.073	0.738	738.5	incongruent	Block2	incongruent/STIM_008.jpg	100
1302.903	0.77	770.3	incongruent	Block2	incongruent/STIM_008.jpg	99
1307.171	0.615	615.2	incongruent	Block2	incongruent/STIM_008.jpg	100
1310.274	0.604	603.5	incongruent	Block2	incongruent/STIM_008.jpg	99
1314.292	0.711	710.8	incongruent	Block2	incongruent/STIM_009.jpg	100
1318.999	0.778	778.2	incongruent	Block2	incongruent/STIM_009.jpg	99
1321.88	0.935	934.9	incongruent	Block2	incongruent/STIM_009.jpg	100
1325.917	0.956	956.5	incongruent	Block2	incongruent/STIM_009.jpg	100
1329.91	0.663	663.3	incongruent	Block2	incongruent/STIM_009.jpg	100
1332.668	1.127	1127.1	incongruent	Block2	incongruent/STIM_010.jpg	99
1336.047	1.035	1035.3	incongruent	Block2	incongruent/STIM_010.jpg	99
1340.142	1.073	1072.9	incongruent	Block2	incongruent/STIM_010.jpg	99
1344.729	0.783	782.8	incongruent	Block2	incongruent/STIM_010.jpg	99
1348.345	0.824	824.2	incongruent	Block2	incongruent/STIM_010.jpg	99
1352.81	1.154	1154.1	incongruent	Block2	incongruent/STIM_011.jpg	99
1357.419	0.831	831.4	incongruent	Block2	incongruent/STIM_011.jpg	100
1361.264	0.615	614.9	incongruent	Block2	incongruent/STIM_011.jpg	99
1364.245	0.61	610.1	incongruent	Block2	incongruent/STIM_011.jpg	99
1368.768	0.869	869.4	incongruent	Block2	incongruent/STIM_011.jpg	100
1372.149	1.208	1207.8	incongruent	Block2	incongruent/STIM_012.jpg	99
1376.485	1.142	1141.8	incongruent	Block2	incongruent/STIM_012.jpg	99
1381.002	0.827	827.4	incongruent	Block2	incongruent/STIM_012.jpg	100
1385.681	0.729	728.9	incongruent	Block2	incongruent/STIM_012.jpg	99
1389.662	0.733	733.3	incongruent	Block2	incongruent/STIM_012.jpg	100
1393.006	0.772	771.8	incongruent	Block2	incongruent/STIM_013.jpg	99
1397.692	0.95	949.9	incongruent	Block2	incongruent/STIM_013.jpg	99
1401.372	0.9	899.5	incongruent	Block2	incongruent/STIM_013.jpg	99
1404.847	0.888	887.7	incongruent	Block2	incongruent/STIM_013.jpg	99
1408.938	0.673	673.3	incongruent	Block2	incongruent/STIM_013.jpg	99
1413.165	1.084	1083.6	incongruent	Block2	incongruent/STIM_014.jpg	100
1417.224	0.843	843.3	incongruent	Block2	incongruent/STIM_014.jpg	100
1421.261	0.688	688.0	incongruent	Block2	incongruent/STIM_014.jpg	100
1425.78	0.554	554.2	incongruent	Block2	incongruent/STIM_014.jpg	99
1428.668	0.808	807.5	incongruent	Block2	incongruent/STIM_014.jpg	99
1433.28	1.068	1068.0	incongruent	Block2	incongruent/STIM_015.jpg	99
1437.321	0.718	717.8	incongruent	Block2	incongruent/STIM_015.jpg	99
1441.138	0.631	630.8	incongruent	Block2	incongruent/STIM_015.jpg	100
1443.86	0.67	670.2	incongruent	Block2	incongruent/STIM_015.jpg	100
1446.772	0.775	775.1	incongruent	Block2	incongruent/STIM_015.jpg	99
1449.814	0.667	667.3	incongruent	Block2	incongruent/STIM_016.jpg	99
1454.419	0.551	550.9	incongruent	Block2	incongruent/STIM_016.jpg	100
1458.585	0.659	658.8	incongruent	Block2	incongruent/STIM_016.jpg	99
1462.105	0.79	790.1	incongruent	Block2	incongruent/STIM_016.jpg	100
1465.561	0.914	914.2	incongruent	Block2	incongruent/STIM_016.jpg	100
1469.45	1.162	1162.2	incongruent	Block2	incongruent/STIM_017.jpg	99
1473.014	0.603	603.3	incongruent	Block2	incongruent/STIM_017.jpg	100
1476.622	0.598	598.5	incongruent	Block2	incongruent/STIM_017.jpg	99
1480.345	0.679	679.3	incongruent	Block2	incongruent/STIM_017.jpg	99
1484.258	0.6	599.8	incongruent	Block2	incongruent/STIM_017.jpg	100
1486.998	0.645	645.2	incongruent	Block2	incongruent/STIM_018.jpg	99
1491.522	0.912	911.9	incongruent	Block2	incongruent/STIM_018.jpg	100
1495.637	0.658	657.9	incongruent	Block2	incongruent/STIM_018.jpg	99
1498.447	0.59	589.7	incongruent	Block2	incongruent/STIM_018.jpg	100
1502.519	0.616	616.0	incongruent	Block2	incongruent/STIM_018.jpg	100
1506.541	0.9	900.4	incongruent	Block2	incongruent/STIM_019.jpg	100
1510.825	1.145	1145.1	incongruent	Block2	incongruent/STIM_019.jpg	99
1515.88	0.775	775.4	incongruent	Block2	incongruent/STIM_019.jpg	100
1519.777	0.901	900.9	incongruent	Block2	incongruent/STIM_019.jpg	99
1523.601	0.78	779.7	incongruent	Block2	incongruent/STIM_019.jpg	100
1527.57	0.837	836.9	incongruent	Block2	incongruent/STIM_020.jpg	99
1532.37	0.642	642.0	incongruent	Block2	incongruent/STIM_020.jpg	100
1536.506	0.58	580.3	incongruent	Block2	incongruent/STIM_020.jpg	99
1540.861	0.638	638.0	incongruent	Block2	incongruent/STIM_020.jpg	99
1544.386	0.952	952.3	incongruent	Block2	incongruent/STIM_020.jpg	100
1547.631	1.194	1193.9	incongruent	Block2	incongruent/STIM_021.jpg	100
1552.694	0.572	572.4	incongruent	Block2	incongruent/STIM_021.jpg	99
1556.521	0.867	867.1	incongruent	Block2	incongruent/STIM_021.jpg	99
1560.941	0.779	779.3	incongruent	Block2	incongruent/STIM_021.jpg	100
1564.582	1.001	1000.9	incongruent	Block2	incongruent/STIM_021.jpg	99
1569.317	0.58	580.4	incongruent	Block2	incongruent/STIM_022.jpg	99
1572.87	0.614	614.3	incongruent	Block2	incongruent/STIM_022.jpg	100
1575.788	0.926	926.2	incongruent	Block2	incongruent/STIM_022.jpg	100
1578.722	0.987	987.0	incongruent	Block2	incongruent/STIM_022.jpg	99
1582.524	0.563	562.7	incongruent	Block2	incongruent/STIM_022.jpg	99
1586.509	1.204	1204.2	incongruent	Block2	incongruent/STIM_023.jpg	99
1591.018	0.549	548.9	incongruent	Block2	incongruent/STIM_023.jpg	99
1595.088	0.81	810.4	incongruent	Block2	incongruent/STIM_023.jpg	100
1599.68	0.986	986.0	incongruent	Block2	incongruent/STIM_023.jpg	100
1603.149	0.561	561.1	incongruent	Block2	incongruent/STIM_023.jpg	99
1605.732	0.76	759.6	incongruent	Block2	incongruent/STIM_024.jpg	100
1609.697	0.705	705.1	incongruent	Block2	incongruent/STIM_024.jpg	99
1613.352	0.937	937.3	incongruent	Block2	incongruent/STIM_024.jpg	99
1618.023	0.52	520.2	incongruent	Block2	incongruent/STIM_024.jpg	100
1620.779	0.988	988.0	incongruent	Block2	incongruent/STIM_024.jpg	99
1624.472	1.118	1118.5	incongruent	Block2	incongruent/STIM_025.jpg	99
1628.627	1.07	1070.0	incongruent	Block2	incongruent/STIM_025.jpg	100
1633.314	0.58	580.3	incongruent	Block2	incongruent/STIM_025.jpg	100
1637.302	0.51	509.6	incongruent	Block2	incongruent/STIM_025.jpg	100
1641.36	0.723	723.4	incongruent	Block2	incongruent/STIM_025.jpg	99
1644.243	0.872	871.7	incongruent	Block2	incongruent/STIM_026.jpg	99
1648.868	0.681	681.4	incongruent	Block2	incongruent/STIM_026.jpg	100
1653.222	0.674	674.2	incongruent	Block2	incongruent/STIM_026.jpg	99
1657.375	0.684	683.9	incongruent	Block2	incongruent/STIM_026.jpg	100
1661.185	0.69	690.4	incongruent	Block2	incongruent/STIM_026.jpg	99
1664.398	1.132	1131.9	incongruent	Block2	incongruent/STIM_027.jpg	100
1667.703	0.563	563.4	incongruent	Block2	incongruent/STIM_027.jpg	100
1671.104	1.023	1022.7	incongruent	Block2	incongruent/STIM_027.jpg	100
1675.404	0.512	511.7	incongruent	Block2	incongruent/STIM_027.jpg	99
1679.502	0.654	654.1	incongruent	Block2	incongruent/STIM_027.jpg	100
1682.189	0.589	588.8	incongruent	Block2	incongruent/STIM_028.jpg	99
1686.395	0.63	629.9	incongruent	Block2	incongruent/STIM_028.jpg	100
1690.096	0.893	893.1	incongruent	Block2	incongruent/STIM_028.jpg	99
1694.56	0.791	790.7	incongruent	Block2	incongruent/STIM_028.jpg	100
1698.46	0.69	690.1	incongruent	Block2	incongruent/STIM_028.jpg	99
1701.309	0.845	845.1	incongruent	Block2	incongruent/STIM_029.jpg	100
1704.44	0.831	830.8	incongruent	Block2	incongruent/STIM_029.jpg	100
1709.056	0.578	577.9	incongruent	Block2	incongruent/STIM_029.jpg	99
1713.557	0.865	864.6	incongruent	Block2	incongruent/STIM_029.jpg	100
1716.431	0.688	688.1	incongruent	Block2	incongruent/STIM_029.jpg	99
1720.362	0.624	623.8	congruent	Block2	congruent/STIM_000.jpg	100
1724.291	0.804	803.6	congruent	Block2	congruent/STIM_000.jpg	100
1727.579	0.685	685.2	congruent	Block2	congruent/STIM_000.jpg	99
1731.712	0.612	612.0	congruent	Block2	congruent/STIM_000.jpg	99
1736.039	0.643	643.2	congruent	Block2	congruent/STIM_000.jpg	100
1739.693	0.487	487.1	congruent	Block2	congruent/STIM_001.jpg	99
1742.881	0.567	567.0	congruent	Block2	congruent/STIM_001.jpg	99
1746.758	0.721	721.0	congruent	Block2	congruent/STIM_001.jpg	100
1750.277	0.764	763.6	congruent	Block2	congruent/STIM_001.jpg	99
1754.812	0.576	575.9	congruent	Block2	congruent/STIM_001.jpg	99
1757.881	0.53	529.7	congruent	Block2	congruent/STIM_002.jpg	99
1760.683	0.491	491.1	congruent	Block2	congruent/STIM_002.jpg	100
1763.495	0.841	841.3	congruent	Block2	congruent/STIM_002.jpg	100
1766.81	0.645	645.3	congruent	Block2	congruent/STIM_002.jpg	100
1770.746	0.81	809.5	congruent	Block2	congruent/STIM_002.jpg	99
1773.657	0.711	711.3	congruent	Block2	congruent/STIM_003.jpg	100
1777.031	0.5	500.2	congruent	Block2	congruent/STIM_003.jpg	99
1781.342	0.559	559.4	congruent	Block2	congruent/STIM_003.jpg	99
1784.674	0.609	609.1	congruent	Block2	congruent/STIM_003.jpg	100
1787.314	0.516	516.1	congruent	Block2	congruent/STIM_003.jpg	100
1789.914	0.844	843.9	congruent	Block2	congruent/STIM_004.jpg	100
1794.278	0.647	646.9	congruent	Block2	congruent/STIM_004.jpg	99
1797.294	0.796	796.0	congruent	Block2	congruent/STIM_004.jpg	100
1801.452	0.739	739.1	congruent	Block2	congruent/STIM_004.jpg	100
1805.576	0.859	859.4	congruent	Block2	congruent/STIM_004.jpg	99
1808.844	0.576	576.5	congruent	Block2	congruent/STIM_005.jpg	99
1812.879	0.578	578.0	congruent	Block2	congruent/STIM_005.jpg	99
1817.452	0.835	835.4	congruent	Block2	congruent/STIM_005.jpg	100
1821.842	0.732	732.4	congruent	Block2	congruent/STIM_005.jpg	100
1824.787	0.855	854.9	congruent	Block2	congruent/STIM_005.jpg	100
1829.034	0.79	790.4	congruent	Block2	congruent/STIM_006.jpg	99
1833.433	0.78	779.7	congruent	Block2	congruent/STIM_006.jpg	99
1836.262	0.748	748.5	congruent	Block2	congruent/STIM_006.jpg	100
1839.458	0.651	650.6	congruent	Block2	congruent/STIM_006.jpg	99
1843.555	0.734	733.5	congruent	Block2	congruent/STIM_006.jpg	100
1846.866	0.518	517.7	congruent	Block2	congruent/STIM_007.jpg	100
1849.61	0.633	633.1	congruent	Block2	congruent/STIM_007.jpg	100
1852.961	0.483	483.1	congruent	Block2	congruent/STIM_007.jpg	99
1856.387	0.481	481.4	congruent	Block2	congruent/STIM_007.jpg	100
1859.205	0.541	541.1	congruent	Block2	congruent/STIM_007.jpg	99
1862.479	0.807	806.9	congruent	Block2	congruent/STIM_008.jpg	99
1866.967	0.858	857.5	congruent	Block2	congruent/STIM_008.jpg	100
1870.005	0.831	831.2	congruent	Block2	congruent/STIM_008.jpg	99
1874.693	0.582	582.0	congruent	Block2	congruent/STIM_008.jpg	99
1878.14	0.716	715.9	congruent	Block2	congruent/STIM_008.jpg	100
1882.63	0.755	755.2	congruent	Block2	congruent/STIM_009.jpg	100
1886.155	0.815	814.6	congruent	Block2	congruent/STIM_009.jpg	100
1890.217	0.531	530.6	congruent	Block2	congruent/STIM_009.jpg	99
1893.119	0.642	641.6	congruent	Block2	congruent/STIM_009.jpg	99
1897.383	0.615	615.4	congruent	Block2	congruent/STIM_009.jpg	100
1901.533	0.694	693.5	congruent	Block2	congruent/STIM_010.jpg	99
1905.265	0.658	658.1	congruent	Block2	congruent/STIM_010.jpg	100
1909.269	0.746	746.1	congruent	Block2	congruent/STIM_010.jpg	100
1913.726	0.598	597.9	congruent	Block2	congruent/STIM_010.jpg	99
1916.621	0.625	624.8	congruent	Block2	congruent/STIM_010.jpg	100
1920.184	0.523	522.8	congruent	Block2	congruent/STIM_011.jpg	100
1923.495	0.742	742.2	congruent	Block2	congruent/STIM_011.jpg	99
1928.082	0.709	708.9	congruent	Block2	congruent/STIM_011.jpg	99
1931.374	0.601	601.3	congruent	Block2	congruent/STIM_011.jpg	99
1934.857	0.567	567.2	congruent	Block2	congruent/STIM_011.jpg	100
1938.901	0.623	623.3	congruent	Block2	congruent/STIM_012.jpg	99
1943.338	0.533	533.2	congruent	Block2	congruent/STIM_012.jpg	100
1947.173	0.6	599.5	congruent	Block2	congruent/STIM_012.jpg	99
1951.598	0.598	597.9	congruent	Block2	congruent/STIM_012.jpg	100
1955.946	0.5	500.1	congruent	Block2	congruent/STIM_012.jpg	100
1959.768	0.823	823.1	congruent	Block2	congruent/STIM_013.jpg	99
1963.62	0.748	747.7	congruent	Block2	congruent/STIM_013.jpg	99
1967.216	0.814	813.5	congruent	Block2	congruent/STIM_013.jpg	100
1971.187	0.567	566.7	congruent	Block2	congruent/STIM_013.jpg	100
1974.226	0.826	825.5	congruent	Block2	congruent/STIM_013.jpg	99
1977.142	0.632	632.3	congruent	Block2	congruent/STIM_014.jpg	99
1980.303	0.864	863.8	congruent	Block2	congruent/STIM_014.jpg	99
1983.876	0.552	551.8	congruent	Block2	congruent/STIM_014.jpg	100
1988.397	0.505	505.1	congruent	Block2	congruent/STIM_014.jpg	99
1991.638	0.671	671.4	congruent	Block2	congruent/STIM_014.jpg	99
1995.092	0.835	835.2	congruent	Block2	congruent/STIM_015.jpg	100
1998.015	0.792	791.8	congruent	Block2	congruent/STIM_015.jpg	99
2002.373	0.502	501.8	congruent	Block2	congruent/STIM_015.jpg	100
2006.689	0.588	588.3	congruent	Block2	congruent/STIM_015.jpg	99
2009.69	0.825	824.8	congruent	Block2	congruent/STIM_015.jpg	100
2013.545	0.576	576.2	congruent	Block2	congruent/STIM_016.jpg	99
2017.477	0.619	619.1	congruent	Block2	congruent/STIM_016.jpg	100
2020.768	0.706	706.4	congruent	Block2	congruent/STIM_016.jpg	100
2024.276	0.858	858.4	congruent	Block2	congruent/STIM_016.jpg	99
2028.742	0.605	604.8	congruent	Block2	congruent/STIM_016.jpg	100
2031.437	0.482	482.4	congruent	Block2	congruent/STIM_017.jpg	99
2034.27	0.658	658.2	congruent	Block2	congruent/STIM_017.jpg	99
2037.429	0.584	584.1	congruent	Block2	congruent/STIM_017.jpg	100
2040.89	0.844	844.0	congruent	Block2	congruent/STIM_017.jpg	100
2044.395	0.727	726.8	congruent	Block2	congruent/STIM_017.jpg	99
2047.946	0.698	698.1	congruent	Block2	congruent/STIM_018.jpg	99
2051.669	0.55	549.9	congruent	Block2	congruent/STIM_018.jpg	99
2054.574	0.637	636.8	congruent	Block2	congruent/STIM_018.jpg	99
2059.179	0.584	584.1	congruent	Block2	congruent/STIM_018.jpg	99
2063.06	0.81	809.8	congruent	Block2	congruent/STIM_018.jpg	100
2067.024	0.562	562.3	congruent	Block2	congruent/STIM_019.jpg	100
2069.714	0.74	739.9	congruent	Block2	congruent/STIM_019.jpg	100
2073.229	0.632	632.5	congruent	Block2	congruent/STIM_019.jpg	99
2076.083	0.77	770.2	congruent	Block2	congruent/STIM_019.jpg	99
2080.065	0.725	725.0	congruent	Block2	congruent/STIM_019.jpg	100
2083.994	0.546	546.2	congruent	Block2	congruent/STIM_020.jpg	99
2086.742	0.576	575.7	congruent	Block2	congruent/STIM_020.jpg	99
2090.43	0.59	589.5	congruent	Block2	congruent/STIM_020.jpg	99
2094.627	0.6	599.6	congruent	Block2	congruent/STIM_020.jpg	100
2098.87	0.838	838.1	congruent	Block2	congruent/STIM_020.jpg	100
2101.872	0.795	795.3	congruent	Block2	congruent/STIM_021.jpg	99
2106.385	0.656	656.0	congruent	Block2	congruent/STIM_021.jpg	100
2110.976	0.659	659.1	congruent	Block2	congruent/STIM_021.jpg	100
2115.067	0.695	695.3	congruent	Block2	congruent/STIM_021.jpg	99
2118.848	0.832	832.2	congruent	Block2	congruent/STIM_021.jpg	99
2121.926	0.527	526.7	congruent	Block2	congruent/STIM_022.jpg	99
2126.307	0.534	533.9	congruent	Block2	congruent/STIM_022.jpg	99
2130.419	0.684	683.8	congruent	Block2	congruent/STIM_022.jpg	99
2133.665	0.614	614.0	congruent	Block2	congruent/STIM_022.jpg	100
2137.499	0.574	573.7	congruent	Block2	congruent/STIM_022.jpg	100
2141.8	0.595	595.1	congruent	Block2	congruent/STIM_023.jpg	99
2145.824	0.761	760.8	congruent	Block2	congruent/STIM_023.jpg	100
2149.261	0.568	568.4	congruent	Block2	congruent/STIM_023.jpg	99
2151.983	0.55	549.6	congruent	Block2	congruent/STIM_023.jpg	100
2154.616	0.537	536.6	congruent	Block2	congruent/STIM_023.jpg	100
2158.994	0.784	783.8	congruent	Block2	congruent/STIM_024.jpg	99
2163.739	0.756	755.6	congruent	Block2	congruent/STIM_024.jpg	99
2167.184	0.71	710.1	congruent	Block2	congruent/STIM_024.jpg	100
2171.126	0.711	710.6	congruent	Block2	congruent/STIM_024.jpg	99
2174.639	0.515	515.3	congruent	Block2	congruent/STIM_024.jpg	99
2177.5	0.714	713.5	congruent	Block2	congruent/STIM_025.jpg	99
2180.991	0.722	722.5	congruent	Block2	congruent/STIM_025.jpg	99
2184.845	0.629	628.8	congruent	Block2	congruent/STIM_025.jpg	99
2188.789	0.601	601.2	congruent	Block2	congruent/STIM_025.jpg	99
2192.845	0.756	756.2	congruent	Block2	congruent/STIM_025.jpg	99
2196.376	0.666	666.4	congruent	Block2	congruent/STIM_026.jpg	100
2200.987	0.72	720.4	congruent	Block2	congruent/STIM_026.jpg	100
2205.149	0.579	578.8	congruent	Block2	congruent/STIM_026.jpg	100
2208.576	0.483	482.8	congruent	Block2	congruent/STIM_026.jpg	99
2212.546	0.75	749.5	congruent	Block2	congruent/STIM_026.jpg	99
2215.961	0.602	601.7	congruent	Block2	congruent/STIM_027.jpg	100
2218.625	0.515	515.4	congruent	Block2	congruent/STIM_027.jpg	99
2222.704	0.683	683.1	congruent	Block2	congruent/STIM_027.jpg	100
2226.763	0.669	669.1	congruent	Block2	congruent/STIM_027.jpg	99
2230.354	0.629	628.7	congruent	Block2	congruent/STIM_027.jpg	100
2234.343	0.578	577.6	congruent	Block2	congruent/STIM_028.jpg	100
2238.753	0.809	808.7	congruent	Block2	congruent/STIM_028.jpg	99
2242.945	0.6	600.4	congruent	Block2	congruent/STIM_028.jpg	100
2247.022	0.747	747.3	congruent	Block2	congruent/STIM_028.jpg	100
2249.997	0.655	655.4	congruent	Block2	congruent/STIM_028.jpg	99
2254.052	0.586	585.5	congruent	Block2	congruent/STIM_029.jpg	100
2256.733	0.66	659.8	congruent	Block2	congruent/STIM_029.jpg	99
2261.39	0.731	731.0	congruent	Block2	congruent/STIM_029.jpg	100
2265.376	0.635	635.3	congruent	Block2	congruent/STIM_029.jpg	100
2268.477	0.551	550.6	congruent	Block2	congruent/STIM_029.jpg	100
2272.906	0.606	605.9	incongruent	Block3	incongruent/STIM_000.jpg	100
2275.71	0.6	599.7	incongruent	Block3	incongruent/STIM_000.jpg	99
2279.327	0.906	906.3	incongruent	Block3	incongruent/STIM_000.jpg	99
2283.13	0.909	909.3	incongruent	Block3	incongruent/STIM_000.jpg	99
2287.332	0.714	714.1	incongruent	Block3	incongruent/STIM_000.jpg	100
2291.247	0.83	830.2	incongruent	Block3	incongruent/STIM_001.jpg	99
2295.014	0.514	514.5	incongruent	Block3	incongruent/STIM_001.jpg	100
2298.005	0.556	556.1	incongruent	Block3	incongruent/STIM_001.jpg	99
2300.856	0.478	477.6	incongruent	Block3	incongruent/STIM_001.jpg	99
2303.777	0.766	765.9	incongruent	Block3	incongruent/STIM_001.jpg	99
2307.904	0.983	983.3	incongruent	Block3	incongruent/STIM_002.jpg	99
2311.533	0.704	703.8	incongruent	Block3	incongruent/STIM_002.jpg	99
2315.581	1.0	999.7	incongruent	Block3	incongruent/STIM_002.jpg	99
2319.366	0.725	724.7	incongruent	Block3	incongruent/STIM_002.jpg	100
2323.017	0.732	732.1	incongruent	Block3	incongruent/STIM_002.jpg	99
2326.633	0.685	684.7	incongruent	Block3	incongruent/STIM_003.jpg	100
2330.421	0.484	484.2	incongruent	Block3	incongruent/STIM_003.jpg	100
2334.335	0.766	766.5	incongruent	Block3	incongruent/STIM_003.jpg	100
2338.181	0.832	832.3	incongruent	Block3	incongruent/STIM_003.jpg	100
2341.474	0.55	550.0	incongruent	Block3	incongruent/STIM_003.jpg	100
2344.232	0.606	606.4	incongruent	Block3	incongruent/STIM_004.jpg	99
2347.631	0.861	861.4	incongruent	Block3	incongruent/STIM_004.jpg	100
2350.527	0.995	995.0	incongruent	Block3	incongruent/STIM_004.jpg	99
2355.089	0.642	641.8	incongruent	Block3	incongruent/STIM_004.jpg	100
2358.977	0.966	965.8	incongruent	Block3	incongruent/STIM_004.jpg	100
2363.208	0.65	649.9	incongruent	Block3	incongruent/STIM_005.jpg	100
2366.032	0.524	523.7	incongruent	Block3	incongruent/STIM_005.jpg	100
2370.246	0.826	825.6	incongruent	Block3	incongruent/STIM_005.jpg	99
2374.659	0.728	728.5	incongruent	Block3	incongruent/STIM_005.jpg	100
2379.213	0.715	714.8	incongruent	Block3	incongruent/STIM_005.jpg	100
2383.054	0.837	836.6	incongruent	Block3	incongruent/STIM_006.jpg	99
2387.156	0.878	878.1	incongruent	Block3	incongruent/STIM_006.jpg	100
2390.097	0.793	792.9	incongruent	Block3	incongruent/STIM_006.jpg	100
2393.42	0.724	724.0	incongruent	Block3	incongruent/STIM_006.jpg	100
2397.051	0.813	812.6	incongruent	Block3	incongruent/STIM_006.jpg	100
2401.832	0.877	877.0	incongruent	Block3	incongruent/STIM_007.jpg	99
2405.067	0.92	919.5	incongruent	Block3	incongruent/STIM_007.jpg	99
2409.064	0.788	788.4	incongruent	Block3	incongruent/STIM_007.jpg	99
2412.943	0.722	721.8	incongruent	Block3	incongruent/STIM_007.jpg	100
2416.13	0.949	948.6	incongruent	Block3	incongruent/STIM_007.jpg	99
2420.973	0.983	983.2	incongruent	Block3	incongruent/STIM_008.jpg	99
2425.366	0.803	803.2	incongruent	Block3	incongruent/STIM_008.jpg	99
2429.413	0.759	759.1	incongruent	Block3	incongruent/STIM_008.jpg	99
2433.677	0.519	518.7	incongruent	Block3	incongruent/STIM_008.jpg	99
2437.288	0.963	962.8	incongruent	Block3	incongruent/STIM_008.jpg	100
2440.283	0.63	630.3	incongruent	Block3	incongruent/STIM_009.jpg	100
2443.437	1.005	1004.8	incongruent	Block3	incongruent/STIM_009.jpg	99
2447.068	0.936	936.4	incongruent	Block3	incongruent/STIM_009.jpg	100
2451.23	0.54	539.5	incongruent	Block3	incongruent/STIM_009.jpg	100
2455.467	0.728	727.5	incongruent	Block3	incongruent/STIM_009.jpg	100
2459.713	0.683	683.3	incongruent	Block3	incongruent/STIM_010.jpg	100
2462.482	0.849	848.7	incongruent	Block3	incongruent/STIM_010.jpg	99
2466.149	0.652	651.9	incongruent	Block3	incongruent/STIM_010.jpg	99
2469.482	0.59	589.9	incongruent	Block3	incongruent/STIM_010.jpg	100
2474.029	0.496	496.2	incongruent	Block3	incongruent/STIM_010.jpg	100
2476.971	0.544	543.5	incongruent	Block3	incongruent/STIM_011.jpg	100
2479.568	0.877	877.4	incongruent	Block3	incongruent/STIM_011.jpg	100
2483.793	0.842	842.4	incongruent	Block3	incongruent/STIM_011.jpg	100
2486.642	0.548	548.1	incongruent	Block3	incongruent/STIM_011.jpg	100
2489.324	0.587	587.3	incongruent	Block3	incongruent/STIM_011.jpg	100
2492.008	0.588	588.0	incongruent	Block3	incongruent/STIM_012.jpg	99
2495.127	0.895	894.8	incongruent	Block3	incongruent/STIM_012.jpg	100
2498.217	0.645	644.8	incongruent	Block3	incongruent/STIM_012.jpg	99
2501.278	0.587	587.1	incongruent	Block3	incongruent/STIM_012.jpg	100
2504.191	0.519	519.3	incongruent	Block3	incongruent/STIM_012.jpg	100
2508.005	0.919	919.2	incongruent	Block3	incongruent/STIM_013.jpg	99
2510.952	0.812	812.3	incongruent	Block3	incongruent/STIM_013.jpg	100
2513.851	0.828	828.1	incongruent	Block3	incongruent/STIM_013.jpg	100
2518.375	0.632	631.5	incongruent	Block3	incongruent/STIM_013.jpg	100
2521.276	1.002	1001.6	incongruent	Block3	incongruent/STIM_013.jpg	100
2526.004	0.892	892.1	incongruent	Block3	incongruent/STIM_014.jpg	99
2529.069	0.972	972.5	incongruent	Block3	incongruent/STIM_014.jpg	100
2532.107	0.56	560.3	incongruent	Block3	incongruent/STIM_014.jpg	100
2534.887	0.755	754.7	incongruent	Block3	incongruent/STIM_014.jpg	99
2538.626	0.776	776.2	incongruent	Block3	incongruent/STIM_014.jpg	100
2541.77	0.485	485.4	incongruent	Block3	incongruent/STIM_015.jpg	99
2545.785	0.938	938.5	incongruent	Block3	incongruent/STIM_015.jpg	99
2550.255	0.692	692.2	incongruent	Block3	incongruent/STIM_015.jpg	100
2554.944	0.817	817.2	incongruent	Block3	incongruent/STIM_015.jpg	99
2559.544	0.782	781.6	incongruent	Block3	incongruent/STIM_015.jpg	100
2563.8	0.549	549.1	incongruent	Block3	incongruent/STIM_016.jpg	99
2567.912	0.473	473.4	incongruent	Block3	incongruent/STIM_016.jpg	100
2570.404	0.7	700.4	incongruent	Block3	incongruent/STIM_016.jpg	100
2573.463	0.718	717.8	incongruent	Block3	incongruent/STIM_016.jpg	100
2577.617	0.966	966.2	incongruent	Block3	incongruent/STIM_016.jpg	99
2581.461	0.816	816.0	incongruent	Block3	incongruent/STIM_017.jpg	99
2585.742	0.737	737.4	incongruent	Block3	incongruent/STIM_017.jpg	100
2588.977	0.607	606.6	incongruent	Block3	incongruent/STIM_017.jpg	100
2593.116	0.838	837.7	incongruent	Block3	incongruent/STIM_017.jpg	100
2597.883	0.86	860.4	incongruent	Block3	incongruent/STIM_017.jpg	100
2602.233	0.579	578.8	incongruent	Block3	incongruent/STIM_018.jpg	99
2606.669	0.852	852.1	incongruent	Block3	incongruent/STIM_018.jpg	100
2609.747	0.606	605.7	incongruent	Block3	incongruent/STIM_018.jpg	99
2614.21	0.996	995.7	incongruent	Block3	incongruent/STIM_018.jpg	100
2617.988	0.77	769.5	incongruent	Block3	incongruent/STIM_018.jpg	100
2622.571	0.832	831.8	incongruent	Block3	incongruent/STIM_019.jpg	100
2625.626	0.527	526.7	incongruent	Block3	incongruent/STIM_019.jpg	99
2628.841	0.554	553.5	incongruent	Block3	incongruent/STIM_019.jpg	99
2633.075	0.792	791.9	incongruent	Block3	incongruent/STIM_019.jpg	99
2636.658	0.915	914.8	incongruent	Block3	incongruent/STIM_019.jpg	100
2641.479	0.758	758.0	incongruent	Block3	incongruent/STIM_020.jpg	99
2645.305	0.6	600.4	incongruent	Block3	incongruent/STIM_020.jpg	100
2649.175	0.573	573.2	incongruent	Block3	incongruent/STIM_020.jpg	99
2653.367	0.808	808.3	incongruent	Block3	incongruent/STIM_020.jpg	99
2656.823	0.784	784.4	incongruent	Block3	incongruent/STIM_020.jpg	99
2661.555	0.66	659.5	incongruent	Block3	incongruent/STIM_021.jpg	99
2664.392	0.896	895.8	incongruent	Block3	incongruent/STIM_021.jpg	99
2667.744	0.838	838.3	incongruent	Block3	incongruent/STIM_021.jpg	99
2671.604	0.799	798.6	incongruent	Block3	incongruent/STIM_021.jpg	99
2675.69	0.958	958.4	incongruent	Block3	incongruent/STIM_021.jpg	99
2680.519	0.838	838.0	incongruent	Block3	incongruent/STIM_022.jpg	99
2684.089	0.538	538.2	incongruent	Block3	incongruent/STIM_022.jpg	100
2687.428	0.733	733.1	incongruent	Block3	incongruent/STIM_022.jpg	99
2690.187	0.839	838.8	incongruent	Block3	incongruent/STIM_022.jpg	99
2693.877	0.74	740.4	incongruent	Block3	incongruent/STIM_022.jpg	99
2696.88	0.987	986.6	incongruent	Block3	incongruent/STIM_023.jpg	100
2700.03	0.531	530.8	incongruent	Block3	incongruent/STIM_023.jpg	100
2703.539	0.623	623.4	incongruent	Block3	incongruent/STIM_023.jpg	100
2707.876	0.489	489.2	incongruent	Block3	incongruent/STIM_023.jpg	100
2712.096	1.001	1000.8	incongruent	Block3	incongruent/STIM_023.jpg	100
2716.232	0.569	569.4	incongruent	Block3	incongruent/STIM_024.jpg	100
2720.085	0.598	598.5	incongruent	Block3	incongruent/STIM_024.jpg	99
2724.085	0.779	779.1	incongruent	Block3	incongruent/STIM_024.jpg	99
2728.484	0.661	660.9	incongruent	Block3	incongruent/STIM_024.jpg	99
2731.74	1.003	1003.2	incongruent	Block3	incongruent/STIM_024.jpg	99
2735.859	0.6	599.9	incongruent	Block3	incongruent/STIM_025.jpg	100
2739.945	1.004	1003.6	incongruent	Block3	incongruent/STIM_025.jpg	100
2743.039	0.527	527.0	incongruent	Block3	incongruent/STIM_025.jpg	100
2747.309	0.66	659.5	incongruent	Block3	incongruent/STIM_025.jpg	100
2751.828	0.679	678.6	incongruent	Block3	incongruent/STIM_025.jpg	99
2755.007	0.562	562.2	incongruent	Block3	incongruent/STIM_026.jpg	100
2759.291	1.004	1004.3	incongruent	Block3	incongruent/STIM_026.jpg	99
2762.497	0.547	546.8	incongruent	Block3	incongruent/STIM_026.jpg	99
2766.877	0.842	841.9	incongruent	Block3	incongruent/STIM_026.jpg	100
2769.946	0.796	795.9	incongruent	Block3	incongruent/STIM_026.jpg	99
2774.293	0.772	772.3	incongruent	Block3	incongruent/STIM_027.jpg	100
2778.624	0.714	714.5	incongruent	Block3	incongruent/STIM_027.jpg	100
2782.221	0.987	987.3	incongruent	Block3	incongruent/STIM_027.jpg	99
2785.888	0.87	870.3	incongruent	Block3	incongruent/STIM_027.jpg	99
2790.087	0.563	562.7	incongruent	Block3	incongruent/STIM_027.jpg	99
2792.779	0.646	646.3	incongruent	Block3	incongruent/STIM_028.jpg	99
2797.114	1.007	1007.2	incongruent	Block3	incongruent/STIM_028.jpg	99
2801.17	0.946	946.1	incongruent	Block3	incongruent/STIM_028.jpg	99
2805.506	0.948	947.7	incongruent	Block3	incongruent/STIM_028.jpg	100
2808.773	0.481	480.7	incongruent	Block3	incongruent/STIM_028.jpg	100
2812.461	0.979	978.9	incongruent	Block3	incongruent/STIM_029.jpg	99
2816.831	0.611	610.9	incongruent	Block3	incongruent/STIM_029.jpg	100
2820.007	0.773	773.1	incongruent	Block3	incongruent/STIM_029.jpg	99
2824.707	0.62	620.1	incongruent	Block3	incongruent/STIM_029.jpg	99
2828.456	0.814	813.6	incongruent	Block3	incongruent/STIM_029.jpg	100
2832.967	0.815	815.0	congruent	Block3	congruent/STIM_000.jpg	100
2837.418	0.626	626.1	congruent	Block3	congruent/STIM_000.jpg	99
2841.515	0.547	546.6	congruent	Block3	congruent/STIM_000.jpg	100
2844.502	0.579	579.2	congruent	Block3	congruent/STIM_000.jpg	100
2847.574	0.554	553.7	congruent	Block3	congruent/STIM_000.jpg	99
2852.045	0.808	807.7	congruent	Block3	congruent/STIM_001.jpg	100
2856.06	0.519	519.0	congruent	Block3	congruent/STIM_001.jpg	100
2859.401	0.766	766.1	congruent	Block3	congruent/STIM_001.jpg	100
2862.607	0.837	836.7	congruent	Block3	congruent/STIM_001.jpg	100
2866.182	0.825	825.1	congruent	Block3	congruent/STIM_001.jpg	99
2869.089	0.763	763.0	congruent	Block3	congruent/STIM_002.jpg	100
2873.04	0.603	603.0	congruent	Block3	congruent/STIM_002.jpg	99
2876.331	0.505	505.5	congruent	Block3	congruent/STIM_002.jpg	99
2878.956	0.75	750.5	congruent	Block3	congruent/STIM_002.jpg	99
2882.923	0.5	500.4	congruent	Block3	congruent/STIM_002.jpg	99
2887.346	0.692	691.7	congruent	Block3	congruent/STIM_003.jpg	99
2891.371	0.772	771.8	congruent	Block3	congruent/STIM_003.jpg	99
2894.489	0.56	559.8	congruent	Block3	congruent/STIM_003.jpg	99
2898.413	0.715	715.0	congruent	Block3	congruent/STIM_003.jpg	100
2901.746	0.61	610.1	congruent	Block3	congruent/STIM_003.jpg	99
2905.145	0.603	603.2	congruent	Block3	congruent/STIM_004.jpg	99
2908.26	0.61	610.1	congruent	Block3	congruent/STIM_004.jpg	99
2911.425	0.669	669.1	congruent	Block3	congruent/STIM_004.jpg	100
2914.908	0.653	652.7	congruent	Block3	congruent/STIM_004.jpg	100
2918.598	0.481	481.1	congruent	Block3	congruent/STIM_004.jpg	100
2922.755	0.834	834.3	congruent	Block3	congruent/STIM_005.jpg	99
2926.808	0.686	685.8	congruent	Block3	congruent/STIM_005.jpg	100
2930.909	0.717	717.1	congruent	Block3	congruent/STIM_005.jpg	100
2934.034	0.821	820.6	congruent	Block3	congruent/STIM_005.jpg	100
2937.076	0.496	495.5	congruent	Block3	congruent/STIM_005.jpg	99
2940.984	0.712	712.1	congruent	Block3	congruent/STIM_006.jpg	100
2945.418	0.59	589.6	congruent	Block3	congruent/STIM_006.jpg	100
2948.602	0.633	632.6	congruent	Block3	congruent/STIM_006.jpg	99
2952.626	0.727	727.2	congruent	Block3	congruent/STIM_006.jpg	99
2956.768	0.551	550.9	congruent	Block3	congruent/STIM_006.jpg	100
2960.665	0.645	645.3	congruent	Block3	congruent/STIM_007.jpg	100
2964.965	0.561	560.6	congruent	Block3	congruent/STIM_007.jpg	99
2968.088	0.766	766.3	congruent	Block3	congruent/STIM_007.jpg	99
2971.646	0.856	856.5	congruent	Block3	congruent/STIM_007.jpg	99
2975.295	0.626	626.0	congruent	Block3	congruent/STIM_007.jpg	100
2978.371	0.62	619.9	congruent	Block3	congruent/STIM_008.jpg	99
2981.81	0.658	658.2	congruent	Block3	congruent/STIM_008.jpg	99
2985.166	0.624	623.5	congruent	Block3	congruent/STIM_008.jpg	99
2989.518	0.816	816.2	congruent	Block3	congruent/STIM_008.jpg	99
2993.08	0.775	774.6	congruent	Block3	congruent/STIM_008.jpg	99
2996.598	0.63	629.6	congruent	Block3	congruent/STIM_009.jpg	99
3000.14	0.678	677.9	congruent	Block3	congruent/STIM_009.jpg	99
3002.928	0.565	564.8	congruent	Block3	congruent/STIM_009.jpg	100
3007.014	0.704	704.5	congruent	Block3	congruent/STIM_009.jpg	100
3011.44	0.782	781.9	congruent	Block3	congruent/STIM_009.jpg	100
3014.641	0.738	737.7	congruent	Block3	congruent/STIM_010.jpg	99
3019.202	0.856	855.7	congruent	Block3	congruent/STIM_010.jpg	100
3022.972	0.803	802.6	congruent	Block3	congruent/STIM_010.jpg	100
3026.754	0.81	809.9	congruent	Block3	congruent/STIM_010.jpg	100
3031.502	0.688	687.8	congruent	Block3	congruent/STIM_010.jpg	99
3034.939	0.737	737.1	congruent	Block3	congruent/STIM_011.jpg	100
3038.474	0.745	744.7	congruent	Block3	congruent/STIM_011.jpg	100
3042.237	0.554	553.9	congruent	Block3	congruent/STIM_011.jpg	100
3045.855	0.702	702.4	congruent	Block3	congruent/STIM_011.jpg	100
3048.648	0.705	704.8	congruent	Block3	congruent/STIM_011.jpg	99
3052.638	0.654	654.3	congruent	Block3	congruent/STIM_012.jpg	99
3056.086	0.671	670.8	congruent	Block3	congruent/STIM_012.jpg	100
3059.305	0.591	590.7	congruent	Block3	congruent/STIM_012.jpg	100
3062.52	0.632	631.8	congruent	Block3	congruent/STIM_012.jpg	99
3066.453	0.754	753.5	congruent	Block3	congruent/STIM_012.jpg	100
3069.809	0.777	777.3	congruent	Block3	congruent/STIM_013.jpg	100
3074.341	0.626	626.3	congruent	Block3	congruent/STIM_013.jpg	99
3077.593	0.607	606.7	congruent	Block3	congruent/STIM_013.jpg	99
3082.165	0.827	827.4	congruent	Block3	congruent/STIM_013.jpg	99
3086.575	0.514	514.0	congruent	Block3	congruent/STIM_013.jpg	100
3090.883	0.735	735.0	congruent	Block3	congruent/STIM_014.jpg	100
3095.272	0.856	856.4	congruent	Block3	congruent/STIM_014.jpg	100
3099.679	0.702	701.7	congruent	Block3	congruent/STIM_014.jpg	100
3102.513	0.644	643.7	congruent	Block3	congruent/STIM_014.jpg	99
3106.866	0.702	702.3	congruent	Block3	congruent/STIM_014.jpg	100
3110.381	0.499	498.6	congruent	Block3	congruent/STIM_015.jpg	99
3114.115	0.815	815.2	congruent	Block3	congruent/STIM_015.jpg	99
3117.574	0.682	681.8	congruent	Block3	congruent/STIM_015.jpg	100
3121.188	0.801	800.7	congruent	Block3	congruent/STIM_015.jpg	99
3124.104	0.811	811.1	congruent	Block3	congruent/STIM_015.jpg	99
3127.766	0.54	539.8	congruent	Block3	congruent/STIM_016.jpg	100
3131.513	0.85	849.8	congruent	Block3	congruent/STIM_016.jpg	100
3135.355	0.862	862.4	congruent	Block3	congruent/STIM_016.jpg	99
3138.492	0.788	788.2	congruent	Block3	congruent/STIM_016.jpg	100
3143.162	0.552	551.9	congruent	Block3	congruent/STIM_016.jpg	99
3146.301	0.699	698.8	congruent	Block3	congruent/STIM_017.jpg	100
3149.727	0.482	481.9	congruent	Block3	congruent/STIM_017.jpg	99
3154.025	0.607	606.9	congruent	Block3	congruent/STIM_017.jpg	99
3158.122	0.662	661.7	congruent	Block3	congruent/STIM_017.jpg	99
3162.486	0.825	825.1	congruent	Block3	congruent/STIM_017.jpg	100
3165.842	0.677	677.0	congruent	Block3	congruent/STIM_018.jpg	100
3168.576	0.495	495.2	congruent	Block3	congruent/STIM_018.jpg	99
3172.688	0.862	862.3	congruent	Block3	congruent/STIM_018.jpg	100
3177.531	0.74	740.4	congruent	Block3	congruent/STIM_018.jpg	99
3181.511	0.62	619.5	congruent	Block3	congruent/STIM_018.jpg	99
3184.517	0.707	706.9	congruent	Block3	congruent/STIM_019.jpg	100
3188.806	0.814	813.7	congruent	Block3	congruent/STIM_019.jpg	99
3193.095	0.58	580.5	congruent	Block3	congruent/STIM_019.jpg	99
3196.697	0.64	639.7	congruent	Block3	congruent/STIM_019.jpg	99
3199.344	0.773	773.2	congruent	Block3	congruent/STIM_019.jpg	100
3202.15	0.762	761.5	congruent	Block3	congruent/STIM_020.jpg	99
3205.611	0.774	774.3	congruent	Block3	congruent/STIM_020.jpg	100
3209.363	0.52	519.7	congruent	Block3	congruent/STIM_020.jpg	100
3212.35	0.845	845.3	congruent	Block3	congruent/STIM_020.jpg	100
3216.922	0.653	653.0	congruent	Block3	congruent/STIM_020.jpg	100
3219.879	0.577	576.7	congruent	Block3	congruent/STIM_021.jpg	99
3223.047	0.807	807.0	congruent	Block3	congruent/STIM_021.jpg	99
3227.161	0.625	625.4	congruent	Block3	congruent/STIM_021.jpg	99
3230.511	0.61	610.0	congruent	Block3	congruent/STIM_021.jpg	100
3234.69	0.707	707.3	congruent	Block3	congruent/STIM_021.jpg	99
3238.041	0.706	706.1	congruent	Block3	congruent/STIM_022.jpg	100
3240.899	0.597	596.8	congruent	Block3	congruent/STIM_022.jpg	100
3244.389	0.562	562.3	congruent	Block3	congruent/STIM_022.jpg	99
3248.04	0.654	654.0	congruent	Block3	congruent/STIM_022.jpg	99
3250.903	0.748	748.4	congruent	Block3	congruent/STIM_022.jpg	99
3254.346	0.536	535.5	congruent	Block3	congruent/STIM_023.jpg	100
3256.952	0.812	811.5	congruent	Block3	congruent/STIM_023.jpg	99
3261.461	0.714	714.4	congruent	Block3	congruent/STIM_023.jpg	100
3265.532	0.708	708.3	congruent	Block3	congruent/STIM_023.jpg	100
3269.635	0.71	710.5	congruent	Block3	congruent/STIM_023.jpg	100
3273.957	0.48	480.5	congruent	Block3	congruent/STIM_024.jpg	100
3277.629	0.752	752.3	congruent	Block3	congruent/STIM_024.jpg	99
3280.97	0.556	556.4	congruent	Block3	congruent/STIM_024.jpg	100
3284.669	0.828	827.7	congruent	Block3	congruent/STIM_024.jpg	100
3289.495	0.754	754.3	congruent	Block3	congruent/STIM_024.jpg	99
3293.685	0.531	530.8	congruent	Block3	congruent/STIM_025.jpg	100
3297.065	0.536	535.7	congruent	Block3	congruent/STIM_025.jpg	100
3300.933	0.776	775.6	congruent	Block3	congruent/STIM_025.jpg	100
3303.916	0.847	847.2	congruent	Block3	congruent/STIM_025.jpg	99
3308.388	0.686	685.7	congruent	Block3	congruent/STIM_025.jpg	100
3312.106	0.825	824.8	congruent	Block3	congruent/STIM_026.jpg	100
3316.391	0.753	752.6	congruent	Block3	congruent/STIM_026.jpg	100
3320.402	0.812	811.9	congruent	Block3	congruent/STIM_026.jpg	100
3324.555	0.484	483.9	congruent	Block3	congruent/STIM_026.jpg	100
3327.871	0.669	669.2	congruent	Block3	congruent/STIM_026.jpg	99
3331.835	0.703	703.4	congruent	Block3	congruent/STIM_027.jpg	100
3335.155	0.485	484.9	congruent	Block3	congruent/STIM_027.jpg	99
3338.56	0.696	695.8	congruent	Block3	congruent/STIM_027.jpg	100
3341.541	0.719	719.1	congruent	Block3	congruent/STIM_027.jpg	100
3345.619	0.554	553.7	congruent	Block3	congruent/STIM_027.jpg	99
3348.521	0.807	807.1	congruent	Block3	congruent/STIM_028.jpg	99
3352.294	0.747	747.0	congruent	Block3	congruent/STIM_028.jpg	99
3355.266	0.535	534.7	congruent	Block3	congruent/STIM_028.jpg	99
3359.72	0.693	692.8	congruent	Block3	congruent/STIM_028.jpg	100
3362.999	0.855	855.2	congruent	Block3	congruent/STIM_028.jpg	99
3366.257	0.618	617.9	congruent	Block3	congruent/STIM_029.jpg	100
3369.511	0.551	550.7	congruent	Block3	congruent/STIM_029.jpg	100
3372.885	0.504	504.5	congruent	Block3	congruent/STIM_029.jpg	100
3376.941	0.693	692.8	congruent	Block3	congruent/STIM_029.jpg	99
3381.318	0.788	787.8	congruent	Block3	congruent/STIM_029.jpg	99
