onset	duration	accuracy_binary	trial_type	learning_stage	stimulus
0.0	0.814	0	incongruent	Block1	incongruent/STIM_000.jpg
3.802	0.746	1	incongruent	Block1	incongruent/STIM_000.jpg
6.916	0.878	1	incongruent	Block1	incongruent/STIM_000.jpg
11.732	1.002	1	incongruent	Block1	incongruent/STIM_000.jpg
16.54	0.881	1	incongruent	Block1	incongruent/STIM_000.jpg
19.673	1.287	1	incongruent	Block1	incongruent/STIM_001.jpg
23.928	1.22	1	incongruent	Block1	incongruent/STIM_001.jpg
27.707	0.788	1	incongruent	Block1	incongruent/STIM_001.jpg
30.536	1.105	1	incongruent	Block1	incongruent/STIM_001.jpg
33.77	0.847	1	incongruent	Block1	incongruent/STIM_001.jpg
38.563	0.741	1	incongruent	Block1	incongruent/STIM_002.jpg
42.507	1.179	1	incongruent	Block1	incongruent/STIM_002.jpg
45.921	0.7	1	incongruent	Block1	incongruent/STIM_002.jpg
50.33	0.773	1	incongruent	Block1	incongruent/STIM_002.jpg
54.609	0.937	1	incongruent	Block1	incongruent/STIM_002.jpg
59.008	1.154	1	incongruent	Block1	incongruent/STIM_003.jpg
63.491	1.068	0	incongruent	Block1	incongruent/STIM_003.jpg
67.358	1.271	1	incongruent	Block1	incongruent/STIM_003.jpg
70.844	0.906	1	incongruent	Block1	incongruent/STIM_003.jpg
74.974	0.603	1	incongruent	Block1	incongruent/STIM_003.jpg
78.225	1.216	1	incongruent	Block1	incongruent/STIM_004.jpg
83.433	1.127	1	incongruent	Block1	incongruent/STIM_004.jpg
87.888	0.858	1	incongruent	Block1	incongruent/STIM_004.jpg
91.501	0.982	1	incongruent	Block1	incongruent/STIM_004.jpg
96.129	0.667	1	incongruent	Block1	incongruent/STIM_004.jpg
99.087	1.097	1	incongruent	Block1	incongruent/STIM_005.jpg
102.964	0.644	1	incongruent	Block1	incongruent/STIM_005.jpg
107.06	1.255	0	incongruent	Block1	incongruent/STIM_005.jpg
110.585	1.062	1	incongruent	Block1	incongruent/STIM_005.jpg
114.926	0.689	1	incongruent	Block1	incongruent/STIM_005.jpg
118.728	1.312	1	incongruent	Block1	incongruent/STIM_006.jpg
124.001	0.823	1	incongruent	Block1	incongruent/STIM_006.jpg
127.797	0.868	1	incongruent	Block1	incongruent/STIM_006.jpg
130.952	1.1	1	incongruent	Block1	incongruent/STIM_006.jpg
135.481	0.669	1	incongruent	Block1	incongruent/STIM_006.jpg
139.779	1.078	0	incongruent	Block1	incongruent/STIM_007.jpg
142.995	0.952	1	incongruent	Block1	incongruent/STIM_007.jpg
146.015	0.864	1	incongruent	Block1	incongruent/STIM_007.jpg
150.796	1.058	1	incongruent	Block1	incongruent/STIM_007.jpg
154.398	0.704	1	incongruent	Block1	incongruent/STIM_007.jpg
158.108	0.895	1	incongruent	Block1	incongruent/STIM_008.jpg
162.704	1.059	1	incongruent	Block1	incongruent/STIM_008.jpg
167.083	1.08	0	incongruent	Block1	incongruent/STIM_008.jpg
171.5	1.038	1	incongruent	Block1	incongruent/STIM_008.jpg
175.511	0.753	1	incongruent	Block1	incongruent/STIM_008.jpg
178.375	0.98	1	incongruent	Block1	incongruent/STIM_009.jpg
182.554	0.884	1	incongruent	Block1	incongruent/STIM_009.jpg
187.177	0.684	1	incongruent	Block1	incongruent/STIM_009.jpg
191.003	1.056	1	incongruent	Block1	incongruent/STIM_009.jpg
195.476	1.146	1	incongruent	Block1	incongruent/STIM_009.jpg
200.076	1.322	1	incongruent	Block1	incongruent/STIM_010.jpg
204.422	0.694	1	incongruent	Block1	incongruent/STIM_010.jpg
208.117	0.935	1	incongruent	Block1	incongruent/STIM_010.jpg
212.931	0.687	1	incongruent	Block1	incongruent/STIM_010.jpg
216.341	1.088	1	incongruent	Block1	incongruent/STIM_010.jpg
221.279	1.341	1	incongruent	Block1	incongruent/STIM_011.jpg
225.12	1.211	1	incongruent	Block1	incongruent/STIM_011.jpg
228.835	0.953	1	incongruent	Block1	incongruent/STIM_011.jpg
232.824	0.582	1	incongruent	Block1	incongruent/STIM_011.jpg
236.31	1.148	1	incongruent	Block1	incongruent/STIM_011.jpg
239.503	1.084	1	incongruent	Block1	incongruent/STIM_012.jpg
243.036	1.002	1	incongruent	Block1	incongruent/STIM_012.jpg
246.141	0.931	1	incongruent	Block1	incongruent/STIM_012.jpg
249.955	0.587	1	incongruent	Block1	incongruent/STIM_012.jpg
252.697	0.851	1	incongruent	Block1	incongruent/STIM_012.jpg
255.743	1.222	1	incongruent	Block1	incongruent/STIM_013.jpg
260.964	0.921	1	incongruent	Block1	incongruent/STIM_013.jpg
265.569	0.673	1	incongruent	Block1	incongruent/STIM_013.jpg
269.854	0.741	1	incongruent	Block1	incongruent/STIM_013.jpg
274.102	0.766	1	incongruent	Block1	incongruent/STIM_013.jpg
278.787	0.704	1	incongruent	Block1	incongruent/STIM_014.jpg
282.959	0.693	1	incongruent	Block1	incongruent/STIM_014.jpg
285.922	1.285	1	incongruent	Block1	incongruent/STIM_014.jpg
289.815	0.692	1	incongruent	Block1	incongruent/STIM_014.jpg
293.491	0.552	1	incongruent	Block1	incongruent/STIM_014.jpg
297.977	0.874	1	incongruent	Block1	incongruent/STIM_015.jpg
301.065	1.188	1	incongruent	Block1	incongruent/STIM_015.jpg
306.139	0.967	1	incongruent	Block1	incongruent/STIM_015.jpg
311.052	1.045	1	incongruent	Block1	incongruent/STIM_015.jpg
314.643	1.107	1	incongruent	Block1	incongruent/STIM_015.jpg
319.08	1.046	1	incongruent	Block1	incongruent/STIM_016.jpg
323.423	1.357	1	incongruent	Block1	incongruent/STIM_016.jpg
328.509	0.636	1	incongruent	Block1	incongruent/STIM_016.jpg
332.088	0.816	1	incongruent	Block1	incongruent/STIM_016.jpg
336.784	0.97	1	incongruent	Block1	incongruent/STIM_016.jpg
341.709	1.341	1	incongruent	Block1	incongruent/STIM_017.jpg
346.507	1.303	1	incongruent	Block1	incongruent/STIM_017.jpg
349.865	0.787	1	incongruent	Block1	incongruent/STIM_017.jpg
354.6	1.11	1	incongruent	Block1	incongruent/STIM_017.jpg
359.669	0.735	1	incongruent	Block1	incongruent/STIM_017.jpg
362.697	1.375	1	incongruent	Block1	incongruent/STIM_018.jpg
366.646	0.943	1	incongruent	Block1	incongruent/STIM_018.jpg
369.632	0.98	1	incongruent	Block1	incongruent/STIM_018.jpg
374.594	0.918	1	incongruent	Block1	incongruent/STIM_018.jpg
378.824	0.71	1	incongruent	Block1	incongruent/STIM_018.jpg
382.441	0.812	1	incongruent	Block1	incongruent/STIM_019.jpg
386.043	0.715	1	incongruent	Block1	incongruent/STIM_019.jpg
389.595	1.27	0	incongruent	Block1	incongruent/STIM_019.jpg
394.21	0.961	1	incongruent	Block1	incongruent/STIM_019.jpg
398.724	0.564	1	incongruent	Block1	incongruent/STIM_019.jpg
402.946	1.325	1	incongruent	Block1	incongruent/STIM_020.jpg
407.195	0.686	1	incongruent	Block1	incongruent/STIM_020.jpg
411.604	0.672	1	incongruent	Block1	incongruent/STIM_020.jpg
414.403	0.714	0	incongruent	Block1	incongruent/STIM_020.jpg
418.671	0.878	1	incongruent	Block1	incongruent/STIM_020.jpg
422.993	1.222	1	incongruent	Block1	incongruent/STIM_021.jpg
427.324	0.807	1	incongruent	Block1	incongruent/STIM_021.jpg
431.547	0.835	1	incongruent	Block1	incongruent/STIM_021.jpg
434.896	0.996	1	incongruent	Block1	incongruent/STIM_021.jpg
438.759	0.607	1	incongruent	Block1	incongruent/STIM_021.jpg
443.175	1.05	1	incongruent	Block1	incongruent/STIM_022.jpg
446.623	0.802	1	incongruent	Block1	incongruent/STIM_022.jpg
450.375	0.616	1	incongruent	Block1	incongruent/STIM_022.jpg
453.944	1.038	1	incongruent	Block1	incongruent/STIM_022.jpg
458.898	1.055	1	incongruent	Block1	incongruent/STIM_022.jpg
463.319	1.065	1	incongruent	Block1	incongruent/STIM_023.jpg
467.821	0.91	1	incongruent	Block1	incongruent/STIM_023.jpg
471.459	0.765	1	incongruent	Block1	incongruent/STIM_023.jpg
475.977	0.655	1	incongruent	Block1	incongruent/STIM_023.jpg
479.056	0.601	1	incongruent	Block1	incongruent/STIM_023.jpg
482.131	1.135	1	incongruent	Block1	incongruent/STIM_024.jpg
485.686	1.318	1	incongruent	Block1	incongruent/STIM_024.jpg
489.134	0.728	1	incongruent	Block1	incongruent/STIM_024.jpg
492.587	1.055	1	incongruent	Block1	incongruent/STIM_024.jpg
496.772	0.693	1	incongruent	Block1	incongruent/STIM_024.jpg
500.533	1.402	0	incongruent	Block1	incongruent/STIM_025.jpg
504.034	0.729	1	incongruent	Block1	incongruent/STIM_025.jpg
508.298	0.633	1	incongruent	Block1	incongruent/STIM_025.jpg
511.592	1.175	0	incongruent	Block1	incongruent/STIM_025.jpg
515.558	0.619	1	incongruent	Block1	incongruent/STIM_025.jpg
520.081	0.845	1	incongruent	Block1	incongruent/STIM_026.jpg
523.568	0.731	1	incongruent	Block1	incongruent/STIM_026.jpg
527.184	0.852	1	incongruent	Block1	incongruent/STIM_026.jpg
531.973	0.662	1	incongruent	Block1	incongruent/STIM_026.jpg
534.887	0.683	1	incongruent	Block1	incongruent/STIM_026.jpg
537.674	0.759	1	incongruent	Block1	incongruent/STIM_027.jpg
541.685	0.916	1	incongruent	Block1	incongruent/STIM_027.jpg
544.798	0.862	1	incongruent	Block1	incongruent/STIM_027.jpg
548.685	0.962	1	incongruent	Block1	incongruent/STIM_027.jpg
552.198	0.752	1	incongruent	Block1	incongruent/STIM_027.jpg
556.587	0.943	1	incongruent	Block1	incongruent/STIM_028.jpg
559.767	1.191	1	incongruent	Block1	incongruent/STIM_028.jpg
563.039	1.286	1	incongruent	Block1	incongruent/STIM_028.jpg
566.765	0.939	1	incongruent	Block1	incongruent/STIM_028.jpg
571.427	0.952	1	incongruent	Block1	incongruent/STIM_028.jpg
575.031	1.259	1	incongruent	Block1	incongruent/STIM_029.jpg
578.901	1.101	1	incongruent	Block1	incongruent/STIM_029.jpg
583.502	1.047	1	incongruent	Block1	incongruent/STIM_029.jpg
587.679	0.93	1	incongruent	Block1	incongruent/STIM_029.jpg
591.645	0.886	1	incongruent	Block1	incongruent/STIM_029.jpg
595.93	0.836	1	congruent	Block1	congruent/STIM_000.jpg
599.866	0.698	1	congruent	Block1	congruent/STIM_000.jpg
604.07	0.541	1	congruent	Block1	congruent/STIM_000.jpg
607.073	0.795	1	congruent	Block1	congruent/STIM_000.jpg
611.476	0.648	1	congruent	Block1	congruent/STIM_000.jpg
615.373	0.761	0	congruent	Block1	congruent/STIM_001.jpg
619.437	0.789	1	congruent	Block1	congruent/STIM_001.jpg
622.263	0.629	1	congruent	Block1	congruent/STIM_001.jpg
625.278	0.776	1	congruent	Block1	congruent/STIM_001.jpg
630.043	0.548	1	congruent	Block1	congruent/STIM_001.jpg
634.451	0.524	0	congruent	Block1	congruent/STIM_002.jpg
638.591	0.768	1	congruent	Block1	congruent/STIM_002.jpg
642.28	0.525	1	congruent	Block1	congruent/STIM_002.jpg
644.837	0.77	1	congruent	Block1	congruent/STIM_002.jpg
648.543	0.71	1	congruent	Block1	congruent/STIM_002.jpg
653.149	0.743	1	congruent	Block1	congruent/STIM_003.jpg
656.706	0.698	1	congruent	Block1	congruent/STIM_003.jpg
659.687	0.508	1	congruent	Block1	congruent/STIM_003.jpg
663.585	0.64	1	congruent	Block1	congruent/STIM_003.jpg
666.695	0.736	1	congruent	Block1	congruent/STIM_003.jpg
671.028	0.54	1	congruent	Block1	congruent/STIM_004.jpg
674.49	0.79	1	congruent	Block1	congruent/STIM_004.jpg
678.62	0.679	1	congruent	Block1	congruent/STIM_004.jpg
682.729	0.786	1	congruent	Block1	congruent/STIM_004.jpg
687.385	0.613	1	congruent	Block1	congruent/STIM_004.jpg
690.682	0.523	1	congruent	Block1	congruent/STIM_005.jpg
694.908	0.632	1	congruent	Block1	congruent/STIM_005.jpg
698.352	0.596	1	congruent	Block1	congruent/STIM_005.jpg
702.049	0.654	1	congruent	Block1	congruent/STIM_005.jpg
705.588	0.735	1	congruent	Block1	congruent/STIM_005.jpg
708.409	0.645	1	congruent	Block1	congruent/STIM_006.jpg
711.818	0.854	1	congruent	Block1	congruent/STIM_006.jpg
715.154	0.487	1	congruent	Block1	congruent/STIM_006.jpg
718.157	0.802	1	congruent	Block1	congruent/STIM_006.jpg
722.179	0.509	1	congruent	Block1	congruent/STIM_006.jpg
725.173	0.782	1	congruent	Block1	congruent/STIM_007.jpg
728.312	0.841	1	congruent	Block1	congruent/STIM_007.jpg
731.635	0.838	1	congruent	Block1	congruent/STIM_007.jpg
735.393	0.647	1	congruent	Block1	congruent/STIM_007.jpg
739.119	0.817	1	congruent	Block1	congruent/STIM_007.jpg
743.648	0.771	1	congruent	Block1	congruent/STIM_008.jpg
746.752	0.622	1	congruent	Block1	congruent/STIM_008.jpg
750.182	0.775	1	congruent	Block1	congruent/STIM_008.jpg
752.99	0.569	1	congruent	Block1	congruent/STIM_008.jpg
755.724	0.553	1	congruent	Block1	congruent/STIM_008.jpg
759.565	0.727	1	congruent	Block1	congruent/STIM_009.jpg
764.228	0.784	1	congruent	Block1	congruent/STIM_009.jpg
767.926	0.53	1	congruent	Block1	congruent/STIM_009.jpg
771.626	0.633	1	congruent	Block1	congruent/STIM_009.jpg
774.646	0.728	1	congruent	Block1	congruent/STIM_009.jpg
778.773	0.788	1	congruent	Block1	congruent/STIM_010.jpg
782.781	0.711	1	congruent	Block1	congruent/STIM_010.jpg
786.013	0.76	1	congruent	Block1	congruent/STIM_010.jpg
790.69	0.838	1	congruent	Block1	congruent/STIM_010.jpg
793.753	0.612	1	congruent	Block1	congruent/STIM_010.jpg
798.12	0.67	1	congruent	Block1	congruent/STIM_011.jpg
800.847	0.792	1	congruent	Block1	congruent/STIM_011.jpg
805.476	0.537	1	congruent	Block1	congruent/STIM_011.jpg
809.03	0.49	1	congruent	Block1	congruent/STIM_011.jpg
812.99	0.592	1	congruent	Block1	congruent/STIM_011.jpg
816.423	0.546	1	congruent	Block1	congruent/STIM_012.jpg
820.149	0.528	1	congruent	Block1	congruent/STIM_012.jpg
822.867	0.699	1	congruent	Block1	congruent/STIM_012.jpg
826.274	0.776	1	congruent	Block1	congruent/STIM_012.jpg
829.694	0.602	1	congruent	Block1	congruent/STIM_012.jpg
832.387	0.861	1	congruent	Block1	congruent/STIM_013.jpg
835.599	0.622	1	congruent	Block1	congruent/STIM_013.jpg
839.46	0.591	1	congruent	Block1	congruent/STIM_013.jpg
843.334	0.521	1	congruent	Block1	congruent/STIM_013.jpg
846.311	0.551	1	congruent	Block1	congruent/STIM_013.jpg
849.215	0.673	1	congruent	Block1	congruent/STIM_014.jpg
853.206	0.564	1	congruent	Block1	congruent/STIM_014.jpg
857.373	0.827	1	congruent	Block1	congruent/STIM_014.jpg
861.042	0.669	1	congruent	Block1	congruent/STIM_014.jpg
865.318	0.7	1	congruent	Block1	congruent/STIM_014.jpg
868.059	0.708	1	congruent	Block1	congruent/STIM_015.jpg
871.295	0.632	1	congruent	Block1	congruent/STIM_015.jpg
875.457	0.864	1	congruent	Block1	congruent/STIM_015.jpg
879.317	0.59	1	congruent	Block1	congruent/STIM_015.jpg
883.653	0.606	1	congruent	Block1	congruent/STIM_015.jpg
886.556	0.772	1	congruent	Block1	congruent/STIM_016.jpg
890.024	0.747	1	congruent	Block1	congruent/STIM_016.jpg
893.981	0.856	1	congruent	Block1	congruent/STIM_016.jpg
898.381	0.812	1	congruent	Block1	congruent/STIM_016.jpg
902.976	0.631	1	congruent	Block1	congruent/STIM_016.jpg
906.028	0.825	1	congruent	Block1	congruent/STIM_017.jpg
910.398	0.589	1	congruent	Block1	congruent/STIM_017.jpg
913.569	0.628	1	congruent	Block1	congruent/STIM_017.jpg
917.147	0.639	1	congruent	Block1	congruent/STIM_017.jpg
921.66	0.529	1	congruent	Block1	congruent/STIM_017.jpg
924.234	0.61	1	congruent	Block1	congruent/STIM_018.jpg
928.264	0.559	1	congruent	Block1	congruent/STIM_018.jpg
932.212	0.777	1	congruent	Block1	congruent/STIM_018.jpg
936.552	0.747	1	congruent	Block1	congruent/STIM_018.jpg
940.709	0.615	1	congruent	Block1	congruent/STIM_018.jpg
944.288	0.576	1	congruent	Block1	congruent/STIM_019.jpg
948.005	0.529	1	congruent	Block1	congruent/STIM_019.jpg
951.969	0.832	1	congruent	Block1	congruent/STIM_019.jpg
956.474	0.815	1	congruent	Block1	congruent/STIM_019.jpg
959.506	0.622	1	congruent	Block1	congruent/STIM_019.jpg
962.413	0.835	1	congruent	Block1	congruent/STIM_020.jpg
966.203	0.768	1	congruent	Block1	congruent/STIM_020.jpg
970.782	0.561	1	congruent	Block1	congruent/STIM_020.jpg
974.993	0.491	1	congruent	Block1	congruent/STIM_020.jpg
978.917	0.85	1	congruent	Block1	congruent/STIM_020.jpg
982.401	0.682	1	congruent	Block1	congruent/STIM_021.jpg
986.117	0.623	1	congruent	Block1	congruent/STIM_021.jpg
989.398	0.838	1	congruent	Block1	congruent/STIM_021.jpg
993.472	0.574	1	congruent	Block1	congruent/STIM_021.jpg
997.197	0.651	1	congruent	Block1	congruent/STIM_021.jpg
1001.419	0.758	0	congruent	Block1	congruent/STIM_022.jpg
1005.494	0.832	1	congruent	Block1	congruent/STIM_022.jpg
1008.973	0.542	1	congruent	Block1	congruent/STIM_022.jpg
1011.689	0.777	1	congruent	Block1	congruent/STIM_022.jpg
1016.049	0.643	1	congruent	Block1	congruent/STIM_022.jpg
1020.498	0.696	1	congruent	Block1	congruent/STIM_023.jpg
1023.684	0.681	1	congruent	Block1	congruent/STIM_023.jpg
1028.055	0.742	1	congruent	Block1	congruent/STIM_023.jpg
1032.368	0.542	1	congruent	Block1	congruent/STIM_023.jpg
1035.247	0.83	1	congruent	Block1	congruent/STIM_023.jpg
1038.487	0.815	1	congruent	Block1	congruent/STIM_024.jpg
1042.608	0.603	1	congruent	Block1	congruent/STIM_024.jpg
1046.502	0.852	1	congruent	Block1	congruent/STIM_024.jpg
1049.609	0.516	1	congruent	Block1	congruent/STIM_024.jpg
1053.572	0.608	1	congruent	Block1	congruent/STIM_024.jpg
1057.258	0.54	1	congruent	Block1	congruent/STIM_025.jpg
1061.154	0.775	1	congruent	Block1	congruent/STIM_025.jpg
1063.937	0.847	1	congruent	Block1	congruent/STIM_025.jpg
1068.114	0.482	1	congruent	Block1	congruent/STIM_025.jpg
1070.957	0.853	1	congruent	Block1	congruent/STIM_025.jpg
1074.058	0.807	1	congruent	Block1	congruent/STIM_026.jpg
1077.317	0.668	1	congruent	Block1	congruent/STIM_026.jpg
1080.378	0.778	1	congruent	Block1	congruent/STIM_026.jpg
1084.552	0.486	1	congruent	Block1	congruent/STIM_026.jpg
1087.251	0.584	1	congruent	Block1	congruent/STIM_026.jpg
1090.867	0.496	1	congruent	Block1	congruent/STIM_027.jpg
1094.968	0.54	1	congruent	Block1	congruent/STIM_027.jpg
1098.687	0.595	1	congruent	Block1	congruent/STIM_027.jpg
1101.351	0.534	1	congruent	Block1	congruent/STIM_027.jpg
1104.173	0.542	1	congruent	Block1	congruent/STIM_027.jpg
1107.84	0.496	1	congruent	Block1	congruent/STIM_028.jpg
1111.291	0.557	1	congruent	Block1	congruent/STIM_028.jpg
1114.659	0.596	1	congruent	Block1	congruent/STIM_028.jpg
1119.213	0.754	1	congruent	Block1	congruent/STIM_028.jpg
1122.485	0.528	1	congruent	Block1	congruent/STIM_028.jpg
1125.13	0.553	1	congruent	Block1	congruent/STIM_029.jpg
1128.74	0.675	1	congruent	Block1	congruent/STIM_029.jpg
1133.062	0.68	1	congruent	Block1	congruent/STIM_029.jpg
1136.232	0.488	1	congruent	Block1	congruent/STIM_029.jpg
1139.673	0.838	1	congruent	Block1	congruent/STIM_029.jpg
1144.207	1.009	1	incongruent	Block2	incongruent/STIM_000.jpg
1148.291	1.088	1	incongruent	Block2	incongruent/STIM_000.jpg
1151.483	0.988	1	incongruent	Block2	incongruent/STIM_000.jpg
1156.462	0.805	1	incongruent	Block2	incongruent/STIM_000.jpg
1160.628	0.756	1	incongruent	Block2	incongruent/STIM_000.jpg
1165.348	0.964	1	incongruent	Block2	incongruent/STIM_001.jpg
1169.288	0.757	1	incongruent	Block2	incongruent/STIM_001.jpg
1172.838	0.586	1	incongruent	Block2	incongruent/STIM_001.jpg
1175.572	0.899	1	incongruent	Block2	incongruent/STIM_001.jpg
1178.916	0.654	1	incongruent	Block2	incongruent/STIM_001.jpg
1182.195	1.106	1	incongruent	Block2	incongruent/STIM_002.jpg
1186.122	0.967	1	incongruent	Block2	incongruent/STIM_002.jpg
1189.333	0.626	1	incongruent	Block2	incongruent/STIM_002.jpg
1193.306	0.719	1	incongruent	Block2	incongruent/STIM_002.jpg
1196.796	0.758	1	incongruent	Block2	incongruent/STIM_002.jpg
1200.546	0.807	1	incongruent	Block2	incongruent/STIM_003.jpg
1205.223	0.83	1	incongruent	Block2	incongruent/STIM_003.jpg
1208.495	0.626	1	incongruent	Block2	incongruent/STIM_003.jpg
1211.455	0.622	1	incongruent	Block2	incongruent/STIM_003.jpg
1215.991	0.504	1	incongruent	Block2	incongruent/STIM_003.jpg
1219.296	0.735	1	incongruent	Block2	incongruent/STIM_004.jpg
1223.331	0.895	1	incongruent	Block2	incongruent/STIM_004.jpg
1227.071	0.859	1	incongruent	Block2	incongruent/STIM_004.jpg
1231.564	0.526	1	incongruent	Block2	incongruent/STIM_004.jpg
1235.55	0.581	1	incongruent	Block2	incongruent/STIM_004.jpg
1238.683	0.731	1	incongruent	Block2	incongruent/STIM_005.jpg
1242.687	0.584	1	incongruent	Block2	incongruent/STIM_005.jpg
1247.049	0.547	1	incongruent	Block2	incongruent/STIM_005.jpg
1249.654	0.978	1	incongruent	Block2	incongruent/STIM_005.jpg
1252.646	0.798	1	incongruent	Block2	incongruent/STIM_005.jpg
1255.621	0.956	1	incongruent	Block2	incongruent/STIM_006.jpg
1260.571	0.602	1	incongruent	Block2	incongruent/STIM_006.jpg
1264.704	0.636	1	incongruent	Block2	incongruent/STIM_006.jpg
1267.403	0.951	1	incongruent	Block2	incongruent/STIM_006.jpg
1272.294	0.603	1	incongruent	Block2	incongruent/STIM_006.jpg
1275.719	0.961	1	incongruent	Block2	incongruent/STIM_007.jpg
1280.356	1.116	1	incongruent	Block2	incongruent/STIM_007.jpg
1283.524	0.663	1	incongruent	Block2	incongruent/STIM_007.jpg
1286.662	0.673	1	incongruent	Block2	incongruent/STIM_007.jpg
1291.06	0.844	1	incongruent	Block2	incongruent/STIM_007.jpg
1294.829	0.676	1	incongruent	Block2	incongruent/STIM_008.jpg
1299.073	0.738	1	incongruent	Block2	incongruent/STIM_008.jpg
1302.903	0.77	1	incongruent	Block2	incongruent/STIM_008.jpg
1307.171	0.615	1	incongruent	Block2	incongruent/STIM_008.jpg
1310.274	0.604	1	incongruent	Block2	incongruent/STIM_008.jpg
1314.292	0.711	1	incongruent	Block2	incongruent/STIM_009.jpg
1318.999	0.778	1	incongruent	Block2	incongruent/STIM_009.jpg
1321.88	0.935	1	incongruent	Block2	incongruent/STIM_009.jpg
1325.917	0.956	1	incongruent	Block2	incongruent/STIM_009.jpg
1329.91	0.663	1	incongruent	Block2	incongruent/STIM_009.jpg
1332.668	1.127	1	incongruent	Block2	incongruent/STIM_010.jpg
1336.047	1.035	1	incongruent	Block2	incongruent/STIM_010.jpg
1340.142	1.073	1	incongruent	Block2	incongruent/STIM_010.jpg
1344.729	0.783	1	incongruent	Block2	incongruent/STIM_010.jpg
1348.345	0.824	1	incongruent	Block2	incongruent/STIM_010.jpg
1352.81	1.154	1	incongruent	Block2	incongruent/STIM_011.jpg
1357.419	0.831	1	incongruent	Block2	incongruent/STIM_011.jpg
1361.264	0.615	1	incongruent	Block2	incongruent/STIM_011.jpg
1364.245	0.61	1	incongruent	Block2	incongruent/STIM_011.jpg
1368.768	0.869	1	incongruent	Block2	incongruent/STIM_011.jpg
1372.149	1.208	1	incongruent	Block2	incongruent/STIM_012.jpg
1376.485	1.142	1	incongruent	Block2	incongruent/STIM_012.jpg
1381.002	0.827	1	incongruent	Block2	incongruent/STIM_012.jpg
1385.681	0.729	1	incongruent	Block2	incongruent/STIM_012.jpg
1389.662	0.733	1	incongruent	Block2	incongruent/STIM_012.jpg
1393.006	0.772	1	incongruent	Block2	incongruent/STIM_013.jpg
1397.692	0.95	1	incongruent	Block2	incongruent/STIM_013.jpg
1401.372	0.9	1	incongruent	Block2	incongruent/STIM_013.jpg
1404.847	0.888	1	incongruent	Block2	incongruent/STIM_013.jpg
1408.938	0.673	1	incongruent	Block2	incongruent/STIM_013.jpg
1413.165	1.084	1	incongruent	Block2	incongruent/STIM_014.jpg
1417.224	0.843	1	incongruent	Block2	incongruent/STIM_014.jpg
1421.261	0.688	1	incongruent	Block2	incongruent/STIM_014.jpg
1425.78	0.554	1	incongruent	Block2	incongruent/STIM_014.jpg
1428.668	0.808	1	incongruent	Block2	incongruent/STIM_014.jpg
1433.28	1.068	1	incongruent	Block2	incongruent/STIM_015.jpg
1437.321	0.718	1	incongruent	Block2	incongruent/STIM_015.jpg
1441.138	0.631	1	incongruent	Block2	incongruent/STIM_015.jpg
1443.86	0.67	1	incongruent	Block2	incongruent/STIM_015.jpg
1446.772	0.775	1	incongruent	Block2	incongruent/STIM_015.jpg
1449.814	0.667	1	incongruent	Block2	incongruent/STIM_016.jpg
1454.419	0.551	1	incongruent	Block2	incongruent/STIM_016.jpg
1458.585	0.659	1	incongruent	Block2	incongruent/STIM_016.jpg
1462.105	0.79	1	incongruent	Block2	incongruent/STIM_016.jpg
1465.561	0.914	1	incongruent	Block2	incongruent/STIM_016.jpg
1469.45	1.162	1	incongruent	Block2	incongruent/STIM_017.jpg
1473.014	0.603	1	incongruent	Block2	incongruent/STIM_017.jpg
1476.622	0.598	1	incongruent	Block2	incongruent/STIM_017.jpg
1480.345	0.679	1	incongruent	Block2	incongruent/STIM_017.jpg
1484.258	0.6	1	incongruent	Block2	incongruent/STIM_017.jpg
1486.998	0.645	1	incongruent	Block2	incongruent/STIM_018.jpg
1491.522	0.912	1	incongruent	Block2	incongruent/STIM_018.jpg
1495.637	0.658	1	incongruent	Block2	incongruent/STIM_018.jpg
1498.447	0.59	1	incongruent	Block2	incongruent/STIM_018.jpg
1502.519	0.616	1	incongruent	Block2	incongruent/STIM_018.jpg
1506.541	0.9	1	incongruent	Block2	incongruent/STIM_019.jpg
1510.825	1.145	1	incongruent	Block2	incongruent/STIM_019.jpg
1515.88	0.775	1	incongruent	Block2	incongruent/STIM_019.jpg
1519.777	0.901	1	incongruent	Block2	incongruent/STIM_019.jpg
1523.601	0.78	1	incongruent	Block2	incongruent/STIM_019.jpg
1527.57	0.837	1	incongruent	Block2	incongruent/STIM_020.jpg
1532.37	0.642	1	incongruent	Block2	incongruent/STIM_020.jpg
1536.506	0.58	1	incongruent	Block2	incongruent/STIM_020.jpg
1540.861	0.638	1	incongruent	Block2	incongruent/STIM_020.jpg
1544.386	0.952	1	incongruent	Block2	incongruent/STIM_020.jpg
1547.631	1.194	1	incongruent	Block2	incongruent/STIM_021.jpg
1552.694	0.572	1	incongruent	Block2	incongruent/STIM_021.jpg
1556.521	0.867	1	incongruent	Block2	incongruent/STIM_021.jpg
1560.941	0.779	1	incongruent	Block2	incongruent/STIM_021.jpg
1564.582	1.001	1	incongruent	Block2	incongruent/STIM_021.jpg
1569.317	0.58	1	incongruent	Block2	incongruent/STIM_022.jpg
1572.87	0.614	1	incongruent	Block2	incongruent/STIM_022.jpg
1575.788	0.926	1	incongruent	Block2	incongruent/STIM_022.jpg
1578.722	0.987	1	incongruent	Block2	incongruent/STIM_022.jpg
1582.524	0.563	1	incongruent	Block2	incongruent/STIM_022.jpg
1586.509	1.204	1	incongruent	Block2	incongruent/STIM_023.jpg
1591.018	0.549	1	incongruent	Block2	incongruent/STIM_023.jpg
1595.088	0.81	1	incongruent	Block2	incongruent/STIM_023.jpg
1599.68	0.986	1	incongruent	Block2	incongruent/STIM_023.jpg
1603.149	0.561	1	incongruent	Block2	incongruent/STIM_023.jpg
1605.732	0.76	1	incongruent	Block2	incongruent/STIM_024.jpg
1609.697	0.705	1	incongruent	Block2	incongruent/STIM_024.jpg
1613.352	0.937	1	incongruent	Block2	incongruent/STIM_024.jpg
1618.023	0.52	1	incongruent	Block2	incongruent/STIM_024.jpg
1620.779	0.988	1	incongruent	Block2	incongruent/STIM_024.jpg
1624.472	1.118	1	incongruent	Block2	incongruent/STIM_025.jpg
1628.627	1.07	1	incongruent	Block2	incongruent/STIM_025.jpg
1633.314	0.58	1	incongruent	Block2	incongruent/STIM_025.jpg
1637.302	0.51	1	incongruent	Block2	incongruent/STIM_025.jpg
1641.36	0.723	1	incongruent	Block2	incongruent/STIM_025.jpg
1644.243	0.872	1	incongruent	Block2	incongruent/STIM_026.jpg
1648.868	0.681	1	incongruent	Block2	incongruent/STIM_026.jpg
1653.222	0.674	0	incongruent	Block2	incongruent/STIM_026.jpg
1657.375	0.684	1	incongruent	Block2	incongruent/STIM_026.jpg
1661.185	0.69	1	incongruent	Block2	incongruent/STIM_026.jpg
1664.398	1.132	1	incongruent	Block2	incongruent/STIM_027.jpg
1667.703	0.563	1	incongruent	Block2	incongruent/STIM_027.jpg
1671.104	1.023	1	incongruent	Block2	incongruent/STIM_027.jpg
1675.404	0.512	1	incongruent	Block2	incongruent/STIM_027.jpg
1679.502	0.654	1	incongruent	Block2	incongruent/STIM_027.jpg
1682.189	0.589	0	incongruent	Block2	incongruent/STIM_028.jpg
1686.395	0.63	1	incongruent	Block2	incongruent/STIM_028.jpg
1690.096	0.893	0	incongruent	Block2	incongruent/STIM_028.jpg
1694.56	0.791	1	incongruent	Block2	incongruent/STIM_028.jpg
1698.46	0.69	1	incongruent	Block2	incongruent/STIM_028.jpg
1701.309	0.845	1	incongruent	Block2	incongruent/STIM_029.jpg
1704.44	0.831	1	incongruent	Block2	incongruent/STIM_029.jpg
1709.056	0.578	1	incongruent	Block2	incongruent/STIM_029.jpg
1713.557	0.865	1	incongruent	Block2	incongruent/STIM_029.jpg
1716.431	0.688	1	incongruent	Block2	incongruent/STIM_029.jpg
1720.362	0.624	1	congruent	Block2	congruent/STIM_000.jpg
1724.291	0.804	1	congruent	Block2	congruent/STIM_000.jpg
1727.579	0.685	1	congruent	Block2	congruent/STIM_000.jpg
1731.712	0.612	1	congruent	Block2	congruent/STIM_000.jpg
1736.039	0.643	1	congruent	Block2	congruent/STIM_000.jpg
1739.693	0.487	1	congruent	Block2	congruent/STIM_001.jpg
1742.881	0.567	1	congruent	Block2	congruent/STIM_001.jpg
1746.758	0.721	1	congruent	Block2	congruent/STIM_001.jpg
1750.277	0.764	1	congruent	Block2	congruent/STIM_001.jpg
1754.812	0.576	1	congruent	Block2	congruent/STIM_001.jpg
1757.881	0.53	1	congruent	Block2	congruent/STIM_002.jpg
1760.683	0.491	1	congruent	Block2	congruent/STIM_002.jpg
1763.495	0.841	1	congruent	Block2	congruent/STIM_002.jpg
1766.81	0.645	1	congruent	Block2	congruent/STIM_002.jpg
1770.746	0.81	1	congruent	Block2	congruent/STIM_002.jpg
1773.657	0.711	1	congruent	Block2	congruent/STIM_003.jpg
1777.031	0.5	1	congruent	Block2	congruent/STIM_003.jpg
1781.342	0.559	1	congruent	Block2	congruent/STIM_003.jpg
1784.674	0.609	1	congruent	Block2	congruent/STIM_003.jpg
1787.314	0.516	1	congruent	Block2	congruent/STIM_003.jpg
1789.914	0.844	1	congruent	Block2	congruent/STIM_004.jpg
1794.278	0.647	1	congruent	Block2	congruent/STIM_004.jpg
1797.294	0.796	1	congruent	Block2	congruent/STIM_004.jpg
1801.452	0.739	1	congruent	Block2	congruent/STIM_004.jpg
1805.576	0.859	1	congruent	Block2	congruent/STIM_004.jpg
1808.844	0.576	1	congruent	Block2	congruent/STIM_005.jpg
1812.879	0.578	1	congruent	Block2	congruent/STIM_005.jpg
1817.452	0.835	1	congruent	Block2	congruent/STIM_005.jpg
1821.842	0.732	1	congruent	Block2	congruent/STIM_005.jpg
1824.787	0.855	1	congruent	Block2	congruent/STIM_005.jpg
1829.034	0.79	1	congruent	Block2	congruent/STIM_006.jpg
1833.433	0.78	1	congruent	Block2	congruent/STIM_006.jpg
1836.262	0.748	1	congruent	Block2	congruent/STIM_006.jpg
1839.458	0.651	1	congruent	Block2	congruent/STIM_006.jpg
1843.555	0.734	1	congruent	Block2	congruent/STIM_006.jpg
1846.866	0.518	1	congruent	Block2	congruent/STIM_007.jpg
1849.61	0.633	1	congruent	Block2	congruent/STIM_007.jpg
1852.961	0.483	1	congruent	Block2	congruent/STIM_007.jpg
1856.387	0.481	1	congruent	Block2	congruent/STIM_007.jpg
1859.205	0.541	1	congruent	Block2	congruent/STIM_007.jpg
1862.479	0.807	1	congruent	Block2	congruent/STIM_008.jpg
1866.967	0.858	1	congruent	Block2	congruent/STIM_008.jpg
1870.005	0.831	1	congruent	Block2	congruent/STIM_008.jpg
1874.693	0.582	1	congruent	Block2	congruent/STIM_008.jpg
1878.14	0.716	1	congruent	Block2	congruent/STIM_008.jpg
1882.63	0.755	1	congruent	Block2	congruent/STIM_009.jpg
1886.155	0.815	1	congruent	Block2	congruent/STIM_009.jpg
1890.217	0.531	1	congruent	Block2	congruent/STIM_009.jpg
1893.119	0.642	1	congruent	Block2	congruent/STIM_009.jpg
1897.383	0.615	1	congruent	Block2	congruent/STIM_009.jpg
1901.533	0.694	1	congruent	Block2	congruent/STIM_010.jpg
1905.265	0.658	1	congruent	Block2	congruent/STIM_010.jpg
1909.269	0.746	1	congruent	Block2	congruent/STIM_010.jpg
1913.726	0.598	1	congruent	Block2	congruent/STIM_010.jpg
1916.621	0.625	1	congruent	Block2	congruent/STIM_010.jpg
1920.184	0.523	1	congruent	Block2	congruent/STIM_011.jpg
1923.495	0.742	1	congruent	Block2	congruent/STIM_011.jpg
1928.082	0.709	1	congruent	Block2	congruent/STIM_011.jpg
1931.374	0.601	1	congruent	Block2	congruent/STIM_011.jpg
1934.857	0.567	0	congruent	Block2	congruent/STIM_011.jpg
1938.901	0.623	1	congruent	Block2	congruent/STIM_012.jpg
1943.338	0.533	1	congruent	Block2	congruent/STIM_012.jpg
1947.173	0.6	1	congruent	Block2	congruent/STIM_012.jpg
1951.598	0.598	1	congruent	Block2	congruent/STIM_012.jpg
1955.946	0.5	1	congruent	Block2	congruent/STIM_012.jpg
1959.768	0.823	1	congruent	Block2	congruent/STIM_013.jpg
1963.62	0.748	1	congruent	Block2	congruent/STIM_013.jpg
1967.216	0.814	1	congruent	Block2	congruent/STIM_013.jpg
1971.187	0.567	1	congruent	Block2	congruent/STIM_013.jpg
1974.226	0.826	1	congruent	Block2	congruent/STIM_013.jpg
1977.142	0.632	1	congruent	Block2	congruent/STIM_014.jpg
1980.303	0.864	1	congruent	Block2	congruent/STIM_014.jpg
1983.876	0.552	1	congruent	Block2	congruent/STIM_014.jpg
1988.397	0.505	1	congruent	Block2	congruent/STIM_014.jpg
1991.638	0.671	1	congruent	Block2	congruent/STIM_014.jpg
1995.092	0.835	1	congruent	Block2	congruent/STIM_015.jpg
1998.015	0.792	1	congruent	Block2	congruent/STIM_015.jpg
2002.373	0.502	1	congruent	Block2	congruent/STIM_015.jpg
2006.689	0.588	1	congruent	Block2	congruent/STIM_015.jpg
2009.69	0.825	1	congruent	Block2	congruent/STIM_015.jpg
2013.545	0.576	1	congruent	Block2	congruent/STIM_016.jpg
2017.477	0.619	1	congruent	Block2	congruent/STIM_016.jpg
2020.768	0.706	1	congruent	Block2	congruent/STIM_016.jpg
2024.276	0.858	1	congruent	Block2	congruent/STIM_016.jpg
2028.742	0.605	1	congruent	Block2	congruent/STIM_016.jpg
2031.437	0.482	1	congruent	Block2	congruent/STIM_017.jpg
2034.27	0.658	1	congruent	Block2	congruent/STIM_017.jpg
2037.429	0.584	1	congruent	Block2	congruent/STIM_017.jpg
2040.89	0.844	1	congruent	Block2	congruent/STIM_017.jpg
2044.395	0.727	1	congruent	Block2	congruent/STIM_017.jpg
2047.946	0.698	1	congruent	Block2	congruent/STIM_018.jpg
2051.669	0.55	1	congruent	Block2	congruent/STIM_018.jpg
2054.574	0.637	1	congruent	Block2	congruent/STIM_018.jpg
2059.179	0.584	1	congruent	Block2	congruent/STIM_018.jpg
2063.06	0.81	1	congruent	Block2	congruent/STIM_018.jpg
2067.024	0.562	1	congruent	Block2	congruent/STIM_019.jpg
2069.714	0.74	1	congruent	Block2	congruent/STIM_019.jpg
2073.229	0.632	1	congruent	Block2	congruent/STIM_019.jpg
2076.083	0.77	1	congruent	Block2	congruent/STIM_019.jpg
2080.065	0.725	1	congruent	Block2	congruent/STIM_019.jpg
2083.994	0.546	1	congruent	Block2	congruent/STIM_020.jpg
2086.742	0.576	1	congruent	Block2	congruent/STIM_020.jpg
2090.43	0.59	1	congruent	Block2	congruent/STIM_020.jpg
2094.627	0.6	1	congruent	Block2	congruent/STIM_020.jpg
2098.87	0.838	1	congruent	Block2	congruent/STIM_020.jpg
2101.872	0.795	1	congruent	Block2	congruent/STIM_021.jpg
2106.385	0.656	1	congruent	Block2	congruent/STIM_021.jpg
2110.976	0.659	1	congruent	Block2	congruent/STIM_021.jpg
2115.067	0.695	1	congruent	Block2	congruent/STIM_021.jpg
2118.848	0.832	1	congruent	Block2	congruent/STIM_021.jpg
2121.926	0.527	1	congruent	Block2	congruent/STIM_022.jpg
2126.307	0.534	1	congruent	Block2	congruent/STIM_022.jpg
2130.419	0.684	1	congruent	Block2	congruent/STIM_022.jpg
2133.665	0.614	1	congruent	Block2	congruent/STIM_022.jpg
2137.499	0.574	1	congruent	Block2	congruent/STIM_022.jpg
2141.8	0.595	1	congruent	Block2	congruent/STIM_023.jpg
2145.824	0.761	1	congruent	Block2	congruent/STIM_023.jpg
2149.261	0.568	1	congruent	Block2	congruent/STIM_023.jpg
2151.983	0.55	1	congruent	Block2	congruent/STIM_023.jpg
2154.616	0.537	1	congruent	Block2	congruent/STIM_023.jpg
2158.994	0.784	1	congruent	Block2	congruent/STIM_024.jpg
2163.739	0.756	1	congruent	Block2	congruent/STIM_024.jpg
2167.184	0.71	1	congruent	Block2	congruent/STIM_024.jpg
2171.126	0.711	1	congruent	Block2	congruent/STIM_024.jpg
2174.639	0.515	0	congruent	Block2	congruent/STIM_024.jpg
2177.5	0.714	1	congruent	Block2	congruent/STIM_025.jpg
2180.991	0.722	1	congruent	Block2	congruent/STIM_025.jpg
2184.845	0.629	1	congruent	Block2	congruent/STIM_025.jpg
2188.789	0.601	1	congruent	Block2	congruent/STIM_025.jpg
2192.845	0.756	1	congruent	Block2	congruent/STIM_025.jpg
2196.376	0.666	1	congruent	Block2	congruent/STIM_026.jpg
2200.987	0.72	1	congruent	Block2	congruent/STIM_026.jpg
2205.149	0.579	1	congruent	Block2	congruent/STIM_026.jpg
2208.576	0.483	1	congruent	Block2	congruent/STIM_026.jpg
2212.546	0.75	1	congruent	Block2	congruent/STIM_026.jpg
2215.961	0.602	1	congruent	Block2	congruent/STIM_027.jpg
2218.625	0.515	1	congruent	Block2	congruent/STIM_027.jpg
2222.704	0.683	1	congruent	Block2	congruent/STIM_027.jpg
2226.763	0.669	1	congruent	Block2	congruent/STIM_027.jpg
2230.354	0.629	1	congruent	Block2	congruent/STIM_027.jpg
2234.343	0.578	1	congruent	Block2	congruent/STIM_028.jpg
2238.753	0.809	1	congruent	Block2	congruent/STIM_028.jpg
2242.945	0.6	1	congruent	Block2	congruent/STIM_028.jpg
2247.022	0.747	1	congruent	Block2	congruent/STIM_028.jpg
2249.997	0.655	1	congruent	Block2	congruent/STIM_028.jpg
2254.052	0.586	1	congruent	Block2	congruent/STIM_029.jpg
2256.733	0.66	1	congruent	Block2	congruent/STIM_029.jpg
2261.39	0.731	1	congruent	Block2	congruent/STIM_029.jpg
2265.376	0.635	0	congruent	Block2	congruent/STIM_029.jpg
2268.477	0.551	1	congruent	Block2	congruent/STIM_029.jpg
2272.906	0.606	1	incongruent	Block3	incongruent/STIM_000.jpg
2275.71	0.6	1	incongruent	Block3	incongruent/STIM_000.jpg
2279.327	0.906	1	incongruent	Block3	incongruent/STIM_000.jpg
2283.13	0.909	1	incongruent	Block3	incongruent/STIM_000.jpg
2287.332	0.714	1	incongruent	Block3	incongruent/STIM_000.jpg
2291.247	0.83	1	incongruent	Block3	incongruent/STIM_001.jpg
2295.014	0.514	1	incongruent	Block3	incongruent/STIM_001.jpg
2298.005	0.556	1	incongruent	Block3	incongruent/STIM_001.jpg
2300.856	0.478	1	incongruent	Block3	incongruent/STIM_001.jpg
2303.777	0.766	1	incongruent	Block3	incongruent/STIM_001.jpg
2307.904	0.983	1	incongruent	Block3	incongruent/STIM_002.jpg
2311.533	0.704	1	incongruent	Block3	incongruent/STIM_002.jpg
2315.581	1.0	1	incongruent	Block3	incongruent/STIM_002.jpg
2319.366	0.725	1	incongruent	Block3	incongruent/STIM_002.jpg
2323.017	0.732	1	incongruent	Block3	incongruent/STIM_002.jpg
2326.633	0.685	1	incongruent	Block3	incongruent/STIM_003.jpg
2330.421	0.484	1	incongruent	Block3	incongruent/STIM_003.jpg
2334.335	0.766	1	incongruent	Block3	incongruent/STIM_003.jpg
2338.181	0.832	1	incongruent	Block3	incongruent/STIM_003.jpg
2341.474	0.55	1	incongruent	Block3	incongruent/STIM_003.jpg
2344.232	0.606	1	incongruent	Block3	incongruent/STIM_004.jpg
2347.631	0.861	1	incongruent	Block3	incongruent/STIM_004.jpg
2350.527	0.995	1	incongruent	Block3	incongruent/STIM_004.jpg
2355.089	0.642	1	incongruent	Block3	incongruent/STIM_004.jpg
2358.977	0.966	0	incongruent	Block3	incongruent/STIM_004.jpg
2363.208	0.65	1	incongruent	Block3	incongruent/STIM_005.jpg
2366.032	0.524	1	incongruent	Block3	incongruent/STIM_005.jpg
2370.246	0.826	1	incongruent	Block3	incongruent/STIM_005.jpg
2374.659	0.728	1	incongruent	Block3	incongruent/STIM_005.jpg
2379.213	0.715	1	incongruent	Block3	incongruent/STIM_005.jpg
2383.054	0.837	1	incongruent	Block3	incongruent/STIM_006.jpg
2387.156	0.878	1	incongruent	Block3	incongruent/STIM_006.jpg
2390.097	0.793	1	incongruent	Block3	incongruent/STIM_006.jpg
2393.42	0.724	1	incongruent	Block3	incongruent/STIM_006.jpg
2397.051	0.813	1	incongruent	Block3	incongruent/STIM_006.jpg
2401.832	0.877	1	incongruent	Block3	incongruent/STIM_007.jpg
2405.067	0.92	1	incongruent	Block3	incongruent/STIM_007.jpg
2409.064	0.788	1	incongruent	Block3	incongruent/STIM_007.jpg
2412.943	0.722	1	incongruent	Block3	incongruent/STIM_007.jpg
2416.13	0.949	1	incongruent	Block3	incongruent/STIM_007.jpg
2420.973	0.983	1	incongruent	Block3	incongruent/STIM_008.jpg
2425.366	0.803	1	incongruent	Block3	incongruent/STIM_008.jpg
2429.413	0.759	1	incongruent	Block3	incongruent/STIM_008.jpg
2433.677	0.519	1	incongruent	Block3	incongruent/STIM_008.jpg
2437.288	0.963	1	incongruent	Block3	incongruent/STIM_008.jpg
2440.283	0.63	1	incongruent	Block3	incongruent/STIM_009.jpg
2443.437	1.005	1	incongruent	Block3	incongruent/STIM_009.jpg
2447.068	0.936	1	incongruent	Block3	incongruent/STIM_009.jpg
2451.23	0.54	1	incongruent	Block3	incongruent/STIM_009.jpg
2455.467	0.728	1	incongruent	Block3	incongruent/STIM_009.jpg
2459.713	0.683	1	incongruent	Block3	incongruent/STIM_010.jpg
2462.482	0.849	1	incongruent	Block3	incongruent/STIM_010.jpg
2466.149	0.652	1	incongruent	Block3	incongruent/STIM_010.jpg
2469.482	0.59	1	incongruent	Block3	incongruent/STIM_010.jpg
2474.029	0.496	1	incongruent	Block3	incongruent/STIM_010.jpg
2476.971	0.544	1	incongruent	Block3	incongruent/STIM_011.jpg
2479.568	0.877	1	incongruent	Block3	incongruent/STIM_011.jpg
2483.793	0.842	1	incongruent	Block3	incongruent/STIM_011.jpg
2486.642	0.548	1	incongruent	Block3	incongruent/STIM_011.jpg
2489.324	0.587	1	incongruent	Block3	incongruent/STIM_011.jpg
2492.008	0.588	1	incongruent	Block3	incongruent/STIM_012.jpg
2495.127	0.895	1	incongruent	Block3	incongruent/STIM_012.jpg
2498.217	0.645	1	incongruent	Block3	incongruent/STIM_012.jpg
2501.278	0.587	1	incongruent	Block3	incongruent/STIM_012.jpg
2504.191	0.519	1	incongruent	Block3	incongruent/STIM_012.jpg
2508.005	0.919	1	incongruent	Block3	incongruent/STIM_013.jpg
2510.952	0.812	1	incongruent	Block3	incongruent/STIM_013.jpg
2513.851	0.828	1	incongruent	Block3	incongruent/STIM_013.jpg
2518.375	0.632	1	incongruent	Block3	incongruent/STIM_013.jpg
2521.276	1.002	1	incongruent	Block3	incongruent/STIM_013.jpg
2526.004	0.892	1	incongruent	Block3	incongruent/STIM_014.jpg
2529.069	0.972	1	incongruent	Block3	incongruent/STIM_014.jpg
2532.107	0.56	1	incongruent	Block3	incongruent/STIM_014.jpg
2534.887	0.755	0	incongruent	Block3	incongruent/STIM_014.jpg
2538.626	0.776	1	incongruent	Block3	incongruent/STIM_014.jpg
2541.77	0.485	1	incongruent	Block3	incongruent/STIM_015.jpg
2545.785	0.938	1	incongruent	Block3	incongruent/STIM_015.jpg
2550.255	0.692	1	incongruent	Block3	incongruent/STIM_015.jpg
2554.944	0.817	1	incongruent	Block3	incongruent/STIM_015.jpg
2559.544	0.782	1	incongruent	Block3	incongruent/STIM_015.jpg
2563.8	0.549	1	incongruent	Block3	incongruent/STIM_016.jpg
2567.912	0.473	1	incongruent	Block3	incongruent/STIM_016.jpg
2570.404	0.7	1	incongruent	Block3	incongruent/STIM_016.jpg
2573.463	0.718	1	incongruent	Block3	incongruent/STIM_016.jpg
2577.617	0.966	1	incongruent	Block3	incongruent/STIM_016.jpg
2581.461	0.816	1	incongruent	Block3	incongruent/STIM_017.jpg
2585.742	0.737	1	incongruent	Block3	incongruent/STIM_017.jpg
2588.977	0.607	1	incongruent	Block3	incongruent/STIM_017.jpg
2593.116	0.838	1	incongruent	Block3	incongruent/STIM_017.jpg
2597.883	0.86	1	incongruent	Block3	incongruent/STIM_017.jpg
2602.233	0.579	1	incongruent	Block3	incongruent/STIM_018.jpg
2606.669	0.852	1	incongruent	Block3	incongruent/STIM_018.jpg
2609.747	0.606	1	incongruent	Block3	incongruent/STIM_018.jpg
2614.21	0.996	1	incongruent	Block3	incongruent/STIM_018.jpg
2617.988	0.77	1	incongruent	Block3	incongruent/STIM_018.jpg
2622.571	0.832	1	incongruent	Block3	incongruent/STIM_019.jpg
2625.626	0.527	1	incongruent	Block3	incongruent/STIM_019.jpg
2628.841	0.554	0	incongruent	Block3	incongruent/STIM_019.jpg
2633.075	0.792	1	incongruent	Block3	incongruent/STIM_019.jpg
2636.658	0.915	1	incongruent	Block3	incongruent/STIM_019.jpg
2641.479	0.758	1	incongruent	Block3	incongruent/STIM_020.jpg
2645.305	0.6	1	incongruent	Block3	incongruent/STIM_020.jpg
2649.175	0.573	1	incongruent	Block3	incongruent/STIM_020.jpg
2653.367	0.808	1	incongruent	Block3	incongruent/STIM_020.jpg
2656.823	0.784	1	incongruent	Block3	incongruent/STIM_020.jpg
2661.555	0.66	1	incongruent	Block3	incongruent/STIM_021.jpg
2664.392	0.896	1	incongruent	Block3	incongruent/STIM_021.jpg
2667.744	0.838	1	incongruent	Block3	incongruent/STIM_021.jpg
2671.604	0.799	1	incongruent	Block3	incongruent/STIM_021.jpg
2675.69	0.958	1	incongruent	Block3	incongruent/STIM_021.jpg
2680.519	0.838	1	incongruent	Block3	incongruent/STIM_022.jpg
2684.089	0.538	1	incongruent	Block3	incongruent/STIM_022.jpg
2687.428	0.733	1	incongruent	Block3	incongruent/STIM_022.jpg
2690.187	0.839	1	incongruent	Block3	incongruent/STIM_022.jpg
2693.877	0.74	1	incongruent	Block3	incongruent/STIM_022.jpg
2696.88	0.987	1	incongruent	Block3	incongruent/STIM_023.jpg
2700.03	0.531	1	incongruent	Block3	incongruent/STIM_023.jpg
2703.539	0.623	1	incongruent	Block3	incongruent/STIM_023.jpg
2707.876	0.489	1	incongruent	Block3	incongruent/STIM_023.jpg
2712.096	1.001	1	incongruent	Block3	incongruent/STIM_023.jpg
2716.232	0.569	1	incongruent	Block3	incongruent/STIM_024.jpg
2720.085	0.598	1	incongruent	Block3	incongruent/STIM_024.jpg
2724.085	0.779	1	incongruent	Block3	incongruent/STIM_024.jpg
2728.484	0.661	1	incongruent	Block3	incongruent/STIM_024.jpg
2731.74	1.003	1	incongruent	Block3	incongruent/STIM_024.jpg
2735.859	0.6	1	incongruent	Block3	incongruent/STIM_025.jpg
2739.945	1.004	1	incongruent	Block3	incongruent/STIM_025.jpg
2743.039	0.527	1	incongruent	Block3	incongruent/STIM_025.jpg
2747.309	0.66	1	incongruent	Block3	incongruent/STIM_025.jpg
2751.828	0.679	1	incongruent	Block3	incongruent/STIM_025.jpg
2755.007	0.562	1	incongruent	Block3	incongruent/STIM_026.jpg
2759.291	1.004	1	incongruent	Block3	incongruent/STIM_026.jpg
2762.497	0.547	1	incongruent	Block3	incongruent/STIM_026.jpg
2766.877	0.842	1	incongruent	Block3	incongruent/STIM_026.jpg
2769.946	0.796	1	incongruent	Block3	incongruent/STIM_026.jpg
2774.293	0.772	1	incongruent	Block3	incongruent/STIM_027.jpg
2778.624	0.714	1	incongruent	Block3	incongruent/STIM_027.jpg
2782.221	0.987	1	incongruent	Block3	incongruent/STIM_027.jpg
2785.888	0.87	1	incongruent	Block3	incongruent/STIM_027.jpg
2790.087	0.563	1	incongruent	Block3	incongruent/STIM_027.jpg
2792.779	0.646	1	incongruent	Block3	incongruent/STIM_028.jpg
2797.114	1.007	1	incongruent	Block3	incongruent/STIM_028.jpg
2801.17	0.946	1	incongruent	Block3	incongruent/STIM_028.jpg
2805.506	0.948	1	incongruent	Block3	incongruent/STIM_028.jpg
2808.773	0.481	1	incongruent	Block3	incongruent/STIM_028.jpg
2812.461	0.979	1	incongruent	Block3	incongruent/STIM_029.jpg
2816.831	0.611	1	incongruent	Block3	incongruent/STIM_029.jpg
2820.007	0.773	1	incongruent	Block3	incongruent/STIM_029.jpg
2824.707	0.62	1	incongruent	Block3	incongruent/STIM_029.jpg
2828.456	0.814	1	incongruent	Block3	incongruent/STIM_029.jpg
2832.967	0.815	1	congruent	Block3	congruent/STIM_000.jpg
2837.418	0.626	1	congruent	Block3	congruent/STIM_000.jpg
2841.515	0.547	1	congruent	Block3	congruent/STIM_000.jpg
2844.502	0.579	1	congruent	Block3	congruent/STIM_000.jpg
2847.574	0.554	1	congruent	Block3	congruent/STIM_000.jpg
2852.045	0.808	1	congruent	Block3	congruent/STIM_001.jpg
2856.06	0.519	1	congruent	Block3	congruent/STIM_001.jpg
2859.401	0.766	1	congruent	Block3	congruent/STIM_001.jpg
2862.607	0.837	1	congruent	Block3	congruent/STIM_001.jpg
2866.182	0.825	1	congruent	Block3	congruent/STIM_001.jpg
2869.089	0.763	1	congruent	Block3	congruent/STIM_002.jpg
2873.04	0.603	1	congruent	Block3	congruent/STIM_002.jpg
2876.331	0.505	1	congruent	Block3	congruent/STIM_002.jpg
2878.956	0.75	1	congruent	Block3	congruent/STIM_002.jpg
2882.923	0.5	1	congruent	Block3	congruent/STIM_002.jpg
2887.346	0.692	1	congruent	Block3	congruent/STIM_003.jpg
2891.371	0.772	1	congruent	Block3	congruent/STIM_003.jpg
2894.489	0.56	1	congruent	Block3	congruent/STIM_003.jpg
2898.413	0.715	1	congruent	Block3	congruent/STIM_003.jpg
2901.746	0.61	1	congruent	Block3	congruent/STIM_003.jpg
2905.145	0.603	1	congruent	Block3	congruent/STIM_004.jpg
2908.26	0.61	1	congruent	Block3	congruent/STIM_004.jpg
2911.425	0.669	1	congruent	Block3	congruent/STIM_004.jpg
2914.908	0.653	1	congruent	Block3	congruent/STIM_004.jpg
2918.598	0.481	1	congruent	Block3	congruent/STIM_004.jpg
2922.755	0.834	1	congruent	Block3	congruent/STIM_005.jpg
2926.808	0.686	1	congruent	Block3	congruent/STIM_005.jpg
2930.909	0.717	1	congruent	Block3	congruent/STIM_005.jpg
2934.034	0.821	1	congruent	Block3	congruent/STIM_005.jpg
2937.076	0.496	1	congruent	Block3	congruent/STIM_005.jpg
2940.984	0.712	1	congruent	Block3	congruent/STIM_006.jpg
2945.418	0.59	1	congruent	Block3	congruent/STIM_006.jpg
2948.602	0.633	1	congruent	Block3	congruent/STIM_006.jpg
2952.626	0.727	1	congruent	Block3	congruent/STIM_006.jpg
2956.768	0.551	1	congruent	Block3	congruent/STIM_006.jpg
2960.665	0.645	1	congruent	Block3	congruent/STIM_007.jpg
2964.965	0.561	1	congruent	Block3	congruent/STIM_007.jpg
2968.088	0.766	1	congruent	Block3	congruent/STIM_007.jpg
2971.646	0.856	1	congruent	Block3	congruent/STIM_007.jpg
2975.295	0.626	1	congruent	Block3	congruent/STIM_007.jpg
2978.371	0.62	1	congruent	Block3	congruent/STIM_008.jpg
2981.81	0.658	1	congruent	Block3	congruent/STIM_008.jpg
2985.166	0.624	1	congruent	Block3	congruent/STIM_008.jpg
2989.518	0.816	1	congruent	Block3	congruent/STIM_008.jpg
2993.08	0.775	1	congruent	Block3	congruent/STIM_008.jpg
2996.598	0.63	1	congruent	Block3	congruent/STIM_009.jpg
3000.14	0.678	1	congruent	Block3	congruent/STIM_009.jpg
3002.928	0.565	1	congruent	Block3	congruent/STIM_009.jpg
3007.014	0.704	1	congruent	Block3	congruent/STIM_009.jpg
3011.44	0.782	1	congruent	Block3	congruent/STIM_009.jpg
3014.641	0.738	1	congruent	Block3	congruent/STIM_010.jpg
3019.202	0.856	1	congruent	Block3	congruent/STIM_010.jpg
3022.972	0.803	1	congruent	Block3	congruent/STIM_010.jpg
3026.754	0.81	1	congruent	Block3	congruent/STIM_010.jpg
3031.502	0.688	1	congruent	Block3	congruent/STIM_010.jpg
3034.939	0.737	1	congruent	Block3	congruent/STIM_011.jpg
3038.474	0.745	1	congruent	Block3	congruent/STIM_011.jpg
3042.237	0.554	1	congruent	Block3	congruent/STIM_011.jpg
3045.855	0.702	1	congruent	Block3	congruent/STIM_011.jpg
3048.648	0.705	1	congruent	Block3	congruent/STIM_011.jpg
3052.638	0.654	1	congruent	Block3	congruent/STIM_012.jpg
3056.086	0.671	1	congruent	Block3	congruent/STIM_012.jpg
3059.305	0.591	1	congruent	Block3	congruent/STIM_012.jpg
3062.52	0.632	1	congruent	Block3	congruent/STIM_012.jpg
3066.453	0.754	1	congruent	Block3	congruent/STIM_012.jpg
3069.809	0.777	1	congruent	Block3	congruent/STIM_013.jpg
3074.341	0.626	1	congruent	Block3	congruent/STIM_013.jpg
3077.593	0.607	1	congruent	Block3	congruent/STIM_013.jpg
3082.165	0.827	1	congruent	Block3	congruent/STIM_013.jpg
3086.575	0.514	1	congruent	Block3	congruent/STIM_013.jpg
3090.883	0.735	1	congruent	Block3	congruent/STIM_014.jpg
3095.272	0.856	1	congruent	Block3	congruent/STIM_014.jpg
3099.679	0.702	1	congruent	Block3	congruent/STIM_014.jpg
3102.513	0.644	1	congruent	Block3	congruent/STIM_014.jpg
3106.866	0.702	1	congruent	Block3	congruent/STIM_014.jpg
3110.381	0.499	1	congruent	Block3	congruent/STIM_015.jpg
3114.115	0.815	1	congruent	Block3	congruent/STIM_015.jpg
3117.574	0.682	1	congruent	Block3	congruent/STIM_015.jpg
3121.188	0.801	1	congruent	Block3	congruent/STIM_015.jpg
3124.104	0.811	1	congruent	Block3	congruent/STIM_015.jpg
3127.766	0.54	1	congruent	Block3	congruent/STIM_016.jpg
3131.513	0.85	1	congruent	Block3	congruent/STIM_016.jpg
3135.355	0.862	1	congruent	Block3	congruent/STIM_016.jpg
3138.492	0.788	1	congruent	Block3	congruent/STIM_016.jpg
3143.162	0.552	1	congruent	Block3	congruent/STIM_016.jpg
3146.301	0.699	1	congruent	Block3	congruent/STIM_017.jpg
3149.727	0.482	1	congruent	Block3	congruent/STIM_017.jpg
3154.025	0.607	1	congruent	Block3	congruent/STIM_017.jpg
3158.122	0.662	1	congruent	Block3	congruent/STIM_017.jpg
3162.486	0.825	1	congruent	Block3	congruent/STIM_017.jpg
3165.842	0.677	1	congruent	Block3	congruent/STIM_018.jpg
3168.576	0.495	1	congruent	Block3	congruent/STIM_018.jpg
3172.688	0.862	1	congruent	Block3	congruent/STIM_018.jpg
3177.531	0.74	1	congruent	Block3	congruent/STIM_018.jpg
3181.511	0.62	1	congruent	Block3	congruent/STIM_018.jpg
3184.517	0.707	1	congruent	Block3	congruent/STIM_019.jpg
3188.806	0.814	1	congruent	Block3	congruent/STIM_019.jpg
3193.095	0.58	1	congruent	Block3	congruent/STIM_019.jpg
3196.697	0.64	1	congruent	Block3	congruent/STIM_019.jpg
3199.344	0.773	1	congruent	Block3	congruent/STIM_019.jpg
3202.15	0.762	1	congruent	Block3	congruent/STIM_020.jpg
3205.611	0.774	1	congruent	Block3	congruent/STIM_020.jpg
3209.363	0.52	1	congruent	Block3	congruent/STIM_020.jpg
3212.35	0.845	1	congruent	Block3	congruent/STIM_020.jpg
3216.922	0.653	1	congruent	Block3	congruent/STIM_020.jpg
3219.879	0.577	1	congruent	Block3	congruent/STIM_021.jpg
3223.047	0.807	1	congruent	Block3	congruent/STIM_021.jpg
3227.161	0.625	1	congruent	Block3	congruent/STIM_021.jpg
3230.511	0.61	1	congruent	Block3	congruent/STIM_021.jpg
3234.69	0.707	1	congruent	Block3	congruent/STIM_021.jpg
3238.041	0.706	1	congruent	Block3	congruent/STIM_022.jpg
3240.899	0.597	1	congruent	Block3	congruent/STIM_022.jpg
3244.389	0.562	1	congruent	Block3	congruent/STIM_022.jpg
3248.04	0.654	1	congruent	Block3	congruent/STIM_022.jpg
3250.903	0.748	1	congruent	Block3	congruent/STIM_022.jpg
3254.346	0.536	1	congruent	Block3	congruent/STIM_023.jpg
3256.952	0.812	1	congruent	Block3	congruent/STIM_023.jpg
3261.461	0.714	1	congruent	Block3	congruent/STIM_023.jpg
3265.532	0.708	1	congruent	Block3	congruent/STIM_023.jpg
3269.635	0.71	1	congruent	Block3	congruent/STIM_023.jpg
3273.957	0.48	1	congruent	Block3	congruent/STIM_024.jpg
3277.629	0.752	1	congruent	Block3	congruent/STIM_024.jpg
3280.97	0.556	1	congruent	Block3	congruent/STIM_024.jpg
3284.669	0.828	1	congruent	Block3	congruent/STIM_024.jpg
3289.495	0.754	1	congruent	Block3	congruent/STIM_024.jpg
3293.685	0.531	1	congruent	Block3	congruent/STIM_025.jpg
3297.065	0.536	0	congruent	Block3	congruent/STIM_025.jpg
3300.933	0.776	1	congruent	Block3	congruent/STIM_025.jpg
3303.916	0.847	1	congruent	Block3	congruent/STIM_025.jpg
3308.388	0.686	1	congruent	Block3	congruent/STIM_025.jpg
3312.106	0.825	1	congruent	Block3	congruent/STIM_026.jpg
3316.391	0.753	1	congruent	Block3	congruent/STIM_026.jpg
3320.402	0.812	1	congruent	Block3	congruent/STIM_026.jpg
3324.555	0.484	1	congruent	Block3	congruent/STIM_026.jpg
3327.871	0.669	1	congruent	Block3	congruent/STIM_026.jpg
3331.835	0.703	1	congruent	Block3	congruent/STIM_027.jpg
3335.155	0.485	1	congruent	Block3	congruent/STIM_027.jpg
3338.56	0.696	1	congruent	Block3	congruent/STIM_027.jpg
3341.541	0.719	1	congruent	Block3	congruent/STIM_027.jpg
3345.619	0.554	1	congruent	Block3	congruent/STIM_027.jpg
3348.521	0.807	1	congruent	Block3	congruent/STIM_028.jpg
3352.294	0.747	1	congruent	Block3	congruent/STIM_028.jpg
3355.266	0.535	1	congruent	Block3	congruent/STIM_028.jpg
3359.72	0.693	1	congruent	Block3	congruent/STIM_028.jpg
3362.999	0.855	1	congruent	Block3	congruent/STIM_028.jpg
3366.257	0.618	1	congruent	Block3	congruent/STIM_029.jpg
3369.511	0.551	1	congruent	Block3	congruent/STIM_029.jpg
3372.885	0.504	1	congruent	Block3	congruent/STIM_029.jpg
3376.941	0.693	1	congruent	Block3	congruent/STIM_029.jpg
3381.318	0.788	1	congruent	Block3	congruent/STIM_029.jpg
