onset	duration	response_time_ms	trial_type	learning_stage	stimulus	response_port
0.0	2.445	2444.9	navigation	Trial1	navigation/STIM_000.jpg	99
4.94	3.769	3769.4	navigation	Trial1	navigation/STIM_000.jpg	100
12.257	3.625	3624.7	navigation	Trial1	navigation/STIM_000.jpg	99
17.651	3.01	3009.8	navigation	Trial1	navigation/STIM_000.jpg	100
22.862	3.023	3023.0	navigation	Trial1	navigation/STIM_000.jpg	99
29.171	3.103	3102.9	navigation	Trial1	navigation/STIM_000.jpg	100
34.269	4.39	4390.3	navigation	Trial1	navigation/STIM_001.jpg	100
40.386	3.852	3852.5	navigation	Trial1	navigation/STIM_001.jpg	100
47.464	2.782	2781.7	navigation	Trial1	navigation/STIM_001.jpg	100
53.323	3.605	3604.8	navigation	Trial1	navigation/STIM_001.jpg	99
59.841	3.56	3560.2	navigation	Trial1	navigation/STIM_001.jpg	100
67.068	3.999	3999.3	navigation	Trial1	navigation/STIM_001.jpg	100
73.292	2.471	2470.6	navigation	Trial1	navigation/STIM_002.jpg	99
79.468	2.99	2989.6	navigation	Trial1	navigation/STIM_002.jpg	99
85.94	2.852	2852.3	navigation	Trial1	navigation/STIM_002.jpg	100
91.673	2.103	2102.6	navigation	Trial1	navigation/STIM_002.jpg	100
97.005	2.319	2318.9	navigation	Trial1	navigation/STIM_002.jpg	100
102.287	2.37	2369.9	navigation	Trial1	navigation/STIM_002.jpg	100
106.708	5.139	5138.9	navigation	Trial1	navigation/STIM_003.jpg	100
113.358	4.989	4988.6	navigation	Trial1	navigation/STIM_003.jpg	100
121.322	3.93	3929.6	navigation	Trial1	navigation/STIM_003.jpg	99
127.858	4.434	4433.8	navigation	Trial1	navigation/STIM_003.jpg	99
134.776	3.855	3855.2	navigation	Trial1	navigation/STIM_003.jpg	100
141.014	3.174	3174.3	navigation	Trial1	navigation/STIM_003.jpg	100
146.54	3.287	3287.0	navigation	Trial1	navigation/STIM_004.jpg	99
151.949	4.043	4043.4	navigation	Trial1	navigation/STIM_004.jpg	99
159.135	4.448	4448.0	navigation	Trial1	navigation/STIM_004.jpg	99
166.333	3.565	3565.4	navigation	Trial1	navigation/STIM_004.jpg	100
172.546	3.834	3833.8	navigation	Trial1	navigation/STIM_004.jpg	100
179.674	2.088	2087.8	navigation	Trial1	navigation/STIM_004.jpg	99
184.694	4.401	4400.7	navigation	Trial1	navigation/STIM_005.jpg	100
191.901	4.892	4891.7	navigation	Trial1	navigation/STIM_005.jpg	100
199.303	4.421	4421.3	navigation	Trial1	navigation/STIM_005.jpg	100
205.712	4.442	4441.6	navigation	Trial1	navigation/STIM_005.jpg	100
211.972	2.372	2371.5	navigation	Trial1	navigation/STIM_005.jpg	99
216.167	3.975	3974.9	navigation	Trial1	navigation/STIM_005.jpg	99
223.084	2.996	2995.6	navigation	Trial1	navigation/STIM_006.jpg	100
228.206	5.3	5300.2	navigation	Trial1	navigation/STIM_006.jpg	100
235.782	4.572	4572.4	navigation	Trial1	navigation/STIM_006.jpg	100
243.853	3.166	3166.2	navigation	Trial1	navigation/STIM_006.jpg	99
249.155	3.622	3622.0	navigation	Trial1	navigation/STIM_006.jpg	99
255.251	3.423	3423.3	navigation	Trial1	navigation/STIM_006.jpg	99
261.471	2.186	2185.7	navigation	Trial1	navigation/STIM_007.jpg	99
265.677	2.566	2565.8	navigation	Trial1	navigation/STIM_007.jpg	99
271.588	4.226	4226.2	navigation	Trial1	navigation/STIM_007.jpg	99
278.112	3.702	3702.5	navigation	Trial1	navigation/STIM_007.jpg	99
285.455	3.434	3434.0	navigation	Trial1	navigation/STIM_007.jpg	99
292.112	3.594	3593.7	navigation	Trial1	navigation/STIM_007.jpg	100
297.692	4.888	4887.6	navigation	Trial1	navigation/STIM_008.jpg	100
304.86	4.149	4149.3	navigation	Trial1	navigation/STIM_008.jpg	99
311.031	2.98	2979.7	navigation	Trial1	navigation/STIM_008.jpg	100
315.842	2.531	2530.9	navigation	Trial1	navigation/STIM_008.jpg	99
322.037	3.775	3775.3	navigation	Trial1	navigation/STIM_008.jpg	99
328.825	3.084	3083.8	navigation	Trial1	navigation/STIM_008.jpg	99
333.601	2.982	2982.2	navigation	Trial1	navigation/STIM_009.jpg	99
338.866	2.828	2827.6	navigation	Trial1	navigation/STIM_009.jpg	99
343.797	4.151	4151.4	navigation	Trial1	navigation/STIM_009.jpg	99
350.641	4.43	4430.5	navigation	Trial1	navigation/STIM_009.jpg	100
357.307	2.415	2414.6	navigation	Trial1	navigation/STIM_009.jpg	100
362.797	2.304	2303.9	navigation	Trial1	navigation/STIM_009.jpg	99
368.327	3.222	3222.3	navigation	Trial1	navigation/STIM_010.jpg	99
374.651	4.701	4700.7	navigation	Trial1	navigation/STIM_010.jpg	100
382.141	2.683	2682.9	navigation	Trial1	navigation/STIM_010.jpg	99
388.024	2.791	2791.4	navigation	Trial1	navigation/STIM_010.jpg	100
392.781	3.335	3334.8	navigation	Trial1	navigation/STIM_010.jpg	100
398.846	3.519	3518.6	navigation	Trial1	navigation/STIM_010.jpg	100
405.166	3.658	3657.8	navigation	Trial1	navigation/STIM_011.jpg	100
411.521	3.554	3554.1	navigation	Trial1	navigation/STIM_011.jpg	100
418.066	4.268	4268.3	navigation	Trial1	navigation/STIM_011.jpg	99
424.635	2.167	2166.7	navigation	Trial1	navigation/STIM_011.jpg	99
429.19	2.966	2966.1	navigation	Trial1	navigation/STIM_011.jpg	99
435.535	4.13	4129.8	navigation	Trial1	navigation/STIM_011.jpg	100
442.646	1.358	1358.3	pointing	Trial1	pointing/STIM_000.jpg	99
446.516	1.042	1042.0	pointing	Trial1	pointing/STIM_000.jpg	100
449.847	1.545	1545.3	pointing	Trial1	pointing/STIM_000.jpg	99
453.434	0.892	892.3	pointing	Trial1	pointing/STIM_000.jpg	100
457.349	1.082	1082.1	pointing	Trial1	pointing/STIM_000.jpg	99
460.831	1.604	1603.6	pointing	Trial1	pointing/STIM_000.jpg	99
464.422	1.481	1481.3	pointing	Trial1	pointing/STIM_001.jpg	100
468.181	1.674	1673.7	pointing	Trial1	pointing/STIM_001.jpg	100
472.148	1.442	1441.8	pointing	Trial1	pointing/STIM_001.jpg	99
476.535	1.13	1130.0	pointing	Trial1	pointing/STIM_001.jpg	99
479.638	1.55	1550.2	pointing	Trial1	pointing/STIM_001.jpg	100
484.895	1.03	1030.2	pointing	Trial1	pointing/STIM_001.jpg	99
488.44	1.288	1288.0	pointing	Trial1	pointing/STIM_002.jpg	99
492.958	1.124	1124.2	pointing	Trial1	pointing/STIM_002.jpg	99
497.738	0.968	968.4	pointing	Trial1	pointing/STIM_002.jpg	100
502.099	1.639	1639.1	pointing	Trial1	pointing/STIM_002.jpg	100
506.967	1.343	1343.3	pointing	Trial1	pointing/STIM_002.jpg	99
511.781	1.326	1326.2	pointing	Trial1	pointing/STIM_002.jpg	100
516.813	1.321	1321.0	pointing	Trial1	pointing/STIM_003.jpg	100
521.581	1.442	1442.4	pointing	Trial1	pointing/STIM_003.jpg	100
526.812	1.489	1488.8	pointing	Trial1	pointing/STIM_003.jpg	100
531.571	1.436	1436.3	pointing	Trial1	pointing/STIM_003.jpg	100
534.99	1.655	1655.1	pointing	Trial1	pointing/STIM_003.jpg	100
539.557	1.619	1618.9	pointing	Trial1	pointing/STIM_003.jpg	100
543.032	1.485	1485.2	pointing	Trial1	pointing/STIM_004.jpg	99
546.334	1.273	1272.9	pointing	Trial1	pointing/STIM_004.jpg	100
550.803	1.06	1060.4	pointing	Trial1	pointing/STIM_004.jpg	99
554.24	1.495	1495.3	pointing	Trial1	pointing/STIM_004.jpg	99
558.058	1.043	1043.3	pointing	Trial1	pointing/STIM_004.jpg	99
561.167	1.746	1746.2	pointing	Trial1	pointing/STIM_004.jpg	99
566.082	1.232	1232.5	pointing	Trial1	pointing/STIM_005.jpg	99
570.405	1.426	1425.9	pointing	Trial1	pointing/STIM_005.jpg	99
575.092	1.511	1511.1	pointing	Trial1	pointing/STIM_005.jpg	99
579.124	1.469	1468.6	pointing	Trial1	pointing/STIM_005.jpg	99
583.299	0.929	928.6	pointing	Trial1	pointing/STIM_005.jpg	100
586.851	1.496	1496.4	pointing	Trial1	pointing/STIM_005.jpg	99
591.236	1.698	1698.3	pointing	Trial1	pointing/STIM_006.jpg	100
596.227	1.399	1399.4	pointing	Trial1	pointing/STIM_006.jpg	99
599.978	0.929	928.6	pointing	Trial1	pointing/STIM_006.jpg	100
604.072	0.983	983.4	pointing	Trial1	pointing/STIM_006.jpg	99
608.822	0.995	995.0	pointing	Trial1	pointing/STIM_006.jpg	100
612.427	1.205	1205.1	pointing	Trial1	pointing/STIM_006.jpg	100
616.301	1.136	1135.6	pointing	Trial1	pointing/STIM_007.jpg	99
619.405	0.966	965.5	pointing	Trial1	pointing/STIM_007.jpg	99
622.605	1.017	1016.7	pointing	Trial1	pointing/STIM_007.jpg	99
625.902	1.595	1595.2	pointing	Trial1	pointing/STIM_007.jpg	100
630.822	1.326	1326.1	pointing	Trial1	pointing/STIM_007.jpg	99
635.244	0.989	988.9	pointing	Trial1	pointing/STIM_007.jpg	100
639.388	1.611	1611.4	pointing	Trial1	pointing/STIM_008.jpg	100
642.915	1.214	1213.9	pointing	Trial1	pointing/STIM_008.jpg	100
646.466	1.457	1456.8	pointing	Trial1	pointing/STIM_008.jpg	99
651.666	1.19	1189.8	pointing	Trial1	pointing/STIM_008.jpg	99
655.265	1.479	1478.6	pointing	Trial1	pointing/STIM_008.jpg	99
659.723	1.477	1476.9	pointing	Trial1	pointing/STIM_008.jpg	99
663.145	1.668	1667.7	pointing	Trial1	pointing/STIM_009.jpg	100
667.783	1.185	1185.3	pointing	Trial1	pointing/STIM_009.jpg	100
672.058	1.66	1659.7	pointing	Trial1	pointing/STIM_009.jpg	99
676.885	1.5	1499.9	pointing	Trial1	pointing/STIM_009.jpg	100
681.622	1.092	1092.0	pointing	Trial1	pointing/STIM_009.jpg	99
686.579	1.518	1518.0	pointing	Trial1	pointing/STIM_009.jpg	100
690.708	0.914	914.3	pointing	Trial1	pointing/STIM_010.jpg	99
694.327	1.034	1034.3	pointing	Trial1	pointing/STIM_010.jpg	100
697.46	1.33	1330.0	pointing	Trial1	pointing/STIM_010.jpg	100
701.771	1.092	1092.0	pointing	Trial1	pointing/STIM_010.jpg	99
706.095	1.314	1313.6	pointing	Trial1	pointing/STIM_010.jpg	99
709.738	1.425	1424.8	pointing	Trial1	pointing/STIM_010.jpg	100
714.955	0.976	976.5	pointing	Trial1	pointing/STIM_011.jpg	100
719.006	1.463	1462.7	pointing	Trial1	pointing/STIM_011.jpg	99
724.045	1.196	1195.6	pointing	Trial1	pointing/STIM_011.jpg	99
727.93	1.352	1352.5	pointing	Trial1	pointing/STIM_011.jpg	100
732.566	1.022	1022.2	pointing	Trial1	pointing/STIM_011.jpg	100
735.939	1.014	1013.5	pointing	Trial1	pointing/STIM_011.jpg	99
739.132	4.016	4015.9	navigation	Trial2	navigation/STIM_000.jpg	100
745.353	2.769	2768.7	navigation	Trial2	navigation/STIM_000.jpg	100
751.624	2.777	2777.2	navigation	Trial2	navigation/STIM_000.jpg	100
757.656	2.542	2542.5	navigation	Trial2	navigation/STIM_000.jpg	100
762.233	2.302	2302.2	navigation	Trial2	navigation/STIM_000.jpg	100
767.908	2.908	2907.9	navigation	Trial2	navigation/STIM_000.jpg	99
773.373	3.95	3950.2	navigation	Trial2	navigation/STIM_001.jpg	99
779.505	3.735	3734.7	navigation	Trial2	navigation/STIM_001.jpg	100
786.374	4.046	4045.8	navigation	Trial2	navigation/STIM_001.jpg	99
792.938	3.791	3790.9	navigation	Trial2	navigation/STIM_001.jpg	100
799.907	3.44	3439.9	navigation	Trial2	navigation/STIM_001.jpg	100
806.576	2.898	2897.6	navigation	Trial2	navigation/STIM_001.jpg	100
812.027	2.108	2108.3	navigation	Trial2	navigation/STIM_002.jpg	100
817.197	1.889	1888.9	navigation	Trial2	navigation/STIM_002.jpg	99
821.002	2.432	2432.3	navigation	Trial2	navigation/STIM_002.jpg	99
826.504	2.519	2519.1	navigation	Trial2	navigation/STIM_002.jpg	99
831.159	2.252	2252.4	navigation	Trial2	navigation/STIM_002.jpg	99
836.876	2.05	2050.5	navigation	Trial2	navigation/STIM_002.jpg	99
841.16	2.557	2556.8	navigation	Trial2	navigation/STIM_003.jpg	100
846.348	3.524	3523.6	navigation	Trial2	navigation/STIM_003.jpg	100
852.562	2.081	2081.1	navigation	Trial2	navigation/STIM_003.jpg	99
858.093	2.878	2878.3	navigation	Trial2	navigation/STIM_003.jpg	100
863.359	3.351	3351.0	navigation	Trial2	navigation/STIM_003.jpg	99
869.309	1.888	1888.1	navigation	Trial2	navigation/STIM_003.jpg	99
873.827	3.183	3183.2	navigation	Trial2	navigation/STIM_004.jpg	100
879.551	3.937	3937.1	navigation	Trial2	navigation/STIM_004.jpg	99
885.789	4.048	4048.1	navigation	Trial2	navigation/STIM_004.jpg	99
891.666	3.591	3590.7	navigation	Trial2	navigation/STIM_004.jpg	100
897.107	3.621	3620.7	navigation	Trial2	navigation/STIM_004.jpg	99
903.549	3.609	3609.2	navigation	Trial2	navigation/STIM_004.jpg	99
910.147	2.055	2055.0	navigation	Trial2	navigation/STIM_005.jpg	100
915.081	3.977	3976.6	navigation	Trial2	navigation/STIM_005.jpg	99
921.289	3.484	3483.5	navigation	Trial2	navigation/STIM_005.jpg	99
926.833	3.357	3357.4	navigation	Trial2	navigation/STIM_005.jpg	100
932.424	2.446	2445.8	navigation	Trial2	navigation/STIM_005.jpg	100
937.035	3.499	3498.7	navigation	Trial2	navigation/STIM_005.jpg	100
942.476	2.762	2762.5	navigation	Trial2	navigation/STIM_006.jpg	100
948.746	3.867	3867.0	navigation	Trial2	navigation/STIM_006.jpg	99
954.391	2.198	2198.5	navigation	Trial2	navigation/STIM_006.jpg	100
959.06	3.931	3930.6	navigation	Trial2	navigation/STIM_006.jpg	100
966.403	2.135	2134.6	navigation	Trial2	navigation/STIM_006.jpg	100
970.758	2.192	2191.6	navigation	Trial2	navigation/STIM_006.jpg	99
975.587	3.215	3214.7	navigation	Trial2	navigation/STIM_007.jpg	100
981.392	2.51	2509.9	navigation	Trial2	navigation/STIM_007.jpg	100
985.833	3.457	3457.3	navigation	Trial2	navigation/STIM_007.jpg	100
991.692	3.164	3164.3	navigation	Trial2	navigation/STIM_007.jpg	100
998.036	3.587	3586.7	navigation	Trial2	navigation/STIM_007.jpg	100
1003.959	1.852	1851.7	navigation	Trial2	navigation/STIM_007.jpg	99
1008.25	3.012	3011.9	navigation	Trial2	navigation/STIM_008.jpg	100
1014.74	1.772	1772.4	navigation	Trial2	navigation/STIM_008.jpg	99
1020.312	3.842	3842.1	navigation	Trial2	navigation/STIM_008.jpg	100
1026.562	2.833	2833.4	navigation	Trial2	navigation/STIM_008.jpg	99
1032.535	2.154	2153.8	navigation	Trial2	navigation/STIM_008.jpg	99
1038.131	2.579	2578.6	navigation	Trial2	navigation/STIM_008.jpg	99
1044.159	2.039	2039.5	navigation	Trial2	navigation/STIM_009.jpg	100
1048.199	2.609	2608.8	navigation	Trial2	navigation/STIM_009.jpg	99
1052.656	3.826	3826.0	navigation	Trial2	navigation/STIM_009.jpg	100
1058.754	3.362	3361.6	navigation	Trial2	navigation/STIM_009.jpg	99
1065.03	1.98	1980.0	navigation	Trial2	navigation/STIM_009.jpg	100
1068.984	2.85	2849.9	navigation	Trial2	navigation/STIM_009.jpg	99
1074.895	1.958	1958.5	navigation	Trial2	navigation/STIM_010.jpg	100
1079.304	2.32	2319.9	navigation	Trial2	navigation/STIM_010.jpg	100
1084.957	2.154	2153.5	navigation	Trial2	navigation/STIM_010.jpg	99
1090.887	1.662	1662.4	navigation	Trial2	navigation/STIM_010.jpg	100
1096.375	2.36	2359.6	navigation	Trial2	navigation/STIM_010.jpg	99
1100.809	3.812	3812.4	navigation	Trial2	navigation/STIM_010.jpg	100
1108.128	4.448	4448.1	navigation	Trial2	navigation/STIM_011.jpg	99
1114.826	4.254	4253.5	navigation	Trial2	navigation/STIM_011.jpg	99
1122.553	1.851	1851.1	navigation	Trial2	navigation/STIM_011.jpg	100
1126.583	1.711	1711.2	navigation	Trial2	navigation/STIM_011.jpg	99
1131.984	3.156	3155.9	navigation	Trial2	navigation/STIM_011.jpg	99
1138.022	1.987	1986.7	navigation	Trial2	navigation/STIM_011.jpg	100
1142.04	0.968	968.0	pointing	Trial2	pointing/STIM_000.jpg	99
1145.398	1.02	1020.4	pointing	Trial2	pointing/STIM_000.jpg	99
1150.064	1.448	1447.6	pointing	Trial2	pointing/STIM_000.jpg	99
1153.605	1.015	1014.9	pointing	Trial2	pointing/STIM_000.jpg	100
1157.656	0.922	921.9	pointing	Trial2	pointing/STIM_000.jpg	99
1161.49	1.412	1411.5	pointing	Trial2	pointing/STIM_000.jpg	99
1164.93	1.121	1120.9	pointing	Trial2	pointing/STIM_001.jpg	100
1169.827	1.092	1091.7	pointing	Trial2	pointing/STIM_001.jpg	100
1173.075	1.31	1309.5	pointing	Trial2	pointing/STIM_001.jpg	100
1177.981	1.594	1594.0	pointing	Trial2	pointing/STIM_001.jpg	99
1181.989	1.274	1274.5	pointing	Trial2	pointing/STIM_001.jpg	100
1185.486	0.94	939.5	pointing	Trial2	pointing/STIM_001.jpg	100
1189.589	0.912	912.0	pointing	Trial2	pointing/STIM_002.jpg	99
1193.074	1.076	1076.1	pointing	Trial2	pointing/STIM_002.jpg	100
1196.699	1.578	1577.5	pointing	Trial2	pointing/STIM_002.jpg	100
1200.446	1.164	1163.6	pointing	Trial2	pointing/STIM_002.jpg	100
1205.085	1.698	1698.2	pointing	Trial2	pointing/STIM_002.jpg	100
1209.666	1.476	1475.6	pointing	Trial2	pointing/STIM_002.jpg	99
1213.289	1.557	1557.0	pointing	Trial2	pointing/STIM_003.jpg	99
1217.31	1.218	1217.6	pointing	Trial2	pointing/STIM_003.jpg	100
1221.489	1.368	1368.2	pointing	Trial2	pointing/STIM_003.jpg	100
1226.289	1.182	1182.1	pointing	Trial2	pointing/STIM_003.jpg	99
1231.008	1.161	1161.3	pointing	Trial2	pointing/STIM_003.jpg	99
1235.02	1.129	1129.1	pointing	Trial2	pointing/STIM_003.jpg	99
1238.576	1.121	1120.7	pointing	Trial2	pointing/STIM_004.jpg	99
1243.55	1.013	1012.8	pointing	Trial2	pointing/STIM_004.jpg	100
1247.4	1.266	1266.2	pointing	Trial2	pointing/STIM_004.jpg	100
1250.716	1.108	1107.7	pointing	Trial2	pointing/STIM_004.jpg	99
1254.919	1.538	1538.5	pointing	Trial2	pointing/STIM_004.jpg	99
1258.694	1.564	1564.2	pointing	Trial2	pointing/STIM_004.jpg	100
1262.229	1.008	1008.0	pointing	Trial2	pointing/STIM_005.jpg	99
1266.823	1.185	1185.2	pointing	Trial2	pointing/STIM_005.jpg	100
1271.563	1.138	1138.2	pointing	Trial2	pointing/STIM_005.jpg	99
1276.104	0.971	970.9	pointing	Trial2	pointing/STIM_005.jpg	99
1279.686	1.366	1366.5	pointing	Trial2	pointing/STIM_005.jpg	99
1284.378	0.928	928.1	pointing	Trial2	pointing/STIM_005.jpg	100
1289.121	1.079	1079.0	pointing	Trial2	pointing/STIM_006.jpg	99
1293.861	1.409	1409.0	pointing	Trial2	pointing/STIM_006.jpg	100
1298.834	0.877	877.4	pointing	Trial2	pointing/STIM_006.jpg	99
1303.362	1.197	1197.4	pointing	Trial2	pointing/STIM_006.jpg	100
1307.721	1.519	1518.8	pointing	Trial2	pointing/STIM_006.jpg	100
1313.051	1.404	1404.0	pointing	Trial2	pointing/STIM_006.jpg	99
1316.634	1.164	1163.8	pointing	Trial2	pointing/STIM_007.jpg	100
1319.916	1.603	1602.7	pointing	Trial2	pointing/STIM_007.jpg	99
1324.921	1.508	1507.9	pointing	Trial2	pointing/STIM_007.jpg	100
1328.925	1.097	1097.4	pointing	Trial2	pointing/STIM_007.jpg	99
1332.313	1.051	1051.1	pointing	Trial2	pointing/STIM_007.jpg	99
1336.491	1.016	1015.9	pointing	Trial2	pointing/STIM_007.jpg	99
1339.842	1.253	1252.6	pointing	Trial2	pointing/STIM_008.jpg	100
1343.453	1.127	1127.0	pointing	Trial2	pointing/STIM_008.jpg	100
1347.537	1.491	1490.6	pointing	Trial2	pointing/STIM_008.jpg	100
1352.851	1.148	1147.9	pointing	Trial2	pointing/STIM_008.jpg	100
1356.392	1.002	1002.3	pointing	Trial2	pointing/STIM_008.jpg	100
1359.947	1.019	1019.3	pointing	Trial2	pointing/STIM_008.jpg	99
1364.47	1.288	1287.5	pointing	Trial2	pointing/STIM_009.jpg	100
1368.237	1.603	1603.4	pointing	Trial2	pointing/STIM_009.jpg	100
1372.376	1.072	1071.8	pointing	Trial2	pointing/STIM_009.jpg	100
1375.346	1.205	1205.1	pointing	Trial2	pointing/STIM_009.jpg	99
1378.946	1.326	1325.5	pointing	Trial2	pointing/STIM_009.jpg	99
1383.204	1.236	1236.3	pointing	Trial2	pointing/STIM_009.jpg	100
1386.335	1.026	1026.0	pointing	Trial2	pointing/STIM_010.jpg	99
1390.135	1.355	1355.0	pointing	Trial2	pointing/STIM_010.jpg	99
1394.491	0.913	913.2	pointing	Trial2	pointing/STIM_010.jpg	99
1398.328	1.109	1108.8	pointing	Trial2	pointing/STIM_010.jpg	100
1403.298	1.268	1268.4	pointing	Trial2	pointing/STIM_010.jpg	100
1407.795	1.365	1364.6	pointing	Trial2	pointing/STIM_010.jpg	99
1411.176	1.235	1235.4	pointing	Trial2	pointing/STIM_011.jpg	99
1414.805	1.146	1146.3	pointing	Trial2	pointing/STIM_011.jpg	100
1419.312	1.688	1688.4	pointing	Trial2	pointing/STIM_011.jpg	99
1423.845	1.044	1044.0	pointing	Trial2	pointing/STIM_011.jpg	99
1426.908	1.627	1626.9	pointing	Trial2	pointing/STIM_011.jpg	99
1432.009	1.706	1705.5	pointing	Trial2	pointing/STIM_011.jpg	99
1436.902	2.557	2557.3	navigation	Trial3	navigation/STIM_000.jpg	99
1441.557	1.758	1758.1	navigation	Trial3	navigation/STIM_000.jpg	100
1447.057	1.658	1658.0	navigation	Trial3	navigation/STIM_000.jpg	99
1451.533	3.314	3313.6	navigation	Trial3	navigation/STIM_000.jpg	100
1457.844	3.293	3293.0	navigation	Trial3	navigation/STIM_000.jpg	100
1464.495	3.423	3423.2	navigation	Trial3	navigation/STIM_000.jpg	100
1469.551	3.841	3841.2	navigation	Trial3	navigation/STIM_001.jpg	100
1476.87	2.148	2147.9	navigation	Trial3	navigation/STIM_001.jpg	99
1481.282	2.733	2733.0	navigation	Trial3	navigation/STIM_001.jpg	100
1487.628	3.396	3396.2	navigation	Trial3	navigation/STIM_001.jpg	100
1492.738	2.727	2726.9	navigation	Trial3	navigation/STIM_001.jpg	99
1499.063	3.363	3362.6	navigation	Trial3	navigation/STIM_001.jpg	100
1505.255	2.492	2492.5	navigation	Trial3	navigation/STIM_002.jpg	100
1509.606	1.66	1659.7	navigation	Trial3	navigation/STIM_002.jpg	100
1515.0	3.661	3660.7	navigation	Trial3	navigation/STIM_002.jpg	100
1520.35	2.634	2633.5	navigation	Trial3	navigation/STIM_002.jpg	99
1526.208	2.529	2529.1	navigation	Trial3	navigation/STIM_002.jpg	99
1531.743	2.883	2883.4	navigation	Trial3	navigation/STIM_002.jpg	99
1538.123	3.508	3508.0	navigation	Trial3	navigation/STIM_003.jpg	99
1544.836	1.935	1934.7	navigation	Trial3	navigation/STIM_003.jpg	100
1548.935	3.654	3654.3	navigation	Trial3	navigation/STIM_003.jpg	100
1555.476	3.635	3635.4	navigation	Trial3	navigation/STIM_003.jpg	100
1562.527	3.324	3323.8	navigation	Trial3	navigation/STIM_003.jpg	99
1568.948	3.311	3310.8	navigation	Trial3	navigation/STIM_003.jpg	100
1575.931	2.158	2158.0	navigation	Trial3	navigation/STIM_004.jpg	100
1580.421	3.521	3521.4	navigation	Trial3	navigation/STIM_004.jpg	99
1585.654	1.853	1853.3	navigation	Trial3	navigation/STIM_004.jpg	100
1589.834	2.38	2379.6	navigation	Trial3	navigation/STIM_004.jpg	99
1595.552	1.623	1622.6	navigation	Trial3	navigation/STIM_004.jpg	99
1600.156	3.253	3253.2	navigation	Trial3	navigation/STIM_004.jpg	99
1605.361	3.779	3779.3	navigation	Trial3	navigation/STIM_005.jpg	99
1611.389	1.876	1876.3	navigation	Trial3	navigation/STIM_005.jpg	100
1616.821	3.143	3142.9	navigation	Trial3	navigation/STIM_005.jpg	99
1622.606	3.64	3639.8	navigation	Trial3	navigation/STIM_005.jpg	100
1628.828	2.997	2996.7	navigation	Trial3	navigation/STIM_005.jpg	99
1635.374	3.258	3257.9	navigation	Trial3	navigation/STIM_005.jpg	99
1641.098	2.151	2150.7	navigation	Trial3	navigation/STIM_006.jpg	100
1646.316	3.309	3308.6	navigation	Trial3	navigation/STIM_006.jpg	99
1651.29	2.59	2589.8	navigation	Trial3	navigation/STIM_006.jpg	100
1656.453	3.406	3405.7	navigation	Trial3	navigation/STIM_006.jpg	100
1661.914	2.884	2884.5	navigation	Trial3	navigation/STIM_006.jpg	99
1668.493	3.054	3054.0	navigation	Trial3	navigation/STIM_006.jpg	99
1673.275	1.818	1818.4	navigation	Trial3	navigation/STIM_007.jpg	100
1677.528	3.566	3566.2	navigation	Trial3	navigation/STIM_007.jpg	100
1682.933	3.837	3837.1	navigation	Trial3	navigation/STIM_007.jpg	99
1689.825	2.318	2317.6	navigation	Trial3	navigation/STIM_007.jpg	99
1695.173	1.818	1818.1	navigation	Trial3	navigation/STIM_007.jpg	99
1699.183	3.48	3479.5	navigation	Trial3	navigation/STIM_007.jpg	100
1704.516	2.098	2098.0	navigation	Trial3	navigation/STIM_008.jpg	99
1708.508	3.379	3379.3	navigation	Trial3	navigation/STIM_008.jpg	99
1714.746	2.244	2243.7	navigation	Trial3	navigation/STIM_008.jpg	100
1719.264	2.321	2320.9	navigation	Trial3	navigation/STIM_008.jpg	99
1724.138	3.931	3930.9	navigation	Trial3	navigation/STIM_008.jpg	99
1731.313	3.032	3032.3	navigation	Trial3	navigation/STIM_008.jpg	99
1736.786	2.696	2696.4	navigation	Trial3	navigation/STIM_009.jpg	100
1742.021	2.073	2073.0	navigation	Trial3	navigation/STIM_009.jpg	100
1747.919	2.127	2127.3	navigation	Trial3	navigation/STIM_009.jpg	100
1752.592	1.934	1933.7	navigation	Trial3	navigation/STIM_009.jpg	99
1757.385	1.922	1922.1	navigation	Trial3	navigation/STIM_009.jpg	100
1761.859	2.327	2327.2	navigation	Trial3	navigation/STIM_009.jpg	99
1767.098	3.26	3260.4	navigation	Trial3	navigation/STIM_010.jpg	99
1772.313	3.792	3792.4	navigation	Trial3	navigation/STIM_010.jpg	99
1777.752	2.21	2209.7	navigation	Trial3	navigation/STIM_010.jpg	100
1783.006	2.166	2165.7	navigation	Trial3	navigation/STIM_010.jpg	100
1787.264	3.529	3529.3	navigation	Trial3	navigation/STIM_010.jpg	100
1792.955	2.922	2922.4	navigation	Trial3	navigation/STIM_010.jpg	100
1797.925	1.897	1897.3	navigation	Trial3	navigation/STIM_011.jpg	100
1802.043	1.969	1968.9	navigation	Trial3	navigation/STIM_011.jpg	99
1807.413	2.479	2479.3	navigation	Trial3	navigation/STIM_011.jpg	100
1813.374	2.582	2581.5	navigation	Trial3	navigation/STIM_011.jpg	99
1818.397	3.086	3086.5	navigation	Trial3	navigation/STIM_011.jpg	100
1824.685	3.215	3215.3	navigation	Trial3	navigation/STIM_011.jpg	100
1830.666	1.742	1742.3	pointing	Trial3	pointing/STIM_000.jpg	99
1834.309	1.693	1692.8	pointing	Trial3	pointing/STIM_000.jpg	100
1838.611	1.523	1523.0	pointing	Trial3	pointing/STIM_000.jpg	100
1843.364	1.11	1109.5	pointing	Trial3	pointing/STIM_000.jpg	100
1848.254	1.002	1002.4	pointing	Trial3	pointing/STIM_000.jpg	99
1852.463	1.419	1419.0	pointing	Trial3	pointing/STIM_000.jpg	99
1856.788	1.652	1651.9	pointing	Trial3	pointing/STIM_001.jpg	99
1861.088	1.081	1081.2	pointing	Trial3	pointing/STIM_001.jpg	99
1864.549	0.941	940.6	pointing	Trial3	pointing/STIM_001.jpg	99
1868.632	0.989	988.9	pointing	Trial3	pointing/STIM_001.jpg	99
1873.305	0.982	982.1	pointing	Trial3	pointing/STIM_001.jpg	100
1877.439	1.249	1249.2	pointing	Trial3	pointing/STIM_001.jpg	100
1882.15	1.178	1177.7	pointing	Trial3	pointing/STIM_002.jpg	100
1885.231	1.504	1504.0	pointing	Trial3	pointing/STIM_002.jpg	99
1888.619	1.304	1303.7	pointing	Trial3	pointing/STIM_002.jpg	100
1892.481	1.561	1561.3	pointing	Trial3	pointing/STIM_002.jpg	99
1897.003	1.056	1056.4	pointing	Trial3	pointing/STIM_002.jpg	99
1901.707	1.382	1382.3	pointing	Trial3	pointing/STIM_002.jpg	99
1906.311	1.498	1497.6	pointing	Trial3	pointing/STIM_003.jpg	99
1911.602	1.345	1344.9	pointing	Trial3	pointing/STIM_003.jpg	99
1915.821	0.931	931.1	pointing	Trial3	pointing/STIM_003.jpg	100
1919.14	1.483	1482.6	pointing	Trial3	pointing/STIM_003.jpg	100
1923.95	1.285	1285.1	pointing	Trial3	pointing/STIM_003.jpg	100
1928.703	1.134	1133.6	pointing	Trial3	pointing/STIM_003.jpg	100
1932.649	0.948	947.6	pointing	Trial3	pointing/STIM_004.jpg	99
1935.709	1.687	1687.0	pointing	Trial3	pointing/STIM_004.jpg	100
1939.312	1.158	1158.5	pointing	Trial3	pointing/STIM_004.jpg	99
1943.942	1.195	1194.7	pointing	Trial3	pointing/STIM_004.jpg	99
1947.507	1.28	1280.4	pointing	Trial3	pointing/STIM_004.jpg	99
1950.937	1.192	1192.2	pointing	Trial3	pointing/STIM_004.jpg	100
1955.585	1.379	1379.3	pointing	Trial3	pointing/STIM_005.jpg	99
1958.902	1.533	1533.0	pointing	Trial3	pointing/STIM_005.jpg	100
1962.991	1.094	1094.5	pointing	Trial3	pointing/STIM_005.jpg	99
1966.415	1.08	1080.1	pointing	Trial3	pointing/STIM_005.jpg	100
1971.077	1.516	1516.3	pointing	Trial3	pointing/STIM_005.jpg	99
1976.004	1.499	1498.8	pointing	Trial3	pointing/STIM_005.jpg	99
1981.048	1.2	1200.5	pointing	Trial3	pointing/STIM_006.jpg	100
1985.61	0.852	852.1	pointing	Trial3	pointing/STIM_006.jpg	99
1990.359	1.18	1180.5	pointing	Trial3	pointing/STIM_006.jpg	99
1993.666	0.98	979.6	pointing	Trial3	pointing/STIM_006.jpg	100
1997.115	1.447	1446.7	pointing	Trial3	pointing/STIM_006.jpg	100
2002.408	1.343	1343.3	pointing	Trial3	pointing/STIM_006.jpg	99
2005.571	0.866	866.3	pointing	Trial3	pointing/STIM_007.jpg	99
2009.396	1.413	1413.1	pointing	Trial3	pointing/STIM_007.jpg	100
2013.645	1.503	1503.1	pointing	Trial3	pointing/STIM_007.jpg	99
2017.433	1.299	1299.3	pointing	Trial3	pointing/STIM_007.jpg	100
2022.391	1.681	1681.0	pointing	Trial3	pointing/STIM_007.jpg	99
2026.073	1.323	1323.4	pointing	Trial3	pointing/STIM_007.jpg	99
2030.034	1.386	1385.8	pointing	Trial3	pointing/STIM_008.jpg	99
2035.114	1.005	1005.2	pointing	Trial3	pointing/STIM_008.jpg	99
2040.047	1.557	1557.2	pointing	Trial3	pointing/STIM_008.jpg	100
2043.632	1.611	1611.2	pointing	Trial3	pointing/STIM_008.jpg	99
2048.303	1.244	1244.3	pointing	Trial3	pointing/STIM_008.jpg	99
2052.212	1.411	1411.4	pointing	Trial3	pointing/STIM_008.jpg	99
2056.421	1.587	1587.1	pointing	Trial3	pointing/STIM_009.jpg	100
2061.478	1.423	1423.3	pointing	Trial3	pointing/STIM_009.jpg	100
2066.681	1.196	1196.1	pointing	Trial3	pointing/STIM_009.jpg	100
2070.078	1.192	1192.1	pointing	Trial3	pointing/STIM_009.jpg	99
2073.502	1.492	1492.2	pointing	Trial3	pointing/STIM_009.jpg	99
2078.714	1.504	1503.6	pointing	Trial3	pointing/STIM_009.jpg	100
2083.293	0.93	929.6	pointing	Trial3	pointing/STIM_010.jpg	100
2088.091	1.245	1244.6	pointing	Trial3	pointing/STIM_010.jpg	100
2092.008	1.633	1633.3	pointing	Trial3	pointing/STIM_010.jpg	99
2097.278	1.588	1587.6	pointing	Trial3	pointing/STIM_010.jpg	100
2102.24	1.195	1195.1	pointing	Trial3	pointing/STIM_010.jpg	100
2105.98	0.994	993.6	pointing	Trial3	pointing/STIM_010.jpg	99
2108.928	1.406	1406.2	pointing	Trial3	pointing/STIM_011.jpg	100
2113.573	1.353	1352.6	pointing	Trial3	pointing/STIM_011.jpg	99
2118.601	1.06	1060.3	pointing	Trial3	pointing/STIM_011.jpg	100
2122.369	0.936	936.0	pointing	Trial3	pointing/STIM_011.jpg	99
2126.808	1.578	1578.3	pointing	Trial3	pointing/STIM_011.jpg	99
2130.19	1.573	1572.9	pointing	Trial3	pointing/STIM_011.jpg	99
