onset	duration	accuracy_binary	trial_type	learning_stage	stimulus
0.0	4.22	1	navigation	Trial1	navigation/STIM_000.jpg
7.486	4.32	1	navigation	Trial1	navigation/STIM_000.jpg
14.909	3.64	1	navigation	Trial1	navigation/STIM_000.jpg
21.432	2.308	1	navigation	Trial1	navigation/STIM_000.jpg
27.175	2.802	1	navigation	Trial1	navigation/STIM_000.jpg
32.127	3.447	0	navigation	Trial1	navigation/STIM_000.jpg
38.089	3.068	1	navigation	Trial1	navigation/STIM_001.jpg
43.468	4.445	0	navigation	Trial1	navigation/STIM_001.jpg
50.164	3.891	0	navigation	Trial1	navigation/STIM_001.jpg
56.688	2.608	1	navigation	Trial1	navigation/STIM_001.jpg
61.434	3.595	1	navigation	Trial1	navigation/STIM_001.jpg
68.445	2.224	1	navigation	Trial1	navigation/STIM_001.jpg
73.921	5.176	0	navigation	Trial1	navigation/STIM_002.jpg
81.97	5.034	1	navigation	Trial1	navigation/STIM_002.jpg
90.074	3.392	1	navigation	Trial1	navigation/STIM_002.jpg
95.668	4.258	0	navigation	Trial1	navigation/STIM_002.jpg
102.739	3.591	0	navigation	Trial1	navigation/STIM_002.jpg
109.226	2.474	1	navigation	Trial1	navigation/STIM_002.jpg
114.305	3.71	0	navigation	Trial1	navigation/STIM_003.jpg
121.922	3.317	1	navigation	Trial1	navigation/STIM_003.jpg
128.668	3.382	0	navigation	Trial1	navigation/STIM_003.jpg
134.773	2.009	1	navigation	Trial1	navigation/STIM_003.jpg
139.307	1.948	1	navigation	Trial1	navigation/STIM_003.jpg
143.762	3.319	0	navigation	Trial1	navigation/STIM_003.jpg
150.97	2.181	1	navigation	Trial1	navigation/STIM_004.jpg
155.471	3.814	1	navigation	Trial1	navigation/STIM_004.jpg
161.836	3.478	1	navigation	Trial1	navigation/STIM_004.jpg
167.661	4.362	1	navigation	Trial1	navigation/STIM_004.jpg
174.936	2.032	1	navigation	Trial1	navigation/STIM_004.jpg
180.3	2.104	0	navigation	Trial1	navigation/STIM_004.jpg
185.93	3.948	1	navigation	Trial1	navigation/STIM_005.jpg
192.907	4.046	1	navigation	Trial1	navigation/STIM_005.jpg
200.68	2.892	1	navigation	Trial1	navigation/STIM_005.jpg
206.269	2.051	1	navigation	Trial1	navigation/STIM_005.jpg
211.035	2.507	1	navigation	Trial1	navigation/STIM_005.jpg
216.611	3.876	1	navigation	Trial1	navigation/STIM_005.jpg
223.969	3.737	1	navigation	Trial1	navigation/STIM_006.jpg
230.045	4.519	1	navigation	Trial1	navigation/STIM_006.jpg
237.395	2.562	1	navigation	Trial1	navigation/STIM_006.jpg
243.673	1.96	0	navigation	Trial1	navigation/STIM_006.jpg
248.101	3.345	1	navigation	Trial1	navigation/STIM_006.jpg
254.512	2.12	0	navigation	Trial1	navigation/STIM_006.jpg
259.581	4.257	0	navigation	Trial1	navigation/STIM_007.jpg
267.14	2.397	0	navigation	Trial1	navigation/STIM_007.jpg
272.533	4.715	1	navigation	Trial1	navigation/STIM_007.jpg
279.616	2.54	0	navigation	Trial1	navigation/STIM_007.jpg
285.846	4.334	1	navigation	Trial1	navigation/STIM_007.jpg
293.219	1.947	0	navigation	Trial1	navigation/STIM_007.jpg
298.365	3.237	1	navigation	Trial1	navigation/STIM_008.jpg
304.249	3.33	0	navigation	Trial1	navigation/STIM_008.jpg
310.856	3.456	1	navigation	Trial1	navigation/STIM_008.jpg
317.961	2.048	1	navigation	Trial1	navigation/STIM_008.jpg
323.743	2.538	0	navigation	Trial1	navigation/STIM_008.jpg
330.239	2.447	1	navigation	Trial1	navigation/STIM_008.jpg
336.034	2.772	1	navigation	Trial1	navigation/STIM_009.jpg
341.962	3.444	0	navigation	Trial1	navigation/STIM_009.jpg
347.828	3.145	1	navigation	Trial1	navigation/STIM_009.jpg
353.285	3.06	1	navigation	Trial1	navigation/STIM_009.jpg
359.588	3.077	0	navigation	Trial1	navigation/STIM_009.jpg
366.427	1.633	0	navigation	Trial1	navigation/STIM_009.jpg
370.179	4.402	1	navigation	Trial1	navigation/STIM_010.jpg
376.76	3.749	1	navigation	Trial1	navigation/STIM_010.jpg
383.872	4.214	1	navigation	Trial1	navigation/STIM_010.jpg
392.059	4.18	1	navigation	Trial1	navigation/STIM_010.jpg
398.539	1.748	1	navigation	Trial1	navigation/STIM_010.jpg
403.864	4.019	1	navigation	Trial1	navigation/STIM_010.jpg
409.957	3.741	1	navigation	Trial1	navigation/STIM_011.jpg
417.48	2.901	0	navigation	Trial1	navigation/STIM_011.jpg
423.796	4.06	1	navigation	Trial1	navigation/STIM_011.jpg
431.57	2.852	0	navigation	Trial1	navigation/STIM_011.jpg
437.471	3.091	1	navigation	Trial1	navigation/STIM_011.jpg
443.444	2.949	1	navigation	Trial1	navigation/STIM_011.jpg
450.271	1.395	1	pointing	Trial1	pointing/STIM_000.jpg
453.695	1.213	1	pointing	Trial1	pointing/STIM_000.jpg
458.656	1.107	1	pointing	Trial1	pointing/STIM_000.jpg
462.269	1.29	1	pointing	Trial1	pointing/STIM_000.jpg
467.382	1.503	1	pointing	Trial1	pointing/STIM_000.jpg
472.571	1.591	1	pointing	Trial1	pointing/STIM_000.jpg
476.969	0.979	1	pointing	Trial1	pointing/STIM_001.jpg
480.904	1.519	1	pointing	Trial1	pointing/STIM_001.jpg
484.547	1.42	1	pointing	Trial1	pointing/STIM_001.jpg
488.707	0.882	0	pointing	Trial1	pointing/STIM_001.jpg
493.135	1.201	1	pointing	Trial1	pointing/STIM_001.jpg
497.493	1.354	1	pointing	Trial1	pointing/STIM_001.jpg
501.54	1.551	0	pointing	Trial1	pointing/STIM_002.jpg
505.239	0.898	0	pointing	Trial1	pointing/STIM_002.jpg
509.302	0.937	1	pointing	Trial1	pointing/STIM_002.jpg
512.35	1.273	1	pointing	Trial1	pointing/STIM_002.jpg
517.091	1.557	1	pointing	Trial1	pointing/STIM_002.jpg
521.69	1.51	0	pointing	Trial1	pointing/STIM_002.jpg
527.037	1.495	1	pointing	Trial1	pointing/STIM_003.jpg
531.772	1.618	1	pointing	Trial1	pointing/STIM_003.jpg
537.054	1.322	1	pointing	Trial1	pointing/STIM_003.jpg
541.345	1.006	1	pointing	Trial1	pointing/STIM_003.jpg
545.34	1.435	1	pointing	Trial1	pointing/STIM_003.jpg
550.348	0.945	1	pointing	Trial1	pointing/STIM_003.jpg
555.141	1.606	1	pointing	Trial1	pointing/STIM_004.jpg
559.805	1.147	1	pointing	Trial1	pointing/STIM_004.jpg
564.044	1.047	1	pointing	Trial1	pointing/STIM_004.jpg
567.561	1.497	1	pointing	Trial1	pointing/STIM_004.jpg
571.966	1.516	1	pointing	Trial1	pointing/STIM_004.jpg
577.147	1.428	1	pointing	Trial1	pointing/STIM_004.jpg
581.382	1.35	1	pointing	Trial1	pointing/STIM_005.jpg
585.261	0.881	1	pointing	Trial1	pointing/STIM_005.jpg
589.536	0.916	1	pointing	Trial1	pointing/STIM_005.jpg
593.797	1.266	1	pointing	Trial1	pointing/STIM_005.jpg
598.014	1.538	1	pointing	Trial1	pointing/STIM_005.jpg
601.916	1.411	1	pointing	Trial1	pointing/STIM_005.jpg
605.629	0.999	1	pointing	Trial1	pointing/STIM_006.jpg
609.497	1.142	1	pointing	Trial1	pointing/STIM_006.jpg
613.567	1.314	1	pointing	Trial1	pointing/STIM_006.jpg
616.981	1.547	1	pointing	Trial1	pointing/STIM_006.jpg
620.56	1.252	1	pointing	Trial1	pointing/STIM_006.jpg
623.876	1.418	1	pointing	Trial1	pointing/STIM_006.jpg
628.864	0.946	1	pointing	Trial1	pointing/STIM_007.jpg
632.136	1.432	1	pointing	Trial1	pointing/STIM_007.jpg
635.633	1.128	1	pointing	Trial1	pointing/STIM_007.jpg
639.992	1.082	1	pointing	Trial1	pointing/STIM_007.jpg
643.331	1.091	1	pointing	Trial1	pointing/STIM_007.jpg
647.094	1.217	1	pointing	Trial1	pointing/STIM_007.jpg
650.445	1.276	1	pointing	Trial1	pointing/STIM_008.jpg
654.116	1.063	1	pointing	Trial1	pointing/STIM_008.jpg
657.791	1.585	1	pointing	Trial1	pointing/STIM_008.jpg
661.864	0.944	1	pointing	Trial1	pointing/STIM_008.jpg
666.235	0.912	1	pointing	Trial1	pointing/STIM_008.jpg
670.687	1.076	1	pointing	Trial1	pointing/STIM_008.jpg
675.61	1.247	1	pointing	Trial1	pointing/STIM_009.jpg
680.183	1.508	1	pointing	Trial1	pointing/STIM_009.jpg
684.252	1.017	1	pointing	Trial1	pointing/STIM_009.jpg
687.808	1.423	1	pointing	Trial1	pointing/STIM_009.jpg
691.587	1.276	1	pointing	Trial1	pointing/STIM_009.jpg
696.854	1.596	1	pointing	Trial1	pointing/STIM_009.jpg
701.305	1.553	1	pointing	Trial1	pointing/STIM_010.jpg
706.542	0.902	1	pointing	Trial1	pointing/STIM_010.jpg
710.065	0.924	1	pointing	Trial1	pointing/STIM_010.jpg
714.623	0.951	0	pointing	Trial1	pointing/STIM_010.jpg
718.997	1.566	1	pointing	Trial1	pointing/STIM_010.jpg
723.41	0.987	1	pointing	Trial1	pointing/STIM_010.jpg
726.984	1.374	1	pointing	Trial1	pointing/STIM_011.jpg
730.951	1.014	1	pointing	Trial1	pointing/STIM_011.jpg
735.527	1.16	1	pointing	Trial1	pointing/STIM_011.jpg
739.862	0.938	1	pointing	Trial1	pointing/STIM_011.jpg
743.074	0.888	1	pointing	Trial1	pointing/STIM_011.jpg
745.992	1.106	1	pointing	Trial1	pointing/STIM_011.jpg
750.83	4.604	1	navigation	Trial2	navigation/STIM_000.jpg
758.192	1.91	1	navigation	Trial2	navigation/STIM_000.jpg
762.821	3.088	1	navigation	Trial2	navigation/STIM_000.jpg
768.743	1.53	1	navigation	Trial2	navigation/STIM_000.jpg
773.542	2.995	1	navigation	Trial2	navigation/STIM_000.jpg
780.297	1.89	1	navigation	Trial2	navigation/STIM_000.jpg
785.204	2.849	1	navigation	Trial2	navigation/STIM_001.jpg
791.222	3.845	1	navigation	Trial2	navigation/STIM_001.jpg
797.305	1.688	1	navigation	Trial2	navigation/STIM_001.jpg
801.664	2.339	1	navigation	Trial2	navigation/STIM_001.jpg
806.299	1.904	1	navigation	Trial2	navigation/STIM_001.jpg
811.988	3.102	1	navigation	Trial2	navigation/STIM_001.jpg
818.382	2.359	1	navigation	Trial2	navigation/STIM_002.jpg
823.033	4.064	1	navigation	Trial2	navigation/STIM_002.jpg
829.888	3.269	1	navigation	Trial2	navigation/STIM_002.jpg
836.282	3.22	1	navigation	Trial2	navigation/STIM_002.jpg
842.883	1.83	1	navigation	Trial2	navigation/STIM_002.jpg
847.173	1.965	0	navigation	Trial2	navigation/STIM_002.jpg
852.015	4.445	1	navigation	Trial2	navigation/STIM_003.jpg
859.552	2.513	1	navigation	Trial2	navigation/STIM_003.jpg
864.74	3.626	0	navigation	Trial2	navigation/STIM_003.jpg
871.691	2.283	1	navigation	Trial2	navigation/STIM_003.jpg
876.268	2.686	1	navigation	Trial2	navigation/STIM_003.jpg
881.843	3.009	1	navigation	Trial2	navigation/STIM_003.jpg
887.833	2.055	0	navigation	Trial2	navigation/STIM_004.jpg
892.855	1.796	0	navigation	Trial2	navigation/STIM_004.jpg
898.508	3.816	0	navigation	Trial2	navigation/STIM_004.jpg
905.836	3.765	1	navigation	Trial2	navigation/STIM_004.jpg
912.892	2.954	0	navigation	Trial2	navigation/STIM_004.jpg
918.825	2.369	0	navigation	Trial2	navigation/STIM_004.jpg
923.839	2.797	1	navigation	Trial2	navigation/STIM_005.jpg
930.046	2.834	1	navigation	Trial2	navigation/STIM_005.jpg
934.886	3.468	0	navigation	Trial2	navigation/STIM_005.jpg
941.189	2.978	1	navigation	Trial2	navigation/STIM_005.jpg
946.659	1.576	1	navigation	Trial2	navigation/STIM_005.jpg
952.024	3.168	1	navigation	Trial2	navigation/STIM_005.jpg
957.338	2.445	1	navigation	Trial2	navigation/STIM_006.jpg
963.004	3.147	0	navigation	Trial2	navigation/STIM_006.jpg
968.99	3.93	1	navigation	Trial2	navigation/STIM_006.jpg
976.566	2.772	1	navigation	Trial2	navigation/STIM_006.jpg
982.084	2.522	1	navigation	Trial2	navigation/STIM_006.jpg
988.302	2.083	1	navigation	Trial2	navigation/STIM_006.jpg
993.988	2.092	1	navigation	Trial2	navigation/STIM_007.jpg
999.615	2.568	0	navigation	Trial2	navigation/STIM_007.jpg
1004.804	2.812	1	navigation	Trial2	navigation/STIM_007.jpg
1011.098	3.57	1	navigation	Trial2	navigation/STIM_007.jpg
1017.884	2.502	1	navigation	Trial2	navigation/STIM_007.jpg
1022.954	1.588	1	navigation	Trial2	navigation/STIM_007.jpg
1027.544	2.243	0	navigation	Trial2	navigation/STIM_008.jpg
1032.797	2.464	1	navigation	Trial2	navigation/STIM_008.jpg
1038.486	3.442	0	navigation	Trial2	navigation/STIM_008.jpg
1045.195	3.279	1	navigation	Trial2	navigation/STIM_008.jpg
1051.469	1.596	1	navigation	Trial2	navigation/STIM_008.jpg
1056.476	2.345	0	navigation	Trial2	navigation/STIM_008.jpg
1062.085	3.755	1	navigation	Trial2	navigation/STIM_009.jpg
1069.806	4.213	1	navigation	Trial2	navigation/STIM_009.jpg
1076.96	3.857	1	navigation	Trial2	navigation/STIM_009.jpg
1084.343	2.768	1	navigation	Trial2	navigation/STIM_009.jpg
1090.248	3.274	0	navigation	Trial2	navigation/STIM_009.jpg
1095.975	3.448	1	navigation	Trial2	navigation/STIM_009.jpg
1103.236	2.876	1	navigation	Trial2	navigation/STIM_010.jpg
1108.371	1.952	1	navigation	Trial2	navigation/STIM_010.jpg
1113.313	3.32	1	navigation	Trial2	navigation/STIM_010.jpg
1119.083	3.458	0	navigation	Trial2	navigation/STIM_010.jpg
1126.023	1.561	1	navigation	Trial2	navigation/STIM_010.jpg
1131.12	1.642	1	navigation	Trial2	navigation/STIM_010.jpg
1135.796	2.866	1	navigation	Trial2	navigation/STIM_011.jpg
1142.412	1.851	0	navigation	Trial2	navigation/STIM_011.jpg
1148.009	2.511	1	navigation	Trial2	navigation/STIM_011.jpg
1153.003	3.505	1	navigation	Trial2	navigation/STIM_011.jpg
1159.516	2.236	1	navigation	Trial2	navigation/STIM_011.jpg
1164.698	2.847	1	navigation	Trial2	navigation/STIM_011.jpg
1169.636	1.098	1	pointing	Trial2	pointing/STIM_000.jpg
1173.854	1.13	1	pointing	Trial2	pointing/STIM_000.jpg
1178.938	1.007	1	pointing	Trial2	pointing/STIM_000.jpg
1183.84	1.179	1	pointing	Trial2	pointing/STIM_000.jpg
1188.841	1.451	0	pointing	Trial2	pointing/STIM_000.jpg
1192.294	1.49	0	pointing	Trial2	pointing/STIM_000.jpg
1196.83	1.21	1	pointing	Trial2	pointing/STIM_001.jpg
1200.581	1.173	1	pointing	Trial2	pointing/STIM_001.jpg
1204.942	1.518	1	pointing	Trial2	pointing/STIM_001.jpg
1209.493	1.389	1	pointing	Trial2	pointing/STIM_001.jpg
1213.726	1.133	0	pointing	Trial2	pointing/STIM_001.jpg
1218.503	1.223	0	pointing	Trial2	pointing/STIM_001.jpg
1222.623	1.303	1	pointing	Trial2	pointing/STIM_002.jpg
1226.477	1.003	1	pointing	Trial2	pointing/STIM_002.jpg
1230.99	0.883	1	pointing	Trial2	pointing/STIM_002.jpg
1234.195	1.475	1	pointing	Trial2	pointing/STIM_002.jpg
1238.269	1.378	1	pointing	Trial2	pointing/STIM_002.jpg
1243.189	1.169	1	pointing	Trial2	pointing/STIM_002.jpg
1247.871	1.499	1	pointing	Trial2	pointing/STIM_003.jpg
1252.133	1.263	1	pointing	Trial2	pointing/STIM_003.jpg
1255.772	1.615	1	pointing	Trial2	pointing/STIM_003.jpg
1260.542	1.371	1	pointing	Trial2	pointing/STIM_003.jpg
1265.553	1.061	1	pointing	Trial2	pointing/STIM_003.jpg
1269.877	1.119	1	pointing	Trial2	pointing/STIM_003.jpg
1274.544	0.871	0	pointing	Trial2	pointing/STIM_004.jpg
1279.008	1.031	1	pointing	Trial2	pointing/STIM_004.jpg
1282.581	1.51	1	pointing	Trial2	pointing/STIM_004.jpg
1286.382	1.025	1	pointing	Trial2	pointing/STIM_004.jpg
1289.915	1.042	1	pointing	Trial2	pointing/STIM_004.jpg
1294.872	0.967	1	pointing	Trial2	pointing/STIM_004.jpg
1298.031	1.12	1	pointing	Trial2	pointing/STIM_005.jpg
1301.442	1.357	1	pointing	Trial2	pointing/STIM_005.jpg
1305.546	1.085	1	pointing	Trial2	pointing/STIM_005.jpg
1308.68	1.336	1	pointing	Trial2	pointing/STIM_005.jpg
1313.114	1.36	1	pointing	Trial2	pointing/STIM_005.jpg
1317.566	1.439	1	pointing	Trial2	pointing/STIM_005.jpg
1322.892	1.355	1	pointing	Trial2	pointing/STIM_006.jpg
1327.43	1.296	1	pointing	Trial2	pointing/STIM_006.jpg
1332.04	1.131	1	pointing	Trial2	pointing/STIM_006.jpg
1336.602	1.539	1	pointing	Trial2	pointing/STIM_006.jpg
1340.976	1.152	1	pointing	Trial2	pointing/STIM_006.jpg
1344.956	1.268	1	pointing	Trial2	pointing/STIM_006.jpg
1349.409	1.573	1	pointing	Trial2	pointing/STIM_007.jpg
1353.233	0.873	1	pointing	Trial2	pointing/STIM_007.jpg
1357.709	0.92	0	pointing	Trial2	pointing/STIM_007.jpg
1361.789	1.437	1	pointing	Trial2	pointing/STIM_007.jpg
1366.339	1.61	1	pointing	Trial2	pointing/STIM_007.jpg
1370.518	1.05	1	pointing	Trial2	pointing/STIM_007.jpg
1373.742	1.558	1	pointing	Trial2	pointing/STIM_008.jpg
1378.39	1.589	1	pointing	Trial2	pointing/STIM_008.jpg
1383.959	1.309	1	pointing	Trial2	pointing/STIM_008.jpg
1388.63	1.486	1	pointing	Trial2	pointing/STIM_008.jpg
1392.571	1.2	0	pointing	Trial2	pointing/STIM_008.jpg
1397.022	1.226	1	pointing	Trial2	pointing/STIM_008.jpg
1400.914	1.17	1	pointing	Trial2	pointing/STIM_009.jpg
1405.985	1.404	1	pointing	Trial2	pointing/STIM_009.jpg
1411.119	0.95	1	pointing	Trial2	pointing/STIM_009.jpg
1415.035	1.294	1	pointing	Trial2	pointing/STIM_009.jpg
1419.782	1.391	1	pointing	Trial2	pointing/STIM_009.jpg
1424.925	1.523	1	pointing	Trial2	pointing/STIM_009.jpg
1429.313	1.382	1	pointing	Trial2	pointing/STIM_010.jpg
1433.875	1.319	1	pointing	Trial2	pointing/STIM_010.jpg
1438.4	1.108	1	pointing	Trial2	pointing/STIM_010.jpg
1441.835	1.033	1	pointing	Trial2	pointing/STIM_010.jpg
1445.996	1.314	1	pointing	Trial2	pointing/STIM_010.jpg
1450.429	1.152	1	pointing	Trial2	pointing/STIM_010.jpg
1453.764	1.224	1	pointing	Trial2	pointing/STIM_011.jpg
1458.562	0.944	1	pointing	Trial2	pointing/STIM_011.jpg
1462.397	1.177	1	pointing	Trial2	pointing/STIM_011.jpg
1466.402	0.916	1	pointing	Trial2	pointing/STIM_011.jpg
1470.673	0.895	1	pointing	Trial2	pointing/STIM_011.jpg
1474.825	1.573	1	pointing	Trial2	pointing/STIM_011.jpg
1480.287	1.603	1	navigation	Trial3	navigation/STIM_000.jpg
1484.665	2.553	1	navigation	Trial3	navigation/STIM_000.jpg
1490.585	2.331	1	navigation	Trial3	navigation/STIM_000.jpg
1494.975	1.774	1	navigation	Trial3	navigation/STIM_000.jpg
1498.952	1.859	1	navigation	Trial3	navigation/STIM_000.jpg
1504.364	2.528	1	navigation	Trial3	navigation/STIM_000.jpg
1510.37	3.753	1	navigation	Trial3	navigation/STIM_001.jpg
1517.994	1.591	1	navigation	Trial3	navigation/STIM_001.jpg
1522.504	2.045	1	navigation	Trial3	navigation/STIM_001.jpg
1526.554	2.528	1	navigation	Trial3	navigation/STIM_001.jpg
1532.259	2.992	1	navigation	Trial3	navigation/STIM_001.jpg
1538.62	2.833	1	navigation	Trial3	navigation/STIM_001.jpg
1545.155	2.491	1	navigation	Trial3	navigation/STIM_002.jpg
1550.149	2.302	1	navigation	Trial3	navigation/STIM_002.jpg
1555.834	2.486	1	navigation	Trial3	navigation/STIM_002.jpg
1561.312	2.498	1	navigation	Trial3	navigation/STIM_002.jpg
1565.882	3.578	1	navigation	Trial3	navigation/STIM_002.jpg
1572.077	3.483	1	navigation	Trial3	navigation/STIM_002.jpg
1578.433	3.434	1	navigation	Trial3	navigation/STIM_003.jpg
1584.578	3.716	0	navigation	Trial3	navigation/STIM_003.jpg
1591.29	3.313	1	navigation	Trial3	navigation/STIM_003.jpg
1596.721	2.466	1	navigation	Trial3	navigation/STIM_003.jpg
1601.439	3.461	1	navigation	Trial3	navigation/STIM_003.jpg
1607.388	2.096	1	navigation	Trial3	navigation/STIM_003.jpg
1612.469	2.862	1	navigation	Trial3	navigation/STIM_004.jpg
1619.139	3.761	0	navigation	Trial3	navigation/STIM_004.jpg
1626.142	2.189	1	navigation	Trial3	navigation/STIM_004.jpg
1632.181	2.739	1	navigation	Trial3	navigation/STIM_004.jpg
1637.963	3.727	1	navigation	Trial3	navigation/STIM_004.jpg
1645.224	2.507	1	navigation	Trial3	navigation/STIM_004.jpg
1651.319	3.588	1	navigation	Trial3	navigation/STIM_005.jpg
1658.572	2.256	1	navigation	Trial3	navigation/STIM_005.jpg
1663.613	2.495	1	navigation	Trial3	navigation/STIM_005.jpg
1669.596	3.394	1	navigation	Trial3	navigation/STIM_005.jpg
1676.16	2.606	1	navigation	Trial3	navigation/STIM_005.jpg
1681.12	2.135	1	navigation	Trial3	navigation/STIM_005.jpg
1686.073	3.092	1	navigation	Trial3	navigation/STIM_006.jpg
1691.184	3.678	0	navigation	Trial3	navigation/STIM_006.jpg
1697.841	2.073	1	navigation	Trial3	navigation/STIM_006.jpg
1702.463	1.893	1	navigation	Trial3	navigation/STIM_006.jpg
1708.091	3.786	1	navigation	Trial3	navigation/STIM_006.jpg
1715.314	3.588	1	navigation	Trial3	navigation/STIM_006.jpg
1722.083	2.894	1	navigation	Trial3	navigation/STIM_007.jpg
1728.785	2.081	1	navigation	Trial3	navigation/STIM_007.jpg
1734.36	3.572	1	navigation	Trial3	navigation/STIM_007.jpg
1741.499	2.503	1	navigation	Trial3	navigation/STIM_007.jpg
1747.703	2.903	1	navigation	Trial3	navigation/STIM_007.jpg
1752.702	2.4	1	navigation	Trial3	navigation/STIM_007.jpg
1757.333	2.199	1	navigation	Trial3	navigation/STIM_008.jpg
1762.063	2.202	1	navigation	Trial3	navigation/STIM_008.jpg
1767.263	3.781	1	navigation	Trial3	navigation/STIM_008.jpg
1774.171	3.12	1	navigation	Trial3	navigation/STIM_008.jpg
1779.86	3.543	1	navigation	Trial3	navigation/STIM_008.jpg
1785.443	3.427	1	navigation	Trial3	navigation/STIM_008.jpg
1791.864	3.154	0	navigation	Trial3	navigation/STIM_009.jpg
1798.684	3.428	1	navigation	Trial3	navigation/STIM_009.jpg
1805.888	2.661	1	navigation	Trial3	navigation/STIM_009.jpg
1811.382	3.092	1	navigation	Trial3	navigation/STIM_009.jpg
1817.259	3.133	1	navigation	Trial3	navigation/STIM_009.jpg
1823.579	2.056	1	navigation	Trial3	navigation/STIM_009.jpg
1827.823	2.035	1	navigation	Trial3	navigation/STIM_010.jpg
1833.556	2.812	0	navigation	Trial3	navigation/STIM_010.jpg
1838.626	3.395	1	navigation	Trial3	navigation/STIM_010.jpg
1845.718	2.259	1	navigation	Trial3	navigation/STIM_010.jpg
1851.539	3.257	1	navigation	Trial3	navigation/STIM_010.jpg
1858.724	3.25	1	navigation	Trial3	navigation/STIM_010.jpg
1865.379	3.395	1	navigation	Trial3	navigation/STIM_011.jpg
1872.569	2.364	0	navigation	Trial3	navigation/STIM_011.jpg
1878.34	3.634	1	navigation	Trial3	navigation/STIM_011.jpg
1884.24	3.285	1	navigation	Trial3	navigation/STIM_011.jpg
1889.609	3.753	1	navigation	Trial3	navigation/STIM_011.jpg
1896.997	2.942	1	navigation	Trial3	navigation/STIM_011.jpg
1903.67	1.397	1	pointing	Trial3	pointing/STIM_000.jpg
1907.923	1.42	1	pointing	Trial3	pointing/STIM_000.jpg
1912.097	1.604	1	pointing	Trial3	pointing/STIM_000.jpg
1915.736	1.222	1	pointing	Trial3	pointing/STIM_000.jpg
1920.095	0.996	1	pointing	Trial3	pointing/STIM_000.jpg
1924.359	0.901	1	pointing	Trial3	pointing/STIM_000.jpg
1928.578	0.87	1	pointing	Trial3	pointing/STIM_001.jpg
1931.605	1.015	1	pointing	Trial3	pointing/STIM_001.jpg
1935.755	1.485	1	pointing	Trial3	pointing/STIM_001.jpg
1939.908	1.442	1	pointing	Trial3	pointing/STIM_001.jpg
1945.176	1.429	0	pointing	Trial3	pointing/STIM_001.jpg
1949.502	1.558	1	pointing	Trial3	pointing/STIM_001.jpg
1953.183	1.445	1	pointing	Trial3	pointing/STIM_002.jpg
1958.183	1.364	1	pointing	Trial3	pointing/STIM_002.jpg
1963.15	1.156	0	pointing	Trial3	pointing/STIM_002.jpg
1967.233	1.305	1	pointing	Trial3	pointing/STIM_002.jpg
1972.18	0.982	1	pointing	Trial3	pointing/STIM_002.jpg
1977.151	0.884	0	pointing	Trial3	pointing/STIM_002.jpg
1980.036	1.386	1	pointing	Trial3	pointing/STIM_003.jpg
1984.554	1.22	1	pointing	Trial3	pointing/STIM_003.jpg
1988.52	1.266	1	pointing	Trial3	pointing/STIM_003.jpg
1992.886	1.144	1	pointing	Trial3	pointing/STIM_003.jpg
1997.92	1.534	1	pointing	Trial3	pointing/STIM_003.jpg
2002.804	1.22	1	pointing	Trial3	pointing/STIM_003.jpg
2007.614	0.93	1	pointing	Trial3	pointing/STIM_004.jpg
2012.524	1.183	1	pointing	Trial3	pointing/STIM_004.jpg
2017.509	0.947	1	pointing	Trial3	pointing/STIM_004.jpg
2021.328	1.366	1	pointing	Trial3	pointing/STIM_004.jpg
2025.654	0.971	1	pointing	Trial3	pointing/STIM_004.jpg
2029.232	1.031	1	pointing	Trial3	pointing/STIM_004.jpg
2033.006	1.57	1	pointing	Trial3	pointing/STIM_005.jpg
2036.86	1.479	1	pointing	Trial3	pointing/STIM_005.jpg
2042.243	1.476	1	pointing	Trial3	pointing/STIM_005.jpg
2046.711	1.584	0	pointing	Trial3	pointing/STIM_005.jpg
2050.89	1.389	1	pointing	Trial3	pointing/STIM_005.jpg
2056.098	0.979	1	pointing	Trial3	pointing/STIM_005.jpg
2060.137	1.271	1	pointing	Trial3	pointing/STIM_006.jpg
2064.602	1.301	1	pointing	Trial3	pointing/STIM_006.jpg
2069.21	0.898	1	pointing	Trial3	pointing/STIM_006.jpg
2073.169	1.067	1	pointing	Trial3	pointing/STIM_006.jpg
2078.226	1.535	1	pointing	Trial3	pointing/STIM_006.jpg
2083.705	1.087	1	pointing	Trial3	pointing/STIM_006.jpg
2087.655	1.084	1	pointing	Trial3	pointing/STIM_007.jpg
2092.339	1.145	1	pointing	Trial3	pointing/STIM_007.jpg
2096.365	1.474	1	pointing	Trial3	pointing/STIM_007.jpg
2101.341	0.871	1	pointing	Trial3	pointing/STIM_007.jpg
2104.491	1.035	1	pointing	Trial3	pointing/STIM_007.jpg
2108.333	1.443	1	pointing	Trial3	pointing/STIM_007.jpg
2112.096	1.134	1	pointing	Trial3	pointing/STIM_008.jpg
2115.612	1.575	1	pointing	Trial3	pointing/STIM_008.jpg
2120.873	1.074	1	pointing	Trial3	pointing/STIM_008.jpg
2125.488	1.183	1	pointing	Trial3	pointing/STIM_008.jpg
2130.659	0.971	1	pointing	Trial3	pointing/STIM_008.jpg
2134.185	1.534	1	pointing	Trial3	pointing/STIM_008.jpg
2137.771	0.904	1	pointing	Trial3	pointing/STIM_009.jpg
2141.232	1.248	1	pointing	Trial3	pointing/STIM_009.jpg
2145.884	1.34	1	pointing	Trial3	pointing/STIM_009.jpg
2150.349	1.338	1	pointing	Trial3	pointing/STIM_009.jpg
2154.414	1.426	1	pointing	Trial3	pointing/STIM_009.jpg
2158.166	1.024	1	pointing	Trial3	pointing/STIM_009.jpg
2162.679	1.556	1	pointing	Trial3	pointing/STIM_010.jpg
2166.629	0.993	1	pointing	Trial3	pointing/STIM_010.jpg
2170.624	1.123	1	pointing	Trial3	pointing/STIM_010.jpg
2174.689	1.319	1	pointing	Trial3	pointing/STIM_010.jpg
2179.423	1.541	1	pointing	Trial3	pointing/STIM_010.jpg
2184.845	1.314	1	pointing	Trial3	pointing/STIM_010.jpg
2189.539	0.91	0	pointing	Trial3	pointing/STIM_011.jpg
2193.86	1.09	1	pointing	Trial3	pointing/STIM_011.jpg
2198.501	1.442	1	pointing	Trial3	pointing/STIM_011.jpg
2203.52	0.984	1	pointing	Trial3	pointing/STIM_011.jpg
2207.787	1.344	1	pointing	Trial3	pointing/STIM_011.jpg
2212.821	1.409	1	pointing	Trial3	pointing/STIM_011.jpg
