onset	duration	response_time_ms	trial_type	learning_stage	stimulus	response_port
0.0	4.514	4514.0	navigation	Trial1	navigation/STIM_000.jpg	100
6.903	2.877	2877.3	navigation	Trial1	navigation/STIM_000.jpg	100
12.551	3.653	3653.4	navigation	Trial1	navigation/STIM_000.jpg	100
19.133	3.746	3746.4	navigation	Trial1	navigation/STIM_000.jpg	99
25.315	2.822	2822.3	navigation	Trial1	navigation/STIM_000.jpg	99
30.503	2.883	2883.4	navigation	Trial1	navigation/STIM_000.jpg	99
35.328	4.349	4349.2	navigation	Trial1	navigation/STIM_001.jpg	99
42.053	3.932	3932.4	navigation	Trial1	navigation/STIM_001.jpg	100
48.559	3.641	3640.6	navigation	Trial1	navigation/STIM_001.jpg	100
54.972	2.945	2945.4	navigation	Trial1	navigation/STIM_001.jpg	99
60.755	2.512	2511.6	navigation	Trial1	navigation/STIM_001.jpg	100
66.222	3.346	3346.1	navigation	Trial1	navigation/STIM_001.jpg	100
71.742	3.254	3253.8	navigation	Trial1	navigation/STIM_002.jpg	100
77.937	3.196	3195.5	navigation	Trial1	navigation/STIM_002.jpg	100
83.564	4.427	4426.7	navigation	Trial1	navigation/STIM_002.jpg	99
90.748	4.293	4293.4	navigation	Trial1	navigation/STIM_002.jpg	100
98.753	2.094	2094.1	navigation	Trial1	navigation/STIM_002.jpg	99
103.921	1.574	1573.6	navigation	Trial1	navigation/STIM_002.jpg	99
107.862	2.366	2365.6	navigation	Trial1	navigation/STIM_003.jpg	99
112.343	4.251	4251.2	navigation	Trial1	navigation/STIM_003.jpg	99
119.071	3.844	3843.7	navigation	Trial1	navigation/STIM_003.jpg	99
125.903	3.861	3861.1	navigation	Trial1	navigation/STIM_003.jpg	100
132.122	2.996	2996.3	navigation	Trial1	navigation/STIM_003.jpg	100
137.783	2.956	2956.2	navigation	Trial1	navigation/STIM_003.jpg	100
143.654	4.953	4952.7	navigation	Trial1	navigation/STIM_004.jpg	99
151.715	1.952	1952.1	navigation	Trial1	navigation/STIM_004.jpg	100
156.433	2.992	2992.3	navigation	Trial1	navigation/STIM_004.jpg	100
161.57	3.831	3831.0	navigation	Trial1	navigation/STIM_004.jpg	100
169.245	2.44	2439.7	navigation	Trial1	navigation/STIM_004.jpg	100
174.422	2.209	2208.8	navigation	Trial1	navigation/STIM_004.jpg	100
179.215	4.486	4485.6	navigation	Trial1	navigation/STIM_005.jpg	100
186.992	2.776	2776.4	navigation	Trial1	navigation/STIM_005.jpg	100
193.334	2.839	2839.2	navigation	Trial1	navigation/STIM_005.jpg	99
199.103	3.44	3440.3	navigation	Trial1	navigation/STIM_005.jpg	99
204.847	2.566	2565.6	navigation	Trial1	navigation/STIM_005.jpg	100
210.363	2.953	2953.1	navigation	Trial1	navigation/STIM_005.jpg	99
216.507	3.351	3350.7	navigation	Trial1	navigation/STIM_006.jpg	99
221.986	1.908	1908.0	navigation	Trial1	navigation/STIM_006.jpg	100
226.724	4.0	3999.8	navigation	Trial1	navigation/STIM_006.jpg	99
234.563	3.236	3235.8	navigation	Trial1	navigation/STIM_006.jpg	100
241.728	2.325	2325.0	navigation	Trial1	navigation/STIM_006.jpg	100
246.1	2.521	2520.7	navigation	Trial1	navigation/STIM_006.jpg	100
251.019	4.391	4391.2	navigation	Trial1	navigation/STIM_007.jpg	100
257.974	2.235	2234.9	navigation	Trial1	navigation/STIM_007.jpg	99
263.048	3.34	3339.5	navigation	Trial1	navigation/STIM_007.jpg	100
269.7	3.539	3538.9	navigation	Trial1	navigation/STIM_007.jpg	100
275.427	3.301	3301.1	navigation	Trial1	navigation/STIM_007.jpg	99
281.959	2.288	2288.3	navigation	Trial1	navigation/STIM_007.jpg	99
287.158	3.343	3343.0	navigation	Trial1	navigation/STIM_008.jpg	100
294.129	2.01	2010.2	navigation	Trial1	navigation/STIM_008.jpg	100
299.456	3.155	3154.6	navigation	Trial1	navigation/STIM_008.jpg	99
304.634	3.544	3544.1	navigation	Trial1	navigation/STIM_008.jpg	100
311.214	1.712	1711.8	navigation	Trial1	navigation/STIM_008.jpg	100
315.237	3.607	3606.8	navigation	Trial1	navigation/STIM_008.jpg	100
320.904	3.665	3665.3	navigation	Trial1	navigation/STIM_009.jpg	99
327.19	3.346	3345.7	navigation	Trial1	navigation/STIM_009.jpg	100
333.226	1.857	1857.3	navigation	Trial1	navigation/STIM_009.jpg	99
338.829	4.084	4084.4	navigation	Trial1	navigation/STIM_009.jpg	99
344.997	1.911	1911.4	navigation	Trial1	navigation/STIM_009.jpg	99
349.214	1.712	1711.5	navigation	Trial1	navigation/STIM_009.jpg	100
353.35	2.09	2090.3	navigation	Trial1	navigation/STIM_010.jpg	100
359.096	4.795	4795.2	navigation	Trial1	navigation/STIM_010.jpg	99
366.622	1.909	1909.4	navigation	Trial1	navigation/STIM_010.jpg	100
371.453	2.772	2772.3	navigation	Trial1	navigation/STIM_010.jpg	100
377.057	2.461	2461.2	navigation	Trial1	navigation/STIM_010.jpg	100
381.552	3.64	3640.3	navigation	Trial1	navigation/STIM_010.jpg	100
387.424	4.032	4032.1	navigation	Trial1	navigation/STIM_011.jpg	100
394.784	2.03	2029.9	navigation	Trial1	navigation/STIM_011.jpg	100
399.404	2.998	2998.3	navigation	Trial1	navigation/STIM_011.jpg	100
405.246	3.461	3460.8	navigation	Trial1	navigation/STIM_011.jpg	99
411.506	3.193	3193.4	navigation	Trial1	navigation/STIM_011.jpg	99
417.744	2.452	2451.8	navigation	Trial1	navigation/STIM_011.jpg	100
423.919	0.98	979.5	pointing	Trial1	pointing/STIM_000.jpg	100
428.765	1.386	1385.5	pointing	Trial1	pointing/STIM_000.jpg	99
432.684	1.51	1509.9	pointing	Trial1	pointing/STIM_000.jpg	99
437.936	1.045	1045.3	pointing	Trial1	pointing/STIM_000.jpg	99
441.558	0.962	961.5	pointing	Trial1	pointing/STIM_000.jpg	99
445.171	1.375	1375.1	pointing	Trial1	pointing/STIM_000.jpg	99
450.394	1.406	1405.9	pointing	Trial1	pointing/STIM_001.jpg	100
455.152	0.932	932.4	pointing	Trial1	pointing/STIM_001.jpg	100
458.771	1.42	1419.6	pointing	Trial1	pointing/STIM_001.jpg	100
462.386	1.414	1414.4	pointing	Trial1	pointing/STIM_001.jpg	99
467.33	0.901	900.7	pointing	Trial1	pointing/STIM_001.jpg	99
470.409	1.202	1202.2	pointing	Trial1	pointing/STIM_001.jpg	100
475.335	1.032	1031.8	pointing	Trial1	pointing/STIM_002.jpg	99
479.247	1.22	1220.5	pointing	Trial1	pointing/STIM_002.jpg	99
482.959	1.515	1514.7	pointing	Trial1	pointing/STIM_002.jpg	100
486.59	1.372	1371.5	pointing	Trial1	pointing/STIM_002.jpg	100
490.271	0.923	922.8	pointing	Trial1	pointing/STIM_002.jpg	100
494.4	1.004	1004.3	pointing	Trial1	pointing/STIM_002.jpg	99
498.989	0.888	888.4	pointing	Trial1	pointing/STIM_003.jpg	99
502.25	1.298	1298.1	pointing	Trial1	pointing/STIM_003.jpg	99
506.552	1.071	1071.4	pointing	Trial1	pointing/STIM_003.jpg	100
509.611	1.289	1289.1	pointing	Trial1	pointing/STIM_003.jpg	100
513.017	0.804	804.3	pointing	Trial1	pointing/STIM_003.jpg	100
517.369	1.338	1338.3	pointing	Trial1	pointing/STIM_003.jpg	100
522.035	1.113	1113.3	pointing	Trial1	pointing/STIM_004.jpg	99
526.908	1.251	1250.8	pointing	Trial1	pointing/STIM_004.jpg	100
531.562	1.562	1561.9	pointing	Trial1	pointing/STIM_004.jpg	100
535.04	1.556	1555.5	pointing	Trial1	pointing/STIM_004.jpg	100
540.125	1.124	1124.4	pointing	Trial1	pointing/STIM_004.jpg	99
543.689	1.379	1378.9	pointing	Trial1	pointing/STIM_004.jpg	100
547.727	1.176	1175.5	pointing	Trial1	pointing/STIM_005.jpg	100
550.999	1.375	1375.4	pointing	Trial1	pointing/STIM_005.jpg	99
555.194	1.391	1391.1	pointing	Trial1	pointing/STIM_005.jpg	100
558.925	0.895	894.9	pointing	Trial1	pointing/STIM_005.jpg	99
562.006	0.975	975.1	pointing	Trial1	pointing/STIM_005.jpg	100
565.55	1.235	1235.2	pointing	Trial1	pointing/STIM_005.jpg	100
569.408	1.14	1139.8	pointing	Trial1	pointing/STIM_006.jpg	100
574.348	1.423	1422.9	pointing	Trial1	pointing/STIM_006.jpg	100
578.417	1.295	1294.8	pointing	Trial1	pointing/STIM_006.jpg	100
582.246	1.371	1371.0	pointing	Trial1	pointing/STIM_006.jpg	99
586.593	1.19	1190.0	pointing	Trial1	pointing/STIM_006.jpg	100
591.156	1.256	1255.8	pointing	Trial1	pointing/STIM_006.jpg	99
595.578	1.37	1370.3	pointing	Trial1	pointing/STIM_007.jpg	99
599.347	0.874	874.0	pointing	Trial1	pointing/STIM_007.jpg	100
602.737	0.766	766.2	pointing	Trial1	pointing/STIM_007.jpg	99
605.93	1.37	1369.9	pointing	Trial1	pointing/STIM_007.jpg	100
610.871	1.278	1277.7	pointing	Trial1	pointing/STIM_007.jpg	99
615.516	1.081	1081.2	pointing	Trial1	pointing/STIM_007.jpg	100
619.166	0.796	795.8	pointing	Trial1	pointing/STIM_008.jpg	99
623.109	0.929	929.1	pointing	Trial1	pointing/STIM_008.jpg	100
627.671	1.17	1169.5	pointing	Trial1	pointing/STIM_008.jpg	99
632.266	1.107	1107.4	pointing	Trial1	pointing/STIM_008.jpg	99
635.583	0.893	893.4	pointing	Trial1	pointing/STIM_008.jpg	100
638.839	1.162	1162.1	pointing	Trial1	pointing/STIM_008.jpg	100
642.244	1.32	1319.8	pointing	Trial1	pointing/STIM_009.jpg	99
646.09	1.46	1459.8	pointing	Trial1	pointing/STIM_009.jpg	99
650.28	0.858	857.9	pointing	Trial1	pointing/STIM_009.jpg	100
653.321	1.5	1500.2	pointing	Trial1	pointing/STIM_009.jpg	99
658.075	1.444	1444.3	pointing	Trial1	pointing/STIM_009.jpg	99
662.333	1.414	1414.4	pointing	Trial1	pointing/STIM_009.jpg	100
666.167	1.435	1434.9	pointing	Trial1	pointing/STIM_010.jpg	99
671.415	1.353	1353.0	pointing	Trial1	pointing/STIM_010.jpg	99
675.707	1.112	1111.9	pointing	Trial1	pointing/STIM_010.jpg	99
680.527	1.242	1241.7	pointing	Trial1	pointing/STIM_010.jpg	99
684.348	1.048	1048.4	pointing	Trial1	pointing/STIM_010.jpg	100
687.546	1.493	1493.4	pointing	Trial1	pointing/STIM_010.jpg	100
691.162	1.264	1264.1	pointing	Trial1	pointing/STIM_011.jpg	100
694.528	0.974	973.5	pointing	Trial1	pointing/STIM_011.jpg	100
698.493	1.493	1493.1	pointing	Trial1	pointing/STIM_011.jpg	100
702.781	0.944	943.8	pointing	Trial1	pointing/STIM_011.jpg	99
705.803	1.26	1260.5	pointing	Trial1	pointing/STIM_011.jpg	99
709.743	1.04	1040.4	pointing	Trial1	pointing/STIM_011.jpg	99
713.111	3.434	3433.7	navigation	Trial2	navigation/STIM_000.jpg	99
720.28	1.818	1817.6	navigation	Trial2	navigation/STIM_000.jpg	99
725.19	3.119	3119.2	navigation	Trial2	navigation/STIM_000.jpg	99
731.485	2.278	2278.0	navigation	Trial2	navigation/STIM_000.jpg	100
736.269	2.806	2805.7	navigation	Trial2	navigation/STIM_000.jpg	99
742.178	2.436	2436.5	navigation	Trial2	navigation/STIM_000.jpg	100
748.381	1.724	1724.0	navigation	Trial2	navigation/STIM_001.jpg	100
753.69	2.549	2548.6	navigation	Trial2	navigation/STIM_001.jpg	100
759.266	2.453	2453.3	navigation	Trial2	navigation/STIM_001.jpg	100
765.077	2.09	2089.6	navigation	Trial2	navigation/STIM_001.jpg	99
770.993	2.678	2678.1	navigation	Trial2	navigation/STIM_001.jpg	99
777.463	3.302	3302.4	navigation	Trial2	navigation/STIM_001.jpg	99
783.103	2.715	2715.1	navigation	Trial2	navigation/STIM_002.jpg	99
788.778	2.313	2313.0	navigation	Trial2	navigation/STIM_002.jpg	99
793.251	1.863	1863.2	navigation	Trial2	navigation/STIM_002.jpg	100
798.09	1.47	1470.3	navigation	Trial2	navigation/STIM_002.jpg	99
802.996	1.492	1492.3	navigation	Trial2	navigation/STIM_002.jpg	99
808.321	3.491	3490.7	navigation	Trial2	navigation/STIM_002.jpg	100
813.856	3.761	3761.2	navigation	Trial2	navigation/STIM_003.jpg	100
820.751	3.175	3174.9	navigation	Trial2	navigation/STIM_003.jpg	100
826.223	1.974	1974.1	navigation	Trial2	navigation/STIM_003.jpg	99
830.714	2.069	2068.7	navigation	Trial2	navigation/STIM_003.jpg	99
836.237	1.516	1516.5	navigation	Trial2	navigation/STIM_003.jpg	100
840.793	1.784	1783.8	navigation	Trial2	navigation/STIM_003.jpg	99
845.467	4.143	4142.9	navigation	Trial2	navigation/STIM_004.jpg	99
853.335	2.761	2760.8	navigation	Trial2	navigation/STIM_004.jpg	100
858.99	3.542	3542.1	navigation	Trial2	navigation/STIM_004.jpg	100
864.803	3.467	3466.8	navigation	Trial2	navigation/STIM_004.jpg	99
871.856	3.566	3565.5	navigation	Trial2	navigation/STIM_004.jpg	99
878.417	1.552	1552.5	navigation	Trial2	navigation/STIM_004.jpg	99
883.847	2.884	2884.5	navigation	Trial2	navigation/STIM_005.jpg	100
890.097	3.828	3828.5	navigation	Trial2	navigation/STIM_005.jpg	99
896.501	1.545	1544.6	navigation	Trial2	navigation/STIM_005.jpg	99
900.048	2.836	2836.3	navigation	Trial2	navigation/STIM_005.jpg	99
906.525	1.766	1766.5	navigation	Trial2	navigation/STIM_005.jpg	100
910.38	2.802	2802.1	navigation	Trial2	navigation/STIM_005.jpg	100
915.904	2.871	2871.1	navigation	Trial2	navigation/STIM_006.jpg	99
920.889	2.79	2789.8	navigation	Trial2	navigation/STIM_006.jpg	99
926.097	1.962	1961.9	navigation	Trial2	navigation/STIM_006.jpg	100
931.685	1.485	1485.3	navigation	Trial2	navigation/STIM_006.jpg	100
936.319	3.5	3500.3	navigation	Trial2	navigation/STIM_006.jpg	99
942.224	1.714	1714.2	navigation	Trial2	navigation/STIM_006.jpg	99
947.594	4.319	4319.0	navigation	Trial2	navigation/STIM_007.jpg	100
954.741	3.267	3266.9	navigation	Trial2	navigation/STIM_007.jpg	100
960.194	2.802	2802.1	navigation	Trial2	navigation/STIM_007.jpg	100
966.588	1.834	1834.1	navigation	Trial2	navigation/STIM_007.jpg	99
970.596	2.706	2706.1	navigation	Trial2	navigation/STIM_007.jpg	100
976.301	2.544	2544.4	navigation	Trial2	navigation/STIM_007.jpg	100
981.432	3.972	3971.6	navigation	Trial2	navigation/STIM_008.jpg	100
988.738	3.679	3679.3	navigation	Trial2	navigation/STIM_008.jpg	99
995.472	3.424	3423.7	navigation	Trial2	navigation/STIM_008.jpg	100
1002.059	2.667	2666.7	navigation	Trial2	navigation/STIM_008.jpg	99
1008.647	3.258	3258.1	navigation	Trial2	navigation/STIM_008.jpg	99
1014.552	2.236	2235.6	navigation	Trial2	navigation/STIM_008.jpg	100
1019.52	2.918	2917.9	navigation	Trial2	navigation/STIM_009.jpg	99
1025.35	2.461	2460.6	navigation	Trial2	navigation/STIM_009.jpg	99
1031.407	2.263	2263.4	navigation	Trial2	navigation/STIM_009.jpg	99
1037.277	2.294	2293.5	navigation	Trial2	navigation/STIM_009.jpg	100
1042.885	2.94	2939.6	navigation	Trial2	navigation/STIM_009.jpg	100
1048.281	3.549	3549.2	navigation	Trial2	navigation/STIM_009.jpg	100
1054.583	4.231	4230.6	navigation	Trial2	navigation/STIM_010.jpg	100
1061.33	2.176	2175.9	navigation	Trial2	navigation/STIM_010.jpg	99
1067.03	1.505	1505.0	navigation	Trial2	navigation/STIM_010.jpg	100
1071.937	1.55	1550.0	navigation	Trial2	navigation/STIM_010.jpg	99
1075.74	1.902	1902.3	navigation	Trial2	navigation/STIM_010.jpg	99
1081.372	1.527	1526.8	navigation	Trial2	navigation/STIM_010.jpg	100
1084.875	2.748	2748.3	navigation	Trial2	navigation/STIM_011.jpg	99
1090.638	1.935	1934.7	navigation	Trial2	navigation/STIM_011.jpg	99
1096.212	2.318	2318.1	navigation	Trial2	navigation/STIM_011.jpg	100
1100.616	1.651	1651.3	navigation	Trial2	navigation/STIM_011.jpg	99
1104.748	2.71	2710.0	navigation	Trial2	navigation/STIM_011.jpg	99
1111.387	2.988	2988.1	navigation	Trial2	navigation/STIM_011.jpg	99
1118.114	1.016	1015.8	pointing	Trial2	pointing/STIM_000.jpg	100
1122.525	1.556	1555.5	pointing	Trial2	pointing/STIM_000.jpg	99
1126.901	0.86	859.5	pointing	Trial2	pointing/STIM_000.jpg	100
1129.798	1.357	1357.3	pointing	Trial2	pointing/STIM_000.jpg	99
1133.781	1.238	1237.5	pointing	Trial2	pointing/STIM_000.jpg	100
1136.978	1.348	1348.5	pointing	Trial2	pointing/STIM_000.jpg	100
1141.753	1.498	1497.6	pointing	Trial2	pointing/STIM_001.jpg	100
1146.725	1.392	1392.0	pointing	Trial2	pointing/STIM_001.jpg	99
1151.591	1.336	1335.6	pointing	Trial2	pointing/STIM_001.jpg	100
1155.156	1.402	1401.6	pointing	Trial2	pointing/STIM_001.jpg	99
1160.036	1.01	1010.3	pointing	Trial2	pointing/STIM_001.jpg	99
1163.162	1.365	1364.8	pointing	Trial2	pointing/STIM_001.jpg	99
1167.03	1.363	1363.3	pointing	Trial2	pointing/STIM_002.jpg	100
1170.983	0.931	930.7	pointing	Trial2	pointing/STIM_002.jpg	100
1175.551	1.144	1143.7	pointing	Trial2	pointing/STIM_002.jpg	99
1180.606	1.506	1505.7	pointing	Trial2	pointing/STIM_002.jpg	99
1184.625	1.233	1233.2	pointing	Trial2	pointing/STIM_002.jpg	100
1188.405	1.131	1131.1	pointing	Trial2	pointing/STIM_002.jpg	99
1193.324	1.104	1104.1	pointing	Trial2	pointing/STIM_003.jpg	99
1198.058	1.091	1091.2	pointing	Trial2	pointing/STIM_003.jpg	100
1202.09	1.382	1381.8	pointing	Trial2	pointing/STIM_003.jpg	100
1205.914	1.385	1384.8	pointing	Trial2	pointing/STIM_003.jpg	100
1210.106	0.887	887.2	pointing	Trial2	pointing/STIM_003.jpg	99
1214.074	0.831	831.4	pointing	Trial2	pointing/STIM_003.jpg	99
1217.169	1.416	1416.2	pointing	Trial2	pointing/STIM_004.jpg	99
1221.676	1.448	1448.1	pointing	Trial2	pointing/STIM_004.jpg	100
1226.265	1.542	1542.0	pointing	Trial2	pointing/STIM_004.jpg	100
1230.079	1.27	1270.0	pointing	Trial2	pointing/STIM_004.jpg	100
1235.142	1.539	1538.9	pointing	Trial2	pointing/STIM_004.jpg	99
1239.274	1.158	1157.5	pointing	Trial2	pointing/STIM_004.jpg	99
1243.598	1.488	1488.0	pointing	Trial2	pointing/STIM_005.jpg	100
1248.845	1.262	1261.9	pointing	Trial2	pointing/STIM_005.jpg	100
1252.667	1.143	1142.8	pointing	Trial2	pointing/STIM_005.jpg	99
1257.066	1.109	1109.2	pointing	Trial2	pointing/STIM_005.jpg	99
1262.024	0.905	904.7	pointing	Trial2	pointing/STIM_005.jpg	100
1265.468	0.843	843.1	pointing	Trial2	pointing/STIM_005.jpg	100
1269.164	1.047	1047.2	pointing	Trial2	pointing/STIM_006.jpg	100
1272.867	0.922	921.8	pointing	Trial2	pointing/STIM_006.jpg	100
1275.845	0.983	982.6	pointing	Trial2	pointing/STIM_006.jpg	100
1280.272	0.912	912.3	pointing	Trial2	pointing/STIM_006.jpg	100
1283.807	0.955	955.4	pointing	Trial2	pointing/STIM_006.jpg	99
1287.063	0.817	817.3	pointing	Trial2	pointing/STIM_006.jpg	99
1290.432	1.452	1452.3	pointing	Trial2	pointing/STIM_007.jpg	100
1294.808	0.994	994.1	pointing	Trial2	pointing/STIM_007.jpg	99
1298.778	1.22	1219.9	pointing	Trial2	pointing/STIM_007.jpg	100
1303.464	1.186	1186.5	pointing	Trial2	pointing/STIM_007.jpg	99
1307.833	1.146	1146.3	pointing	Trial2	pointing/STIM_007.jpg	100
1311.982	1.536	1536.1	pointing	Trial2	pointing/STIM_007.jpg	99
1316.52	0.87	870.5	pointing	Trial2	pointing/STIM_008.jpg	99
1320.333	0.907	907.3	pointing	Trial2	pointing/STIM_008.jpg	100
1324.162	1.179	1179.4	pointing	Trial2	pointing/STIM_008.jpg	100
1327.708	0.991	991.3	pointing	Trial2	pointing/STIM_008.jpg	100
1331.57	1.123	1123.3	pointing	Trial2	pointing/STIM_008.jpg	100
1335.61	1.227	1226.6	pointing	Trial2	pointing/STIM_008.jpg	99
1339.557	1.551	1550.9	pointing	Trial2	pointing/STIM_009.jpg	99
1343.411	0.779	778.7	pointing	Trial2	pointing/STIM_009.jpg	100
1348.141	1.288	1288.5	pointing	Trial2	pointing/STIM_009.jpg	100
1351.622	1.501	1501.4	pointing	Trial2	pointing/STIM_009.jpg	100
1357.004	0.916	916.5	pointing	Trial2	pointing/STIM_009.jpg	99
1361.422	1.144	1144.4	pointing	Trial2	pointing/STIM_009.jpg	100
1365.488	0.998	998.3	pointing	Trial2	pointing/STIM_010.jpg	100
1369.427	1.157	1157.4	pointing	Trial2	pointing/STIM_010.jpg	100
1373.79	1.43	1429.5	pointing	Trial2	pointing/STIM_010.jpg	99
1378.253	1.19	1189.5	pointing	Trial2	pointing/STIM_010.jpg	100
1382.002	1.377	1376.9	pointing	Trial2	pointing/STIM_010.jpg	99
1386.3	1.368	1367.5	pointing	Trial2	pointing/STIM_010.jpg	100
1391.373	1.124	1123.5	pointing	Trial2	pointing/STIM_011.jpg	99
1395.856	1.099	1099.1	pointing	Trial2	pointing/STIM_011.jpg	100
1399.219	1.477	1477.0	pointing	Trial2	pointing/STIM_011.jpg	100
1404.459	1.042	1041.6	pointing	Trial2	pointing/STIM_011.jpg	99
1407.738	1.456	1456.0	pointing	Trial2	pointing/STIM_011.jpg	99
1412.798	1.059	1059.0	pointing	Trial2	pointing/STIM_011.jpg	99
1416.125	2.366	2365.7	navigation	Trial3	navigation/STIM_000.jpg	100
1421.127	2.878	2878.4	navigation	Trial3	navigation/STIM_000.jpg	100
1427.991	2.812	2812.2	navigation	Trial3	navigation/STIM_000.jpg	100
1434.238	3.01	3009.6	navigation	Trial3	navigation/STIM_000.jpg	99
1439.599	1.826	1825.6	navigation	Trial3	navigation/STIM_000.jpg	99
1445.371	2.44	2439.8	navigation	Trial3	navigation/STIM_000.jpg	99
1450.4	2.915	2915.3	navigation	Trial3	navigation/STIM_001.jpg	99
1456.054	1.565	1565.1	navigation	Trial3	navigation/STIM_001.jpg	100
1461.279	2.891	2890.7	navigation	Trial3	navigation/STIM_001.jpg	99
1467.717	2.56	2559.6	navigation	Trial3	navigation/STIM_001.jpg	100
1473.907	3.184	3184.3	navigation	Trial3	navigation/STIM_001.jpg	99
1479.456	2.757	2757.4	navigation	Trial3	navigation/STIM_001.jpg	99
1484.195	1.886	1885.6	navigation	Trial3	navigation/STIM_002.jpg	99
1488.559	2.794	2794.2	navigation	Trial3	navigation/STIM_002.jpg	100
1494.736	3.383	3383.1	navigation	Trial3	navigation/STIM_002.jpg	100
1500.729	2.388	2388.1	navigation	Trial3	navigation/STIM_002.jpg	100
1505.296	2.909	2908.7	navigation	Trial3	navigation/STIM_002.jpg	99
1511.451	3.113	3112.8	navigation	Trial3	navigation/STIM_002.jpg	99
1516.535	1.808	1807.6	navigation	Trial3	navigation/STIM_003.jpg	99
1520.905	2.187	2187.0	navigation	Trial3	navigation/STIM_003.jpg	100
1526.292	3.398	3398.3	navigation	Trial3	navigation/STIM_003.jpg	99
1532.695	2.622	2621.6	navigation	Trial3	navigation/STIM_003.jpg	99
1537.758	3.428	3428.1	navigation	Trial3	navigation/STIM_003.jpg	100
1543.468	2.87	2870.2	navigation	Trial3	navigation/STIM_003.jpg	100
1548.719	1.648	1648.0	navigation	Trial3	navigation/STIM_004.jpg	99
1552.819	1.604	1604.0	navigation	Trial3	navigation/STIM_004.jpg	100
1556.665	2.416	2416.3	navigation	Trial3	navigation/STIM_004.jpg	99
1563.027	2.831	2830.8	navigation	Trial3	navigation/STIM_004.jpg	99
1569.219	1.756	1755.6	navigation	Trial3	navigation/STIM_004.jpg	99
1574.196	1.842	1841.8	navigation	Trial3	navigation/STIM_004.jpg	100
1578.939	3.185	3184.7	navigation	Trial3	navigation/STIM_005.jpg	99
1585.813	1.669	1669.4	navigation	Trial3	navigation/STIM_005.jpg	100
1590.843	2.108	2107.9	navigation	Trial3	navigation/STIM_005.jpg	100
1596.074	3.397	3397.0	navigation	Trial3	navigation/STIM_005.jpg	100
1601.888	2.22	2219.5	navigation	Trial3	navigation/STIM_005.jpg	99
1606.205	2.746	2746.2	navigation	Trial3	navigation/STIM_005.jpg	99
1611.033	3.386	3385.9	navigation	Trial3	navigation/STIM_006.jpg	99
1617.556	1.98	1979.8	navigation	Trial3	navigation/STIM_006.jpg	99
1621.56	1.892	1891.7	navigation	Trial3	navigation/STIM_006.jpg	100
1626.993	2.554	2554.5	navigation	Trial3	navigation/STIM_006.jpg	100
1632.665	2.152	2151.5	navigation	Trial3	navigation/STIM_006.jpg	99
1637.408	1.708	1708.3	navigation	Trial3	navigation/STIM_006.jpg	99
1642.504	1.44	1440.5	navigation	Trial3	navigation/STIM_007.jpg	99
1646.604	1.879	1878.9	navigation	Trial3	navigation/STIM_007.jpg	99
1650.861	1.792	1791.7	navigation	Trial3	navigation/STIM_007.jpg	100
1655.4	3.286	3286.2	navigation	Trial3	navigation/STIM_007.jpg	100
1660.658	2.364	2364.0	navigation	Trial3	navigation/STIM_007.jpg	100
1665.686	2.424	2424.0	navigation	Trial3	navigation/STIM_007.jpg	100
1670.569	3.204	3203.6	navigation	Trial3	navigation/STIM_008.jpg	99
1677.688	2.485	2485.4	navigation	Trial3	navigation/STIM_008.jpg	100
1683.655	3.534	3533.5	navigation	Trial3	navigation/STIM_008.jpg	99
1689.228	1.5	1500.2	navigation	Trial3	navigation/STIM_008.jpg	99
1694.342	2.935	2934.7	navigation	Trial3	navigation/STIM_008.jpg	100
1700.95	1.941	1940.8	navigation	Trial3	navigation/STIM_008.jpg	100
1706.548	2.767	2766.6	navigation	Trial3	navigation/STIM_009.jpg	99
1713.132	3.178	3178.3	navigation	Trial3	navigation/STIM_009.jpg	99
1719.636	2.942	2941.6	navigation	Trial3	navigation/STIM_009.jpg	100
1725.022	2.214	2213.8	navigation	Trial3	navigation/STIM_009.jpg	99
1729.255	2.096	2095.6	navigation	Trial3	navigation/STIM_009.jpg	99
1733.668	2.332	2331.7	navigation	Trial3	navigation/STIM_009.jpg	100
1739.156	2.813	2813.2	navigation	Trial3	navigation/STIM_010.jpg	100
1744.369	2.891	2890.8	navigation	Trial3	navigation/STIM_010.jpg	100
1749.769	2.812	2812.4	navigation	Trial3	navigation/STIM_010.jpg	99
1755.336	2.446	2445.7	navigation	Trial3	navigation/STIM_010.jpg	99
1760.365	2.506	2505.8	navigation	Trial3	navigation/STIM_010.jpg	100
1765.787	3.552	3551.7	navigation	Trial3	navigation/STIM_010.jpg	100
1771.692	1.687	1687.1	navigation	Trial3	navigation/STIM_011.jpg	100
1776.869	1.863	1863.1	navigation	Trial3	navigation/STIM_011.jpg	100
1781.758	1.6	1599.8	navigation	Trial3	navigation/STIM_011.jpg	99
1786.694	3.147	3146.9	navigation	Trial3	navigation/STIM_011.jpg	99
1792.978	1.641	1641.3	navigation	Trial3	navigation/STIM_011.jpg	99
1797.314	2.708	2708.4	navigation	Trial3	navigation/STIM_011.jpg	100
1802.388	1.458	1458.3	pointing	Trial3	pointing/STIM_000.jpg	100
1806.129	1.232	1231.7	pointing	Trial3	pointing/STIM_000.jpg	99
1809.731	1.03	1029.6	pointing	Trial3	pointing/STIM_000.jpg	99
1813.949	1.136	1135.7	pointing	Trial3	pointing/STIM_000.jpg	100
1818.066	1.494	1494.3	pointing	Trial3	pointing/STIM_000.jpg	100
1823.446	1.287	1287.1	pointing	Trial3	pointing/STIM_000.jpg	99
1826.758	1.055	1054.9	pointing	Trial3	pointing/STIM_001.jpg	100
1831.601	0.84	840.2	pointing	Trial3	pointing/STIM_001.jpg	99
1835.994	0.837	836.7	pointing	Trial3	pointing/STIM_001.jpg	100
1839.055	1.529	1528.6	pointing	Trial3	pointing/STIM_001.jpg	99
1844.099	0.982	982.2	pointing	Trial3	pointing/STIM_001.jpg	99
1847.521	1.354	1353.7	pointing	Trial3	pointing/STIM_001.jpg	99
1851.464	1.309	1308.7	pointing	Trial3	pointing/STIM_002.jpg	99
1855.178	1.175	1175.4	pointing	Trial3	pointing/STIM_002.jpg	99
1860.064	1.459	1459.0	pointing	Trial3	pointing/STIM_002.jpg	99
1864.477	0.76	760.5	pointing	Trial3	pointing/STIM_002.jpg	99
1867.853	1.287	1287.4	pointing	Trial3	pointing/STIM_002.jpg	100
1871.939	0.941	941.2	pointing	Trial3	pointing/STIM_002.jpg	99
1875.02	1.198	1198.0	pointing	Trial3	pointing/STIM_003.jpg	100
1878.436	1.383	1383.3	pointing	Trial3	pointing/STIM_003.jpg	100
1883.286	1.28	1280.2	pointing	Trial3	pointing/STIM_003.jpg	99
1886.749	1.044	1043.7	pointing	Trial3	pointing/STIM_003.jpg	99
1890.109	1.244	1244.2	pointing	Trial3	pointing/STIM_003.jpg	99
1894.157	1.163	1162.8	pointing	Trial3	pointing/STIM_003.jpg	99
1897.911	0.988	988.3	pointing	Trial3	pointing/STIM_004.jpg	99
1902.767	1.279	1278.7	pointing	Trial3	pointing/STIM_004.jpg	99
1906.515	0.994	993.6	pointing	Trial3	pointing/STIM_004.jpg	100
1909.695	1.144	1143.9	pointing	Trial3	pointing/STIM_004.jpg	99
1913.446	1.47	1470.2	pointing	Trial3	pointing/STIM_004.jpg	99
1917.281	0.99	989.9	pointing	Trial3	pointing/STIM_004.jpg	100
1921.461	1.434	1434.3	pointing	Trial3	pointing/STIM_005.jpg	99
1925.74	1.085	1085.0	pointing	Trial3	pointing/STIM_005.jpg	99
1930.267	1.481	1481.0	pointing	Trial3	pointing/STIM_005.jpg	100
1935.409	1.488	1488.3	pointing	Trial3	pointing/STIM_005.jpg	100
1940.593	1.474	1474.2	pointing	Trial3	pointing/STIM_005.jpg	100
1944.087	1.456	1456.1	pointing	Trial3	pointing/STIM_005.jpg	99
1947.959	1.238	1238.1	pointing	Trial3	pointing/STIM_006.jpg	99
1951.393	1.379	1378.9	pointing	Trial3	pointing/STIM_006.jpg	99
1956.196	1.446	1446.4	pointing	Trial3	pointing/STIM_006.jpg	99
1961.359	1.409	1409.4	pointing	Trial3	pointing/STIM_006.jpg	99
1964.918	1.367	1366.9	pointing	Trial3	pointing/STIM_006.jpg	100
1968.722	1.503	1503.4	pointing	Trial3	pointing/STIM_006.jpg	99
1972.543	0.81	810.1	pointing	Trial3	pointing/STIM_007.jpg	99
1976.965	1.056	1056.3	pointing	Trial3	pointing/STIM_007.jpg	99
1981.555	1.289	1288.6	pointing	Trial3	pointing/STIM_007.jpg	99
1985.367	1.292	1292.1	pointing	Trial3	pointing/STIM_007.jpg	100
1990.409	1.082	1082.0	pointing	Trial3	pointing/STIM_007.jpg	99
1995.403	0.953	952.6	pointing	Trial3	pointing/STIM_007.jpg	99
1999.329	1.216	1216.3	pointing	Trial3	pointing/STIM_008.jpg	100
2003.857	1.173	1173.2	pointing	Trial3	pointing/STIM_008.jpg	99
2007.829	0.809	809.3	pointing	Trial3	pointing/STIM_008.jpg	99
2011.042	1.265	1265.0	pointing	Trial3	pointing/STIM_008.jpg	100
2015.693	1.229	1229.3	pointing	Trial3	pointing/STIM_008.jpg	100
2020.726	1.225	1224.7	pointing	Trial3	pointing/STIM_008.jpg	99
2025.372	1.299	1299.3	pointing	Trial3	pointing/STIM_009.jpg	99
2028.752	0.91	909.5	pointing	Trial3	pointing/STIM_009.jpg	100
2033.441	1.205	1204.6	pointing	Trial3	pointing/STIM_009.jpg	99
2038.268	0.958	958.4	pointing	Trial3	pointing/STIM_009.jpg	99
2041.791	1.533	1533.4	pointing	Trial3	pointing/STIM_009.jpg	99
2047.128	1.388	1387.9	pointing	Trial3	pointing/STIM_009.jpg	100
2051.672	0.803	803.0	pointing	Trial3	pointing/STIM_010.jpg	99
2055.884	1.185	1184.7	pointing	Trial3	pointing/STIM_010.jpg	99
2060.441	1.028	1027.5	pointing	Trial3	pointing/STIM_010.jpg	100
2064.337	1.04	1039.8	pointing	Trial3	pointing/STIM_010.jpg	100
2068.359	1.336	1335.9	pointing	Trial3	pointing/STIM_010.jpg	99
2072.93	0.846	845.9	pointing	Trial3	pointing/STIM_010.jpg	100
2076.169	1.376	1375.5	pointing	Trial3	pointing/STIM_011.jpg	99
2080.924	0.908	908.3	pointing	Trial3	pointing/STIM_011.jpg	100
2084.75	0.811	811.4	pointing	Trial3	pointing/STIM_011.jpg	100
2088.306	0.956	955.5	pointing	Trial3	pointing/STIM_011.jpg	100
2091.821	1.006	1006.0	pointing	Trial3	pointing/STIM_011.jpg	99
2096.625	1.087	1087.0	pointing	Trial3	pointing/STIM_011.jpg	99
