onset	duration	response_time_ms	trial_type	learning_stage	stimulus	response_port
0.0	1.018	1018.4	2back	Block1	2back/STIM_000.jpg	100
4.035	0.632	632.3	2back	Block1	2back/STIM_000.jpg	99
6.68	1.058	1057.8	2back	Block1	2back/STIM_000.jpg	99
10.492	0.998	998.3	2back	Block1	2back/STIM_001.jpg	100
14.452	0.884	883.6	2back	Block1	2back/STIM_001.jpg	100
17.37	0.662	661.5	2back	Block1	2back/STIM_001.jpg	100
20.761	1.416	1416.5	2back	Block1	2back/STIM_002.jpg	100
25.57	0.632	632.3	2back	Block1	2back/STIM_002.jpg	100
29.621	1.196	1195.5	2back	Block1	2back/STIM_002.jpg	100
34.279	1.08	1079.5	2back	Block1	2back/STIM_003.jpg	99
37.412	0.763	763.1	2back	Block1	2back/STIM_003.jpg	99
41.242	1.277	1277.3	2back	Block1	2back/STIM_003.jpg	99
46.218	0.83	830.1	2back	Block1	2back/STIM_004.jpg	99
50.893	1.35	1350.5	2back	Block1	2back/STIM_004.jpg	100
55.86	0.826	825.9	2back	Block1	2back/STIM_004.jpg	99
59.048	1.361	1361.0	2back	Block1	2back/STIM_005.jpg	99
63.722	0.809	809.3	2back	Block1	2back/STIM_005.jpg	100
68.154	1.09	1089.6	2back	Block1	2back/STIM_005.jpg	100
71.791	0.796	795.5	2back	Block1	2back/STIM_006.jpg	100
74.821	1.032	1031.6	2back	Block1	2back/STIM_006.jpg	100
79.632	0.708	708.1	2back	Block1	2back/STIM_006.jpg	100
82.363	0.644	643.5	2back	Block1	2back/STIM_007.jpg	100
85.431	1.028	1028.2	2back	Block1	2back/STIM_007.jpg	99
90.369	1.18	1179.6	2back	Block1	2back/STIM_007.jpg	100
94.039	1.337	1337.4	2back	Block1	2back/STIM_008.jpg	99
97.921	1.097	1096.6	2back	Block1	2back/STIM_008.jpg	99
101.375	0.737	737.0	2back	Block1	2back/STIM_008.jpg	100
105.248	1.422	1422.2	2back	Block1	2back/STIM_009.jpg	99
109.067	1.293	1293.4	2back	Block1	2back/STIM_009.jpg	99
112.623	0.68	680.4	2back	Block1	2back/STIM_009.jpg	100
116.163	1.492	1492.2	2back	Block1	2back/STIM_010.jpg	99
120.063	1.278	1277.8	2back	Block1	2back/STIM_010.jpg	99
125.169	0.832	832.1	2back	Block1	2back/STIM_010.jpg	99
128.278	0.859	859.4	2back	Block1	2back/STIM_011.jpg	100
131.16	1.285	1284.6	2back	Block1	2back/STIM_011.jpg	99
136.305	1.219	1219.2	2back	Block1	2back/STIM_011.jpg	100
139.932	1.431	1431.4	2back	Block1	2back/STIM_012.jpg	99
144.918	1.282	1281.8	2back	Block1	2back/STIM_012.jpg	100
149.549	1.059	1059.1	2back	Block1	2back/STIM_012.jpg	99
154.26	1.123	1122.7	2back	Block1	2back/STIM_013.jpg	99
158.904	0.755	754.8	2back	Block1	2back/STIM_013.jpg	100
163.087	1.015	1015.1	2back	Block1	2back/STIM_013.jpg	99
167.054	1.463	1462.8	2back	Block1	2back/STIM_014.jpg	99
171.521	1.008	1007.8	2back	Block1	2back/STIM_014.jpg	100
175.381	1.308	1308.5	2back	Block1	2back/STIM_014.jpg	99
178.636	0.936	935.7	2back	Block1	2back/STIM_015.jpg	100
181.814	0.937	937.0	2back	Block1	2back/STIM_015.jpg	99
185.118	1.083	1082.9	2back	Block1	2back/STIM_015.jpg	99
188.486	1.173	1172.9	2back	Block1	2back/STIM_016.jpg	100
193.382	0.981	981.4	2back	Block1	2back/STIM_016.jpg	99
197.361	1.151	1151.4	2back	Block1	2back/STIM_016.jpg	99
200.441	0.788	787.5	2back	Block1	2back/STIM_017.jpg	100
204.219	0.946	946.0	2back	Block1	2back/STIM_017.jpg	99
209.062	1.234	1234.4	2back	Block1	2back/STIM_017.jpg	100
213.082	1.384	1383.9	2back	Block1	2back/STIM_018.jpg	100
218.069	1.319	1318.9	2back	Block1	2back/STIM_018.jpg	99
222.845	1.08	1079.9	2back	Block1	2back/STIM_018.jpg	100
227.219	0.646	646.2	2back	Block1	2back/STIM_019.jpg	100
230.242	0.83	830.4	2back	Block1	2back/STIM_019.jpg	99
234.822	0.643	642.8	2back	Block1	2back/STIM_019.jpg	100
238.506	0.846	846.2	2back	Block1	2back/STIM_020.jpg	100
243.064	0.735	734.9	2back	Block1	2back/STIM_020.jpg	99
246.737	0.854	853.8	2back	Block1	2back/STIM_020.jpg	100
249.828	0.938	938.1	2back	Block1	2back/STIM_021.jpg	99
254.572	0.925	925.4	2back	Block1	2back/STIM_021.jpg	100
258.749	0.867	867.1	2back	Block1	2back/STIM_021.jpg	99
261.659	1.468	1468.3	2back	Block1	2back/STIM_022.jpg	100
265.534	1.184	1184.1	2back	Block1	2back/STIM_022.jpg	99
270.53	0.999	998.9	2back	Block1	2back/STIM_022.jpg	99
275.181	1.224	1224.3	2back	Block1	2back/STIM_023.jpg	100
279.867	1.191	1191.3	2back	Block1	2back/STIM_023.jpg	99
284.84	0.685	685.2	2back	Block1	2back/STIM_023.jpg	100
287.744	1.385	1385.0	2back	Block1	2back/STIM_024.jpg	99
291.795	0.986	986.1	2back	Block1	2back/STIM_024.jpg	99
296.35	0.782	781.5	2back	Block1	2back/STIM_024.jpg	99
300.189	0.905	905.0	2back	Block1	2back/STIM_025.jpg	99
303.116	1.075	1075.4	2back	Block1	2back/STIM_025.jpg	100
307.0	1.312	1311.5	2back	Block1	2back/STIM_025.jpg	100
311.759	1.336	1335.7	2back	Block1	2back/STIM_026.jpg	100
316.953	0.758	757.8	2back	Block1	2back/STIM_026.jpg	99
319.758	0.768	768.3	2back	Block1	2back/STIM_026.jpg	100
324.211	0.644	644.0	2back	Block1	2back/STIM_027.jpg	99
327.405	1.201	1201.1	2back	Block1	2back/STIM_027.jpg	99
330.532	0.664	663.7	2back	Block1	2back/STIM_027.jpg	100
334.41	1.33	1329.7	2back	Block1	2back/STIM_028.jpg	99
338.736	1.42	1419.7	2back	Block1	2back/STIM_028.jpg	99
342.399	0.68	680.2	2back	Block1	2back/STIM_028.jpg	100
346.259	1.251	1251.3	2back	Block1	2back/STIM_029.jpg	100
349.823	1.256	1255.5	2back	Block1	2back/STIM_029.jpg	99
354.688	0.71	709.9	2back	Block1	2back/STIM_029.jpg	100
359.184	1.038	1038.0	2back	Block1	2back/STIM_030.jpg	99
363.671	1.074	1074.2	2back	Block1	2back/STIM_030.jpg	100
366.696	0.773	773.1	2back	Block1	2back/STIM_030.jpg	100
370.782	0.994	994.2	2back	Block1	2back/STIM_031.jpg	99
374.216	1.19	1190.3	2back	Block1	2back/STIM_031.jpg	99
378.945	0.886	886.1	2back	Block1	2back/STIM_031.jpg	99
382.139	1.136	1136.0	2back	Block1	2back/STIM_032.jpg	100
385.759	0.753	753.4	2back	Block1	2back/STIM_032.jpg	99
388.537	0.783	783.0	2back	Block1	2back/STIM_032.jpg	99
391.871	0.742	741.7	2back	Block1	2back/STIM_033.jpg	100
396.417	1.182	1182.2	2back	Block1	2back/STIM_033.jpg	100
401.435	0.9	899.5	2back	Block1	2back/STIM_033.jpg	99
405.871	1.222	1222.2	2back	Block1	2back/STIM_034.jpg	100
410.374	0.625	624.6	2back	Block1	2back/STIM_034.jpg	100
414.731	1.072	1072.3	2back	Block1	2back/STIM_034.jpg	99
417.908	1.019	1019.0	2back	Block1	2back/STIM_035.jpg	100
421.395	1.246	1246.1	2back	Block1	2back/STIM_035.jpg	99
424.954	1.221	1220.8	2back	Block1	2back/STIM_035.jpg	100
429.653	1.388	1388.5	2back	Block1	2back/STIM_036.jpg	99
433.613	1.089	1088.9	2back	Block1	2back/STIM_036.jpg	99
438.533	1.122	1121.5	2back	Block1	2back/STIM_036.jpg	99
442.339	0.646	645.9	2back	Block1	2back/STIM_037.jpg	100
446.936	1.299	1298.6	2back	Block1	2back/STIM_037.jpg	99
450.398	0.653	653.3	2back	Block1	2back/STIM_037.jpg	100
453.843	1.302	1301.5	2back	Block1	2back/STIM_038.jpg	99
457.833	0.643	643.2	2back	Block1	2back/STIM_038.jpg	99
462.036	0.842	842.5	2back	Block1	2back/STIM_038.jpg	99
466.135	0.939	939.1	2back	Block1	2back/STIM_039.jpg	100
469.541	0.944	943.9	2back	Block1	2back/STIM_039.jpg	100
473.696	1.18	1179.9	2back	Block1	2back/STIM_039.jpg	99
478.68	0.762	762.1	0back	Block1	0back/STIM_000.jpg	100
482.936	0.812	812.0	0back	Block1	0back/STIM_000.jpg	100
487.22	0.518	518.1	0back	Block1	0back/STIM_000.jpg	99
489.953	0.67	669.8	0back	Block1	0back/STIM_001.jpg	99
492.666	0.444	443.8	0back	Block1	0back/STIM_001.jpg	100
495.116	0.852	852.3	0back	Block1	0back/STIM_001.jpg	100
499.503	0.81	809.7	0back	Block1	0back/STIM_002.jpg	99
502.703	0.792	792.3	0back	Block1	0back/STIM_002.jpg	100
505.841	0.681	681.3	0back	Block1	0back/STIM_002.jpg	100
508.929	0.804	804.0	0back	Block1	0back/STIM_003.jpg	100
513.506	0.61	609.8	0back	Block1	0back/STIM_003.jpg	100
517.404	0.792	792.0	0back	Block1	0back/STIM_003.jpg	100
520.738	0.855	855.1	0back	Block1	0back/STIM_004.jpg	99
523.911	0.503	503.3	0back	Block1	0back/STIM_004.jpg	100
526.633	0.829	829.4	0back	Block1	0back/STIM_004.jpg	100
529.633	0.46	460.0	0back	Block1	0back/STIM_005.jpg	99
534.052	0.777	776.9	0back	Block1	0back/STIM_005.jpg	100
538.66	0.442	442.1	0back	Block1	0back/STIM_005.jpg	99
541.114	0.498	497.5	0back	Block1	0back/STIM_006.jpg	99
545.503	0.551	551.0	0back	Block1	0back/STIM_006.jpg	100
549.188	0.752	752.5	0back	Block1	0back/STIM_006.jpg	100
552.902	0.817	817.4	0back	Block1	0back/STIM_007.jpg	100
557.196	0.844	843.9	0back	Block1	0back/STIM_007.jpg	99
560.48	0.557	556.6	0back	Block1	0back/STIM_007.jpg	100
563.726	0.696	695.8	0back	Block1	0back/STIM_008.jpg	99
566.573	0.61	610.2	0back	Block1	0back/STIM_008.jpg	100
570.181	0.461	460.6	0back	Block1	0back/STIM_008.jpg	99
573.441	0.798	798.3	0back	Block1	0back/STIM_009.jpg	100
577.341	0.779	778.9	0back	Block1	0back/STIM_009.jpg	99
580.27	0.799	799.3	0back	Block1	0back/STIM_009.jpg	99
584.62	0.541	541.4	0back	Block1	0back/STIM_010.jpg	99
588.532	0.811	811.0	0back	Block1	0back/STIM_010.jpg	99
591.49	0.596	596.5	0back	Block1	0back/STIM_010.jpg	100
594.864	0.557	557.3	0back	Block1	0back/STIM_011.jpg	99
598.209	0.588	588.0	0back	Block1	0back/STIM_011.jpg	99
602.524	0.675	675.1	0back	Block1	0back/STIM_011.jpg	100
606.029	0.548	548.0	0back	Block1	0back/STIM_012.jpg	99
610.163	0.841	840.6	0back	Block1	0back/STIM_012.jpg	99
613.807	0.787	787.3	0back	Block1	0back/STIM_012.jpg	99
618.45	0.727	726.8	0back	Block1	0back/STIM_013.jpg	99
622.732	0.703	702.8	0back	Block1	0back/STIM_013.jpg	100
627.245	0.609	608.7	0back	Block1	0back/STIM_013.jpg	100
630.581	0.481	481.3	0back	Block1	0back/STIM_014.jpg	100
634.277	0.541	541.4	0back	Block1	0back/STIM_014.jpg	100
637.274	0.624	623.8	0back	Block1	0back/STIM_014.jpg	100
640.656	0.602	602.1	0back	Block1	0back/STIM_015.jpg	99
643.966	0.738	737.6	0back	Block1	0back/STIM_015.jpg	99
648.236	0.71	710.4	0back	Block1	0back/STIM_015.jpg	100
650.934	0.788	787.8	0back	Block1	0back/STIM_016.jpg	100
655.024	0.569	569.4	0back	Block1	0back/STIM_016.jpg	100
659.454	0.75	749.7	0back	Block1	0back/STIM_016.jpg	100
663.81	0.444	444.4	0back	Block1	0back/STIM_017.jpg	99
666.781	0.432	432.0	0back	Block1	0back/STIM_017.jpg	99
670.266	0.472	472.1	0back	Block1	0back/STIM_017.jpg	99
674.176	0.594	593.5	0back	Block1	0back/STIM_018.jpg	99
676.755	0.532	531.9	0back	Block1	0back/STIM_018.jpg	100
679.749	0.446	445.7	0back	Block1	0back/STIM_018.jpg	99
682.527	0.568	568.0	0back	Block1	0back/STIM_019.jpg	99
686.406	0.468	467.7	0back	Block1	0back/STIM_019.jpg	99
690.169	0.485	485.2	0back	Block1	0back/STIM_019.jpg	100
694.502	1.149	1149.0	2back	Block2	2back/STIM_000.jpg	100
699.226	1.086	1085.5	2back	Block2	2back/STIM_000.jpg	100
702.763	0.66	659.5	2back	Block2	2back/STIM_000.jpg	99
706.464	1.092	1092.1	2back	Block2	2back/STIM_001.jpg	99
710.634	1.072	1071.7	2back	Block2	2back/STIM_001.jpg	100
715.454	0.713	713.1	2back	Block2	2back/STIM_001.jpg	100
718.166	1.031	1031.2	2back	Block2	2back/STIM_002.jpg	99
721.599	0.687	687.3	2back	Block2	2back/STIM_002.jpg	100
724.313	0.574	574.4	2back	Block2	2back/STIM_002.jpg	99
727.554	0.892	891.9	2back	Block2	2back/STIM_003.jpg	99
731.474	0.655	654.7	2back	Block2	2back/STIM_003.jpg	99
734.537	0.536	536.5	2back	Block2	2back/STIM_003.jpg	99
738.112	0.595	595.3	2back	Block2	2back/STIM_004.jpg	100
741.16	0.761	761.0	2back	Block2	2back/STIM_004.jpg	100
744.85	0.904	904.0	2back	Block2	2back/STIM_004.jpg	99
748.156	0.978	977.9	2back	Block2	2back/STIM_005.jpg	99
751.603	0.704	703.5	2back	Block2	2back/STIM_005.jpg	100
755.955	0.944	944.3	2back	Block2	2back/STIM_005.jpg	99
759.334	0.955	955.3	2back	Block2	2back/STIM_006.jpg	99
763.474	0.555	554.9	2back	Block2	2back/STIM_006.jpg	99
766.417	0.812	811.7	2back	Block2	2back/STIM_006.jpg	99
770.088	1.19	1190.3	2back	Block2	2back/STIM_007.jpg	99
774.865	0.826	826.4	2back	Block2	2back/STIM_007.jpg	100
779.168	0.998	998.4	2back	Block2	2back/STIM_007.jpg	99
783.133	1.206	1206.2	2back	Block2	2back/STIM_008.jpg	100
786.331	1.022	1021.8	2back	Block2	2back/STIM_008.jpg	100
790.866	0.841	840.8	2back	Block2	2back/STIM_008.jpg	100
794.711	0.868	868.0	2back	Block2	2back/STIM_009.jpg	100
798.161	0.521	520.8	2back	Block2	2back/STIM_009.jpg	100
801.885	0.832	832.3	2back	Block2	2back/STIM_009.jpg	100
805.863	0.95	950.0	2back	Block2	2back/STIM_010.jpg	100
809.389	0.761	760.7	2back	Block2	2back/STIM_010.jpg	100
812.176	0.489	488.8	2back	Block2	2back/STIM_010.jpg	99
814.678	0.786	786.3	2back	Block2	2back/STIM_011.jpg	100
817.623	0.88	879.5	2back	Block2	2back/STIM_011.jpg	100
821.553	0.779	779.1	2back	Block2	2back/STIM_011.jpg	100
824.456	0.92	919.9	2back	Block2	2back/STIM_012.jpg	99
827.846	0.775	774.6	2back	Block2	2back/STIM_012.jpg	99
831.96	0.732	732.1	2back	Block2	2back/STIM_012.jpg	99
835.973	0.91	910.3	2back	Block2	2back/STIM_013.jpg	100
840.427	0.91	909.7	2back	Block2	2back/STIM_013.jpg	99
844.572	0.866	865.9	2back	Block2	2back/STIM_013.jpg	100
848.902	0.573	573.3	2back	Block2	2back/STIM_014.jpg	99
853.011	0.887	887.1	2back	Block2	2back/STIM_014.jpg	100
857.108	0.87	870.4	2back	Block2	2back/STIM_014.jpg	100
861.336	0.635	635.2	2back	Block2	2back/STIM_015.jpg	99
865.358	1.056	1056.5	2back	Block2	2back/STIM_015.jpg	100
870.202	0.568	568.5	2back	Block2	2back/STIM_015.jpg	99
874.061	1.012	1012.0	2back	Block2	2back/STIM_016.jpg	100
878.965	1.019	1019.2	2back	Block2	2back/STIM_016.jpg	100
883.276	0.828	828.0	2back	Block2	2back/STIM_016.jpg	99
887.619	1.015	1014.8	2back	Block2	2back/STIM_017.jpg	100
891.181	0.939	939.2	2back	Block2	2back/STIM_017.jpg	100
895.069	0.764	763.7	2back	Block2	2back/STIM_017.jpg	100
898.93	0.605	605.0	2back	Block2	2back/STIM_018.jpg	100
902.627	1.004	1003.7	2back	Block2	2back/STIM_018.jpg	99
906.258	0.49	490.3	2back	Block2	2back/STIM_018.jpg	99
909.729	0.903	902.8	2back	Block2	2back/STIM_019.jpg	100
913.965	0.864	863.9	2back	Block2	2back/STIM_019.jpg	99
917.684	0.649	648.6	2back	Block2	2back/STIM_019.jpg	99
920.486	0.779	779.1	2back	Block2	2back/STIM_020.jpg	100
924.841	0.739	738.9	2back	Block2	2back/STIM_020.jpg	99
927.911	1.093	1092.7	2back	Block2	2back/STIM_020.jpg	100
931.023	1.006	1005.9	2back	Block2	2back/STIM_021.jpg	100
934.402	0.521	521.1	2back	Block2	2back/STIM_021.jpg	100
937.488	1.106	1106.3	2back	Block2	2back/STIM_021.jpg	100
941.484	0.644	643.5	2back	Block2	2back/STIM_022.jpg	100
945.23	0.846	845.7	2back	Block2	2back/STIM_022.jpg	99
949.563	0.538	538.3	2back	Block2	2back/STIM_022.jpg	99
953.444	1.251	1251.4	2back	Block2	2back/STIM_023.jpg	99
957.673	0.526	525.5	2back	Block2	2back/STIM_023.jpg	100
962.043	1.066	1065.9	2back	Block2	2back/STIM_023.jpg	100
966.353	1.011	1011.0	2back	Block2	2back/STIM_024.jpg	100
970.04	0.685	685.1	2back	Block2	2back/STIM_024.jpg	99
973.383	1.017	1017.2	2back	Block2	2back/STIM_024.jpg	99
977.377	1.27	1270.0	2back	Block2	2back/STIM_025.jpg	99
981.245	0.676	676.4	2back	Block2	2back/STIM_025.jpg	100
984.731	0.849	848.7	2back	Block2	2back/STIM_025.jpg	99
987.742	1.202	1202.1	2back	Block2	2back/STIM_026.jpg	99
992.335	0.691	691.1	2back	Block2	2back/STIM_026.jpg	100
996.311	1.057	1056.7	2back	Block2	2back/STIM_026.jpg	99
1000.397	1.104	1104.2	2back	Block2	2back/STIM_027.jpg	100
1005.134	0.891	891.4	2back	Block2	2back/STIM_027.jpg	100
1007.997	0.844	844.1	2back	Block2	2back/STIM_027.jpg	100
1012.522	1.181	1181.1	2back	Block2	2back/STIM_028.jpg	99
1016.682	0.605	604.7	2back	Block2	2back/STIM_028.jpg	99
1020.239	0.918	918.2	2back	Block2	2back/STIM_028.jpg	99
1024.56	1.215	1215.0	2back	Block2	2back/STIM_029.jpg	100
1029.484	0.831	830.9	2back	Block2	2back/STIM_029.jpg	100
1032.731	0.997	997.0	2back	Block2	2back/STIM_029.jpg	100
1036.036	1.217	1216.6	2back	Block2	2back/STIM_030.jpg	99
1040.652	0.833	833.0	2back	Block2	2back/STIM_030.jpg	100
1045.056	0.958	957.9	2back	Block2	2back/STIM_030.jpg	100
1048.89	1.011	1010.8	2back	Block2	2back/STIM_031.jpg	99
1052.727	1.03	1030.5	2back	Block2	2back/STIM_031.jpg	99
1056.253	1.022	1022.3	2back	Block2	2back/STIM_031.jpg	99
1060.605	0.989	989.4	2back	Block2	2back/STIM_032.jpg	100
1064.591	1.066	1066.5	2back	Block2	2back/STIM_032.jpg	99
1069.145	0.841	840.7	2back	Block2	2back/STIM_032.jpg	100
1072.519	0.82	820.3	2back	Block2	2back/STIM_033.jpg	100
1077.015	0.554	553.7	2back	Block2	2back/STIM_033.jpg	99
1079.884	0.514	514.1	2back	Block2	2back/STIM_033.jpg	99
1083.797	1.222	1222.4	2back	Block2	2back/STIM_034.jpg	99
1088.707	0.6	600.2	2back	Block2	2back/STIM_034.jpg	100
1091.602	0.813	813.2	2back	Block2	2back/STIM_034.jpg	100
1095.074	1.071	1070.7	2back	Block2	2back/STIM_035.jpg	99
1098.374	0.918	918.4	2back	Block2	2back/STIM_035.jpg	100
1101.431	1.122	1122.1	2back	Block2	2back/STIM_035.jpg	99
1105.264	0.937	937.2	2back	Block2	2back/STIM_036.jpg	99
1109.149	0.81	809.9	2back	Block2	2back/STIM_036.jpg	99
1113.45	0.735	735.0	2back	Block2	2back/STIM_036.jpg	99
1117.258	1.183	1183.0	2back	Block2	2back/STIM_037.jpg	100
1121.348	1.086	1085.9	2back	Block2	2back/STIM_037.jpg	100
1125.983	0.734	733.9	2back	Block2	2back/STIM_037.jpg	100
1130.407	1.272	1272.2	2back	Block2	2back/STIM_038.jpg	99
1134.463	0.53	529.5	2back	Block2	2back/STIM_038.jpg	99
1138.613	1.115	1114.7	2back	Block2	2back/STIM_038.jpg	100
1142.068	0.665	664.6	2back	Block2	2back/STIM_039.jpg	99
1145.789	1.142	1141.8	2back	Block2	2back/STIM_039.jpg	100
1150.809	1.112	1112.0	2back	Block2	2back/STIM_039.jpg	99
1154.573	0.654	653.8	0back	Block2	0back/STIM_000.jpg	100
1158.502	0.835	834.6	0back	Block2	0back/STIM_000.jpg	99
1162.727	0.568	567.7	0back	Block2	0back/STIM_000.jpg	99
1167.095	0.512	512.0	0back	Block2	0back/STIM_001.jpg	100
1171.158	0.613	612.8	0back	Block2	0back/STIM_001.jpg	100
1174.22	0.676	676.1	0back	Block2	0back/STIM_001.jpg	100
1177.884	0.562	562.2	0back	Block2	0back/STIM_002.jpg	99
1180.545	0.624	624.4	0back	Block2	0back/STIM_002.jpg	100
1185.047	0.649	649.4	0back	Block2	0back/STIM_002.jpg	100
1188.834	0.826	825.8	0back	Block2	0back/STIM_003.jpg	100
1191.695	0.605	604.8	0back	Block2	0back/STIM_003.jpg	99
1195.454	0.446	445.6	0back	Block2	0back/STIM_003.jpg	100
1198.282	0.767	767.0	0back	Block2	0back/STIM_004.jpg	100
1201.011	0.563	563.1	0back	Block2	0back/STIM_004.jpg	99
1204.551	0.565	565.3	0back	Block2	0back/STIM_004.jpg	99
1208.916	0.696	696.3	0back	Block2	0back/STIM_005.jpg	99
1211.994	0.692	692.3	0back	Block2	0back/STIM_005.jpg	99
1214.687	0.794	793.8	0back	Block2	0back/STIM_005.jpg	99
1218.254	0.776	776.1	0back	Block2	0back/STIM_006.jpg	100
1222.781	0.632	631.8	0back	Block2	0back/STIM_006.jpg	100
1226.617	0.49	489.9	0back	Block2	0back/STIM_006.jpg	99
1229.307	0.499	499.2	0back	Block2	0back/STIM_007.jpg	99
1231.987	0.776	776.0	0back	Block2	0back/STIM_007.jpg	99
1236.334	0.534	534.4	0back	Block2	0back/STIM_007.jpg	100
1239.761	0.849	849.4	0back	Block2	0back/STIM_008.jpg	100
1242.559	0.835	835.1	0back	Block2	0back/STIM_008.jpg	99
1245.649	0.686	686.1	0back	Block2	0back/STIM_008.jpg	100
1250.274	0.73	730.2	0back	Block2	0back/STIM_009.jpg	99
1254.254	0.784	783.5	0back	Block2	0back/STIM_009.jpg	100
1258.813	0.798	797.8	0back	Block2	0back/STIM_009.jpg	100
1263.283	0.613	612.7	0back	Block2	0back/STIM_010.jpg	99
1266.95	0.814	814.3	0back	Block2	0back/STIM_010.jpg	100
1271.43	0.677	677.0	0back	Block2	0back/STIM_010.jpg	100
1275.286	0.515	515.3	0back	Block2	0back/STIM_011.jpg	100
1277.78	0.431	431.1	0back	Block2	0back/STIM_011.jpg	99
1280.27	0.44	439.8	0back	Block2	0back/STIM_011.jpg	100
1282.842	0.851	850.9	0back	Block2	0back/STIM_012.jpg	100
1287.037	0.654	654.1	0back	Block2	0back/STIM_012.jpg	100
1290.833	0.773	773.4	0back	Block2	0back/STIM_012.jpg	99
1295.087	0.694	694.0	0back	Block2	0back/STIM_013.jpg	99
1299.092	0.738	737.9	0back	Block2	0back/STIM_013.jpg	99
1303.698	0.65	649.8	0back	Block2	0back/STIM_013.jpg	100
1306.464	0.817	816.7	0back	Block2	0back/STIM_014.jpg	99
1310.739	0.457	457.4	0back	Block2	0back/STIM_014.jpg	99
1313.266	0.838	837.7	0back	Block2	0back/STIM_014.jpg	100
1317.374	0.57	570.2	0back	Block2	0back/STIM_015.jpg	100
1321.792	0.664	663.9	0back	Block2	0back/STIM_015.jpg	99
1325.475	0.611	611.0	0back	Block2	0back/STIM_015.jpg	100
1328.155	0.793	793.4	0back	Block2	0back/STIM_016.jpg	100
1331.461	0.614	614.2	0back	Block2	0back/STIM_016.jpg	100
1335.953	0.433	433.4	0back	Block2	0back/STIM_016.jpg	100
1338.896	0.557	557.0	0back	Block2	0back/STIM_017.jpg	99
1341.766	0.655	654.7	0back	Block2	0back/STIM_017.jpg	100
1346.084	0.514	514.3	0back	Block2	0back/STIM_017.jpg	99
1349.41	0.643	643.0	0back	Block2	0back/STIM_018.jpg	100
1352.15	0.624	623.5	0back	Block2	0back/STIM_018.jpg	99
1356.506	0.617	616.9	0back	Block2	0back/STIM_018.jpg	100
1360.625	0.47	470.3	0back	Block2	0back/STIM_019.jpg	100
1363.767	0.454	453.7	0back	Block2	0back/STIM_019.jpg	100
1366.579	0.639	639.1	0back	Block2	0back/STIM_019.jpg	100
1369.398	0.645	644.7	2back	Block3	2back/STIM_000.jpg	99
1373.649	0.526	526.2	2back	Block3	2back/STIM_000.jpg	99
1377.886	0.665	664.8	2back	Block3	2back/STIM_000.jpg	99
1380.692	0.525	524.7	2back	Block3	2back/STIM_001.jpg	100
1384.235	1.0	1000.1	2back	Block3	2back/STIM_001.jpg	99
1387.554	0.67	669.9	2back	Block3	2back/STIM_001.jpg	100
1391.872	0.638	637.7	2back	Block3	2back/STIM_002.jpg	99
1396.066	0.65	650.1	2back	Block3	2back/STIM_002.jpg	99
1398.876	0.573	573.2	2back	Block3	2back/STIM_002.jpg	100
1403.197	0.555	554.6	2back	Block3	2back/STIM_003.jpg	100
1406.004	0.961	960.7	2back	Block3	2back/STIM_003.jpg	100
1409.838	0.983	983.2	2back	Block3	2back/STIM_003.jpg	99
1413.094	0.729	729.1	2back	Block3	2back/STIM_004.jpg	100
1416.055	0.945	944.9	2back	Block3	2back/STIM_004.jpg	100
1420.435	0.828	828.0	2back	Block3	2back/STIM_004.jpg	100
1423.266	0.702	702.1	2back	Block3	2back/STIM_005.jpg	99
1427.392	0.861	861.3	2back	Block3	2back/STIM_005.jpg	99
1430.814	0.681	680.7	2back	Block3	2back/STIM_005.jpg	99
1434.185	0.746	746.5	2back	Block3	2back/STIM_006.jpg	100
1438.494	0.786	786.0	2back	Block3	2back/STIM_006.jpg	100
1441.874	0.813	812.6	2back	Block3	2back/STIM_006.jpg	99
1445.409	0.648	647.5	2back	Block3	2back/STIM_007.jpg	100
1448.944	0.509	509.5	2back	Block3	2back/STIM_007.jpg	99
1453.396	0.564	564.1	2back	Block3	2back/STIM_007.jpg	100
1456.925	0.624	623.7	2back	Block3	2back/STIM_008.jpg	99
1460.576	0.909	908.7	2back	Block3	2back/STIM_008.jpg	99
1465.375	0.998	997.5	2back	Block3	2back/STIM_008.jpg	99
1468.402	0.532	532.4	2back	Block3	2back/STIM_009.jpg	100
1472.768	0.708	708.4	2back	Block3	2back/STIM_009.jpg	99
1476.899	0.809	809.0	2back	Block3	2back/STIM_009.jpg	99
1481.522	0.534	533.9	2back	Block3	2back/STIM_010.jpg	99
1484.923	0.762	762.5	2back	Block3	2back/STIM_010.jpg	100
1488.262	0.67	669.9	2back	Block3	2back/STIM_010.jpg	100
1491.694	0.803	802.6	2back	Block3	2back/STIM_011.jpg	100
1495.198	0.876	876.4	2back	Block3	2back/STIM_011.jpg	99
1499.376	0.592	592.1	2back	Block3	2back/STIM_011.jpg	99
1502.845	0.621	620.7	2back	Block3	2back/STIM_012.jpg	99
1505.536	0.566	565.8	2back	Block3	2back/STIM_012.jpg	100
1508.312	0.672	672.4	2back	Block3	2back/STIM_012.jpg	100
1511.705	0.468	468.3	2back	Block3	2back/STIM_013.jpg	100
1515.156	0.465	464.6	2back	Block3	2back/STIM_013.jpg	100
1518.279	0.508	508.5	2back	Block3	2back/STIM_013.jpg	99
1521.829	0.525	524.8	2back	Block3	2back/STIM_014.jpg	100
1525.919	0.46	460.5	2back	Block3	2back/STIM_014.jpg	99
1529.096	0.827	826.7	2back	Block3	2back/STIM_014.jpg	100
1533.843	0.46	459.5	2back	Block3	2back/STIM_015.jpg	99
1536.779	0.656	655.6	2back	Block3	2back/STIM_015.jpg	99
1540.081	0.685	684.9	2back	Block3	2back/STIM_015.jpg	99
1543.54	0.576	576.2	2back	Block3	2back/STIM_016.jpg	100
1546.862	1.019	1019.0	2back	Block3	2back/STIM_016.jpg	100
1550.104	0.491	491.2	2back	Block3	2back/STIM_016.jpg	99
1552.83	0.951	950.8	2back	Block3	2back/STIM_017.jpg	100
1557.163	0.835	835.4	2back	Block3	2back/STIM_017.jpg	99
1560.413	0.795	795.2	2back	Block3	2back/STIM_017.jpg	100
1563.936	0.987	987.1	2back	Block3	2back/STIM_018.jpg	100
1568.65	0.56	559.8	2back	Block3	2back/STIM_018.jpg	100
1572.266	0.863	862.9	2back	Block3	2back/STIM_018.jpg	99
1575.682	0.603	602.6	2back	Block3	2back/STIM_019.jpg	99
1578.895	0.964	964.5	2back	Block3	2back/STIM_019.jpg	99
1583.485	0.995	994.7	2back	Block3	2back/STIM_019.jpg	100
1586.972	0.938	938.2	2back	Block3	2back/STIM_020.jpg	100
1591.437	0.827	826.9	2back	Block3	2back/STIM_020.jpg	99
1594.256	0.513	513.0	2back	Block3	2back/STIM_020.jpg	99
1597.752	0.534	533.5	2back	Block3	2back/STIM_021.jpg	100
1601.001	0.688	687.5	2back	Block3	2back/STIM_021.jpg	99
1604.356	0.796	796.0	2back	Block3	2back/STIM_021.jpg	100
1607.815	0.658	658.5	2back	Block3	2back/STIM_022.jpg	99
1610.636	1.0	1000.2	2back	Block3	2back/STIM_022.jpg	99
1614.83	0.55	550.3	2back	Block3	2back/STIM_022.jpg	99
1618.046	0.496	496.2	2back	Block3	2back/STIM_023.jpg	99
1621.107	0.916	915.8	2back	Block3	2back/STIM_023.jpg	99
1625.597	1.008	1007.7	2back	Block3	2back/STIM_023.jpg	99
1629.42	1.001	1000.9	2back	Block3	2back/STIM_024.jpg	100
1633.251	0.636	635.5	2back	Block3	2back/STIM_024.jpg	99
1636.861	0.459	459.4	2back	Block3	2back/STIM_024.jpg	99
1639.517	0.63	629.7	2back	Block3	2back/STIM_025.jpg	100
1643.825	0.963	963.0	2back	Block3	2back/STIM_025.jpg	100
1647.126	0.751	751.0	2back	Block3	2back/STIM_025.jpg	100
1651.272	0.718	717.6	2back	Block3	2back/STIM_026.jpg	100
1655.118	1.033	1032.6	2back	Block3	2back/STIM_026.jpg	99
1659.532	0.506	505.7	2back	Block3	2back/STIM_026.jpg	100
1662.007	1.01	1010.2	2back	Block3	2back/STIM_027.jpg	99
1666.162	0.811	810.7	2back	Block3	2back/STIM_027.jpg	99
1669.078	0.635	635.2	2back	Block3	2back/STIM_027.jpg	99
1671.734	0.721	720.6	2back	Block3	2back/STIM_028.jpg	99
1676.404	0.905	905.1	2back	Block3	2back/STIM_028.jpg	99
1679.297	0.826	826.3	2back	Block3	2back/STIM_028.jpg	100
1682.578	0.9	900.5	2back	Block3	2back/STIM_029.jpg	100
1687.122	0.971	971.4	2back	Block3	2back/STIM_029.jpg	99
1691.992	0.754	753.8	2back	Block3	2back/STIM_029.jpg	100
1696.58	0.528	528.4	2back	Block3	2back/STIM_030.jpg	100
1699.672	0.449	449.4	2back	Block3	2back/STIM_030.jpg	99
1702.303	0.684	684.5	2back	Block3	2back/STIM_030.jpg	100
1706.765	0.91	909.9	2back	Block3	2back/STIM_031.jpg	100
1710.656	0.951	951.1	2back	Block3	2back/STIM_031.jpg	100
1713.611	0.679	678.9	2back	Block3	2back/STIM_031.jpg	100
1716.714	0.476	476.0	2back	Block3	2back/STIM_032.jpg	100
1720.203	0.666	666.3	2back	Block3	2back/STIM_032.jpg	100
1723.854	0.478	477.7	2back	Block3	2back/STIM_032.jpg	99
1726.331	1.022	1021.9	2back	Block3	2back/STIM_033.jpg	99
1729.372	0.902	901.5	2back	Block3	2back/STIM_033.jpg	100
1732.441	0.552	552.2	2back	Block3	2back/STIM_033.jpg	100
1736.047	0.589	589.4	2back	Block3	2back/STIM_034.jpg	99
1739.813	0.648	648.0	2back	Block3	2back/STIM_034.jpg	100
1743.728	0.551	551.4	2back	Block3	2back/STIM_034.jpg	99
1747.902	0.706	705.5	2back	Block3	2back/STIM_035.jpg	100
1752.095	0.969	969.2	2back	Block3	2back/STIM_035.jpg	99
1755.294	0.809	809.0	2back	Block3	2back/STIM_035.jpg	100
1759.077	0.615	615.3	2back	Block3	2back/STIM_036.jpg	100
1763.152	0.89	890.3	2back	Block3	2back/STIM_036.jpg	100
1766.741	0.861	861.0	2back	Block3	2back/STIM_036.jpg	99
1770.719	0.502	502.3	2back	Block3	2back/STIM_037.jpg	99
1773.434	0.54	540.2	2back	Block3	2back/STIM_037.jpg	100
1776.601	0.625	625.1	2back	Block3	2back/STIM_037.jpg	100
1781.065	0.868	868.4	2back	Block3	2back/STIM_038.jpg	99
1783.887	1.015	1014.7	2back	Block3	2back/STIM_038.jpg	99
1788.239	0.636	635.6	2back	Block3	2back/STIM_038.jpg	100
1791.124	0.853	853.3	2back	Block3	2back/STIM_039.jpg	99
1795.677	0.622	622.1	2back	Block3	2back/STIM_039.jpg	100
1799.416	0.668	667.5	2back	Block3	2back/STIM_039.jpg	100
1803.698	0.598	598.2	0back	Block3	0back/STIM_000.jpg	99
1806.486	0.708	708.2	0back	Block3	0back/STIM_000.jpg	99
1810.236	0.463	463.4	0back	Block3	0back/STIM_000.jpg	100
1812.865	0.558	558.2	0back	Block3	0back/STIM_001.jpg	100
1815.482	0.501	501.5	0back	Block3	0back/STIM_001.jpg	100
1818.856	0.642	641.5	0back	Block3	0back/STIM_001.jpg	100
1821.556	0.702	702.2	0back	Block3	0back/STIM_002.jpg	99
1824.595	0.57	570.1	0back	Block3	0back/STIM_002.jpg	100
1827.987	0.675	674.8	0back	Block3	0back/STIM_002.jpg	99
1831.837	0.518	518.1	0back	Block3	0back/STIM_003.jpg	100
1834.698	0.523	523.2	0back	Block3	0back/STIM_003.jpg	99
1837.983	0.853	853.2	0back	Block3	0back/STIM_003.jpg	100
1842.302	0.845	844.9	0back	Block3	0back/STIM_004.jpg	100
1846.494	0.736	736.0	0back	Block3	0back/STIM_004.jpg	99
1851.163	0.548	548.5	0back	Block3	0back/STIM_004.jpg	99
1853.736	0.573	572.6	0back	Block3	0back/STIM_005.jpg	100
1857.196	0.552	552.1	0back	Block3	0back/STIM_005.jpg	99
1859.963	0.688	687.6	0back	Block3	0back/STIM_005.jpg	100
1863.018	0.801	800.9	0back	Block3	0back/STIM_006.jpg	99
1866.407	0.428	428.3	0back	Block3	0back/STIM_006.jpg	99
1869.28	0.485	484.9	0back	Block3	0back/STIM_006.jpg	99
1871.933	0.484	483.7	0back	Block3	0back/STIM_007.jpg	100
1876.117	0.848	848.0	0back	Block3	0back/STIM_007.jpg	99
1880.176	0.608	608.1	0back	Block3	0back/STIM_007.jpg	100
1882.907	0.816	815.9	0back	Block3	0back/STIM_008.jpg	99
1887.409	0.802	802.3	0back	Block3	0back/STIM_008.jpg	100
1890.539	0.571	570.8	0back	Block3	0back/STIM_008.jpg	99
1893.466	0.702	702.3	0back	Block3	0back/STIM_009.jpg	99
1896.558	0.758	758.2	0back	Block3	0back/STIM_009.jpg	100
1899.72	0.69	690.3	0back	Block3	0back/STIM_009.jpg	100
1902.813	0.686	686.2	0back	Block3	0back/STIM_010.jpg	100
1905.943	0.517	516.8	0back	Block3	0back/STIM_010.jpg	100
1909.912	0.612	612.0	0back	Block3	0back/STIM_010.jpg	100
1912.528	0.459	459.2	0back	Block3	0back/STIM_011.jpg	99
1916.353	0.741	740.7	0back	Block3	0back/STIM_011.jpg	100
1919.793	0.752	752.2	0back	Block3	0back/STIM_011.jpg	100
1923.327	0.465	464.9	0back	Block3	0back/STIM_012.jpg	99
1927.069	0.64	640.4	0back	Block3	0back/STIM_012.jpg	100
1931.06	0.435	434.7	0back	Block3	0back/STIM_012.jpg	99
1934.464	0.832	832.4	0back	Block3	0back/STIM_013.jpg	99
1938.663	0.85	850.2	0back	Block3	0back/STIM_013.jpg	100
1942.541	0.493	492.7	0back	Block3	0back/STIM_013.jpg	100
1946.54	0.754	754.0	0back	Block3	0back/STIM_014.jpg	100
1950.553	0.812	811.7	0back	Block3	0back/STIM_014.jpg	100
1955.028	0.558	557.8	0back	Block3	0back/STIM_014.jpg	99
1957.603	0.804	804.5	0back	Block3	0back/STIM_015.jpg	99
1961.341	0.586	586.1	0back	Block3	0back/STIM_015.jpg	99
1965.106	0.74	739.9	0back	Block3	0back/STIM_015.jpg	99
1969.122	0.546	546.5	0back	Block3	0back/STIM_016.jpg	99
1972.715	0.457	457.4	0back	Block3	0back/STIM_016.jpg	100
1976.384	0.843	842.6	0back	Block3	0back/STIM_016.jpg	100
1981.086	0.598	597.8	0back	Block3	0back/STIM_017.jpg	100
1984.951	0.683	683.1	0back	Block3	0back/STIM_017.jpg	99
1987.778	0.604	603.7	0back	Block3	0back/STIM_017.jpg	100
1991.128	0.501	500.8	0back	Block3	0back/STIM_018.jpg	100
1994.75	0.742	741.6	0back	Block3	0back/STIM_018.jpg	99
1997.451	0.541	541.3	0back	Block3	0back/STIM_018.jpg	100
2000.537	0.854	854.2	0back	Block3	0back/STIM_019.jpg	99
2005.164	0.489	488.8	0back	Block3	0back/STIM_019.jpg	99
2008.036	0.628	627.9	0back	Block3	0back/STIM_019.jpg	99
2010.687	0.578	578.3	2back	Block4	2back/STIM_000.jpg	100
2014.575	0.903	902.8	2back	Block4	2back/STIM_000.jpg	100
2018.849	0.585	584.9	2back	Block4	2back/STIM_000.jpg	100
2022.777	0.852	852.3	2back	Block4	2back/STIM_001.jpg	99
2025.927	0.769	768.6	2back	Block4	2back/STIM_001.jpg	100
2030.638	0.964	963.8	2back	Block4	2back/STIM_001.jpg	100
2035.145	0.656	656.0	2back	Block4	2back/STIM_002.jpg	99
2038.909	0.648	647.6	2back	Block4	2back/STIM_002.jpg	100
2043.392	0.93	930.3	2back	Block4	2back/STIM_002.jpg	99
2047.926	0.625	624.8	2back	Block4	2back/STIM_003.jpg	100
2051.9	0.828	827.9	2back	Block4	2back/STIM_003.jpg	100
2055.413	0.731	731.0	2back	Block4	2back/STIM_003.jpg	99
2058.818	1.031	1031.2	2back	Block4	2back/STIM_004.jpg	100
2062.957	0.987	987.1	2back	Block4	2back/STIM_004.jpg	99
2066.747	0.456	455.6	2back	Block4	2back/STIM_004.jpg	99
2071.151	0.74	739.5	2back	Block4	2back/STIM_005.jpg	99
2074.448	0.813	812.9	2back	Block4	2back/STIM_005.jpg	99
2078.658	0.493	492.7	2back	Block4	2back/STIM_005.jpg	100
2081.982	0.45	450.2	2back	Block4	2back/STIM_006.jpg	100
2085.037	0.763	763.0	2back	Block4	2back/STIM_006.jpg	99
2088.031	0.64	640.3	2back	Block4	2back/STIM_006.jpg	100
2092.345	0.682	682.4	2back	Block4	2back/STIM_007.jpg	99
2095.414	0.555	555.1	2back	Block4	2back/STIM_007.jpg	99
2099.105	0.467	467.4	2back	Block4	2back/STIM_007.jpg	100
2103.455	0.779	778.9	2back	Block4	2back/STIM_008.jpg	99
2107.911	0.9	899.9	2back	Block4	2back/STIM_008.jpg	100
2111.243	0.543	542.6	2back	Block4	2back/STIM_008.jpg	100
2113.848	0.928	928.2	2back	Block4	2back/STIM_009.jpg	100
2118.298	0.754	754.5	2back	Block4	2back/STIM_009.jpg	100
2121.536	0.669	669.3	2back	Block4	2back/STIM_009.jpg	100
2125.482	0.546	545.8	2back	Block4	2back/STIM_010.jpg	99
2128.662	0.893	892.6	2back	Block4	2back/STIM_010.jpg	100
2132.338	1.041	1040.6	2back	Block4	2back/STIM_010.jpg	100
2135.564	0.518	517.9	2back	Block4	2back/STIM_011.jpg	100
2138.681	0.636	636.0	2back	Block4	2back/STIM_011.jpg	99
2142.362	0.833	833.4	2back	Block4	2back/STIM_011.jpg	100
2146.485	0.741	740.8	2back	Block4	2back/STIM_012.jpg	100
2150.689	0.657	656.9	2back	Block4	2back/STIM_012.jpg	99
2154.251	0.76	759.7	2back	Block4	2back/STIM_012.jpg	99
2158.293	0.821	821.4	2back	Block4	2back/STIM_013.jpg	99
2163.024	1.028	1027.8	2back	Block4	2back/STIM_013.jpg	100
2167.683	0.992	992.0	2back	Block4	2back/STIM_013.jpg	100
2170.784	0.557	556.6	2back	Block4	2back/STIM_014.jpg	100
2174.174	1.044	1043.9	2back	Block4	2back/STIM_014.jpg	100
2178.643	0.991	991.1	2back	Block4	2back/STIM_014.jpg	100
2182.615	0.607	607.1	2back	Block4	2back/STIM_015.jpg	100
2185.764	0.644	643.7	2back	Block4	2back/STIM_015.jpg	99
2189.972	0.617	617.3	2back	Block4	2back/STIM_015.jpg	99
2193.662	0.697	697.4	2back	Block4	2back/STIM_016.jpg	99
2197.569	0.99	990.2	2back	Block4	2back/STIM_016.jpg	99
2201.714	1.034	1034.0	2back	Block4	2back/STIM_016.jpg	99
2205.448	0.766	765.5	2back	Block4	2back/STIM_017.jpg	99
2209.794	0.992	991.7	2back	Block4	2back/STIM_017.jpg	99
2214.153	0.457	456.8	2back	Block4	2back/STIM_017.jpg	100
2217.013	0.59	590.3	2back	Block4	2back/STIM_018.jpg	99
2219.627	0.706	706.4	2back	Block4	2back/STIM_018.jpg	99
2222.985	0.837	837.2	2back	Block4	2back/STIM_018.jpg	99
2227.022	0.714	713.6	2back	Block4	2back/STIM_019.jpg	99
2230.583	1.007	1007.2	2back	Block4	2back/STIM_019.jpg	100
2235.38	0.701	700.6	2back	Block4	2back/STIM_019.jpg	100
2239.349	0.694	693.9	2back	Block4	2back/STIM_020.jpg	100
2242.302	0.644	644.2	2back	Block4	2back/STIM_020.jpg	99
2246.842	1.018	1018.1	2back	Block4	2back/STIM_020.jpg	99
2251.784	0.983	983.4	2back	Block4	2back/STIM_021.jpg	100
2255.295	0.603	602.6	2back	Block4	2back/STIM_021.jpg	100
2259.738	0.759	759.4	2back	Block4	2back/STIM_021.jpg	99
2263.897	0.705	704.8	2back	Block4	2back/STIM_022.jpg	100
2267.308	0.718	718.0	2back	Block4	2back/STIM_022.jpg	100
2271.208	0.924	923.5	2back	Block4	2back/STIM_022.jpg	99
2275.811	0.934	933.8	2back	Block4	2back/STIM_023.jpg	100
2280.179	0.638	638.3	2back	Block4	2back/STIM_023.jpg	99
2284.28	0.624	623.8	2back	Block4	2back/STIM_023.jpg	100
2288.329	0.531	530.7	2back	Block4	2back/STIM_024.jpg	100
2292.655	0.719	718.6	2back	Block4	2back/STIM_024.jpg	100
2296.21	0.845	844.7	2back	Block4	2back/STIM_024.jpg	99
2300.141	0.594	593.7	2back	Block4	2back/STIM_025.jpg	99
2304.57	0.722	722.0	2back	Block4	2back/STIM_025.jpg	99
2309.167	0.543	543.1	2back	Block4	2back/STIM_025.jpg	100
2313.0	1.033	1032.6	2back	Block4	2back/STIM_026.jpg	100
2317.191	0.634	634.2	2back	Block4	2back/STIM_026.jpg	99
2321.161	1.003	1003.3	2back	Block4	2back/STIM_026.jpg	100
2324.88	1.0	999.7	2back	Block4	2back/STIM_027.jpg	99
2329.195	1.011	1011.1	2back	Block4	2back/STIM_027.jpg	100
2333.903	0.478	478.2	2back	Block4	2back/STIM_027.jpg	99
2336.657	0.857	856.6	2back	Block4	2back/STIM_028.jpg	99
2339.65	0.562	561.7	2back	Block4	2back/STIM_028.jpg	100
2343.274	0.754	754.5	2back	Block4	2back/STIM_028.jpg	99
2347.223	1.008	1007.7	2back	Block4	2back/STIM_029.jpg	99
2350.684	0.915	915.4	2back	Block4	2back/STIM_029.jpg	100
2355.518	0.954	954.2	2back	Block4	2back/STIM_029.jpg	99
2360.335	0.698	697.7	2back	Block4	2back/STIM_030.jpg	99
2363.833	0.684	684.2	2back	Block4	2back/STIM_030.jpg	99
2367.628	0.88	879.5	2back	Block4	2back/STIM_030.jpg	99
2371.505	0.55	550.2	2back	Block4	2back/STIM_031.jpg	100
2374.14	0.958	957.9	2back	Block4	2back/STIM_031.jpg	99
2378.554	0.593	592.9	2back	Block4	2back/STIM_031.jpg	100
2381.861	0.812	811.7	2back	Block4	2back/STIM_032.jpg	100
2386.299	0.818	817.7	2back	Block4	2back/STIM_032.jpg	99
2390.158	0.456	455.9	2back	Block4	2back/STIM_032.jpg	100
2392.808	0.636	636.0	2back	Block4	2back/STIM_033.jpg	100
2396.437	0.769	769.0	2back	Block4	2back/STIM_033.jpg	100
2401.075	0.502	501.9	2back	Block4	2back/STIM_033.jpg	99
2403.719	0.739	739.4	2back	Block4	2back/STIM_034.jpg	99
2406.824	0.461	461.3	2back	Block4	2back/STIM_034.jpg	99
2411.252	0.546	545.6	2back	Block4	2back/STIM_034.jpg	100
2414.007	0.914	914.5	2back	Block4	2back/STIM_035.jpg	99
2417.702	0.853	853.0	2back	Block4	2back/STIM_035.jpg	100
2422.091	0.904	903.6	2back	Block4	2back/STIM_035.jpg	100
2425.227	0.746	745.8	2back	Block4	2back/STIM_036.jpg	100
2429.191	1.022	1022.0	2back	Block4	2back/STIM_036.jpg	100
2432.404	0.901	900.7	2back	Block4	2back/STIM_036.jpg	100
2435.963	0.948	948.3	2back	Block4	2back/STIM_037.jpg	99
2440.396	0.619	619.0	2back	Block4	2back/STIM_037.jpg	99
2444.634	0.603	603.1	2back	Block4	2back/STIM_037.jpg	99
2447.251	0.919	918.8	2back	Block4	2back/STIM_038.jpg	100
2451.064	1.037	1037.3	2back	Block4	2back/STIM_038.jpg	99
2455.991	0.525	525.3	2back	Block4	2back/STIM_038.jpg	100
2458.699	0.469	468.6	2back	Block4	2back/STIM_039.jpg	99
2461.718	0.593	592.8	2back	Block4	2back/STIM_039.jpg	99
2465.971	0.779	779.4	2back	Block4	2back/STIM_039.jpg	99
2470.228	0.659	658.7	0back	Block4	0back/STIM_000.jpg	99
2472.849	0.506	506.4	0back	Block4	0back/STIM_000.jpg	100
2476.141	0.753	752.8	0back	Block4	0back/STIM_000.jpg	100
2479.2	0.834	834.4	0back	Block4	0back/STIM_001.jpg	100
2483.465	0.814	814.4	0back	Block4	0back/STIM_001.jpg	100
2486.234	0.722	722.4	0back	Block4	0back/STIM_001.jpg	99
2488.93	0.839	838.8	0back	Block4	0back/STIM_002.jpg	100
2492.766	0.844	843.7	0back	Block4	0back/STIM_002.jpg	99
2496.696	0.485	484.9	0back	Block4	0back/STIM_002.jpg	100
2500.429	0.676	675.6	0back	Block4	0back/STIM_003.jpg	100
2504.128	0.702	702.0	0back	Block4	0back/STIM_003.jpg	100
2506.985	0.566	566.1	0back	Block4	0back/STIM_003.jpg	99
2511.511	0.806	806.4	0back	Block4	0back/STIM_004.jpg	100
2515.417	0.432	432.5	0back	Block4	0back/STIM_004.jpg	99
2519.133	0.604	604.0	0back	Block4	0back/STIM_004.jpg	100
2523.601	0.736	735.5	0back	Block4	0back/STIM_005.jpg	99
2527.561	0.747	747.2	0back	Block4	0back/STIM_005.jpg	100
2530.956	0.562	562.3	0back	Block4	0back/STIM_005.jpg	100
2533.943	0.435	434.9	0back	Block4	0back/STIM_006.jpg	99
2536.691	0.748	748.1	0back	Block4	0back/STIM_006.jpg	100
2540.288	0.487	487.2	0back	Block4	0back/STIM_006.jpg	99
2544.5	0.533	533.1	0back	Block4	0back/STIM_007.jpg	100
2547.449	0.761	761.4	0back	Block4	0back/STIM_007.jpg	100
2551.525	0.637	636.9	0back	Block4	0back/STIM_007.jpg	99
2555.946	0.612	612.5	0back	Block4	0back/STIM_008.jpg	99
2558.635	0.428	428.5	0back	Block4	0back/STIM_008.jpg	100
2562.143	0.436	435.8	0back	Block4	0back/STIM_008.jpg	100
2565.149	0.807	806.6	0back	Block4	0back/STIM_009.jpg	99
2568.465	0.667	666.6	0back	Block4	0back/STIM_009.jpg	100
2572.931	0.761	760.6	0back	Block4	0back/STIM_009.jpg	100
2576.517	0.734	733.9	0back	Block4	0back/STIM_010.jpg	99
2579.747	0.501	501.4	0back	Block4	0back/STIM_010.jpg	99
2583.089	0.797	796.7	0back	Block4	0back/STIM_010.jpg	99
2585.857	0.625	624.8	0back	Block4	0back/STIM_011.jpg	100
2590.311	0.612	611.9	0back	Block4	0back/STIM_011.jpg	100
2594.252	0.555	555.3	0back	Block4	0back/STIM_011.jpg	99
2596.795	0.811	811.3	0back	Block4	0back/STIM_012.jpg	100
2600.97	0.666	666.5	0back	Block4	0back/STIM_012.jpg	100
2605.581	0.592	592.1	0back	Block4	0back/STIM_012.jpg	100
2609.071	0.829	828.6	0back	Block4	0back/STIM_013.jpg	99
2613.7	0.68	680.2	0back	Block4	0back/STIM_013.jpg	100
2618.078	0.581	580.6	0back	Block4	0back/STIM_013.jpg	100
2621.867	0.489	489.2	0back	Block4	0back/STIM_014.jpg	99
2624.962	0.686	685.6	0back	Block4	0back/STIM_014.jpg	100
2627.752	0.765	765.3	0back	Block4	0back/STIM_014.jpg	100
2631.705	0.718	717.9	0back	Block4	0back/STIM_015.jpg	99
2635.951	0.85	850.0	0back	Block4	0back/STIM_015.jpg	99
2640.317	0.551	550.9	0back	Block4	0back/STIM_015.jpg	100
2643.813	0.753	753.1	0back	Block4	0back/STIM_016.jpg	100
2647.142	0.728	728.3	0back	Block4	0back/STIM_016.jpg	99
2651.07	0.471	471.1	0back	Block4	0back/STIM_016.jpg	100
2654.447	0.688	687.7	0back	Block4	0back/STIM_017.jpg	100
2658.231	0.529	528.7	0back	Block4	0back/STIM_017.jpg	99
2660.733	0.595	594.8	0back	Block4	0back/STIM_017.jpg	100
2664.228	0.781	780.8	0back	Block4	0back/STIM_018.jpg	100
2667.289	0.759	759.3	0back	Block4	0back/STIM_018.jpg	99
2670.09	0.599	598.6	0back	Block4	0back/STIM_018.jpg	100
2674.226	0.641	641.1	0back	Block4	0back/STIM_019.jpg	99
2677.383	0.712	712.4	0back	Block4	0back/STIM_019.jpg	100
2681.81	0.529	528.9	0back	Block4	0back/STIM_019.jpg	100
