onset	duration	accuracy	trial_type	learning_stage	stimulus
0.0	1.018	correct	2back	Block1	2back/STIM_000.jpg
4.035	0.632	correct	2back	Block1	2back/STIM_000.jpg
6.68	1.058	incorrect	2back	Block1	2back/STIM_000.jpg
10.492	0.998	correct	2back	Block1	2back/STIM_001.jpg
14.452	0.884	correct	2back	Block1	2back/STIM_001.jpg
17.37	0.662	correct	2back	Block1	2back/STIM_001.jpg
20.761	1.416	correct	2back	Block1	2back/STIM_002.jpg
25.57	0.632	correct	2back	Block1	2back/STIM_002.jpg
29.621	1.196	correct	2back	Block1	2back/STIM_002.jpg
34.279	1.08	correct	2back	Block1	2back/STIM_003.jpg
37.412	0.763	incorrect	2back	Block1	2back/STIM_003.jpg
41.242	1.277	incorrect	2back	Block1	2back/STIM_003.jpg
46.218	0.83	correct	2back	Block1	2back/STIM_004.jpg
50.893	1.35	correct	2back	Block1	2back/STIM_004.jpg
55.86	0.826	correct	2back	Block1	2back/STIM_004.jpg
59.048	1.361	correct	2back	Block1	2back/STIM_005.jpg
63.722	0.809	correct	2back	Block1	2back/STIM_005.jpg
68.154	1.09	correct	2back	Block1	2back/STIM_005.jpg
71.791	0.796	correct	2back	Block1	2back/STIM_006.jpg
74.821	1.032	correct	2back	Block1	2back/STIM_006.jpg
79.632	0.708	correct	2back	Block1	2back/STIM_006.jpg
82.363	0.644	correct	2back	Block1	2back/STIM_007.jpg
85.431	1.028	correct	2back	Block1	2back/STIM_007.jpg
90.369	1.18	correct	2back	Block1	2back/STIM_007.jpg
94.039	1.337	correct	2back	Block1	2back/STIM_008.jpg
97.921	1.097	correct	2back	Block1	2back/STIM_008.jpg
101.375	0.737	correct	2back	Block1	2back/STIM_008.jpg
105.248	1.422	correct	2back	Block1	2back/STIM_009.jpg
109.067	1.293	incorrect	2back	Block1	2back/STIM_009.jpg
112.623	0.68	correct	2back	Block1	2back/STIM_009.jpg
116.163	1.492	correct	2back	Block1	2back/STIM_010.jpg
120.063	1.278	correct	2back	Block1	2back/STIM_010.jpg
125.169	0.832	correct	2back	Block1	2back/STIM_010.jpg
128.278	0.859	correct	2back	Block1	2back/STIM_011.jpg
131.16	1.285	correct	2back	Block1	2back/STIM_011.jpg
136.305	1.219	correct	2back	Block1	2back/STIM_011.jpg
139.932	1.431	correct	2back	Block1	2back/STIM_012.jpg
144.918	1.282	incorrect	2back	Block1	2back/STIM_012.jpg
149.549	1.059	incorrect	2back	Block1	2back/STIM_012.jpg
154.26	1.123	correct	2back	Block1	2back/STIM_013.jpg
158.904	0.755	correct	2back	Block1	2back/STIM_013.jpg
163.087	1.015	correct	2back	Block1	2back/STIM_013.jpg
167.054	1.463	correct	2back	Block1	2back/STIM_014.jpg
171.521	1.008	correct	2back	Block1	2back/STIM_014.jpg
175.381	1.308	correct	2back	Block1	2back/STIM_014.jpg
178.636	0.936	incorrect	2back	Block1	2back/STIM_015.jpg
181.814	0.937	correct	2back	Block1	2back/STIM_015.jpg
185.118	1.083	correct	2back	Block1	2back/STIM_015.jpg
188.486	1.173	correct	2back	Block1	2back/STIM_016.jpg
193.382	0.981	correct	2back	Block1	2back/STIM_016.jpg
197.361	1.151	correct	2back	Block1	2back/STIM_016.jpg
200.441	0.788	correct	2back	Block1	2back/STIM_017.jpg
204.219	0.946	correct	2back	Block1	2back/STIM_017.jpg
209.062	1.234	correct	2back	Block1	2back/STIM_017.jpg
213.082	1.384	incorrect	2back	Block1	2back/STIM_018.jpg
218.069	1.319	correct	2back	Block1	2back/STIM_018.jpg
222.845	1.08	correct	2back	Block1	2back/STIM_018.jpg
227.219	0.646	correct	2back	Block1	2back/STIM_019.jpg
230.242	0.83	correct	2back	Block1	2back/STIM_019.jpg
234.822	0.643	correct	2back	Block1	2back/STIM_019.jpg
238.506	0.846	correct	2back	Block1	2back/STIM_020.jpg
243.064	0.735	correct	2back	Block1	2back/STIM_020.jpg
246.737	0.854	correct	2back	Block1	2back/STIM_020.jpg
249.828	0.938	correct	2back	Block1	2back/STIM_021.jpg
254.572	0.925	correct	2back	Block1	2back/STIM_021.jpg
258.749	0.867	correct	2back	Block1	2back/STIM_021.jpg
261.659	1.468	correct	2back	Block1	2back/STIM_022.jpg
265.534	1.184	correct	2back	Block1	2back/STIM_022.jpg
270.53	0.999	correct	2back	Block1	2back/STIM_022.jpg
275.181	1.224	correct	2back	Block1	2back/STIM_023.jpg
279.867	1.191	correct	2back	Block1	2back/STIM_023.jpg
284.84	0.685	correct	2back	Block1	2back/STIM_023.jpg
287.744	1.385	incorrect	2back	Block1	2back/STIM_024.jpg
291.795	0.986	correct	2back	Block1	2back/STIM_024.jpg
296.35	0.782	correct	2back	Block1	2back/STIM_024.jpg
300.189	0.905	correct	2back	Block1	2back/STIM_025.jpg
303.116	1.075	correct	2back	Block1	2back/STIM_025.jpg
307.0	1.312	correct	2back	Block1	2back/STIM_025.jpg
311.759	1.336	correct	2back	Block1	2back/STIM_026.jpg
316.953	0.758	correct	2back	Block1	2back/STIM_026.jpg
319.758	0.768	correct	2back	Block1	2back/STIM_026.jpg
324.211	0.644	correct	2back	Block1	2back/STIM_027.jpg
327.405	1.201	correct	2back	Block1	2back/STIM_027.jpg
330.532	0.664	correct	2back	Block1	2back/STIM_027.jpg
334.41	1.33	correct	2back	Block1	2back/STIM_028.jpg
338.736	1.42	correct	2back	Block1	2back/STIM_028.jpg
342.399	0.68	correct	2back	Block1	2back/STIM_028.jpg
346.259	1.251	incorrect	2back	Block1	2back/STIM_029.jpg
349.823	1.256	correct	2back	Block1	2back/STIM_029.jpg
354.688	0.71	correct	2back	Block1	2back/STIM_029.jpg
359.184	1.038	correct	2back	Block1	2back/STIM_030.jpg
363.671	1.074	correct	2back	Block1	2back/STIM_030.jpg
366.696	0.773	correct	2back	Block1	2back/STIM_030.jpg
370.782	0.994	correct	2back	Block1	2back/STIM_031.jpg
374.216	1.19	correct	2back	Block1	2back/STIM_031.jpg
378.945	0.886	correct	2back	Block1	2back/STIM_031.jpg
382.139	1.136	correct	2back	Block1	2back/STIM_032.jpg
385.759	0.753	incorrect	2back	Block1	2back/STIM_032.jpg
388.537	0.783	correct	2back	Block1	2back/STIM_032.jpg
391.871	0.742	incorrect	2back	Block1	2back/STIM_033.jpg
396.417	1.182	correct	2back	Block1	2back/STIM_033.jpg
401.435	0.9	correct	2back	Block1	2back/STIM_033.jpg
405.871	1.222	correct	2back	Block1	2back/STIM_034.jpg
410.374	0.625	correct	2back	Block1	2back/STIM_034.jpg
414.731	1.072	incorrect	2back	Block1	2back/STIM_034.jpg
417.908	1.019	correct	2back	Block1	2back/STIM_035.jpg
421.395	1.246	correct	2back	Block1	2back/STIM_035.jpg
424.954	1.221	correct	2back	Block1	2back/STIM_035.jpg
429.653	1.388	correct	2back	Block1	2back/STIM_036.jpg
433.613	1.089	correct	2back	Block1	2back/STIM_036.jpg
438.533	1.122	correct	2back	Block1	2back/STIM_036.jpg
442.339	0.646	correct	2back	Block1	2back/STIM_037.jpg
446.936	1.299	incorrect	2back	Block1	2back/STIM_037.jpg
450.398	0.653	correct	2back	Block1	2back/STIM_037.jpg
453.843	1.302	correct	2back	Block1	2back/STIM_038.jpg
457.833	0.643	correct	2back	Block1	2back/STIM_038.jpg
462.036	0.842	correct	2back	Block1	2back/STIM_038.jpg
466.135	0.939	correct	2back	Block1	2back/STIM_039.jpg
469.541	0.944	correct	2back	Block1	2back/STIM_039.jpg
473.696	1.18	correct	2back	Block1	2back/STIM_039.jpg
478.68	0.762	correct	0back	Block1	0back/STIM_000.jpg
482.936	0.812	correct	0back	Block1	0back/STIM_000.jpg
487.22	0.518	correct	0back	Block1	0back/STIM_000.jpg
489.953	0.67	correct	0back	Block1	0back/STIM_001.jpg
492.666	0.444	correct	0back	Block1	0back/STIM_001.jpg
495.116	0.852	correct	0back	Block1	0back/STIM_001.jpg
499.503	0.81	correct	0back	Block1	0back/STIM_002.jpg
502.703	0.792	correct	0back	Block1	0back/STIM_002.jpg
505.841	0.681	correct	0back	Block1	0back/STIM_002.jpg
508.929	0.804	correct	0back	Block1	0back/STIM_003.jpg
513.506	0.61	correct	0back	Block1	0back/STIM_003.jpg
517.404	0.792	correct	0back	Block1	0back/STIM_003.jpg
520.738	0.855	correct	0back	Block1	0back/STIM_004.jpg
523.911	0.503	correct	0back	Block1	0back/STIM_004.jpg
526.633	0.829	correct	0back	Block1	0back/STIM_004.jpg
529.633	0.46	correct	0back	Block1	0back/STIM_005.jpg
534.052	0.777	correct	0back	Block1	0back/STIM_005.jpg
538.66	0.442	correct	0back	Block1	0back/STIM_005.jpg
541.114	0.498	correct	0back	Block1	0back/STIM_006.jpg
545.503	0.551	correct	0back	Block1	0back/STIM_006.jpg
549.188	0.752	correct	0back	Block1	0back/STIM_006.jpg
552.902	0.817	correct	0back	Block1	0back/STIM_007.jpg
557.196	0.844	correct	0back	Block1	0back/STIM_007.jpg
560.48	0.557	correct	0back	Block1	0back/STIM_007.jpg
563.726	0.696	correct	0back	Block1	0back/STIM_008.jpg
566.573	0.61	correct	0back	Block1	0back/STIM_008.jpg
570.181	0.461	correct	0back	Block1	0back/STIM_008.jpg
573.441	0.798	correct	0back	Block1	0back/STIM_009.jpg
577.341	0.779	correct	0back	Block1	0back/STIM_009.jpg
580.27	0.799	correct	0back	Block1	0back/STIM_009.jpg
584.62	0.541	correct	0back	Block1	0back/STIM_010.jpg
588.532	0.811	correct	0back	Block1	0back/STIM_010.jpg
591.49	0.596	correct	0back	Block1	0back/STIM_010.jpg
594.864	0.557	correct	0back	Block1	0back/STIM_011.jpg
598.209	0.588	incorrect	0back	Block1	0back/STIM_011.jpg
602.524	0.675	correct	0back	Block1	0back/STIM_011.jpg
606.029	0.548	correct	0back	Block1	0back/STIM_012.jpg
610.163	0.841	correct	0back	Block1	0back/STIM_012.jpg
613.807	0.787	correct	0back	Block1	0back/STIM_012.jpg
618.45	0.727	correct	0back	Block1	0back/STIM_013.jpg
622.732	0.703	correct	0back	Block1	0back/STIM_013.jpg
627.245	0.609	correct	0back	Block1	0back/STIM_013.jpg
630.581	0.481	correct	0back	Block1	0back/STIM_014.jpg
634.277	0.541	correct	0back	Block1	0back/STIM_014.jpg
637.274	0.624	correct	0back	Block1	0back/STIM_014.jpg
640.656	0.602	correct	0back	Block1	0back/STIM_015.jpg
643.966	0.738	correct	0back	Block1	0back/STIM_015.jpg
648.236	0.71	correct	0back	Block1	0back/STIM_015.jpg
650.934	0.788	correct	0back	Block1	0back/STIM_016.jpg
655.024	0.569	correct	0back	Block1	0back/STIM_016.jpg
659.454	0.75	correct	0back	Block1	0back/STIM_016.jpg
663.81	0.444	correct	0back	Block1	0back/STIM_017.jpg
666.781	0.432	correct	0back	Block1	0back/STIM_017.jpg
670.266	0.472	correct	0back	Block1	0back/STIM_017.jpg
674.176	0.594	correct	0back	Block1	0back/STIM_018.jpg
676.755	0.532	correct	0back	Block1	0back/STIM_018.jpg
679.749	0.446	incorrect	0back	Block1	0back/STIM_018.jpg
682.527	0.568	correct	0back	Block1	0back/STIM_019.jpg
686.406	0.468	correct	0back	Block1	0back/STIM_019.jpg
690.169	0.485	correct	0back	Block1	0back/STIM_019.jpg
694.502	1.149	incorrect	2back	Block2	2back/STIM_000.jpg
699.226	1.086	correct	2back	Block2	2back/STIM_000.jpg
702.763	0.66	incorrect	2back	Block2	2back/STIM_000.jpg
706.464	1.092	correct	2back	Block2	2back/STIM_001.jpg
710.634	1.072	correct	2back	Block2	2back/STIM_001.jpg
715.454	0.713	correct	2back	Block2	2back/STIM_001.jpg
718.166	1.031	correct	2back	Block2	2back/STIM_002.jpg
721.599	0.687	correct	2back	Block2	2back/STIM_002.jpg
724.313	0.574	correct	2back	Block2	2back/STIM_002.jpg
727.554	0.892	correct	2back	Block2	2back/STIM_003.jpg
731.474	0.655	correct	2back	Block2	2back/STIM_003.jpg
734.537	0.536	incorrect	2back	Block2	2back/STIM_003.jpg
738.112	0.595	correct	2back	Block2	2back/STIM_004.jpg
741.16	0.761	correct	2back	Block2	2back/STIM_004.jpg
744.85	0.904	correct	2back	Block2	2back/STIM_004.jpg
748.156	0.978	correct	2back	Block2	2back/STIM_005.jpg
751.603	0.704	correct	2back	Block2	2back/STIM_005.jpg
755.955	0.944	correct	2back	Block2	2back/STIM_005.jpg
759.334	0.955	correct	2back	Block2	2back/STIM_006.jpg
763.474	0.555	correct	2back	Block2	2back/STIM_006.jpg
766.417	0.812	correct	2back	Block2	2back/STIM_006.jpg
770.088	1.19	correct	2back	Block2	2back/STIM_007.jpg
774.865	0.826	correct	2back	Block2	2back/STIM_007.jpg
779.168	0.998	correct	2back	Block2	2back/STIM_007.jpg
783.133	1.206	correct	2back	Block2	2back/STIM_008.jpg
786.331	1.022	correct	2back	Block2	2back/STIM_008.jpg
790.866	0.841	correct	2back	Block2	2back/STIM_008.jpg
794.711	0.868	incorrect	2back	Block2	2back/STIM_009.jpg
798.161	0.521	correct	2back	Block2	2back/STIM_009.jpg
801.885	0.832	incorrect	2back	Block2	2back/STIM_009.jpg
805.863	0.95	correct	2back	Block2	2back/STIM_010.jpg
809.389	0.761	incorrect	2back	Block2	2back/STIM_010.jpg
812.176	0.489	correct	2back	Block2	2back/STIM_010.jpg
814.678	0.786	correct	2back	Block2	2back/STIM_011.jpg
817.623	0.88	correct	2back	Block2	2back/STIM_011.jpg
821.553	0.779	correct	2back	Block2	2back/STIM_011.jpg
824.456	0.92	incorrect	2back	Block2	2back/STIM_012.jpg
827.846	0.775	correct	2back	Block2	2back/STIM_012.jpg
831.96	0.732	correct	2back	Block2	2back/STIM_012.jpg
835.973	0.91	correct	2back	Block2	2back/STIM_013.jpg
840.427	0.91	correct	2back	Block2	2back/STIM_013.jpg
844.572	0.866	correct	2back	Block2	2back/STIM_013.jpg
848.902	0.573	correct	2back	Block2	2back/STIM_014.jpg
853.011	0.887	correct	2back	Block2	2back/STIM_014.jpg
857.108	0.87	incorrect	2back	Block2	2back/STIM_014.jpg
861.336	0.635	correct	2back	Block2	2back/STIM_015.jpg
865.358	1.056	correct	2back	Block2	2back/STIM_015.jpg
870.202	0.568	correct	2back	Block2	2back/STIM_015.jpg
874.061	1.012	correct	2back	Block2	2back/STIM_016.jpg
878.965	1.019	correct	2back	Block2	2back/STIM_016.jpg
883.276	0.828	correct	2back	Block2	2back/STIM_016.jpg
887.619	1.015	correct	2back	Block2	2back/STIM_017.jpg
891.181	0.939	correct	2back	Block2	2back/STIM_017.jpg
895.069	0.764	correct	2back	Block2	2back/STIM_017.jpg
898.93	0.605	correct	2back	Block2	2back/STIM_018.jpg
902.627	1.004	incorrect	2back	Block2	2back/STIM_018.jpg
906.258	0.49	correct	2back	Block2	2back/STIM_018.jpg
909.729	0.903	correct	2back	Block2	2back/STIM_019.jpg
913.965	0.864	correct	2back	Block2	2back/STIM_019.jpg
917.684	0.649	correct	2back	Block2	2back/STIM_019.jpg
920.486	0.779	correct	2back	Block2	2back/STIM_020.jpg
924.841	0.739	correct	2back	Block2	2back/STIM_020.jpg
927.911	1.093	correct	2back	Block2	2back/STIM_020.jpg
931.023	1.006	correct	2back	Block2	2back/STIM_021.jpg
934.402	0.521	incorrect	2back	Block2	2back/STIM_021.jpg
937.488	1.106	correct	2back	Block2	2back/STIM_021.jpg
941.484	0.644	correct	2back	Block2	2back/STIM_022.jpg
945.23	0.846	correct	2back	Block2	2back/STIM_022.jpg
949.563	0.538	correct	2back	Block2	2back/STIM_022.jpg
953.444	1.251	correct	2back	Block2	2back/STIM_023.jpg
957.673	0.526	correct	2back	Block2	2back/STIM_023.jpg
962.043	1.066	correct	2back	Block2	2back/STIM_023.jpg
966.353	1.011	correct	2back	Block2	2back/STIM_024.jpg
970.04	0.685	correct	2back	Block2	2back/STIM_024.jpg
973.383	1.017	correct	2back	Block2	2back/STIM_024.jpg
977.377	1.27	correct	2back	Block2	2back/STIM_025.jpg
981.245	0.676	correct	2back	Block2	2back/STIM_025.jpg
984.731	0.849	correct	2back	Block2	2back/STIM_025.jpg
987.742	1.202	correct	2back	Block2	2back/STIM_026.jpg
992.335	0.691	correct	2back	Block2	2back/STIM_026.jpg
996.311	1.057	correct	2back	Block2	2back/STIM_026.jpg
1000.397	1.104	correct	2back	Block2	2back/STIM_027.jpg
1005.134	0.891	correct	2back	Block2	2back/STIM_027.jpg
1007.997	0.844	correct	2back	Block2	2back/STIM_027.jpg
1012.522	1.181	correct	2back	Block2	2back/STIM_028.jpg
1016.682	0.605	correct	2back	Block2	2back/STIM_028.jpg
1020.239	0.918	correct	2back	Block2	2back/STIM_028.jpg
1024.56	1.215	correct	2back	Block2	2back/STIM_029.jpg
1029.484	0.831	correct	2back	Block2	2back/STIM_029.jpg
1032.731	0.997	correct	2back	Block2	2back/STIM_029.jpg
1036.036	1.217	correct	2back	Block2	2back/STIM_030.jpg
1040.652	0.833	correct	2back	Block2	2back/STIM_030.jpg
1045.056	0.958	incorrect	2back	Block2	2back/STIM_030.jpg
1048.89	1.011	correct	2back	Block2	2back/STIM_031.jpg
1052.727	1.03	correct	2back	Block2	2back/STIM_031.jpg
1056.253	1.022	correct	2back	Block2	2back/STIM_031.jpg
1060.605	0.989	correct	2back	Block2	2back/STIM_032.jpg
1064.591	1.066	correct	2back	Block2	2back/STIM_032.jpg
1069.145	0.841	correct	2back	Block2	2back/STIM_032.jpg
1072.519	0.82	correct	2back	Block2	2back/STIM_033.jpg
1077.015	0.554	correct	2back	Block2	2back/STIM_033.jpg
1079.884	0.514	correct	2back	Block2	2back/STIM_033.jpg
1083.797	1.222	correct	2back	Block2	2back/STIM_034.jpg
1088.707	0.6	incorrect	2back	Block2	2back/STIM_034.jpg
1091.602	0.813	correct	2back	Block2	2back/STIM_034.jpg
1095.074	1.071	correct	2back	Block2	2back/STIM_035.jpg
1098.374	0.918	correct	2back	Block2	2back/STIM_035.jpg
1101.431	1.122	correct	2back	Block2	2back/STIM_035.jpg
1105.264	0.937	correct	2back	Block2	2back/STIM_036.jpg
1109.149	0.81	correct	2back	Block2	2back/STIM_036.jpg
1113.45	0.735	correct	2back	Block2	2back/STIM_036.jpg
1117.258	1.183	correct	2back	Block2	2back/STIM_037.jpg
1121.348	1.086	incorrect	2back	Block2	2back/STIM_037.jpg
1125.983	0.734	correct	2back	Block2	2back/STIM_037.jpg
1130.407	1.272	correct	2back	Block2	2back/STIM_038.jpg
1134.463	0.53	correct	2back	Block2	2back/STIM_038.jpg
1138.613	1.115	correct	2back	Block2	2back/STIM_038.jpg
1142.068	0.665	correct	2back	Block2	2back/STIM_039.jpg
1145.789	1.142	correct	2back	Block2	2back/STIM_039.jpg
1150.809	1.112	correct	2back	Block2	2back/STIM_039.jpg
1154.573	0.654	correct	0back	Block2	0back/STIM_000.jpg
1158.502	0.835	correct	0back	Block2	0back/STIM_000.jpg
1162.727	0.568	correct	0back	Block2	0back/STIM_000.jpg
1167.095	0.512	correct	0back	Block2	0back/STIM_001.jpg
1171.158	0.613	correct	0back	Block2	0back/STIM_001.jpg
1174.22	0.676	correct	0back	Block2	0back/STIM_001.jpg
1177.884	0.562	correct	0back	Block2	0back/STIM_002.jpg
1180.545	0.624	correct	0back	Block2	0back/STIM_002.jpg
1185.047	0.649	correct	0back	Block2	0back/STIM_002.jpg
1188.834	0.826	correct	0back	Block2	0back/STIM_003.jpg
1191.695	0.605	correct	0back	Block2	0back/STIM_003.jpg
1195.454	0.446	correct	0back	Block2	0back/STIM_003.jpg
1198.282	0.767	correct	0back	Block2	0back/STIM_004.jpg
1201.011	0.563	correct	0back	Block2	0back/STIM_004.jpg
1204.551	0.565	correct	0back	Block2	0back/STIM_004.jpg
1208.916	0.696	correct	0back	Block2	0back/STIM_005.jpg
1211.994	0.692	correct	0back	Block2	0back/STIM_005.jpg
1214.687	0.794	correct	0back	Block2	0back/STIM_005.jpg
1218.254	0.776	correct	0back	Block2	0back/STIM_006.jpg
1222.781	0.632	correct	0back	Block2	0back/STIM_006.jpg
1226.617	0.49	correct	0back	Block2	0back/STIM_006.jpg
1229.307	0.499	correct	0back	Block2	0back/STIM_007.jpg
1231.987	0.776	correct	0back	Block2	0back/STIM_007.jpg
1236.334	0.534	correct	0back	Block2	0back/STIM_007.jpg
1239.761	0.849	correct	0back	Block2	0back/STIM_008.jpg
1242.559	0.835	correct	0back	Block2	0back/STIM_008.jpg
1245.649	0.686	correct	0back	Block2	0back/STIM_008.jpg
1250.274	0.73	correct	0back	Block2	0back/STIM_009.jpg
1254.254	0.784	correct	0back	Block2	0back/STIM_009.jpg
1258.813	0.798	correct	0back	Block2	0back/STIM_009.jpg
1263.283	0.613	correct	0back	Block2	0back/STIM_010.jpg
1266.95	0.814	correct	0back	Block2	0back/STIM_010.jpg
1271.43	0.677	correct	0back	Block2	0back/STIM_010.jpg
1275.286	0.515	correct	0back	Block2	0back/STIM_011.jpg
1277.78	0.431	correct	0back	Block2	0back/STIM_011.jpg
1280.27	0.44	incorrect	0back	Block2	0back/STIM_011.jpg
1282.842	0.851	correct	0back	Block2	0back/STIM_012.jpg
1287.037	0.654	correct	0back	Block2	0back/STIM_012.jpg
1290.833	0.773	correct	0back	Block2	0back/STIM_012.jpg
1295.087	0.694	correct	0back	Block2	0back/STIM_013.jpg
1299.092	0.738	correct	0back	Block2	0back/STIM_013.jpg
1303.698	0.65	correct	0back	Block2	0back/STIM_013.jpg
1306.464	0.817	correct	0back	Block2	0back/STIM_014.jpg
1310.739	0.457	correct	0back	Block2	0back/STIM_014.jpg
1313.266	0.838	correct	0back	Block2	0back/STIM_014.jpg
1317.374	0.57	correct	0back	Block2	0back/STIM_015.jpg
1321.792	0.664	correct	0back	Block2	0back/STIM_015.jpg
1325.475	0.611	correct	0back	Block2	0back/STIM_015.jpg
1328.155	0.793	correct	0back	Block2	0back/STIM_016.jpg
1331.461	0.614	correct	0back	Block2	0back/STIM_016.jpg
1335.953	0.433	correct	0back	Block2	0back/STIM_016.jpg
1338.896	0.557	correct	0back	Block2	0back/STIM_017.jpg
1341.766	0.655	correct	0back	Block2	0back/STIM_017.jpg
1346.084	0.514	correct	0back	Block2	0back/STIM_017.jpg
1349.41	0.643	correct	0back	Block2	0back/STIM_018.jpg
1352.15	0.624	correct	0back	Block2	0back/STIM_018.jpg
1356.506	0.617	correct	0back	Block2	0back/STIM_018.jpg
1360.625	0.47	correct	0back	Block2	0back/STIM_019.jpg
1363.767	0.454	correct	0back	Block2	0back/STIM_019.jpg
1366.579	0.639	correct	0back	Block2	0back/STIM_019.jpg
1369.398	0.645	correct	2back	Block3	2back/STIM_000.jpg
1373.649	0.526	correct	2back	Block3	2back/STIM_000.jpg
1377.886	0.665	correct	2back	Block3	2back/STIM_000.jpg
1380.692	0.525	correct	2back	Block3	2back/STIM_001.jpg
1384.235	1.0	correct	2back	Block3	2back/STIM_001.jpg
1387.554	0.67	correct	2back	Block3	2back/STIM_001.jpg
1391.872	0.638	correct	2back	Block3	2back/STIM_002.jpg
1396.066	0.65	incorrect	2back	Block3	2back/STIM_002.jpg
1398.876	0.573	correct	2back	Block3	2back/STIM_002.jpg
1403.197	0.555	correct	2back	Block3	2back/STIM_003.jpg
1406.004	0.961	correct	2back	Block3	2back/STIM_003.jpg
1409.838	0.983	correct	2back	Block3	2back/STIM_003.jpg
1413.094	0.729	incorrect	2back	Block3	2back/STIM_004.jpg
1416.055	0.945	correct	2back	Block3	2back/STIM_004.jpg
1420.435	0.828	correct	2back	Block3	2back/STIM_004.jpg
1423.266	0.702	correct	2back	Block3	2back/STIM_005.jpg
1427.392	0.861	incorrect	2back	Block3	2back/STIM_005.jpg
1430.814	0.681	correct	2back	Block3	2back/STIM_005.jpg
1434.185	0.746	correct	2back	Block3	2back/STIM_006.jpg
1438.494	0.786	correct	2back	Block3	2back/STIM_006.jpg
1441.874	0.813	correct	2back	Block3	2back/STIM_006.jpg
1445.409	0.648	correct	2back	Block3	2back/STIM_007.jpg
1448.944	0.509	correct	2back	Block3	2back/STIM_007.jpg
1453.396	0.564	correct	2back	Block3	2back/STIM_007.jpg
1456.925	0.624	incorrect	2back	Block3	2back/STIM_008.jpg
1460.576	0.909	correct	2back	Block3	2back/STIM_008.jpg
1465.375	0.998	correct	2back	Block3	2back/STIM_008.jpg
1468.402	0.532	correct	2back	Block3	2back/STIM_009.jpg
1472.768	0.708	correct	2back	Block3	2back/STIM_009.jpg
1476.899	0.809	correct	2back	Block3	2back/STIM_009.jpg
1481.522	0.534	correct	2back	Block3	2back/STIM_010.jpg
1484.923	0.762	correct	2back	Block3	2back/STIM_010.jpg
1488.262	0.67	correct	2back	Block3	2back/STIM_010.jpg
1491.694	0.803	incorrect	2back	Block3	2back/STIM_011.jpg
1495.198	0.876	correct	2back	Block3	2back/STIM_011.jpg
1499.376	0.592	correct	2back	Block3	2back/STIM_011.jpg
1502.845	0.621	correct	2back	Block3	2back/STIM_012.jpg
1505.536	0.566	correct	2back	Block3	2back/STIM_012.jpg
1508.312	0.672	incorrect	2back	Block3	2back/STIM_012.jpg
1511.705	0.468	correct	2back	Block3	2back/STIM_013.jpg
1515.156	0.465	correct	2back	Block3	2back/STIM_013.jpg
1518.279	0.508	incorrect	2back	Block3	2back/STIM_013.jpg
1521.829	0.525	correct	2back	Block3	2back/STIM_014.jpg
1525.919	0.46	correct	2back	Block3	2back/STIM_014.jpg
1529.096	0.827	correct	2back	Block3	2back/STIM_014.jpg
1533.843	0.46	correct	2back	Block3	2back/STIM_015.jpg
1536.779	0.656	correct	2back	Block3	2back/STIM_015.jpg
1540.081	0.685	correct	2back	Block3	2back/STIM_015.jpg
1543.54	0.576	correct	2back	Block3	2back/STIM_016.jpg
1546.862	1.019	correct	2back	Block3	2back/STIM_016.jpg
1550.104	0.491	correct	2back	Block3	2back/STIM_016.jpg
1552.83	0.951	correct	2back	Block3	2back/STIM_017.jpg
1557.163	0.835	correct	2back	Block3	2back/STIM_017.jpg
1560.413	0.795	correct	2back	Block3	2back/STIM_017.jpg
1563.936	0.987	correct	2back	Block3	2back/STIM_018.jpg
1568.65	0.56	correct	2back	Block3	2back/STIM_018.jpg
1572.266	0.863	correct	2back	Block3	2back/STIM_018.jpg
1575.682	0.603	correct	2back	Block3	2back/STIM_019.jpg
1578.895	0.964	incorrect	2back	Block3	2back/STIM_019.jpg
1583.485	0.995	correct	2back	Block3	2back/STIM_019.jpg
1586.972	0.938	correct	2back	Block3	2back/STIM_020.jpg
1591.437	0.827	correct	2back	Block3	2back/STIM_020.jpg
1594.256	0.513	correct	2back	Block3	2back/STIM_020.jpg
1597.752	0.534	correct	2back	Block3	2back/STIM_021.jpg
1601.001	0.688	correct	2back	Block3	2back/STIM_021.jpg
1604.356	0.796	correct	2back	Block3	2back/STIM_021.jpg
1607.815	0.658	correct	2back	Block3	2back/STIM_022.jpg
1610.636	1.0	correct	2back	Block3	2back/STIM_022.jpg
1614.83	0.55	correct	2back	Block3	2back/STIM_022.jpg
1618.046	0.496	correct	2back	Block3	2back/STIM_023.jpg
1621.107	0.916	correct	2back	Block3	2back/STIM_023.jpg
1625.597	1.008	correct	2back	Block3	2back/STIM_023.jpg
1629.42	1.001	correct	2back	Block3	2back/STIM_024.jpg
1633.251	0.636	correct	2back	Block3	2back/STIM_024.jpg
1636.861	0.459	correct	2back	Block3	2back/STIM_024.jpg
1639.517	0.63	correct	2back	Block3	2back/STIM_025.jpg
1643.825	0.963	correct	2back	Block3	2back/STIM_025.jpg
1647.126	0.751	correct	2back	Block3	2back/STIM_025.jpg
1651.272	0.718	correct	2back	Block3	2back/STIM_026.jpg
1655.118	1.033	correct	2back	Block3	2back/STIM_026.jpg
1659.532	0.506	correct	2back	Block3	2back/STIM_026.jpg
1662.007	1.01	correct	2back	Block3	2back/STIM_027.jpg
1666.162	0.811	correct	2back	Block3	2back/STIM_027.jpg
1669.078	0.635	correct	2back	Block3	2back/STIM_027.jpg
1671.734	0.721	correct	2back	Block3	2back/STIM_028.jpg
1676.404	0.905	correct	2back	Block3	2back/STIM_028.jpg
1679.297	0.826	correct	2back	Block3	2back/STIM_028.jpg
1682.578	0.9	correct	2back	Block3	2back/STIM_029.jpg
1687.122	0.971	correct	2back	Block3	2back/STIM_029.jpg
1691.992	0.754	correct	2back	Block3	2back/STIM_029.jpg
1696.58	0.528	correct	2back	Block3	2back/STIM_030.jpg
1699.672	0.449	correct	2back	Block3	2back/STIM_030.jpg
1702.303	0.684	correct	2back	Block3	2back/STIM_030.jpg
1706.765	0.91	correct	2back	Block3	2back/STIM_031.jpg
1710.656	0.951	correct	2back	Block3	2back/STIM_031.jpg
1713.611	0.679	incorrect	2back	Block3	2back/STIM_031.jpg
1716.714	0.476	correct	2back	Block3	2back/STIM_032.jpg
1720.203	0.666	correct	2back	Block3	2back/STIM_032.jpg
1723.854	0.478	correct	2back	Block3	2back/STIM_032.jpg
1726.331	1.022	correct	2back	Block3	2back/STIM_033.jpg
1729.372	0.902	correct	2back	Block3	2back/STIM_033.jpg
1732.441	0.552	incorrect	2back	Block3	2back/STIM_033.jpg
1736.047	0.589	correct	2back	Block3	2back/STIM_034.jpg
1739.813	0.648	correct	2back	Block3	2back/STIM_034.jpg
1743.728	0.551	incorrect	2back	Block3	2back/STIM_034.jpg
1747.902	0.706	correct	2back	Block3	2back/STIM_035.jpg
1752.095	0.969	correct	2back	Block3	2back/STIM_035.jpg
1755.294	0.809	correct	2back	Block3	2back/STIM_035.jpg
1759.077	0.615	correct	2back	Block3	2back/STIM_036.jpg
1763.152	0.89	correct	2back	Block3	2back/STIM_036.jpg
1766.741	0.861	correct	2back	Block3	2back/STIM_036.jpg
1770.719	0.502	correct	2back	Block3	2back/STIM_037.jpg
1773.434	0.54	correct	2back	Block3	2back/STIM_037.jpg
1776.601	0.625	correct	2back	Block3	2back/STIM_037.jpg
1781.065	0.868	correct	2back	Block3	2back/STIM_038.jpg
1783.887	1.015	correct	2back	Block3	2back/STIM_038.jpg
1788.239	0.636	incorrect	2back	Block3	2back/STIM_038.jpg
1791.124	0.853	correct	2back	Block3	2back/STIM_039.jpg
1795.677	0.622	correct	2back	Block3	2back/STIM_039.jpg
1799.416	0.668	correct	2back	Block3	2back/STIM_039.jpg
1803.698	0.598	correct	0back	Block3	0back/STIM_000.jpg
1806.486	0.708	correct	0back	Block3	0back/STIM_000.jpg
1810.236	0.463	correct	0back	Block3	0back/STIM_000.jpg
1812.865	0.558	incorrect	0back	Block3	0back/STIM_001.jpg
1815.482	0.501	correct	0back	Block3	0back/STIM_001.jpg
1818.856	0.642	correct	0back	Block3	0back/STIM_001.jpg
1821.556	0.702	correct	0back	Block3	0back/STIM_002.jpg
1824.595	0.57	correct	0back	Block3	0back/STIM_002.jpg
1827.987	0.675	correct	0back	Block3	0back/STIM_002.jpg
1831.837	0.518	correct	0back	Block3	0back/STIM_003.jpg
1834.698	0.523	correct	0back	Block3	0back/STIM_003.jpg
1837.983	0.853	correct	0back	Block3	0back/STIM_003.jpg
1842.302	0.845	correct	0back	Block3	0back/STIM_004.jpg
1846.494	0.736	correct	0back	Block3	0back/STIM_004.jpg
1851.163	0.548	correct	0back	Block3	0back/STIM_004.jpg
1853.736	0.573	correct	0back	Block3	0back/STIM_005.jpg
1857.196	0.552	correct	0back	Block3	0back/STIM_005.jpg
1859.963	0.688	correct	0back	Block3	0back/STIM_005.jpg
1863.018	0.801	correct	0back	Block3	0back/STIM_006.jpg
1866.407	0.428	correct	0back	Block3	0back/STIM_006.jpg
1869.28	0.485	correct	0back	Block3	0back/STIM_006.jpg
1871.933	0.484	correct	0back	Block3	0back/STIM_007.jpg
1876.117	0.848	correct	0back	Block3	0back/STIM_007.jpg
1880.176	0.608	correct	0back	Block3	0back/STIM_007.jpg
1882.907	0.816	correct	0back	Block3	0back/STIM_008.jpg
1887.409	0.802	correct	0back	Block3	0back/STIM_008.jpg
1890.539	0.571	correct	0back	Block3	0back/STIM_008.jpg
1893.466	0.702	correct	0back	Block3	0back/STIM_009.jpg
1896.558	0.758	correct	0back	Block3	0back/STIM_009.jpg
1899.72	0.69	correct	0back	Block3	0back/STIM_009.jpg
1902.813	0.686	correct	0back	Block3	0back/STIM_010.jpg
1905.943	0.517	correct	0back	Block3	0back/STIM_010.jpg
1909.912	0.612	correct	0back	Block3	0back/STIM_010.jpg
1912.528	0.459	correct	0back	Block3	0back/STIM_011.jpg
1916.353	0.741	correct	0back	Block3	0back/STIM_011.jpg
1919.793	0.752	correct	0back	Block3	0back/STIM_011.jpg
1923.327	0.465	correct	0back	Block3	0back/STIM_012.jpg
1927.069	0.64	correct	0back	Block3	0back/STIM_012.jpg
1931.06	0.435	correct	0back	Block3	0back/STIM_012.jpg
1934.464	0.832	correct	0back	Block3	0back/STIM_013.jpg
1938.663	0.85	correct	0back	Block3	0back/STIM_013.jpg
1942.541	0.493	correct	0back	Block3	0back/STIM_013.jpg
1946.54	0.754	correct	0back	Block3	0back/STIM_014.jpg
1950.553	0.812	correct	0back	Block3	0back/STIM_014.jpg
1955.028	0.558	correct	0back	Block3	0back/STIM_014.jpg
1957.603	0.804	correct	0back	Block3	0back/STIM_015.jpg
1961.341	0.586	correct	0back	Block3	0back/STIM_015.jpg
1965.106	0.74	correct	0back	Block3	0back/STIM_015.jpg
1969.122	0.546	correct	0back	Block3	0back/STIM_016.jpg
1972.715	0.457	correct	0back	Block3	0back/STIM_016.jpg
1976.384	0.843	correct	0back	Block3	0back/STIM_016.jpg
1981.086	0.598	correct	0back	Block3	0back/STIM_017.jpg
1984.951	0.683	correct	0back	Block3	0back/STIM_017.jpg
1987.778	0.604	correct	0back	Block3	0back/STIM_017.jpg
1991.128	0.501	correct	0back	Block3	0back/STIM_018.jpg
1994.75	0.742	correct	0back	Block3	0back/STIM_018.jpg
1997.451	0.541	correct	0back	Block3	0back/STIM_018.jpg
2000.537	0.854	correct	0back	Block3	0back/STIM_019.jpg
2005.164	0.489	correct	0back	Block3	0back/STIM_019.jpg
2008.036	0.628	correct	0back	Block3	0back/STIM_019.jpg
2010.687	0.578	correct	2back	Block4	2back/STIM_000.jpg
2014.575	0.903	correct	2back	Block4	2back/STIM_000.jpg
2018.849	0.585	correct	2back	Block4	2back/STIM_000.jpg
2022.777	0.852	correct	2back	Block4	2back/STIM_001.jpg
2025.927	0.769	correct	2back	Block4	2back/STIM_001.jpg
2030.638	0.964	correct	2back	Block4	2back/STIM_001.jpg
2035.145	0.656	correct	2back	Block4	2back/STIM_002.jpg
2038.909	0.648	correct	2back	Block4	2back/STIM_002.jpg
2043.392	0.93	correct	2back	Block4	2back/STIM_002.jpg
2047.926	0.625	correct	2back	Block4	2back/STIM_003.jpg
2051.9	0.828	correct	2back	Block4	2back/STIM_003.jpg
2055.413	0.731	correct	2back	Block4	2back/STIM_003.jpg
2058.818	1.031	correct	2back	Block4	2back/STIM_004.jpg
2062.957	0.987	correct	2back	Block4	2back/STIM_004.jpg
2066.747	0.456	correct	2back	Block4	2back/STIM_004.jpg
2071.151	0.74	correct	2back	Block4	2back/STIM_005.jpg
2074.448	0.813	correct	2back	Block4	2back/STIM_005.jpg
2078.658	0.493	correct	2back	Block4	2back/STIM_005.jpg
2081.982	0.45	correct	2back	Block4	2back/STIM_006.jpg
2085.037	0.763	correct	2back	Block4	2back/STIM_006.jpg
2088.031	0.64	correct	2back	Block4	2back/STIM_006.jpg
2092.345	0.682	correct	2back	Block4	2back/STIM_007.jpg
2095.414	0.555	correct	2back	Block4	2back/STIM_007.jpg
2099.105	0.467	correct	2back	Block4	2back/STIM_007.jpg
2103.455	0.779	correct	2back	Block4	2back/STIM_008.jpg
2107.911	0.9	correct	2back	Block4	2back/STIM_008.jpg
2111.243	0.543	correct	2back	Block4	2back/STIM_008.jpg
2113.848	0.928	correct	2back	Block4	2back/STIM_009.jpg
2118.298	0.754	correct	2back	Block4	2back/STIM_009.jpg
2121.536	0.669	correct	2back	Block4	2back/STIM_009.jpg
2125.482	0.546	correct	2back	Block4	2back/STIM_010.jpg
2128.662	0.893	correct	2back	Block4	2back/STIM_010.jpg
2132.338	1.041	incorrect	2back	Block4	2back/STIM_010.jpg
2135.564	0.518	correct	2back	Block4	2back/STIM_011.jpg
2138.681	0.636	correct	2back	Block4	2back/STIM_011.jpg
2142.362	0.833	correct	2back	Block4	2back/STIM_011.jpg
2146.485	0.741	correct	2back	Block4	2back/STIM_012.jpg
2150.689	0.657	correct	2back	Block4	2back/STIM_012.jpg
2154.251	0.76	correct	2back	Block4	2back/STIM_012.jpg
2158.293	0.821	correct	2back	Block4	2back/STIM_013.jpg
2163.024	1.028	correct	2back	Block4	2back/STIM_013.jpg
2167.683	0.992	correct	2back	Block4	2back/STIM_013.jpg
2170.784	0.557	incorrect	2back	Block4	2back/STIM_014.jpg
2174.174	1.044	correct	2back	Block4	2back/STIM_014.jpg
2178.643	0.991	correct	2back	Block4	2back/STIM_014.jpg
2182.615	0.607	correct	2back	Block4	2back/STIM_015.jpg
2185.764	0.644	correct	2back	Block4	2back/STIM_015.jpg
2189.972	0.617	correct	2back	Block4	2back/STIM_015.jpg
2193.662	0.697	correct	2back	Block4	2back/STIM_016.jpg
2197.569	0.99	correct	2back	Block4	2back/STIM_016.jpg
2201.714	1.034	correct	2back	Block4	2back/STIM_016.jpg
2205.448	0.766	correct	2back	Block4	2back/STIM_017.jpg
2209.794	0.992	correct	2back	Block4	2back/STIM_017.jpg
2214.153	0.457	correct	2back	Block4	2back/STIM_017.jpg
2217.013	0.59	correct	2back	Block4	2back/STIM_018.jpg
2219.627	0.706	correct	2back	Block4	2back/STIM_018.jpg
2222.985	0.837	correct	2back	Block4	2back/STIM_018.jpg
2227.022	0.714	correct	2back	Block4	2back/STIM_019.jpg
2230.583	1.007	correct	2back	Block4	2back/STIM_019.jpg
2235.38	0.701	correct	2back	Block4	2back/STIM_019.jpg
2239.349	0.694	correct	2back	Block4	2back/STIM_020.jpg
2242.302	0.644	correct	2back	Block4	2back/STIM_020.jpg
2246.842	1.018	correct	2back	Block4	2back/STIM_020.jpg
2251.784	0.983	correct	2back	Block4	2back/STIM_021.jpg
2255.295	0.603	correct	2back	Block4	2back/STIM_021.jpg
2259.738	0.759	correct	2back	Block4	2back/STIM_021.jpg
2263.897	0.705	correct	2back	Block4	2back/STIM_022.jpg
2267.308	0.718	correct	2back	Block4	2back/STIM_022.jpg
2271.208	0.924	correct	2back	Block4	2back/STIM_022.jpg
2275.811	0.934	correct	2back	Block4	2back/STIM_023.jpg
2280.179	0.638	correct	2back	Block4	2back/STIM_023.jpg
2284.28	0.624	correct	2back	Block4	2back/STIM_023.jpg
2288.329	0.531	correct	2back	Block4	2back/STIM_024.jpg
2292.655	0.719	correct	2back	Block4	2back/STIM_024.jpg
2296.21	0.845	correct	2back	Block4	2back/STIM_024.jpg
2300.141	0.594	correct	2back	Block4	2back/STIM_025.jpg
2304.57	0.722	correct	2back	Block4	2back/STIM_025.jpg
2309.167	0.543	correct	2back	Block4	2back/STIM_025.jpg
2313.0	1.033	correct	2back	Block4	2back/STIM_026.jpg
2317.191	0.634	correct	2back	Block4	2back/STIM_026.jpg
2321.161	1.003	correct	2back	Block4	2back/STIM_026.jpg
2324.88	1.0	correct	2back	Block4	2back/STIM_027.jpg
2329.195	1.011	correct	2back	Block4	2back/STIM_027.jpg
2333.903	0.478	correct	2back	Block4	2back/STIM_027.jpg
2336.657	0.857	correct	2back	Block4	2back/STIM_028.jpg
2339.65	0.562	correct	2back	Block4	2back/STIM_028.jpg
2343.274	0.754	correct	2back	Block4	2back/STIM_028.jpg
2347.223	1.008	correct	2back	Block4	2back/STIM_029.jpg
2350.684	0.915	correct	2back	Block4	2back/STIM_029.jpg
2355.518	0.954	correct	2back	Block4	2back/STIM_029.jpg
2360.335	0.698	correct	2back	Block4	2back/STIM_030.jpg
2363.833	0.684	correct	2back	Block4	2back/STIM_030.jpg
2367.628	0.88	correct	2back	Block4	2back/STIM_030.jpg
2371.505	0.55	correct	2back	Block4	2back/STIM_031.jpg
2374.14	0.958	correct	2back	Block4	2back/STIM_031.jpg
2378.554	0.593	incorrect	2back	Block4	2back/STIM_031.jpg
2381.861	0.812	correct	2back	Block4	2back/STIM_032.jpg
2386.299	0.818	correct	2back	Block4	2back/STIM_032.jpg
2390.158	0.456	correct	2back	Block4	2back/STIM_032.jpg
2392.808	0.636	correct	2back	Block4	2back/STIM_033.jpg
2396.437	0.769	correct	2back	Block4	2back/STIM_033.jpg
2401.075	0.502	correct	2back	Block4	2back/STIM_033.jpg
2403.719	0.739	correct	2back	Block4	2back/STIM_034.jpg
2406.824	0.461	correct	2back	Block4	2back/STIM_034.jpg
2411.252	0.546	correct	2back	Block4	2back/STIM_034.jpg
2414.007	0.914	correct	2back	Block4	2back/STIM_035.jpg
2417.702	0.853	correct	2back	Block4	2back/STIM_035.jpg
2422.091	0.904	correct	2back	Block4	2back/STIM_035.jpg
2425.227	0.746	correct	2back	Block4	2back/STIM_036.jpg
2429.191	1.022	correct	2back	Block4	2back/STIM_036.jpg
2432.404	0.901	correct	2back	Block4	2back/STIM_036.jpg
2435.963	0.948	correct	2back	Block4	2back/STIM_037.jpg
2440.396	0.619	correct	2back	Block4	2back/STIM_037.jpg
2444.634	0.603	correct	2back	Block4	2back/STIM_037.jpg
2447.251	0.919	correct	2back	Block4	2back/STIM_038.jpg
2451.064	1.037	correct	2back	Block4	2back/STIM_038.jpg
2455.991	0.525	correct	2back	Block4	2back/STIM_038.jpg
2458.699	0.469	correct	2back	Block4	2back/STIM_039.jpg
2461.718	0.593	correct	2back	Block4	2back/STIM_039.jpg
2465.971	0.779	correct	2back	Block4	2back/STIM_039.jpg
2470.228	0.659	correct	0back	Block4	0back/STIM_000.jpg
2472.849	0.506	correct	0back	Block4	0back/STIM_000.jpg
2476.141	0.753	correct	0back	Block4	0back/STIM_000.jpg
2479.2	0.834	correct	0back	Block4	0back/STIM_001.jpg
2483.465	0.814	correct	0back	Block4	0back/STIM_001.jpg
2486.234	0.722	correct	0back	Block4	0back/STIM_001.jpg
2488.93	0.839	correct	0back	Block4	0back/STIM_002.jpg
2492.766	0.844	correct	0back	Block4	0back/STIM_002.jpg
2496.696	0.485	correct	0back	Block4	0back/STIM_002.jpg
2500.429	0.676	correct	0back	Block4	0back/STIM_003.jpg
2504.128	0.702	correct	0back	Block4	0back/STIM_003.jpg
2506.985	0.566	correct	0back	Block4	0back/STIM_003.jpg
2511.511	0.806	correct	0back	Block4	0back/STIM_004.jpg
2515.417	0.432	correct	0back	Block4	0back/STIM_004.jpg
2519.133	0.604	correct	0back	Block4	0back/STIM_004.jpg
2523.601	0.736	correct	0back	Block4	0back/STIM_005.jpg
2527.561	0.747	correct	0back	Block4	0back/STIM_005.jpg
2530.956	0.562	correct	0back	Block4	0back/STIM_005.jpg
2533.943	0.435	correct	0back	Block4	0back/STIM_006.jpg
2536.691	0.748	correct	0back	Block4	0back/STIM_006.jpg
2540.288	0.487	correct	0back	Block4	0back/STIM_006.jpg
2544.5	0.533	correct	0back	Block4	0back/STIM_007.jpg
2547.449	0.761	correct	0back	Block4	0back/STIM_007.jpg
2551.525	0.637	correct	0back	Block4	0back/STIM_007.jpg
2555.946	0.612	correct	0back	Block4	0back/STIM_008.jpg
2558.635	0.428	incorrect	0back	Block4	0back/STIM_008.jpg
2562.143	0.436	correct	0back	Block4	0back/STIM_008.jpg
2565.149	0.807	correct	0back	Block4	0back/STIM_009.jpg
2568.465	0.667	correct	0back	Block4	0back/STIM_009.jpg
2572.931	0.761	incorrect	0back	Block4	0back/STIM_009.jpg
2576.517	0.734	correct	0back	Block4	0back/STIM_010.jpg
2579.747	0.501	correct	0back	Block4	0back/STIM_010.jpg
2583.089	0.797	correct	0back	Block4	0back/STIM_010.jpg
2585.857	0.625	correct	0back	Block4	0back/STIM_011.jpg
2590.311	0.612	correct	0back	Block4	0back/STIM_011.jpg
2594.252	0.555	incorrect	0back	Block4	0back/STIM_011.jpg
2596.795	0.811	correct	0back	Block4	0back/STIM_012.jpg
2600.97	0.666	correct	0back	Block4	0back/STIM_012.jpg
2605.581	0.592	correct	0back	Block4	0back/STIM_012.jpg
2609.071	0.829	correct	0back	Block4	0back/STIM_013.jpg
2613.7	0.68	correct	0back	Block4	0back/STIM_013.jpg
2618.078	0.581	correct	0back	Block4	0back/STIM_013.jpg
2621.867	0.489	correct	0back	Block4	0back/STIM_014.jpg
2624.962	0.686	correct	0back	Block4	0back/STIM_014.jpg
2627.752	0.765	correct	0back	Block4	0back/STIM_014.jpg
2631.705	0.718	correct	0back	Block4	0back/STIM_015.jpg
2635.951	0.85	correct	0back	Block4	0back/STIM_015.jpg
2640.317	0.551	correct	0back	Block4	0back/STIM_015.jpg
2643.813	0.753	correct	0back	Block4	0back/STIM_016.jpg
2647.142	0.728	correct	0back	Block4	0back/STIM_016.jpg
2651.07	0.471	correct	0back	Block4	0back/STIM_016.jpg
2654.447	0.688	correct	0back	Block4	0back/STIM_017.jpg
2658.231	0.529	correct	0back	Block4	0back/STIM_017.jpg
2660.733	0.595	correct	0back	Block4	0back/STIM_017.jpg
2664.228	0.781	correct	0back	Block4	0back/STIM_018.jpg
2667.289	0.759	correct	0back	Block4	0back/STIM_018.jpg
2670.09	0.599	correct	0back	Block4	0back/STIM_018.jpg
2674.226	0.641	correct	0back	Block4	0back/STIM_019.jpg
2677.383	0.712	correct	0back	Block4	0back/STIM_019.jpg
2681.81	0.529	correct	0back	Block4	0back/STIM_019.jpg
