onset	duration	accuracy	trial_type	learning_stage	stimulus
0.0	1.408	correct	2back	Block1	2back/STIM_000.jpg
4.918	1.043	correct	2back	Block1	2back/STIM_000.jpg
9.292	1.221	correct	2back	Block1	2back/STIM_000.jpg
14.154	0.77	incorrect	2back	Block1	2back/STIM_001.jpg
17.884	1.377	correct	2back	Block1	2back/STIM_001.jpg
23.037	0.91	incorrect	2back	Block1	2back/STIM_001.jpg
27.503	0.834	correct	2back	Block1	2back/STIM_002.jpg
31.703	1.064	correct	2back	Block1	2back/STIM_002.jpg
35.14	0.621	correct	2back	Block1	2back/STIM_002.jpg
37.728	1.376	correct	2back	Block1	2back/STIM_003.jpg
41.6	0.869	correct	2back	Block1	2back/STIM_003.jpg
46.214	0.671	correct	2back	Block1	2back/STIM_003.jpg
49.689	0.745	correct	2back	Block1	2back/STIM_004.jpg
54.017	0.886	incorrect	2back	Block1	2back/STIM_004.jpg
58.27	1.086	correct	2back	Block1	2back/STIM_004.jpg
62.327	1.346	correct	2back	Block1	2back/STIM_005.jpg
65.882	1.005	correct	2back	Block1	2back/STIM_005.jpg
69.355	0.836	correct	2back	Block1	2back/STIM_005.jpg
72.713	1.3	correct	2back	Block1	2back/STIM_006.jpg
76.034	0.618	correct	2back	Block1	2back/STIM_006.jpg
79.879	0.72	correct	2back	Block1	2back/STIM_006.jpg
82.798	1.32	correct	2back	Block1	2back/STIM_007.jpg
87.966	0.786	correct	2back	Block1	2back/STIM_007.jpg
91.093	0.802	incorrect	2back	Block1	2back/STIM_007.jpg
94.906	0.886	correct	2back	Block1	2back/STIM_008.jpg
98.909	0.718	correct	2back	Block1	2back/STIM_008.jpg
103.193	0.619	correct	2back	Block1	2back/STIM_008.jpg
107.349	1.227	incorrect	2back	Block1	2back/STIM_009.jpg
111.08	1.064	correct	2back	Block1	2back/STIM_009.jpg
114.93	0.87	correct	2back	Block1	2back/STIM_009.jpg
118.57	1.134	incorrect	2back	Block1	2back/STIM_010.jpg
123.518	0.834	correct	2back	Block1	2back/STIM_010.jpg
127.634	1.218	correct	2back	Block1	2back/STIM_010.jpg
131.727	0.778	correct	2back	Block1	2back/STIM_011.jpg
135.264	1.408	correct	2back	Block1	2back/STIM_011.jpg
139.938	1.122	incorrect	2back	Block1	2back/STIM_011.jpg
144.178	1.096	correct	2back	Block1	2back/STIM_012.jpg
148.753	0.692	correct	2back	Block1	2back/STIM_012.jpg
151.97	0.815	correct	2back	Block1	2back/STIM_012.jpg
156.545	1.057	correct	2back	Block1	2back/STIM_013.jpg
161.308	0.892	correct	2back	Block1	2back/STIM_013.jpg
165.593	0.727	correct	2back	Block1	2back/STIM_013.jpg
170.167	1.093	correct	2back	Block1	2back/STIM_014.jpg
174.368	1.134	correct	2back	Block1	2back/STIM_014.jpg
178.074	0.817	correct	2back	Block1	2back/STIM_014.jpg
181.153	0.653	correct	2back	Block1	2back/STIM_015.jpg
185.187	1.136	correct	2back	Block1	2back/STIM_015.jpg
189.704	0.605	correct	2back	Block1	2back/STIM_015.jpg
192.786	0.977	correct	2back	Block1	2back/STIM_016.jpg
197.496	0.948	correct	2back	Block1	2back/STIM_016.jpg
200.842	0.694	correct	2back	Block1	2back/STIM_016.jpg
205.486	1.436	correct	2back	Block1	2back/STIM_017.jpg
209.778	1.235	correct	2back	Block1	2back/STIM_017.jpg
212.968	1.1	correct	2back	Block1	2back/STIM_017.jpg
216.531	1.095	incorrect	2back	Block1	2back/STIM_018.jpg
220.176	0.946	incorrect	2back	Block1	2back/STIM_018.jpg
223.901	0.666	correct	2back	Block1	2back/STIM_018.jpg
227.131	1.375	incorrect	2back	Block1	2back/STIM_019.jpg
232.036	1.02	correct	2back	Block1	2back/STIM_019.jpg
236.979	0.78	incorrect	2back	Block1	2back/STIM_019.jpg
241.087	0.783	correct	2back	Block1	2back/STIM_020.jpg
245.504	0.88	incorrect	2back	Block1	2back/STIM_020.jpg
249.541	1.007	correct	2back	Block1	2back/STIM_020.jpg
254.215	0.927	correct	2back	Block1	2back/STIM_021.jpg
257.708	1.035	correct	2back	Block1	2back/STIM_021.jpg
261.813	0.668	incorrect	2back	Block1	2back/STIM_021.jpg
266.416	0.804	correct	2back	Block1	2back/STIM_022.jpg
271.047	1.357	correct	2back	Block1	2back/STIM_022.jpg
274.854	0.582	incorrect	2back	Block1	2back/STIM_022.jpg
278.318	1.236	correct	2back	Block1	2back/STIM_023.jpg
283.281	1.311	correct	2back	Block1	2back/STIM_023.jpg
288.089	1.224	correct	2back	Block1	2back/STIM_023.jpg
292.43	1.333	correct	2back	Block1	2back/STIM_024.jpg
296.338	1.33	correct	2back	Block1	2back/STIM_024.jpg
300.78	1.127	incorrect	2back	Block1	2back/STIM_024.jpg
305.228	0.691	correct	2back	Block1	2back/STIM_025.jpg
308.103	1.168	correct	2back	Block1	2back/STIM_025.jpg
311.913	1.297	correct	2back	Block1	2back/STIM_025.jpg
315.908	0.825	incorrect	2back	Block1	2back/STIM_026.jpg
319.417	1.338	correct	2back	Block1	2back/STIM_026.jpg
323.591	1.142	correct	2back	Block1	2back/STIM_026.jpg
328.134	1.21	correct	2back	Block1	2back/STIM_027.jpg
331.284	0.888	correct	2back	Block1	2back/STIM_027.jpg
335.212	0.68	correct	2back	Block1	2back/STIM_027.jpg
339.338	1.403	incorrect	2back	Block1	2back/STIM_028.jpg
344.152	1.323	correct	2back	Block1	2back/STIM_028.jpg
348.5	0.86	correct	2back	Block1	2back/STIM_028.jpg
352.611	0.764	correct	2back	Block1	2back/STIM_029.jpg
356.436	0.991	correct	2back	Block1	2back/STIM_029.jpg
360.274	1.06	correct	2back	Block1	2back/STIM_029.jpg
364.166	1.265	correct	2back	Block1	2back/STIM_030.jpg
368.86	0.646	correct	2back	Block1	2back/STIM_030.jpg
372.402	1.072	correct	2back	Block1	2back/STIM_030.jpg
377.298	1.24	correct	2back	Block1	2back/STIM_031.jpg
382.399	0.829	correct	2back	Block1	2back/STIM_031.jpg
385.438	0.611	correct	2back	Block1	2back/STIM_031.jpg
389.223	0.997	correct	2back	Block1	2back/STIM_032.jpg
393.099	1.236	correct	2back	Block1	2back/STIM_032.jpg
397.866	1.09	correct	2back	Block1	2back/STIM_032.jpg
400.98	1.124	correct	2back	Block1	2back/STIM_033.jpg
404.219	0.9	correct	2back	Block1	2back/STIM_033.jpg
407.834	0.782	correct	2back	Block1	2back/STIM_033.jpg
410.841	0.917	correct	2back	Block1	2back/STIM_034.jpg
414.432	1.249	correct	2back	Block1	2back/STIM_034.jpg
418.033	1.04	correct	2back	Block1	2back/STIM_034.jpg
421.476	0.806	correct	2back	Block1	2back/STIM_035.jpg
425.736	0.924	incorrect	2back	Block1	2back/STIM_035.jpg
429.092	0.941	correct	2back	Block1	2back/STIM_035.jpg
432.376	1.294	incorrect	2back	Block1	2back/STIM_036.jpg
436.308	1.342	correct	2back	Block1	2back/STIM_036.jpg
441.392	0.896	correct	2back	Block1	2back/STIM_036.jpg
444.891	1.067	incorrect	2back	Block1	2back/STIM_037.jpg
448.909	1.006	correct	2back	Block1	2back/STIM_037.jpg
452.79	0.927	correct	2back	Block1	2back/STIM_037.jpg
457.221	1.271	incorrect	2back	Block1	2back/STIM_038.jpg
460.564	0.756	correct	2back	Block1	2back/STIM_038.jpg
463.845	1.275	correct	2back	Block1	2back/STIM_038.jpg
468.083	1.298	correct	2back	Block1	2back/STIM_039.jpg
472.99	1.173	incorrect	2back	Block1	2back/STIM_039.jpg
476.503	0.772	correct	2back	Block1	2back/STIM_039.jpg
479.512	0.706	correct	0back	Block1	0back/STIM_000.jpg
482.304	0.598	correct	0back	Block1	0back/STIM_000.jpg
486.704	0.525	correct	0back	Block1	0back/STIM_000.jpg
489.263	0.582	correct	0back	Block1	0back/STIM_001.jpg
493.117	0.715	incorrect	0back	Block1	0back/STIM_001.jpg
497.382	0.509	incorrect	0back	Block1	0back/STIM_001.jpg
500.225	0.821	correct	0back	Block1	0back/STIM_002.jpg
504.704	0.812	correct	0back	Block1	0back/STIM_002.jpg
508.658	0.519	correct	0back	Block1	0back/STIM_002.jpg
511.588	0.735	correct	0back	Block1	0back/STIM_003.jpg
515.373	0.715	correct	0back	Block1	0back/STIM_003.jpg
518.607	0.515	correct	0back	Block1	0back/STIM_003.jpg
521.799	0.603	correct	0back	Block1	0back/STIM_004.jpg
524.55	0.767	correct	0back	Block1	0back/STIM_004.jpg
528.004	0.576	correct	0back	Block1	0back/STIM_004.jpg
531.12	0.714	incorrect	0back	Block1	0back/STIM_005.jpg
533.86	0.505	correct	0back	Block1	0back/STIM_005.jpg
536.784	0.621	correct	0back	Block1	0back/STIM_005.jpg
540.826	0.605	correct	0back	Block1	0back/STIM_006.jpg
544.905	0.504	correct	0back	Block1	0back/STIM_006.jpg
548.473	0.578	correct	0back	Block1	0back/STIM_006.jpg
552.048	0.56	correct	0back	Block1	0back/STIM_007.jpg
554.771	0.658	correct	0back	Block1	0back/STIM_007.jpg
558.577	0.47	correct	0back	Block1	0back/STIM_007.jpg
561.745	0.775	correct	0back	Block1	0back/STIM_008.jpg
566.334	0.708	correct	0back	Block1	0back/STIM_008.jpg
569.734	0.637	incorrect	0back	Block1	0back/STIM_008.jpg
572.806	0.457	correct	0back	Block1	0back/STIM_009.jpg
575.337	0.443	correct	0back	Block1	0back/STIM_009.jpg
578.91	0.769	correct	0back	Block1	0back/STIM_009.jpg
582.624	0.578	correct	0back	Block1	0back/STIM_010.jpg
586.657	0.634	correct	0back	Block1	0back/STIM_010.jpg
590.371	0.465	correct	0back	Block1	0back/STIM_010.jpg
593.322	0.627	correct	0back	Block1	0back/STIM_011.jpg
596.477	0.668	correct	0back	Block1	0back/STIM_011.jpg
600.847	0.587	correct	0back	Block1	0back/STIM_011.jpg
604.375	0.596	correct	0back	Block1	0back/STIM_012.jpg
607.738	0.492	correct	0back	Block1	0back/STIM_012.jpg
611.167	0.629	correct	0back	Block1	0back/STIM_012.jpg
615.578	0.436	correct	0back	Block1	0back/STIM_013.jpg
619.618	0.429	correct	0back	Block1	0back/STIM_013.jpg
623.765	0.616	correct	0back	Block1	0back/STIM_013.jpg
627.637	0.715	correct	0back	Block1	0back/STIM_014.jpg
631.164	0.448	correct	0back	Block1	0back/STIM_014.jpg
634.187	0.427	correct	0back	Block1	0back/STIM_014.jpg
638.436	0.642	correct	0back	Block1	0back/STIM_015.jpg
642.55	0.574	correct	0back	Block1	0back/STIM_015.jpg
645.436	0.465	correct	0back	Block1	0back/STIM_015.jpg
649.636	0.658	correct	0back	Block1	0back/STIM_016.jpg
654.099	0.535	correct	0back	Block1	0back/STIM_016.jpg
657.144	0.806	correct	0back	Block1	0back/STIM_016.jpg
660.675	0.673	correct	0back	Block1	0back/STIM_017.jpg
665.013	0.827	correct	0back	Block1	0back/STIM_017.jpg
668.607	0.426	correct	0back	Block1	0back/STIM_017.jpg
672.8	0.474	incorrect	0back	Block1	0back/STIM_018.jpg
676.487	0.57	correct	0back	Block1	0back/STIM_018.jpg
679.503	0.618	correct	0back	Block1	0back/STIM_018.jpg
682.772	0.841	correct	0back	Block1	0back/STIM_019.jpg
686.593	0.817	correct	0back	Block1	0back/STIM_019.jpg
689.777	0.505	correct	0back	Block1	0back/STIM_019.jpg
693.816	0.752	correct	2back	Block2	2back/STIM_000.jpg
697.975	0.793	correct	2back	Block2	2back/STIM_000.jpg
700.785	0.834	correct	2back	Block2	2back/STIM_000.jpg
703.698	1.165	correct	2back	Block2	2back/STIM_001.jpg
707.48	0.684	correct	2back	Block2	2back/STIM_001.jpg
710.682	0.986	correct	2back	Block2	2back/STIM_001.jpg
713.772	0.634	correct	2back	Block2	2back/STIM_002.jpg
716.498	0.872	correct	2back	Block2	2back/STIM_002.jpg
720.511	0.719	correct	2back	Block2	2back/STIM_002.jpg
725.162	1.239	correct	2back	Block2	2back/STIM_003.jpg
729.893	1.12	correct	2back	Block2	2back/STIM_003.jpg
733.087	0.552	correct	2back	Block2	2back/STIM_003.jpg
737.343	1.221	correct	2back	Block2	2back/STIM_004.jpg
741.814	0.944	correct	2back	Block2	2back/STIM_004.jpg
745.879	0.9	correct	2back	Block2	2back/STIM_004.jpg
750.604	0.831	correct	2back	Block2	2back/STIM_005.jpg
754.658	0.944	correct	2back	Block2	2back/STIM_005.jpg
758.274	0.661	correct	2back	Block2	2back/STIM_005.jpg
761.628	0.883	correct	2back	Block2	2back/STIM_006.jpg
766.047	0.572	correct	2back	Block2	2back/STIM_006.jpg
769.645	0.644	incorrect	2back	Block2	2back/STIM_006.jpg
774.2	0.715	correct	2back	Block2	2back/STIM_007.jpg
777.719	0.936	correct	2back	Block2	2back/STIM_007.jpg
781.201	0.726	correct	2back	Block2	2back/STIM_007.jpg
784.847	0.997	correct	2back	Block2	2back/STIM_008.jpg
788.383	0.652	correct	2back	Block2	2back/STIM_008.jpg
791.154	0.524	correct	2back	Block2	2back/STIM_008.jpg
794.75	1.142	correct	2back	Block2	2back/STIM_009.jpg
798.933	0.546	correct	2back	Block2	2back/STIM_009.jpg
803.28	0.993	correct	2back	Block2	2back/STIM_009.jpg
808.176	1.216	correct	2back	Block2	2back/STIM_010.jpg
813.216	0.744	correct	2back	Block2	2back/STIM_010.jpg
817.652	0.49	correct	2back	Block2	2back/STIM_010.jpg
821.113	0.592	correct	2back	Block2	2back/STIM_011.jpg
825.443	0.693	correct	2back	Block2	2back/STIM_011.jpg
829.084	0.876	correct	2back	Block2	2back/STIM_011.jpg
833.872	0.977	correct	2back	Block2	2back/STIM_012.jpg
838.015	0.999	correct	2back	Block2	2back/STIM_012.jpg
842.548	0.967	correct	2back	Block2	2back/STIM_012.jpg
846.774	0.718	incorrect	2back	Block2	2back/STIM_013.jpg
849.864	0.778	correct	2back	Block2	2back/STIM_013.jpg
852.688	1.104	correct	2back	Block2	2back/STIM_013.jpg
856.505	0.606	correct	2back	Block2	2back/STIM_014.jpg
860.935	0.887	correct	2back	Block2	2back/STIM_014.jpg
864.9	0.987	correct	2back	Block2	2back/STIM_014.jpg
868.74	0.557	correct	2back	Block2	2back/STIM_015.jpg
873.002	1.033	incorrect	2back	Block2	2back/STIM_015.jpg
876.861	0.612	correct	2back	Block2	2back/STIM_015.jpg
880.953	0.765	correct	2back	Block2	2back/STIM_016.jpg
884.686	0.52	correct	2back	Block2	2back/STIM_016.jpg
888.395	1.013	correct	2back	Block2	2back/STIM_016.jpg
892.11	1.06	correct	2back	Block2	2back/STIM_017.jpg
895.196	0.816	correct	2back	Block2	2back/STIM_017.jpg
898.269	0.848	correct	2back	Block2	2back/STIM_017.jpg
902.902	0.895	correct	2back	Block2	2back/STIM_018.jpg
907.684	0.834	correct	2back	Block2	2back/STIM_018.jpg
911.593	0.725	correct	2back	Block2	2back/STIM_018.jpg
914.427	0.967	correct	2back	Block2	2back/STIM_019.jpg
918.323	0.594	correct	2back	Block2	2back/STIM_019.jpg
921.414	0.69	correct	2back	Block2	2back/STIM_019.jpg
925.495	0.713	correct	2back	Block2	2back/STIM_020.jpg
929.261	0.587	correct	2back	Block2	2back/STIM_020.jpg
932.183	0.931	correct	2back	Block2	2back/STIM_020.jpg
935.678	0.672	correct	2back	Block2	2back/STIM_021.jpg
940.243	0.686	correct	2back	Block2	2back/STIM_021.jpg
944.773	0.83	incorrect	2back	Block2	2back/STIM_021.jpg
948.53	0.684	correct	2back	Block2	2back/STIM_022.jpg
952.67	1.017	correct	2back	Block2	2back/STIM_022.jpg
956.588	1.095	correct	2back	Block2	2back/STIM_022.jpg
961.092	0.619	correct	2back	Block2	2back/STIM_023.jpg
964.506	0.745	correct	2back	Block2	2back/STIM_023.jpg
968.695	0.871	correct	2back	Block2	2back/STIM_023.jpg
973.306	1.075	correct	2back	Block2	2back/STIM_024.jpg
978.194	0.538	correct	2back	Block2	2back/STIM_024.jpg
982.218	0.638	correct	2back	Block2	2back/STIM_024.jpg
986.444	0.975	correct	2back	Block2	2back/STIM_025.jpg
990.788	1.082	correct	2back	Block2	2back/STIM_025.jpg
994.025	0.852	correct	2back	Block2	2back/STIM_025.jpg
997.263	0.873	incorrect	2back	Block2	2back/STIM_026.jpg
1000.794	0.977	correct	2back	Block2	2back/STIM_026.jpg
1004.021	0.62	correct	2back	Block2	2back/STIM_026.jpg
1006.854	0.907	correct	2back	Block2	2back/STIM_027.jpg
1009.967	0.564	correct	2back	Block2	2back/STIM_027.jpg
1012.827	0.888	correct	2back	Block2	2back/STIM_027.jpg
1016.872	0.759	correct	2back	Block2	2back/STIM_028.jpg
1020.531	0.838	correct	2back	Block2	2back/STIM_028.jpg
1024.754	0.657	correct	2back	Block2	2back/STIM_028.jpg
1027.774	0.6	correct	2back	Block2	2back/STIM_029.jpg
1032.089	0.984	correct	2back	Block2	2back/STIM_029.jpg
1036.977	0.678	correct	2back	Block2	2back/STIM_029.jpg
1039.971	0.919	correct	2back	Block2	2back/STIM_030.jpg
1044.561	0.519	correct	2back	Block2	2back/STIM_030.jpg
1047.4	0.652	correct	2back	Block2	2back/STIM_030.jpg
1050.198	1.06	correct	2back	Block2	2back/STIM_031.jpg
1053.453	1.052	correct	2back	Block2	2back/STIM_031.jpg
1057.483	0.799	correct	2back	Block2	2back/STIM_031.jpg
1060.595	0.705	correct	2back	Block2	2back/STIM_032.jpg
1064.785	0.863	correct	2back	Block2	2back/STIM_032.jpg
1068.827	1.113	correct	2back	Block2	2back/STIM_032.jpg
1072.902	1.05	correct	2back	Block2	2back/STIM_033.jpg
1077.059	1.137	correct	2back	Block2	2back/STIM_033.jpg
1081.901	0.716	correct	2back	Block2	2back/STIM_033.jpg
1086.195	0.95	correct	2back	Block2	2back/STIM_034.jpg
1089.885	0.664	correct	2back	Block2	2back/STIM_034.jpg
1093.688	0.689	correct	2back	Block2	2back/STIM_034.jpg
1097.553	1.162	correct	2back	Block2	2back/STIM_035.jpg
1101.189	1.137	incorrect	2back	Block2	2back/STIM_035.jpg
1104.885	0.6	correct	2back	Block2	2back/STIM_035.jpg
1109.439	1.056	correct	2back	Block2	2back/STIM_036.jpg
1112.637	0.903	correct	2back	Block2	2back/STIM_036.jpg
1117.173	1.03	correct	2back	Block2	2back/STIM_036.jpg
1120.472	0.97	correct	2back	Block2	2back/STIM_037.jpg
1125.16	0.547	correct	2back	Block2	2back/STIM_037.jpg
1128.189	0.555	correct	2back	Block2	2back/STIM_037.jpg
1132.393	0.886	incorrect	2back	Block2	2back/STIM_038.jpg
1136.448	1.003	correct	2back	Block2	2back/STIM_038.jpg
1139.479	1.039	correct	2back	Block2	2back/STIM_038.jpg
1142.901	0.617	incorrect	2back	Block2	2back/STIM_039.jpg
1147.404	1.046	correct	2back	Block2	2back/STIM_039.jpg
1152.103	0.901	correct	2back	Block2	2back/STIM_039.jpg
1156.377	0.668	correct	0back	Block2	0back/STIM_000.jpg
1159.799	0.674	correct	0back	Block2	0back/STIM_000.jpg
1163.801	0.68	correct	0back	Block2	0back/STIM_000.jpg
1168.194	0.718	correct	0back	Block2	0back/STIM_001.jpg
1171.493	0.465	correct	0back	Block2	0back/STIM_001.jpg
1175.313	0.813	correct	0back	Block2	0back/STIM_001.jpg
1179.627	0.769	correct	0back	Block2	0back/STIM_002.jpg
1182.571	0.499	correct	0back	Block2	0back/STIM_002.jpg
1185.552	0.676	correct	0back	Block2	0back/STIM_002.jpg
1189.125	0.737	correct	0back	Block2	0back/STIM_003.jpg
1193.334	0.525	correct	0back	Block2	0back/STIM_003.jpg
1196.67	0.572	correct	0back	Block2	0back/STIM_003.jpg
1200.489	0.535	correct	0back	Block2	0back/STIM_004.jpg
1204.853	0.616	correct	0back	Block2	0back/STIM_004.jpg
1208.191	0.616	correct	0back	Block2	0back/STIM_004.jpg
1211.867	0.655	correct	0back	Block2	0back/STIM_005.jpg
1215.175	0.686	correct	0back	Block2	0back/STIM_005.jpg
1219.458	0.766	correct	0back	Block2	0back/STIM_005.jpg
1222.402	0.787	correct	0back	Block2	0back/STIM_006.jpg
1226.352	0.844	correct	0back	Block2	0back/STIM_006.jpg
1230.202	0.607	correct	0back	Block2	0back/STIM_006.jpg
1233.199	0.662	correct	0back	Block2	0back/STIM_007.jpg
1235.886	0.758	correct	0back	Block2	0back/STIM_007.jpg
1238.689	0.689	correct	0back	Block2	0back/STIM_007.jpg
1242.826	0.758	correct	0back	Block2	0back/STIM_008.jpg
1247.1	0.511	correct	0back	Block2	0back/STIM_008.jpg
1249.624	0.462	correct	0back	Block2	0back/STIM_008.jpg
1254.036	0.497	correct	0back	Block2	0back/STIM_009.jpg
1257.562	0.847	incorrect	0back	Block2	0back/STIM_009.jpg
1261.53	0.463	correct	0back	Block2	0back/STIM_009.jpg
1265.731	0.681	correct	0back	Block2	0back/STIM_010.jpg
1269.224	0.658	correct	0back	Block2	0back/STIM_010.jpg
1273.061	0.531	correct	0back	Block2	0back/STIM_010.jpg
1275.683	0.698	correct	0back	Block2	0back/STIM_011.jpg
1278.426	0.534	correct	0back	Block2	0back/STIM_011.jpg
1282.313	0.622	correct	0back	Block2	0back/STIM_011.jpg
1285.319	0.582	correct	0back	Block2	0back/STIM_012.jpg
1288.33	0.732	correct	0back	Block2	0back/STIM_012.jpg
1292.225	0.46	correct	0back	Block2	0back/STIM_012.jpg
1295.967	0.497	correct	0back	Block2	0back/STIM_013.jpg
1299.687	0.431	correct	0back	Block2	0back/STIM_013.jpg
1304.046	0.613	correct	0back	Block2	0back/STIM_013.jpg
1308.528	0.477	correct	0back	Block2	0back/STIM_014.jpg
1312.008	0.596	correct	0back	Block2	0back/STIM_014.jpg
1315.522	0.695	correct	0back	Block2	0back/STIM_014.jpg
1319.249	0.538	correct	0back	Block2	0back/STIM_015.jpg
1323.689	0.803	correct	0back	Block2	0back/STIM_015.jpg
1327.825	0.593	correct	0back	Block2	0back/STIM_015.jpg
1330.754	0.778	correct	0back	Block2	0back/STIM_016.jpg
1333.518	0.835	correct	0back	Block2	0back/STIM_016.jpg
1336.523	0.603	incorrect	0back	Block2	0back/STIM_016.jpg
1339.701	0.442	correct	0back	Block2	0back/STIM_017.jpg
1344.106	0.631	correct	0back	Block2	0back/STIM_017.jpg
1348.666	0.488	correct	0back	Block2	0back/STIM_017.jpg
1353.022	0.556	correct	0back	Block2	0back/STIM_018.jpg
1356.791	0.732	correct	0back	Block2	0back/STIM_018.jpg
1361.064	0.768	correct	0back	Block2	0back/STIM_018.jpg
1364.756	0.732	correct	0back	Block2	0back/STIM_019.jpg
1369.179	0.483	correct	0back	Block2	0back/STIM_019.jpg
1373.207	0.509	correct	0back	Block2	0back/STIM_019.jpg
1376.256	0.925	correct	2back	Block3	2back/STIM_000.jpg
1379.952	0.898	correct	2back	Block3	2back/STIM_000.jpg
1383.364	1.03	correct	2back	Block3	2back/STIM_000.jpg
1386.943	0.794	correct	2back	Block3	2back/STIM_001.jpg
1390.148	0.794	correct	2back	Block3	2back/STIM_001.jpg
1393.283	0.607	correct	2back	Block3	2back/STIM_001.jpg
1397.161	0.87	correct	2back	Block3	2back/STIM_002.jpg
1401.285	1.02	correct	2back	Block3	2back/STIM_002.jpg
1404.939	0.798	correct	2back	Block3	2back/STIM_002.jpg
1407.879	0.473	correct	2back	Block3	2back/STIM_003.jpg
1410.443	0.712	correct	2back	Block3	2back/STIM_003.jpg
1415.033	0.699	correct	2back	Block3	2back/STIM_003.jpg
1418.167	0.814	correct	2back	Block3	2back/STIM_004.jpg
1421.382	0.76	correct	2back	Block3	2back/STIM_004.jpg
1424.97	0.779	correct	2back	Block3	2back/STIM_004.jpg
1429.539	0.876	correct	2back	Block3	2back/STIM_005.jpg
1433.739	0.655	correct	2back	Block3	2back/STIM_005.jpg
1437.8	0.481	correct	2back	Block3	2back/STIM_005.jpg
1440.826	0.897	correct	2back	Block3	2back/STIM_006.jpg
1444.518	0.745	correct	2back	Block3	2back/STIM_006.jpg
1448.005	0.89	correct	2back	Block3	2back/STIM_006.jpg
1452.522	0.91	correct	2back	Block3	2back/STIM_007.jpg
1455.845	0.509	correct	2back	Block3	2back/STIM_007.jpg
1459.245	0.504	correct	2back	Block3	2back/STIM_007.jpg
1462.261	1.035	correct	2back	Block3	2back/STIM_008.jpg
1466.544	0.78	correct	2back	Block3	2back/STIM_008.jpg
1469.915	0.634	correct	2back	Block3	2back/STIM_008.jpg
1473.139	0.457	correct	2back	Block3	2back/STIM_009.jpg
1476.868	0.956	correct	2back	Block3	2back/STIM_009.jpg
1480.651	0.446	incorrect	2back	Block3	2back/STIM_009.jpg
1483.404	0.909	correct	2back	Block3	2back/STIM_010.jpg
1487.892	0.953	correct	2back	Block3	2back/STIM_010.jpg
1492.21	0.54	correct	2back	Block3	2back/STIM_010.jpg
1496.052	0.84	correct	2back	Block3	2back/STIM_011.jpg
1498.984	0.974	correct	2back	Block3	2back/STIM_011.jpg
1503.569	0.545	correct	2back	Block3	2back/STIM_011.jpg
1507.289	0.611	correct	2back	Block3	2back/STIM_012.jpg
1511.337	0.83	incorrect	2back	Block3	2back/STIM_012.jpg
1516.09	0.983	correct	2back	Block3	2back/STIM_012.jpg
1519.846	0.485	correct	2back	Block3	2back/STIM_013.jpg
1523.062	0.906	correct	2back	Block3	2back/STIM_013.jpg
1526.836	0.797	correct	2back	Block3	2back/STIM_013.jpg
1530.008	0.797	correct	2back	Block3	2back/STIM_014.jpg
1533.365	0.766	correct	2back	Block3	2back/STIM_014.jpg
1537.669	0.899	correct	2back	Block3	2back/STIM_014.jpg
1541.893	0.586	correct	2back	Block3	2back/STIM_015.jpg
1545.278	0.566	correct	2back	Block3	2back/STIM_015.jpg
1548.08	0.994	correct	2back	Block3	2back/STIM_015.jpg
1552.015	0.815	correct	2back	Block3	2back/STIM_016.jpg
1555.274	0.786	correct	2back	Block3	2back/STIM_016.jpg
1559.793	0.618	correct	2back	Block3	2back/STIM_016.jpg
1562.415	0.673	correct	2back	Block3	2back/STIM_017.jpg
1566.844	0.488	correct	2back	Block3	2back/STIM_017.jpg
1570.774	0.504	correct	2back	Block3	2back/STIM_017.jpg
1573.723	0.694	correct	2back	Block3	2back/STIM_018.jpg
1578.13	0.745	correct	2back	Block3	2back/STIM_018.jpg
1581.629	0.962	correct	2back	Block3	2back/STIM_018.jpg
1585.496	0.745	correct	2back	Block3	2back/STIM_019.jpg
1588.887	0.682	correct	2back	Block3	2back/STIM_019.jpg
1591.93	1.034	correct	2back	Block3	2back/STIM_019.jpg
1595.031	0.574	correct	2back	Block3	2back/STIM_020.jpg
1598.096	0.513	correct	2back	Block3	2back/STIM_020.jpg
1601.034	0.67	correct	2back	Block3	2back/STIM_020.jpg
1605.247	0.536	correct	2back	Block3	2back/STIM_021.jpg
1609.681	0.913	correct	2back	Block3	2back/STIM_021.jpg
1612.783	0.89	correct	2back	Block3	2back/STIM_021.jpg
1617.396	0.664	correct	2back	Block3	2back/STIM_022.jpg
1620.545	0.864	correct	2back	Block3	2back/STIM_022.jpg
1623.717	0.99	correct	2back	Block3	2back/STIM_022.jpg
1627.257	0.75	correct	2back	Block3	2back/STIM_023.jpg
1630.688	0.658	correct	2back	Block3	2back/STIM_023.jpg
1634.018	0.904	correct	2back	Block3	2back/STIM_023.jpg
1637.846	0.856	correct	2back	Block3	2back/STIM_024.jpg
1641.48	0.602	correct	2back	Block3	2back/STIM_024.jpg
1644.935	0.972	correct	2back	Block3	2back/STIM_024.jpg
1649.846	0.642	correct	2back	Block3	2back/STIM_025.jpg
1653.05	0.677	correct	2back	Block3	2back/STIM_025.jpg
1656.099	0.487	correct	2back	Block3	2back/STIM_025.jpg
1660.426	0.487	correct	2back	Block3	2back/STIM_026.jpg
1663.72	0.592	correct	2back	Block3	2back/STIM_026.jpg
1668.03	0.554	correct	2back	Block3	2back/STIM_026.jpg
1672.168	0.684	correct	2back	Block3	2back/STIM_027.jpg
1675.315	0.48	correct	2back	Block3	2back/STIM_027.jpg
1678.34	0.706	correct	2back	Block3	2back/STIM_027.jpg
1681.102	1.032	correct	2back	Block3	2back/STIM_028.jpg
1684.183	0.838	correct	2back	Block3	2back/STIM_028.jpg
1687.848	0.922	correct	2back	Block3	2back/STIM_028.jpg
1691.155	0.578	correct	2back	Block3	2back/STIM_029.jpg
1693.718	0.508	correct	2back	Block3	2back/STIM_029.jpg
1697.258	0.784	correct	2back	Block3	2back/STIM_029.jpg
1700.832	0.726	correct	2back	Block3	2back/STIM_030.jpg
1704.775	0.46	correct	2back	Block3	2back/STIM_030.jpg
1707.952	0.537	correct	2back	Block3	2back/STIM_030.jpg
1710.962	0.757	correct	2back	Block3	2back/STIM_031.jpg
1715.301	0.914	correct	2back	Block3	2back/STIM_031.jpg
1719.169	0.671	correct	2back	Block3	2back/STIM_031.jpg
1722.309	0.504	correct	2back	Block3	2back/STIM_032.jpg
1725.906	0.611	correct	2back	Block3	2back/STIM_032.jpg
1728.832	0.451	correct	2back	Block3	2back/STIM_032.jpg
1732.149	1.014	correct	2back	Block3	2back/STIM_033.jpg
1736.041	0.545	incorrect	2back	Block3	2back/STIM_033.jpg
1738.941	0.627	correct	2back	Block3	2back/STIM_033.jpg
1742.779	1.032	correct	2back	Block3	2back/STIM_034.jpg
1747.208	0.929	correct	2back	Block3	2back/STIM_034.jpg
1750.918	0.989	correct	2back	Block3	2back/STIM_034.jpg
1754.357	0.636	correct	2back	Block3	2back/STIM_035.jpg
1757.462	0.69	correct	2back	Block3	2back/STIM_035.jpg
1761.936	0.736	correct	2back	Block3	2back/STIM_035.jpg
1765.039	0.553	correct	2back	Block3	2back/STIM_036.jpg
1767.577	0.953	correct	2back	Block3	2back/STIM_036.jpg
1770.903	0.561	correct	2back	Block3	2back/STIM_036.jpg
1774.57	0.689	correct	2back	Block3	2back/STIM_037.jpg
1778.603	0.806	correct	2back	Block3	2back/STIM_037.jpg
1781.848	0.659	correct	2back	Block3	2back/STIM_037.jpg
1785.278	0.958	correct	2back	Block3	2back/STIM_038.jpg
1788.281	0.737	correct	2back	Block3	2back/STIM_038.jpg
1791.621	0.92	correct	2back	Block3	2back/STIM_038.jpg
1794.512	0.457	correct	2back	Block3	2back/STIM_039.jpg
1797.945	0.678	correct	2back	Block3	2back/STIM_039.jpg
1801.687	0.816	correct	2back	Block3	2back/STIM_039.jpg
1805.084	0.734	correct	0back	Block3	0back/STIM_000.jpg
1809.048	0.535	correct	0back	Block3	0back/STIM_000.jpg
1813.314	0.756	correct	0back	Block3	0back/STIM_000.jpg
1816.502	0.698	correct	0back	Block3	0back/STIM_001.jpg
1821.114	0.807	correct	0back	Block3	0back/STIM_001.jpg
1825.873	0.573	correct	0back	Block3	0back/STIM_001.jpg
1828.568	0.636	correct	0back	Block3	0back/STIM_002.jpg
1833.036	0.8	correct	0back	Block3	0back/STIM_002.jpg
1837.625	0.835	correct	0back	Block3	0back/STIM_002.jpg
1841.868	0.494	correct	0back	Block3	0back/STIM_003.jpg
1845.07	0.684	correct	0back	Block3	0back/STIM_003.jpg
1848.848	0.633	correct	0back	Block3	0back/STIM_003.jpg
1851.782	0.786	correct	0back	Block3	0back/STIM_004.jpg
1855.334	0.543	correct	0back	Block3	0back/STIM_004.jpg
1859.121	0.822	correct	0back	Block3	0back/STIM_004.jpg
1863.363	0.468	correct	0back	Block3	0back/STIM_005.jpg
1866.581	0.749	correct	0back	Block3	0back/STIM_005.jpg
1870.759	0.52	incorrect	0back	Block3	0back/STIM_005.jpg
1873.742	0.425	correct	0back	Block3	0back/STIM_006.jpg
1877.803	0.648	correct	0back	Block3	0back/STIM_006.jpg
1882.406	0.427	correct	0back	Block3	0back/STIM_006.jpg
1886.452	0.768	correct	0back	Block3	0back/STIM_007.jpg
1890.523	0.488	correct	0back	Block3	0back/STIM_007.jpg
1894.726	0.568	correct	0back	Block3	0back/STIM_007.jpg
1898.105	0.736	correct	0back	Block3	0back/STIM_008.jpg
1902.683	0.79	correct	0back	Block3	0back/STIM_008.jpg
1907.185	0.488	correct	0back	Block3	0back/STIM_008.jpg
1909.932	0.51	correct	0back	Block3	0back/STIM_009.jpg
1913.512	0.493	correct	0back	Block3	0back/STIM_009.jpg
1917.536	0.699	correct	0back	Block3	0back/STIM_009.jpg
1921.069	0.828	correct	0back	Block3	0back/STIM_010.jpg
1925.188	0.595	correct	0back	Block3	0back/STIM_010.jpg
1927.973	0.669	correct	0back	Block3	0back/STIM_010.jpg
1931.692	0.593	correct	0back	Block3	0back/STIM_011.jpg
1934.669	0.687	correct	0back	Block3	0back/STIM_011.jpg
1937.65	0.444	correct	0back	Block3	0back/STIM_011.jpg
1941.84	0.551	correct	0back	Block3	0back/STIM_012.jpg
1944.475	0.635	correct	0back	Block3	0back/STIM_012.jpg
1948.347	0.844	correct	0back	Block3	0back/STIM_012.jpg
1952.981	0.686	correct	0back	Block3	0back/STIM_013.jpg
1957.485	0.817	correct	0back	Block3	0back/STIM_013.jpg
1960.674	0.609	correct	0back	Block3	0back/STIM_013.jpg
1964.538	0.499	correct	0back	Block3	0back/STIM_014.jpg
1968.238	0.725	correct	0back	Block3	0back/STIM_014.jpg
1971.698	0.435	correct	0back	Block3	0back/STIM_014.jpg
1974.97	0.638	correct	0back	Block3	0back/STIM_015.jpg
1979.254	0.667	correct	0back	Block3	0back/STIM_015.jpg
1982.887	0.733	correct	0back	Block3	0back/STIM_015.jpg
1985.905	0.496	correct	0back	Block3	0back/STIM_016.jpg
1989.862	0.479	correct	0back	Block3	0back/STIM_016.jpg
1992.743	0.656	correct	0back	Block3	0back/STIM_016.jpg
1996.181	0.783	correct	0back	Block3	0back/STIM_017.jpg
1999.056	0.597	correct	0back	Block3	0back/STIM_017.jpg
2001.678	0.557	correct	0back	Block3	0back/STIM_017.jpg
2005.329	0.646	correct	0back	Block3	0back/STIM_018.jpg
2009.75	0.635	incorrect	0back	Block3	0back/STIM_018.jpg
2012.574	0.491	correct	0back	Block3	0back/STIM_018.jpg
2016.921	0.633	correct	0back	Block3	0back/STIM_019.jpg
2020.042	0.716	correct	0back	Block3	0back/STIM_019.jpg
2023.066	0.62	correct	0back	Block3	0back/STIM_019.jpg
2025.794	0.75	correct	2back	Block4	2back/STIM_000.jpg
2029.932	0.46	correct	2back	Block4	2back/STIM_000.jpg
2034.047	0.999	correct	2back	Block4	2back/STIM_000.jpg
2037.553	0.806	correct	2back	Block4	2back/STIM_001.jpg
2041.98	0.664	correct	2back	Block4	2back/STIM_001.jpg
2046.154	0.522	correct	2back	Block4	2back/STIM_001.jpg
2049.131	0.574	correct	2back	Block4	2back/STIM_002.jpg
2052.523	0.575	correct	2back	Block4	2back/STIM_002.jpg
2055.478	0.958	correct	2back	Block4	2back/STIM_002.jpg
2058.925	0.887	correct	2back	Block4	2back/STIM_003.jpg
2063.08	0.733	correct	2back	Block4	2back/STIM_003.jpg
2065.809	0.602	correct	2back	Block4	2back/STIM_003.jpg
2069.304	0.718	correct	2back	Block4	2back/STIM_004.jpg
2073.973	0.643	correct	2back	Block4	2back/STIM_004.jpg
2077.008	0.631	correct	2back	Block4	2back/STIM_004.jpg
2080.159	0.994	correct	2back	Block4	2back/STIM_005.jpg
2084.249	0.967	correct	2back	Block4	2back/STIM_005.jpg
2088.958	1.01	correct	2back	Block4	2back/STIM_005.jpg
2093.732	0.698	correct	2back	Block4	2back/STIM_006.jpg
2098.071	0.76	correct	2back	Block4	2back/STIM_006.jpg
2101.978	1.028	correct	2back	Block4	2back/STIM_006.jpg
2105.71	0.917	correct	2back	Block4	2back/STIM_007.jpg
2109.287	0.751	correct	2back	Block4	2back/STIM_007.jpg
2113.803	0.64	correct	2back	Block4	2back/STIM_007.jpg
2118.045	0.579	correct	2back	Block4	2back/STIM_008.jpg
2122.422	0.846	correct	2back	Block4	2back/STIM_008.jpg
2125.442	0.774	correct	2back	Block4	2back/STIM_008.jpg
2129.699	0.902	correct	2back	Block4	2back/STIM_009.jpg
2134.264	0.633	correct	2back	Block4	2back/STIM_009.jpg
2137.881	0.8	correct	2back	Block4	2back/STIM_009.jpg
2142.557	0.951	correct	2back	Block4	2back/STIM_010.jpg
2146.842	0.629	correct	2back	Block4	2back/STIM_010.jpg
2150.522	0.672	correct	2back	Block4	2back/STIM_010.jpg
2154.749	0.511	correct	2back	Block4	2back/STIM_011.jpg
2158.335	0.488	correct	2back	Block4	2back/STIM_011.jpg
2160.846	0.901	correct	2back	Block4	2back/STIM_011.jpg
2165.378	1.005	correct	2back	Block4	2back/STIM_012.jpg
2169.72	0.714	correct	2back	Block4	2back/STIM_012.jpg
2174.034	0.718	correct	2back	Block4	2back/STIM_012.jpg
2178.554	0.825	correct	2back	Block4	2back/STIM_013.jpg
2182.359	0.537	correct	2back	Block4	2back/STIM_013.jpg
2185.124	0.62	correct	2back	Block4	2back/STIM_013.jpg
2188.205	0.82	correct	2back	Block4	2back/STIM_014.jpg
2191.811	1.001	correct	2back	Block4	2back/STIM_014.jpg
2194.86	0.834	correct	2back	Block4	2back/STIM_014.jpg
2198.71	0.963	correct	2back	Block4	2back/STIM_015.jpg
2202.829	0.809	correct	2back	Block4	2back/STIM_015.jpg
2206.745	0.994	correct	2back	Block4	2back/STIM_015.jpg
2211.125	0.506	incorrect	2back	Block4	2back/STIM_016.jpg
2214.688	0.58	correct	2back	Block4	2back/STIM_016.jpg
2218.86	0.505	correct	2back	Block4	2back/STIM_016.jpg
2222.516	0.869	correct	2back	Block4	2back/STIM_017.jpg
2225.941	0.888	correct	2back	Block4	2back/STIM_017.jpg
2229.894	0.738	correct	2back	Block4	2back/STIM_017.jpg
2234.147	0.925	correct	2back	Block4	2back/STIM_018.jpg
2238.598	0.763	correct	2back	Block4	2back/STIM_018.jpg
2242.641	0.93	correct	2back	Block4	2back/STIM_018.jpg
2246.721	0.535	correct	2back	Block4	2back/STIM_019.jpg
2250.487	0.855	correct	2back	Block4	2back/STIM_019.jpg
2255.048	1.039	correct	2back	Block4	2back/STIM_019.jpg
2259.248	0.632	correct	2back	Block4	2back/STIM_020.jpg
2262.232	0.821	correct	2back	Block4	2back/STIM_020.jpg
2266.3	0.686	correct	2back	Block4	2back/STIM_020.jpg
2269.863	0.975	correct	2back	Block4	2back/STIM_021.jpg
2274.35	0.749	correct	2back	Block4	2back/STIM_021.jpg
2278.843	0.679	correct	2back	Block4	2back/STIM_021.jpg
2281.783	0.823	correct	2back	Block4	2back/STIM_022.jpg
2284.662	0.565	correct	2back	Block4	2back/STIM_022.jpg
2289.034	0.562	correct	2back	Block4	2back/STIM_022.jpg
2292.975	0.964	correct	2back	Block4	2back/STIM_023.jpg
2295.994	0.531	correct	2back	Block4	2back/STIM_023.jpg
2298.993	0.616	correct	2back	Block4	2back/STIM_023.jpg
2301.81	0.806	correct	2back	Block4	2back/STIM_024.jpg
2305.84	0.581	correct	2back	Block4	2back/STIM_024.jpg
2310.007	0.862	correct	2back	Block4	2back/STIM_024.jpg
2314.218	0.512	correct	2back	Block4	2back/STIM_025.jpg
2318.055	0.753	incorrect	2back	Block4	2back/STIM_025.jpg
2321.733	1.023	correct	2back	Block4	2back/STIM_025.jpg
2326.559	0.555	correct	2back	Block4	2back/STIM_026.jpg
2330.783	0.536	correct	2back	Block4	2back/STIM_026.jpg
2334.21	0.761	correct	2back	Block4	2back/STIM_026.jpg
2337.878	0.869	correct	2back	Block4	2back/STIM_027.jpg
2341.106	0.616	correct	2back	Block4	2back/STIM_027.jpg
2344.869	0.763	correct	2back	Block4	2back/STIM_027.jpg
2348.174	0.703	correct	2back	Block4	2back/STIM_028.jpg
2351.82	0.863	correct	2back	Block4	2back/STIM_028.jpg
2355.537	0.962	correct	2back	Block4	2back/STIM_028.jpg
2359.786	0.583	correct	2back	Block4	2back/STIM_029.jpg
2363.76	0.899	incorrect	2back	Block4	2back/STIM_029.jpg
2367.748	0.873	correct	2back	Block4	2back/STIM_029.jpg
2370.723	0.588	correct	2back	Block4	2back/STIM_030.jpg
2375.016	0.815	correct	2back	Block4	2back/STIM_030.jpg
2378.038	0.692	correct	2back	Block4	2back/STIM_030.jpg
2381.132	1.008	correct	2back	Block4	2back/STIM_031.jpg
2385.615	0.535	correct	2back	Block4	2back/STIM_031.jpg
2389.681	0.902	correct	2back	Block4	2back/STIM_031.jpg
2394.475	0.478	correct	2back	Block4	2back/STIM_032.jpg
2398.853	0.884	correct	2back	Block4	2back/STIM_032.jpg
2403.141	0.679	correct	2back	Block4	2back/STIM_032.jpg
2407.175	0.816	correct	2back	Block4	2back/STIM_033.jpg
2411.25	0.46	correct	2back	Block4	2back/STIM_033.jpg
2415.521	0.954	correct	2back	Block4	2back/STIM_033.jpg
2419.293	0.584	correct	2back	Block4	2back/STIM_034.jpg
2422.802	0.512	correct	2back	Block4	2back/STIM_034.jpg
2425.93	0.914	correct	2back	Block4	2back/STIM_034.jpg
2430.591	0.745	correct	2back	Block4	2back/STIM_035.jpg
2433.763	0.614	correct	2back	Block4	2back/STIM_035.jpg
2438.04	0.529	correct	2back	Block4	2back/STIM_035.jpg
2441.851	0.488	correct	2back	Block4	2back/STIM_036.jpg
2445.826	0.473	correct	2back	Block4	2back/STIM_036.jpg
2449.003	0.543	correct	2back	Block4	2back/STIM_036.jpg
2452.097	0.734	correct	2back	Block4	2back/STIM_037.jpg
2456.442	0.706	correct	2back	Block4	2back/STIM_037.jpg
2460.326	0.937	correct	2back	Block4	2back/STIM_037.jpg
2463.32	0.447	correct	2back	Block4	2back/STIM_038.jpg
2467.251	0.654	correct	2back	Block4	2back/STIM_038.jpg
2470.525	0.918	correct	2back	Block4	2back/STIM_038.jpg
2473.767	0.936	correct	2back	Block4	2back/STIM_039.jpg
2477.855	0.809	correct	2back	Block4	2back/STIM_039.jpg
2480.969	0.791	correct	2back	Block4	2back/STIM_039.jpg
2485.022	0.476	correct	0back	Block4	0back/STIM_000.jpg
2487.935	0.471	incorrect	0back	Block4	0back/STIM_000.jpg
2491.754	0.557	correct	0back	Block4	0back/STIM_000.jpg
2495.332	0.788	correct	0back	Block4	0back/STIM_001.jpg
2498.819	0.759	correct	0back	Block4	0back/STIM_001.jpg
2502.908	0.657	correct	0back	Block4	0back/STIM_001.jpg
2506.107	0.462	correct	0back	Block4	0back/STIM_002.jpg
2508.619	0.533	correct	0back	Block4	0back/STIM_002.jpg
2511.305	0.813	correct	0back	Block4	0back/STIM_002.jpg
2515.512	0.811	correct	0back	Block4	0back/STIM_003.jpg
2520.088	0.654	correct	0back	Block4	0back/STIM_003.jpg
2523.878	0.581	correct	0back	Block4	0back/STIM_003.jpg
2527.276	0.819	correct	0back	Block4	0back/STIM_004.jpg
2530.7	0.76	correct	0back	Block4	0back/STIM_004.jpg
2534.905	0.641	correct	0back	Block4	0back/STIM_004.jpg
2538.348	0.795	correct	0back	Block4	0back/STIM_005.jpg
2541.299	0.478	correct	0back	Block4	0back/STIM_005.jpg
2545.459	0.458	correct	0back	Block4	0back/STIM_005.jpg
2549.683	0.548	correct	0back	Block4	0back/STIM_006.jpg
2552.97	0.781	correct	0back	Block4	0back/STIM_006.jpg
2556.641	0.834	correct	0back	Block4	0back/STIM_006.jpg
2559.624	0.542	correct	0back	Block4	0back/STIM_007.jpg
2562.321	0.472	correct	0back	Block4	0back/STIM_007.jpg
2564.911	0.534	correct	0back	Block4	0back/STIM_007.jpg
2568.276	0.484	correct	0back	Block4	0back/STIM_008.jpg
2572.343	0.768	correct	0back	Block4	0back/STIM_008.jpg
2576.45	0.59	correct	0back	Block4	0back/STIM_008.jpg
2580.795	0.765	correct	0back	Block4	0back/STIM_009.jpg
2585.101	0.435	correct	0back	Block4	0back/STIM_009.jpg
2588.518	0.819	incorrect	0back	Block4	0back/STIM_009.jpg
2592.116	0.628	correct	0back	Block4	0back/STIM_010.jpg
2595.642	0.69	correct	0back	Block4	0back/STIM_010.jpg
2599.594	0.634	correct	0back	Block4	0back/STIM_010.jpg
2602.83	0.732	correct	0back	Block4	0back/STIM_011.jpg
2606.311	0.746	correct	0back	Block4	0back/STIM_011.jpg
2610.495	0.524	correct	0back	Block4	0back/STIM_011.jpg
2613.446	0.573	correct	0back	Block4	0back/STIM_012.jpg
2617.738	0.503	correct	0back	Block4	0back/STIM_012.jpg
2621.98	0.66	correct	0back	Block4	0back/STIM_012.jpg
2626.491	0.452	correct	0back	Block4	0back/STIM_013.jpg
2630.417	0.761	correct	0back	Block4	0back/STIM_013.jpg
2633.71	0.785	correct	0back	Block4	0back/STIM_013.jpg
2637.632	0.753	correct	0back	Block4	0back/STIM_014.jpg
2641.027	0.614	correct	0back	Block4	0back/STIM_014.jpg
2644.904	0.556	correct	0back	Block4	0back/STIM_014.jpg
2647.749	0.487	correct	0back	Block4	0back/STIM_015.jpg
2651.282	0.652	correct	0back	Block4	0back/STIM_015.jpg
2654.281	0.688	correct	0back	Block4	0back/STIM_015.jpg
2657.191	0.771	correct	0back	Block4	0back/STIM_016.jpg
2660.945	0.475	correct	0back	Block4	0back/STIM_016.jpg
2663.975	0.628	correct	0back	Block4	0back/STIM_016.jpg
2667.222	0.477	correct	0back	Block4	0back/STIM_017.jpg
2670.545	0.554	correct	0back	Block4	0back/STIM_017.jpg
2673.493	0.598	correct	0back	Block4	0back/STIM_017.jpg
2676.416	0.605	correct	0back	Block4	0back/STIM_018.jpg
2679.139	0.736	correct	0back	Block4	0back/STIM_018.jpg
2683.317	0.521	correct	0back	Block4	0back/STIM_018.jpg
2687.612	0.779	correct	0back	Block4	0back/STIM_019.jpg
2691.382	0.838	correct	0back	Block4	0back/STIM_019.jpg
2694.392	0.655	correct	0back	Block4	0back/STIM_019.jpg
