onset	duration	accuracy_binary	trial_type	learning_stage	stimulus
0.0	0.713	1	2back	Block1	2back/STIM_000.jpg
3.41	0.777	1	2back	Block1	2back/STIM_000.jpg
7.851	0.624	1	2back	Block1	2back/STIM_000.jpg
11.539	0.528	0	2back	Block1	2back/STIM_001.jpg
15.357	0.558	1	2back	Block1	2back/STIM_001.jpg
18.42	0.728	1	2back	Block1	2back/STIM_001.jpg
21.185	0.904	1	2back	Block1	2back/STIM_002.jpg
25.384	0.651	1	2back	Block1	2back/STIM_002.jpg
29.266	0.947	1	2back	Block1	2back/STIM_002.jpg
33.526	0.675	1	2back	Block1	2back/STIM_003.jpg
36.719	0.545	1	2back	Block1	2back/STIM_003.jpg
40.824	0.828	1	2back	Block1	2back/STIM_003.jpg
44.515	0.914	1	2back	Block1	2back/STIM_004.jpg
49.202	0.66	1	2back	Block1	2back/STIM_004.jpg
52.642	0.565	1	2back	Block1	2back/STIM_004.jpg
56.349	1.048	1	2back	Block1	2back/STIM_005.jpg
60.586	1.097	1	2back	Block1	2back/STIM_005.jpg
65.268	0.72	1	2back	Block1	2back/STIM_005.jpg
68.434	0.882	1	2back	Block1	2back/STIM_006.jpg
73.12	0.663	1	2back	Block1	2back/STIM_006.jpg
76.808	0.587	1	2back	Block1	2back/STIM_006.jpg
79.665	1.063	1	2back	Block1	2back/STIM_007.jpg
84.581	0.659	1	2back	Block1	2back/STIM_007.jpg
87.956	0.928	1	2back	Block1	2back/STIM_007.jpg
92.868	0.516	1	2back	Block1	2back/STIM_008.jpg
96.828	0.652	1	2back	Block1	2back/STIM_008.jpg
100.45	0.937	1	2back	Block1	2back/STIM_008.jpg
104.746	0.988	0	2back	Block1	2back/STIM_009.jpg
108.948	0.539	1	2back	Block1	2back/STIM_009.jpg
112.46	0.828	1	2back	Block1	2back/STIM_009.jpg
116.628	0.72	1	2back	Block1	2back/STIM_010.jpg
120.755	0.808	1	2back	Block1	2back/STIM_010.jpg
124.474	0.604	1	2back	Block1	2back/STIM_010.jpg
128.987	1.15	1	2back	Block1	2back/STIM_011.jpg
132.984	0.648	1	2back	Block1	2back/STIM_011.jpg
136.473	1.006	0	2back	Block1	2back/STIM_011.jpg
140.996	0.759	1	2back	Block1	2back/STIM_012.jpg
144.208	0.633	1	2back	Block1	2back/STIM_012.jpg
148.062	0.746	1	2back	Block1	2back/STIM_012.jpg
151.215	1.036	1	2back	Block1	2back/STIM_013.jpg
155.001	0.906	0	2back	Block1	2back/STIM_013.jpg
159.075	0.972	1	2back	Block1	2back/STIM_013.jpg
162.089	0.802	1	2back	Block1	2back/STIM_014.jpg
165.146	0.724	1	2back	Block1	2back/STIM_014.jpg
168.609	0.816	1	2back	Block1	2back/STIM_014.jpg
172.795	0.635	1	2back	Block1	2back/STIM_015.jpg
177.163	0.621	1	2back	Block1	2back/STIM_015.jpg
180.315	0.553	1	2back	Block1	2back/STIM_015.jpg
184.481	0.912	1	2back	Block1	2back/STIM_016.jpg
188.832	1.012	1	2back	Block1	2back/STIM_016.jpg
193.826	0.622	1	2back	Block1	2back/STIM_016.jpg
196.606	0.901	1	2back	Block1	2back/STIM_017.jpg
200.269	0.868	1	2back	Block1	2back/STIM_017.jpg
203.244	0.596	1	2back	Block1	2back/STIM_017.jpg
206.737	0.692	1	2back	Block1	2back/STIM_018.jpg
211.305	0.611	1	2back	Block1	2back/STIM_018.jpg
214.201	0.653	1	2back	Block1	2back/STIM_018.jpg
217.72	1.056	0	2back	Block1	2back/STIM_019.jpg
222.061	0.599	1	2back	Block1	2back/STIM_019.jpg
225.942	0.828	0	2back	Block1	2back/STIM_019.jpg
230.758	0.748	1	2back	Block1	2back/STIM_020.jpg
235.258	0.878	0	2back	Block1	2back/STIM_020.jpg
240.062	0.919	1	2back	Block1	2back/STIM_020.jpg
243.622	0.813	1	2back	Block1	2back/STIM_021.jpg
248.203	0.936	1	2back	Block1	2back/STIM_021.jpg
251.25	0.581	0	2back	Block1	2back/STIM_021.jpg
254.899	0.801	1	2back	Block1	2back/STIM_022.jpg
258.957	0.882	1	2back	Block1	2back/STIM_022.jpg
262.518	0.826	1	2back	Block1	2back/STIM_022.jpg
265.947	0.696	1	2back	Block1	2back/STIM_023.jpg
270.344	0.598	1	2back	Block1	2back/STIM_023.jpg
273.245	0.787	1	2back	Block1	2back/STIM_023.jpg
277.614	0.523	1	2back	Block1	2back/STIM_024.jpg
281.711	0.783	1	2back	Block1	2back/STIM_024.jpg
285.577	0.657	1	2back	Block1	2back/STIM_024.jpg
290.118	0.729	1	2back	Block1	2back/STIM_025.jpg
293.01	0.665	1	2back	Block1	2back/STIM_025.jpg
296.752	0.987	1	2back	Block1	2back/STIM_025.jpg
300.895	0.523	0	2back	Block1	2back/STIM_026.jpg
303.985	0.499	1	2back	Block1	2back/STIM_026.jpg
307.767	0.637	1	2back	Block1	2back/STIM_026.jpg
310.624	0.861	1	2back	Block1	2back/STIM_027.jpg
314.137	0.682	1	2back	Block1	2back/STIM_027.jpg
318.086	0.644	1	2back	Block1	2back/STIM_027.jpg
320.876	0.711	0	2back	Block1	2back/STIM_028.jpg
323.912	0.97	1	2back	Block1	2back/STIM_028.jpg
328.695	0.646	1	2back	Block1	2back/STIM_028.jpg
333.081	1.017	1	2back	Block1	2back/STIM_029.jpg
336.276	1.035	1	2back	Block1	2back/STIM_029.jpg
340.114	0.699	1	2back	Block1	2back/STIM_029.jpg
343.372	1.147	1	2back	Block1	2back/STIM_030.jpg
347.096	0.549	1	2back	Block1	2back/STIM_030.jpg
351.006	0.656	1	2back	Block1	2back/STIM_030.jpg
354.104	0.986	1	2back	Block1	2back/STIM_031.jpg
357.929	0.963	1	2back	Block1	2back/STIM_031.jpg
361.358	0.986	1	2back	Block1	2back/STIM_031.jpg
365.91	0.874	1	2back	Block1	2back/STIM_032.jpg
369.68	0.571	1	2back	Block1	2back/STIM_032.jpg
374.108	0.532	1	2back	Block1	2back/STIM_032.jpg
378.351	0.739	1	2back	Block1	2back/STIM_033.jpg
381.756	1.117	1	2back	Block1	2back/STIM_033.jpg
386.365	1.035	1	2back	Block1	2back/STIM_033.jpg
390.863	0.575	1	2back	Block1	2back/STIM_034.jpg
395.378	1.049	1	2back	Block1	2back/STIM_034.jpg
399.8	0.79	1	2back	Block1	2back/STIM_034.jpg
403.149	1.015	1	2back	Block1	2back/STIM_035.jpg
408.12	0.636	1	2back	Block1	2back/STIM_035.jpg
411.146	0.78	1	2back	Block1	2back/STIM_035.jpg
415.568	0.917	1	2back	Block1	2back/STIM_036.jpg
419.865	1.015	1	2back	Block1	2back/STIM_036.jpg
423.044	0.786	1	2back	Block1	2back/STIM_036.jpg
427.019	0.717	1	2back	Block1	2back/STIM_037.jpg
431.043	0.612	1	2back	Block1	2back/STIM_037.jpg
433.925	0.889	1	2back	Block1	2back/STIM_037.jpg
438.594	1.126	1	2back	Block1	2back/STIM_038.jpg
442.938	1.026	1	2back	Block1	2back/STIM_038.jpg
446.498	0.97	1	2back	Block1	2back/STIM_038.jpg
451.047	1.023	1	2back	Block1	2back/STIM_039.jpg
454.327	1.003	1	2back	Block1	2back/STIM_039.jpg
457.357	0.86	1	2back	Block1	2back/STIM_039.jpg
461.45	0.455	1	0back	Block1	0back/STIM_000.jpg
464.558	0.555	1	0back	Block1	0back/STIM_000.jpg
467.759	0.462	1	0back	Block1	0back/STIM_000.jpg
471.892	0.418	1	0back	Block1	0back/STIM_001.jpg
475.837	0.612	0	0back	Block1	0back/STIM_001.jpg
478.676	0.622	1	0back	Block1	0back/STIM_001.jpg
482.677	0.384	1	0back	Block1	0back/STIM_002.jpg
485.532	0.608	1	0back	Block1	0back/STIM_002.jpg
489.845	0.351	1	0back	Block1	0back/STIM_002.jpg
493.048	0.625	1	0back	Block1	0back/STIM_003.jpg
497.45	0.346	1	0back	Block1	0back/STIM_003.jpg
500.926	0.584	1	0back	Block1	0back/STIM_003.jpg
504.225	0.473	1	0back	Block1	0back/STIM_004.jpg
507.945	0.572	1	0back	Block1	0back/STIM_004.jpg
511.7	0.598	1	0back	Block1	0back/STIM_004.jpg
515.558	0.649	0	0back	Block1	0back/STIM_005.jpg
519.514	0.575	1	0back	Block1	0back/STIM_005.jpg
522.542	0.581	1	0back	Block1	0back/STIM_005.jpg
525.942	0.368	1	0back	Block1	0back/STIM_006.jpg
529.472	0.507	1	0back	Block1	0back/STIM_006.jpg
532.509	0.53	1	0back	Block1	0back/STIM_006.jpg
535.566	0.634	1	0back	Block1	0back/STIM_007.jpg
538.4	0.561	1	0back	Block1	0back/STIM_007.jpg
541.619	0.63	1	0back	Block1	0back/STIM_007.jpg
545.901	0.454	1	0back	Block1	0back/STIM_008.jpg
549.508	0.585	1	0back	Block1	0back/STIM_008.jpg
552.289	0.668	1	0back	Block1	0back/STIM_008.jpg
555.955	0.564	1	0back	Block1	0back/STIM_009.jpg
559.556	0.556	1	0back	Block1	0back/STIM_009.jpg
563.274	0.529	1	0back	Block1	0back/STIM_009.jpg
567.354	0.354	1	0back	Block1	0back/STIM_010.jpg
571.645	0.518	1	0back	Block1	0back/STIM_010.jpg
575.528	0.579	1	0back	Block1	0back/STIM_010.jpg
578.185	0.64	1	0back	Block1	0back/STIM_011.jpg
581.271	0.426	1	0back	Block1	0back/STIM_011.jpg
585.509	0.583	1	0back	Block1	0back/STIM_011.jpg
588.577	0.349	1	0back	Block1	0back/STIM_012.jpg
592.705	0.556	1	0back	Block1	0back/STIM_012.jpg
596.862	0.525	1	0back	Block1	0back/STIM_012.jpg
600.673	0.666	1	0back	Block1	0back/STIM_013.jpg
603.87	0.669	1	0back	Block1	0back/STIM_013.jpg
607.8	0.376	1	0back	Block1	0back/STIM_013.jpg
610.199	0.651	1	0back	Block1	0back/STIM_014.jpg
614.01	0.395	1	0back	Block1	0back/STIM_014.jpg
617.805	0.645	1	0back	Block1	0back/STIM_014.jpg
621.267	0.421	1	0back	Block1	0back/STIM_015.jpg
625.339	0.559	1	0back	Block1	0back/STIM_015.jpg
629.399	0.437	1	0back	Block1	0back/STIM_015.jpg
632.156	0.636	1	0back	Block1	0back/STIM_016.jpg
636.588	0.536	1	0back	Block1	0back/STIM_016.jpg
640.735	0.586	1	0back	Block1	0back/STIM_016.jpg
643.952	0.673	1	0back	Block1	0back/STIM_017.jpg
646.705	0.385	1	0back	Block1	0back/STIM_017.jpg
650.535	0.658	1	0back	Block1	0back/STIM_017.jpg
653.304	0.35	1	0back	Block1	0back/STIM_018.jpg
656.728	0.576	1	0back	Block1	0back/STIM_018.jpg
661.076	0.436	1	0back	Block1	0back/STIM_018.jpg
665.34	0.579	1	0back	Block1	0back/STIM_019.jpg
668.005	0.424	1	0back	Block1	0back/STIM_019.jpg
671.948	0.413	1	0back	Block1	0back/STIM_019.jpg
675.611	0.828	1	2back	Block2	2back/STIM_000.jpg
679.494	0.629	1	2back	Block2	2back/STIM_000.jpg
683.118	0.53	1	2back	Block2	2back/STIM_000.jpg
687.627	0.968	1	2back	Block2	2back/STIM_001.jpg
690.973	0.713	1	2back	Block2	2back/STIM_001.jpg
695.224	0.423	1	2back	Block2	2back/STIM_001.jpg
699.482	0.464	1	2back	Block2	2back/STIM_002.jpg
703.909	0.765	1	2back	Block2	2back/STIM_002.jpg
708.544	0.688	1	2back	Block2	2back/STIM_002.jpg
712.303	0.686	1	2back	Block2	2back/STIM_003.jpg
716.737	0.681	1	2back	Block2	2back/STIM_003.jpg
720.929	0.513	1	2back	Block2	2back/STIM_003.jpg
723.556	0.556	1	2back	Block2	2back/STIM_004.jpg
726.9	0.949	1	2back	Block2	2back/STIM_004.jpg
731.51	0.741	1	2back	Block2	2back/STIM_004.jpg
734.984	0.482	1	2back	Block2	2back/STIM_005.jpg
738.729	0.837	1	2back	Block2	2back/STIM_005.jpg
742.501	0.711	1	2back	Block2	2back/STIM_005.jpg
746.848	1.007	1	2back	Block2	2back/STIM_006.jpg
751.442	0.669	1	2back	Block2	2back/STIM_006.jpg
754.897	0.546	0	2back	Block2	2back/STIM_006.jpg
758.618	0.945	1	2back	Block2	2back/STIM_007.jpg
763.132	0.41	1	2back	Block2	2back/STIM_007.jpg
767.399	0.453	1	2back	Block2	2back/STIM_007.jpg
770.026	0.602	1	2back	Block2	2back/STIM_008.jpg
774.567	0.624	1	2back	Block2	2back/STIM_008.jpg
777.615	0.797	1	2back	Block2	2back/STIM_008.jpg
780.611	0.972	1	2back	Block2	2back/STIM_009.jpg
785.278	0.452	1	2back	Block2	2back/STIM_009.jpg
789.58	0.557	1	2back	Block2	2back/STIM_009.jpg
793.067	0.924	1	2back	Block2	2back/STIM_010.jpg
797.424	0.817	1	2back	Block2	2back/STIM_010.jpg
801.157	0.671	1	2back	Block2	2back/STIM_010.jpg
803.866	0.477	1	2back	Block2	2back/STIM_011.jpg
808.209	0.62	1	2back	Block2	2back/STIM_011.jpg
811.695	0.643	1	2back	Block2	2back/STIM_011.jpg
815.639	0.472	1	2back	Block2	2back/STIM_012.jpg
819.857	0.84	1	2back	Block2	2back/STIM_012.jpg
823.288	0.383	1	2back	Block2	2back/STIM_012.jpg
826.779	0.745	1	2back	Block2	2back/STIM_013.jpg
829.959	0.517	1	2back	Block2	2back/STIM_013.jpg
833.55	0.451	1	2back	Block2	2back/STIM_013.jpg
837.075	0.559	1	2back	Block2	2back/STIM_014.jpg
841.455	0.866	1	2back	Block2	2back/STIM_014.jpg
844.883	0.862	1	2back	Block2	2back/STIM_014.jpg
848.058	0.892	1	2back	Block2	2back/STIM_015.jpg
850.996	0.949	1	2back	Block2	2back/STIM_015.jpg
855.374	0.88	1	2back	Block2	2back/STIM_015.jpg
859.182	0.447	1	2back	Block2	2back/STIM_016.jpg
861.802	0.458	1	2back	Block2	2back/STIM_016.jpg
864.997	0.515	1	2back	Block2	2back/STIM_016.jpg
869.309	0.484	1	2back	Block2	2back/STIM_017.jpg
872.423	0.408	1	2back	Block2	2back/STIM_017.jpg
875.393	0.862	1	2back	Block2	2back/STIM_017.jpg
879.713	0.935	1	2back	Block2	2back/STIM_018.jpg
883.311	0.638	1	2back	Block2	2back/STIM_018.jpg
886.373	0.561	1	2back	Block2	2back/STIM_018.jpg
889.857	0.836	1	2back	Block2	2back/STIM_019.jpg
894.136	0.657	1	2back	Block2	2back/STIM_019.jpg
898.313	0.519	1	2back	Block2	2back/STIM_019.jpg
901.262	0.628	1	2back	Block2	2back/STIM_020.jpg
905.32	0.827	1	2back	Block2	2back/STIM_020.jpg
908.871	0.782	1	2back	Block2	2back/STIM_020.jpg
912.306	0.544	1	2back	Block2	2back/STIM_021.jpg
915.641	0.65	1	2back	Block2	2back/STIM_021.jpg
918.653	0.715	1	2back	Block2	2back/STIM_021.jpg
921.881	0.483	1	2back	Block2	2back/STIM_022.jpg
926.23	0.944	1	2back	Block2	2back/STIM_022.jpg
929.308	0.436	1	2back	Block2	2back/STIM_022.jpg
932.569	0.89	1	2back	Block2	2back/STIM_023.jpg
936.967	0.548	1	2back	Block2	2back/STIM_023.jpg
940.49	0.434	1	2back	Block2	2back/STIM_023.jpg
944.686	0.886	1	2back	Block2	2back/STIM_024.jpg
947.74	0.902	1	2back	Block2	2back/STIM_024.jpg
950.788	0.539	1	2back	Block2	2back/STIM_024.jpg
953.524	0.477	1	2back	Block2	2back/STIM_025.jpg
956.936	0.929	1	2back	Block2	2back/STIM_025.jpg
961.778	0.514	1	2back	Block2	2back/STIM_025.jpg
964.517	0.91	1	2back	Block2	2back/STIM_026.jpg
967.757	0.886	1	2back	Block2	2back/STIM_026.jpg
972.09	0.712	1	2back	Block2	2back/STIM_026.jpg
975.448	0.519	1	2back	Block2	2back/STIM_027.jpg
979.899	0.565	1	2back	Block2	2back/STIM_027.jpg
983.831	0.539	1	2back	Block2	2back/STIM_027.jpg
987.309	0.626	1	2back	Block2	2back/STIM_028.jpg
991.445	0.716	1	2back	Block2	2back/STIM_028.jpg
994.517	0.513	1	2back	Block2	2back/STIM_028.jpg
997.264	0.984	1	2back	Block2	2back/STIM_029.jpg
1000.921	0.706	1	2back	Block2	2back/STIM_029.jpg
1004.964	0.656	1	2back	Block2	2back/STIM_029.jpg
1009.23	0.664	1	2back	Block2	2back/STIM_030.jpg
1013.105	0.538	1	2back	Block2	2back/STIM_030.jpg
1017.599	0.86	1	2back	Block2	2back/STIM_030.jpg
1020.605	0.842	1	2back	Block2	2back/STIM_031.jpg
1024.971	0.586	1	2back	Block2	2back/STIM_031.jpg
1029.246	0.45	1	2back	Block2	2back/STIM_031.jpg
1032.306	0.932	1	2back	Block2	2back/STIM_032.jpg
1036.022	0.681	1	2back	Block2	2back/STIM_032.jpg
1039.972	0.703	1	2back	Block2	2back/STIM_032.jpg
1043.558	0.853	1	2back	Block2	2back/STIM_033.jpg
1048.022	0.65	1	2back	Block2	2back/STIM_033.jpg
1051.776	0.586	1	2back	Block2	2back/STIM_033.jpg
1055.233	0.923	1	2back	Block2	2back/STIM_034.jpg
1059.452	0.909	1	2back	Block2	2back/STIM_034.jpg
1063.69	0.609	1	2back	Block2	2back/STIM_034.jpg
1067.105	0.75	1	2back	Block2	2back/STIM_035.jpg
1071.473	0.508	1	2back	Block2	2back/STIM_035.jpg
1075.139	0.767	1	2back	Block2	2back/STIM_035.jpg
1078.933	0.98	1	2back	Block2	2back/STIM_036.jpg
1083.212	0.731	1	2back	Block2	2back/STIM_036.jpg
1087.405	0.763	1	2back	Block2	2back/STIM_036.jpg
1092.109	0.451	1	2back	Block2	2back/STIM_037.jpg
1096.286	0.468	1	2back	Block2	2back/STIM_037.jpg
1099.673	0.476	1	2back	Block2	2back/STIM_037.jpg
1103.785	0.653	0	2back	Block2	2back/STIM_038.jpg
1106.874	0.799	1	2back	Block2	2back/STIM_038.jpg
1111.613	0.83	1	2back	Block2	2back/STIM_038.jpg
1116.022	0.455	1	2back	Block2	2back/STIM_039.jpg
1120.156	0.622	1	2back	Block2	2back/STIM_039.jpg
1124.238	0.691	1	2back	Block2	2back/STIM_039.jpg
1127.92	0.636	1	0back	Block2	0back/STIM_000.jpg
1131.461	0.357	1	0back	Block2	0back/STIM_000.jpg
1134.195	0.396	1	0back	Block2	0back/STIM_000.jpg
1137.309	0.632	1	0back	Block2	0back/STIM_001.jpg
1141.466	0.408	1	0back	Block2	0back/STIM_001.jpg
1145.567	0.551	1	0back	Block2	0back/STIM_001.jpg
1148.876	0.517	1	0back	Block2	0back/STIM_002.jpg
1152.949	0.399	1	0back	Block2	0back/STIM_002.jpg
1155.763	0.465	1	0back	Block2	0back/STIM_002.jpg
1159.018	0.497	1	0back	Block2	0back/STIM_003.jpg
1162.283	0.413	1	0back	Block2	0back/STIM_003.jpg
1165.704	0.6	1	0back	Block2	0back/STIM_003.jpg
1168.915	0.493	1	0back	Block2	0back/STIM_004.jpg
1171.881	0.678	1	0back	Block2	0back/STIM_004.jpg
1174.722	0.497	1	0back	Block2	0back/STIM_004.jpg
1178.518	0.659	1	0back	Block2	0back/STIM_005.jpg
1181.836	0.496	1	0back	Block2	0back/STIM_005.jpg
1185.966	0.407	1	0back	Block2	0back/STIM_005.jpg
1190.353	0.603	1	0back	Block2	0back/STIM_006.jpg
1193.39	0.36	1	0back	Block2	0back/STIM_006.jpg
1195.888	0.54	1	0back	Block2	0back/STIM_006.jpg
1200.39	0.449	1	0back	Block2	0back/STIM_007.jpg
1204.379	0.497	1	0back	Block2	0back/STIM_007.jpg
1207.592	0.675	1	0back	Block2	0back/STIM_007.jpg
1212.061	0.629	1	0back	Block2	0back/STIM_008.jpg
1216.52	0.455	1	0back	Block2	0back/STIM_008.jpg
1219.354	0.671	1	0back	Block2	0back/STIM_008.jpg
1223.095	0.494	1	0back	Block2	0back/STIM_009.jpg
1225.672	0.668	1	0back	Block2	0back/STIM_009.jpg
1230.092	0.433	1	0back	Block2	0back/STIM_009.jpg
1233.538	0.605	1	0back	Block2	0back/STIM_010.jpg
1237.326	0.585	1	0back	Block2	0back/STIM_010.jpg
1240.59	0.422	1	0back	Block2	0back/STIM_010.jpg
1243.588	0.633	1	0back	Block2	0back/STIM_011.jpg
1247.511	0.509	1	0back	Block2	0back/STIM_011.jpg
1251.239	0.572	1	0back	Block2	0back/STIM_011.jpg
1254.883	0.594	1	0back	Block2	0back/STIM_012.jpg
1257.59	0.429	1	0back	Block2	0back/STIM_012.jpg
1260.599	0.618	1	0back	Block2	0back/STIM_012.jpg
1264.47	0.477	1	0back	Block2	0back/STIM_013.jpg
1267.558	0.594	1	0back	Block2	0back/STIM_013.jpg
1270.817	0.633	1	0back	Block2	0back/STIM_013.jpg
1273.682	0.566	1	0back	Block2	0back/STIM_014.jpg
1277.816	0.519	1	0back	Block2	0back/STIM_014.jpg
1281.244	0.528	1	0back	Block2	0back/STIM_014.jpg
1285.568	0.46	1	0back	Block2	0back/STIM_015.jpg
1289.165	0.573	1	0back	Block2	0back/STIM_015.jpg
1293.513	0.635	1	0back	Block2	0back/STIM_015.jpg
1297.685	0.522	1	0back	Block2	0back/STIM_016.jpg
1301.71	0.532	1	0back	Block2	0back/STIM_016.jpg
1304.629	0.468	1	0back	Block2	0back/STIM_016.jpg
1307.407	0.462	1	0back	Block2	0back/STIM_017.jpg
1311.01	0.669	1	0back	Block2	0back/STIM_017.jpg
1314.248	0.457	1	0back	Block2	0back/STIM_017.jpg
1317.668	0.652	1	0back	Block2	0back/STIM_018.jpg
1321.412	0.622	1	0back	Block2	0back/STIM_018.jpg
1325.756	0.521	1	0back	Block2	0back/STIM_018.jpg
1329.251	0.437	1	0back	Block2	0back/STIM_019.jpg
1333.321	0.658	1	0back	Block2	0back/STIM_019.jpg
1337.423	0.568	1	0back	Block2	0back/STIM_019.jpg
1340.312	0.511	1	2back	Block3	2back/STIM_000.jpg
1344.168	0.453	1	2back	Block3	2back/STIM_000.jpg
1347.617	0.738	1	2back	Block3	2back/STIM_000.jpg
1351.94	0.806	1	2back	Block3	2back/STIM_001.jpg
1355.348	0.659	1	2back	Block3	2back/STIM_001.jpg
1359.508	0.614	1	2back	Block3	2back/STIM_001.jpg
1362.979	0.691	1	2back	Block3	2back/STIM_002.jpg
1366.818	0.576	1	2back	Block3	2back/STIM_002.jpg
1370.946	0.701	1	2back	Block3	2back/STIM_002.jpg
1374.989	0.762	1	2back	Block3	2back/STIM_003.jpg
1378.604	0.511	1	2back	Block3	2back/STIM_003.jpg
1381.342	0.646	1	2back	Block3	2back/STIM_003.jpg
1384.619	0.815	1	2back	Block3	2back/STIM_004.jpg
1389.417	0.499	1	2back	Block3	2back/STIM_004.jpg
1393.542	0.65	1	2back	Block3	2back/STIM_004.jpg
1396.383	0.626	1	2back	Block3	2back/STIM_005.jpg
1399.177	0.383	1	2back	Block3	2back/STIM_005.jpg
1402.095	0.376	1	2back	Block3	2back/STIM_005.jpg
1405.727	0.653	1	2back	Block3	2back/STIM_006.jpg
1408.53	0.781	1	2back	Block3	2back/STIM_006.jpg
1412.69	0.763	1	2back	Block3	2back/STIM_006.jpg
1416.036	0.516	1	2back	Block3	2back/STIM_007.jpg
1418.554	0.791	1	2back	Block3	2back/STIM_007.jpg
1421.718	0.401	1	2back	Block3	2back/STIM_007.jpg
1425.329	0.701	1	2back	Block3	2back/STIM_008.jpg
1429.781	0.808	1	2back	Block3	2back/STIM_008.jpg
1433.24	0.475	1	2back	Block3	2back/STIM_008.jpg
1436.792	0.718	1	2back	Block3	2back/STIM_009.jpg
1440.483	0.505	1	2back	Block3	2back/STIM_009.jpg
1443.612	0.582	1	2back	Block3	2back/STIM_009.jpg
1447.926	0.6	1	2back	Block3	2back/STIM_010.jpg
1451.139	0.396	1	2back	Block3	2back/STIM_010.jpg
1455.102	0.418	1	2back	Block3	2back/STIM_010.jpg
1458.127	0.772	1	2back	Block3	2back/STIM_011.jpg
1462.601	0.786	1	2back	Block3	2back/STIM_011.jpg
1465.775	0.742	1	2back	Block3	2back/STIM_011.jpg
1468.852	0.634	1	2back	Block3	2back/STIM_012.jpg
1473.267	0.593	1	2back	Block3	2back/STIM_012.jpg
1475.971	0.595	1	2back	Block3	2back/STIM_012.jpg
1478.911	0.799	1	2back	Block3	2back/STIM_013.jpg
1481.801	0.781	1	2back	Block3	2back/STIM_013.jpg
1485.067	0.384	1	2back	Block3	2back/STIM_013.jpg
1487.775	0.436	1	2back	Block3	2back/STIM_014.jpg
1490.294	0.648	1	2back	Block3	2back/STIM_014.jpg
1493.674	0.449	1	2back	Block3	2back/STIM_014.jpg
1497.821	0.385	1	2back	Block3	2back/STIM_015.jpg
1500.368	0.418	1	2back	Block3	2back/STIM_015.jpg
1503.124	0.708	1	2back	Block3	2back/STIM_015.jpg
1507.58	0.484	1	2back	Block3	2back/STIM_016.jpg
1510.079	0.659	1	2back	Block3	2back/STIM_016.jpg
1513.97	0.566	1	2back	Block3	2back/STIM_016.jpg
1518.491	0.629	1	2back	Block3	2back/STIM_017.jpg
1522.414	0.606	1	2back	Block3	2back/STIM_017.jpg
1526.893	0.529	1	2back	Block3	2back/STIM_017.jpg
1530.71	0.652	1	2back	Block3	2back/STIM_018.jpg
1534.242	0.69	1	2back	Block3	2back/STIM_018.jpg
1537.538	0.403	1	2back	Block3	2back/STIM_018.jpg
1540.204	0.774	1	2back	Block3	2back/STIM_019.jpg
1543.57	0.371	1	2back	Block3	2back/STIM_019.jpg
1546.255	0.47	1	2back	Block3	2back/STIM_019.jpg
1550.08	0.643	1	2back	Block3	2back/STIM_020.jpg
1553.629	0.563	1	2back	Block3	2back/STIM_020.jpg
1558.075	0.83	1	2back	Block3	2back/STIM_020.jpg
1560.97	0.561	1	2back	Block3	2back/STIM_021.jpg
1565.165	0.434	1	2back	Block3	2back/STIM_021.jpg
1568.125	0.476	1	2back	Block3	2back/STIM_021.jpg
1571.672	0.681	1	2back	Block3	2back/STIM_022.jpg
1575.449	0.603	1	2back	Block3	2back/STIM_022.jpg
1578.824	0.476	1	2back	Block3	2back/STIM_022.jpg
1582.68	0.703	1	2back	Block3	2back/STIM_023.jpg
1586.637	0.575	1	2back	Block3	2back/STIM_023.jpg
1590.854	0.539	1	2back	Block3	2back/STIM_023.jpg
1593.6	0.801	1	2back	Block3	2back/STIM_024.jpg
1596.643	0.488	1	2back	Block3	2back/STIM_024.jpg
1599.267	0.642	1	2back	Block3	2back/STIM_024.jpg
1603.875	0.389	1	2back	Block3	2back/STIM_025.jpg
1607.178	0.524	1	2back	Block3	2back/STIM_025.jpg
1610.523	0.773	1	2back	Block3	2back/STIM_025.jpg
1613.592	0.812	1	2back	Block3	2back/STIM_026.jpg
1617.949	0.441	1	2back	Block3	2back/STIM_026.jpg
1621.58	0.458	1	2back	Block3	2back/STIM_026.jpg
1625.431	0.767	1	2back	Block3	2back/STIM_027.jpg
1630.053	0.55	1	2back	Block3	2back/STIM_027.jpg
1633.587	0.451	1	2back	Block3	2back/STIM_027.jpg
1636.393	0.752	1	2back	Block3	2back/STIM_028.jpg
1639.957	0.4	1	2back	Block3	2back/STIM_028.jpg
1644.255	0.563	1	2back	Block3	2back/STIM_028.jpg
1648.548	0.5	1	2back	Block3	2back/STIM_029.jpg
1652.832	0.813	1	2back	Block3	2back/STIM_029.jpg
1656.979	0.394	1	2back	Block3	2back/STIM_029.jpg
1660.639	0.817	1	2back	Block3	2back/STIM_030.jpg
1665.392	0.505	1	2back	Block3	2back/STIM_030.jpg
1669.566	0.566	1	2back	Block3	2back/STIM_030.jpg
1673.399	0.52	1	2back	Block3	2back/STIM_031.jpg
1676.409	0.387	1	2back	Block3	2back/STIM_031.jpg
1679.732	0.629	1	2back	Block3	2back/STIM_031.jpg
1683.059	0.357	1	2back	Block3	2back/STIM_032.jpg
1686.166	0.639	1	2back	Block3	2back/STIM_032.jpg
1689.401	0.422	1	2back	Block3	2back/STIM_032.jpg
1692.243	0.378	1	2back	Block3	2back/STIM_033.jpg
1696.217	0.503	0	2back	Block3	2back/STIM_033.jpg
1700.29	0.428	1	2back	Block3	2back/STIM_033.jpg
1703.272	0.752	1	2back	Block3	2back/STIM_034.jpg
1707.986	0.761	1	2back	Block3	2back/STIM_034.jpg
1711.035	0.656	1	2back	Block3	2back/STIM_034.jpg
1714.356	0.484	1	2back	Block3	2back/STIM_035.jpg
1718.038	0.644	1	2back	Block3	2back/STIM_035.jpg
1722.508	0.642	1	2back	Block3	2back/STIM_035.jpg
1726.861	0.501	1	2back	Block3	2back/STIM_036.jpg
1730.989	0.652	1	2back	Block3	2back/STIM_036.jpg
1734.548	0.75	1	2back	Block3	2back/STIM_036.jpg
1737.505	0.444	1	2back	Block3	2back/STIM_037.jpg
1741.329	0.723	1	2back	Block3	2back/STIM_037.jpg
1744.552	0.417	1	2back	Block3	2back/STIM_037.jpg
1748.155	0.505	1	2back	Block3	2back/STIM_038.jpg
1751.723	0.432	1	2back	Block3	2back/STIM_038.jpg
1754.347	0.361	1	2back	Block3	2back/STIM_038.jpg
1758.001	0.76	1	2back	Block3	2back/STIM_039.jpg
1761.51	0.446	1	2back	Block3	2back/STIM_039.jpg
1765.796	0.536	1	2back	Block3	2back/STIM_039.jpg
1768.784	0.434	1	0back	Block3	0back/STIM_000.jpg
1772.74	0.501	1	0back	Block3	0back/STIM_000.jpg
1776.862	0.464	1	0back	Block3	0back/STIM_000.jpg
1780.46	0.418	1	0back	Block3	0back/STIM_001.jpg
1784.308	0.549	1	0back	Block3	0back/STIM_001.jpg
1787.288	0.528	1	0back	Block3	0back/STIM_001.jpg
1791.055	0.364	1	0back	Block3	0back/STIM_002.jpg
1794.408	0.61	1	0back	Block3	0back/STIM_002.jpg
1797.506	0.366	1	0back	Block3	0back/STIM_002.jpg
1800.146	0.478	1	0back	Block3	0back/STIM_003.jpg
1803.756	0.494	1	0back	Block3	0back/STIM_003.jpg
1806.295	0.497	1	0back	Block3	0back/STIM_003.jpg
1809.594	0.583	1	0back	Block3	0back/STIM_004.jpg
1813.452	0.56	1	0back	Block3	0back/STIM_004.jpg
1816.312	0.59	1	0back	Block3	0back/STIM_004.jpg
1819.352	0.596	1	0back	Block3	0back/STIM_005.jpg
1822.321	0.396	1	0back	Block3	0back/STIM_005.jpg
1826.479	0.559	0	0back	Block3	0back/STIM_005.jpg
1830.272	0.565	1	0back	Block3	0back/STIM_006.jpg
1833.271	0.403	1	0back	Block3	0back/STIM_006.jpg
1835.684	0.585	1	0back	Block3	0back/STIM_006.jpg
1840.102	0.418	1	0back	Block3	0back/STIM_007.jpg
1843.324	0.45	1	0back	Block3	0back/STIM_007.jpg
1845.969	0.398	1	0back	Block3	0back/STIM_007.jpg
1849.149	0.646	1	0back	Block3	0back/STIM_008.jpg
1852.972	0.414	1	0back	Block3	0back/STIM_008.jpg
1856.182	0.645	1	0back	Block3	0back/STIM_008.jpg
1859.955	0.362	1	0back	Block3	0back/STIM_009.jpg
1863.463	0.522	1	0back	Block3	0back/STIM_009.jpg
1867.67	0.645	1	0back	Block3	0back/STIM_009.jpg
1871.772	0.34	1	0back	Block3	0back/STIM_010.jpg
1876.106	0.565	1	0back	Block3	0back/STIM_010.jpg
1878.684	0.402	1	0back	Block3	0back/STIM_010.jpg
1882.33	0.342	1	0back	Block3	0back/STIM_011.jpg
1886.223	0.349	1	0back	Block3	0back/STIM_011.jpg
1889.346	0.674	1	0back	Block3	0back/STIM_011.jpg
1892.372	0.445	1	0back	Block3	0back/STIM_012.jpg
1895.605	0.368	1	0back	Block3	0back/STIM_012.jpg
1899.125	0.399	1	0back	Block3	0back/STIM_012.jpg
1903.231	0.537	1	0back	Block3	0back/STIM_013.jpg
1907.588	0.544	1	0back	Block3	0back/STIM_013.jpg
1910.206	0.588	1	0back	Block3	0back/STIM_013.jpg
1913.968	0.538	1	0back	Block3	0back/STIM_014.jpg
1918.054	0.484	1	0back	Block3	0back/STIM_014.jpg
1922.163	0.595	0	0back	Block3	0back/STIM_014.jpg
1924.853	0.604	1	0back	Block3	0back/STIM_015.jpg
1928.351	0.517	1	0back	Block3	0back/STIM_015.jpg
1931.284	0.491	1	0back	Block3	0back/STIM_015.jpg
1935.653	0.626	1	0back	Block3	0back/STIM_016.jpg
1938.927	0.6	1	0back	Block3	0back/STIM_016.jpg
1942.599	0.359	1	0back	Block3	0back/STIM_016.jpg
1945.633	0.512	1	0back	Block3	0back/STIM_017.jpg
1949.532	0.444	1	0back	Block3	0back/STIM_017.jpg
1952.991	0.436	1	0back	Block3	0back/STIM_017.jpg
1955.866	0.433	1	0back	Block3	0back/STIM_018.jpg
1959.305	0.411	0	0back	Block3	0back/STIM_018.jpg
1962.729	0.42	1	0back	Block3	0back/STIM_018.jpg
1965.406	0.444	1	0back	Block3	0back/STIM_019.jpg
1969.051	0.633	1	0back	Block3	0back/STIM_019.jpg
1972.795	0.639	1	0back	Block3	0back/STIM_019.jpg
1976.25	0.683	1	2back	Block4	2back/STIM_000.jpg
1979.383	0.485	1	2back	Block4	2back/STIM_000.jpg
1983.675	0.356	1	2back	Block4	2back/STIM_000.jpg
1986.871	0.607	1	2back	Block4	2back/STIM_001.jpg
1990.51	0.465	1	2back	Block4	2back/STIM_001.jpg
1993.182	0.443	1	2back	Block4	2back/STIM_001.jpg
1996.85	0.676	1	2back	Block4	2back/STIM_002.jpg
2000.598	0.543	1	2back	Block4	2back/STIM_002.jpg
2003.244	0.684	1	2back	Block4	2back/STIM_002.jpg
2006.195	0.643	1	2back	Block4	2back/STIM_003.jpg
2009.663	0.503	1	2back	Block4	2back/STIM_003.jpg
2012.827	0.427	1	2back	Block4	2back/STIM_003.jpg
2017.191	0.404	1	2back	Block4	2back/STIM_004.jpg
2020.506	0.375	1	2back	Block4	2back/STIM_004.jpg
2023.647	0.792	1	2back	Block4	2back/STIM_004.jpg
2028.031	0.718	1	2back	Block4	2back/STIM_005.jpg
2032.214	0.381	1	2back	Block4	2back/STIM_005.jpg
2035.263	0.452	1	2back	Block4	2back/STIM_005.jpg
2038.378	0.391	1	2back	Block4	2back/STIM_006.jpg
2042.221	0.509	1	2back	Block4	2back/STIM_006.jpg
2046.605	0.56	1	2back	Block4	2back/STIM_006.jpg
2049.889	0.607	1	2back	Block4	2back/STIM_007.jpg
2052.51	0.57	1	2back	Block4	2back/STIM_007.jpg
2057.012	0.785	1	2back	Block4	2back/STIM_007.jpg
2060.986	0.719	1	2back	Block4	2back/STIM_008.jpg
2064.992	0.528	1	2back	Block4	2back/STIM_008.jpg
2067.98	0.383	1	2back	Block4	2back/STIM_008.jpg
2071.438	0.423	1	2back	Block4	2back/STIM_009.jpg
2074.041	0.808	1	2back	Block4	2back/STIM_009.jpg
2077.78	0.726	1	2back	Block4	2back/STIM_009.jpg
2080.622	0.813	1	2back	Block4	2back/STIM_010.jpg
2084.091	0.826	1	2back	Block4	2back/STIM_010.jpg
2088.284	0.609	1	2back	Block4	2back/STIM_010.jpg
2092.39	0.641	1	2back	Block4	2back/STIM_011.jpg
2096.534	0.813	1	2back	Block4	2back/STIM_011.jpg
2100.632	0.709	1	2back	Block4	2back/STIM_011.jpg
2104.58	0.591	1	2back	Block4	2back/STIM_012.jpg
2108.547	0.718	1	2back	Block4	2back/STIM_012.jpg
2111.56	0.549	1	2back	Block4	2back/STIM_012.jpg
2115.337	0.575	1	2back	Block4	2back/STIM_013.jpg
2118.345	0.691	1	2back	Block4	2back/STIM_013.jpg
2122.47	0.61	1	2back	Block4	2back/STIM_013.jpg
2125.34	0.82	1	2back	Block4	2back/STIM_014.jpg
2130.047	0.383	1	2back	Block4	2back/STIM_014.jpg
2132.633	0.469	1	2back	Block4	2back/STIM_014.jpg
2136.399	0.388	1	2back	Block4	2back/STIM_015.jpg
2139.282	0.534	1	2back	Block4	2back/STIM_015.jpg
2141.9	0.471	1	2back	Block4	2back/STIM_015.jpg
2144.982	0.669	0	2back	Block4	2back/STIM_016.jpg
2147.725	0.614	1	2back	Block4	2back/STIM_016.jpg
2150.904	0.456	1	2back	Block4	2back/STIM_016.jpg
2154.707	0.446	1	2back	Block4	2back/STIM_017.jpg
2158.939	0.717	1	2back	Block4	2back/STIM_017.jpg
2163.411	0.43	1	2back	Block4	2back/STIM_017.jpg
2167.427	0.537	1	2back	Block4	2back/STIM_018.jpg
2170.949	0.469	1	2back	Block4	2back/STIM_018.jpg
2174.046	0.78	1	2back	Block4	2back/STIM_018.jpg
2178.698	0.41	1	2back	Block4	2back/STIM_019.jpg
2182.003	0.828	1	2back	Block4	2back/STIM_019.jpg
2185.248	0.535	1	2back	Block4	2back/STIM_019.jpg
2189.42	0.535	1	2back	Block4	2back/STIM_020.jpg
2192.658	0.516	1	2back	Block4	2back/STIM_020.jpg
2196.528	0.398	1	2back	Block4	2back/STIM_020.jpg
2200.097	0.527	1	2back	Block4	2back/STIM_021.jpg
2202.641	0.663	1	2back	Block4	2back/STIM_021.jpg
2206.157	0.482	1	2back	Block4	2back/STIM_021.jpg
2210.424	0.79	1	2back	Block4	2back/STIM_022.jpg
2213.493	0.604	1	2back	Block4	2back/STIM_022.jpg
2217.1	0.713	1	2back	Block4	2back/STIM_022.jpg
2220.187	0.524	1	2back	Block4	2back/STIM_023.jpg
2224.364	0.46	1	2back	Block4	2back/STIM_023.jpg
2227.818	0.712	1	2back	Block4	2back/STIM_023.jpg
2232.017	0.445	1	2back	Block4	2back/STIM_024.jpg
2235.525	0.419	1	2back	Block4	2back/STIM_024.jpg
2239.768	0.408	1	2back	Block4	2back/STIM_024.jpg
2242.612	0.418	1	2back	Block4	2back/STIM_025.jpg
2246.229	0.719	0	2back	Block4	2back/STIM_025.jpg
2250.757	0.401	1	2back	Block4	2back/STIM_025.jpg
2254.956	0.44	1	2back	Block4	2back/STIM_026.jpg
2258.505	0.606	1	2back	Block4	2back/STIM_026.jpg
2262.101	0.408	1	2back	Block4	2back/STIM_026.jpg
2264.923	0.69	1	2back	Block4	2back/STIM_027.jpg
2269.139	0.744	1	2back	Block4	2back/STIM_027.jpg
2272.325	0.431	1	2back	Block4	2back/STIM_027.jpg
2275.325	0.362	1	2back	Block4	2back/STIM_028.jpg
2278.795	0.784	1	2back	Block4	2back/STIM_028.jpg
2282.324	0.601	1	2back	Block4	2back/STIM_028.jpg
2285.775	0.798	1	2back	Block4	2back/STIM_029.jpg
2289.202	0.706	0	2back	Block4	2back/STIM_029.jpg
2292.555	0.396	1	2back	Block4	2back/STIM_029.jpg
2295.906	0.531	1	2back	Block4	2back/STIM_030.jpg
2300.087	0.515	1	2back	Block4	2back/STIM_030.jpg
2303.847	0.393	1	2back	Block4	2back/STIM_030.jpg
2307.174	0.429	1	2back	Block4	2back/STIM_031.jpg
2311.168	0.766	1	2back	Block4	2back/STIM_031.jpg
2314.757	0.586	1	2back	Block4	2back/STIM_031.jpg
2318.707	0.609	1	2back	Block4	2back/STIM_032.jpg
2323.196	0.59	1	2back	Block4	2back/STIM_032.jpg
2326.851	0.752	1	2back	Block4	2back/STIM_032.jpg
2331.14	0.389	1	2back	Block4	2back/STIM_033.jpg
2334.715	0.643	1	2back	Block4	2back/STIM_033.jpg
2338.948	0.62	1	2back	Block4	2back/STIM_033.jpg
2341.953	0.38	1	2back	Block4	2back/STIM_034.jpg
2344.999	0.604	1	2back	Block4	2back/STIM_034.jpg
2349.44	0.629	1	2back	Block4	2back/STIM_034.jpg
2353.583	0.745	1	2back	Block4	2back/STIM_035.jpg
2357.399	0.36	1	2back	Block4	2back/STIM_035.jpg
2360.683	0.456	1	2back	Block4	2back/STIM_035.jpg
2364.667	0.517	1	2back	Block4	2back/STIM_036.jpg
2367.904	0.649	1	2back	Block4	2back/STIM_036.jpg
2370.681	0.82	1	2back	Block4	2back/STIM_036.jpg
2375.103	0.683	1	2back	Block4	2back/STIM_037.jpg
2379.65	0.624	1	2back	Block4	2back/STIM_037.jpg
2383.184	0.41	1	2back	Block4	2back/STIM_037.jpg
2386.3	0.359	1	2back	Block4	2back/STIM_038.jpg
2389.905	0.37	1	2back	Block4	2back/STIM_038.jpg
2393.602	0.668	1	2back	Block4	2back/STIM_038.jpg
2396.837	0.622	1	2back	Block4	2back/STIM_039.jpg
2400.006	0.656	1	2back	Block4	2back/STIM_039.jpg
2404.101	0.405	1	2back	Block4	2back/STIM_039.jpg
2407.79	0.544	1	0back	Block4	0back/STIM_000.jpg
2411.98	0.483	1	0back	Block4	0back/STIM_000.jpg
2414.538	0.412	1	0back	Block4	0back/STIM_000.jpg
2417.141	0.589	1	0back	Block4	0back/STIM_001.jpg
2420.035	0.65	1	0back	Block4	0back/STIM_001.jpg
2422.964	0.349	1	0back	Block4	0back/STIM_001.jpg
2426.807	0.675	1	0back	Block4	0back/STIM_002.jpg
2431.324	0.38	1	0back	Block4	0back/STIM_002.jpg
2435.156	0.66	1	0back	Block4	0back/STIM_002.jpg
2439.291	0.501	1	0back	Block4	0back/STIM_003.jpg
2442.656	0.392	1	0back	Block4	0back/STIM_003.jpg
2446.68	0.516	1	0back	Block4	0back/STIM_003.jpg
2449.42	0.352	1	0back	Block4	0back/STIM_004.jpg
2453.706	0.382	1	0back	Block4	0back/STIM_004.jpg
2457.249	0.524	1	0back	Block4	0back/STIM_004.jpg
2460.753	0.657	1	0back	Block4	0back/STIM_005.jpg
2463.434	0.511	1	0back	Block4	0back/STIM_005.jpg
2466.823	0.353	1	0back	Block4	0back/STIM_005.jpg
2470.052	0.55	1	0back	Block4	0back/STIM_006.jpg
2474.211	0.503	1	0back	Block4	0back/STIM_006.jpg
2478.232	0.668	1	0back	Block4	0back/STIM_006.jpg
2481.462	0.398	1	0back	Block4	0back/STIM_007.jpg
2485.606	0.624	1	0back	Block4	0back/STIM_007.jpg
2489.691	0.513	1	0back	Block4	0back/STIM_007.jpg
2493.79	0.551	1	0back	Block4	0back/STIM_008.jpg
2496.655	0.673	1	0back	Block4	0back/STIM_008.jpg
2501.24	0.504	1	0back	Block4	0back/STIM_008.jpg
2505.144	0.63	1	0back	Block4	0back/STIM_009.jpg
2508.057	0.344	1	0back	Block4	0back/STIM_009.jpg
2512.37	0.634	1	0back	Block4	0back/STIM_009.jpg
2516.57	0.425	1	0back	Block4	0back/STIM_010.jpg
2520.338	0.673	1	0back	Block4	0back/STIM_010.jpg
2523.258	0.574	1	0back	Block4	0back/STIM_010.jpg
2525.898	0.497	1	0back	Block4	0back/STIM_011.jpg
2528.844	0.526	1	0back	Block4	0back/STIM_011.jpg
2532.943	0.525	1	0back	Block4	0back/STIM_011.jpg
2536.907	0.48	1	0back	Block4	0back/STIM_012.jpg
2540.199	0.631	1	0back	Block4	0back/STIM_012.jpg
2544.784	0.398	1	0back	Block4	0back/STIM_012.jpg
2547.87	0.639	1	0back	Block4	0back/STIM_013.jpg
2551.768	0.402	1	0back	Block4	0back/STIM_013.jpg
2554.695	0.351	1	0back	Block4	0back/STIM_013.jpg
2557.541	0.546	1	0back	Block4	0back/STIM_014.jpg
2560.497	0.668	1	0back	Block4	0back/STIM_014.jpg
2564.513	0.407	1	0back	Block4	0back/STIM_014.jpg
2567.044	0.496	1	0back	Block4	0back/STIM_015.jpg
2569.695	0.392	1	0back	Block4	0back/STIM_015.jpg
2572.499	0.366	1	0back	Block4	0back/STIM_015.jpg
2574.909	0.356	1	0back	Block4	0back/STIM_016.jpg
2578.117	0.504	1	0back	Block4	0back/STIM_016.jpg
2581.026	0.373	1	0back	Block4	0back/STIM_016.jpg
2584.55	0.384	1	0back	Block4	0back/STIM_017.jpg
2587.796	0.646	1	0back	Block4	0back/STIM_017.jpg
2590.644	0.643	1	0back	Block4	0back/STIM_017.jpg
2594.747	0.527	1	0back	Block4	0back/STIM_018.jpg
2598.898	0.602	1	0back	Block4	0back/STIM_018.jpg
2602.329	0.595	1	0back	Block4	0back/STIM_018.jpg
2606.374	0.629	1	0back	Block4	0back/STIM_019.jpg
2610.887	0.644	1	0back	Block4	0back/STIM_019.jpg
2614.172	0.592	1	0back	Block4	0back/STIM_019.jpg
