onset	duration	response_time_ms	trial_type	learning_stage	stimulus	response_port
0.0	0.713	712.8	2back	Block1	2back/STIM_000.jpg	100
3.41	0.777	777.0	2back	Block1	2back/STIM_000.jpg	100
7.851	0.624	624.1	2back	Block1	2back/STIM_000.jpg	100
11.539	0.528	528.0	2back	Block1	2back/STIM_001.jpg	99
15.357	0.558	558.1	2back	Block1	2back/STIM_001.jpg	99
18.42	0.728	727.8	2back	Block1	2back/STIM_001.jpg	100
21.185	0.904	904.4	2back	Block1	2back/STIM_002.jpg	99
25.384	0.651	651.1	2back	Block1	2back/STIM_002.jpg	100
29.266	0.947	947.4	2back	Block1	2back/STIM_002.jpg	100
33.526	0.675	675.2	2back	Block1	2back/STIM_003.jpg	100
36.719	0.545	545.1	2back	Block1	2back/STIM_003.jpg	99
40.824	0.828	828.3	2back	Block1	2back/STIM_003.jpg	100
44.515	0.914	914.1	2back	Block1	2back/STIM_004.jpg	99
49.202	0.66	659.7	2back	Block1	2back/STIM_004.jpg	100
52.642	0.565	564.6	2back	Block1	2back/STIM_004.jpg	99
56.349	1.048	1047.7	2back	Block1	2back/STIM_005.jpg	99
60.586	1.097	1097.2	2back	Block1	2back/STIM_005.jpg	99
65.268	0.72	719.8	2back	Block1	2back/STIM_005.jpg	100
68.434	0.882	882.2	2back	Block1	2back/STIM_006.jpg	100
73.12	0.663	663.4	2back	Block1	2back/STIM_006.jpg	99
76.808	0.587	586.6	2back	Block1	2back/STIM_006.jpg	99
79.665	1.063	1063.2	2back	Block1	2back/STIM_007.jpg	100
84.581	0.659	658.8	2back	Block1	2back/STIM_007.jpg	99
87.956	0.928	928.1	2back	Block1	2back/STIM_007.jpg	99
92.868	0.516	516.0	2back	Block1	2back/STIM_008.jpg	100
96.828	0.652	652.0	2back	Block1	2back/STIM_008.jpg	100
100.45	0.937	937.1	2back	Block1	2back/STIM_008.jpg	100
104.746	0.988	988.0	2back	Block1	2back/STIM_009.jpg	100
108.948	0.539	539.0	2back	Block1	2back/STIM_009.jpg	100
112.46	0.828	828.0	2back	Block1	2back/STIM_009.jpg	99
116.628	0.72	720.2	2back	Block1	2back/STIM_010.jpg	100
120.755	0.808	807.5	2back	Block1	2back/STIM_010.jpg	100
124.474	0.604	603.7	2back	Block1	2back/STIM_010.jpg	99
128.987	1.15	1149.5	2back	Block1	2back/STIM_011.jpg	100
132.984	0.648	647.5	2back	Block1	2back/STIM_011.jpg	100
136.473	1.006	1005.8	2back	Block1	2back/STIM_011.jpg	99
140.996	0.759	759.4	2back	Block1	2back/STIM_012.jpg	100
144.208	0.633	633.3	2back	Block1	2back/STIM_012.jpg	100
148.062	0.746	745.9	2back	Block1	2back/STIM_012.jpg	99
151.215	1.036	1035.6	2back	Block1	2back/STIM_013.jpg	100
155.001	0.906	905.6	2back	Block1	2back/STIM_013.jpg	100
159.075	0.972	972.0	2back	Block1	2back/STIM_013.jpg	99
162.089	0.802	801.9	2back	Block1	2back/STIM_014.jpg	100
165.146	0.724	723.8	2back	Block1	2back/STIM_014.jpg	100
168.609	0.816	815.9	2back	Block1	2back/STIM_014.jpg	100
172.795	0.635	635.1	2back	Block1	2back/STIM_015.jpg	99
177.163	0.621	620.7	2back	Block1	2back/STIM_015.jpg	100
180.315	0.553	553.4	2back	Block1	2back/STIM_015.jpg	99
184.481	0.912	912.1	2back	Block1	2back/STIM_016.jpg	100
188.832	1.012	1011.7	2back	Block1	2back/STIM_016.jpg	100
193.826	0.622	621.8	2back	Block1	2back/STIM_016.jpg	100
196.606	0.901	901.0	2back	Block1	2back/STIM_017.jpg	100
200.269	0.868	867.8	2back	Block1	2back/STIM_017.jpg	100
203.244	0.596	595.8	2back	Block1	2back/STIM_017.jpg	99
206.737	0.692	692.0	2back	Block1	2back/STIM_018.jpg	99
211.305	0.611	611.2	2back	Block1	2back/STIM_018.jpg	100
214.201	0.653	652.7	2back	Block1	2back/STIM_018.jpg	100
217.72	1.056	1056.3	2back	Block1	2back/STIM_019.jpg	100
222.061	0.599	599.4	2back	Block1	2back/STIM_019.jpg	100
225.942	0.828	827.5	2back	Block1	2back/STIM_019.jpg	100
230.758	0.748	748.0	2back	Block1	2back/STIM_020.jpg	100
235.258	0.878	878.1	2back	Block1	2back/STIM_020.jpg	100
240.062	0.919	918.6	2back	Block1	2back/STIM_020.jpg	100
243.622	0.813	812.8	2back	Block1	2back/STIM_021.jpg	100
248.203	0.936	935.7	2back	Block1	2back/STIM_021.jpg	99
251.25	0.581	581.3	2back	Block1	2back/STIM_021.jpg	100
254.899	0.801	801.3	2back	Block1	2back/STIM_022.jpg	99
258.957	0.882	882.1	2back	Block1	2back/STIM_022.jpg	100
262.518	0.826	826.3	2back	Block1	2back/STIM_022.jpg	99
265.947	0.696	695.7	2back	Block1	2back/STIM_023.jpg	99
270.344	0.598	598.4	2back	Block1	2back/STIM_023.jpg	99
273.245	0.787	786.6	2back	Block1	2back/STIM_023.jpg	100
277.614	0.523	523.4	2back	Block1	2back/STIM_024.jpg	99
281.711	0.783	783.0	2back	Block1	2back/STIM_024.jpg	99
285.577	0.657	656.9	2back	Block1	2back/STIM_024.jpg	100
290.118	0.729	728.6	2back	Block1	2back/STIM_025.jpg	99
293.01	0.665	665.2	2back	Block1	2back/STIM_025.jpg	99
296.752	0.987	987.2	2back	Block1	2back/STIM_025.jpg	99
300.895	0.523	523.3	2back	Block1	2back/STIM_026.jpg	99
303.985	0.499	498.8	2back	Block1	2back/STIM_026.jpg	100
307.767	0.637	637.0	2back	Block1	2back/STIM_026.jpg	100
310.624	0.861	861.0	2back	Block1	2back/STIM_027.jpg	99
314.137	0.682	682.0	2back	Block1	2back/STIM_027.jpg	100
318.086	0.644	644.1	2back	Block1	2back/STIM_027.jpg	99
320.876	0.711	711.0	2back	Block1	2back/STIM_028.jpg	99
323.912	0.97	969.9	2back	Block1	2back/STIM_028.jpg	99
328.695	0.646	645.9	2back	Block1	2back/STIM_028.jpg	99
333.081	1.017	1016.6	2back	Block1	2back/STIM_029.jpg	99
336.276	1.035	1034.7	2back	Block1	2back/STIM_029.jpg	100
340.114	0.699	699.4	2back	Block1	2back/STIM_029.jpg	100
343.372	1.147	1147.4	2back	Block1	2back/STIM_030.jpg	99
347.096	0.549	548.6	2back	Block1	2back/STIM_030.jpg	100
351.006	0.656	656.5	2back	Block1	2back/STIM_030.jpg	100
354.104	0.986	985.7	2back	Block1	2back/STIM_031.jpg	100
357.929	0.963	962.9	2back	Block1	2back/STIM_031.jpg	99
361.358	0.986	986.2	2back	Block1	2back/STIM_031.jpg	99
365.91	0.874	874.2	2back	Block1	2back/STIM_032.jpg	100
369.68	0.571	570.6	2back	Block1	2back/STIM_032.jpg	99
374.108	0.532	532.5	2back	Block1	2back/STIM_032.jpg	99
378.351	0.739	739.2	2back	Block1	2back/STIM_033.jpg	100
381.756	1.117	1117.0	2back	Block1	2back/STIM_033.jpg	99
386.365	1.035	1035.3	2back	Block1	2back/STIM_033.jpg	100
390.863	0.575	575.2	2back	Block1	2back/STIM_034.jpg	99
395.378	1.049	1048.6	2back	Block1	2back/STIM_034.jpg	99
399.8	0.79	790.1	2back	Block1	2back/STIM_034.jpg	99
403.149	1.015	1015.1	2back	Block1	2back/STIM_035.jpg	99
408.12	0.636	635.8	2back	Block1	2back/STIM_035.jpg	99
411.146	0.78	779.5	2back	Block1	2back/STIM_035.jpg	100
415.568	0.917	916.7	2back	Block1	2back/STIM_036.jpg	99
419.865	1.015	1014.6	2back	Block1	2back/STIM_036.jpg	99
423.044	0.786	786.1	2back	Block1	2back/STIM_036.jpg	99
427.019	0.717	716.7	2back	Block1	2back/STIM_037.jpg	99
431.043	0.612	612.0	2back	Block1	2back/STIM_037.jpg	100
433.925	0.889	889.4	2back	Block1	2back/STIM_037.jpg	99
438.594	1.126	1126.0	2back	Block1	2back/STIM_038.jpg	99
442.938	1.026	1025.8	2back	Block1	2back/STIM_038.jpg	100
446.498	0.97	969.8	2back	Block1	2back/STIM_038.jpg	99
451.047	1.023	1022.8	2back	Block1	2back/STIM_039.jpg	99
454.327	1.003	1003.1	2back	Block1	2back/STIM_039.jpg	99
457.357	0.86	859.9	2back	Block1	2back/STIM_039.jpg	100
461.45	0.455	454.9	0back	Block1	0back/STIM_000.jpg	100
464.558	0.555	555.0	0back	Block1	0back/STIM_000.jpg	99
467.759	0.462	461.8	0back	Block1	0back/STIM_000.jpg	100
471.892	0.418	418.5	0back	Block1	0back/STIM_001.jpg	99
475.837	0.612	612.5	0back	Block1	0back/STIM_001.jpg	99
478.676	0.622	621.7	0back	Block1	0back/STIM_001.jpg	99
482.677	0.384	383.9	0back	Block1	0back/STIM_002.jpg	99
485.532	0.608	607.7	0back	Block1	0back/STIM_002.jpg	99
489.845	0.351	350.6	0back	Block1	0back/STIM_002.jpg	100
493.048	0.625	624.8	0back	Block1	0back/STIM_003.jpg	99
497.45	0.346	346.5	0back	Block1	0back/STIM_003.jpg	99
500.926	0.584	583.9	0back	Block1	0back/STIM_003.jpg	100
504.225	0.473	473.0	0back	Block1	0back/STIM_004.jpg	99
507.945	0.572	572.0	0back	Block1	0back/STIM_004.jpg	100
511.7	0.598	597.9	0back	Block1	0back/STIM_004.jpg	100
515.558	0.649	648.7	0back	Block1	0back/STIM_005.jpg	100
519.514	0.575	575.4	0back	Block1	0back/STIM_005.jpg	100
522.542	0.581	581.2	0back	Block1	0back/STIM_005.jpg	100
525.942	0.368	367.7	0back	Block1	0back/STIM_006.jpg	100
529.472	0.507	507.1	0back	Block1	0back/STIM_006.jpg	100
532.509	0.53	530.5	0back	Block1	0back/STIM_006.jpg	100
535.566	0.634	634.4	0back	Block1	0back/STIM_007.jpg	100
538.4	0.561	560.6	0back	Block1	0back/STIM_007.jpg	100
541.619	0.63	629.7	0back	Block1	0back/STIM_007.jpg	99
545.901	0.454	454.2	0back	Block1	0back/STIM_008.jpg	99
549.508	0.585	584.9	0back	Block1	0back/STIM_008.jpg	100
552.289	0.668	668.0	0back	Block1	0back/STIM_008.jpg	99
555.955	0.564	563.6	0back	Block1	0back/STIM_009.jpg	100
559.556	0.556	556.1	0back	Block1	0back/STIM_009.jpg	99
563.274	0.529	528.9	0back	Block1	0back/STIM_009.jpg	99
567.354	0.354	354.0	0back	Block1	0back/STIM_010.jpg	99
571.645	0.518	517.6	0back	Block1	0back/STIM_010.jpg	99
575.528	0.579	578.6	0back	Block1	0back/STIM_010.jpg	99
578.185	0.64	639.8	0back	Block1	0back/STIM_011.jpg	100
581.271	0.426	426.1	0back	Block1	0back/STIM_011.jpg	99
585.509	0.583	583.1	0back	Block1	0back/STIM_011.jpg	99
588.577	0.349	348.9	0back	Block1	0back/STIM_012.jpg	99
592.705	0.556	555.6	0back	Block1	0back/STIM_012.jpg	99
596.862	0.525	525.1	0back	Block1	0back/STIM_012.jpg	99
600.673	0.666	666.5	0back	Block1	0back/STIM_013.jpg	100
603.87	0.669	669.1	0back	Block1	0back/STIM_013.jpg	100
607.8	0.376	375.7	0back	Block1	0back/STIM_013.jpg	99
610.199	0.651	650.7	0back	Block1	0back/STIM_014.jpg	100
614.01	0.395	395.2	0back	Block1	0back/STIM_014.jpg	100
617.805	0.645	645.3	0back	Block1	0back/STIM_014.jpg	100
621.267	0.421	420.7	0back	Block1	0back/STIM_015.jpg	99
625.339	0.559	558.6	0back	Block1	0back/STIM_015.jpg	100
629.399	0.437	437.1	0back	Block1	0back/STIM_015.jpg	99
632.156	0.636	636.3	0back	Block1	0back/STIM_016.jpg	100
636.588	0.536	535.5	0back	Block1	0back/STIM_016.jpg	100
640.735	0.586	585.9	0back	Block1	0back/STIM_016.jpg	99
643.952	0.673	673.3	0back	Block1	0back/STIM_017.jpg	99
646.705	0.385	384.8	0back	Block1	0back/STIM_017.jpg	100
650.535	0.658	658.1	0back	Block1	0back/STIM_017.jpg	99
653.304	0.35	350.2	0back	Block1	0back/STIM_018.jpg	100
656.728	0.576	575.6	0back	Block1	0back/STIM_018.jpg	100
661.076	0.436	435.9	0back	Block1	0back/STIM_018.jpg	99
665.34	0.579	578.9	0back	Block1	0back/STIM_019.jpg	99
668.005	0.424	423.7	0back	Block1	0back/STIM_019.jpg	99
671.948	0.413	413.1	0back	Block1	0back/STIM_019.jpg	99
675.611	0.828	828.5	2back	Block2	2back/STIM_000.jpg	100
679.494	0.629	629.4	2back	Block2	2back/STIM_000.jpg	99
683.118	0.53	530.4	2back	Block2	2back/STIM_000.jpg	99
687.627	0.968	967.5	2back	Block2	2back/STIM_001.jpg	99
690.973	0.713	712.9	2back	Block2	2back/STIM_001.jpg	99
695.224	0.423	423.0	2back	Block2	2back/STIM_001.jpg	100
699.482	0.464	463.5	2back	Block2	2back/STIM_002.jpg	99
703.909	0.765	765.4	2back	Block2	2back/STIM_002.jpg	99
708.544	0.688	687.5	2back	Block2	2back/STIM_002.jpg	100
712.303	0.686	685.6	2back	Block2	2back/STIM_003.jpg	100
716.737	0.681	680.6	2back	Block2	2back/STIM_003.jpg	99
720.929	0.513	512.7	2back	Block2	2back/STIM_003.jpg	99
723.556	0.556	555.6	2back	Block2	2back/STIM_004.jpg	99
726.9	0.949	948.6	2back	Block2	2back/STIM_004.jpg	100
731.51	0.741	741.1	2back	Block2	2back/STIM_004.jpg	99
734.984	0.482	482.3	2back	Block2	2back/STIM_005.jpg	99
738.729	0.837	836.8	2back	Block2	2back/STIM_005.jpg	99
742.501	0.711	711.2	2back	Block2	2back/STIM_005.jpg	99
746.848	1.007	1006.9	2back	Block2	2back/STIM_006.jpg	100
751.442	0.669	668.7	2back	Block2	2back/STIM_006.jpg	100
754.897	0.546	546.2	2back	Block2	2back/STIM_006.jpg	100
758.618	0.945	945.3	2back	Block2	2back/STIM_007.jpg	100
763.132	0.41	409.5	2back	Block2	2back/STIM_007.jpg	99
767.399	0.453	452.9	2back	Block2	2back/STIM_007.jpg	99
770.026	0.602	602.0	2back	Block2	2back/STIM_008.jpg	99
774.567	0.624	624.0	2back	Block2	2back/STIM_008.jpg	100
777.615	0.797	796.8	2back	Block2	2back/STIM_008.jpg	99
780.611	0.972	972.2	2back	Block2	2back/STIM_009.jpg	100
785.278	0.452	452.2	2back	Block2	2back/STIM_009.jpg	100
789.58	0.557	556.9	2back	Block2	2back/STIM_009.jpg	100
793.067	0.924	924.5	2back	Block2	2back/STIM_010.jpg	100
797.424	0.817	816.6	2back	Block2	2back/STIM_010.jpg	99
801.157	0.671	671.0	2back	Block2	2back/STIM_010.jpg	99
803.866	0.477	476.9	2back	Block2	2back/STIM_011.jpg	99
808.209	0.62	620.1	2back	Block2	2back/STIM_011.jpg	99
811.695	0.643	642.7	2back	Block2	2back/STIM_011.jpg	100
815.639	0.472	472.5	2back	Block2	2back/STIM_012.jpg	99
819.857	0.84	840.1	2back	Block2	2back/STIM_012.jpg	100
823.288	0.383	383.2	2back	Block2	2back/STIM_012.jpg	99
826.779	0.745	745.0	2back	Block2	2back/STIM_013.jpg	100
829.959	0.517	517.4	2back	Block2	2back/STIM_013.jpg	99
833.55	0.451	450.8	2back	Block2	2back/STIM_013.jpg	100
837.075	0.559	558.9	2back	Block2	2back/STIM_014.jpg	99
841.455	0.866	866.0	2back	Block2	2back/STIM_014.jpg	100
844.883	0.862	861.8	2back	Block2	2back/STIM_014.jpg	99
848.058	0.892	892.0	2back	Block2	2back/STIM_015.jpg	99
850.996	0.949	949.0	2back	Block2	2back/STIM_015.jpg	100
855.374	0.88	880.4	2back	Block2	2back/STIM_015.jpg	99
859.182	0.447	447.0	2back	Block2	2back/STIM_016.jpg	99
861.802	0.458	457.6	2back	Block2	2back/STIM_016.jpg	99
864.997	0.515	515.4	2back	Block2	2back/STIM_016.jpg	100
869.309	0.484	483.7	2back	Block2	2back/STIM_017.jpg	99
872.423	0.408	408.3	2back	Block2	2back/STIM_017.jpg	100
875.393	0.862	862.3	2back	Block2	2back/STIM_017.jpg	99
879.713	0.935	934.9	2back	Block2	2back/STIM_018.jpg	99
883.311	0.638	637.9	2back	Block2	2back/STIM_018.jpg	99
886.373	0.561	561.0	2back	Block2	2back/STIM_018.jpg	99
889.857	0.836	835.9	2back	Block2	2back/STIM_019.jpg	100
894.136	0.657	656.6	2back	Block2	2back/STIM_019.jpg	100
898.313	0.519	519.2	2back	Block2	2back/STIM_019.jpg	100
901.262	0.628	627.5	2back	Block2	2back/STIM_020.jpg	99
905.32	0.827	826.6	2back	Block2	2back/STIM_020.jpg	100
908.871	0.782	782.2	2back	Block2	2back/STIM_020.jpg	100
912.306	0.544	544.0	2back	Block2	2back/STIM_021.jpg	100
915.641	0.65	649.9	2back	Block2	2back/STIM_021.jpg	99
918.653	0.715	715.1	2back	Block2	2back/STIM_021.jpg	99
921.881	0.483	483.1	2back	Block2	2back/STIM_022.jpg	100
926.23	0.944	943.5	2back	Block2	2back/STIM_022.jpg	100
929.308	0.436	436.4	2back	Block2	2back/STIM_022.jpg	99
932.569	0.89	889.8	2back	Block2	2back/STIM_023.jpg	99
936.967	0.548	548.2	2back	Block2	2back/STIM_023.jpg	99
940.49	0.434	434.5	2back	Block2	2back/STIM_023.jpg	100
944.686	0.886	885.9	2back	Block2	2back/STIM_024.jpg	100
947.74	0.902	901.9	2back	Block2	2back/STIM_024.jpg	100
950.788	0.539	539.2	2back	Block2	2back/STIM_024.jpg	100
953.524	0.477	476.9	2back	Block2	2back/STIM_025.jpg	99
956.936	0.929	928.6	2back	Block2	2back/STIM_025.jpg	100
961.778	0.514	513.9	2back	Block2	2back/STIM_025.jpg	100
964.517	0.91	910.0	2back	Block2	2back/STIM_026.jpg	99
967.757	0.886	885.8	2back	Block2	2back/STIM_026.jpg	100
972.09	0.712	712.0	2back	Block2	2back/STIM_026.jpg	100
975.448	0.519	519.2	2back	Block2	2back/STIM_027.jpg	99
979.899	0.565	564.8	2back	Block2	2back/STIM_027.jpg	100
983.831	0.539	539.0	2back	Block2	2back/STIM_027.jpg	99
987.309	0.626	625.8	2back	Block2	2back/STIM_028.jpg	99
991.445	0.716	716.0	2back	Block2	2back/STIM_028.jpg	99
994.517	0.513	512.8	2back	Block2	2back/STIM_028.jpg	99
997.264	0.984	984.0	2back	Block2	2back/STIM_029.jpg	99
1000.921	0.706	706.3	2back	Block2	2back/STIM_029.jpg	99
1004.964	0.656	655.7	2back	Block2	2back/STIM_029.jpg	100
1009.23	0.664	664.1	2back	Block2	2back/STIM_030.jpg	99
1013.105	0.538	538.1	2back	Block2	2back/STIM_030.jpg	100
1017.599	0.86	859.9	2back	Block2	2back/STIM_030.jpg	100
1020.605	0.842	841.5	2back	Block2	2back/STIM_031.jpg	99
1024.971	0.586	586.4	2back	Block2	2back/STIM_031.jpg	100
1029.246	0.45	449.9	2back	Block2	2back/STIM_031.jpg	100
1032.306	0.932	931.6	2back	Block2	2back/STIM_032.jpg	100
1036.022	0.681	680.8	2back	Block2	2back/STIM_032.jpg	100
1039.972	0.703	703.0	2back	Block2	2back/STIM_032.jpg	100
1043.558	0.853	852.6	2back	Block2	2back/STIM_033.jpg	99
1048.022	0.65	649.9	2back	Block2	2back/STIM_033.jpg	100
1051.776	0.586	585.6	2back	Block2	2back/STIM_033.jpg	100
1055.233	0.923	923.1	2back	Block2	2back/STIM_034.jpg	100
1059.452	0.909	908.7	2back	Block2	2back/STIM_034.jpg	100
1063.69	0.609	609.4	2back	Block2	2back/STIM_034.jpg	100
1067.105	0.75	749.7	2back	Block2	2back/STIM_035.jpg	99
1071.473	0.508	508.4	2back	Block2	2back/STIM_035.jpg	99
1075.139	0.767	766.6	2back	Block2	2back/STIM_035.jpg	100
1078.933	0.98	980.5	2back	Block2	2back/STIM_036.jpg	100
1083.212	0.731	730.6	2back	Block2	2back/STIM_036.jpg	99
1087.405	0.763	763.4	2back	Block2	2back/STIM_036.jpg	100
1092.109	0.451	450.7	2back	Block2	2back/STIM_037.jpg	100
1096.286	0.468	468.4	2back	Block2	2back/STIM_037.jpg	100
1099.673	0.476	475.6	2back	Block2	2back/STIM_037.jpg	99
1103.785	0.653	653.0	2back	Block2	2back/STIM_038.jpg	99
1106.874	0.799	799.0	2back	Block2	2back/STIM_038.jpg	100
1111.613	0.83	829.6	2back	Block2	2back/STIM_038.jpg	100
1116.022	0.455	455.0	2back	Block2	2back/STIM_039.jpg	99
1120.156	0.622	621.8	2back	Block2	2back/STIM_039.jpg	99
1124.238	0.691	690.9	2back	Block2	2back/STIM_039.jpg	100
1127.92	0.636	635.8	0back	Block2	0back/STIM_000.jpg	100
1131.461	0.357	357.2	0back	Block2	0back/STIM_000.jpg	100
1134.195	0.396	396.5	0back	Block2	0back/STIM_000.jpg	99
1137.309	0.632	631.9	0back	Block2	0back/STIM_001.jpg	100
1141.466	0.408	408.3	0back	Block2	0back/STIM_001.jpg	100
1145.567	0.551	551.1	0back	Block2	0back/STIM_001.jpg	100
1148.876	0.517	517.4	0back	Block2	0back/STIM_002.jpg	99
1152.949	0.399	398.9	0back	Block2	0back/STIM_002.jpg	99
1155.763	0.465	464.6	0back	Block2	0back/STIM_002.jpg	100
1159.018	0.497	497.1	0back	Block2	0back/STIM_003.jpg	100
1162.283	0.413	412.8	0back	Block2	0back/STIM_003.jpg	100
1165.704	0.6	599.5	0back	Block2	0back/STIM_003.jpg	99
1168.915	0.493	492.6	0back	Block2	0back/STIM_004.jpg	100
1171.881	0.678	677.7	0back	Block2	0back/STIM_004.jpg	99
1174.722	0.497	497.1	0back	Block2	0back/STIM_004.jpg	100
1178.518	0.659	658.9	0back	Block2	0back/STIM_005.jpg	100
1181.836	0.496	496.2	0back	Block2	0back/STIM_005.jpg	100
1185.966	0.407	406.8	0back	Block2	0back/STIM_005.jpg	100
1190.353	0.603	603.2	0back	Block2	0back/STIM_006.jpg	99
1193.39	0.36	359.9	0back	Block2	0back/STIM_006.jpg	100
1195.888	0.54	540.2	0back	Block2	0back/STIM_006.jpg	100
1200.39	0.449	448.9	0back	Block2	0back/STIM_007.jpg	100
1204.379	0.497	496.9	0back	Block2	0back/STIM_007.jpg	99
1207.592	0.675	675.2	0back	Block2	0back/STIM_007.jpg	100
1212.061	0.629	628.9	0back	Block2	0back/STIM_008.jpg	99
1216.52	0.455	455.4	0back	Block2	0back/STIM_008.jpg	100
1219.354	0.671	671.4	0back	Block2	0back/STIM_008.jpg	100
1223.095	0.494	493.7	0back	Block2	0back/STIM_009.jpg	99
1225.672	0.668	667.7	0back	Block2	0back/STIM_009.jpg	99
1230.092	0.433	433.3	0back	Block2	0back/STIM_009.jpg	99
1233.538	0.605	604.7	0back	Block2	0back/STIM_010.jpg	99
1237.326	0.585	585.2	0back	Block2	0back/STIM_010.jpg	99
1240.59	0.422	422.2	0back	Block2	0back/STIM_010.jpg	99
1243.588	0.633	633.3	0back	Block2	0back/STIM_011.jpg	99
1247.511	0.509	509.4	0back	Block2	0back/STIM_011.jpg	100
1251.239	0.572	571.8	0back	Block2	0back/STIM_011.jpg	99
1254.883	0.594	593.5	0back	Block2	0back/STIM_012.jpg	100
1257.59	0.429	429.1	0back	Block2	0back/STIM_012.jpg	99
1260.599	0.618	618.0	0back	Block2	0back/STIM_012.jpg	100
1264.47	0.477	476.8	0back	Block2	0back/STIM_013.jpg	99
1267.558	0.594	593.5	0back	Block2	0back/STIM_013.jpg	100
1270.817	0.633	633.1	0back	Block2	0back/STIM_013.jpg	99
1273.682	0.566	566.1	0back	Block2	0back/STIM_014.jpg	100
1277.816	0.519	519.4	0back	Block2	0back/STIM_014.jpg	100
1281.244	0.528	528.4	0back	Block2	0back/STIM_014.jpg	100
1285.568	0.46	459.7	0back	Block2	0back/STIM_015.jpg	100
1289.165	0.573	572.7	0back	Block2	0back/STIM_015.jpg	99
1293.513	0.635	635.0	0back	Block2	0back/STIM_015.jpg	99
1297.685	0.522	522.4	0back	Block2	0back/STIM_016.jpg	100
1301.71	0.532	532.1	0back	Block2	0back/STIM_016.jpg	99
1304.629	0.468	468.0	0back	Block2	0back/STIM_016.jpg	99
1307.407	0.462	462.3	0back	Block2	0back/STIM_017.jpg	100
1311.01	0.669	669.1	0back	Block2	0back/STIM_017.jpg	99
1314.248	0.457	456.7	0back	Block2	0back/STIM_017.jpg	99
1317.668	0.652	652.0	0back	Block2	0back/STIM_018.jpg	100
1321.412	0.622	622.0	0back	Block2	0back/STIM_018.jpg	99
1325.756	0.521	521.3	0back	Block2	0back/STIM_018.jpg	100
1329.251	0.437	436.7	0back	Block2	0back/STIM_019.jpg	100
1333.321	0.658	657.5	0back	Block2	0back/STIM_019.jpg	99
1337.423	0.568	567.8	0back	Block2	0back/STIM_019.jpg	99
1340.312	0.511	511.1	2back	Block3	2back/STIM_000.jpg	100
1344.168	0.453	453.2	2back	Block3	2back/STIM_000.jpg	100
1347.617	0.738	737.9	2back	Block3	2back/STIM_000.jpg	99
1351.94	0.806	806.3	2back	Block3	2back/STIM_001.jpg	100
1355.348	0.659	659.3	2back	Block3	2back/STIM_001.jpg	100
1359.508	0.614	614.1	2back	Block3	2back/STIM_001.jpg	99
1362.979	0.691	691.1	2back	Block3	2back/STIM_002.jpg	99
1366.818	0.576	576.2	2back	Block3	2back/STIM_002.jpg	100
1370.946	0.701	700.9	2back	Block3	2back/STIM_002.jpg	100
1374.989	0.762	762.2	2back	Block3	2back/STIM_003.jpg	99
1378.604	0.511	511.2	2back	Block3	2back/STIM_003.jpg	100
1381.342	0.646	645.9	2back	Block3	2back/STIM_003.jpg	99
1384.619	0.815	815.3	2back	Block3	2back/STIM_004.jpg	99
1389.417	0.499	499.4	2back	Block3	2back/STIM_004.jpg	99
1393.542	0.65	650.5	2back	Block3	2back/STIM_004.jpg	100
1396.383	0.626	626.4	2back	Block3	2back/STIM_005.jpg	100
1399.177	0.383	383.2	2back	Block3	2back/STIM_005.jpg	100
1402.095	0.376	376.4	2back	Block3	2back/STIM_005.jpg	99
1405.727	0.653	653.0	2back	Block3	2back/STIM_006.jpg	100
1408.53	0.781	781.3	2back	Block3	2back/STIM_006.jpg	99
1412.69	0.763	762.9	2back	Block3	2back/STIM_006.jpg	99
1416.036	0.516	515.5	2back	Block3	2back/STIM_007.jpg	100
1418.554	0.791	791.3	2back	Block3	2back/STIM_007.jpg	100
1421.718	0.401	401.4	2back	Block3	2back/STIM_007.jpg	100
1425.329	0.701	701.2	2back	Block3	2back/STIM_008.jpg	99
1429.781	0.808	808.2	2back	Block3	2back/STIM_008.jpg	99
1433.24	0.475	474.7	2back	Block3	2back/STIM_008.jpg	99
1436.792	0.718	717.7	2back	Block3	2back/STIM_009.jpg	99
1440.483	0.505	504.7	2back	Block3	2back/STIM_009.jpg	100
1443.612	0.582	581.7	2back	Block3	2back/STIM_009.jpg	99
1447.926	0.6	600.0	2back	Block3	2back/STIM_010.jpg	99
1451.139	0.396	395.9	2back	Block3	2back/STIM_010.jpg	99
1455.102	0.418	417.6	2back	Block3	2back/STIM_010.jpg	99
1458.127	0.772	772.5	2back	Block3	2back/STIM_011.jpg	100
1462.601	0.786	785.6	2back	Block3	2back/STIM_011.jpg	99
1465.775	0.742	741.7	2back	Block3	2back/STIM_011.jpg	99
1468.852	0.634	633.8	2back	Block3	2back/STIM_012.jpg	100
1473.267	0.593	592.9	2back	Block3	2back/STIM_012.jpg	99
1475.971	0.595	595.2	2back	Block3	2back/STIM_012.jpg	100
1478.911	0.799	798.8	2back	Block3	2back/STIM_013.jpg	99
1481.801	0.781	781.2	2back	Block3	2back/STIM_013.jpg	99
1485.067	0.384	383.8	2back	Block3	2back/STIM_013.jpg	100
1487.775	0.436	436.4	2back	Block3	2back/STIM_014.jpg	99
1490.294	0.648	648.5	2back	Block3	2back/STIM_014.jpg	99
1493.674	0.449	448.6	2back	Block3	2back/STIM_014.jpg	99
1497.821	0.385	384.6	2back	Block3	2back/STIM_015.jpg	100
1500.368	0.418	418.1	2back	Block3	2back/STIM_015.jpg	99
1503.124	0.708	707.9	2back	Block3	2back/STIM_015.jpg	99
1507.58	0.484	484.4	2back	Block3	2back/STIM_016.jpg	99
1510.079	0.659	659.2	2back	Block3	2back/STIM_016.jpg	99
1513.97	0.566	565.8	2back	Block3	2back/STIM_016.jpg	99
1518.491	0.629	628.9	2back	Block3	2back/STIM_017.jpg	100
1522.414	0.606	606.5	2back	Block3	2back/STIM_017.jpg	100
1526.893	0.529	528.9	2back	Block3	2back/STIM_017.jpg	100
1530.71	0.652	652.2	2back	Block3	2back/STIM_018.jpg	100
1534.242	0.69	689.6	2back	Block3	2back/STIM_018.jpg	100
1537.538	0.403	402.8	2back	Block3	2back/STIM_018.jpg	100
1540.204	0.774	773.9	2back	Block3	2back/STIM_019.jpg	99
1543.57	0.371	371.1	2back	Block3	2back/STIM_019.jpg	100
1546.255	0.47	469.8	2back	Block3	2back/STIM_019.jpg	100
1550.08	0.643	643.4	2back	Block3	2back/STIM_020.jpg	100
1553.629	0.563	562.8	2back	Block3	2back/STIM_020.jpg	100
1558.075	0.83	830.3	2back	Block3	2back/STIM_020.jpg	99
1560.97	0.561	560.9	2back	Block3	2back/STIM_021.jpg	99
1565.165	0.434	434.2	2back	Block3	2back/STIM_021.jpg	100
1568.125	0.476	476.5	2back	Block3	2back/STIM_021.jpg	99
1571.672	0.681	681.0	2back	Block3	2back/STIM_022.jpg	100
1575.449	0.603	603.1	2back	Block3	2back/STIM_022.jpg	100
1578.824	0.476	476.0	2back	Block3	2back/STIM_022.jpg	100
1582.68	0.703	702.7	2back	Block3	2back/STIM_023.jpg	100
1586.637	0.575	575.4	2back	Block3	2back/STIM_023.jpg	99
1590.854	0.539	538.8	2back	Block3	2back/STIM_023.jpg	100
1593.6	0.801	800.9	2back	Block3	2back/STIM_024.jpg	99
1596.643	0.488	487.9	2back	Block3	2back/STIM_024.jpg	99
1599.267	0.642	641.7	2back	Block3	2back/STIM_024.jpg	100
1603.875	0.389	389.3	2back	Block3	2back/STIM_025.jpg	100
1607.178	0.524	524.1	2back	Block3	2back/STIM_025.jpg	100
1610.523	0.773	772.7	2back	Block3	2back/STIM_025.jpg	99
1613.592	0.812	812.0	2back	Block3	2back/STIM_026.jpg	100
1617.949	0.441	440.8	2back	Block3	2back/STIM_026.jpg	100
1621.58	0.458	457.9	2back	Block3	2back/STIM_026.jpg	99
1625.431	0.767	767.4	2back	Block3	2back/STIM_027.jpg	99
1630.053	0.55	549.5	2back	Block3	2back/STIM_027.jpg	99
1633.587	0.451	450.6	2back	Block3	2back/STIM_027.jpg	100
1636.393	0.752	752.4	2back	Block3	2back/STIM_028.jpg	99
1639.957	0.4	400.5	2back	Block3	2back/STIM_028.jpg	100
1644.255	0.563	563.1	2back	Block3	2back/STIM_028.jpg	99
1648.548	0.5	499.5	2back	Block3	2back/STIM_029.jpg	100
1652.832	0.813	813.2	2back	Block3	2back/STIM_029.jpg	100
1656.979	0.394	394.3	2back	Block3	2back/STIM_029.jpg	99
1660.639	0.817	817.3	2back	Block3	2back/STIM_030.jpg	100
1665.392	0.505	504.9	2back	Block3	2back/STIM_030.jpg	99
1669.566	0.566	565.5	2back	Block3	2back/STIM_030.jpg	100
1673.399	0.52	519.7	2back	Block3	2back/STIM_031.jpg	99
1676.409	0.387	386.6	2back	Block3	2back/STIM_031.jpg	100
1679.732	0.629	629.4	2back	Block3	2back/STIM_031.jpg	100
1683.059	0.357	357.1	2back	Block3	2back/STIM_032.jpg	100
1686.166	0.639	639.1	2back	Block3	2back/STIM_032.jpg	99
1689.401	0.422	422.1	2back	Block3	2back/STIM_032.jpg	100
1692.243	0.378	378.2	2back	Block3	2back/STIM_033.jpg	100
1696.217	0.503	503.3	2back	Block3	2back/STIM_033.jpg	100
1700.29	0.428	428.2	2back	Block3	2back/STIM_033.jpg	100
1703.272	0.752	752.5	2back	Block3	2back/STIM_034.jpg	100
1707.986	0.761	761.4	2back	Block3	2back/STIM_034.jpg	99
1711.035	0.656	655.8	2back	Block3	2back/STIM_034.jpg	100
1714.356	0.484	484.0	2back	Block3	2back/STIM_035.jpg	100
1718.038	0.644	644.3	2back	Block3	2back/STIM_035.jpg	99
1722.508	0.642	641.5	2back	Block3	2back/STIM_035.jpg	100
1726.861	0.501	501.4	2back	Block3	2back/STIM_036.jpg	99
1730.989	0.652	651.5	2back	Block3	2back/STIM_036.jpg	100
1734.548	0.75	749.7	2back	Block3	2back/STIM_036.jpg	100
1737.505	0.444	443.8	2back	Block3	2back/STIM_037.jpg	99
1741.329	0.723	722.6	2back	Block3	2back/STIM_037.jpg	99
1744.552	0.417	417.4	2back	Block3	2back/STIM_037.jpg	99
1748.155	0.505	504.6	2back	Block3	2back/STIM_038.jpg	100
1751.723	0.432	431.8	2back	Block3	2back/STIM_038.jpg	100
1754.347	0.361	360.9	2back	Block3	2back/STIM_038.jpg	99
1758.001	0.76	759.6	2back	Block3	2back/STIM_039.jpg	100
1761.51	0.446	445.6	2back	Block3	2back/STIM_039.jpg	100
1765.796	0.536	535.6	2back	Block3	2back/STIM_039.jpg	99
1768.784	0.434	434.2	0back	Block3	0back/STIM_000.jpg	100
1772.74	0.501	501.3	0back	Block3	0back/STIM_000.jpg	100
1776.862	0.464	464.5	0back	Block3	0back/STIM_000.jpg	99
1780.46	0.418	417.8	0back	Block3	0back/STIM_001.jpg	100
1784.308	0.549	548.7	0back	Block3	0back/STIM_001.jpg	99
1787.288	0.528	527.8	0back	Block3	0back/STIM_001.jpg	100
1791.055	0.364	364.3	0back	Block3	0back/STIM_002.jpg	100
1794.408	0.61	610.0	0back	Block3	0back/STIM_002.jpg	99
1797.506	0.366	366.3	0back	Block3	0back/STIM_002.jpg	100
1800.146	0.478	477.7	0back	Block3	0back/STIM_003.jpg	100
1803.756	0.494	493.9	0back	Block3	0back/STIM_003.jpg	100
1806.295	0.497	496.7	0back	Block3	0back/STIM_003.jpg	100
1809.594	0.583	583.2	0back	Block3	0back/STIM_004.jpg	100
1813.452	0.56	559.8	0back	Block3	0back/STIM_004.jpg	100
1816.312	0.59	589.6	0back	Block3	0back/STIM_004.jpg	100
1819.352	0.596	595.7	0back	Block3	0back/STIM_005.jpg	99
1822.321	0.396	395.9	0back	Block3	0back/STIM_005.jpg	99
1826.479	0.559	558.8	0back	Block3	0back/STIM_005.jpg	100
1830.272	0.565	565.4	0back	Block3	0back/STIM_006.jpg	99
1833.271	0.403	403.0	0back	Block3	0back/STIM_006.jpg	99
1835.684	0.585	584.6	0back	Block3	0back/STIM_006.jpg	100
1840.102	0.418	417.8	0back	Block3	0back/STIM_007.jpg	99
1843.324	0.45	450.1	0back	Block3	0back/STIM_007.jpg	100
1845.969	0.398	398.4	0back	Block3	0back/STIM_007.jpg	99
1849.149	0.646	646.0	0back	Block3	0back/STIM_008.jpg	99
1852.972	0.414	413.8	0back	Block3	0back/STIM_008.jpg	99
1856.182	0.645	645.1	0back	Block3	0back/STIM_008.jpg	99
1859.955	0.362	362.4	0back	Block3	0back/STIM_009.jpg	100
1863.463	0.522	521.8	0back	Block3	0back/STIM_009.jpg	100
1867.67	0.645	644.7	0back	Block3	0back/STIM_009.jpg	100
1871.772	0.34	339.5	0back	Block3	0back/STIM_010.jpg	99
1876.106	0.565	564.7	0back	Block3	0back/STIM_010.jpg	99
1878.684	0.402	402.2	0back	Block3	0back/STIM_010.jpg	99
1882.33	0.342	342.0	0back	Block3	0back/STIM_011.jpg	100
1886.223	0.349	349.3	0back	Block3	0back/STIM_011.jpg	99
1889.346	0.674	674.5	0back	Block3	0back/STIM_011.jpg	100
1892.372	0.445	445.1	0back	Block3	0back/STIM_012.jpg	100
1895.605	0.368	367.7	0back	Block3	0back/STIM_012.jpg	99
1899.125	0.399	399.4	0back	Block3	0back/STIM_012.jpg	100
1903.231	0.537	537.0	0back	Block3	0back/STIM_013.jpg	100
1907.588	0.544	543.7	0back	Block3	0back/STIM_013.jpg	99
1910.206	0.588	588.0	0back	Block3	0back/STIM_013.jpg	99
1913.968	0.538	538.5	0back	Block3	0back/STIM_014.jpg	99
1918.054	0.484	483.8	0back	Block3	0back/STIM_014.jpg	100
1922.163	0.595	594.6	0back	Block3	0back/STIM_014.jpg	100
1924.853	0.604	604.0	0back	Block3	0back/STIM_015.jpg	100
1928.351	0.517	516.6	0back	Block3	0back/STIM_015.jpg	100
1931.284	0.491	491.4	0back	Block3	0back/STIM_015.jpg	100
1935.653	0.626	626.0	0back	Block3	0back/STIM_016.jpg	99
1938.927	0.6	599.7	0back	Block3	0back/STIM_016.jpg	100
1942.599	0.359	359.3	0back	Block3	0back/STIM_016.jpg	100
1945.633	0.512	512.1	0back	Block3	0back/STIM_017.jpg	99
1949.532	0.444	444.5	0back	Block3	0back/STIM_017.jpg	99
1952.991	0.436	436.1	0back	Block3	0back/STIM_017.jpg	100
1955.866	0.433	433.0	0back	Block3	0back/STIM_018.jpg	99
1959.305	0.411	411.2	0back	Block3	0back/STIM_018.jpg	99
1962.729	0.42	420.0	0back	Block3	0back/STIM_018.jpg	100
1965.406	0.444	444.3	0back	Block3	0back/STIM_019.jpg	99
1969.051	0.633	632.6	0back	Block3	0back/STIM_019.jpg	100
1972.795	0.639	638.9	0back	Block3	0back/STIM_019.jpg	99
1976.25	0.683	682.6	2back	Block4	2back/STIM_000.jpg	100
1979.383	0.485	484.9	2back	Block4	2back/STIM_000.jpg	99
1983.675	0.356	356.4	2back	Block4	2back/STIM_000.jpg	100
1986.871	0.607	607.3	2back	Block4	2back/STIM_001.jpg	99
1990.51	0.465	465.3	2back	Block4	2back/STIM_001.jpg	100
1993.182	0.443	443.0	2back	Block4	2back/STIM_001.jpg	99
1996.85	0.676	676.3	2back	Block4	2back/STIM_002.jpg	100
2000.598	0.543	542.6	2back	Block4	2back/STIM_002.jpg	99
2003.244	0.684	684.4	2back	Block4	2back/STIM_002.jpg	99
2006.195	0.643	643.4	2back	Block4	2back/STIM_003.jpg	100
2009.663	0.503	503.4	2back	Block4	2back/STIM_003.jpg	99
2012.827	0.427	426.8	2back	Block4	2back/STIM_003.jpg	100
2017.191	0.404	404.0	2back	Block4	2back/STIM_004.jpg	100
2020.506	0.375	374.8	2back	Block4	2back/STIM_004.jpg	99
2023.647	0.792	792.0	2back	Block4	2back/STIM_004.jpg	99
2028.031	0.718	718.0	2back	Block4	2back/STIM_005.jpg	99
2032.214	0.381	380.6	2back	Block4	2back/STIM_005.jpg	99
2035.263	0.452	451.5	2back	Block4	2back/STIM_005.jpg	99
2038.378	0.391	390.8	2back	Block4	2back/STIM_006.jpg	100
2042.221	0.509	509.3	2back	Block4	2back/STIM_006.jpg	100
2046.605	0.56	560.4	2back	Block4	2back/STIM_006.jpg	100
2049.889	0.607	607.1	2back	Block4	2back/STIM_007.jpg	100
2052.51	0.57	569.6	2back	Block4	2back/STIM_007.jpg	99
2057.012	0.785	785.4	2back	Block4	2back/STIM_007.jpg	99
2060.986	0.719	719.3	2back	Block4	2back/STIM_008.jpg	100
2064.992	0.528	528.1	2back	Block4	2back/STIM_008.jpg	99
2067.98	0.383	382.6	2back	Block4	2back/STIM_008.jpg	99
2071.438	0.423	422.6	2back	Block4	2back/STIM_009.jpg	100
2074.041	0.808	807.9	2back	Block4	2back/STIM_009.jpg	99
2077.78	0.726	726.4	2back	Block4	2back/STIM_009.jpg	99
2080.622	0.813	812.6	2back	Block4	2back/STIM_010.jpg	100
2084.091	0.826	826.5	2back	Block4	2back/STIM_010.jpg	99
2088.284	0.609	609.1	2back	Block4	2back/STIM_010.jpg	100
2092.39	0.641	641.4	2back	Block4	2back/STIM_011.jpg	100
2096.534	0.813	813.4	2back	Block4	2back/STIM_011.jpg	99
2100.632	0.709	709.2	2back	Block4	2back/STIM_011.jpg	100
2104.58	0.591	590.8	2back	Block4	2back/STIM_012.jpg	99
2108.547	0.718	717.9	2back	Block4	2back/STIM_012.jpg	100
2111.56	0.549	549.0	2back	Block4	2back/STIM_012.jpg	100
2115.337	0.575	575.4	2back	Block4	2back/STIM_013.jpg	99
2118.345	0.691	690.9	2back	Block4	2back/STIM_013.jpg	100
2122.47	0.61	610.4	2back	Block4	2back/STIM_013.jpg	99
2125.34	0.82	820.2	2back	Block4	2back/STIM_014.jpg	99
2130.047	0.383	383.0	2back	Block4	2back/STIM_014.jpg	99
2132.633	0.469	468.6	2back	Block4	2back/STIM_014.jpg	99
2136.399	0.388	388.5	2back	Block4	2back/STIM_015.jpg	99
2139.282	0.534	534.5	2back	Block4	2back/STIM_015.jpg	99
2141.9	0.471	471.0	2back	Block4	2back/STIM_015.jpg	100
2144.982	0.669	669.4	2back	Block4	2back/STIM_016.jpg	100
2147.725	0.614	614.5	2back	Block4	2back/STIM_016.jpg	100
2150.904	0.456	455.8	2back	Block4	2back/STIM_016.jpg	100
2154.707	0.446	446.1	2back	Block4	2back/STIM_017.jpg	100
2158.939	0.717	717.0	2back	Block4	2back/STIM_017.jpg	99
2163.411	0.43	429.8	2back	Block4	2back/STIM_017.jpg	99
2167.427	0.537	536.8	2back	Block4	2back/STIM_018.jpg	99
2170.949	0.469	468.6	2back	Block4	2back/STIM_018.jpg	99
2174.046	0.78	780.4	2back	Block4	2back/STIM_018.jpg	99
2178.698	0.41	410.5	2back	Block4	2back/STIM_019.jpg	99
2182.003	0.828	827.9	2back	Block4	2back/STIM_019.jpg	99
2185.248	0.535	535.1	2back	Block4	2back/STIM_019.jpg	100
2189.42	0.535	535.3	2back	Block4	2back/STIM_020.jpg	100
2192.658	0.516	515.9	2back	Block4	2back/STIM_020.jpg	99
2196.528	0.398	398.3	2back	Block4	2back/STIM_020.jpg	99
2200.097	0.527	526.7	2back	Block4	2back/STIM_021.jpg	100
2202.641	0.663	663.3	2back	Block4	2back/STIM_021.jpg	99
2206.157	0.482	482.1	2back	Block4	2back/STIM_021.jpg	99
2210.424	0.79	789.6	2back	Block4	2back/STIM_022.jpg	99
2213.493	0.604	603.7	2back	Block4	2back/STIM_022.jpg	100
2217.1	0.713	713.3	2back	Block4	2back/STIM_022.jpg	99
2220.187	0.524	523.9	2back	Block4	2back/STIM_023.jpg	99
2224.364	0.46	460.1	2back	Block4	2back/STIM_023.jpg	100
2227.818	0.712	712.1	2back	Block4	2back/STIM_023.jpg	100
2232.017	0.445	445.1	2back	Block4	2back/STIM_024.jpg	99
2235.525	0.419	418.7	2back	Block4	2back/STIM_024.jpg	100
2239.768	0.408	407.9	2back	Block4	2back/STIM_024.jpg	99
2242.612	0.418	418.0	2back	Block4	2back/STIM_025.jpg	100
2246.229	0.719	718.6	2back	Block4	2back/STIM_025.jpg	99
2250.757	0.401	401.0	2back	Block4	2back/STIM_025.jpg	100
2254.956	0.44	440.0	2back	Block4	2back/STIM_026.jpg	99
2258.505	0.606	606.5	2back	Block4	2back/STIM_026.jpg	100
2262.101	0.408	408.4	2back	Block4	2back/STIM_026.jpg	100
2264.923	0.69	689.9	2back	Block4	2back/STIM_027.jpg	100
2269.139	0.744	743.9	2back	Block4	2back/STIM_027.jpg	99
2272.325	0.431	431.0	2back	Block4	2back/STIM_027.jpg	100
2275.325	0.362	361.9	2back	Block4	2back/STIM_028.jpg	99
2278.795	0.784	784.5	2back	Block4	2back/STIM_028.jpg	99
2282.324	0.601	600.8	2back	Block4	2back/STIM_028.jpg	100
2285.775	0.798	797.8	2back	Block4	2back/STIM_029.jpg	100
2289.202	0.706	705.5	2back	Block4	2back/STIM_029.jpg	100
2292.555	0.396	396.0	2back	Block4	2back/STIM_029.jpg	99
2295.906	0.531	530.6	2back	Block4	2back/STIM_030.jpg	99
2300.087	0.515	515.0	2back	Block4	2back/STIM_030.jpg	99
2303.847	0.393	392.8	2back	Block4	2back/STIM_030.jpg	100
2307.174	0.429	429.0	2back	Block4	2back/STIM_031.jpg	99
2311.168	0.766	766.4	2back	Block4	2back/STIM_031.jpg	100
2314.757	0.586	586.3	2back	Block4	2back/STIM_031.jpg	100
2318.707	0.609	608.7	2back	Block4	2back/STIM_032.jpg	100
2323.196	0.59	589.9	2back	Block4	2back/STIM_032.jpg	100
2326.851	0.752	752.4	2back	Block4	2back/STIM_032.jpg	100
2331.14	0.389	388.6	2back	Block4	2back/STIM_033.jpg	99
2334.715	0.643	642.9	2back	Block4	2back/STIM_033.jpg	99
2338.948	0.62	620.5	2back	Block4	2back/STIM_033.jpg	100
2341.953	0.38	379.5	2back	Block4	2back/STIM_034.jpg	100
2344.999	0.604	603.8	2back	Block4	2back/STIM_034.jpg	100
2349.44	0.629	628.9	2back	Block4	2back/STIM_034.jpg	100
2353.583	0.745	744.8	2back	Block4	2back/STIM_035.jpg	99
2357.399	0.36	360.5	2back	Block4	2back/STIM_035.jpg	99
2360.683	0.456	455.6	2back	Block4	2back/STIM_035.jpg	99
2364.667	0.517	517.1	2back	Block4	2back/STIM_036.jpg	99
2367.904	0.649	648.7	2back	Block4	2back/STIM_036.jpg	99
2370.681	0.82	819.6	2back	Block4	2back/STIM_036.jpg	99
2375.103	0.683	682.9	2back	Block4	2back/STIM_037.jpg	100
2379.65	0.624	624.5	2back	Block4	2back/STIM_037.jpg	99
2383.184	0.41	410.1	2back	Block4	2back/STIM_037.jpg	99
2386.3	0.359	358.6	2back	Block4	2back/STIM_038.jpg	99
2389.905	0.37	369.6	2back	Block4	2back/STIM_038.jpg	100
2393.602	0.668	668.5	2back	Block4	2back/STIM_038.jpg	100
2396.837	0.622	622.0	2back	Block4	2back/STIM_039.jpg	99
2400.006	0.656	656.1	2back	Block4	2back/STIM_039.jpg	99
2404.101	0.405	404.7	2back	Block4	2back/STIM_039.jpg	99
2407.79	0.544	543.5	0back	Block4	0back/STIM_000.jpg	100
2411.98	0.483	483.1	0back	Block4	0back/STIM_000.jpg	100
2414.538	0.412	412.2	0back	Block4	0back/STIM_000.jpg	99
2417.141	0.589	589.1	0back	Block4	0back/STIM_001.jpg	100
2420.035	0.65	649.6	0back	Block4	0back/STIM_001.jpg	99
2422.964	0.349	348.7	0back	Block4	0back/STIM_001.jpg	100
2426.807	0.675	675.0	0back	Block4	0back/STIM_002.jpg	100
2431.324	0.38	379.7	0back	Block4	0back/STIM_002.jpg	100
2435.156	0.66	660.4	0back	Block4	0back/STIM_002.jpg	100
2439.291	0.501	501.5	0back	Block4	0back/STIM_003.jpg	100
2442.656	0.392	392.1	0back	Block4	0back/STIM_003.jpg	99
2446.68	0.516	516.3	0back	Block4	0back/STIM_003.jpg	99
2449.42	0.352	352.0	0back	Block4	0back/STIM_004.jpg	100
2453.706	0.382	382.4	0back	Block4	0back/STIM_004.jpg	99
2457.249	0.524	523.7	0back	Block4	0back/STIM_004.jpg	99
2460.753	0.657	657.1	0back	Block4	0back/STIM_005.jpg	100
2463.434	0.511	511.5	0back	Block4	0back/STIM_005.jpg	99
2466.823	0.353	352.9	0back	Block4	0back/STIM_005.jpg	99
2470.052	0.55	549.5	0back	Block4	0back/STIM_006.jpg	100
2474.211	0.503	502.7	0back	Block4	0back/STIM_006.jpg	99
2478.232	0.668	668.0	0back	Block4	0back/STIM_006.jpg	99
2481.462	0.398	397.7	0back	Block4	0back/STIM_007.jpg	100
2485.606	0.624	623.6	0back	Block4	0back/STIM_007.jpg	100
2489.691	0.513	513.4	0back	Block4	0back/STIM_007.jpg	100
2493.79	0.551	551.4	0back	Block4	0back/STIM_008.jpg	99
2496.655	0.673	672.8	0back	Block4	0back/STIM_008.jpg	99
2501.24	0.504	503.9	0back	Block4	0back/STIM_008.jpg	99
2505.144	0.63	630.5	0back	Block4	0back/STIM_009.jpg	100
2508.057	0.344	344.5	0back	Block4	0back/STIM_009.jpg	100
2512.37	0.634	634.1	0back	Block4	0back/STIM_009.jpg	100
2516.57	0.425	424.7	0back	Block4	0back/STIM_010.jpg	99
2520.338	0.673	672.9	0back	Block4	0back/STIM_010.jpg	100
2523.258	0.574	573.9	0back	Block4	0back/STIM_010.jpg	99
2525.898	0.497	496.7	0back	Block4	0back/STIM_011.jpg	99
2528.844	0.526	525.7	0back	Block4	0back/STIM_011.jpg	99
2532.943	0.525	525.1	0back	Block4	0back/STIM_011.jpg	100
2536.907	0.48	479.6	0back	Block4	0back/STIM_012.jpg	100
2540.199	0.631	631.0	0back	Block4	0back/STIM_012.jpg	100
2544.784	0.398	397.6	0back	Block4	0back/STIM_012.jpg	99
2547.87	0.639	639.2	0back	Block4	0back/STIM_013.jpg	99
2551.768	0.402	401.7	0back	Block4	0back/STIM_013.jpg	100
2554.695	0.351	351.1	0back	Block4	0back/STIM_013.jpg	99
2557.541	0.546	546.4	0back	Block4	0back/STIM_014.jpg	100
2560.497	0.668	667.8	0back	Block4	0back/STIM_014.jpg	99
2564.513	0.407	406.6	0back	Block4	0back/STIM_014.jpg	100
2567.044	0.496	496.5	0back	Block4	0back/STIM_015.jpg	99
2569.695	0.392	392.4	0back	Block4	0back/STIM_015.jpg	100
2572.499	0.366	365.7	0back	Block4	0back/STIM_015.jpg	99
2574.909	0.356	356.1	0back	Block4	0back/STIM_016.jpg	99
2578.117	0.504	504.3	0back	Block4	0back/STIM_016.jpg	100
2581.026	0.373	373.4	0back	Block4	0back/STIM_016.jpg	99
2584.55	0.384	383.7	0back	Block4	0back/STIM_017.jpg	99
2587.796	0.646	645.7	0back	Block4	0back/STIM_017.jpg	100
2590.644	0.643	642.6	0back	Block4	0back/STIM_017.jpg	100
2594.747	0.527	526.7	0back	Block4	0back/STIM_018.jpg	100
2598.898	0.602	601.7	0back	Block4	0back/STIM_018.jpg	99
2602.329	0.595	594.8	0back	Block4	0back/STIM_018.jpg	99
2606.374	0.629	629.2	0back	Block4	0back/STIM_019.jpg	100
2610.887	0.644	643.7	0back	Block4	0back/STIM_019.jpg	100
2614.172	0.592	592.5	0back	Block4	0back/STIM_019.jpg	100
