onset	duration	accuracy_binary	trial_type	learning_stage	stimulus
0.0	3.19	1	navigation	Trial1	navigation/STIM_000.jpg
5.497	3.073	1	navigation	Trial1	navigation/STIM_000.jpg
10.892	2.051	1	navigation	Trial1	navigation/STIM_000.jpg
16.111	2.985	0	navigation	Trial1	navigation/STIM_000.jpg
21.464	1.98	1	navigation	Trial1	navigation/STIM_000.jpg
25.75	1.666	0	navigation	Trial1	navigation/STIM_000.jpg
29.872	2.878	1	navigation	Trial1	navigation/STIM_001.jpg
34.827	2.583	1	navigation	Trial1	navigation/STIM_001.jpg
40.187	1.838	0	navigation	Trial1	navigation/STIM_001.jpg
44.76	2.143	1	navigation	Trial1	navigation/STIM_001.jpg
50.797	2.466	1	navigation	Trial1	navigation/STIM_001.jpg
56.832	2.651	0	navigation	Trial1	navigation/STIM_001.jpg
62.415	2.261	1	navigation	Trial1	navigation/STIM_002.jpg
68.417	1.848	1	navigation	Trial1	navigation/STIM_002.jpg
72.452	1.838	0	navigation	Trial1	navigation/STIM_002.jpg
76.583	2.29	0	navigation	Trial1	navigation/STIM_002.jpg
81.134	2.922	1	navigation	Trial1	navigation/STIM_002.jpg
87.867	3.024	1	navigation	Trial1	navigation/STIM_002.jpg
94.424	3.499	1	navigation	Trial1	navigation/STIM_003.jpg
99.952	3.881	0	navigation	Trial1	navigation/STIM_003.jpg
107.523	1.76	1	navigation	Trial1	navigation/STIM_003.jpg
111.343	2.53	1	navigation	Trial1	navigation/STIM_003.jpg
117.667	3.606	0	navigation	Trial1	navigation/STIM_003.jpg
124.567	1.65	1	navigation	Trial1	navigation/STIM_003.jpg
128.423	3.626	0	navigation	Trial1	navigation/STIM_004.jpg
134.903	4.542	1	navigation	Trial1	navigation/STIM_004.jpg
143.063	3.87	1	navigation	Trial1	navigation/STIM_004.jpg
149.243	2.035	1	navigation	Trial1	navigation/STIM_004.jpg
154.249	3.198	1	navigation	Trial1	navigation/STIM_004.jpg
159.994	2.998	1	navigation	Trial1	navigation/STIM_004.jpg
166.692	2.186	1	navigation	Trial1	navigation/STIM_005.jpg
172.632	3.771	1	navigation	Trial1	navigation/STIM_005.jpg
179.434	3.689	1	navigation	Trial1	navigation/STIM_005.jpg
186.2	3.405	1	navigation	Trial1	navigation/STIM_005.jpg
192.947	3.658	1	navigation	Trial1	navigation/STIM_005.jpg
200.431	3.531	1	navigation	Trial1	navigation/STIM_005.jpg
207.331	3.036	1	navigation	Trial1	navigation/STIM_006.jpg
212.925	3.56	0	navigation	Trial1	navigation/STIM_006.jpg
218.74	1.947	0	navigation	Trial1	navigation/STIM_006.jpg
223.117	2.862	1	navigation	Trial1	navigation/STIM_006.jpg
229.555	3.531	1	navigation	Trial1	navigation/STIM_006.jpg
236.088	2.794	0	navigation	Trial1	navigation/STIM_006.jpg
241.59	2.568	1	navigation	Trial1	navigation/STIM_007.jpg
246.919	3.041	1	navigation	Trial1	navigation/STIM_007.jpg
253.075	2.144	0	navigation	Trial1	navigation/STIM_007.jpg
259.018	3.288	1	navigation	Trial1	navigation/STIM_007.jpg
264.911	2.838	1	navigation	Trial1	navigation/STIM_007.jpg
271.503	2.986	1	navigation	Trial1	navigation/STIM_007.jpg
276.535	4.265	1	navigation	Trial1	navigation/STIM_008.jpg
282.826	3.447	1	navigation	Trial1	navigation/STIM_008.jpg
288.472	3.37	0	navigation	Trial1	navigation/STIM_008.jpg
294.051	2.202	1	navigation	Trial1	navigation/STIM_008.jpg
298.773	3.634	1	navigation	Trial1	navigation/STIM_008.jpg
304.73	1.655	1	navigation	Trial1	navigation/STIM_008.jpg
309.088	4.151	1	navigation	Trial1	navigation/STIM_009.jpg
317.134	4.145	1	navigation	Trial1	navigation/STIM_009.jpg
325.043	2.102	0	navigation	Trial1	navigation/STIM_009.jpg
330.258	1.844	1	navigation	Trial1	navigation/STIM_009.jpg
335.267	2.972	1	navigation	Trial1	navigation/STIM_009.jpg
342.003	3.5	1	navigation	Trial1	navigation/STIM_009.jpg
347.897	4.7	1	navigation	Trial1	navigation/STIM_010.jpg
355.394	2.115	0	navigation	Trial1	navigation/STIM_010.jpg
360.936	2.334	1	navigation	Trial1	navigation/STIM_010.jpg
366.689	2.332	1	navigation	Trial1	navigation/STIM_010.jpg
371.093	3.643	1	navigation	Trial1	navigation/STIM_010.jpg
376.897	2.442	0	navigation	Trial1	navigation/STIM_010.jpg
382.085	3.31	0	navigation	Trial1	navigation/STIM_011.jpg
389.101	4.372	0	navigation	Trial1	navigation/STIM_011.jpg
395.786	3.701	1	navigation	Trial1	navigation/STIM_011.jpg
402.828	2.992	0	navigation	Trial1	navigation/STIM_011.jpg
409.632	2.01	1	navigation	Trial1	navigation/STIM_011.jpg
414.567	3.076	0	navigation	Trial1	navigation/STIM_011.jpg
420.405	1.39	1	pointing	Trial1	pointing/STIM_000.jpg
424.814	0.866	1	pointing	Trial1	pointing/STIM_000.jpg
429.007	0.936	1	pointing	Trial1	pointing/STIM_000.jpg
433.7	0.87	1	pointing	Trial1	pointing/STIM_000.jpg
438.123	1.302	1	pointing	Trial1	pointing/STIM_000.jpg
442.217	0.98	1	pointing	Trial1	pointing/STIM_000.jpg
445.649	1.294	1	pointing	Trial1	pointing/STIM_001.jpg
448.991	0.982	1	pointing	Trial1	pointing/STIM_001.jpg
452.975	1.168	1	pointing	Trial1	pointing/STIM_001.jpg
457.916	1.02	1	pointing	Trial1	pointing/STIM_001.jpg
462.374	1.164	1	pointing	Trial1	pointing/STIM_001.jpg
466.501	1.445	1	pointing	Trial1	pointing/STIM_001.jpg
471.333	1.048	1	pointing	Trial1	pointing/STIM_002.jpg
474.685	1.231	1	pointing	Trial1	pointing/STIM_002.jpg
479.695	0.964	1	pointing	Trial1	pointing/STIM_002.jpg
482.974	0.947	0	pointing	Trial1	pointing/STIM_002.jpg
486.999	0.997	1	pointing	Trial1	pointing/STIM_002.jpg
491.072	0.975	1	pointing	Trial1	pointing/STIM_002.jpg
494.812	1.226	1	pointing	Trial1	pointing/STIM_003.jpg
498.605	0.878	1	pointing	Trial1	pointing/STIM_003.jpg
502.603	1.384	1	pointing	Trial1	pointing/STIM_003.jpg
507.055	1.439	1	pointing	Trial1	pointing/STIM_003.jpg
512.151	0.996	1	pointing	Trial1	pointing/STIM_003.jpg
515.932	1.268	1	pointing	Trial1	pointing/STIM_003.jpg
520.993	1.049	1	pointing	Trial1	pointing/STIM_004.jpg
524.065	1.131	1	pointing	Trial1	pointing/STIM_004.jpg
529.021	0.9	1	pointing	Trial1	pointing/STIM_004.jpg
533.8	1.39	1	pointing	Trial1	pointing/STIM_004.jpg
539.023	0.801	1	pointing	Trial1	pointing/STIM_004.jpg
543.262	1.307	1	pointing	Trial1	pointing/STIM_004.jpg
547.986	1.132	0	pointing	Trial1	pointing/STIM_005.jpg
551.585	1.098	1	pointing	Trial1	pointing/STIM_005.jpg
555.279	0.993	1	pointing	Trial1	pointing/STIM_005.jpg
559.057	1.344	1	pointing	Trial1	pointing/STIM_005.jpg
563.891	1.08	1	pointing	Trial1	pointing/STIM_005.jpg
567.388	0.826	1	pointing	Trial1	pointing/STIM_005.jpg
570.24	1.118	1	pointing	Trial1	pointing/STIM_006.jpg
573.984	1.296	0	pointing	Trial1	pointing/STIM_006.jpg
578.302	1.393	1	pointing	Trial1	pointing/STIM_006.jpg
582.569	0.82	1	pointing	Trial1	pointing/STIM_006.jpg
585.529	1.425	0	pointing	Trial1	pointing/STIM_006.jpg
590.392	1.29	1	pointing	Trial1	pointing/STIM_006.jpg
595.26	0.97	1	pointing	Trial1	pointing/STIM_007.jpg
599.885	1.384	1	pointing	Trial1	pointing/STIM_007.jpg
603.406	1.128	1	pointing	Trial1	pointing/STIM_007.jpg
607.529	0.799	1	pointing	Trial1	pointing/STIM_007.jpg
612.325	1.01	1	pointing	Trial1	pointing/STIM_007.jpg
616.604	0.912	1	pointing	Trial1	pointing/STIM_007.jpg
619.527	0.789	1	pointing	Trial1	pointing/STIM_008.jpg
622.371	0.879	1	pointing	Trial1	pointing/STIM_008.jpg
625.339	1.35	1	pointing	Trial1	pointing/STIM_008.jpg
628.851	1.443	1	pointing	Trial1	pointing/STIM_008.jpg
634.281	1.349	1	pointing	Trial1	pointing/STIM_008.jpg
638.053	0.896	1	pointing	Trial1	pointing/STIM_008.jpg
642.907	0.939	0	pointing	Trial1	pointing/STIM_009.jpg
646.539	0.97	1	pointing	Trial1	pointing/STIM_009.jpg
649.623	1.165	1	pointing	Trial1	pointing/STIM_009.jpg
653.717	1.038	1	pointing	Trial1	pointing/STIM_009.jpg
656.775	1.209	1	pointing	Trial1	pointing/STIM_009.jpg
660.505	0.926	1	pointing	Trial1	pointing/STIM_009.jpg
665.317	1.392	1	pointing	Trial1	pointing/STIM_010.jpg
668.852	1.078	1	pointing	Trial1	pointing/STIM_010.jpg
672.05	1.278	1	pointing	Trial1	pointing/STIM_010.jpg
675.384	1.02	1	pointing	Trial1	pointing/STIM_010.jpg
679.72	1.192	1	pointing	Trial1	pointing/STIM_010.jpg
684.753	0.861	0	pointing	Trial1	pointing/STIM_010.jpg
689.329	1.327	1	pointing	Trial1	pointing/STIM_011.jpg
693.705	0.998	1	pointing	Trial1	pointing/STIM_011.jpg
697.748	0.908	1	pointing	Trial1	pointing/STIM_011.jpg
702.458	0.774	1	pointing	Trial1	pointing/STIM_011.jpg
706.135	1.265	1	pointing	Trial1	pointing/STIM_011.jpg
710.556	0.855	1	pointing	Trial1	pointing/STIM_011.jpg
713.439	3.621	1	navigation	Trial2	navigation/STIM_000.jpg
719.707	2.674	1	navigation	Trial2	navigation/STIM_000.jpg
725.394	1.761	0	navigation	Trial2	navigation/STIM_000.jpg
730.771	2.493	1	navigation	Trial2	navigation/STIM_000.jpg
736.227	1.697	1	navigation	Trial2	navigation/STIM_000.jpg
740.813	2.86	1	navigation	Trial2	navigation/STIM_000.jpg
747.271	2.413	0	navigation	Trial2	navigation/STIM_001.jpg
752.646	1.983	1	navigation	Trial2	navigation/STIM_001.jpg
756.81	3.344	1	navigation	Trial2	navigation/STIM_001.jpg
763.743	3.03	1	navigation	Trial2	navigation/STIM_001.jpg
769.443	2.208	0	navigation	Trial2	navigation/STIM_001.jpg
775.103	2.096	1	navigation	Trial2	navigation/STIM_001.jpg
779.853	2.508	0	navigation	Trial2	navigation/STIM_002.jpg
785.007	2.15	1	navigation	Trial2	navigation/STIM_002.jpg
789.932	2.829	1	navigation	Trial2	navigation/STIM_002.jpg
796.222	3.193	1	navigation	Trial2	navigation/STIM_002.jpg
803.277	2.215	1	navigation	Trial2	navigation/STIM_002.jpg
808.119	3.004	1	navigation	Trial2	navigation/STIM_002.jpg
814.877	1.706	1	navigation	Trial2	navigation/STIM_003.jpg
819.442	3.108	1	navigation	Trial2	navigation/STIM_003.jpg
826.51	1.473	1	navigation	Trial2	navigation/STIM_003.jpg
831.938	1.507	1	navigation	Trial2	navigation/STIM_003.jpg
837.144	1.432	1	navigation	Trial2	navigation/STIM_003.jpg
841.132	2.351	1	navigation	Trial2	navigation/STIM_003.jpg
847.228	2.43	1	navigation	Trial2	navigation/STIM_004.jpg
852.95	3.693	1	navigation	Trial2	navigation/STIM_004.jpg
859.486	2.63	1	navigation	Trial2	navigation/STIM_004.jpg
864.263	2.887	1	navigation	Trial2	navigation/STIM_004.jpg
869.992	1.361	1	navigation	Trial2	navigation/STIM_004.jpg
874.864	3.076	1	navigation	Trial2	navigation/STIM_004.jpg
880.892	2.583	1	navigation	Trial2	navigation/STIM_005.jpg
885.602	1.829	1	navigation	Trial2	navigation/STIM_005.jpg
890.847	3.469	1	navigation	Trial2	navigation/STIM_005.jpg
896.43	2.649	1	navigation	Trial2	navigation/STIM_005.jpg
901.81	3.203	1	navigation	Trial2	navigation/STIM_005.jpg
908.456	2.808	1	navigation	Trial2	navigation/STIM_005.jpg
915.067	2.385	0	navigation	Trial2	navigation/STIM_006.jpg
921.451	3.236	0	navigation	Trial2	navigation/STIM_006.jpg
927.156	2.21	1	navigation	Trial2	navigation/STIM_006.jpg
931.37	1.746	1	navigation	Trial2	navigation/STIM_006.jpg
935.693	2.539	1	navigation	Trial2	navigation/STIM_006.jpg
941.75	1.526	1	navigation	Trial2	navigation/STIM_006.jpg
946.184	3.781	1	navigation	Trial2	navigation/STIM_007.jpg
953.128	3.531	1	navigation	Trial2	navigation/STIM_007.jpg
959.842	1.933	1	navigation	Trial2	navigation/STIM_007.jpg
965.757	3.076	0	navigation	Trial2	navigation/STIM_007.jpg
971.853	2.889	1	navigation	Trial2	navigation/STIM_007.jpg
978.215	2.479	1	navigation	Trial2	navigation/STIM_007.jpg
983.65	2.963	1	navigation	Trial2	navigation/STIM_008.jpg
990.481	1.762	0	navigation	Trial2	navigation/STIM_008.jpg
996.073	2.323	1	navigation	Trial2	navigation/STIM_008.jpg
1000.88	1.568	1	navigation	Trial2	navigation/STIM_008.jpg
1005.378	1.558	1	navigation	Trial2	navigation/STIM_008.jpg
1009.885	2.478	1	navigation	Trial2	navigation/STIM_008.jpg
1016.131	2.564	1	navigation	Trial2	navigation/STIM_009.jpg
1021.431	3.533	0	navigation	Trial2	navigation/STIM_009.jpg
1028.208	3.29	1	navigation	Trial2	navigation/STIM_009.jpg
1034.609	1.954	1	navigation	Trial2	navigation/STIM_009.jpg
1040.523	2.469	1	navigation	Trial2	navigation/STIM_009.jpg
1045.004	3.203	1	navigation	Trial2	navigation/STIM_009.jpg
1051.539	1.899	1	navigation	Trial2	navigation/STIM_010.jpg
1057.365	3.807	1	navigation	Trial2	navigation/STIM_010.jpg
1064.731	1.78	1	navigation	Trial2	navigation/STIM_010.jpg
1069.895	3.144	1	navigation	Trial2	navigation/STIM_010.jpg
1076.144	1.797	1	navigation	Trial2	navigation/STIM_010.jpg
1080.394	2.172	1	navigation	Trial2	navigation/STIM_010.jpg
1085.525	3.405	1	navigation	Trial2	navigation/STIM_011.jpg
1091.18	2.064	1	navigation	Trial2	navigation/STIM_011.jpg
1096.038	2.071	1	navigation	Trial2	navigation/STIM_011.jpg
1100.854	2.34	0	navigation	Trial2	navigation/STIM_011.jpg
1105.362	2.285	1	navigation	Trial2	navigation/STIM_011.jpg
1110.669	2.989	1	navigation	Trial2	navigation/STIM_011.jpg
1117.527	1.216	1	pointing	Trial2	pointing/STIM_000.jpg
1121.57	1.381	0	pointing	Trial2	pointing/STIM_000.jpg
1125.817	1.033	1	pointing	Trial2	pointing/STIM_000.jpg
1130.146	0.954	0	pointing	Trial2	pointing/STIM_000.jpg
1133.777	1.271	1	pointing	Trial2	pointing/STIM_000.jpg
1138.347	1.262	1	pointing	Trial2	pointing/STIM_000.jpg
1142.843	1.314	1	pointing	Trial2	pointing/STIM_001.jpg
1147.804	0.979	1	pointing	Trial2	pointing/STIM_001.jpg
1151.694	1.438	1	pointing	Trial2	pointing/STIM_001.jpg
1156.903	1.345	1	pointing	Trial2	pointing/STIM_001.jpg
1161.353	1.01	0	pointing	Trial2	pointing/STIM_001.jpg
1165.543	1.068	1	pointing	Trial2	pointing/STIM_001.jpg
1169.453	1.124	1	pointing	Trial2	pointing/STIM_002.jpg
1173.014	1.413	1	pointing	Trial2	pointing/STIM_002.jpg
1176.751	1.05	1	pointing	Trial2	pointing/STIM_002.jpg
1180.949	0.804	1	pointing	Trial2	pointing/STIM_002.jpg
1183.878	0.942	1	pointing	Trial2	pointing/STIM_002.jpg
1187.097	1.422	1	pointing	Trial2	pointing/STIM_002.jpg
1192.513	0.813	0	pointing	Trial2	pointing/STIM_003.jpg
1196.091	1.018	1	pointing	Trial2	pointing/STIM_003.jpg
1200.381	1.381	1	pointing	Trial2	pointing/STIM_003.jpg
1204.976	0.775	1	pointing	Trial2	pointing/STIM_003.jpg
1208.95	1.394	1	pointing	Trial2	pointing/STIM_003.jpg
1214.311	0.999	1	pointing	Trial2	pointing/STIM_003.jpg
1218.165	1.367	1	pointing	Trial2	pointing/STIM_004.jpg
1221.892	0.966	1	pointing	Trial2	pointing/STIM_004.jpg
1225.671	0.845	1	pointing	Trial2	pointing/STIM_004.jpg
1228.839	1.163	0	pointing	Trial2	pointing/STIM_004.jpg
1233.332	1.432	1	pointing	Trial2	pointing/STIM_004.jpg
1237.776	1.33	1	pointing	Trial2	pointing/STIM_004.jpg
1241.482	0.856	1	pointing	Trial2	pointing/STIM_005.jpg
1244.472	0.852	1	pointing	Trial2	pointing/STIM_005.jpg
1247.329	0.804	1	pointing	Trial2	pointing/STIM_005.jpg
1250.493	1.275	1	pointing	Trial2	pointing/STIM_005.jpg
1254.655	1.004	1	pointing	Trial2	pointing/STIM_005.jpg
1258.586	1.167	1	pointing	Trial2	pointing/STIM_005.jpg
1263.737	1.061	1	pointing	Trial2	pointing/STIM_006.jpg
1266.956	1.225	1	pointing	Trial2	pointing/STIM_006.jpg
1271.047	1.396	1	pointing	Trial2	pointing/STIM_006.jpg
1275.079	0.808	1	pointing	Trial2	pointing/STIM_006.jpg
1279.264	1.017	1	pointing	Trial2	pointing/STIM_006.jpg
1283.102	1.401	1	pointing	Trial2	pointing/STIM_006.jpg
1286.965	1.16	1	pointing	Trial2	pointing/STIM_007.jpg
1290.905	0.777	1	pointing	Trial2	pointing/STIM_007.jpg
1295.606	1.113	1	pointing	Trial2	pointing/STIM_007.jpg
1299.719	1.001	1	pointing	Trial2	pointing/STIM_007.jpg
1304.204	1.087	1	pointing	Trial2	pointing/STIM_007.jpg
1308.841	0.836	1	pointing	Trial2	pointing/STIM_007.jpg
1312.792	1.033	1	pointing	Trial2	pointing/STIM_008.jpg
1317.717	1.156	1	pointing	Trial2	pointing/STIM_008.jpg
1322.07	1.407	1	pointing	Trial2	pointing/STIM_008.jpg
1326.633	1.167	1	pointing	Trial2	pointing/STIM_008.jpg
1330.481	1.377	1	pointing	Trial2	pointing/STIM_008.jpg
1334.115	1.264	1	pointing	Trial2	pointing/STIM_008.jpg
1337.74	0.912	0	pointing	Trial2	pointing/STIM_009.jpg
1341.073	1.418	1	pointing	Trial2	pointing/STIM_009.jpg
1345.094	1.167	1	pointing	Trial2	pointing/STIM_009.jpg
1348.473	0.807	1	pointing	Trial2	pointing/STIM_009.jpg
1352.92	1.326	1	pointing	Trial2	pointing/STIM_009.jpg
1356.799	0.885	1	pointing	Trial2	pointing/STIM_009.jpg
1359.837	0.877	1	pointing	Trial2	pointing/STIM_010.jpg
1363.27	0.875	1	pointing	Trial2	pointing/STIM_010.jpg
1367.367	1.434	0	pointing	Trial2	pointing/STIM_010.jpg
1372.472	1.268	1	pointing	Trial2	pointing/STIM_010.jpg
1377.731	0.819	1	pointing	Trial2	pointing/STIM_010.jpg
1381.044	1.279	0	pointing	Trial2	pointing/STIM_010.jpg
1384.905	0.889	1	pointing	Trial2	pointing/STIM_011.jpg
1389.441	1.371	1	pointing	Trial2	pointing/STIM_011.jpg
1393.3	1.303	1	pointing	Trial2	pointing/STIM_011.jpg
1397.87	0.934	1	pointing	Trial2	pointing/STIM_011.jpg
1402.5	0.831	1	pointing	Trial2	pointing/STIM_011.jpg
1405.402	1.3	1	pointing	Trial2	pointing/STIM_011.jpg
1409.865	2.331	1	navigation	Trial3	navigation/STIM_000.jpg
1414.457	2.909	1	navigation	Trial3	navigation/STIM_000.jpg
1420.299	2.152	1	navigation	Trial3	navigation/STIM_000.jpg
1425.253	2.524	1	navigation	Trial3	navigation/STIM_000.jpg
1431.619	2.342	1	navigation	Trial3	navigation/STIM_000.jpg
1437.025	1.616	1	navigation	Trial3	navigation/STIM_000.jpg
1441.619	2.594	0	navigation	Trial3	navigation/STIM_001.jpg
1446.566	2.41	1	navigation	Trial3	navigation/STIM_001.jpg
1451.2	2.823	0	navigation	Trial3	navigation/STIM_001.jpg
1457.241	1.785	1	navigation	Trial3	navigation/STIM_001.jpg
1462.56	2.436	1	navigation	Trial3	navigation/STIM_001.jpg
1467.133	2.134	1	navigation	Trial3	navigation/STIM_001.jpg
1472.843	2.626	1	navigation	Trial3	navigation/STIM_002.jpg
1478.442	2.885	1	navigation	Trial3	navigation/STIM_002.jpg
1484.176	1.823	1	navigation	Trial3	navigation/STIM_002.jpg
1488.635	3.236	1	navigation	Trial3	navigation/STIM_002.jpg
1493.954	2.982	1	navigation	Trial3	navigation/STIM_002.jpg
1500.419	2.511	1	navigation	Trial3	navigation/STIM_002.jpg
1505.919	2.246	0	navigation	Trial3	navigation/STIM_003.jpg
1511.359	2.856	1	navigation	Trial3	navigation/STIM_003.jpg
1517.889	1.793	1	navigation	Trial3	navigation/STIM_003.jpg
1522.269	2.279	1	navigation	Trial3	navigation/STIM_003.jpg
1527.871	3.231	0	navigation	Trial3	navigation/STIM_003.jpg
1534.543	3.375	1	navigation	Trial3	navigation/STIM_003.jpg
1540.141	3.124	0	navigation	Trial3	navigation/STIM_004.jpg
1545.428	2.458	1	navigation	Trial3	navigation/STIM_004.jpg
1551.034	1.905	0	navigation	Trial3	navigation/STIM_004.jpg
1555.469	3.177	1	navigation	Trial3	navigation/STIM_004.jpg
1561.896	2.014	1	navigation	Trial3	navigation/STIM_004.jpg
1566.656	2.918	1	navigation	Trial3	navigation/STIM_004.jpg
1571.988	2.522	1	navigation	Trial3	navigation/STIM_005.jpg
1577.335	2.866	1	navigation	Trial3	navigation/STIM_005.jpg
1582.384	1.968	1	navigation	Trial3	navigation/STIM_005.jpg
1587.834	2.503	1	navigation	Trial3	navigation/STIM_005.jpg
1593.758	2.083	1	navigation	Trial3	navigation/STIM_005.jpg
1599.658	1.95	1	navigation	Trial3	navigation/STIM_005.jpg
1603.72	1.457	0	navigation	Trial3	navigation/STIM_006.jpg
1608.853	1.398	1	navigation	Trial3	navigation/STIM_006.jpg
1613.168	2.431	1	navigation	Trial3	navigation/STIM_006.jpg
1618.807	1.594	1	navigation	Trial3	navigation/STIM_006.jpg
1622.67	2.972	1	navigation	Trial3	navigation/STIM_006.jpg
1628.819	2.844	1	navigation	Trial3	navigation/STIM_006.jpg
1633.942	1.457	1	navigation	Trial3	navigation/STIM_007.jpg
1639.227	2.075	1	navigation	Trial3	navigation/STIM_007.jpg
1644.604	2.027	1	navigation	Trial3	navigation/STIM_007.jpg
1649.898	2.379	1	navigation	Trial3	navigation/STIM_007.jpg
1655.133	1.972	0	navigation	Trial3	navigation/STIM_007.jpg
1660.67	2.742	0	navigation	Trial3	navigation/STIM_007.jpg
1667.072	2.951	1	navigation	Trial3	navigation/STIM_008.jpg
1672.251	1.83	1	navigation	Trial3	navigation/STIM_008.jpg
1677.182	2.878	1	navigation	Trial3	navigation/STIM_008.jpg
1683.779	3.218	1	navigation	Trial3	navigation/STIM_008.jpg
1689.036	3.031	1	navigation	Trial3	navigation/STIM_008.jpg
1694.147	2.51	1	navigation	Trial3	navigation/STIM_008.jpg
1699.233	1.678	1	navigation	Trial3	navigation/STIM_009.jpg
1704.483	2.512	1	navigation	Trial3	navigation/STIM_009.jpg
1710.323	1.363	1	navigation	Trial3	navigation/STIM_009.jpg
1714.849	1.455	1	navigation	Trial3	navigation/STIM_009.jpg
1720.274	2.843	1	navigation	Trial3	navigation/STIM_009.jpg
1725.497	1.771	1	navigation	Trial3	navigation/STIM_009.jpg
1730.528	2.822	1	navigation	Trial3	navigation/STIM_010.jpg
1737.099	1.664	1	navigation	Trial3	navigation/STIM_010.jpg
1742.072	1.834	1	navigation	Trial3	navigation/STIM_010.jpg
1746.049	2.538	1	navigation	Trial3	navigation/STIM_010.jpg
1752.383	2.1	1	navigation	Trial3	navigation/STIM_010.jpg
1757.697	3.004	1	navigation	Trial3	navigation/STIM_010.jpg
1763.41	2.791	1	navigation	Trial3	navigation/STIM_011.jpg
1769.139	1.544	1	navigation	Trial3	navigation/STIM_011.jpg
1774.534	1.922	1	navigation	Trial3	navigation/STIM_011.jpg
1779.68	3.162	0	navigation	Trial3	navigation/STIM_011.jpg
1786.644	2.273	1	navigation	Trial3	navigation/STIM_011.jpg
1792.407	2.035	1	navigation	Trial3	navigation/STIM_011.jpg
1797.433	1.123	0	pointing	Trial3	pointing/STIM_000.jpg
1802.346	1.196	1	pointing	Trial3	pointing/STIM_000.jpg
1806.25	1.067	1	pointing	Trial3	pointing/STIM_000.jpg
1811.12	1.14	1	pointing	Trial3	pointing/STIM_000.jpg
1815.934	1.438	1	pointing	Trial3	pointing/STIM_000.jpg
1819.556	1.219	1	pointing	Trial3	pointing/STIM_000.jpg
1823.929	1.006	1	pointing	Trial3	pointing/STIM_001.jpg
1827.04	1.207	1	pointing	Trial3	pointing/STIM_001.jpg
1830.476	1.026	1	pointing	Trial3	pointing/STIM_001.jpg
1835.462	1.024	1	pointing	Trial3	pointing/STIM_001.jpg
1838.949	1.071	1	pointing	Trial3	pointing/STIM_001.jpg
1842.782	0.978	1	pointing	Trial3	pointing/STIM_001.jpg
1847.632	0.982	1	pointing	Trial3	pointing/STIM_002.jpg
1851.094	1.133	1	pointing	Trial3	pointing/STIM_002.jpg
1855.442	1.008	1	pointing	Trial3	pointing/STIM_002.jpg
1860.075	1.237	1	pointing	Trial3	pointing/STIM_002.jpg
1864.187	0.949	1	pointing	Trial3	pointing/STIM_002.jpg
1867.975	1.171	1	pointing	Trial3	pointing/STIM_002.jpg
1872.139	1.371	1	pointing	Trial3	pointing/STIM_003.jpg
1876.465	1.079	1	pointing	Trial3	pointing/STIM_003.jpg
1880.228	1.079	1	pointing	Trial3	pointing/STIM_003.jpg
1884.614	0.986	0	pointing	Trial3	pointing/STIM_003.jpg
1889.315	1.261	1	pointing	Trial3	pointing/STIM_003.jpg
1893.684	1.182	1	pointing	Trial3	pointing/STIM_003.jpg
1898.61	1.424	1	pointing	Trial3	pointing/STIM_004.jpg
1902.866	1.408	1	pointing	Trial3	pointing/STIM_004.jpg
1907.432	0.937	0	pointing	Trial3	pointing/STIM_004.jpg
1911.349	0.994	1	pointing	Trial3	pointing/STIM_004.jpg
1916.286	1.254	1	pointing	Trial3	pointing/STIM_004.jpg
1920.067	0.922	1	pointing	Trial3	pointing/STIM_004.jpg
1924.972	1.184	1	pointing	Trial3	pointing/STIM_005.jpg
1929.949	1.397	1	pointing	Trial3	pointing/STIM_005.jpg
1935.254	0.824	1	pointing	Trial3	pointing/STIM_005.jpg
1939.625	1.0	1	pointing	Trial3	pointing/STIM_005.jpg
1942.918	1.076	1	pointing	Trial3	pointing/STIM_005.jpg
1946.727	1.241	1	pointing	Trial3	pointing/STIM_005.jpg
1951.219	0.972	1	pointing	Trial3	pointing/STIM_006.jpg
1955.066	0.78	1	pointing	Trial3	pointing/STIM_006.jpg
1958.708	0.96	1	pointing	Trial3	pointing/STIM_006.jpg
1963.518	0.83	1	pointing	Trial3	pointing/STIM_006.jpg
1967.24	0.799	1	pointing	Trial3	pointing/STIM_006.jpg
1971.368	1.248	1	pointing	Trial3	pointing/STIM_006.jpg
1975.829	1.011	1	pointing	Trial3	pointing/STIM_007.jpg
1979.584	1.118	1	pointing	Trial3	pointing/STIM_007.jpg
1984.625	0.898	1	pointing	Trial3	pointing/STIM_007.jpg
1988.508	1.243	1	pointing	Trial3	pointing/STIM_007.jpg
1991.79	1.201	1	pointing	Trial3	pointing/STIM_007.jpg
1996.271	1.394	1	pointing	Trial3	pointing/STIM_007.jpg
2000.952	1.246	1	pointing	Trial3	pointing/STIM_008.jpg
2004.745	1.184	1	pointing	Trial3	pointing/STIM_008.jpg
2008.682	0.913	1	pointing	Trial3	pointing/STIM_008.jpg
2012.686	1.121	1	pointing	Trial3	pointing/STIM_008.jpg
2017.516	1.059	1	pointing	Trial3	pointing/STIM_008.jpg
2022.087	1.226	1	pointing	Trial3	pointing/STIM_008.jpg
2025.672	1.203	1	pointing	Trial3	pointing/STIM_009.jpg
2029.01	1.438	1	pointing	Trial3	pointing/STIM_009.jpg
2033.281	1.34	1	pointing	Trial3	pointing/STIM_009.jpg
2037.911	0.811	1	pointing	Trial3	pointing/STIM_009.jpg
2041.358	0.878	1	pointing	Trial3	pointing/STIM_009.jpg
2046.201	1.076	1	pointing	Trial3	pointing/STIM_009.jpg
2049.738	1.218	1	pointing	Trial3	pointing/STIM_010.jpg
2053.661	1.445	1	pointing	Trial3	pointing/STIM_010.jpg
2057.235	0.988	1	pointing	Trial3	pointing/STIM_010.jpg
2060.731	0.894	1	pointing	Trial3	pointing/STIM_010.jpg
2064.067	1.316	1	pointing	Trial3	pointing/STIM_010.jpg
2068.716	0.965	1	pointing	Trial3	pointing/STIM_010.jpg
2072.298	1.287	1	pointing	Trial3	pointing/STIM_011.jpg
2077.002	0.946	1	pointing	Trial3	pointing/STIM_011.jpg
2080.392	1.182	1	pointing	Trial3	pointing/STIM_011.jpg
2085.072	1.056	1	pointing	Trial3	pointing/STIM_011.jpg
2089.857	1.297	1	pointing	Trial3	pointing/STIM_011.jpg
2094.36	1.191	1	pointing	Trial3	pointing/STIM_011.jpg
