onset	duration	response_time_ms	trial_type	learning_stage	stimulus	response_port
0.0	3.482	3482.1	navigation	Trial1	navigation/STIM_000.jpg	99
6.611	4.724	4724.5	navigation	Trial1	navigation/STIM_000.jpg	100
13.805	2.802	2802.1	navigation	Trial1	navigation/STIM_000.jpg	100
19.551	3.325	3324.9	navigation	Trial1	navigation/STIM_000.jpg	99
26.395	3.421	3420.8	navigation	Trial1	navigation/STIM_000.jpg	100
32.667	3.56	3560.5	navigation	Trial1	navigation/STIM_000.jpg	99
39.292	4.838	4838.5	navigation	Trial1	navigation/STIM_001.jpg	100
46.04	3.97	3969.7	navigation	Trial1	navigation/STIM_001.jpg	100
52.551	2.99	2989.8	navigation	Trial1	navigation/STIM_001.jpg	99
59.35	3.883	3883.2	navigation	Trial1	navigation/STIM_001.jpg	100
65.267	3.857	3856.7	navigation	Trial1	navigation/STIM_001.jpg	100
72.797	3.046	3045.5	navigation	Trial1	navigation/STIM_001.jpg	99
79.419	2.972	2971.7	navigation	Trial1	navigation/STIM_002.jpg	99
85.234	3.953	3953.1	navigation	Trial1	navigation/STIM_002.jpg	100
92.351	3.73	3729.7	navigation	Trial1	navigation/STIM_002.jpg	100
98.802	1.84	1840.1	navigation	Trial1	navigation/STIM_002.jpg	99
104.106	3.666	3666.2	navigation	Trial1	navigation/STIM_002.jpg	99
111.051	3.49	3489.6	navigation	Trial1	navigation/STIM_002.jpg	100
117.345	3.471	3471.4	navigation	Trial1	navigation/STIM_003.jpg	99
123.247	4.38	4379.7	navigation	Trial1	navigation/STIM_003.jpg	100
129.672	2.424	2424.3	navigation	Trial1	navigation/STIM_003.jpg	100
134.444	3.836	3836.0	navigation	Trial1	navigation/STIM_003.jpg	99
141.844	3.021	3020.9	navigation	Trial1	navigation/STIM_003.jpg	100
148.637	3.262	3262.4	navigation	Trial1	navigation/STIM_003.jpg	100
155.777	4.884	4884.5	navigation	Trial1	navigation/STIM_004.jpg	99
162.846	2.198	2197.9	navigation	Trial1	navigation/STIM_004.jpg	100
168.49	3.641	3641.0	navigation	Trial1	navigation/STIM_004.jpg	99
175.159	3.446	3446.2	navigation	Trial1	navigation/STIM_004.jpg	99
181.195	3.044	3044.0	navigation	Trial1	navigation/STIM_004.jpg	100
186.39	2.282	2281.5	navigation	Trial1	navigation/STIM_004.jpg	99
191.117	2.467	2467.2	navigation	Trial1	navigation/STIM_005.jpg	100
196.172	4.433	4433.0	navigation	Trial1	navigation/STIM_005.jpg	100
203.539	1.884	1884.0	navigation	Trial1	navigation/STIM_005.jpg	100
207.6	1.897	1896.8	navigation	Trial1	navigation/STIM_005.jpg	99
212.426	2.712	2711.5	navigation	Trial1	navigation/STIM_005.jpg	99
217.739	2.854	2854.2	navigation	Trial1	navigation/STIM_005.jpg	99
222.6	2.752	2751.8	navigation	Trial1	navigation/STIM_006.jpg	99
229.231	2.485	2484.6	navigation	Trial1	navigation/STIM_006.jpg	99
234.978	3.864	3863.9	navigation	Trial1	navigation/STIM_006.jpg	100
240.908	2.04	2040.1	navigation	Trial1	navigation/STIM_006.jpg	100
246.159	2.681	2680.8	navigation	Trial1	navigation/STIM_006.jpg	100
252.425	1.987	1987.0	navigation	Trial1	navigation/STIM_006.jpg	100
257.257	2.142	2142.3	navigation	Trial1	navigation/STIM_007.jpg	100
262.308	2.808	2807.6	navigation	Trial1	navigation/STIM_007.jpg	100
267.26	2.863	2862.9	navigation	Trial1	navigation/STIM_007.jpg	99
273.551	3.102	3101.8	navigation	Trial1	navigation/STIM_007.jpg	100
280.418	4.029	4028.6	navigation	Trial1	navigation/STIM_007.jpg	99
286.965	3.027	3026.8	navigation	Trial1	navigation/STIM_007.jpg	100
292.679	2.337	2336.7	navigation	Trial1	navigation/STIM_008.jpg	100
297.873	3.826	3825.9	navigation	Trial1	navigation/STIM_008.jpg	99
303.697	4.244	4243.8	navigation	Trial1	navigation/STIM_008.jpg	100
310.187	2.434	2433.5	navigation	Trial1	navigation/STIM_008.jpg	100
315.107	3.533	3533.0	navigation	Trial1	navigation/STIM_008.jpg	100
322.135	3.438	3438.1	navigation	Trial1	navigation/STIM_008.jpg	99
328.971	3.189	3188.9	navigation	Trial1	navigation/STIM_009.jpg	100
335.243	3.574	3574.1	navigation	Trial1	navigation/STIM_009.jpg	100
341.578	2.631	2631.1	navigation	Trial1	navigation/STIM_009.jpg	100
347.685	2.83	2829.9	navigation	Trial1	navigation/STIM_009.jpg	100
352.984	3.882	3881.7	navigation	Trial1	navigation/STIM_009.jpg	99
360.808	3.549	3548.8	navigation	Trial1	navigation/STIM_009.jpg	100
367.882	2.286	2285.7	navigation	Trial1	navigation/STIM_010.jpg	100
373.607	4.767	4767.4	navigation	Trial1	navigation/STIM_010.jpg	100
382.23	3.785	3784.8	navigation	Trial1	navigation/STIM_010.jpg	99
389.502	2.106	2106.2	navigation	Trial1	navigation/STIM_010.jpg	99
395.542	3.382	3381.7	navigation	Trial1	navigation/STIM_010.jpg	100
401.674	2.705	2704.7	navigation	Trial1	navigation/STIM_010.jpg	100
406.983	5.1	5099.7	navigation	Trial1	navigation/STIM_011.jpg	99
414.746	2.395	2394.9	navigation	Trial1	navigation/STIM_011.jpg	99
420.012	3.563	3563.4	navigation	Trial1	navigation/STIM_011.jpg	99
426.129	3.405	3405.0	navigation	Trial1	navigation/STIM_011.jpg	100
431.436	2.262	2261.7	navigation	Trial1	navigation/STIM_011.jpg	99
435.795	1.541	1541.1	navigation	Trial1	navigation/STIM_011.jpg	99
439.457	0.975	974.8	pointing	Trial1	pointing/STIM_000.jpg	100
443.42	1.49	1489.5	pointing	Trial1	pointing/STIM_000.jpg	99
447.092	0.958	957.8	pointing	Trial1	pointing/STIM_000.jpg	100
450.896	1.376	1376.2	pointing	Trial1	pointing/STIM_000.jpg	100
454.545	1.021	1021.4	pointing	Trial1	pointing/STIM_000.jpg	99
458.1	1.315	1315.2	pointing	Trial1	pointing/STIM_000.jpg	100
462.854	0.872	871.9	pointing	Trial1	pointing/STIM_001.jpg	100
466.214	1.294	1293.8	pointing	Trial1	pointing/STIM_001.jpg	99
471.43	1.392	1391.6	pointing	Trial1	pointing/STIM_001.jpg	100
475.827	0.955	955.2	pointing	Trial1	pointing/STIM_001.jpg	100
480.058	1.093	1093.0	pointing	Trial1	pointing/STIM_001.jpg	99
483.688	0.889	889.2	pointing	Trial1	pointing/STIM_001.jpg	100
487.215	1.195	1194.6	pointing	Trial1	pointing/STIM_002.jpg	100
490.624	1.121	1121.3	pointing	Trial1	pointing/STIM_002.jpg	100
495.104	1.104	1104.3	pointing	Trial1	pointing/STIM_002.jpg	100
500.201	1.142	1142.5	pointing	Trial1	pointing/STIM_002.jpg	100
503.653	0.851	851.1	pointing	Trial1	pointing/STIM_002.jpg	100
508.145	0.862	861.9	pointing	Trial1	pointing/STIM_002.jpg	99
511.914	1.219	1218.9	pointing	Trial1	pointing/STIM_003.jpg	100
515.692	1.376	1375.9	pointing	Trial1	pointing/STIM_003.jpg	99
519.696	1.195	1194.6	pointing	Trial1	pointing/STIM_003.jpg	100
523.437	0.917	917.0	pointing	Trial1	pointing/STIM_003.jpg	99
526.515	1.407	1407.1	pointing	Trial1	pointing/STIM_003.jpg	99
530.046	1.133	1133.3	pointing	Trial1	pointing/STIM_003.jpg	99
534.044	0.951	950.8	pointing	Trial1	pointing/STIM_004.jpg	99
537.268	1.058	1058.3	pointing	Trial1	pointing/STIM_004.jpg	100
540.571	1.227	1226.8	pointing	Trial1	pointing/STIM_004.jpg	99
543.781	1.157	1157.1	pointing	Trial1	pointing/STIM_004.jpg	99
547.537	1.261	1260.8	pointing	Trial1	pointing/STIM_004.jpg	100
551.824	0.966	966.1	pointing	Trial1	pointing/STIM_004.jpg	100
555.648	1.22	1219.5	pointing	Trial1	pointing/STIM_005.jpg	100
559.075	1.391	1391.0	pointing	Trial1	pointing/STIM_005.jpg	99
563.248	1.006	1006.5	pointing	Trial1	pointing/STIM_005.jpg	99
567.571	1.229	1229.4	pointing	Trial1	pointing/STIM_005.jpg	99
572.518	0.84	840.0	pointing	Trial1	pointing/STIM_005.jpg	99
575.689	1.232	1232.0	pointing	Trial1	pointing/STIM_005.jpg	100
580.342	1.288	1287.7	pointing	Trial1	pointing/STIM_006.jpg	99
584.189	1.393	1393.4	pointing	Trial1	pointing/STIM_006.jpg	99
587.61	1.26	1260.3	pointing	Trial1	pointing/STIM_006.jpg	99
591.325	0.952	951.7	pointing	Trial1	pointing/STIM_006.jpg	100
594.314	1.17	1169.9	pointing	Trial1	pointing/STIM_006.jpg	100
597.746	1.015	1015.4	pointing	Trial1	pointing/STIM_006.jpg	100
601.254	1.055	1054.6	pointing	Trial1	pointing/STIM_007.jpg	99
604.887	1.42	1419.6	pointing	Trial1	pointing/STIM_007.jpg	100
609.025	0.998	997.8	pointing	Trial1	pointing/STIM_007.jpg	100
612.469	1.011	1011.2	pointing	Trial1	pointing/STIM_007.jpg	100
616.561	1.552	1552.3	pointing	Trial1	pointing/STIM_007.jpg	99
621.275	0.854	853.5	pointing	Trial1	pointing/STIM_007.jpg	100
625.283	1.533	1532.8	pointing	Trial1	pointing/STIM_008.jpg	100
629.432	1.292	1291.8	pointing	Trial1	pointing/STIM_008.jpg	99
634.454	1.234	1234.0	pointing	Trial1	pointing/STIM_008.jpg	99
639.213	1.243	1242.7	pointing	Trial1	pointing/STIM_008.jpg	100
642.932	1.174	1174.0	pointing	Trial1	pointing/STIM_008.jpg	99
647.823	1.274	1274.2	pointing	Trial1	pointing/STIM_008.jpg	99
652.074	1.422	1421.5	pointing	Trial1	pointing/STIM_009.jpg	100
656.989	1.402	1402.4	pointing	Trial1	pointing/STIM_009.jpg	100
661.456	1.014	1013.8	pointing	Trial1	pointing/STIM_009.jpg	100
666.039	0.774	773.8	pointing	Trial1	pointing/STIM_009.jpg	99
669.469	0.858	858.4	pointing	Trial1	pointing/STIM_009.jpg	99
673.713	1.149	1149.3	pointing	Trial1	pointing/STIM_009.jpg	100
677.459	0.886	885.5	pointing	Trial1	pointing/STIM_010.jpg	99
682.299	1.054	1054.1	pointing	Trial1	pointing/STIM_010.jpg	100
686.942	1.269	1269.3	pointing	Trial1	pointing/STIM_010.jpg	99
691.882	1.432	1432.3	pointing	Trial1	pointing/STIM_010.jpg	100
695.75	1.059	1059.2	pointing	Trial1	pointing/STIM_010.jpg	99
700.059	1.296	1295.6	pointing	Trial1	pointing/STIM_010.jpg	100
703.46	1.211	1210.9	pointing	Trial1	pointing/STIM_011.jpg	99
707.644	0.822	822.4	pointing	Trial1	pointing/STIM_011.jpg	100
712.406	1.117	1117.1	pointing	Trial1	pointing/STIM_011.jpg	99
716.845	0.931	931.0	pointing	Trial1	pointing/STIM_011.jpg	99
721.181	1.007	1006.7	pointing	Trial1	pointing/STIM_011.jpg	99
724.468	1.418	1417.6	pointing	Trial1	pointing/STIM_011.jpg	100
729.751	1.999	1999.3	navigation	Trial2	navigation/STIM_000.jpg	99
734.762	2.832	2832.2	navigation	Trial2	navigation/STIM_000.jpg	100
739.576	3.33	3329.6	navigation	Trial2	navigation/STIM_000.jpg	99
746.255	3.047	3047.2	navigation	Trial2	navigation/STIM_000.jpg	99
753.181	1.635	1635.4	navigation	Trial2	navigation/STIM_000.jpg	100
758.469	3.364	3364.5	navigation	Trial2	navigation/STIM_000.jpg	99
764.096	3.5	3499.5	navigation	Trial2	navigation/STIM_001.jpg	99
769.65	4.001	4001.1	navigation	Trial2	navigation/STIM_001.jpg	100
777.088	3.735	3735.0	navigation	Trial2	navigation/STIM_001.jpg	100
782.789	1.749	1749.1	navigation	Trial2	navigation/STIM_001.jpg	99
787.639	2.23	2230.1	navigation	Trial2	navigation/STIM_001.jpg	99
792.786	2.796	2795.9	navigation	Trial2	navigation/STIM_001.jpg	99
799.306	3.765	3765.2	navigation	Trial2	navigation/STIM_002.jpg	100
806.481	2.399	2398.8	navigation	Trial2	navigation/STIM_002.jpg	99
811.057	2.652	2651.6	navigation	Trial2	navigation/STIM_002.jpg	99
817.645	1.928	1928.3	navigation	Trial2	navigation/STIM_002.jpg	100
822.377	2.08	2080.0	navigation	Trial2	navigation/STIM_002.jpg	100
827.603	3.284	3283.7	navigation	Trial2	navigation/STIM_002.jpg	99
834.685	2.233	2232.8	navigation	Trial2	navigation/STIM_003.jpg	100
840.79	3.805	3804.6	navigation	Trial2	navigation/STIM_003.jpg	100
847.078	3.31	3309.7	navigation	Trial2	navigation/STIM_003.jpg	100
853.084	1.802	1801.7	navigation	Trial2	navigation/STIM_003.jpg	100
858.036	2.843	2843.1	navigation	Trial2	navigation/STIM_003.jpg	100
863.68	1.548	1548.3	navigation	Trial2	navigation/STIM_003.jpg	100
868.67	2.701	2700.9	navigation	Trial2	navigation/STIM_004.jpg	100
873.701	2.812	2812.0	navigation	Trial2	navigation/STIM_004.jpg	100
878.659	2.731	2730.8	navigation	Trial2	navigation/STIM_004.jpg	99
883.731	2.011	2011.5	navigation	Trial2	navigation/STIM_004.jpg	99
889.686	2.061	2060.6	navigation	Trial2	navigation/STIM_004.jpg	99
894.428	2.51	2509.8	navigation	Trial2	navigation/STIM_004.jpg	100
900.127	1.872	1871.5	navigation	Trial2	navigation/STIM_005.jpg	99
904.685	2.287	2286.7	navigation	Trial2	navigation/STIM_005.jpg	100
910.651	2.677	2677.4	navigation	Trial2	navigation/STIM_005.jpg	99
916.282	2.609	2608.6	navigation	Trial2	navigation/STIM_005.jpg	100
922.825	1.765	1765.0	navigation	Trial2	navigation/STIM_005.jpg	99
927.282	2.31	2309.5	navigation	Trial2	navigation/STIM_005.jpg	100
932.749	3.913	3912.9	navigation	Trial2	navigation/STIM_006.jpg	99
939.5	2.527	2527.1	navigation	Trial2	navigation/STIM_006.jpg	99
945.638	2.031	2031.0	navigation	Trial2	navigation/STIM_006.jpg	99
951.374	1.652	1651.8	navigation	Trial2	navigation/STIM_006.jpg	99
956.304	1.981	1980.7	navigation	Trial2	navigation/STIM_006.jpg	99
960.194	3.187	3187.4	navigation	Trial2	navigation/STIM_006.jpg	99
965.611	4.159	4159.0	navigation	Trial2	navigation/STIM_007.jpg	100
972.053	2.114	2113.7	navigation	Trial2	navigation/STIM_007.jpg	100
976.932	2.969	2968.9	navigation	Trial2	navigation/STIM_007.jpg	100
981.903	2.634	2634.5	navigation	Trial2	navigation/STIM_007.jpg	99
986.702	3.174	3174.5	navigation	Trial2	navigation/STIM_007.jpg	99
993.103	3.643	3642.7	navigation	Trial2	navigation/STIM_007.jpg	99
998.81	2.92	2919.5	navigation	Trial2	navigation/STIM_008.jpg	100
1003.784	2.576	2575.5	navigation	Trial2	navigation/STIM_008.jpg	99
1010.089	2.466	2466.4	navigation	Trial2	navigation/STIM_008.jpg	99
1016.337	1.678	1678.3	navigation	Trial2	navigation/STIM_008.jpg	100
1021.076	1.986	1986.2	navigation	Trial2	navigation/STIM_008.jpg	100
1025.392	2.82	2819.6	navigation	Trial2	navigation/STIM_008.jpg	100
1031.534	2.26	2260.3	navigation	Trial2	navigation/STIM_009.jpg	99
1037.211	4.048	4048.3	navigation	Trial2	navigation/STIM_009.jpg	100
1044.224	1.899	1898.9	navigation	Trial2	navigation/STIM_009.jpg	100
1049.555	1.698	1698.4	navigation	Trial2	navigation/STIM_009.jpg	100
1055.073	3.037	3037.1	navigation	Trial2	navigation/STIM_009.jpg	100
1061.036	2.671	2670.7	navigation	Trial2	navigation/STIM_009.jpg	100
1066.655	4.051	4051.4	navigation	Trial2	navigation/STIM_010.jpg	99
1073.721	2.187	2186.6	navigation	Trial2	navigation/STIM_010.jpg	100
1078.67	2.198	2197.5	navigation	Trial2	navigation/STIM_010.jpg	100
1084.72	1.616	1616.4	navigation	Trial2	navigation/STIM_010.jpg	99
1088.824	3.179	3178.8	navigation	Trial2	navigation/STIM_010.jpg	99
1095.87	2.511	2510.7	navigation	Trial2	navigation/STIM_010.jpg	99
1101.437	4.035	4035.4	navigation	Trial2	navigation/STIM_011.jpg	99
1108.095	2.99	2989.9	navigation	Trial2	navigation/STIM_011.jpg	100
1113.495	3.798	3798.5	navigation	Trial2	navigation/STIM_011.jpg	100
1120.567	1.906	1905.8	navigation	Trial2	navigation/STIM_011.jpg	100
1126.213	2.426	2426.0	navigation	Trial2	navigation/STIM_011.jpg	99
1132.306	2.213	2213.1	navigation	Trial2	navigation/STIM_011.jpg	100
1137.859	0.957	956.8	pointing	Trial2	pointing/STIM_000.jpg	99
1141.438	1.316	1315.7	pointing	Trial2	pointing/STIM_000.jpg	99
1145.379	1.252	1252.3	pointing	Trial2	pointing/STIM_000.jpg	100
1149.751	0.949	948.9	pointing	Trial2	pointing/STIM_000.jpg	99
1153.248	1.214	1213.5	pointing	Trial2	pointing/STIM_000.jpg	99
1157.035	1.078	1077.8	pointing	Trial2	pointing/STIM_000.jpg	99
1162.03	1.152	1152.2	pointing	Trial2	pointing/STIM_001.jpg	99
1166.65	0.851	851.1	pointing	Trial2	pointing/STIM_001.jpg	100
1170.387	1.42	1419.6	pointing	Trial2	pointing/STIM_001.jpg	99
1175.164	1.405	1404.7	pointing	Trial2	pointing/STIM_001.jpg	100
1178.778	0.883	883.2	pointing	Trial2	pointing/STIM_001.jpg	100
1183.375	1.214	1213.5	pointing	Trial2	pointing/STIM_001.jpg	100
1186.791	1.535	1534.7	pointing	Trial2	pointing/STIM_002.jpg	100
1191.577	1.477	1477.2	pointing	Trial2	pointing/STIM_002.jpg	100
1196.006	1.352	1351.7	pointing	Trial2	pointing/STIM_002.jpg	100
1200.755	1.43	1429.9	pointing	Trial2	pointing/STIM_002.jpg	99
1204.563	1.193	1192.9	pointing	Trial2	pointing/STIM_002.jpg	99
1207.923	0.995	994.8	pointing	Trial2	pointing/STIM_002.jpg	99
1212.245	1.067	1066.9	pointing	Trial2	pointing/STIM_003.jpg	100
1216.379	1.46	1459.6	pointing	Trial2	pointing/STIM_003.jpg	100
1219.939	1.25	1250.5	pointing	Trial2	pointing/STIM_003.jpg	100
1224.658	1.007	1007.1	pointing	Trial2	pointing/STIM_003.jpg	100
1229.035	1.454	1453.6	pointing	Trial2	pointing/STIM_003.jpg	100
1234.386	0.905	904.7	pointing	Trial2	pointing/STIM_003.jpg	99
1237.694	1.168	1167.9	pointing	Trial2	pointing/STIM_004.jpg	99
1242.753	1.079	1078.6	pointing	Trial2	pointing/STIM_004.jpg	100
1246.107	1.486	1486.2	pointing	Trial2	pointing/STIM_004.jpg	100
1250.15	0.92	919.8	pointing	Trial2	pointing/STIM_004.jpg	99
1253.829	0.898	898.0	pointing	Trial2	pointing/STIM_004.jpg	100
1257.176	1.256	1255.7	pointing	Trial2	pointing/STIM_004.jpg	100
1261.188	1.492	1492.2	pointing	Trial2	pointing/STIM_005.jpg	99
1266.429	1.098	1097.6	pointing	Trial2	pointing/STIM_005.jpg	99
1270.887	0.86	860.0	pointing	Trial2	pointing/STIM_005.jpg	99
1274.798	1.568	1567.5	pointing	Trial2	pointing/STIM_005.jpg	99
1279.02	1.522	1521.6	pointing	Trial2	pointing/STIM_005.jpg	99
1283.45	1.12	1119.6	pointing	Trial2	pointing/STIM_005.jpg	100
1288.028	0.991	990.6	pointing	Trial2	pointing/STIM_006.jpg	99
1291.539	0.957	956.9	pointing	Trial2	pointing/STIM_006.jpg	100
1294.533	1.479	1478.6	pointing	Trial2	pointing/STIM_006.jpg	100
1299.819	1.234	1233.6	pointing	Trial2	pointing/STIM_006.jpg	99
1303.772	1.524	1524.5	pointing	Trial2	pointing/STIM_006.jpg	100
1308.502	0.974	974.4	pointing	Trial2	pointing/STIM_006.jpg	100
1312.581	1.201	1201.1	pointing	Trial2	pointing/STIM_007.jpg	100
1315.881	1.41	1410.1	pointing	Trial2	pointing/STIM_007.jpg	100
1319.585	0.925	925.0	pointing	Trial2	pointing/STIM_007.jpg	100
1322.935	1.283	1283.4	pointing	Trial2	pointing/STIM_007.jpg	100
1327.66	1.182	1181.6	pointing	Trial2	pointing/STIM_007.jpg	99
1331.357	1.572	1572.2	pointing	Trial2	pointing/STIM_007.jpg	99
1336.075	1.523	1523.2	pointing	Trial2	pointing/STIM_008.jpg	100
1341.034	1.324	1323.8	pointing	Trial2	pointing/STIM_008.jpg	100
1345.049	0.853	852.8	pointing	Trial2	pointing/STIM_008.jpg	100
1349.297	0.93	929.6	pointing	Trial2	pointing/STIM_008.jpg	100
1354.153	1.07	1070.3	pointing	Trial2	pointing/STIM_008.jpg	99
1358.032	1.246	1246.0	pointing	Trial2	pointing/STIM_008.jpg	100
1362.879	1.127	1127.1	pointing	Trial2	pointing/STIM_009.jpg	100
1367.046	1.122	1122.0	pointing	Trial2	pointing/STIM_009.jpg	99
1371.395	0.87	869.8	pointing	Trial2	pointing/STIM_009.jpg	100
1375.668	1.188	1187.6	pointing	Trial2	pointing/STIM_009.jpg	99
1379.247	1.157	1157.2	pointing	Trial2	pointing/STIM_009.jpg	99
1382.653	0.798	798.2	pointing	Trial2	pointing/STIM_009.jpg	100
1387.203	1.112	1111.8	pointing	Trial2	pointing/STIM_010.jpg	99
1391.799	0.93	929.6	pointing	Trial2	pointing/STIM_010.jpg	100
1396.496	0.955	954.6	pointing	Trial2	pointing/STIM_010.jpg	99
1399.67	0.972	972.3	pointing	Trial2	pointing/STIM_010.jpg	99
1404.241	1.102	1101.6	pointing	Trial2	pointing/STIM_010.jpg	99
1408.212	0.968	968.2	pointing	Trial2	pointing/STIM_010.jpg	99
1412.13	1.171	1170.8	pointing	Trial2	pointing/STIM_011.jpg	100
1415.711	1.135	1134.7	pointing	Trial2	pointing/STIM_011.jpg	100
1420.089	0.908	908.2	pointing	Trial2	pointing/STIM_011.jpg	99
1424.8	0.888	887.7	pointing	Trial2	pointing/STIM_011.jpg	99
1429.56	1.139	1138.7	pointing	Trial2	pointing/STIM_011.jpg	100
1433.528	1.159	1159.3	pointing	Trial2	pointing/STIM_011.jpg	99
1437.836	2.757	2757.4	navigation	Trial3	navigation/STIM_000.jpg	99
1442.971	3.16	3159.5	navigation	Trial3	navigation/STIM_000.jpg	99
1449.289	2.023	2023.3	navigation	Trial3	navigation/STIM_000.jpg	99
1454.751	3.032	3031.6	navigation	Trial3	navigation/STIM_000.jpg	100
1460.915	1.988	1987.8	navigation	Trial3	navigation/STIM_000.jpg	99
1466.154	2.827	2826.9	navigation	Trial3	navigation/STIM_000.jpg	100
1472.608	2.118	2118.2	navigation	Trial3	navigation/STIM_001.jpg	99
1478.059	2.49	2490.4	navigation	Trial3	navigation/STIM_001.jpg	100
1483.459	3.102	3101.7	navigation	Trial3	navigation/STIM_001.jpg	100
1490.019	1.665	1664.8	navigation	Trial3	navigation/STIM_001.jpg	99
1494.655	2.635	2635.0	navigation	Trial3	navigation/STIM_001.jpg	99
1499.736	3.642	3641.7	navigation	Trial3	navigation/STIM_001.jpg	100
1505.976	2.896	2895.5	navigation	Trial3	navigation/STIM_002.jpg	99
1511.346	2.467	2466.7	navigation	Trial3	navigation/STIM_002.jpg	100
1517.279	3.409	3409.2	navigation	Trial3	navigation/STIM_002.jpg	100
1524.08	2.238	2238.0	navigation	Trial3	navigation/STIM_002.jpg	100
1528.961	1.682	1682.3	navigation	Trial3	navigation/STIM_002.jpg	100
1533.661	2.952	2952.2	navigation	Trial3	navigation/STIM_002.jpg	99
1539.0	3.274	3274.1	navigation	Trial3	navigation/STIM_003.jpg	100
1545.577	2.617	2616.8	navigation	Trial3	navigation/STIM_003.jpg	99
1550.818	2.367	2367.0	navigation	Trial3	navigation/STIM_003.jpg	100
1555.852	2.23	2230.0	navigation	Trial3	navigation/STIM_003.jpg	99
1560.368	2.597	2596.6	navigation	Trial3	navigation/STIM_003.jpg	99
1564.99	1.87	1870.3	navigation	Trial3	navigation/STIM_003.jpg	100
1570.137	2.65	2649.8	navigation	Trial3	navigation/STIM_004.jpg	99
1575.787	2.433	2432.9	navigation	Trial3	navigation/STIM_004.jpg	99
1580.589	2.124	2124.0	navigation	Trial3	navigation/STIM_004.jpg	99
1584.732	1.46	1460.4	navigation	Trial3	navigation/STIM_004.jpg	100
1589.177	2.805	2804.8	navigation	Trial3	navigation/STIM_004.jpg	99
1594.818	2.843	2842.6	navigation	Trial3	navigation/STIM_004.jpg	100
1599.874	1.525	1525.2	navigation	Trial3	navigation/STIM_005.jpg	99
1604.248	1.783	1783.2	navigation	Trial3	navigation/STIM_005.jpg	100
1609.208	2.67	2669.5	navigation	Trial3	navigation/STIM_005.jpg	99
1614.575	3.18	3179.8	navigation	Trial3	navigation/STIM_005.jpg	99
1620.946	2.132	2131.6	navigation	Trial3	navigation/STIM_005.jpg	99
1626.801	3.048	3048.1	navigation	Trial3	navigation/STIM_005.jpg	100
1633.194	3.536	3535.5	navigation	Trial3	navigation/STIM_006.jpg	99
1640.021	3.538	3537.9	navigation	Trial3	navigation/STIM_006.jpg	100
1645.591	1.914	1913.5	navigation	Trial3	navigation/STIM_006.jpg	100
1650.519	3.074	3074.4	navigation	Trial3	navigation/STIM_006.jpg	100
1656.836	1.802	1802.1	navigation	Trial3	navigation/STIM_006.jpg	100
1662.436	2.229	2228.7	navigation	Trial3	navigation/STIM_006.jpg	100
1667.944	3.26	3259.7	navigation	Trial3	navigation/STIM_007.jpg	100
1674.25	2.52	2520.3	navigation	Trial3	navigation/STIM_007.jpg	100
1679.711	2.492	2491.8	navigation	Trial3	navigation/STIM_007.jpg	100
1684.821	1.688	1687.9	navigation	Trial3	navigation/STIM_007.jpg	99
1689.848	3.311	3310.6	navigation	Trial3	navigation/STIM_007.jpg	99
1696.907	2.628	2628.2	navigation	Trial3	navigation/STIM_007.jpg	99
1701.498	1.675	1674.6	navigation	Trial3	navigation/STIM_008.jpg	100
1706.72	1.951	1951.4	navigation	Trial3	navigation/STIM_008.jpg	100
1711.457	2.205	2204.9	navigation	Trial3	navigation/STIM_008.jpg	100
1715.801	1.85	1849.6	navigation	Trial3	navigation/STIM_008.jpg	100
1720.86	2.763	2762.6	navigation	Trial3	navigation/STIM_008.jpg	100
1726.764	2.341	2341.2	navigation	Trial3	navigation/STIM_008.jpg	99
1731.319	1.907	1907.3	navigation	Trial3	navigation/STIM_009.jpg	99
1735.692	1.675	1674.8	navigation	Trial3	navigation/STIM_009.jpg	100
1740.739	1.7	1699.7	navigation	Trial3	navigation/STIM_009.jpg	99
1745.567	2.351	2351.2	navigation	Trial3	navigation/STIM_009.jpg	99
1751.294	3.029	3029.2	navigation	Trial3	navigation/STIM_009.jpg	99
1757.353	2.338	2338.5	navigation	Trial3	navigation/STIM_009.jpg	100
1762.969	2.346	2345.7	navigation	Trial3	navigation/STIM_010.jpg	100
1769.087	2.167	2166.8	navigation	Trial3	navigation/STIM_010.jpg	100
1773.886	2.214	2214.1	navigation	Trial3	navigation/STIM_010.jpg	99
1779.767	3.492	3492.1	navigation	Trial3	navigation/STIM_010.jpg	100
1786.364	3.264	3264.0	navigation	Trial3	navigation/STIM_010.jpg	99
1792.05	1.654	1653.6	navigation	Trial3	navigation/STIM_010.jpg	100
1797.598	2.79	2789.9	navigation	Trial3	navigation/STIM_011.jpg	99
1803.63	2.655	2655.0	navigation	Trial3	navigation/STIM_011.jpg	100
1808.479	1.642	1642.5	navigation	Trial3	navigation/STIM_011.jpg	100
1814.13	1.457	1457.4	navigation	Trial3	navigation/STIM_011.jpg	99
1818.443	3.13	3129.6	navigation	Trial3	navigation/STIM_011.jpg	100
1824.913	2.585	2585.3	navigation	Trial3	navigation/STIM_011.jpg	99
1830.099	0.969	968.7	pointing	Trial3	pointing/STIM_000.jpg	100
1834.703	0.955	954.6	pointing	Trial3	pointing/STIM_000.jpg	99
1839.311	1.491	1491.2	pointing	Trial3	pointing/STIM_000.jpg	100
1842.759	1.035	1034.9	pointing	Trial3	pointing/STIM_000.jpg	99
1847.007	0.869	869.2	pointing	Trial3	pointing/STIM_000.jpg	100
1850.712	0.91	910.0	pointing	Trial3	pointing/STIM_000.jpg	100
1853.791	1.477	1476.8	pointing	Trial3	pointing/STIM_001.jpg	99
1858.901	1.53	1529.8	pointing	Trial3	pointing/STIM_001.jpg	100
1863.318	1.173	1173.1	pointing	Trial3	pointing/STIM_001.jpg	99
1868.359	1.409	1408.6	pointing	Trial3	pointing/STIM_001.jpg	99
1873.135	1.218	1217.9	pointing	Trial3	pointing/STIM_001.jpg	99
1876.601	1.236	1236.4	pointing	Trial3	pointing/STIM_001.jpg	100
1881.308	0.818	818.5	pointing	Trial3	pointing/STIM_002.jpg	99
1885.732	0.896	896.0	pointing	Trial3	pointing/STIM_002.jpg	100
1888.727	1.438	1437.9	pointing	Trial3	pointing/STIM_002.jpg	100
1893.418	1.195	1194.6	pointing	Trial3	pointing/STIM_002.jpg	99
1898.413	1.372	1371.7	pointing	Trial3	pointing/STIM_002.jpg	100
1901.8	1.366	1366.0	pointing	Trial3	pointing/STIM_002.jpg	99
1907.176	1.557	1556.6	pointing	Trial3	pointing/STIM_003.jpg	100
1911.42	1.255	1255.0	pointing	Trial3	pointing/STIM_003.jpg	100
1915.916	1.247	1247.0	pointing	Trial3	pointing/STIM_003.jpg	100
1919.451	1.261	1260.7	pointing	Trial3	pointing/STIM_003.jpg	100
1923.129	1.094	1094.3	pointing	Trial3	pointing/STIM_003.jpg	99
1927.336	1.503	1503.3	pointing	Trial3	pointing/STIM_003.jpg	99
1932.311	0.917	916.9	pointing	Trial3	pointing/STIM_004.jpg	100
1935.267	1.209	1209.4	pointing	Trial3	pointing/STIM_004.jpg	100
1939.822	1.4	1399.9	pointing	Trial3	pointing/STIM_004.jpg	100
1944.244	1.287	1287.2	pointing	Trial3	pointing/STIM_004.jpg	100
1948.966	1.074	1074.0	pointing	Trial3	pointing/STIM_004.jpg	99
1952.963	0.925	925.1	pointing	Trial3	pointing/STIM_004.jpg	100
1957.514	0.933	932.7	pointing	Trial3	pointing/STIM_005.jpg	100
1961.832	0.916	915.5	pointing	Trial3	pointing/STIM_005.jpg	99
1965.113	0.862	862.4	pointing	Trial3	pointing/STIM_005.jpg	100
1969.734	1.296	1295.6	pointing	Trial3	pointing/STIM_005.jpg	99
1973.575	1.533	1533.3	pointing	Trial3	pointing/STIM_005.jpg	99
1977.242	1.263	1262.7	pointing	Trial3	pointing/STIM_005.jpg	100
1982.215	1.267	1267.2	pointing	Trial3	pointing/STIM_006.jpg	99
1985.861	1.481	1480.6	pointing	Trial3	pointing/STIM_006.jpg	99
1990.91	1.062	1061.8	pointing	Trial3	pointing/STIM_006.jpg	100
1994.205	0.792	791.6	pointing	Trial3	pointing/STIM_006.jpg	100
1997.196	0.985	985.2	pointing	Trial3	pointing/STIM_006.jpg	99
2001.622	1.538	1538.5	pointing	Trial3	pointing/STIM_006.jpg	99
2006.979	1.11	1109.6	pointing	Trial3	pointing/STIM_007.jpg	100
2010.939	0.912	912.1	pointing	Trial3	pointing/STIM_007.jpg	100
2015.667	1.111	1111.1	pointing	Trial3	pointing/STIM_007.jpg	99
2018.892	1.295	1294.9	pointing	Trial3	pointing/STIM_007.jpg	100
2022.82	1.277	1277.0	pointing	Trial3	pointing/STIM_007.jpg	99
2026.99	1.186	1185.8	pointing	Trial3	pointing/STIM_007.jpg	100
2031.053	1.076	1076.3	pointing	Trial3	pointing/STIM_008.jpg	100
2034.606	0.974	974.0	pointing	Trial3	pointing/STIM_008.jpg	99
2038.472	1.232	1231.5	pointing	Trial3	pointing/STIM_008.jpg	100
2042.419	1.326	1326.4	pointing	Trial3	pointing/STIM_008.jpg	99
2047.274	1.101	1101.2	pointing	Trial3	pointing/STIM_008.jpg	100
2051.181	1.458	1458.0	pointing	Trial3	pointing/STIM_008.jpg	100
2056.54	0.994	994.2	pointing	Trial3	pointing/STIM_009.jpg	99
2060.267	0.722	721.8	pointing	Trial3	pointing/STIM_009.jpg	100
2063.827	1.265	1264.8	pointing	Trial3	pointing/STIM_009.jpg	100
2067.19	1.216	1215.7	pointing	Trial3	pointing/STIM_009.jpg	100
2071.171	1.145	1144.8	pointing	Trial3	pointing/STIM_009.jpg	99
2075.841	1.195	1195.3	pointing	Trial3	pointing/STIM_009.jpg	100
2079.477	1.441	1440.9	pointing	Trial3	pointing/STIM_010.jpg	100
2084.007	1.01	1009.9	pointing	Trial3	pointing/STIM_010.jpg	99
2087.724	0.864	864.1	pointing	Trial3	pointing/STIM_010.jpg	99
2091.565	1.098	1097.9	pointing	Trial3	pointing/STIM_010.jpg	99
2096.42	0.853	852.8	pointing	Trial3	pointing/STIM_010.jpg	100
2100.237	0.928	927.8	pointing	Trial3	pointing/STIM_010.jpg	100
2103.442	1.106	1106.1	pointing	Trial3	pointing/STIM_011.jpg	100
2107.034	1.358	1357.9	pointing	Trial3	pointing/STIM_011.jpg	99
2110.922	1.236	1235.6	pointing	Trial3	pointing/STIM_011.jpg	99
2114.331	1.105	1104.9	pointing	Trial3	pointing/STIM_011.jpg	99
2119.153	0.997	997.3	pointing	Trial3	pointing/STIM_011.jpg	100
2123.829	1.077	1077.0	pointing	Trial3	pointing/STIM_011.jpg	100
