onset	duration	accuracy	trial_type	learning_stage	stimulus
0.0	3.482	correct	navigation	Trial1	navigation/STIM_000.jpg
6.611	4.724	correct	navigation	Trial1	navigation/STIM_000.jpg
13.805	2.802	correct	navigation	Trial1	navigation/STIM_000.jpg
19.551	3.325	incorrect	navigation	Trial1	navigation/STIM_000.jpg
26.395	3.421	correct	navigation	Trial1	navigation/STIM_000.jpg
32.667	3.56	incorrect	navigation	Trial1	navigation/STIM_000.jpg
39.292	4.838	correct	navigation	Trial1	navigation/STIM_001.jpg
46.04	3.97	correct	navigation	Trial1	navigation/STIM_001.jpg
52.551	2.99	incorrect	navigation	Trial1	navigation/STIM_001.jpg
59.35	3.883	incorrect	navigation	Trial1	navigation/STIM_001.jpg
65.267	3.857	correct	navigation	Trial1	navigation/STIM_001.jpg
72.797	3.046	incorrect	navigation	Trial1	navigation/STIM_001.jpg
79.419	2.972	correct	navigation	Trial1	navigation/STIM_002.jpg
85.234	3.953	correct	navigation	Trial1	navigation/STIM_002.jpg
92.351	3.73	incorrect	navigation	Trial1	navigation/STIM_002.jpg
98.802	1.84	incorrect	navigation	Trial1	navigation/STIM_002.jpg
104.106	3.666	correct	navigation	Trial1	navigation/STIM_002.jpg
111.051	3.49	correct	navigation	Trial1	navigation/STIM_002.jpg
117.345	3.471	correct	navigation	Trial1	navigation/STIM_003.jpg
123.247	4.38	incorrect	navigation	Trial1	navigation/STIM_003.jpg
129.672	2.424	correct	navigation	Trial1	navigation/STIM_003.jpg
134.444	3.836	correct	navigation	Trial1	navigation/STIM_003.jpg
141.844	3.021	incorrect	navigation	Trial1	navigation/STIM_003.jpg
148.637	3.262	correct	navigation	Trial1	navigation/STIM_003.jpg
155.777	4.884	incorrect	navigation	Trial1	navigation/STIM_004.jpg
162.846	2.198	correct	navigation	Trial1	navigation/STIM_004.jpg
168.49	3.641	correct	navigation	Trial1	navigation/STIM_004.jpg
175.159	3.446	correct	navigation	Trial1	navigation/STIM_004.jpg
181.195	3.044	correct	navigation	Trial1	navigation/STIM_004.jpg
186.39	2.282	correct	navigation	Trial1	navigation/STIM_004.jpg
191.117	2.467	incorrect	navigation	Trial1	navigation/STIM_005.jpg
196.172	4.433	correct	navigation	Trial1	navigation/STIM_005.jpg
203.539	1.884	correct	navigation	Trial1	navigation/STIM_005.jpg
207.6	1.897	correct	navigation	Trial1	navigation/STIM_005.jpg
212.426	2.712	correct	navigation	Trial1	navigation/STIM_005.jpg
217.739	2.854	correct	navigation	Trial1	navigation/STIM_005.jpg
222.6	2.752	correct	navigation	Trial1	navigation/STIM_006.jpg
229.231	2.485	incorrect	navigation	Trial1	navigation/STIM_006.jpg
234.978	3.864	incorrect	navigation	Trial1	navigation/STIM_006.jpg
240.908	2.04	correct	navigation	Trial1	navigation/STIM_006.jpg
246.159	2.681	correct	navigation	Trial1	navigation/STIM_006.jpg
252.425	1.987	incorrect	navigation	Trial1	navigation/STIM_006.jpg
257.257	2.142	correct	navigation	Trial1	navigation/STIM_007.jpg
262.308	2.808	correct	navigation	Trial1	navigation/STIM_007.jpg
267.26	2.863	incorrect	navigation	Trial1	navigation/STIM_007.jpg
273.551	3.102	incorrect	navigation	Trial1	navigation/STIM_007.jpg
280.418	4.029	correct	navigation	Trial1	navigation/STIM_007.jpg
286.965	3.027	correct	navigation	Trial1	navigation/STIM_007.jpg
292.679	2.337	correct	navigation	Trial1	navigation/STIM_008.jpg
297.873	3.826	correct	navigation	Trial1	navigation/STIM_008.jpg
303.697	4.244	incorrect	navigation	Trial1	navigation/STIM_008.jpg
310.187	2.434	correct	navigation	Trial1	navigation/STIM_008.jpg
315.107	3.533	correct	navigation	Trial1	navigation/STIM_008.jpg
322.135	3.438	correct	navigation	Trial1	navigation/STIM_008.jpg
328.971	3.189	correct	navigation	Trial1	navigation/STIM_009.jpg
335.243	3.574	correct	navigation	Trial1	navigation/STIM_009.jpg
341.578	2.631	incorrect	navigation	Trial1	navigation/STIM_009.jpg
347.685	2.83	correct	navigation	Trial1	navigation/STIM_009.jpg
352.984	3.882	correct	navigation	Trial1	navigation/STIM_009.jpg
360.808	3.549	correct	navigation	Trial1	navigation/STIM_009.jpg
367.882	2.286	correct	navigation	Trial1	navigation/STIM_010.jpg
373.607	4.767	incorrect	navigation	Trial1	navigation/STIM_010.jpg
382.23	3.785	correct	navigation	Trial1	navigation/STIM_010.jpg
389.502	2.106	correct	navigation	Trial1	navigation/STIM_010.jpg
395.542	3.382	correct	navigation	Trial1	navigation/STIM_010.jpg
401.674	2.705	incorrect	navigation	Trial1	navigation/STIM_010.jpg
406.983	5.1	incorrect	navigation	Trial1	navigation/STIM_011.jpg
414.746	2.395	incorrect	navigation	Trial1	navigation/STIM_011.jpg
420.012	3.563	correct	navigation	Trial1	navigation/STIM_011.jpg
426.129	3.405	incorrect	navigation	Trial1	navigation/STIM_011.jpg
431.436	2.262	correct	navigation	Trial1	navigation/STIM_011.jpg
435.795	1.541	incorrect	navigation	Trial1	navigation/STIM_011.jpg
439.457	0.975	correct	pointing	Trial1	pointing/STIM_000.jpg
443.42	1.49	correct	pointing	Trial1	pointing/STIM_000.jpg
447.092	0.958	correct	pointing	Trial1	pointing/STIM_000.jpg
450.896	1.376	correct	pointing	Trial1	pointing/STIM_000.jpg
454.545	1.021	correct	pointing	Trial1	pointing/STIM_000.jpg
458.1	1.315	correct	pointing	Trial1	pointing/STIM_000.jpg
462.854	0.872	correct	pointing	Trial1	pointing/STIM_001.jpg
466.214	1.294	correct	pointing	Trial1	pointing/STIM_001.jpg
471.43	1.392	correct	pointing	Trial1	pointing/STIM_001.jpg
475.827	0.955	correct	pointing	Trial1	pointing/STIM_001.jpg
480.058	1.093	correct	pointing	Trial1	pointing/STIM_001.jpg
483.688	0.889	correct	pointing	Trial1	pointing/STIM_001.jpg
487.215	1.195	correct	pointing	Trial1	pointing/STIM_002.jpg
490.624	1.121	correct	pointing	Trial1	pointing/STIM_002.jpg
495.104	1.104	incorrect	pointing	Trial1	pointing/STIM_002.jpg
500.201	1.142	incorrect	pointing	Trial1	pointing/STIM_002.jpg
503.653	0.851	correct	pointing	Trial1	pointing/STIM_002.jpg
508.145	0.862	correct	pointing	Trial1	pointing/STIM_002.jpg
511.914	1.219	correct	pointing	Trial1	pointing/STIM_003.jpg
515.692	1.376	incorrect	pointing	Trial1	pointing/STIM_003.jpg
519.696	1.195	correct	pointing	Trial1	pointing/STIM_003.jpg
523.437	0.917	correct	pointing	Trial1	pointing/STIM_003.jpg
526.515	1.407	correct	pointing	Trial1	pointing/STIM_003.jpg
530.046	1.133	correct	pointing	Trial1	pointing/STIM_003.jpg
534.044	0.951	correct	pointing	Trial1	pointing/STIM_004.jpg
537.268	1.058	correct	pointing	Trial1	pointing/STIM_004.jpg
540.571	1.227	correct	pointing	Trial1	pointing/STIM_004.jpg
543.781	1.157	correct	pointing	Trial1	pointing/STIM_004.jpg
547.537	1.261	correct	pointing	Trial1	pointing/STIM_004.jpg
551.824	0.966	correct	pointing	Trial1	pointing/STIM_004.jpg
555.648	1.22	incorrect	pointing	Trial1	pointing/STIM_005.jpg
559.075	1.391	correct	pointing	Trial1	pointing/STIM_005.jpg
563.248	1.006	correct	pointing	Trial1	pointing/STIM_005.jpg
567.571	1.229	correct	pointing	Trial1	pointing/STIM_005.jpg
572.518	0.84	correct	pointing	Trial1	pointing/STIM_005.jpg
575.689	1.232	correct	pointing	Trial1	pointing/STIM_005.jpg
580.342	1.288	incorrect	pointing	Trial1	pointing/STIM_006.jpg
584.189	1.393	incorrect	pointing	Trial1	pointing/STIM_006.jpg
587.61	1.26	correct	pointing	Trial1	pointing/STIM_006.jpg
591.325	0.952	correct	pointing	Trial1	pointing/STIM_006.jpg
594.314	1.17	incorrect	pointing	Trial1	pointing/STIM_006.jpg
597.746	1.015	correct	pointing	Trial1	pointing/STIM_006.jpg
601.254	1.055	correct	pointing	Trial1	pointing/STIM_007.jpg
604.887	1.42	correct	pointing	Trial1	pointing/STIM_007.jpg
609.025	0.998	incorrect	pointing	Trial1	pointing/STIM_007.jpg
612.469	1.011	correct	pointing	Trial1	pointing/STIM_007.jpg
616.561	1.552	correct	pointing	Trial1	pointing/STIM_007.jpg
621.275	0.854	correct	pointing	Trial1	pointing/STIM_007.jpg
625.283	1.533	correct	pointing	Trial1	pointing/STIM_008.jpg
629.432	1.292	correct	pointing	Trial1	pointing/STIM_008.jpg
634.454	1.234	correct	pointing	Trial1	pointing/STIM_008.jpg
639.213	1.243	correct	pointing	Trial1	pointing/STIM_008.jpg
642.932	1.174	correct	pointing	Trial1	pointing/STIM_008.jpg
647.823	1.274	correct	pointing	Trial1	pointing/STIM_008.jpg
652.074	1.422	incorrect	pointing	Trial1	pointing/STIM_009.jpg
656.989	1.402	correct	pointing	Trial1	pointing/STIM_009.jpg
661.456	1.014	correct	pointing	Trial1	pointing/STIM_009.jpg
666.039	0.774	correct	pointing	Trial1	pointing/STIM_009.jpg
669.469	0.858	correct	pointing	Trial1	pointing/STIM_009.jpg
673.713	1.149	correct	pointing	Trial1	pointing/STIM_009.jpg
677.459	0.886	correct	pointing	Trial1	pointing/STIM_010.jpg
682.299	1.054	correct	pointing	Trial1	pointing/STIM_010.jpg
686.942	1.269	correct	pointing	Trial1	pointing/STIM_010.jpg
691.882	1.432	correct	pointing	Trial1	pointing/STIM_010.jpg
695.75	1.059	correct	pointing	Trial1	pointing/STIM_010.jpg
700.059	1.296	incorrect	pointing	Trial1	pointing/STIM_010.jpg
703.46	1.211	correct	pointing	Trial1	pointing/STIM_011.jpg
707.644	0.822	correct	pointing	Trial1	pointing/STIM_011.jpg
712.406	1.117	correct	pointing	Trial1	pointing/STIM_011.jpg
716.845	0.931	correct	pointing	Trial1	pointing/STIM_011.jpg
721.181	1.007	correct	pointing	Trial1	pointing/STIM_011.jpg
724.468	1.418	correct	pointing	Trial1	pointing/STIM_011.jpg
729.751	1.999	incorrect	navigation	Trial2	navigation/STIM_000.jpg
734.762	2.832	correct	navigation	Trial2	navigation/STIM_000.jpg
739.576	3.33	correct	navigation	Trial2	navigation/STIM_000.jpg
746.255	3.047	correct	navigation	Trial2	navigation/STIM_000.jpg
753.181	1.635	correct	navigation	Trial2	navigation/STIM_000.jpg
758.469	3.364	correct	navigation	Trial2	navigation/STIM_000.jpg
764.096	3.5	incorrect	navigation	Trial2	navigation/STIM_001.jpg
769.65	4.001	incorrect	navigation	Trial2	navigation/STIM_001.jpg
777.088	3.735	correct	navigation	Trial2	navigation/STIM_001.jpg
782.789	1.749	correct	navigation	Trial2	navigation/STIM_001.jpg
787.639	2.23	incorrect	navigation	Trial2	navigation/STIM_001.jpg
792.786	2.796	correct	navigation	Trial2	navigation/STIM_001.jpg
799.306	3.765	incorrect	navigation	Trial2	navigation/STIM_002.jpg
806.481	2.399	correct	navigation	Trial2	navigation/STIM_002.jpg
811.057	2.652	correct	navigation	Trial2	navigation/STIM_002.jpg
817.645	1.928	correct	navigation	Trial2	navigation/STIM_002.jpg
822.377	2.08	correct	navigation	Trial2	navigation/STIM_002.jpg
827.603	3.284	correct	navigation	Trial2	navigation/STIM_002.jpg
834.685	2.233	correct	navigation	Trial2	navigation/STIM_003.jpg
840.79	3.805	correct	navigation	Trial2	navigation/STIM_003.jpg
847.078	3.31	correct	navigation	Trial2	navigation/STIM_003.jpg
853.084	1.802	correct	navigation	Trial2	navigation/STIM_003.jpg
858.036	2.843	correct	navigation	Trial2	navigation/STIM_003.jpg
863.68	1.548	correct	navigation	Trial2	navigation/STIM_003.jpg
868.67	2.701	correct	navigation	Trial2	navigation/STIM_004.jpg
873.701	2.812	correct	navigation	Trial2	navigation/STIM_004.jpg
878.659	2.731	correct	navigation	Trial2	navigation/STIM_004.jpg
883.731	2.011	correct	navigation	Trial2	navigation/STIM_004.jpg
889.686	2.061	correct	navigation	Trial2	navigation/STIM_004.jpg
894.428	2.51	correct	navigation	Trial2	navigation/STIM_004.jpg
900.127	1.872	correct	navigation	Trial2	navigation/STIM_005.jpg
904.685	2.287	correct	navigation	Trial2	navigation/STIM_005.jpg
910.651	2.677	correct	navigation	Trial2	navigation/STIM_005.jpg
916.282	2.609	correct	navigation	Trial2	navigation/STIM_005.jpg
922.825	1.765	correct	navigation	Trial2	navigation/STIM_005.jpg
927.282	2.31	incorrect	navigation	Trial2	navigation/STIM_005.jpg
932.749	3.913	incorrect	navigation	Trial2	navigation/STIM_006.jpg
939.5	2.527	incorrect	navigation	Trial2	navigation/STIM_006.jpg
945.638	2.031	correct	navigation	Trial2	navigation/STIM_006.jpg
951.374	1.652	incorrect	navigation	Trial2	navigation/STIM_006.jpg
956.304	1.981	correct	navigation	Trial2	navigation/STIM_006.jpg
960.194	3.187	correct	navigation	Trial2	navigation/STIM_006.jpg
965.611	4.159	correct	navigation	Trial2	navigation/STIM_007.jpg
972.053	2.114	correct	navigation	Trial2	navigation/STIM_007.jpg
976.932	2.969	correct	navigation	Trial2	navigation/STIM_007.jpg
981.903	2.634	incorrect	navigation	Trial2	navigation/STIM_007.jpg
986.702	3.174	correct	navigation	Trial2	navigation/STIM_007.jpg
993.103	3.643	correct	navigation	Trial2	navigation/STIM_007.jpg
998.81	2.92	correct	navigation	Trial2	navigation/STIM_008.jpg
1003.784	2.576	incorrect	navigation	Trial2	navigation/STIM_008.jpg
1010.089	2.466	correct	navigation	Trial2	navigation/STIM_008.jpg
1016.337	1.678	correct	navigation	Trial2	navigation/STIM_008.jpg
1021.076	1.986	correct	navigation	Trial2	navigation/STIM_008.jpg
1025.392	2.82	correct	navigation	Trial2	navigation/STIM_008.jpg
1031.534	2.26	correct	navigation	Trial2	navigation/STIM_009.jpg
1037.211	4.048	correct	navigation	Trial2	navigation/STIM_009.jpg
1044.224	1.899	correct	navigation	Trial2	navigation/STIM_009.jpg
1049.555	1.698	correct	navigation	Trial2	navigation/STIM_009.jpg
1055.073	3.037	correct	navigation	Trial2	navigation/STIM_009.jpg
1061.036	2.671	correct	navigation	Trial2	navigation/STIM_009.jpg
1066.655	4.051	correct	navigation	Trial2	navigation/STIM_010.jpg
1073.721	2.187	correct	navigation	Trial2	navigation/STIM_010.jpg
1078.67	2.198	correct	navigation	Trial2	navigation/STIM_010.jpg
1084.72	1.616	correct	navigation	Trial2	navigation/STIM_010.jpg
1088.824	3.179	correct	navigation	Trial2	navigation/STIM_010.jpg
1095.87	2.511	correct	navigation	Trial2	navigation/STIM_010.jpg
1101.437	4.035	correct	navigation	Trial2	navigation/STIM_011.jpg
1108.095	2.99	correct	navigation	Trial2	navigation/STIM_011.jpg
1113.495	3.798	correct	navigation	Trial2	navigation/STIM_011.jpg
1120.567	1.906	correct	navigation	Trial2	navigation/STIM_011.jpg
1126.213	2.426	correct	navigation	Trial2	navigation/STIM_011.jpg
1132.306	2.213	correct	navigation	Trial2	navigation/STIM_011.jpg
1137.859	0.957	correct	pointing	Trial2	pointing/STIM_000.jpg
1141.438	1.316	incorrect	pointing	Trial2	pointing/STIM_000.jpg
1145.379	1.252	correct	pointing	Trial2	pointing/STIM_000.jpg
1149.751	0.949	incorrect	pointing	Trial2	pointing/STIM_000.jpg
1153.248	1.214	correct	pointing	Trial2	pointing/STIM_000.jpg
1157.035	1.078	correct	pointing	Trial2	pointing/STIM_000.jpg
1162.03	1.152	correct	pointing	Trial2	pointing/STIM_001.jpg
1166.65	0.851	correct	pointing	Trial2	pointing/STIM_001.jpg
1170.387	1.42	correct	pointing	Trial2	pointing/STIM_001.jpg
1175.164	1.405	correct	pointing	Trial2	pointing/STIM_001.jpg
1178.778	0.883	incorrect	pointing	Trial2	pointing/STIM_001.jpg
1183.375	1.214	correct	pointing	Trial2	pointing/STIM_001.jpg
1186.791	1.535	correct	pointing	Trial2	pointing/STIM_002.jpg
1191.577	1.477	correct	pointing	Trial2	pointing/STIM_002.jpg
1196.006	1.352	correct	pointing	Trial2	pointing/STIM_002.jpg
1200.755	1.43	correct	pointing	Trial2	pointing/STIM_002.jpg
1204.563	1.193	correct	pointing	Trial2	pointing/STIM_002.jpg
1207.923	0.995	correct	pointing	Trial2	pointing/STIM_002.jpg
1212.245	1.067	incorrect	pointing	Trial2	pointing/STIM_003.jpg
1216.379	1.46	incorrect	pointing	Trial2	pointing/STIM_003.jpg
1219.939	1.25	correct	pointing	Trial2	pointing/STIM_003.jpg
1224.658	1.007	correct	pointing	Trial2	pointing/STIM_003.jpg
1229.035	1.454	correct	pointing	Trial2	pointing/STIM_003.jpg
1234.386	0.905	correct	pointing	Trial2	pointing/STIM_003.jpg
1237.694	1.168	correct	pointing	Trial2	pointing/STIM_004.jpg
1242.753	1.079	correct	pointing	Trial2	pointing/STIM_004.jpg
1246.107	1.486	correct	pointing	Trial2	pointing/STIM_004.jpg
1250.15	0.92	incorrect	pointing	Trial2	pointing/STIM_004.jpg
1253.829	0.898	correct	pointing	Trial2	pointing/STIM_004.jpg
1257.176	1.256	incorrect	pointing	Trial2	pointing/STIM_004.jpg
1261.188	1.492	correct	pointing	Trial2	pointing/STIM_005.jpg
1266.429	1.098	correct	pointing	Trial2	pointing/STIM_005.jpg
1270.887	0.86	correct	pointing	Trial2	pointing/STIM_005.jpg
1274.798	1.568	correct	pointing	Trial2	pointing/STIM_005.jpg
1279.02	1.522	correct	pointing	Trial2	pointing/STIM_005.jpg
1283.45	1.12	correct	pointing	Trial2	pointing/STIM_005.jpg
1288.028	0.991	correct	pointing	Trial2	pointing/STIM_006.jpg
1291.539	0.957	correct	pointing	Trial2	pointing/STIM_006.jpg
1294.533	1.479	correct	pointing	Trial2	pointing/STIM_006.jpg
1299.819	1.234	correct	pointing	Trial2	pointing/STIM_006.jpg
1303.772	1.524	correct	pointing	Trial2	pointing/STIM_006.jpg
1308.502	0.974	correct	pointing	Trial2	pointing/STIM_006.jpg
1312.581	1.201	correct	pointing	Trial2	pointing/STIM_007.jpg
1315.881	1.41	correct	pointing	Trial2	pointing/STIM_007.jpg
1319.585	0.925	correct	pointing	Trial2	pointing/STIM_007.jpg
1322.935	1.283	correct	pointing	Trial2	pointing/STIM_007.jpg
1327.66	1.182	correct	pointing	Trial2	pointing/STIM_007.jpg
1331.357	1.572	correct	pointing	Trial2	pointing/STIM_007.jpg
1336.075	1.523	correct	pointing	Trial2	pointing/STIM_008.jpg
1341.034	1.324	correct	pointing	Trial2	pointing/STIM_008.jpg
1345.049	0.853	correct	pointing	Trial2	pointing/STIM_008.jpg
1349.297	0.93	correct	pointing	Trial2	pointing/STIM_008.jpg
1354.153	1.07	correct	pointing	Trial2	pointing/STIM_008.jpg
1358.032	1.246	correct	pointing	Trial2	pointing/STIM_008.jpg
1362.879	1.127	incorrect	pointing	Trial2	pointing/STIM_009.jpg
1367.046	1.122	correct	pointing	Trial2	pointing/STIM_009.jpg
1371.395	0.87	correct	pointing	Trial2	pointing/STIM_009.jpg
1375.668	1.188	correct	pointing	Trial2	pointing/STIM_009.jpg
1379.247	1.157	correct	pointing	Trial2	pointing/STIM_009.jpg
1382.653	0.798	correct	pointing	Trial2	pointing/STIM_009.jpg
1387.203	1.112	correct	pointing	Trial2	pointing/STIM_010.jpg
1391.799	0.93	correct	pointing	Trial2	pointing/STIM_010.jpg
1396.496	0.955	incorrect	pointing	Trial2	pointing/STIM_010.jpg
1399.67	0.972	correct	pointing	Trial2	pointing/STIM_010.jpg
1404.241	1.102	correct	pointing	Trial2	pointing/STIM_010.jpg
1408.212	0.968	correct	pointing	Trial2	pointing/STIM_010.jpg
1412.13	1.171	correct	pointing	Trial2	pointing/STIM_011.jpg
1415.711	1.135	correct	pointing	Trial2	pointing/STIM_011.jpg
1420.089	0.908	correct	pointing	Trial2	pointing/STIM_011.jpg
1424.8	0.888	correct	pointing	Trial2	pointing/STIM_011.jpg
1429.56	1.139	correct	pointing	Trial2	pointing/STIM_011.jpg
1433.528	1.159	correct	pointing	Trial2	pointing/STIM_011.jpg
1437.836	2.757	correct	navigation	Trial3	navigation/STIM_000.jpg
1442.971	3.16	correct	navigation	Trial3	navigation/STIM_000.jpg
1449.289	2.023	correct	navigation	Trial3	navigation/STIM_000.jpg
1454.751	3.032	correct	navigation	Trial3	navigation/STIM_000.jpg
1460.915	1.988	correct	navigation	Trial3	navigation/STIM_000.jpg
1466.154	2.827	correct	navigation	Trial3	navigation/STIM_000.jpg
1472.608	2.118	incorrect	navigation	Trial3	navigation/STIM_001.jpg
1478.059	2.49	correct	navigation	Trial3	navigation/STIM_001.jpg
1483.459	3.102	incorrect	navigation	Trial3	navigation/STIM_001.jpg
1490.019	1.665	correct	navigation	Trial3	navigation/STIM_001.jpg
1494.655	2.635	correct	navigation	Trial3	navigation/STIM_001.jpg
1499.736	3.642	correct	navigation	Trial3	navigation/STIM_001.jpg
1505.976	2.896	correct	navigation	Trial3	navigation/STIM_002.jpg
1511.346	2.467	correct	navigation	Trial3	navigation/STIM_002.jpg
1517.279	3.409	correct	navigation	Trial3	navigation/STIM_002.jpg
1524.08	2.238	incorrect	navigation	Trial3	navigation/STIM_002.jpg
1528.961	1.682	correct	navigation	Trial3	navigation/STIM_002.jpg
1533.661	2.952	correct	navigation	Trial3	navigation/STIM_002.jpg
1539.0	3.274	correct	navigation	Trial3	navigation/STIM_003.jpg
1545.577	2.617	correct	navigation	Trial3	navigation/STIM_003.jpg
1550.818	2.367	correct	navigation	Trial3	navigation/STIM_003.jpg
1555.852	2.23	correct	navigation	Trial3	navigation/STIM_003.jpg
1560.368	2.597	incorrect	navigation	Trial3	navigation/STIM_003.jpg
1564.99	1.87	correct	navigation	Trial3	navigation/STIM_003.jpg
1570.137	2.65	incorrect	navigation	Trial3	navigation/STIM_004.jpg
1575.787	2.433	incorrect	navigation	Trial3	navigation/STIM_004.jpg
1580.589	2.124	incorrect	navigation	Trial3	navigation/STIM_004.jpg
1584.732	1.46	correct	navigation	Trial3	navigation/STIM_004.jpg
1589.177	2.805	correct	navigation	Trial3	navigation/STIM_004.jpg
1594.818	2.843	correct	navigation	Trial3	navigation/STIM_004.jpg
1599.874	1.525	correct	navigation	Trial3	navigation/STIM_005.jpg
1604.248	1.783	correct	navigation	Trial3	navigation/STIM_005.jpg
1609.208	2.67	correct	navigation	Trial3	navigation/STIM_005.jpg
1614.575	3.18	correct	navigation	Trial3	navigation/STIM_005.jpg
1620.946	2.132	correct	navigation	Trial3	navigation/STIM_005.jpg
1626.801	3.048	correct	navigation	Trial3	navigation/STIM_005.jpg
1633.194	3.536	incorrect	navigation	Trial3	navigation/STIM_006.jpg
1640.021	3.538	correct	navigation	Trial3	navigation/STIM_006.jpg
1645.591	1.914	incorrect	navigation	Trial3	navigation/STIM_006.jpg
1650.519	3.074	correct	navigation	Trial3	navigation/STIM_006.jpg
1656.836	1.802	correct	navigation	Trial3	navigation/STIM_006.jpg
1662.436	2.229	correct	navigation	Trial3	navigation/STIM_006.jpg
1667.944	3.26	correct	navigation	Trial3	navigation/STIM_007.jpg
1674.25	2.52	correct	navigation	Trial3	navigation/STIM_007.jpg
1679.711	2.492	correct	navigation	Trial3	navigation/STIM_007.jpg
1684.821	1.688	correct	navigation	Trial3	navigation/STIM_007.jpg
1689.848	3.311	incorrect	navigation	Trial3	navigation/STIM_007.jpg
1696.907	2.628	incorrect	navigation	Trial3	navigation/STIM_007.jpg
1701.498	1.675	correct	navigation	Trial3	navigation/STIM_008.jpg
1706.72	1.951	correct	navigation	Trial3	navigation/STIM_008.jpg
1711.457	2.205	correct	navigation	Trial3	navigation/STIM_008.jpg
1715.801	1.85	correct	navigation	Trial3	navigation/STIM_008.jpg
1720.86	2.763	correct	navigation	Trial3	navigation/STIM_008.jpg
1726.764	2.341	correct	navigation	Trial3	navigation/STIM_008.jpg
1731.319	1.907	correct	navigation	Trial3	navigation/STIM_009.jpg
1735.692	1.675	correct	navigation	Trial3	navigation/STIM_009.jpg
1740.739	1.7	correct	navigation	Trial3	navigation/STIM_009.jpg
1745.567	2.351	correct	navigation	Trial3	navigation/STIM_009.jpg
1751.294	3.029	correct	navigation	Trial3	navigation/STIM_009.jpg
1757.353	2.338	correct	navigation	Trial3	navigation/STIM_009.jpg
1762.969	2.346	correct	navigation	Trial3	navigation/STIM_010.jpg
1769.087	2.167	correct	navigation	Trial3	navigation/STIM_010.jpg
1773.886	2.214	correct	navigation	Trial3	navigation/STIM_010.jpg
1779.767	3.492	correct	navigation	Trial3	navigation/STIM_010.jpg
1786.364	3.264	correct	navigation	Trial3	navigation/STIM_010.jpg
1792.05	1.654	correct	navigation	Trial3	navigation/STIM_010.jpg
1797.598	2.79	correct	navigation	Trial3	navigation/STIM_011.jpg
1803.63	2.655	correct	navigation	Trial3	navigation/STIM_011.jpg
1808.479	1.642	incorrect	navigation	Trial3	navigation/STIM_011.jpg
1814.13	1.457	correct	navigation	Trial3	navigation/STIM_011.jpg
1818.443	3.13	correct	navigation	Trial3	navigation/STIM_011.jpg
1824.913	2.585	correct	navigation	Trial3	navigation/STIM_011.jpg
1830.099	0.969	incorrect	pointing	Trial3	pointing/STIM_000.jpg
1834.703	0.955	correct	pointing	Trial3	pointing/STIM_000.jpg
1839.311	1.491	correct	pointing	Trial3	pointing/STIM_000.jpg
1842.759	1.035	correct	pointing	Trial3	pointing/STIM_000.jpg
1847.007	0.869	correct	pointing	Trial3	pointing/STIM_000.jpg
1850.712	0.91	correct	pointing	Trial3	pointing/STIM_000.jpg
1853.791	1.477	correct	pointing	Trial3	pointing/STIM_001.jpg
1858.901	1.53	correct	pointing	Trial3	pointing/STIM_001.jpg
1863.318	1.173	incorrect	pointing	Trial3	pointing/STIM_001.jpg
1868.359	1.409	correct	pointing	Trial3	pointing/STIM_001.jpg
1873.135	1.218	correct	pointing	Trial3	pointing/STIM_001.jpg
1876.601	1.236	correct	pointing	Trial3	pointing/STIM_001.jpg
1881.308	0.818	correct	pointing	Trial3	pointing/STIM_002.jpg
1885.732	0.896	correct	pointing	Trial3	pointing/STIM_002.jpg
1888.727	1.438	correct	pointing	Trial3	pointing/STIM_002.jpg
1893.418	1.195	correct	pointing	Trial3	pointing/STIM_002.jpg
1898.413	1.372	correct	pointing	Trial3	pointing/STIM_002.jpg
1901.8	1.366	correct	pointing	Trial3	pointing/STIM_002.jpg
1907.176	1.557	correct	pointing	Trial3	pointing/STIM_003.jpg
1911.42	1.255	correct	pointing	Trial3	pointing/STIM_003.jpg
1915.916	1.247	correct	pointing	Trial3	pointing/STIM_003.jpg
1919.451	1.261	incorrect	pointing	Trial3	pointing/STIM_003.jpg
1923.129	1.094	correct	pointing	Trial3	pointing/STIM_003.jpg
1927.336	1.503	correct	pointing	Trial3	pointing/STIM_003.jpg
1932.311	0.917	correct	pointing	Trial3	pointing/STIM_004.jpg
1935.267	1.209	correct	pointing	Trial3	pointing/STIM_004.jpg
1939.822	1.4	incorrect	pointing	Trial3	pointing/STIM_004.jpg
1944.244	1.287	correct	pointing	Trial3	pointing/STIM_004.jpg
1948.966	1.074	correct	pointing	Trial3	pointing/STIM_004.jpg
1952.963	0.925	correct	pointing	Trial3	pointing/STIM_004.jpg
1957.514	0.933	incorrect	pointing	Trial3	pointing/STIM_005.jpg
1961.832	0.916	correct	pointing	Trial3	pointing/STIM_005.jpg
1965.113	0.862	correct	pointing	Trial3	pointing/STIM_005.jpg
1969.734	1.296	correct	pointing	Trial3	pointing/STIM_005.jpg
1973.575	1.533	correct	pointing	Trial3	pointing/STIM_005.jpg
1977.242	1.263	correct	pointing	Trial3	pointing/STIM_005.jpg
1982.215	1.267	correct	pointing	Trial3	pointing/STIM_006.jpg
1985.861	1.481	correct	pointing	Trial3	pointing/STIM_006.jpg
1990.91	1.062	correct	pointing	Trial3	pointing/STIM_006.jpg
1994.205	0.792	correct	pointing	Trial3	pointing/STIM_006.jpg
1997.196	0.985	correct	pointing	Trial3	pointing/STIM_006.jpg
2001.622	1.538	correct	pointing	Trial3	pointing/STIM_006.jpg
2006.979	1.11	correct	pointing	Trial3	pointing/STIM_007.jpg
2010.939	0.912	correct	pointing	Trial3	pointing/STIM_007.jpg
2015.667	1.111	correct	pointing	Trial3	pointing/STIM_007.jpg
2018.892	1.295	correct	pointing	Trial3	pointing/STIM_007.jpg
2022.82	1.277	correct	pointing	Trial3	pointing/STIM_007.jpg
2026.99	1.186	correct	pointing	Trial3	pointing/STIM_007.jpg
2031.053	1.076	correct	pointing	Trial3	pointing/STIM_008.jpg
2034.606	0.974	correct	pointing	Trial3	pointing/STIM_008.jpg
2038.472	1.232	correct	pointing	Trial3	pointing/STIM_008.jpg
2042.419	1.326	correct	pointing	Trial3	pointing/STIM_008.jpg
2047.274	1.101	correct	pointing	Trial3	pointing/STIM_008.jpg
2051.181	1.458	correct	pointing	Trial3	pointing/STIM_008.jpg
2056.54	0.994	correct	pointing	Trial3	pointing/STIM_009.jpg
2060.267	0.722	correct	pointing	Trial3	pointing/STIM_009.jpg
2063.827	1.265	correct	pointing	Trial3	pointing/STIM_009.jpg
2067.19	1.216	correct	pointing	Trial3	pointing/STIM_009.jpg
2071.171	1.145	correct	pointing	Trial3	pointing/STIM_009.jpg
2075.841	1.195	correct	pointing	Trial3	pointing/STIM_009.jpg
2079.477	1.441	correct	pointing	Trial3	pointing/STIM_010.jpg
2084.007	1.01	correct	pointing	Trial3	pointing/STIM_010.jpg
2087.724	0.864	correct	pointing	Trial3	pointing/STIM_010.jpg
2091.565	1.098	correct	pointing	Trial3	pointing/STIM_010.jpg
2096.42	0.853	correct	pointing	Trial3	pointing/STIM_010.jpg
2100.237	0.928	correct	pointing	Trial3	pointing/STIM_010.jpg
2103.442	1.106	correct	pointing	Trial3	pointing/STIM_011.jpg
2107.034	1.358	correct	pointing	Trial3	pointing/STIM_011.jpg
2110.922	1.236	correct	pointing	Trial3	pointing/STIM_011.jpg
2114.331	1.105	correct	pointing	Trial3	pointing/STIM_011.jpg
2119.153	0.997	correct	pointing	Trial3	pointing/STIM_011.jpg
2123.829	1.077	correct	pointing	Trial3	pointing/STIM_011.jpg
