onset	duration	response_time_ms	trial_type	learning_stage	stimulus	response_port
0.0	1.108	1108.1	study	Phase1	study/STIM_000.jpg	99
4.801	0.93	930.1	study	Phase1	study/STIM_000.jpg	99
9.562	1.295	1295.1	study	Phase1	study/STIM_000.jpg	99
12.994	1.353	1352.7	study	Phase1	study/STIM_001.jpg	100
17.048	0.828	828.0	study	Phase1	study/STIM_001.jpg	100
21.673	1.069	1069.1	study	Phase1	study/STIM_001.jpg	100
26.716	1.086	1085.6	study	Phase1	study/STIM_002.jpg	99
31.244	0.862	862.3	study	Phase1	study/STIM_002.jpg	99
34.715	1.281	1280.7	study	Phase1	study/STIM_002.jpg	100
38.083	0.743	743.0	study	Phase1	study/STIM_003.jpg	99
41.564	1.104	1104.0	study	Phase1	study/STIM_003.jpg	100
46.543	0.918	918.3	study	Phase1	study/STIM_003.jpg	99
50.714	0.98	979.8	study	Phase1	study/STIM_004.jpg	100
53.873	0.989	989.0	study	Phase1	study/STIM_004.jpg	100
57.266	0.603	602.8	study	Phase1	study/STIM_004.jpg	100
60.111	0.776	776.3	study	Phase1	study/STIM_005.jpg	100
64.848	0.8	800.1	study	Phase1	study/STIM_005.jpg	99
69.587	1.027	1027.0	study	Phase1	study/STIM_005.jpg	100
74.244	1.076	1076.4	study	Phase1	study/STIM_006.jpg	100
79.317	1.132	1131.7	study	Phase1	study/STIM_006.jpg	100
82.625	0.658	657.9	study	Phase1	study/STIM_006.jpg	100
86.74	1.242	1242.4	study	Phase1	study/STIM_007.jpg	100
91.408	0.697	696.7	study	Phase1	study/STIM_007.jpg	99
95.639	0.844	844.4	study	Phase1	study/STIM_007.jpg	100
99.59	1.434	1433.5	study	Phase1	study/STIM_008.jpg	99
104.699	0.764	763.9	study	Phase1	study/STIM_008.jpg	100
108.588	0.608	607.5	study	Phase1	study/STIM_008.jpg	100
111.625	1.346	1346.0	study	Phase1	study/STIM_009.jpg	100
115.943	1.203	1203.3	study	Phase1	study/STIM_009.jpg	99
120.99	0.781	780.9	study	Phase1	study/STIM_009.jpg	99
123.869	0.99	990.0	study	Phase1	study/STIM_010.jpg	99
128.794	1.278	1277.9	study	Phase1	study/STIM_010.jpg	99
132.105	0.643	643.3	study	Phase1	study/STIM_010.jpg	99
135.533	1.281	1280.6	study	Phase1	study/STIM_011.jpg	100
140.812	1.011	1011.1	study	Phase1	study/STIM_011.jpg	99
145.129	0.92	919.6	study	Phase1	study/STIM_011.jpg	100
149.882	1.354	1354.3	study	Phase1	study/STIM_012.jpg	100
155.164	1.23	1229.8	study	Phase1	study/STIM_012.jpg	100
159.824	0.875	874.9	study	Phase1	study/STIM_012.jpg	99
164.267	1.282	1281.8	study	Phase1	study/STIM_013.jpg	100
168.477	0.954	953.9	study	Phase1	study/STIM_013.jpg	100
173.024	0.734	734.3	study	Phase1	study/STIM_013.jpg	100
177.474	1.307	1307.1	study	Phase1	study/STIM_014.jpg	99
180.906	1.155	1154.6	study	Phase1	study/STIM_014.jpg	100
184.854	1.18	1179.7	study	Phase1	study/STIM_014.jpg	100
189.303	1.081	1081.3	study	Phase1	study/STIM_015.jpg	99
192.81	0.734	733.5	study	Phase1	study/STIM_015.jpg	100
195.765	1.27	1270.2	study	Phase1	study/STIM_015.jpg	99
200.478	1.085	1085.2	study	Phase1	study/STIM_016.jpg	100
205.391	0.634	633.6	study	Phase1	study/STIM_016.jpg	100
209.504	1.177	1177.0	study	Phase1	study/STIM_016.jpg	100
213.596	1.179	1179.4	study	Phase1	study/STIM_017.jpg	100
217.959	0.627	626.6	study	Phase1	study/STIM_017.jpg	100
220.909	0.874	873.8	study	Phase1	study/STIM_017.jpg	100
224.209	0.732	732.5	study	Phase1	study/STIM_018.jpg	100
228.103	0.71	710.0	study	Phase1	study/STIM_018.jpg	99
231.19	1.049	1048.8	study	Phase1	study/STIM_018.jpg	100
235.478	0.645	645.2	study	Phase1	study/STIM_019.jpg	100
239.259	1.009	1008.8	study	Phase1	study/STIM_019.jpg	100
243.521	0.588	587.6	study	Phase1	study/STIM_019.jpg	99
246.765	0.678	677.9	study	Phase1	study/STIM_020.jpg	100
251.116	0.804	803.9	study	Phase1	study/STIM_020.jpg	100
255.05	0.782	782.3	study	Phase1	study/STIM_020.jpg	100
259.744	0.787	786.9	study	Phase1	study/STIM_021.jpg	100
263.653	1.2	1199.6	study	Phase1	study/STIM_021.jpg	99
267.463	0.989	989.2	study	Phase1	study/STIM_021.jpg	100
271.64	1.092	1091.7	study	Phase1	study/STIM_022.jpg	100
276.182	1.024	1023.7	study	Phase1	study/STIM_022.jpg	99
280.577	0.758	758.5	study	Phase1	study/STIM_022.jpg	99
283.478	1.146	1145.8	study	Phase1	study/STIM_023.jpg	99
287.512	0.97	970.2	study	Phase1	study/STIM_023.jpg	99
291.927	0.874	873.8	study	Phase1	study/STIM_023.jpg	99
294.924	1.219	1218.7	study	Phase1	study/STIM_024.jpg	100
298.712	1.332	1331.5	study	Phase1	study/STIM_024.jpg	99
303.375	0.981	981.0	study	Phase1	study/STIM_024.jpg	100
308.354	1.28	1280.5	study	Phase1	study/STIM_025.jpg	100
312.025	1.18	1179.8	study	Phase1	study/STIM_025.jpg	99
316.25	1.24	1240.2	study	Phase1	study/STIM_025.jpg	100
319.924	0.98	980.3	study	Phase1	study/STIM_026.jpg	100
323.252	1.13	1130.0	study	Phase1	study/STIM_026.jpg	100
326.8	1.128	1128.2	study	Phase1	study/STIM_026.jpg	100
330.593	1.231	1230.9	study	Phase1	study/STIM_027.jpg	99
333.84	1.226	1226.3	study	Phase1	study/STIM_027.jpg	100
338.776	0.759	758.7	study	Phase1	study/STIM_027.jpg	100
343.303	0.919	919.1	study	Phase1	study/STIM_028.jpg	99
346.936	1.019	1018.8	study	Phase1	study/STIM_028.jpg	99
351.791	1.045	1044.7	study	Phase1	study/STIM_028.jpg	100
355.624	0.764	764.4	study	Phase1	study/STIM_029.jpg	99
360.073	0.706	706.5	study	Phase1	study/STIM_029.jpg	100
362.818	0.954	954.2	study	Phase1	study/STIM_029.jpg	99
366.931	0.639	638.8	test	Phase1	test/STIM_000.jpg	100
370.64	0.749	749.2	test	Phase1	test/STIM_000.jpg	99
375.24	1.013	1012.7	test	Phase1	test/STIM_000.jpg	99
378.865	0.921	921.0	test	Phase1	test/STIM_001.jpg	99
382.209	0.525	525.4	test	Phase1	test/STIM_001.jpg	100
386.468	0.567	567.3	test	Phase1	test/STIM_001.jpg	100
389.673	0.885	884.6	test	Phase1	test/STIM_002.jpg	99
394.133	0.78	780.5	test	Phase1	test/STIM_002.jpg	100
397.19	0.918	918.2	test	Phase1	test/STIM_002.jpg	100
402.054	1.023	1022.8	test	Phase1	test/STIM_003.jpg	100
405.145	0.898	897.7	test	Phase1	test/STIM_003.jpg	100
409.51	0.667	667.2	test	Phase1	test/STIM_003.jpg	100
413.379	0.572	571.5	test	Phase1	test/STIM_004.jpg	100
416.037	1.01	1010.2	test	Phase1	test/STIM_004.jpg	100
420.38	1.038	1038.3	test	Phase1	test/STIM_004.jpg	100
424.369	0.493	492.9	test	Phase1	test/STIM_005.jpg	99
427.139	0.902	901.8	test	Phase1	test/STIM_005.jpg	99
431.019	0.481	480.7	test	Phase1	test/STIM_005.jpg	99
434.852	0.487	487.2	test	Phase1	test/STIM_006.jpg	100
437.661	0.806	805.5	test	Phase1	test/STIM_006.jpg	100
442.215	0.722	721.7	test	Phase1	test/STIM_006.jpg	100
446.003	0.782	781.9	test	Phase1	test/STIM_007.jpg	99
450.364	0.669	669.0	test	Phase1	test/STIM_007.jpg	100
453.944	0.672	671.7	test	Phase1	test/STIM_007.jpg	100
457.482	0.708	708.0	test	Phase1	test/STIM_008.jpg	99
461.319	0.766	765.5	test	Phase1	test/STIM_008.jpg	100
465.027	0.75	750.4	test	Phase1	test/STIM_008.jpg	100
468.653	0.77	770.5	test	Phase1	test/STIM_009.jpg	100
473.38	0.959	958.7	test	Phase1	test/STIM_009.jpg	100
478.054	0.684	683.7	test	Phase1	test/STIM_009.jpg	99
480.928	0.987	986.9	test	Phase1	test/STIM_010.jpg	100
485.785	0.911	911.3	test	Phase1	test/STIM_010.jpg	100
488.749	0.989	989.2	test	Phase1	test/STIM_010.jpg	99
492.214	0.528	528.4	test	Phase1	test/STIM_011.jpg	100
495.057	0.838	837.9	test	Phase1	test/STIM_011.jpg	100
498.507	0.815	814.8	test	Phase1	test/STIM_011.jpg	100
502.123	0.501	501.3	test	Phase1	test/STIM_012.jpg	100
505.994	0.668	668.0	test	Phase1	test/STIM_012.jpg	99
509.805	0.914	913.5	test	Phase1	test/STIM_012.jpg	100
513.744	0.87	870.1	test	Phase1	test/STIM_013.jpg	100
518.157	0.708	708.1	test	Phase1	test/STIM_013.jpg	99
521.502	0.566	566.0	test	Phase1	test/STIM_013.jpg	99
524.088	1.012	1011.9	test	Phase1	test/STIM_014.jpg	100
528.675	0.548	547.5	test	Phase1	test/STIM_014.jpg	100
532.425	0.558	558.2	test	Phase1	test/STIM_014.jpg	100
536.846	0.883	882.9	test	Phase1	test/STIM_015.jpg	100
540.767	0.947	947.0	test	Phase1	test/STIM_015.jpg	99
545.335	0.952	951.5	test	Phase1	test/STIM_015.jpg	100
550.278	0.7	699.6	test	Phase1	test/STIM_016.jpg	99
554.773	0.879	879.0	test	Phase1	test/STIM_016.jpg	100
559.018	0.533	532.6	test	Phase1	test/STIM_016.jpg	99
561.911	0.766	765.9	test	Phase1	test/STIM_017.jpg	100
565.456	0.779	779.1	test	Phase1	test/STIM_017.jpg	100
568.861	0.597	596.6	test	Phase1	test/STIM_017.jpg	100
572.887	0.766	766.1	test	Phase1	test/STIM_018.jpg	100
576.635	0.593	592.8	test	Phase1	test/STIM_018.jpg	99
579.972	0.755	754.9	test	Phase1	test/STIM_018.jpg	100
584.28	0.674	673.8	test	Phase1	test/STIM_019.jpg	100
588.086	0.862	862.4	test	Phase1	test/STIM_019.jpg	100
591.699	0.748	748.2	test	Phase1	test/STIM_019.jpg	99
594.518	0.834	833.9	test	Phase1	test/STIM_020.jpg	99
598.053	0.764	763.7	test	Phase1	test/STIM_020.jpg	99
601.548	0.939	939.3	test	Phase1	test/STIM_020.jpg	99
605.297	0.97	970.4	test	Phase1	test/STIM_021.jpg	100
608.809	0.94	939.6	test	Phase1	test/STIM_021.jpg	99
613.121	0.854	853.5	test	Phase1	test/STIM_021.jpg	100
616.409	1.003	1002.6	test	Phase1	test/STIM_022.jpg	99
619.416	0.912	912.4	test	Phase1	test/STIM_022.jpg	100
624.265	0.683	682.8	test	Phase1	test/STIM_022.jpg	100
627.632	0.974	974.3	test	Phase1	test/STIM_023.jpg	100
631.365	0.565	565.4	test	Phase1	test/STIM_023.jpg	99
635.258	0.833	832.7	test	Phase1	test/STIM_023.jpg	99
639.74	0.5	500.1	test	Phase1	test/STIM_024.jpg	99
644.043	1.036	1036.1	test	Phase1	test/STIM_024.jpg	100
648.286	0.695	694.9	test	Phase1	test/STIM_024.jpg	99
652.491	0.755	754.9	test	Phase1	test/STIM_025.jpg	100
656.997	0.481	480.8	test	Phase1	test/STIM_025.jpg	99
660.782	0.482	482.0	test	Phase1	test/STIM_025.jpg	99
663.596	0.953	952.9	test	Phase1	test/STIM_026.jpg	99
666.829	0.801	801.0	test	Phase1	test/STIM_026.jpg	99
669.689	0.785	784.7	test	Phase1	test/STIM_026.jpg	99
673.712	0.973	973.4	test	Phase1	test/STIM_027.jpg	100
677.558	1.027	1026.7	test	Phase1	test/STIM_027.jpg	100
681.156	1.037	1037.4	test	Phase1	test/STIM_027.jpg	99
685.356	0.849	848.8	test	Phase1	test/STIM_028.jpg	100
688.28	0.592	591.6	test	Phase1	test/STIM_028.jpg	99
691.473	0.904	904.5	test	Phase1	test/STIM_028.jpg	100
695.77	0.651	650.8	test	Phase1	test/STIM_029.jpg	100
698.603	0.802	801.6	test	Phase1	test/STIM_029.jpg	100
702.865	0.486	486.1	test	Phase1	test/STIM_029.jpg	99
706.238	0.902	901.6	study	Phase2	study/STIM_000.jpg	99
710.771	0.598	597.6	study	Phase2	study/STIM_000.jpg	100
714.025	0.779	779.2	study	Phase2	study/STIM_000.jpg	100
718.496	0.734	733.5	study	Phase2	study/STIM_001.jpg	99
722.091	0.683	683.4	study	Phase2	study/STIM_001.jpg	100
726.503	0.745	744.6	study	Phase2	study/STIM_001.jpg	100
731.001	0.899	898.8	study	Phase2	study/STIM_002.jpg	99
735.642	1.067	1066.6	study	Phase2	study/STIM_002.jpg	100
739.758	0.988	987.7	study	Phase2	study/STIM_002.jpg	99
743.792	1.219	1219.1	study	Phase2	study/STIM_003.jpg	99
747.86	0.663	662.8	study	Phase2	study/STIM_003.jpg	99
751.088	0.869	868.9	study	Phase2	study/STIM_003.jpg	100
754.234	0.739	739.2	study	Phase2	study/STIM_004.jpg	100
758.246	0.958	957.8	study	Phase2	study/STIM_004.jpg	100
762.033	1.049	1049.2	study	Phase2	study/STIM_004.jpg	100
766.645	1.153	1153.4	study	Phase2	study/STIM_005.jpg	99
771.771	0.795	794.9	study	Phase2	study/STIM_005.jpg	100
775.175	0.87	869.8	study	Phase2	study/STIM_005.jpg	99
779.962	0.623	623.2	study	Phase2	study/STIM_006.jpg	100
782.597	0.84	840.4	study	Phase2	study/STIM_006.jpg	99
785.902	0.908	907.8	study	Phase2	study/STIM_006.jpg	99
789.445	0.849	848.6	study	Phase2	study/STIM_007.jpg	100
793.139	0.617	617.0	study	Phase2	study/STIM_007.jpg	100
796.597	0.759	759.2	study	Phase2	study/STIM_007.jpg	99
799.605	0.676	676.4	study	Phase2	study/STIM_008.jpg	99
803.24	0.887	887.3	study	Phase2	study/STIM_008.jpg	99
808.014	0.531	531.4	study	Phase2	study/STIM_008.jpg	99
812.055	0.995	995.3	study	Phase2	study/STIM_009.jpg	100
816.091	1.035	1035.0	study	Phase2	study/STIM_009.jpg	100
820.399	1.044	1043.9	study	Phase2	study/STIM_009.jpg	100
823.687	0.791	790.8	study	Phase2	study/STIM_010.jpg	100
826.732	0.849	849.0	study	Phase2	study/STIM_010.jpg	99
831.153	0.787	787.0	study	Phase2	study/STIM_010.jpg	100
834.5	1.178	1177.8	study	Phase2	study/STIM_011.jpg	99
838.409	0.765	764.7	study	Phase2	study/STIM_011.jpg	100
842.119	0.994	994.1	study	Phase2	study/STIM_011.jpg	99
845.468	0.712	711.7	study	Phase2	study/STIM_012.jpg	100
848.862	0.667	667.2	study	Phase2	study/STIM_012.jpg	99
851.556	0.782	782.3	study	Phase2	study/STIM_012.jpg	99
855.003	0.595	594.9	study	Phase2	study/STIM_013.jpg	99
858.322	1.113	1113.0	study	Phase2	study/STIM_013.jpg	99
862.582	0.691	690.6	study	Phase2	study/STIM_013.jpg	99
865.848	1.008	1008.4	study	Phase2	study/STIM_014.jpg	99
869.701	0.846	846.5	study	Phase2	study/STIM_014.jpg	100
873.873	0.788	788.5	study	Phase2	study/STIM_014.jpg	100
877.217	1.049	1048.7	study	Phase2	study/STIM_015.jpg	99
880.463	0.94	939.9	study	Phase2	study/STIM_015.jpg	100
883.522	0.926	926.2	study	Phase2	study/STIM_015.jpg	100
886.499	0.892	892.2	study	Phase2	study/STIM_016.jpg	100
889.581	0.734	733.6	study	Phase2	study/STIM_016.jpg	99
892.823	0.545	544.8	study	Phase2	study/STIM_016.jpg	100
897.097	0.764	764.5	study	Phase2	study/STIM_017.jpg	100
900.088	0.772	772.2	study	Phase2	study/STIM_017.jpg	99
903.651	1.012	1011.8	study	Phase2	study/STIM_017.jpg	99
908.391	1.11	1110.1	study	Phase2	study/STIM_018.jpg	99
912.011	0.745	744.8	study	Phase2	study/STIM_018.jpg	100
915.054	0.741	741.1	study	Phase2	study/STIM_018.jpg	99
918.232	1.135	1135.4	study	Phase2	study/STIM_019.jpg	100
922.113	1.106	1105.8	study	Phase2	study/STIM_019.jpg	100
925.516	0.664	663.8	study	Phase2	study/STIM_019.jpg	100
929.281	1.085	1085.1	study	Phase2	study/STIM_020.jpg	99
933.103	0.996	995.8	study	Phase2	study/STIM_020.jpg	100
937.428	0.597	597.1	study	Phase2	study/STIM_020.jpg	100
940.371	1.062	1061.5	study	Phase2	study/STIM_021.jpg	99
944.293	0.557	556.8	study	Phase2	study/STIM_021.jpg	99
947.231	0.553	552.9	study	Phase2	study/STIM_021.jpg	100
950.153	1.009	1009.0	study	Phase2	study/STIM_022.jpg	99
954.097	0.808	807.8	study	Phase2	study/STIM_022.jpg	99
957.935	0.576	576.0	study	Phase2	study/STIM_022.jpg	100
960.712	1.112	1112.3	study	Phase2	study/STIM_023.jpg	100
965.231	0.542	542.3	study	Phase2	study/STIM_023.jpg	100
967.787	0.645	645.3	study	Phase2	study/STIM_023.jpg	99
971.273	0.837	837.0	study	Phase2	study/STIM_024.jpg	100
975.769	1.002	1002.4	study	Phase2	study/STIM_024.jpg	99
979.863	0.485	484.7	study	Phase2	study/STIM_024.jpg	100
984.186	0.913	913.2	study	Phase2	study/STIM_025.jpg	100
987.633	0.842	842.5	study	Phase2	study/STIM_025.jpg	100
991.481	0.989	989.1	study	Phase2	study/STIM_025.jpg	99
994.805	1.107	1107.1	study	Phase2	study/STIM_026.jpg	100
998.937	0.83	830.1	study	Phase2	study/STIM_026.jpg	99
1003.096	0.636	636.5	study	Phase2	study/STIM_026.jpg	100
1007.442	0.704	704.2	study	Phase2	study/STIM_027.jpg	99
1010.755	0.626	625.5	study	Phase2	study/STIM_027.jpg	100
1015.039	0.615	615.4	study	Phase2	study/STIM_027.jpg	99
1018.528	0.887	886.7	study	Phase2	study/STIM_028.jpg	100
1022.652	1.021	1021.2	study	Phase2	study/STIM_028.jpg	99
1026.3	0.548	547.9	study	Phase2	study/STIM_028.jpg	100
1029.474	1.084	1083.6	study	Phase2	study/STIM_029.jpg	100
1032.644	0.577	576.9	study	Phase2	study/STIM_029.jpg	100
1036.625	0.702	702.0	study	Phase2	study/STIM_029.jpg	99
1039.643	0.614	614.3	test	Phase2	test/STIM_000.jpg	99
1042.9	0.754	754.3	test	Phase2	test/STIM_000.jpg	100
1047.388	0.885	885.3	test	Phase2	test/STIM_000.jpg	99
1051.848	0.986	985.8	test	Phase2	test/STIM_001.jpg	100
1056.079	0.501	500.8	test	Phase2	test/STIM_001.jpg	100
1060.296	0.686	686.3	test	Phase2	test/STIM_001.jpg	100
1064.072	0.952	952.2	test	Phase2	test/STIM_002.jpg	100
1067.288	0.748	748.5	test	Phase2	test/STIM_002.jpg	99
1071.651	0.573	572.8	test	Phase2	test/STIM_002.jpg	99
1074.436	0.692	691.6	test	Phase2	test/STIM_003.jpg	99
1078.987	0.795	795.0	test	Phase2	test/STIM_003.jpg	99
1082.486	0.598	597.5	test	Phase2	test/STIM_003.jpg	99
1085.242	0.729	728.9	test	Phase2	test/STIM_004.jpg	99
1088.716	0.956	956.0	test	Phase2	test/STIM_004.jpg	100
1092.543	0.775	774.7	test	Phase2	test/STIM_004.jpg	100
1095.482	0.906	906.0	test	Phase2	test/STIM_005.jpg	100
1098.678	0.529	528.6	test	Phase2	test/STIM_005.jpg	99
1101.241	0.812	811.9	test	Phase2	test/STIM_005.jpg	100
1105.067	0.988	987.6	test	Phase2	test/STIM_006.jpg	100
1109.325	0.98	979.9	test	Phase2	test/STIM_006.jpg	99
1112.538	0.698	697.7	test	Phase2	test/STIM_006.jpg	100
1116.403	1.01	1009.8	test	Phase2	test/STIM_007.jpg	99
1120.855	0.634	633.8	test	Phase2	test/STIM_007.jpg	99
1125.297	0.529	529.1	test	Phase2	test/STIM_007.jpg	99
1128.536	0.512	512.4	test	Phase2	test/STIM_008.jpg	99
1131.174	0.644	644.5	test	Phase2	test/STIM_008.jpg	100
1133.896	0.611	611.2	test	Phase2	test/STIM_008.jpg	100
1137.304	0.676	676.1	test	Phase2	test/STIM_009.jpg	100
1141.806	0.736	736.0	test	Phase2	test/STIM_009.jpg	99
1145.906	1.014	1014.5	test	Phase2	test/STIM_009.jpg	99
1149.308	0.62	620.4	test	Phase2	test/STIM_010.jpg	99
1153.54	0.693	693.0	test	Phase2	test/STIM_010.jpg	100
1157.485	0.542	542.5	test	Phase2	test/STIM_010.jpg	99
1161.46	0.507	506.9	test	Phase2	test/STIM_011.jpg	100
1165.588	1.03	1029.6	test	Phase2	test/STIM_011.jpg	100
1169.237	0.637	636.9	test	Phase2	test/STIM_011.jpg	100
1173.74	0.607	607.3	test	Phase2	test/STIM_012.jpg	100
1177.373	0.802	801.9	test	Phase2	test/STIM_012.jpg	99
1180.821	0.719	719.1	test	Phase2	test/STIM_012.jpg	99
1185.007	0.679	678.9	test	Phase2	test/STIM_013.jpg	99
1188.415	0.495	495.4	test	Phase2	test/STIM_013.jpg	99
1191.699	0.552	552.2	test	Phase2	test/STIM_013.jpg	99
1195.63	0.766	766.2	test	Phase2	test/STIM_014.jpg	100
1199.464	0.635	635.2	test	Phase2	test/STIM_014.jpg	100
1202.292	0.574	574.3	test	Phase2	test/STIM_014.jpg	100
1205.446	0.839	838.6	test	Phase2	test/STIM_015.jpg	99
1209.415	0.763	763.4	test	Phase2	test/STIM_015.jpg	100
1212.589	0.983	982.7	test	Phase2	test/STIM_015.jpg	99
1215.858	0.897	896.6	test	Phase2	test/STIM_016.jpg	99
1219.794	0.514	514.1	test	Phase2	test/STIM_016.jpg	100
1223.39	0.761	761.1	test	Phase2	test/STIM_016.jpg	99
1226.639	0.531	531.0	test	Phase2	test/STIM_017.jpg	100
1229.479	0.693	692.8	test	Phase2	test/STIM_017.jpg	99
1233.385	0.968	968.3	test	Phase2	test/STIM_017.jpg	100
1238.232	0.6	600.1	test	Phase2	test/STIM_018.jpg	99
1240.991	0.594	593.6	test	Phase2	test/STIM_018.jpg	99
1244.114	0.957	957.1	test	Phase2	test/STIM_018.jpg	99
1248.704	0.659	658.7	test	Phase2	test/STIM_019.jpg	100
1253.067	0.755	755.4	test	Phase2	test/STIM_019.jpg	100
1256.543	0.935	935.2	test	Phase2	test/STIM_019.jpg	100
1260.955	0.892	892.4	test	Phase2	test/STIM_020.jpg	99
1263.888	0.616	616.5	test	Phase2	test/STIM_020.jpg	99
1268.029	0.781	780.7	test	Phase2	test/STIM_020.jpg	99
1272.042	0.538	538.5	test	Phase2	test/STIM_021.jpg	100
1274.734	0.94	940.5	test	Phase2	test/STIM_021.jpg	100
1279.449	0.591	591.0	test	Phase2	test/STIM_021.jpg	99
1283.229	0.74	740.0	test	Phase2	test/STIM_022.jpg	99
1287.589	0.595	595.4	test	Phase2	test/STIM_022.jpg	99
1291.01	0.944	944.5	test	Phase2	test/STIM_022.jpg	100
1295.743	0.784	784.4	test	Phase2	test/STIM_023.jpg	99
1298.972	0.52	519.7	test	Phase2	test/STIM_023.jpg	99
1301.53	0.858	858.0	test	Phase2	test/STIM_023.jpg	99
1304.797	0.488	487.9	test	Phase2	test/STIM_024.jpg	100
1307.36	0.533	533.4	test	Phase2	test/STIM_024.jpg	99
1310.073	0.92	919.6	test	Phase2	test/STIM_024.jpg	99
1313.578	0.961	961.4	test	Phase2	test/STIM_025.jpg	99
1317.129	0.926	926.2	test	Phase2	test/STIM_025.jpg	100
1320.216	0.664	664.2	test	Phase2	test/STIM_025.jpg	99
1323.392	0.824	823.9	test	Phase2	test/STIM_026.jpg	99
1326.63	0.678	678.1	test	Phase2	test/STIM_026.jpg	100
1330.621	0.81	810.4	test	Phase2	test/STIM_026.jpg	100
1334.926	0.963	962.8	test	Phase2	test/STIM_027.jpg	99
1339.164	0.879	878.6	test	Phase2	test/STIM_027.jpg	99
1342.156	0.725	725.4	test	Phase2	test/STIM_027.jpg	99
1345.204	0.684	683.7	test	Phase2	test/STIM_028.jpg	100
1349.638	0.991	991.4	test	Phase2	test/STIM_028.jpg	100
1353.818	0.675	675.3	test	Phase2	test/STIM_028.jpg	99
1356.509	0.676	675.8	test	Phase2	test/STIM_029.jpg	99
1360.496	0.484	484.3	test	Phase2	test/STIM_029.jpg	99
1362.995	0.683	683.1	test	Phase2	test/STIM_029.jpg	99
1366.497	0.948	947.5	study	Phase3	study/STIM_000.jpg	99
1370.884	0.704	703.5	study	Phase3	study/STIM_000.jpg	100
1375.573	0.619	618.6	study	Phase3	study/STIM_000.jpg	100
1380.024	0.614	614.3	study	Phase3	study/STIM_001.jpg	100
1384.21	0.97	970.2	study	Phase3	study/STIM_001.jpg	99
1388.93	0.571	571.3	study	Phase3	study/STIM_001.jpg	99
1392.908	0.743	742.9	study	Phase3	study/STIM_002.jpg	99
1396.152	0.85	850.0	study	Phase3	study/STIM_002.jpg	99
1400.729	0.907	906.9	study	Phase3	study/STIM_002.jpg	99
1404.064	0.976	976.1	study	Phase3	study/STIM_003.jpg	99
1408.135	0.684	684.4	study	Phase3	study/STIM_003.jpg	99
1412.17	0.652	651.6	study	Phase3	study/STIM_003.jpg	100
1416.512	0.794	793.5	study	Phase3	study/STIM_004.jpg	99
1421.043	0.538	538.2	study	Phase3	study/STIM_004.jpg	100
1425.381	0.693	693.4	study	Phase3	study/STIM_004.jpg	99
1428.825	0.532	532.1	study	Phase3	study/STIM_005.jpg	100
1432.153	0.908	908.3	study	Phase3	study/STIM_005.jpg	99
1436.974	0.86	860.1	study	Phase3	study/STIM_005.jpg	99
1440.64	0.791	790.9	study	Phase3	study/STIM_006.jpg	100
1444.447	0.934	933.9	study	Phase3	study/STIM_006.jpg	100
1447.55	0.726	725.9	study	Phase3	study/STIM_006.jpg	99
1451.682	0.769	769.3	study	Phase3	study/STIM_007.jpg	100
1455.937	0.825	825.2	study	Phase3	study/STIM_007.jpg	100
1459.01	0.633	632.6	study	Phase3	study/STIM_007.jpg	100
1462.923	0.711	710.7	study	Phase3	study/STIM_008.jpg	99
1466.373	0.501	501.4	study	Phase3	study/STIM_008.jpg	99
1469.377	0.611	610.8	study	Phase3	study/STIM_008.jpg	99
1472.06	0.607	607.1	study	Phase3	study/STIM_009.jpg	100
1475.784	0.735	734.8	study	Phase3	study/STIM_009.jpg	99
1478.641	0.832	832.4	study	Phase3	study/STIM_009.jpg	100
1482.712	0.924	923.5	study	Phase3	study/STIM_010.jpg	100
1487.19	0.485	485.2	study	Phase3	study/STIM_010.jpg	99
1489.855	0.958	958.0	study	Phase3	study/STIM_010.jpg	100
1493.497	0.746	745.6	study	Phase3	study/STIM_011.jpg	100
1497.628	0.595	594.9	study	Phase3	study/STIM_011.jpg	100
1500.711	0.621	621.3	study	Phase3	study/STIM_011.jpg	99
1504.578	0.781	780.6	study	Phase3	study/STIM_012.jpg	100
1508.857	0.998	997.7	study	Phase3	study/STIM_012.jpg	99
1512.924	0.545	545.3	study	Phase3	study/STIM_012.jpg	99
1515.92	0.72	719.9	study	Phase3	study/STIM_013.jpg	99
1520.61	0.793	793.3	study	Phase3	study/STIM_013.jpg	100
1524.877	0.571	571.0	study	Phase3	study/STIM_013.jpg	99
1528.423	0.734	734.3	study	Phase3	study/STIM_014.jpg	100
1531.191	1.002	1002.5	study	Phase3	study/STIM_014.jpg	100
1535.765	0.633	632.6	study	Phase3	study/STIM_014.jpg	99
1539.166	0.456	456.3	study	Phase3	study/STIM_015.jpg	100
1541.638	0.75	749.5	study	Phase3	study/STIM_015.jpg	100
1545.098	0.457	457.0	study	Phase3	study/STIM_015.jpg	100
1548.969	0.453	453.1	study	Phase3	study/STIM_016.jpg	100
1552.492	0.993	993.0	study	Phase3	study/STIM_016.jpg	99
1557.141	0.693	693.4	study	Phase3	study/STIM_016.jpg	100
1560.484	0.691	690.9	study	Phase3	study/STIM_017.jpg	100
1563.695	0.693	693.1	study	Phase3	study/STIM_017.jpg	99
1566.69	0.849	849.4	study	Phase3	study/STIM_017.jpg	100
1570.168	0.49	490.5	study	Phase3	study/STIM_018.jpg	99
1573.995	0.863	863.3	study	Phase3	study/STIM_018.jpg	99
1577.176	0.52	520.1	study	Phase3	study/STIM_018.jpg	100
1579.728	0.943	942.7	study	Phase3	study/STIM_019.jpg	100
1583.778	0.657	656.6	study	Phase3	study/STIM_019.jpg	99
1587.521	0.994	994.1	study	Phase3	study/STIM_019.jpg	100
1591.705	0.741	741.3	study	Phase3	study/STIM_020.jpg	100
1596.196	0.564	563.7	study	Phase3	study/STIM_020.jpg	99
1599.471	0.922	921.9	study	Phase3	study/STIM_020.jpg	99
1602.677	0.981	981.0	study	Phase3	study/STIM_021.jpg	100
1606.567	0.839	838.6	study	Phase3	study/STIM_021.jpg	100
1610.515	1.005	1005.4	study	Phase3	study/STIM_021.jpg	99
1615.044	0.816	816.5	study	Phase3	study/STIM_022.jpg	99
1618.062	0.598	597.8	study	Phase3	study/STIM_022.jpg	100
1622.296	0.848	848.5	study	Phase3	study/STIM_022.jpg	99
1625.805	0.574	573.5	study	Phase3	study/STIM_023.jpg	99
1630.166	0.791	790.7	study	Phase3	study/STIM_023.jpg	99
1634.694	0.692	691.7	study	Phase3	study/STIM_023.jpg	100
1638.626	0.495	494.6	study	Phase3	study/STIM_024.jpg	100
1643.064	0.78	779.9	study	Phase3	study/STIM_024.jpg	99
1647.574	0.541	541.1	study	Phase3	study/STIM_024.jpg	99
1651.184	0.474	473.5	study	Phase3	study/STIM_025.jpg	99
1653.997	0.795	794.8	study	Phase3	study/STIM_025.jpg	100
1657.401	0.508	508.2	study	Phase3	study/STIM_025.jpg	99
1661.904	0.67	669.5	study	Phase3	study/STIM_026.jpg	99
1664.646	0.537	537.4	study	Phase3	study/STIM_026.jpg	100
1667.984	0.79	790.4	study	Phase3	study/STIM_026.jpg	99
1671.757	0.957	957.4	study	Phase3	study/STIM_027.jpg	100
1676.139	0.966	965.6	study	Phase3	study/STIM_027.jpg	100
1680.399	0.925	925.4	study	Phase3	study/STIM_027.jpg	100
1684.529	0.582	582.1	study	Phase3	study/STIM_028.jpg	100
1687.953	0.906	906.5	study	Phase3	study/STIM_028.jpg	99
1691.027	0.694	694.3	study	Phase3	study/STIM_028.jpg	100
1694.195	0.495	494.8	study	Phase3	study/STIM_029.jpg	100
1696.866	0.454	454.4	study	Phase3	study/STIM_029.jpg	100
1700.237	0.471	471.0	study	Phase3	study/STIM_029.jpg	99
1702.734	0.662	662.4	test	Phase3	test/STIM_000.jpg	100
1706.188	0.488	487.8	test	Phase3	test/STIM_000.jpg	99
1708.972	1.016	1016.0	test	Phase3	test/STIM_000.jpg	100
1712.123	0.972	972.2	test	Phase3	test/STIM_001.jpg	100
1715.389	0.631	631.2	test	Phase3	test/STIM_001.jpg	100
1719.237	1.024	1023.7	test	Phase3	test/STIM_001.jpg	99
1722.686	1.022	1022.2	test	Phase3	test/STIM_002.jpg	99
1726.169	1.035	1034.7	test	Phase3	test/STIM_002.jpg	99
1729.818	0.615	615.2	test	Phase3	test/STIM_002.jpg	100
1733.074	0.485	484.8	test	Phase3	test/STIM_003.jpg	99
1736.638	0.627	626.8	test	Phase3	test/STIM_003.jpg	100
1740.655	1.027	1027.0	test	Phase3	test/STIM_003.jpg	99
1744.309	0.896	896.4	test	Phase3	test/STIM_004.jpg	100
1748.233	0.776	776.2	test	Phase3	test/STIM_004.jpg	99
1751.732	0.919	918.6	test	Phase3	test/STIM_004.jpg	99
1755.365	0.858	858.0	test	Phase3	test/STIM_005.jpg	99
1759.936	0.668	667.9	test	Phase3	test/STIM_005.jpg	100
1763.128	0.827	827.0	test	Phase3	test/STIM_005.jpg	99
1767.81	0.676	675.9	test	Phase3	test/STIM_006.jpg	100
1771.819	0.756	756.2	test	Phase3	test/STIM_006.jpg	100
1775.161	0.875	875.3	test	Phase3	test/STIM_006.jpg	100
1778.175	0.982	982.3	test	Phase3	test/STIM_007.jpg	100
1781.323	0.506	505.6	test	Phase3	test/STIM_007.jpg	99
1785.826	0.638	637.6	test	Phase3	test/STIM_007.jpg	99
1788.798	0.626	625.5	test	Phase3	test/STIM_008.jpg	99
1793.136	1.035	1034.8	test	Phase3	test/STIM_008.jpg	99
1796.596	0.571	571.1	test	Phase3	test/STIM_008.jpg	100
1799.934	0.884	884.1	test	Phase3	test/STIM_009.jpg	99
1803.846	0.701	701.1	test	Phase3	test/STIM_009.jpg	99
1807.673	0.824	823.8	test	Phase3	test/STIM_009.jpg	99
1811.788	0.597	597.4	test	Phase3	test/STIM_010.jpg	99
1815.057	0.813	812.8	test	Phase3	test/STIM_010.jpg	100
1818.27	0.86	860.3	test	Phase3	test/STIM_010.jpg	99
1821.757	0.919	918.9	test	Phase3	test/STIM_011.jpg	99
1826.575	0.808	808.2	test	Phase3	test/STIM_011.jpg	99
1830.717	0.953	952.6	test	Phase3	test/STIM_011.jpg	100
1835.158	0.655	655.2	test	Phase3	test/STIM_012.jpg	100
1837.954	0.63	630.5	test	Phase3	test/STIM_012.jpg	100
1841.913	0.786	786.2	test	Phase3	test/STIM_012.jpg	100
1845.606	0.767	766.8	test	Phase3	test/STIM_013.jpg	100
1849.576	0.67	669.5	test	Phase3	test/STIM_013.jpg	100
1853.059	0.815	815.1	test	Phase3	test/STIM_013.jpg	100
1856.2	0.589	588.8	test	Phase3	test/STIM_014.jpg	100
1859.106	0.826	826.5	test	Phase3	test/STIM_014.jpg	99
1863.696	0.888	887.7	test	Phase3	test/STIM_014.jpg	100
1867.509	0.551	550.8	test	Phase3	test/STIM_015.jpg	100
1871.942	0.659	659.2	test	Phase3	test/STIM_015.jpg	99
1875.835	0.601	601.4	test	Phase3	test/STIM_015.jpg	100
1878.629	0.63	630.2	test	Phase3	test/STIM_016.jpg	100
1882.23	0.89	890.0	test	Phase3	test/STIM_016.jpg	99
1885.614	0.499	499.4	test	Phase3	test/STIM_016.jpg	100
1889.761	0.892	892.5	test	Phase3	test/STIM_017.jpg	100
1893.557	0.692	692.4	test	Phase3	test/STIM_017.jpg	99
1896.931	0.588	587.7	test	Phase3	test/STIM_017.jpg	99
1901.295	0.616	616.1	test	Phase3	test/STIM_018.jpg	100
1904.913	0.62	619.9	test	Phase3	test/STIM_018.jpg	100
1909.459	0.584	584.5	test	Phase3	test/STIM_018.jpg	99
1913.071	0.718	717.8	test	Phase3	test/STIM_019.jpg	100
1917.279	0.743	743.0	test	Phase3	test/STIM_019.jpg	100
1921.562	0.694	693.8	test	Phase3	test/STIM_019.jpg	99
1925.762	0.542	541.7	test	Phase3	test/STIM_020.jpg	99
1928.397	0.558	558.0	test	Phase3	test/STIM_020.jpg	100
1932.306	0.864	864.3	test	Phase3	test/STIM_020.jpg	99
1936.264	0.943	943.4	test	Phase3	test/STIM_021.jpg	99
1940.492	0.514	513.8	test	Phase3	test/STIM_021.jpg	100
1944.309	0.832	831.7	test	Phase3	test/STIM_021.jpg	100
1947.95	0.608	608.0	test	Phase3	test/STIM_022.jpg	100
1952.549	0.588	587.8	test	Phase3	test/STIM_022.jpg	99
1955.812	0.762	762.4	test	Phase3	test/STIM_022.jpg	99
1959.566	1.031	1031.3	test	Phase3	test/STIM_023.jpg	100
1962.971	0.644	644.1	test	Phase3	test/STIM_023.jpg	99
1967.371	0.777	777.0	test	Phase3	test/STIM_023.jpg	99
1970.454	0.618	617.6	test	Phase3	test/STIM_024.jpg	100
1973.169	0.819	818.6	test	Phase3	test/STIM_024.jpg	99
1976.432	0.715	715.4	test	Phase3	test/STIM_024.jpg	99
1980.445	0.564	563.5	test	Phase3	test/STIM_025.jpg	99
1983.332	0.776	776.5	test	Phase3	test/STIM_025.jpg	99
1987.868	0.511	511.2	test	Phase3	test/STIM_025.jpg	100
1991.794	0.982	981.8	test	Phase3	test/STIM_026.jpg	99
1996.132	0.877	876.9	test	Phase3	test/STIM_026.jpg	100
2000.711	0.736	735.6	test	Phase3	test/STIM_026.jpg	100
2003.815	1.023	1022.6	test	Phase3	test/STIM_027.jpg	100
2008.307	0.648	648.1	test	Phase3	test/STIM_027.jpg	100
2011.309	1.012	1011.9	test	Phase3	test/STIM_027.jpg	100
2014.624	0.617	617.0	test	Phase3	test/STIM_028.jpg	100
2017.479	0.807	806.9	test	Phase3	test/STIM_028.jpg	100
2021.568	0.524	523.7	test	Phase3	test/STIM_028.jpg	99
2025.147	0.869	868.7	test	Phase3	test/STIM_029.jpg	100
2028.642	0.806	805.5	test	Phase3	test/STIM_029.jpg	99
2033.365	0.57	569.9	test	Phase3	test/STIM_029.jpg	99
