onset	duration	response_time_ms	trial_type	learning_stage	stimulus	coherence	response_port
0.000	n/a	n/a	learning	LS1	PICTURE_508.jpg	c	n/a
25.000	9.320	9320.0	learning	LS1	PICTURE_15.jpg	c	n/a
34.320	9.869	9869.0	learning	LS1	PICTURE_480.jpg	c	n/a
44.189	10.739	10739.0	learning	LS1	PICTURE_488.jpg	c	n/a
54.928	11.936	11936.0	learning	LS1	PICTURE_95.jpg	c	n/a
66.864	9.773	9773.0	learning	LS1	PICTURE_15.jpg	i	n/a
76.637	12.089	12089.0	learning	LS1	PICTURE_95.jpg	i	n/a
88.726	12.805	12805.0	learning	LS1	PICTURE_508.jpg	i	n/a
101.531	13.841	13841.0	learning	LS1	PICTURE_480.jpg	i	n/a
115.372	15.037	15037.0	learning	LS1	PICTURE_488.jpg	i	n/a
130.409	11.065	11065.0	learning	LS2	PICTURE_95.jpg	c	n/a
141.474	8.584	8584.0	learning	LS2	PICTURE_488.jpg	i	n/a
150.058	13.466	13466.0	learning	LS2	PICTURE_15.jpg	i	n/a
163.524	9.545	9545.0	learning	LS2	PICTURE_508.jpg	i	n/a
173.069	8.986	8986.0	learning	LS2	PICTURE_488.jpg	c	n/a
182.055	7.471	7471.0	learning	LS2	PICTURE_508.jpg	c	n/a
189.526	13.472	13472.0	learning	LS2	PICTURE_95.jpg	i	n/a
202.998	11.470	11470.0	learning	LS2	PICTURE_480.jpg	c	n/a
214.468	8.035	8035.0	learning	LS2	PICTURE_15.jpg	c	n/a
222.503	8.751	8751.0	learning	LS2	PICTURE_480.jpg	i	n/a
231.254	9.574	9574.0	learning	LS3	PICTURE_95.jpg	i	n/a
240.828	7.717	7717.0	learning	LS3	PICTURE_15.jpg	i	n/a
248.545	9.061	9061.0	learning	LS3	PICTURE_488.jpg	c	n/a
257.606	8.966	8966.0	learning	LS3	PICTURE_95.jpg	c	n/a
266.572	8.229	8229.0	learning	LS3	PICTURE_508.jpg	c	n/a
274.801	7.980	7980.0	learning	LS3	PICTURE_488.jpg	i	n/a
282.781	7.730	7730.0	learning	LS3	PICTURE_15.jpg	c	n/a
290.511	8.287	8287.0	learning	LS3	PICTURE_480.jpg	i	n/a
298.798	7.724	7724.0	learning	LS3	PICTURE_508.jpg	i	n/a
306.522	8.601	8601.0	learning	LS3	PICTURE_480.jpg	c	n/a
315.123	7.661	7661.0	learning	LS4	PICTURE_488.jpg	i	n/a
322.784	9.337	9337.0	learning	LS4	PICTURE_480.jpg	c	n/a
332.121	8.935	8935.0	learning	LS4	PICTURE_95.jpg	i	n/a
341.056	7.413	7413.0	learning	LS4	PICTURE_508.jpg	c	n/a
348.469	8.616	8616.0	learning	LS4	PICTURE_488.jpg	c	n/a
357.085	18.929	18929.0	learning	LS4	PICTURE_95.jpg	c	n/a
376.014	7.336	7336.0	learning	LS4	PICTURE_15.jpg	c	n/a
383.350	7.573	7573.0	learning	LS4	PICTURE_508.jpg	i	n/a
390.923	9.096	9096.0	learning	LS4	PICTURE_480.jpg	i	n/a
400.019	8.859	8859.0	learning	LS4	PICTURE_15.jpg	i	n/a
408.878	11.674	11674.0	learning	LS1	PICTURE_576.jpg	c	n/a
420.552	10.298	10298.0	learning	LS1	PICTURE_581.jpg	c	n/a
430.850	14.680	14680.0	learning	LS1	PICTURE_594.jpg	i	n/a
445.530	9.952	9952.0	learning	LS1	PICTURE_576.jpg	i	n/a
455.482	14.981	14981.0	learning	LS1	PICTURE_605.jpg	c	n/a
470.463	10.732	10732.0	learning	LS1	PICTURE_52.jpg	i	n/a
481.195	17.686	17686.0	learning	LS1	PICTURE_594.jpg	c	n/a
498.881	23.521	23521.0	learning	LS1	PICTURE_581.jpg	i	n/a
522.402	12.882	12882.0	learning	LS1	PICTURE_605.jpg	i	n/a
535.284	10.232	10232.0	learning	LS1	PICTURE_52.jpg	c	n/a
545.516	10.733	10733.0	learning	LS2	PICTURE_576.jpg	i	n/a
556.249	14.176	14176.0	learning	LS2	PICTURE_594.jpg	i	n/a
570.425	8.181	8181.0	learning	LS2	PICTURE_52.jpg	c	n/a
578.606	7.458	7458.0	learning	LS2	PICTURE_576.jpg	c	n/a
586.064	8.342	8342.0	learning	LS2	PICTURE_605.jpg	c	n/a
594.406	9.858	9858.0	learning	LS2	PICTURE_594.jpg	c	n/a
604.264	9.462	9462.0	learning	LS2	PICTURE_605.jpg	i	n/a
613.726	16.103	16103.0	learning	LS2	PICTURE_581.jpg	c	n/a
629.829	8.503	8503.0	learning	LS2	PICTURE_52.jpg	i	n/a
638.332	10.029	10029.0	learning	LS2	PICTURE_581.jpg	i	n/a
648.361	8.935	8935.0	learning	LS3	PICTURE_594.jpg	i	n/a
657.296	8.672	8672.0	learning	LS3	PICTURE_605.jpg	i	n/a
665.968	9.696	9696.0	learning	LS3	PICTURE_581.jpg	c	n/a
675.664	6.880	6880.0	learning	LS3	PICTURE_576.jpg	c	n/a
682.544	7.424	7424.0	learning	LS3	PICTURE_52.jpg	c	n/a
689.968	6.848	6848.0	learning	LS3	PICTURE_605.jpg	c	n/a
696.816	8.837	8837.0	learning	LS3	PICTURE_581.jpg	i	n/a
705.653	8.908	8908.0	learning	LS3	PICTURE_594.jpg	c	n/a
714.561	9.783	9783.0	learning	LS3	PICTURE_52.jpg	i	n/a
724.344	8.262	8262.0	learning	LS3	PICTURE_576.jpg	i	n/a
732.606	8.442	8442.0	learning	LS4	PICTURE_581.jpg	i	n/a
741.048	8.520	8520.0	learning	LS4	PICTURE_576.jpg	c	n/a
749.568	8.116	8116.0	learning	LS4	PICTURE_52.jpg	i	n/a
757.684	9.315	9315.0	learning	LS4	PICTURE_594.jpg	i	n/a
766.999	8.751	8751.0	learning	LS4	PICTURE_581.jpg	c	n/a
775.750	8.355	8355.0	learning	LS4	PICTURE_52.jpg	c	n/a
784.105	9.878	9878.0	learning	LS4	PICTURE_605.jpg	i	n/a
793.983	9.796	9796.0	learning	LS4	PICTURE_594.jpg	c	n/a
803.779	8.280	8280.0	learning	LS4	PICTURE_605.jpg	c	n/a
812.059	8.524	8524.0	learning	LS4	PICTURE_576.jpg	i	n/a
820.583	8.466	8466.0	control	LS1	PICTURE_718.jpg	c	n/a
829.049	7.883	7883.0	control	LS1	PICTURE_430.jpg	c	n/a
836.932	10.185	10185.0	control	LS1	PICTURE_2.jpg	i	n/a
847.117	10.570	10570.0	control	LS1	PICTURE_292.jpg	i	n/a
857.687	10.640	10640.0	control	LS1	PICTURE_286.jpg	c	n/a
868.327	8.951	8951.0	control	LS1	PICTURE_718.jpg	i	n/a
877.278	n/a	n/a	control	LS1	PICTURE_2.jpg	c	n/a
902.278	8.139	8139.0	control	LS1	PICTURE_430.jpg	i	n/a
910.417	7.255	7255.0	control	LS1	PICTURE_292.jpg	c	n/a
917.672	9.411	9411.0	control	LS1	PICTURE_286.jpg	i	n/a
927.083	7.352	7352.0	control	LS2	PICTURE_718.jpg	c	n/a
934.435	8.069	8069.0	control	LS2	PICTURE_286.jpg	i	n/a
942.504	10.711	10711.0	control	LS2	PICTURE_2.jpg	i	n/a
953.215	9.514	9514.0	control	LS2	PICTURE_430.jpg	i	n/a
962.729	9.591	9591.0	control	LS2	PICTURE_718.jpg	i	n/a
972.320	8.396	8396.0	control	LS2	PICTURE_292.jpg	c	n/a
980.716	9.918	9918.0	control	LS2	PICTURE_286.jpg	c	n/a
990.634	10.640	10640.0	control	LS2	PICTURE_2.jpg	c	n/a
1001.274	8.797	8797.0	control	LS2	PICTURE_292.jpg	i	n/a
1010.071	11.280	11280.0	control	LS2	PICTURE_430.jpg	c	n/a
1021.351	10.666	10666.0	control	LS3	PICTURE_134.jpg	c	n/a
1032.017	10.270	10270.0	control	LS3	PICTURE_731.jpg	c	n/a
1042.287	8.415	8415.0	control	LS3	PICTURE_134.jpg	i	n/a
1050.702	10.551	10551.0	control	LS3	PICTURE_645.jpg	c	n/a
1061.253	9.495	9495.0	control	LS3	PICTURE_98.jpg	c	n/a
1070.748	8.758	8758.0	control	LS3	PICTURE_733.jpg	c	n/a
1079.506	8.022	8022.0	control	LS3	PICTURE_98.jpg	i	n/a
1087.528	13.370	13370.0	control	LS3	PICTURE_645.jpg	i	n/a
1100.898	8.802	8802.0	control	LS3	PICTURE_731.jpg	i	n/a
1109.700	9.838	9838.0	control	LS3	PICTURE_733.jpg	i	n/a
1119.538	7.459	7459.0	control	LS4	PICTURE_98.jpg	i	n/a
1126.997	8.176	8176.0	control	LS4	PICTURE_134.jpg	i	n/a
1135.173	8.093	8093.0	control	LS4	PICTURE_645.jpg	c	n/a
1143.266	8.009	8009.0	control	LS4	PICTURE_733.jpg	c	n/a
1151.275	9.527	9527.0	control	LS4	PICTURE_645.jpg	i	n/a
1160.802	9.762	9762.0	control	LS4	PICTURE_134.jpg	c	n/a
1170.564	8.566	8566.0	control	LS4	PICTURE_731.jpg	c	n/a
1179.130	8.803	8803.0	control	LS4	PICTURE_98.jpg	c	n/a
1187.933	8.726	8726.0	control	LS4	PICTURE_731.jpg	i	n/a
1196.659	9.930	9930.0	control	LS4	PICTURE_733.jpg	i	n/a
1206.589	14.359	14359.0	learning	LS1	PICTURE_216.jpg	i	n/a
1220.948	11.537	11537.0	learning	LS1	PICTURE_695.jpg	i	n/a
1232.485	14.160	14160.0	learning	LS1	PICTURE_703.jpg	c	n/a
1246.645	15.823	15823.0	learning	LS1	PICTURE_220.jpg	c	n/a
1262.468	17.326	17326.0	learning	LS1	PICTURE_53.jpg	i	n/a
1279.794	18.350	18350.0	learning	LS1	PICTURE_695.jpg	c	n/a
1298.144	9.783	9783.0	learning	LS1	PICTURE_703.jpg	i	n/a
1307.927	12.733	12733.0	learning	LS1	PICTURE_53.jpg	c	n/a
1320.660	12.969	12969.0	learning	LS1	PICTURE_216.jpg	c	n/a
1333.629	13.365	13365.0	learning	LS1	PICTURE_220.jpg	i	n/a
1346.994	8.747	8747.0	learning	LS2	PICTURE_695.jpg	i	n/a
1355.741	8.504	8504.0	learning	LS2	PICTURE_216.jpg	c	n/a
1364.245	8.582	8582.0	learning	LS2	PICTURE_53.jpg	c	n/a
1372.827	17.615	17615.0	learning	LS2	PICTURE_703.jpg	i	n/a
1390.442	8.902	8902.0	learning	LS2	PICTURE_53.jpg	i	n/a
1399.344	13.464	13464.0	learning	LS2	PICTURE_220.jpg	i	n/a
1412.808	8.428	8428.0	learning	LS2	PICTURE_216.jpg	i	n/a
1421.236	8.505	8505.0	learning	LS2	PICTURE_703.jpg	c	n/a
1429.741	8.750	8750.0	learning	LS2	PICTURE_220.jpg	c	n/a
1438.491	7.393	7393.0	learning	LS2	PICTURE_695.jpg	c	n/a
1445.884	7.740	7740.0	learning	LS3	PICTURE_216.jpg	c	n/a
1453.624	8.619	8619.0	learning	LS3	PICTURE_703.jpg	c	n/a
1462.243	8.696	8696.0	learning	LS3	PICTURE_220.jpg	c	n/a
1470.939	7.794	7794.0	learning	LS3	PICTURE_695.jpg	c	n/a
1478.733	8.658	8658.0	learning	LS3	PICTURE_53.jpg	i	n/a
1487.391	10.960	10960.0	learning	LS3	PICTURE_220.jpg	i	n/a
1498.351	9.906	9906.0	learning	LS3	PICTURE_695.jpg	i	n/a
1508.257	10.608	10608.0	learning	LS3	PICTURE_53.jpg	c	n/a
1518.865	12.917	12917.0	learning	LS3	PICTURE_703.jpg	i	n/a
1531.782	8.509	8509.0	learning	LS3	PICTURE_216.jpg	i	n/a
1540.291	8.211	8211.0	learning	LS4	PICTURE_216.jpg	c	n/a
1548.502	7.967	7967.0	learning	LS4	PICTURE_53.jpg	i	n/a
1556.469	9.643	9643.0	learning	LS4	PICTURE_703.jpg	c	n/a
1566.112	7.961	7961.0	learning	LS4	PICTURE_53.jpg	c	n/a
1574.073	9.958	9958.0	learning	LS4	PICTURE_220.jpg	i	n/a
1584.031	8.594	8594.0	learning	LS4	PICTURE_695.jpg	i	n/a
1592.625	13.309	13309.0	learning	LS4	PICTURE_703.jpg	i	n/a
1605.934	11.793	11793.0	learning	LS4	PICTURE_695.jpg	c	n/a
1617.727	12.508	12508.0	learning	LS4	PICTURE_220.jpg	c	n/a
1630.235	9.234	9234.0	learning	LS4	PICTURE_216.jpg	i	n/a
1639.469	11.909	11909.0	learning	LS1	PICTURE_21.jpg	i	n/a
1651.378	11.192	11192.0	learning	LS1	PICTURE_405.jpg	i	n/a
1662.570	10.615	10615.0	learning	LS1	PICTURE_402.jpg	c	n/a
1673.185	15.316	15316.0	learning	LS1	PICTURE_400.jpg	i	n/a
1688.501	11.541	11541.0	learning	LS1	PICTURE_402.jpg	i	n/a
1700.042	10.486	10486.0	learning	LS1	PICTURE_462.jpg	c	n/a
1710.528	16.947	16947.0	learning	LS1	PICTURE_400.jpg	c	n/a
1727.475	10.460	10460.0	learning	LS1	PICTURE_21.jpg	c	n/a
1737.935	12.928	12928.0	learning	LS1	PICTURE_405.jpg	c	n/a
1750.863	9.167	9167.0	learning	LS1	PICTURE_462.jpg	i	n/a
1760.030	14.306	14306.0	learning	LS2	PICTURE_400.jpg	i	n/a
1774.336	10.704	10704.0	learning	LS2	PICTURE_402.jpg	i	n/a
1785.040	9.022	9022.0	learning	LS2	PICTURE_405.jpg	i	n/a
1794.062	8.138	8138.0	learning	LS2	PICTURE_21.jpg	i	n/a
1802.200	9.174	9174.0	learning	LS2	PICTURE_400.jpg	c	n/a
1811.374	8.131	8131.0	learning	LS2	PICTURE_402.jpg	c	n/a
1819.505	8.847	8847.0	learning	LS2	PICTURE_462.jpg	i	n/a
1828.352	8.127	8127.0	learning	LS2	PICTURE_21.jpg	c	n/a
1836.479	8.370	8370.0	learning	LS2	PICTURE_405.jpg	c	n/a
1844.849	8.608	8608.0	learning	LS2	PICTURE_462.jpg	c	n/a
1853.457	8.477	8477.0	learning	LS3	PICTURE_21.jpg	i	n/a
1861.934	9.519	9519.0	learning	LS3	PICTURE_405.jpg	i	n/a
1871.453	7.998	7998.0	learning	LS3	PICTURE_462.jpg	i	n/a
1879.451	9.200	9200.0	learning	LS3	PICTURE_400.jpg	c	n/a
1888.651	8.311	8311.0	learning	LS3	PICTURE_402.jpg	c	n/a
1896.962	8.213	8213.0	learning	LS3	PICTURE_462.jpg	c	n/a
1905.175	9.076	9076.0	learning	LS3	PICTURE_402.jpg	i	n/a
1914.251	9.139	9139.0	learning	LS3	PICTURE_21.jpg	c	n/a
1923.390	8.563	8563.0	learning	LS3	PICTURE_405.jpg	c	n/a
1931.953	9.913	9913.0	learning	LS3	PICTURE_400.jpg	i	n/a
1941.866	10.406	10406.0	learning	LS4	PICTURE_400.jpg	c	n/a
1952.272	8.396	8396.0	learning	LS4	PICTURE_462.jpg	i	n/a
1960.668	9.911	9911.0	learning	LS4	PICTURE_405.jpg	c	n/a
1970.579	9.029	9029.0	learning	LS4	PICTURE_21.jpg	c	n/a
1979.608	8.785	8785.0	learning	LS4	PICTURE_402.jpg	i	n/a
1988.393	8.382	8382.0	learning	LS4	PICTURE_21.jpg	i	n/a
1996.775	8.619	8619.0	learning	LS4	PICTURE_462.jpg	c	n/a
2005.394	7.904	7904.0	learning	LS4	PICTURE_400.jpg	i	n/a
2013.298	9.107	9107.0	learning	LS4	PICTURE_402.jpg	c	n/a
2022.405	9.189	9189.0	learning	LS4	PICTURE_405.jpg	i	n/a
2031.594	13.143	13143.0	learning	LS1	PICTURE_235.jpg	i	n/a
2044.737	10.981	10981.0	learning	LS1	PICTURE_746.jpg	c	n/a
2055.718	19.694	19694.0	learning	LS1	PICTURE_235.jpg	c	n/a
2075.412	12.559	12559.0	learning	LS1	PICTURE_297.jpg	c	n/a
2087.971	11.982	11982.0	learning	LS1	PICTURE_720.jpg	i	n/a
2099.953	11.087	11087.0	learning	LS1	PICTURE_23.jpg	c	n/a
2111.040	9.389	9389.0	learning	LS1	PICTURE_297.jpg	i	n/a
2120.429	11.212	11212.0	learning	LS1	PICTURE_746.jpg	i	n/a
2131.641	17.039	17039.0	learning	LS1	PICTURE_720.jpg	c	n/a
2148.680	9.431	9431.0	learning	LS1	PICTURE_23.jpg	i	n/a
2158.111	10.091	10091.0	learning	LS2	PICTURE_746.jpg	i	n/a
2168.202	8.250	8250.0	learning	LS2	PICTURE_720.jpg	c	n/a
2176.452	14.724	14724.0	learning	LS2	PICTURE_235.jpg	i	n/a
2191.176	9.362	9362.0	learning	LS2	PICTURE_746.jpg	c	n/a
2200.538	8.640	8640.0	learning	LS2	PICTURE_23.jpg	i	n/a
2209.178	9.037	9037.0	learning	LS2	PICTURE_720.jpg	i	n/a
2218.215	9.753	9753.0	learning	LS2	PICTURE_297.jpg	c	n/a
2227.968	8.389	8389.0	learning	LS2	PICTURE_23.jpg	c	n/a
2236.357	9.106	9106.0	learning	LS2	PICTURE_297.jpg	i	n/a
2245.463	9.509	9509.0	learning	LS2	PICTURE_235.jpg	c	n/a
2254.972	9.529	9529.0	learning	LS3	PICTURE_23.jpg	c	n/a
2264.501	9.932	9932.0	learning	LS3	PICTURE_746.jpg	i	n/a
2274.433	9.370	9370.0	learning	LS3	PICTURE_23.jpg	i	n/a
2283.803	9.933	9933.0	learning	LS3	PICTURE_720.jpg	i	n/a
2293.736	10.655	10655.0	learning	LS3	PICTURE_297.jpg	c	n/a
2304.391	11.046	11046.0	learning	LS3	PICTURE_720.jpg	c	n/a
2315.437	11.589	11589.0	learning	LS3	PICTURE_235.jpg	c	n/a
2327.026	8.934	8934.0	learning	LS3	PICTURE_746.jpg	c	n/a
2335.960	9.956	9956.0	learning	LS3	PICTURE_297.jpg	i	n/a
2345.916	10.499	10499.0	learning	LS3	PICTURE_235.jpg	i	n/a
2356.415	10.672	10672.0	learning	LS4	PICTURE_235.jpg	c	n/a
2367.087	8.184	8184.0	learning	LS4	PICTURE_720.jpg	c	n/a
2375.271	10.500	10500.0	learning	LS4	PICTURE_746.jpg	c	n/a
2385.771	8.178	8178.0	learning	LS4	PICTURE_297.jpg	c	n/a
2393.949	8.895	8895.0	learning	LS4	PICTURE_235.jpg	i	n/a
2402.844	10.571	10571.0	learning	LS4	PICTURE_720.jpg	i	n/a
2413.415	10.009	10009.0	learning	LS4	PICTURE_746.jpg	i	n/a
2423.424	11.532	11532.0	learning	LS4	PICTURE_23.jpg	c	n/a
2434.956	9.377	9377.0	learning	LS4	PICTURE_297.jpg	i	n/a
2444.333	9.773	9773.0	learning	LS4	PICTURE_23.jpg	i	n/a
2454.106	8.921	8921.0	control	LS1	PICTURE_350.jpg	c	n/a
2463.027	12.042	12042.0	control	LS1	PICTURE_485.jpg	c	n/a
2475.069	10.999	10999.0	control	LS1	PICTURE_549.jpg	i	n/a
2486.068	8.840	8840.0	control	LS1	PICTURE_350.jpg	i	n/a
2494.908	9.541	9541.0	control	LS1	PICTURE_498.jpg	c	n/a
2504.449	10.718	10718.0	control	LS1	PICTURE_418.jpg	i	n/a
2515.167	8.382	8382.0	control	LS1	PICTURE_498.jpg	i	n/a
2523.549	11.486	11486.0	control	LS1	PICTURE_549.jpg	c	n/a
2535.035	10.430	10430.0	control	LS1	PICTURE_418.jpg	c	n/a
2545.465	9.860	9860.0	control	LS1	PICTURE_485.jpg	i	n/a
2555.325	9.715	9715.0	control	LS2	PICTURE_485.jpg	c	n/a
2565.040	7.865	7865.0	control	LS2	PICTURE_549.jpg	c	n/a
2572.905	8.101	8101.0	control	LS2	PICTURE_418.jpg	i	n/a
2581.006	8.499	8499.0	control	LS2	PICTURE_549.jpg	i	n/a
2589.505	9.214	9214.0	control	LS2	PICTURE_350.jpg	i	n/a
2598.719	9.771	9771.0	control	LS2	PICTURE_498.jpg	c	n/a
2608.490	8.888	8888.0	control	LS2	PICTURE_418.jpg	c	n/a
2617.378	8.972	8972.0	control	LS2	PICTURE_485.jpg	i	n/a
2626.350	8.250	8250.0	control	LS2	PICTURE_498.jpg	i	n/a
2634.600	9.133	9133.0	control	LS2	PICTURE_350.jpg	c	n/a
2643.733	11.239	11239.0	control	LS3	PICTURE_552.jpg	i	n/a
2654.972	9.244	9244.0	control	LS3	PICTURE_388.jpg	i	n/a
2664.216	11.086	11086.0	control	LS3	PICTURE_663.jpg	i	n/a
2675.302	14.042	14042.0	control	LS3	PICTURE_476.jpg	i	n/a
2689.344	9.000	9000.0	control	LS3	PICTURE_388.jpg	c	n/a
2698.344	7.957	7957.0	control	LS3	PICTURE_314.jpg	c	n/a
2706.301	9.787	9787.0	control	LS3	PICTURE_476.jpg	c	n/a
2716.088	9.531	9531.0	control	LS3	PICTURE_314.jpg	i	n/a
2725.619	8.474	8474.0	control	LS3	PICTURE_663.jpg	c	n/a
2734.093	8.377	8377.0	control	LS3	PICTURE_552.jpg	c	n/a
2742.470	9.497	9497.0	control	LS4	PICTURE_476.jpg	i	n/a
2751.967	9.247	9247.0	control	LS4	PICTURE_314.jpg	c	n/a
2761.214	7.718	7718.0	control	LS4	PICTURE_552.jpg	i	n/a
2768.932	8.753	8753.0	control	LS4	PICTURE_663.jpg	i	n/a
2777.685	8.990	8990.0	control	LS4	PICTURE_314.jpg	i	n/a
2786.675	10.507	10507.0	control	LS4	PICTURE_476.jpg	c	n/a
2797.182	9.143	9143.0	control	LS4	PICTURE_552.jpg	c	n/a
2806.325	9.380	9380.0	control	LS4	PICTURE_388.jpg	c	n/a
2815.705	8.979	8979.0	control	LS4	PICTURE_663.jpg	c	n/a
2824.684	8.582	8582.0	control	LS4	PICTURE_388.jpg	i	n/a
2833.266	23.960	23960.0	learning	LS1	PICTURE_610.jpg	i	n/a
2857.226	18.443	18443.0	learning	LS1	PICTURE_43.jpg	i	n/a
2875.669	12.762	12762.0	learning	LS1	PICTURE_247.jpg	i	n/a
2888.431	15.245	15245.0	learning	LS1	PICTURE_741.jpg	c	n/a
2903.676	10.049	10049.0	learning	LS1	PICTURE_610.jpg	c	n/a
2913.725	10.932	10932.0	learning	LS1	PICTURE_43.jpg	c	n/a
2924.657	9.729	9729.0	learning	LS1	PICTURE_247.jpg	c	n/a
2934.386	12.205	12205.0	learning	LS1	PICTURE_599.jpg	i	n/a
2946.591	10.843	10843.0	learning	LS1	PICTURE_741.jpg	i	n/a
2957.434	9.940	9940.0	learning	LS1	PICTURE_599.jpg	c	n/a
2967.374	7.862	7862.0	learning	LS2	PICTURE_247.jpg	c	n/a
2975.236	8.885	8885.0	learning	LS2	PICTURE_599.jpg	i	n/a
2984.121	7.990	7990.0	learning	LS2	PICTURE_610.jpg	c	n/a
2992.111	9.500	9500.0	learning	LS2	PICTURE_741.jpg	i	n/a
3001.611	11.329	11329.0	learning	LS2	PICTURE_610.jpg	i	n/a
3012.940	9.807	9807.0	learning	LS2	PICTURE_741.jpg	c	n/a
3022.747	8.124	8124.0	learning	LS2	PICTURE_43.jpg	c	n/a
3030.871	7.882	7882.0	learning	LS2	PICTURE_599.jpg	c	n/a
3038.753	10.358	10358.0	learning	LS2	PICTURE_43.jpg	i	n/a
3049.111	9.635	9635.0	learning	LS2	PICTURE_247.jpg	i	n/a
3058.746	9.655	9655.0	learning	LS3	PICTURE_741.jpg	i	n/a
3068.401	8.292	8292.0	learning	LS3	PICTURE_247.jpg	i	n/a
3076.693	10.449	10449.0	learning	LS3	PICTURE_610.jpg	c	n/a
3087.142	10.052	10052.0	learning	LS3	PICTURE_43.jpg	i	n/a
3097.194	10.934	10934.0	learning	LS3	PICTURE_741.jpg	c	n/a
3108.128	8.139	8139.0	learning	LS3	PICTURE_599.jpg	c	n/a
3116.267	8.702	8702.0	learning	LS3	PICTURE_43.jpg	c	n/a
3124.969	8.786	8786.0	learning	LS3	PICTURE_599.jpg	i	n/a
3133.755	10.629	10629.0	learning	LS3	PICTURE_247.jpg	c	n/a
3144.384	7.987	7987.0	learning	LS3	PICTURE_610.jpg	i	n/a
3152.371	9.453	9453.0	learning	LS4	PICTURE_43.jpg	c	n/a
3161.824	9.837	9837.0	learning	LS4	PICTURE_741.jpg	c	n/a
3171.661	8.769	8769.0	learning	LS4	PICTURE_599.jpg	c	n/a
3180.430	8.034	8034.0	learning	LS4	PICTURE_247.jpg	c	n/a
3188.464	8.896	8896.0	learning	LS4	PICTURE_43.jpg	i	n/a
3197.360	10.399	10399.0	learning	LS4	PICTURE_247.jpg	i	n/a
3207.759	9.189	9189.0	learning	LS4	PICTURE_599.jpg	i	n/a
3216.948	10.539	10539.0	learning	LS4	PICTURE_610.jpg	c	n/a
3227.487	8.696	8696.0	learning	LS4	PICTURE_741.jpg	i	n/a
3236.183	8.453	8453.0	learning	LS4	PICTURE_610.jpg	i	n/a
