onset	duration	accuracy_binary	trial_type	learning_stage	stimulus
24.169	n/a	n/a	learning	LS1	learning/PICTURE_508.jpg
28.785	0.932	1	learning	LS1	learning/PICTURE_15.jpg
33.385	0.987	0	learning	LS1	learning/PICTURE_480.jpg
37.984	1.074	0	learning	LS1	learning/PICTURE_488.jpg
42.567	1.194	1	learning	LS1	learning/PICTURE_95.jpg
47.15	0.977	1	learning	LS1	learning/PICTURE_15.jpg
51.732	1.209	1	learning	LS1	learning/PICTURE_95.jpg
56.315	1.28	0	learning	LS1	learning/PICTURE_508.jpg
60.898	1.384	1	learning	LS1	learning/PICTURE_480.jpg
65.481	1.504	1	learning	LS1	learning/PICTURE_488.jpg
74.563	1.107	1	learning	LS2	learning/PICTURE_95.jpg
79.145	0.858	1	learning	LS2	learning/PICTURE_488.jpg
83.712	1.347	1	learning	LS2	learning/PICTURE_15.jpg
88.294	0.955	1	learning	LS2	learning/PICTURE_508.jpg
92.86	0.899	1	learning	LS2	learning/PICTURE_488.jpg
97.426	0.747	1	learning	LS2	learning/PICTURE_508.jpg
101.993	1.347	1	learning	LS2	learning/PICTURE_95.jpg
106.575	1.147	1	learning	LS2	learning/PICTURE_480.jpg
111.141	0.803	1	learning	LS2	learning/PICTURE_15.jpg
115.724	0.875	1	learning	LS2	learning/PICTURE_480.jpg
124.823	0.957	1	learning	LS3	learning/PICTURE_95.jpg
129.439	0.772	1	learning	LS3	learning/PICTURE_15.jpg
134.055	0.906	1	learning	LS3	learning/PICTURE_488.jpg
138.671	0.897	1	learning	LS3	learning/PICTURE_95.jpg
143.287	0.823	1	learning	LS3	learning/PICTURE_508.jpg
147.887	0.798	1	learning	LS3	learning/PICTURE_488.jpg
152.486	0.773	1	learning	LS3	learning/PICTURE_15.jpg
157.069	0.829	1	learning	LS3	learning/PICTURE_480.jpg
161.651	0.772	1	learning	LS3	learning/PICTURE_508.jpg
166.234	0.86	1	learning	LS3	learning/PICTURE_480.jpg
175.333	0.766	1	learning	LS4	learning/PICTURE_488.jpg
179.916	0.934	1	learning	LS4	learning/PICTURE_480.jpg
184.499	0.893	1	learning	LS4	learning/PICTURE_95.jpg
189.081	0.741	1	learning	LS4	learning/PICTURE_508.jpg
193.647	0.862	1	learning	LS4	learning/PICTURE_488.jpg
198.23	1.893	1	learning	LS4	learning/PICTURE_95.jpg
202.796	0.734	1	learning	LS4	learning/PICTURE_15.jpg
207.379	0.757	1	learning	LS4	learning/PICTURE_508.jpg
211.945	0.91	1	learning	LS4	learning/PICTURE_480.jpg
216.511	0.886	1	learning	LS4	learning/PICTURE_15.jpg
243.724	1.167	1	learning	LS1	learning/PICTURE_576.jpg
248.34	1.03	1	learning	LS1	learning/PICTURE_581.jpg
252.957	1.468	0	learning	LS1	learning/PICTURE_594.jpg
257.556	0.995	1	learning	LS1	learning/PICTURE_576.jpg
262.155	1.498	1	learning	LS1	learning/PICTURE_605.jpg
266.755	1.073	1	learning	LS1	learning/PICTURE_52.jpg
271.337	1.769	0	learning	LS1	learning/PICTURE_594.jpg
275.92	2.352	1	learning	LS1	learning/PICTURE_581.jpg
280.503	1.288	1	learning	LS1	learning/PICTURE_605.jpg
285.102	1.023	1	learning	LS1	learning/PICTURE_52.jpg
294.201	1.073	1	learning	LS2	learning/PICTURE_576.jpg
298.767	1.418	1	learning	LS2	learning/PICTURE_594.jpg
303.333	0.818	1	learning	LS2	learning/PICTURE_52.jpg
307.916	0.746	1	learning	LS2	learning/PICTURE_576.jpg
312.482	0.834	1	learning	LS2	learning/PICTURE_605.jpg
317.065	0.986	1	learning	LS2	learning/PICTURE_594.jpg
321.631	0.946	1	learning	LS2	learning/PICTURE_605.jpg
326.197	1.61	0	learning	LS2	learning/PICTURE_581.jpg
330.78	0.85	1	learning	LS2	learning/PICTURE_52.jpg
335.346	1.003	1	learning	LS2	learning/PICTURE_581.jpg
344.428	0.893	1	learning	LS3	learning/PICTURE_594.jpg
349.061	0.867	1	learning	LS3	learning/PICTURE_605.jpg
353.677	0.97	1	learning	LS3	learning/PICTURE_581.jpg
358.293	0.688	1	learning	LS3	learning/PICTURE_576.jpg
362.909	0.742	1	learning	LS3	learning/PICTURE_52.jpg
367.525	0.685	1	learning	LS3	learning/PICTURE_605.jpg
372.125	0.884	1	learning	LS3	learning/PICTURE_581.jpg
376.724	0.891	1	learning	LS3	learning/PICTURE_594.jpg
381.307	0.978	1	learning	LS3	learning/PICTURE_52.jpg
385.889	0.826	1	learning	LS3	learning/PICTURE_576.jpg
394.988	0.844	1	learning	LS4	learning/PICTURE_581.jpg
399.571	0.852	1	learning	LS4	learning/PICTURE_576.jpg
404.154	0.812	1	learning	LS4	learning/PICTURE_52.jpg
408.736	0.931	1	learning	LS4	learning/PICTURE_594.jpg
413.319	0.875	1	learning	LS4	learning/PICTURE_581.jpg
417.885	0.836	1	learning	LS4	learning/PICTURE_52.jpg
422.451	0.988	1	learning	LS4	learning/PICTURE_605.jpg
427.034	0.98	1	learning	LS4	learning/PICTURE_594.jpg
431.6	0.828	1	learning	LS4	learning/PICTURE_605.jpg
436.166	0.852	1	learning	LS4	learning/PICTURE_576.jpg
463.363	0.847	1	control	LS1	control/PICTURE_718.jpg
467.995	0.788	1	control	LS1	control/PICTURE_430.jpg
472.612	1.019	1	control	LS1	control/PICTURE_2.jpg
477.228	1.057	1	control	LS1	control/PICTURE_292.jpg
481.827	1.064	1	control	LS1	control/PICTURE_286.jpg
486.426	0.895	1	control	LS1	control/PICTURE_718.jpg
491.026	n/a	n/a	control	LS1	control/PICTURE_2.jpg
495.609	0.814	1	control	LS1	control/PICTURE_430.jpg
500.191	0.726	1	control	LS1	control/PICTURE_292.jpg
504.774	0.941	1	control	LS1	control/PICTURE_286.jpg
513.873	0.735	1	control	LS2	control/PICTURE_718.jpg
518.456	0.807	1	control	LS2	control/PICTURE_286.jpg
523.022	1.071	1	control	LS2	control/PICTURE_2.jpg
527.588	0.951	1	control	LS2	control/PICTURE_430.jpg
532.171	0.959	1	control	LS2	control/PICTURE_718.jpg
536.737	0.84	1	control	LS2	control/PICTURE_292.jpg
541.303	0.992	1	control	LS2	control/PICTURE_286.jpg
545.869	1.064	1	control	LS2	control/PICTURE_2.jpg
550.452	0.88	1	control	LS2	control/PICTURE_292.jpg
555.018	1.128	1	control	LS2	control/PICTURE_430.jpg
564.1	1.067	1	control	LS3	control/PICTURE_134.jpg
568.666	1.027	1	control	LS3	control/PICTURE_731.jpg
573.282	0.842	1	control	LS3	control/PICTURE_134.jpg
577.915	1.055	1	control	LS3	control/PICTURE_645.jpg
582.531	0.95	1	control	LS3	control/PICTURE_98.jpg
587.147	0.876	1	control	LS3	control/PICTURE_733.jpg
591.763	0.802	1	control	LS3	control/PICTURE_98.jpg
596.362	1.337	1	control	LS3	control/PICTURE_645.jpg
600.962	0.88	1	control	LS3	control/PICTURE_731.jpg
605.544	0.984	1	control	LS3	control/PICTURE_733.jpg
614.643	0.746	1	control	LS4	control/PICTURE_98.jpg
619.226	0.818	1	control	LS4	control/PICTURE_134.jpg
623.809	0.809	1	control	LS4	control/PICTURE_645.jpg
628.392	0.801	1	control	LS4	control/PICTURE_733.jpg
632.974	0.953	1	control	LS4	control/PICTURE_645.jpg
637.557	0.976	1	control	LS4	control/PICTURE_134.jpg
642.123	0.857	1	control	LS4	control/PICTURE_731.jpg
646.706	0.88	1	control	LS4	control/PICTURE_98.jpg
651.272	0.873	1	control	LS4	control/PICTURE_731.jpg
655.838	0.993	1	control	LS4	control/PICTURE_733.jpg
683.018	1.436	0	learning	LS1	learning/PICTURE_216.jpg
687.651	1.154	0	learning	LS1	learning/PICTURE_695.jpg
692.267	1.416	1	learning	LS1	learning/PICTURE_703.jpg
696.883	1.582	1	learning	LS1	learning/PICTURE_220.jpg
701.499	1.733	0	learning	LS1	learning/PICTURE_53.jpg
706.115	1.835	1	learning	LS1	learning/PICTURE_695.jpg
710.714	0.978	1	learning	LS1	learning/PICTURE_703.jpg
715.314	1.273	1	learning	LS1	learning/PICTURE_53.jpg
719.896	1.297	1	learning	LS1	learning/PICTURE_216.jpg
724.479	1.337	1	learning	LS1	learning/PICTURE_220.jpg
733.578	0.875	1	learning	LS2	learning/PICTURE_695.jpg
738.161	0.85	1	learning	LS2	learning/PICTURE_216.jpg
742.744	0.858	1	learning	LS2	learning/PICTURE_53.jpg
747.326	1.762	1	learning	LS2	learning/PICTURE_703.jpg
751.892	0.89	1	learning	LS2	learning/PICTURE_53.jpg
756.458	1.346	1	learning	LS2	learning/PICTURE_220.jpg
761.025	0.843	1	learning	LS2	learning/PICTURE_216.jpg
765.607	0.851	1	learning	LS2	learning/PICTURE_703.jpg
770.173	0.875	1	learning	LS2	learning/PICTURE_220.jpg
774.74	0.739	1	learning	LS2	learning/PICTURE_695.jpg
783.822	0.774	1	learning	LS3	learning/PICTURE_216.jpg
788.404	0.862	1	learning	LS3	learning/PICTURE_703.jpg
792.987	0.87	1	learning	LS3	learning/PICTURE_220.jpg
797.62	0.779	1	learning	LS3	learning/PICTURE_695.jpg
802.236	0.866	1	learning	LS3	learning/PICTURE_53.jpg
806.852	1.096	1	learning	LS3	learning/PICTURE_220.jpg
811.468	0.991	1	learning	LS3	learning/PICTURE_695.jpg
816.084	1.061	1	learning	LS3	learning/PICTURE_53.jpg
820.684	1.292	1	learning	LS3	learning/PICTURE_703.jpg
825.283	0.851	1	learning	LS3	learning/PICTURE_216.jpg
834.382	0.821	1	learning	LS4	learning/PICTURE_216.jpg
838.965	0.797	1	learning	LS4	learning/PICTURE_53.jpg
843.547	0.964	1	learning	LS4	learning/PICTURE_703.jpg
848.13	0.796	1	learning	LS4	learning/PICTURE_53.jpg
852.713	0.996	1	learning	LS4	learning/PICTURE_220.jpg
857.296	0.859	1	learning	LS4	learning/PICTURE_695.jpg
861.878	1.331	1	learning	LS4	learning/PICTURE_703.jpg
866.444	1.179	1	learning	LS4	learning/PICTURE_695.jpg
871.027	1.251	1	learning	LS4	learning/PICTURE_220.jpg
875.593	0.923	1	learning	LS4	learning/PICTURE_216.jpg
902.756	1.191	0	learning	LS1	learning/PICTURE_21.jpg
907.322	1.119	0	learning	LS1	learning/PICTURE_405.jpg
911.939	1.062	1	learning	LS1	learning/PICTURE_402.jpg
916.555	1.532	1	learning	LS1	learning/PICTURE_400.jpg
921.171	1.154	1	learning	LS1	learning/PICTURE_402.jpg
925.787	1.049	1	learning	LS1	learning/PICTURE_462.jpg
930.403	1.695	1	learning	LS1	learning/PICTURE_400.jpg
935.002	1.046	1	learning	LS1	learning/PICTURE_21.jpg
939.602	1.293	1	learning	LS1	learning/PICTURE_405.jpg
944.184	0.917	1	learning	LS1	learning/PICTURE_462.jpg
953.283	1.431	1	learning	LS2	learning/PICTURE_400.jpg
957.866	1.07	1	learning	LS2	learning/PICTURE_402.jpg
962.449	0.902	1	learning	LS2	learning/PICTURE_405.jpg
967.032	0.814	1	learning	LS2	learning/PICTURE_21.jpg
971.614	0.917	1	learning	LS2	learning/PICTURE_400.jpg
976.197	0.813	1	learning	LS2	learning/PICTURE_402.jpg
980.763	0.885	1	learning	LS2	learning/PICTURE_462.jpg
985.329	0.813	1	learning	LS2	learning/PICTURE_21.jpg
989.895	0.837	1	learning	LS2	learning/PICTURE_405.jpg
994.478	0.861	1	learning	LS2	learning/PICTURE_462.jpg
1003.56	0.848	1	learning	LS3	learning/PICTURE_21.jpg
1008.126	0.952	1	learning	LS3	learning/PICTURE_405.jpg
1012.709	0.8	1	learning	LS3	learning/PICTURE_462.jpg
1017.275	0.92	1	learning	LS3	learning/PICTURE_400.jpg
1021.875	0.831	1	learning	LS3	learning/PICTURE_402.jpg
1026.491	0.821	1	learning	LS3	learning/PICTURE_462.jpg
1031.107	0.908	1	learning	LS3	learning/PICTURE_402.jpg
1035.723	0.914	1	learning	LS3	learning/PICTURE_21.jpg
1040.339	0.856	1	learning	LS3	learning/PICTURE_405.jpg
1044.938	0.991	1	learning	LS3	learning/PICTURE_400.jpg
1054.054	1.041	1	learning	LS4	learning/PICTURE_400.jpg
1058.653	0.84	1	learning	LS4	learning/PICTURE_462.jpg
1063.236	0.991	1	learning	LS4	learning/PICTURE_405.jpg
1067.819	0.903	1	learning	LS4	learning/PICTURE_21.jpg
1072.401	0.878	1	learning	LS4	learning/PICTURE_402.jpg
1076.984	0.838	1	learning	LS4	learning/PICTURE_21.jpg
1081.567	0.862	1	learning	LS4	learning/PICTURE_462.jpg
1086.133	0.79	1	learning	LS4	learning/PICTURE_400.jpg
1090.699	0.911	1	learning	LS4	learning/PICTURE_402.jpg
1095.265	0.919	1	learning	LS4	learning/PICTURE_405.jpg
1122.428	1.314	0	learning	LS1	learning/PICTURE_235.jpg
1127.011	1.098	0	learning	LS1	learning/PICTURE_746.jpg
1131.594	1.969	0	learning	LS1	learning/PICTURE_235.jpg
1136.21	1.256	1	learning	LS1	learning/PICTURE_297.jpg
1140.826	1.198	1	learning	LS1	learning/PICTURE_720.jpg
1145.442	1.109	1	learning	LS1	learning/PICTURE_23.jpg
1150.058	0.939	1	learning	LS1	learning/PICTURE_297.jpg
1154.674	1.121	0	learning	LS1	learning/PICTURE_746.jpg
1159.274	1.704	1	learning	LS1	learning/PICTURE_720.jpg
1163.873	0.943	1	learning	LS1	learning/PICTURE_23.jpg
1172.972	1.009	1	learning	LS2	learning/PICTURE_746.jpg
1177.554	0.825	1	learning	LS2	learning/PICTURE_720.jpg
1182.137	1.472	1	learning	LS2	learning/PICTURE_235.jpg
1186.72	0.936	1	learning	LS2	learning/PICTURE_746.jpg
1191.303	0.864	1	learning	LS2	learning/PICTURE_23.jpg
1195.886	0.904	1	learning	LS2	learning/PICTURE_720.jpg
1200.468	0.975	1	learning	LS2	learning/PICTURE_297.jpg
1205.051	0.839	1	learning	LS2	learning/PICTURE_23.jpg
1209.634	0.911	1	learning	LS2	learning/PICTURE_297.jpg
1214.2	0.951	1	learning	LS2	learning/PICTURE_235.jpg
1223.299	0.953	1	learning	LS3	learning/PICTURE_23.jpg
1227.865	0.993	1	learning	LS3	learning/PICTURE_746.jpg
1232.447	0.937	1	learning	LS3	learning/PICTURE_23.jpg
1237.014	0.993	1	learning	LS3	learning/PICTURE_720.jpg
1241.58	1.066	1	learning	LS3	learning/PICTURE_297.jpg
1246.179	1.105	1	learning	LS3	learning/PICTURE_720.jpg
1250.795	1.159	1	learning	LS3	learning/PICTURE_235.jpg
1255.411	0.893	1	learning	LS3	learning/PICTURE_746.jpg
1260.027	0.996	1	learning	LS3	learning/PICTURE_297.jpg
1264.643	1.05	1	learning	LS3	learning/PICTURE_235.jpg
1273.759	1.067	1	learning	LS4	learning/PICTURE_235.jpg
1278.358	0.819	1	learning	LS4	learning/PICTURE_720.jpg
1282.941	1.05	1	learning	LS4	learning/PICTURE_746.jpg
1287.524	0.818	1	learning	LS4	learning/PICTURE_297.jpg
1292.107	0.889	1	learning	LS4	learning/PICTURE_235.jpg
1296.689	1.057	1	learning	LS4	learning/PICTURE_720.jpg
1301.272	1.001	1	learning	LS4	learning/PICTURE_746.jpg
1305.838	1.153	1	learning	LS4	learning/PICTURE_23.jpg
1310.404	0.938	1	learning	LS4	learning/PICTURE_297.jpg
1314.987	0.977	1	learning	LS4	learning/PICTURE_23.jpg
1342.167	0.892	1	control	LS1	control/PICTURE_350.jpg
1346.733	1.204	1	control	LS1	control/PICTURE_485.jpg
1351.315	1.1	1	control	LS1	control/PICTURE_549.jpg
1355.898	0.884	1	control	LS1	control/PICTURE_350.jpg
1360.514	0.954	1	control	LS1	control/PICTURE_498.jpg
1365.147	1.072	1	control	LS1	control/PICTURE_418.jpg
1369.763	0.838	1	control	LS1	control/PICTURE_498.jpg
1374.379	1.149	1	control	LS1	control/PICTURE_549.jpg
1378.995	1.043	1	control	LS1	control/PICTURE_418.jpg
1383.595	0.986	1	control	LS1	control/PICTURE_485.jpg
1392.71	0.972	1	control	LS2	control/PICTURE_485.jpg
1397.31	0.786	1	control	LS2	control/PICTURE_549.jpg
1401.892	0.81	1	control	LS2	control/PICTURE_418.jpg
1406.475	0.85	1	control	LS2	control/PICTURE_549.jpg
1411.058	0.921	1	control	LS2	control/PICTURE_350.jpg
1415.641	0.977	1	control	LS2	control/PICTURE_498.jpg
1420.223	0.889	1	control	LS2	control/PICTURE_418.jpg
1424.789	0.897	1	control	LS2	control/PICTURE_485.jpg
1429.372	0.825	1	control	LS2	control/PICTURE_498.jpg
1433.938	0.913	1	control	LS2	control/PICTURE_350.jpg
1443.02	1.124	1	control	LS3	control/PICTURE_552.jpg
1447.586	0.924	1	control	LS3	control/PICTURE_388.jpg
1452.153	1.109	1	control	LS3	control/PICTURE_663.jpg
1456.735	1.404	1	control	LS3	control/PICTURE_476.jpg
1461.318	0.9	1	control	LS3	control/PICTURE_388.jpg
1465.901	0.796	1	control	LS3	control/PICTURE_314.jpg
1470.5	0.979	1	control	LS3	control/PICTURE_476.jpg
1475.116	0.953	1	control	LS3	control/PICTURE_314.jpg
1479.732	0.847	1	control	LS3	control/PICTURE_663.jpg
1484.349	0.838	1	control	LS3	control/PICTURE_552.jpg
1493.497	0.95	1	control	LS4	control/PICTURE_476.jpg
1498.097	0.925	1	control	LS4	control/PICTURE_314.jpg
1502.696	0.772	1	control	LS4	control/PICTURE_552.jpg
1507.279	0.875	1	control	LS4	control/PICTURE_663.jpg
1511.862	0.899	1	control	LS4	control/PICTURE_314.jpg
1516.444	1.051	1	control	LS4	control/PICTURE_476.jpg
1521.027	0.914	1	control	LS4	control/PICTURE_552.jpg
1525.61	0.938	1	control	LS4	control/PICTURE_388.jpg
1530.193	0.898	1	control	LS4	control/PICTURE_663.jpg
1534.759	0.858	1	control	LS4	control/PICTURE_388.jpg
1543.858	2.396	1	learning	LS1	learning/PICTURE_610.jpg
1548.424	1.844	0	learning	LS1	learning/PICTURE_43.jpg
1553.006	1.276	1	learning	LS1	learning/PICTURE_247.jpg
1557.572	1.524	0	learning	LS1	learning/PICTURE_741.jpg
1562.139	1.005	1	learning	LS1	learning/PICTURE_610.jpg
1566.705	1.093	1	learning	LS1	learning/PICTURE_43.jpg
1571.287	0.973	1	learning	LS1	learning/PICTURE_247.jpg
1575.87	1.22	1	learning	LS1	learning/PICTURE_599.jpg
1580.453	1.084	1	learning	LS1	learning/PICTURE_741.jpg
1585.085	0.994	1	learning	LS1	learning/PICTURE_599.jpg
1594.234	0.786	1	learning	LS2	learning/PICTURE_247.jpg
1598.85	0.888	1	learning	LS2	learning/PICTURE_599.jpg
1603.466	0.799	1	learning	LS2	learning/PICTURE_610.jpg
1608.066	0.95	0	learning	LS2	learning/PICTURE_741.jpg
1612.665	1.133	1	learning	LS2	learning/PICTURE_610.jpg
1617.248	0.981	1	learning	LS2	learning/PICTURE_741.jpg
1621.831	0.812	1	learning	LS2	learning/PICTURE_43.jpg
1626.414	0.788	1	learning	LS2	learning/PICTURE_599.jpg
1630.996	1.036	1	learning	LS2	learning/PICTURE_43.jpg
1635.579	0.964	1	learning	LS2	learning/PICTURE_247.jpg
1644.678	0.966	1	learning	LS3	learning/PICTURE_741.jpg
1649.261	0.829	1	learning	LS3	learning/PICTURE_247.jpg
1653.843	1.045	1	learning	LS3	learning/PICTURE_610.jpg
1658.409	1.005	1	learning	LS3	learning/PICTURE_43.jpg
1662.976	1.093	1	learning	LS3	learning/PICTURE_741.jpg
1667.542	0.814	1	learning	LS3	learning/PICTURE_599.jpg
1672.108	0.87	1	learning	LS3	learning/PICTURE_43.jpg
1676.674	0.879	1	learning	LS3	learning/PICTURE_599.jpg
1681.24	1.063	1	learning	LS3	learning/PICTURE_247.jpg
1685.823	0.799	1	learning	LS3	learning/PICTURE_610.jpg
1694.905	0.945	1	learning	LS4	learning/PICTURE_43.jpg
1699.521	0.984	1	learning	LS4	learning/PICTURE_741.jpg
1704.137	0.877	1	learning	LS4	learning/PICTURE_599.jpg
1708.753	0.803	1	learning	LS4	learning/PICTURE_247.jpg
1713.369	0.89	1	learning	LS4	learning/PICTURE_43.jpg
1717.985	1.04	1	learning	LS4	learning/PICTURE_247.jpg
1722.585	0.919	1	learning	LS4	learning/PICTURE_599.jpg
1727.184	1.054	1	learning	LS4	learning/PICTURE_610.jpg
1731.767	0.87	1	learning	LS4	learning/PICTURE_741.jpg
1736.35	0.845	1	learning	LS4	learning/PICTURE_610.jpg
