onset	duration	response_time_ms	trial_type	learning_stage	stimulus	response_port
0.0	1.296	1296.5	study	Phase1	study/STIM_000.jpg	100
3.317	1.574	1574.3	study	Phase1	study/STIM_000.jpg	100
8.632	1.264	1264.1	study	Phase1	study/STIM_000.jpg	99
12.743	1.776	1776.0	study	Phase1	study/STIM_001.jpg	99
17.453	1.791	1790.8	study	Phase1	study/STIM_001.jpg	100
21.991	1.25	1249.8	study	Phase1	study/STIM_001.jpg	100
26.039	0.961	961.3	study	Phase1	study/STIM_002.jpg	99
30.745	1.488	1487.9	study	Phase1	study/STIM_002.jpg	100
36.038	1.49	1490.3	study	Phase1	study/STIM_002.jpg	100
40.427	1.689	1689.3	study	Phase1	study/STIM_003.jpg	99
45.585	1.176	1176.3	study	Phase1	study/STIM_003.jpg	99
48.833	0.942	942.0	study	Phase1	study/STIM_003.jpg	100
53.087	1.771	1770.8	study	Phase1	study/STIM_004.jpg	100
57.722	1.669	1669.0	study	Phase1	study/STIM_004.jpg	99
62.764	1.38	1379.8	study	Phase1	study/STIM_004.jpg	100
66.815	1.434	1434.1	study	Phase1	study/STIM_005.jpg	100
70.866	0.842	842.0	study	Phase1	study/STIM_005.jpg	99
75.663	1.227	1227.2	study	Phase1	study/STIM_005.jpg	99
80.498	1.155	1155.4	study	Phase1	study/STIM_006.jpg	100
84.254	1.184	1183.5	study	Phase1	study/STIM_006.jpg	100
88.322	0.855	855.3	study	Phase1	study/STIM_006.jpg	99
91.341	1.391	1390.7	study	Phase1	study/STIM_007.jpg	100
96.041	1.292	1291.9	study	Phase1	study/STIM_007.jpg	100
100.195	1.139	1139.2	study	Phase1	study/STIM_007.jpg	99
104.533	1.77	1769.9	study	Phase1	study/STIM_008.jpg	100
108.555	1.016	1015.7	study	Phase1	study/STIM_008.jpg	99
111.77	1.256	1256.4	study	Phase1	study/STIM_008.jpg	100
116.544	1.289	1288.8	study	Phase1	study/STIM_009.jpg	99
119.976	1.272	1272.5	study	Phase1	study/STIM_009.jpg	100
123.897	0.968	968.0	study	Phase1	study/STIM_009.jpg	99
128.652	1.302	1302.3	study	Phase1	study/STIM_010.jpg	100
133.505	1.598	1598.5	study	Phase1	study/STIM_010.jpg	99
138.524	0.982	982.2	study	Phase1	study/STIM_010.jpg	100
142.258	1.163	1163.0	study	Phase1	study/STIM_011.jpg	100
146.656	1.088	1088.1	study	Phase1	study/STIM_011.jpg	99
150.822	0.807	806.6	study	Phase1	study/STIM_011.jpg	100
155.539	1.046	1046.4	study	Phase1	study/STIM_012.jpg	100
159.042	1.054	1054.3	study	Phase1	study/STIM_012.jpg	99
163.029	1.584	1584.4	study	Phase1	study/STIM_012.jpg	99
168.036	1.494	1493.5	study	Phase1	study/STIM_013.jpg	100
172.669	1.367	1366.7	study	Phase1	study/STIM_013.jpg	100
176.069	1.182	1181.5	study	Phase1	study/STIM_013.jpg	100
179.816	1.63	1630.1	study	Phase1	study/STIM_014.jpg	99
185.3	0.855	855.0	study	Phase1	study/STIM_014.jpg	99
189.503	1.429	1428.8	study	Phase1	study/STIM_014.jpg	100
193.088	1.744	1743.8	study	Phase1	study/STIM_015.jpg	99
197.155	1.623	1623.2	study	Phase1	study/STIM_015.jpg	99
201.283	1.348	1348.3	study	Phase1	study/STIM_015.jpg	99
204.946	1.665	1665.4	study	Phase1	study/STIM_016.jpg	100
209.595	1.125	1125.1	study	Phase1	study/STIM_016.jpg	100
213.219	1.254	1253.9	study	Phase1	study/STIM_016.jpg	100
217.039	1.102	1102.1	study	Phase1	study/STIM_017.jpg	99
221.801	1.339	1338.6	study	Phase1	study/STIM_017.jpg	100
226.285	1.551	1551.2	study	Phase1	study/STIM_017.jpg	100
231.45	1.142	1141.7	study	Phase1	study/STIM_018.jpg	100
236.259	1.437	1437.2	study	Phase1	study/STIM_018.jpg	100
240.524	1.579	1579.1	study	Phase1	study/STIM_018.jpg	100
245.677	1.015	1015.1	study	Phase1	study/STIM_019.jpg	100
250.495	1.357	1357.2	study	Phase1	study/STIM_019.jpg	99
254.257	1.539	1538.6	study	Phase1	study/STIM_019.jpg	100
258.025	1.418	1418.4	study	Phase1	study/STIM_020.jpg	99
261.629	1.508	1507.5	study	Phase1	study/STIM_020.jpg	99
265.833	1.157	1157.0	study	Phase1	study/STIM_020.jpg	100
269.364	1.912	1912.0	study	Phase1	study/STIM_021.jpg	100
273.381	1.785	1785.3	study	Phase1	study/STIM_021.jpg	99
279.014	1.225	1225.4	study	Phase1	study/STIM_021.jpg	100
283.32	0.972	972.1	study	Phase1	study/STIM_022.jpg	99
287.6	1.424	1423.7	study	Phase1	study/STIM_022.jpg	99
291.981	1.479	1478.7	study	Phase1	study/STIM_022.jpg	100
297.309	1.884	1884.0	study	Phase1	study/STIM_023.jpg	100
302.665	1.068	1067.7	study	Phase1	study/STIM_023.jpg	100
305.903	1.628	1627.6	study	Phase1	study/STIM_023.jpg	99
311.44	1.717	1716.7	study	Phase1	study/STIM_024.jpg	100
316.092	1.387	1387.2	study	Phase1	study/STIM_024.jpg	99
320.58	1.25	1249.8	study	Phase1	study/STIM_024.jpg	99
325.114	1.685	1684.6	study	Phase1	study/STIM_025.jpg	99
330.246	1.83	1830.1	study	Phase1	study/STIM_025.jpg	100
334.18	1.342	1341.9	study	Phase1	study/STIM_025.jpg	100
337.852	1.601	1601.3	study	Phase1	study/STIM_026.jpg	99
341.519	1.407	1407.0	study	Phase1	study/STIM_026.jpg	99
345.793	0.821	821.4	study	Phase1	study/STIM_026.jpg	100
348.998	1.652	1651.5	study	Phase1	study/STIM_027.jpg	99
353.337	0.956	956.4	study	Phase1	study/STIM_027.jpg	99
357.867	0.945	944.6	study	Phase1	study/STIM_027.jpg	99
360.885	1.85	1850.1	study	Phase1	study/STIM_028.jpg	100
364.901	0.978	978.5	study	Phase1	study/STIM_028.jpg	100
368.241	1.704	1703.9	study	Phase1	study/STIM_028.jpg	99
372.695	0.945	944.9	study	Phase1	study/STIM_029.jpg	99
376.172	1.08	1080.0	study	Phase1	study/STIM_029.jpg	100
379.329	0.966	966.3	study	Phase1	study/STIM_029.jpg	99
383.42	1.196	1195.5	test	Phase1	test/STIM_000.jpg	100
387.403	0.871	871.3	test	Phase1	test/STIM_000.jpg	100
390.994	0.851	851.4	test	Phase1	test/STIM_000.jpg	100
394.061	1.299	1299.0	test	Phase1	test/STIM_001.jpg	99
399.008	1.408	1407.5	test	Phase1	test/STIM_001.jpg	99
402.799	1.221	1221.2	test	Phase1	test/STIM_001.jpg	99
406.913	0.767	767.3	test	Phase1	test/STIM_002.jpg	100
409.706	0.767	767.3	test	Phase1	test/STIM_002.jpg	100
412.869	0.928	927.8	test	Phase1	test/STIM_002.jpg	100
417.438	1.049	1048.8	test	Phase1	test/STIM_003.jpg	99
421.077	0.838	838.4	test	Phase1	test/STIM_003.jpg	99
424.978	1.408	1407.6	test	Phase1	test/STIM_003.jpg	99
429.449	0.682	681.8	test	Phase1	test/STIM_004.jpg	100
433.12	1.335	1335.3	test	Phase1	test/STIM_004.jpg	100
437.415	0.826	826.3	test	Phase1	test/STIM_004.jpg	99
440.815	0.921	921.3	test	Phase1	test/STIM_005.jpg	99
444.361	0.879	878.7	test	Phase1	test/STIM_005.jpg	100
448.567	1.37	1369.7	test	Phase1	test/STIM_005.jpg	99
452.442	1.403	1402.9	test	Phase1	test/STIM_006.jpg	100
455.864	1.334	1333.8	test	Phase1	test/STIM_006.jpg	100
460.298	0.932	932.2	test	Phase1	test/STIM_006.jpg	99
464.434	0.816	816.3	test	Phase1	test/STIM_007.jpg	100
468.855	1.142	1142.3	test	Phase1	test/STIM_007.jpg	100
472.874	1.037	1037.2	test	Phase1	test/STIM_007.jpg	100
476.631	0.69	689.8	test	Phase1	test/STIM_008.jpg	100
480.138	0.784	784.4	test	Phase1	test/STIM_008.jpg	100
483.596	0.694	694.3	test	Phase1	test/STIM_008.jpg	100
487.386	1.017	1016.6	test	Phase1	test/STIM_009.jpg	99
492.168	0.675	675.0	test	Phase1	test/STIM_009.jpg	99
495.594	0.945	945.0	test	Phase1	test/STIM_009.jpg	99
499.727	0.733	733.1	test	Phase1	test/STIM_010.jpg	100
502.81	0.877	877.2	test	Phase1	test/STIM_010.jpg	99
507.022	1.229	1229.2	test	Phase1	test/STIM_010.jpg	99
511.292	0.782	782.2	test	Phase1	test/STIM_011.jpg	99
516.027	1.274	1274.2	test	Phase1	test/STIM_011.jpg	99
520.22	1.379	1379.3	test	Phase1	test/STIM_011.jpg	100
524.785	0.76	760.0	test	Phase1	test/STIM_012.jpg	100
528.114	0.827	827.3	test	Phase1	test/STIM_012.jpg	99
532.647	1.289	1288.6	test	Phase1	test/STIM_012.jpg	99
537.473	0.703	703.3	test	Phase1	test/STIM_013.jpg	99
541.359	1.332	1331.9	test	Phase1	test/STIM_013.jpg	100
544.727	0.835	834.7	test	Phase1	test/STIM_013.jpg	99
548.805	1.159	1158.8	test	Phase1	test/STIM_014.jpg	100
552.105	1.23	1229.7	test	Phase1	test/STIM_014.jpg	100
555.762	1.03	1030.5	test	Phase1	test/STIM_014.jpg	100
560.166	0.817	817.0	test	Phase1	test/STIM_015.jpg	99
563.846	0.685	685.4	test	Phase1	test/STIM_015.jpg	100
566.914	1.202	1201.7	test	Phase1	test/STIM_015.jpg	99
571.141	1.169	1168.8	test	Phase1	test/STIM_016.jpg	99
575.89	0.994	994.0	test	Phase1	test/STIM_016.jpg	99
580.489	0.741	741.4	test	Phase1	test/STIM_016.jpg	99
584.31	1.12	1119.7	test	Phase1	test/STIM_017.jpg	99
588.691	1.298	1298.0	test	Phase1	test/STIM_017.jpg	100
592.023	0.967	967.3	test	Phase1	test/STIM_017.jpg	100
596.491	0.874	873.8	test	Phase1	test/STIM_018.jpg	99
599.515	1.356	1355.9	test	Phase1	test/STIM_018.jpg	100
603.383	1.365	1365.3	test	Phase1	test/STIM_018.jpg	100
608.126	0.839	838.9	test	Phase1	test/STIM_019.jpg	99
611.301	0.803	803.2	test	Phase1	test/STIM_019.jpg	100
614.746	1.169	1168.8	test	Phase1	test/STIM_019.jpg	99
618.782	0.816	815.5	test	Phase1	test/STIM_020.jpg	100
621.865	1.274	1273.5	test	Phase1	test/STIM_020.jpg	99
627.007	1.271	1270.8	test	Phase1	test/STIM_020.jpg	99
631.033	1.031	1030.7	test	Phase1	test/STIM_021.jpg	99
635.411	1.288	1288.2	test	Phase1	test/STIM_021.jpg	100
640.613	1.394	1393.5	test	Phase1	test/STIM_021.jpg	99
645.499	0.902	901.9	test	Phase1	test/STIM_022.jpg	100
650.117	1.176	1176.4	test	Phase1	test/STIM_022.jpg	100
653.294	1.198	1197.6	test	Phase1	test/STIM_022.jpg	99
657.38	0.996	996.4	test	Phase1	test/STIM_023.jpg	100
662.081	0.72	720.0	test	Phase1	test/STIM_023.jpg	100
665.943	0.862	861.8	test	Phase1	test/STIM_023.jpg	100
670.659	1.247	1247.1	test	Phase1	test/STIM_024.jpg	99
674.526	0.735	735.3	test	Phase1	test/STIM_024.jpg	99
677.664	1.22	1220.3	test	Phase1	test/STIM_024.jpg	100
682.409	1.044	1044.3	test	Phase1	test/STIM_025.jpg	99
686.491	0.842	841.9	test	Phase1	test/STIM_025.jpg	99
689.934	0.723	722.7	test	Phase1	test/STIM_025.jpg	99
694.116	0.696	696.4	test	Phase1	test/STIM_026.jpg	100
697.219	1.219	1218.8	test	Phase1	test/STIM_026.jpg	99
701.396	0.848	848.1	test	Phase1	test/STIM_026.jpg	99
704.784	1.031	1030.9	test	Phase1	test/STIM_027.jpg	100
709.631	1.268	1268.2	test	Phase1	test/STIM_027.jpg	100
714.872	1.359	1359.2	test	Phase1	test/STIM_027.jpg	100
719.019	1.326	1325.6	test	Phase1	test/STIM_028.jpg	99
723.188	1.189	1189.3	test	Phase1	test/STIM_028.jpg	99
728.012	1.394	1393.9	test	Phase1	test/STIM_028.jpg	99
732.515	1.265	1264.8	test	Phase1	test/STIM_029.jpg	100
736.274	0.878	878.1	test	Phase1	test/STIM_029.jpg	99
740.329	0.896	896.5	test	Phase1	test/STIM_029.jpg	99
744.38	0.996	996.1	study	Phase2	study/STIM_000.jpg	99
747.587	1.229	1229.3	study	Phase2	study/STIM_000.jpg	99
751.708	1.068	1067.5	study	Phase2	study/STIM_000.jpg	99
756.68	1.533	1533.2	study	Phase2	study/STIM_001.jpg	100
761.978	1.076	1076.4	study	Phase2	study/STIM_001.jpg	100
766.42	0.916	916.4	study	Phase2	study/STIM_001.jpg	100
769.764	1.628	1627.8	study	Phase2	study/STIM_002.jpg	99
774.083	1.271	1271.0	study	Phase2	study/STIM_002.jpg	99
778.523	0.794	793.6	study	Phase2	study/STIM_002.jpg	99
782.337	0.836	836.0	study	Phase2	study/STIM_003.jpg	99
786.977	0.702	701.5	study	Phase2	study/STIM_003.jpg	100
790.813	0.694	693.7	study	Phase2	study/STIM_003.jpg	99
794.338	0.917	917.2	study	Phase2	study/STIM_004.jpg	100
798.261	1.174	1174.0	study	Phase2	study/STIM_004.jpg	99
802.609	0.862	862.0	study	Phase2	study/STIM_004.jpg	99
806.132	1.328	1328.4	study	Phase2	study/STIM_005.jpg	100
811.11	1.449	1449.2	study	Phase2	study/STIM_005.jpg	100
815.482	1.017	1016.9	study	Phase2	study/STIM_005.jpg	99
818.898	1.519	1519.4	study	Phase2	study/STIM_006.jpg	99
823.366	1.012	1011.7	study	Phase2	study/STIM_006.jpg	99
827.606	1.463	1462.7	study	Phase2	study/STIM_006.jpg	99
832.924	1.141	1140.9	study	Phase2	study/STIM_007.jpg	99
836.092	0.734	734.2	study	Phase2	study/STIM_007.jpg	100
839.553	1.186	1185.8	study	Phase2	study/STIM_007.jpg	99
844.698	1.399	1398.6	study	Phase2	study/STIM_008.jpg	100
848.697	0.985	984.7	study	Phase2	study/STIM_008.jpg	99
852.675	1.077	1077.2	study	Phase2	study/STIM_008.jpg	99
857.181	0.904	904.3	study	Phase2	study/STIM_009.jpg	100
860.435	1.063	1062.7	study	Phase2	study/STIM_009.jpg	100
863.644	1.438	1438.5	study	Phase2	study/STIM_009.jpg	99
867.434	1.184	1183.9	study	Phase2	study/STIM_010.jpg	100
870.993	0.703	702.7	study	Phase2	study/STIM_010.jpg	100
874.842	1.262	1262.2	study	Phase2	study/STIM_010.jpg	99
879.149	0.894	893.9	study	Phase2	study/STIM_011.jpg	100
883.981	1.549	1548.8	study	Phase2	study/STIM_011.jpg	100
888.257	1.226	1226.1	study	Phase2	study/STIM_011.jpg	99
892.494	1.178	1178.3	study	Phase2	study/STIM_012.jpg	99
896.678	1.203	1202.8	study	Phase2	study/STIM_012.jpg	99
901.344	1.346	1345.8	study	Phase2	study/STIM_012.jpg	100
905.672	1.593	1592.8	study	Phase2	study/STIM_013.jpg	99
910.214	1.541	1540.9	study	Phase2	study/STIM_013.jpg	99
915.001	0.674	673.5	study	Phase2	study/STIM_013.jpg	100
918.323	1.142	1141.5	study	Phase2	study/STIM_014.jpg	100
922.483	1.204	1204.2	study	Phase2	study/STIM_014.jpg	100
927.658	1.448	1447.8	study	Phase2	study/STIM_014.jpg	99
932.522	1.135	1135.4	study	Phase2	study/STIM_015.jpg	100
937.476	1.161	1160.7	study	Phase2	study/STIM_015.jpg	99
940.842	1.299	1299.2	study	Phase2	study/STIM_015.jpg	100
944.658	0.898	898.5	study	Phase2	study/STIM_016.jpg	100
949.284	1.153	1153.1	study	Phase2	study/STIM_016.jpg	100
952.812	1.104	1104.1	study	Phase2	study/STIM_016.jpg	100
956.562	0.832	832.2	study	Phase2	study/STIM_017.jpg	100
961.17	1.011	1011.3	study	Phase2	study/STIM_017.jpg	99
965.81	0.901	901.4	study	Phase2	study/STIM_017.jpg	100
969.618	1.569	1569.0	study	Phase2	study/STIM_018.jpg	99
974.062	1.148	1148.1	study	Phase2	study/STIM_018.jpg	100
977.826	0.992	992.0	study	Phase2	study/STIM_018.jpg	100
981.954	1.636	1636.3	study	Phase2	study/STIM_019.jpg	99
987.472	1.396	1396.2	study	Phase2	study/STIM_019.jpg	99
992.353	1.272	1272.5	study	Phase2	study/STIM_019.jpg	100
997.29	1.64	1639.9	study	Phase2	study/STIM_020.jpg	100
1001.184	0.706	706.2	study	Phase2	study/STIM_020.jpg	100
1004.035	1.078	1078.4	study	Phase2	study/STIM_020.jpg	99
1008.303	1.301	1301.1	study	Phase2	study/STIM_021.jpg	100
1012.206	1.236	1235.9	study	Phase2	study/STIM_021.jpg	99
1015.994	0.9	899.7	study	Phase2	study/STIM_021.jpg	99
1019.523	0.954	954.2	study	Phase2	study/STIM_022.jpg	100
1022.663	0.968	968.3	study	Phase2	study/STIM_022.jpg	99
1026.037	0.862	862.4	study	Phase2	study/STIM_022.jpg	99
1030.07	0.742	742.1	study	Phase2	study/STIM_023.jpg	99
1033.563	1.132	1132.4	study	Phase2	study/STIM_023.jpg	99
1036.779	1.438	1437.7	study	Phase2	study/STIM_023.jpg	100
1040.77	0.832	831.5	study	Phase2	study/STIM_024.jpg	100
1044.702	1.192	1192.5	study	Phase2	study/STIM_024.jpg	99
1049.241	1.155	1155.3	study	Phase2	study/STIM_024.jpg	100
1053.446	1.251	1250.9	study	Phase2	study/STIM_025.jpg	99
1057.018	1.532	1532.2	study	Phase2	study/STIM_025.jpg	99
1061.383	1.194	1194.1	study	Phase2	study/STIM_025.jpg	99
1065.45	1.406	1406.2	study	Phase2	study/STIM_026.jpg	99
1069.749	1.245	1244.8	study	Phase2	study/STIM_026.jpg	99
1074.042	1.063	1062.9	study	Phase2	study/STIM_026.jpg	100
1078.412	0.747	746.9	study	Phase2	study/STIM_027.jpg	99
1082.68	0.837	836.7	study	Phase2	study/STIM_027.jpg	100
1087.147	1.415	1415.2	study	Phase2	study/STIM_027.jpg	99
1091.629	0.935	935.0	study	Phase2	study/STIM_028.jpg	100
1096.312	1.036	1035.8	study	Phase2	study/STIM_028.jpg	100
1100.043	1.361	1361.3	study	Phase2	study/STIM_028.jpg	100
1104.687	0.974	974.0	study	Phase2	study/STIM_029.jpg	100
1109.495	0.761	760.7	study	Phase2	study/STIM_029.jpg	100
1113.994	0.747	747.1	study	Phase2	study/STIM_029.jpg	100
1118.357	1.298	1298.4	test	Phase2	test/STIM_000.jpg	100
1123.513	1.229	1228.8	test	Phase2	test/STIM_000.jpg	99
1126.742	0.865	865.3	test	Phase2	test/STIM_000.jpg	100
1130.232	0.965	964.9	test	Phase2	test/STIM_001.jpg	100
1135.157	0.74	740.2	test	Phase2	test/STIM_001.jpg	100
1139.066	1.126	1125.9	test	Phase2	test/STIM_001.jpg	99
1142.898	1.356	1356.4	test	Phase2	test/STIM_002.jpg	99
1146.876	1.372	1372.3	test	Phase2	test/STIM_002.jpg	99
1151.202	0.851	851.1	test	Phase2	test/STIM_002.jpg	99
1155.651	1.206	1205.5	test	Phase2	test/STIM_003.jpg	100
1160.337	1.336	1336.1	test	Phase2	test/STIM_003.jpg	99
1164.495	0.964	963.6	test	Phase2	test/STIM_003.jpg	99
1167.696	0.768	767.9	test	Phase2	test/STIM_004.jpg	99
1172.167	1.404	1403.9	test	Phase2	test/STIM_004.jpg	99
1175.887	1.34	1340.0	test	Phase2	test/STIM_004.jpg	100
1179.963	1.217	1216.6	test	Phase2	test/STIM_005.jpg	100
1184.149	0.963	962.7	test	Phase2	test/STIM_005.jpg	100
1188.204	1.328	1328.5	test	Phase2	test/STIM_005.jpg	100
1192.648	1.18	1179.5	test	Phase2	test/STIM_006.jpg	99
1197.524	1.322	1322.0	test	Phase2	test/STIM_006.jpg	100
1201.886	1.181	1181.1	test	Phase2	test/STIM_006.jpg	99
1205.289	1.073	1073.0	test	Phase2	test/STIM_007.jpg	99
1209.215	0.796	796.5	test	Phase2	test/STIM_007.jpg	100
1213.982	1.358	1358.5	test	Phase2	test/STIM_007.jpg	99
1217.46	0.9	899.8	test	Phase2	test/STIM_008.jpg	99
1220.807	1.402	1401.9	test	Phase2	test/STIM_008.jpg	99
1225.325	1.408	1408.2	test	Phase2	test/STIM_008.jpg	99
1229.128	1.102	1102.2	test	Phase2	test/STIM_009.jpg	99
1233.635	1.101	1101.2	test	Phase2	test/STIM_009.jpg	99
1238.309	0.76	759.7	test	Phase2	test/STIM_009.jpg	99
1242.647	0.867	866.7	test	Phase2	test/STIM_010.jpg	100
1247.2	1.238	1237.9	test	Phase2	test/STIM_010.jpg	99
1251.749	1.158	1158.0	test	Phase2	test/STIM_010.jpg	99
1255.538	1.312	1311.5	test	Phase2	test/STIM_011.jpg	100
1259.677	1.041	1041.3	test	Phase2	test/STIM_011.jpg	99
1263.584	1.039	1039.4	test	Phase2	test/STIM_011.jpg	99
1268.623	1.257	1256.6	test	Phase2	test/STIM_012.jpg	100
1272.1	1.182	1181.8	test	Phase2	test/STIM_012.jpg	99
1276.259	1.204	1204.4	test	Phase2	test/STIM_012.jpg	100
1281.452	1.021	1021.3	test	Phase2	test/STIM_013.jpg	99
1285.539	1.067	1067.3	test	Phase2	test/STIM_013.jpg	100
1288.749	1.354	1353.6	test	Phase2	test/STIM_013.jpg	99
1293.353	0.697	696.7	test	Phase2	test/STIM_014.jpg	100
1297.679	0.891	891.2	test	Phase2	test/STIM_014.jpg	99
1301.859	0.705	705.4	test	Phase2	test/STIM_014.jpg	100
1306.127	1.162	1162.1	test	Phase2	test/STIM_015.jpg	99
1310.46	0.847	846.7	test	Phase2	test/STIM_015.jpg	99
1315.3	0.777	776.9	test	Phase2	test/STIM_015.jpg	100
1318.424	0.893	892.9	test	Phase2	test/STIM_016.jpg	99
1322.39	0.695	695.1	test	Phase2	test/STIM_016.jpg	99
1326.277	0.754	754.3	test	Phase2	test/STIM_016.jpg	99
1329.87	1.243	1242.9	test	Phase2	test/STIM_017.jpg	99
1333.371	1.292	1292.0	test	Phase2	test/STIM_017.jpg	100
1336.901	1.343	1342.7	test	Phase2	test/STIM_017.jpg	99
1341.079	1.39	1389.9	test	Phase2	test/STIM_018.jpg	99
1346.291	0.884	884.1	test	Phase2	test/STIM_018.jpg	100
1350.106	1.413	1413.3	test	Phase2	test/STIM_018.jpg	100
1354.894	0.806	806.1	test	Phase2	test/STIM_019.jpg	99
1357.898	1.088	1088.4	test	Phase2	test/STIM_019.jpg	100
1362.734	0.706	705.5	test	Phase2	test/STIM_019.jpg	99
1367.199	1.267	1267.3	test	Phase2	test/STIM_020.jpg	99
1371.878	0.935	935.3	test	Phase2	test/STIM_020.jpg	100
1375.731	1.163	1162.7	test	Phase2	test/STIM_020.jpg	100
1379.186	1.354	1354.4	test	Phase2	test/STIM_021.jpg	100
1384.427	1.267	1267.2	test	Phase2	test/STIM_021.jpg	99
1389.096	1.079	1079.2	test	Phase2	test/STIM_021.jpg	99
1393.907	1.246	1246.2	test	Phase2	test/STIM_022.jpg	99
1398.293	1.238	1237.7	test	Phase2	test/STIM_022.jpg	100
1403.515	1.113	1113.0	test	Phase2	test/STIM_022.jpg	100
1407.72	0.888	887.8	test	Phase2	test/STIM_023.jpg	100
1411.503	1.096	1096.3	test	Phase2	test/STIM_023.jpg	99
1414.717	0.911	911.0	test	Phase2	test/STIM_023.jpg	99
1417.715	0.732	732.4	test	Phase2	test/STIM_024.jpg	99
1421.092	1.035	1034.7	test	Phase2	test/STIM_024.jpg	99
1425.435	1.3	1299.5	test	Phase2	test/STIM_024.jpg	100
1429.458	1.077	1076.9	test	Phase2	test/STIM_025.jpg	99
1433.302	0.854	854.5	test	Phase2	test/STIM_025.jpg	100
1437.484	1.229	1228.9	test	Phase2	test/STIM_025.jpg	100
1440.864	1.101	1100.8	test	Phase2	test/STIM_026.jpg	100
1445.96	1.095	1095.3	test	Phase2	test/STIM_026.jpg	99
1450.579	1.397	1397.4	test	Phase2	test/STIM_026.jpg	99
1454.639	1.019	1019.2	test	Phase2	test/STIM_027.jpg	99
1459.005	1.22	1219.9	test	Phase2	test/STIM_027.jpg	99
1464.134	0.93	930.5	test	Phase2	test/STIM_027.jpg	99
1467.363	0.686	686.1	test	Phase2	test/STIM_028.jpg	99
1470.479	0.86	859.6	test	Phase2	test/STIM_028.jpg	100
1473.902	0.766	765.9	test	Phase2	test/STIM_028.jpg	100
1477.831	0.8	799.5	test	Phase2	test/STIM_029.jpg	99
1480.989	1.313	1313.4	test	Phase2	test/STIM_029.jpg	99
1485.371	0.86	859.9	test	Phase2	test/STIM_029.jpg	99
1489.703	1.063	1063.3	study	Phase3	study/STIM_000.jpg	100
1493.494	1.089	1089.3	study	Phase3	study/STIM_000.jpg	100
1496.965	1.237	1236.6	study	Phase3	study/STIM_000.jpg	99
1502.16	0.809	808.6	study	Phase3	study/STIM_001.jpg	100
1505.289	0.624	623.7	study	Phase3	study/STIM_001.jpg	99
1508.554	1.095	1095.2	study	Phase3	study/STIM_001.jpg	100
1513.17	0.855	854.7	study	Phase3	study/STIM_002.jpg	100
1516.392	1.216	1216.3	study	Phase3	study/STIM_002.jpg	100
1519.647	0.654	653.6	study	Phase3	study/STIM_002.jpg	100
1523.366	0.854	853.7	study	Phase3	study/STIM_003.jpg	99
1526.974	1.233	1233.3	study	Phase3	study/STIM_003.jpg	100
1531.141	0.618	617.5	study	Phase3	study/STIM_003.jpg	99
1534.525	1.061	1061.3	study	Phase3	study/STIM_004.jpg	100
1538.916	0.766	766.1	study	Phase3	study/STIM_004.jpg	99
1543.32	0.747	747.1	study	Phase3	study/STIM_004.jpg	99
1546.977	1.226	1226.2	study	Phase3	study/STIM_005.jpg	99
1550.795	0.886	886.5	study	Phase3	study/STIM_005.jpg	99
1554.816	1.187	1187.0	study	Phase3	study/STIM_005.jpg	99
1559.894	0.714	713.6	study	Phase3	study/STIM_006.jpg	100
1562.651	1.304	1304.5	study	Phase3	study/STIM_006.jpg	100
1566.175	1.362	1362.3	study	Phase3	study/STIM_006.jpg	99
1570.598	0.909	908.9	study	Phase3	study/STIM_007.jpg	99
1574.702	0.951	950.9	study	Phase3	study/STIM_007.jpg	100
1578.576	1.098	1098.2	study	Phase3	study/STIM_007.jpg	100
1583.58	1.245	1245.0	study	Phase3	study/STIM_008.jpg	99
1587.321	1.048	1048.4	study	Phase3	study/STIM_008.jpg	100
1591.473	0.694	694.3	study	Phase3	study/STIM_008.jpg	99
1595.661	0.791	791.0	study	Phase3	study/STIM_009.jpg	99
1598.901	0.933	932.9	study	Phase3	study/STIM_009.jpg	99
1603.027	0.84	840.0	study	Phase3	study/STIM_009.jpg	100
1605.986	1.09	1090.2	study	Phase3	study/STIM_010.jpg	100
1609.466	0.611	611.2	study	Phase3	study/STIM_010.jpg	99
1612.688	1.007	1007.4	study	Phase3	study/STIM_010.jpg	99
1616.116	0.773	773.2	study	Phase3	study/STIM_011.jpg	99
1619.906	1.136	1135.6	study	Phase3	study/STIM_011.jpg	99
1624.719	0.952	951.6	study	Phase3	study/STIM_011.jpg	99
1628.471	1.225	1224.9	study	Phase3	study/STIM_012.jpg	99
1633.062	0.717	716.9	study	Phase3	study/STIM_012.jpg	100
1637.708	0.854	853.7	study	Phase3	study/STIM_012.jpg	99
1641.361	1.076	1075.8	study	Phase3	study/STIM_013.jpg	99
1646.076	0.633	633.0	study	Phase3	study/STIM_013.jpg	99
1648.736	1.342	1342.3	study	Phase3	study/STIM_013.jpg	100
1653.668	1.142	1141.8	study	Phase3	study/STIM_014.jpg	99
1657.067	0.879	879.3	study	Phase3	study/STIM_014.jpg	100
1660.524	1.073	1073.1	study	Phase3	study/STIM_014.jpg	99
1664.105	0.868	868.5	study	Phase3	study/STIM_015.jpg	99
1667.035	1.133	1133.3	study	Phase3	study/STIM_015.jpg	99
1671.925	0.925	924.9	study	Phase3	study/STIM_015.jpg	99
1676.319	1.202	1202.2	study	Phase3	study/STIM_016.jpg	99
1681.147	1.036	1036.2	study	Phase3	study/STIM_016.jpg	100
1685.968	0.919	919.0	study	Phase3	study/STIM_016.jpg	99
1690.039	0.648	648.2	study	Phase3	study/STIM_017.jpg	99
1692.738	0.685	684.6	study	Phase3	study/STIM_017.jpg	99
1696.685	0.935	934.9	study	Phase3	study/STIM_017.jpg	100
1700.476	0.706	705.8	study	Phase3	study/STIM_018.jpg	99
1703.584	0.94	940.3	study	Phase3	study/STIM_018.jpg	99
1708.38	1.194	1194.3	study	Phase3	study/STIM_018.jpg	100
1712.945	1.233	1233.2	study	Phase3	study/STIM_019.jpg	99
1717.088	0.828	827.8	study	Phase3	study/STIM_019.jpg	99
1720.396	0.804	804.3	study	Phase3	study/STIM_019.jpg	99
1723.886	0.774	773.6	study	Phase3	study/STIM_020.jpg	99
1727.46	1.196	1196.1	study	Phase3	study/STIM_020.jpg	100
1732.451	1.046	1046.0	study	Phase3	study/STIM_020.jpg	100
1736.369	0.929	928.7	study	Phase3	study/STIM_021.jpg	99
1740.611	0.812	811.5	study	Phase3	study/STIM_021.jpg	99
1745.085	0.653	652.6	study	Phase3	study/STIM_021.jpg	99
1749.328	0.884	884.3	study	Phase3	study/STIM_022.jpg	100
1753.877	0.809	809.4	study	Phase3	study/STIM_022.jpg	100
1758.502	1.243	1243.0	study	Phase3	study/STIM_022.jpg	100
1763.688	0.666	665.8	study	Phase3	study/STIM_023.jpg	100
1767.224	1.304	1304.1	study	Phase3	study/STIM_023.jpg	100
1772.395	0.727	727.4	study	Phase3	study/STIM_023.jpg	99
1775.767	1.125	1124.7	study	Phase3	study/STIM_024.jpg	99
1779.5	1.26	1260.4	study	Phase3	study/STIM_024.jpg	100
1783.217	0.724	724.2	study	Phase3	study/STIM_024.jpg	99
1786.986	0.65	650.3	study	Phase3	study/STIM_025.jpg	100
1790.539	1.143	1142.8	study	Phase3	study/STIM_025.jpg	99
1795.481	0.994	994.5	study	Phase3	study/STIM_025.jpg	100
1800.076	0.722	721.5	study	Phase3	study/STIM_026.jpg	100
1804.195	0.756	756.3	study	Phase3	study/STIM_026.jpg	99
1807.327	1.213	1213.3	study	Phase3	study/STIM_026.jpg	99
1811.064	1.005	1004.8	study	Phase3	study/STIM_027.jpg	100
1814.457	1.041	1040.7	study	Phase3	study/STIM_027.jpg	99
1817.6	1.286	1286.4	study	Phase3	study/STIM_027.jpg	100
1822.439	0.931	930.7	study	Phase3	study/STIM_028.jpg	99
1826.083	1.068	1068.0	study	Phase3	study/STIM_028.jpg	100
1829.398	1.282	1282.1	study	Phase3	study/STIM_028.jpg	100
1834.254	1.03	1029.7	study	Phase3	study/STIM_029.jpg	100
1837.995	0.674	674.1	study	Phase3	study/STIM_029.jpg	100
1841.083	0.818	817.6	study	Phase3	study/STIM_029.jpg	100
1844.061	1.134	1133.8	test	Phase3	test/STIM_000.jpg	100
1848.162	0.815	814.7	test	Phase3	test/STIM_000.jpg	100
1852.304	0.806	806.3	test	Phase3	test/STIM_000.jpg	100
1855.421	1.345	1345.1	test	Phase3	test/STIM_001.jpg	99
1858.914	0.768	767.5	test	Phase3	test/STIM_001.jpg	100
1862.075	1.194	1194.1	test	Phase3	test/STIM_001.jpg	100
1866.397	1.123	1123.3	test	Phase3	test/STIM_002.jpg	99
1871.388	0.939	938.8	test	Phase3	test/STIM_002.jpg	99
1876.315	1.323	1322.6	test	Phase3	test/STIM_002.jpg	100
1880.292	0.736	736.1	test	Phase3	test/STIM_003.jpg	100
1883.727	0.796	796.2	test	Phase3	test/STIM_003.jpg	99
1887.273	1.106	1106.1	test	Phase3	test/STIM_003.jpg	100
1890.423	1.4	1399.7	test	Phase3	test/STIM_004.jpg	100
1895.783	0.857	857.4	test	Phase3	test/STIM_004.jpg	100
1900.401	1.021	1021.2	test	Phase3	test/STIM_004.jpg	100
1904.751	1.278	1278.4	test	Phase3	test/STIM_005.jpg	99
1908.702	0.97	970.5	test	Phase3	test/STIM_005.jpg	99
1912.247	1.389	1389.2	test	Phase3	test/STIM_005.jpg	99
1917.063	0.889	889.3	test	Phase3	test/STIM_006.jpg	100
1920.906	1.253	1253.3	test	Phase3	test/STIM_006.jpg	99
1926.088	0.793	792.9	test	Phase3	test/STIM_006.jpg	100
1929.21	0.853	853.0	test	Phase3	test/STIM_007.jpg	100
1932.413	0.735	735.1	test	Phase3	test/STIM_007.jpg	100
1935.879	1.194	1194.4	test	Phase3	test/STIM_007.jpg	100
1940.566	0.852	852.0	test	Phase3	test/STIM_008.jpg	99
1944.463	1.136	1136.0	test	Phase3	test/STIM_008.jpg	100
1949.145	1.318	1318.5	test	Phase3	test/STIM_008.jpg	100
1954.453	1.217	1216.6	test	Phase3	test/STIM_009.jpg	99
1958.303	0.841	840.6	test	Phase3	test/STIM_009.jpg	100
1961.198	0.831	831.0	test	Phase3	test/STIM_009.jpg	100
1964.2	0.662	661.5	test	Phase3	test/STIM_010.jpg	100
1967.224	0.83	829.7	test	Phase3	test/STIM_010.jpg	99
1970.35	0.691	690.6	test	Phase3	test/STIM_010.jpg	99
1973.582	1.037	1036.9	test	Phase3	test/STIM_011.jpg	99
1977.633	1.332	1332.5	test	Phase3	test/STIM_011.jpg	99
1982.198	1.229	1228.7	test	Phase3	test/STIM_011.jpg	100
1985.77	1.292	1292.5	test	Phase3	test/STIM_012.jpg	100
1989.384	1.057	1057.0	test	Phase3	test/STIM_012.jpg	100
1992.502	1.034	1033.5	test	Phase3	test/STIM_012.jpg	99
1996.474	1.248	1247.7	test	Phase3	test/STIM_013.jpg	100
2001.562	1.081	1081.4	test	Phase3	test/STIM_013.jpg	100
2005.549	0.816	816.4	test	Phase3	test/STIM_013.jpg	100
2009.47	1.218	1217.5	test	Phase3	test/STIM_014.jpg	99
2013.733	0.676	675.6	test	Phase3	test/STIM_014.jpg	100
2018.016	0.863	863.0	test	Phase3	test/STIM_014.jpg	100
2021.941	0.935	935.3	test	Phase3	test/STIM_015.jpg	100
2025.784	1.304	1304.4	test	Phase3	test/STIM_015.jpg	99
2030.706	0.675	674.7	test	Phase3	test/STIM_015.jpg	100
2035.284	1.328	1327.5	test	Phase3	test/STIM_016.jpg	100
2039.718	1.374	1373.5	test	Phase3	test/STIM_016.jpg	100
2043.316	0.863	862.6	test	Phase3	test/STIM_016.jpg	99
2046.514	1.322	1321.5	test	Phase3	test/STIM_017.jpg	100
2051.665	0.87	870.5	test	Phase3	test/STIM_017.jpg	100
2056.022	0.692	691.5	test	Phase3	test/STIM_017.jpg	99
2060.582	0.829	828.6	test	Phase3	test/STIM_018.jpg	100
2065.247	0.899	898.8	test	Phase3	test/STIM_018.jpg	100
2068.345	1.312	1311.8	test	Phase3	test/STIM_018.jpg	100
2072.153	1.053	1053.4	test	Phase3	test/STIM_019.jpg	100
2076.802	0.898	897.6	test	Phase3	test/STIM_019.jpg	99
2079.769	0.851	850.6	test	Phase3	test/STIM_019.jpg	100
2083.89	1.038	1038.0	test	Phase3	test/STIM_020.jpg	100
2088.29	1.09	1089.8	test	Phase3	test/STIM_020.jpg	100
2093.104	0.683	683.3	test	Phase3	test/STIM_020.jpg	99
2096.499	0.885	885.3	test	Phase3	test/STIM_021.jpg	100
2100.598	0.697	697.2	test	Phase3	test/STIM_021.jpg	99
2105.166	0.967	966.7	test	Phase3	test/STIM_021.jpg	100
2108.529	1.076	1076.5	test	Phase3	test/STIM_022.jpg	100
2111.874	0.835	834.8	test	Phase3	test/STIM_022.jpg	100
2115.139	1.414	1413.6	test	Phase3	test/STIM_022.jpg	99
2119.434	0.82	819.5	test	Phase3	test/STIM_023.jpg	100
2123.184	1.146	1146.3	test	Phase3	test/STIM_023.jpg	100
2126.589	1.08	1079.6	test	Phase3	test/STIM_023.jpg	99
2130.699	1.413	1413.4	test	Phase3	test/STIM_024.jpg	99
2134.162	1.136	1135.6	test	Phase3	test/STIM_024.jpg	100
2139.179	0.831	830.6	test	Phase3	test/STIM_024.jpg	100
2142.046	1.398	1397.6	test	Phase3	test/STIM_025.jpg	100
2147.007	1.008	1007.7	test	Phase3	test/STIM_025.jpg	99
2151.931	1.37	1369.7	test	Phase3	test/STIM_025.jpg	99
2157.179	1.253	1253.1	test	Phase3	test/STIM_026.jpg	100
2162.224	0.926	925.8	test	Phase3	test/STIM_026.jpg	100
2166.182	1.215	1215.1	test	Phase3	test/STIM_026.jpg	100
2170.864	0.79	790.1	test	Phase3	test/STIM_027.jpg	99
2175.299	1.133	1133.0	test	Phase3	test/STIM_027.jpg	99
2179.578	0.985	984.7	test	Phase3	test/STIM_027.jpg	99
2184.409	1.238	1238.3	test	Phase3	test/STIM_028.jpg	99
2188.853	0.906	905.7	test	Phase3	test/STIM_028.jpg	99
2193.418	0.804	804.4	test	Phase3	test/STIM_028.jpg	100
2196.423	0.728	728.4	test	Phase3	test/STIM_029.jpg	99
2200.624	1.331	1330.6	test	Phase3	test/STIM_029.jpg	100
2204.947	0.947	947.4	test	Phase3	test/STIM_029.jpg	100
