onset	duration	response_time_ms	trial_type	learning_stage	stimulus	response_port
0.0	1.406	1405.7	study	Phase1	study/STIM_000.jpg	99
4.906	1.002	1001.7	study	Phase1	study/STIM_000.jpg	99
9.605	1.141	1141.4	study	Phase1	study/STIM_000.jpg	100
14.002	0.897	897.4	study	Phase1	study/STIM_001.jpg	100
18.432	1.177	1177.4	study	Phase1	study/STIM_001.jpg	99
22.231	1.078	1077.5	study	Phase1	study/STIM_001.jpg	99
25.626	1.69	1689.9	study	Phase1	study/STIM_002.jpg	99
29.767	1.594	1593.9	study	Phase1	study/STIM_002.jpg	99
34.224	1.353	1353.2	study	Phase1	study/STIM_002.jpg	100
38.983	1.098	1098.4	study	Phase1	study/STIM_003.jpg	100
43.708	1.332	1332.1	study	Phase1	study/STIM_003.jpg	100
48.26	1.063	1062.7	study	Phase1	study/STIM_003.jpg	100
52.665	1.204	1204.0	study	Phase1	study/STIM_004.jpg	100
57.557	1.654	1654.0	study	Phase1	study/STIM_004.jpg	100
61.425	1.067	1066.9	study	Phase1	study/STIM_004.jpg	99
65.735	1.82	1819.6	study	Phase1	study/STIM_005.jpg	99
70.935	1.324	1324.5	study	Phase1	study/STIM_005.jpg	99
75.317	1.461	1461.0	study	Phase1	study/STIM_005.jpg	99
80.647	1.389	1389.0	study	Phase1	study/STIM_006.jpg	99
83.998	0.958	958.3	study	Phase1	study/STIM_006.jpg	100
88.32	1.058	1057.8	study	Phase1	study/STIM_006.jpg	100
91.581	1.319	1318.7	study	Phase1	study/STIM_007.jpg	100
95.022	1.536	1536.2	study	Phase1	study/STIM_007.jpg	99
100.221	1.017	1017.1	study	Phase1	study/STIM_007.jpg	100
104.782	1.102	1101.5	study	Phase1	study/STIM_008.jpg	100
108.203	0.955	954.9	study	Phase1	study/STIM_008.jpg	99
112.953	1.195	1194.9	study	Phase1	study/STIM_008.jpg	100
116.721	1.659	1659.1	study	Phase1	study/STIM_009.jpg	100
120.687	1.504	1503.6	study	Phase1	study/STIM_009.jpg	100
125.641	1.52	1519.8	study	Phase1	study/STIM_009.jpg	99
130.727	1.387	1386.6	study	Phase1	study/STIM_010.jpg	99
135.37	1.587	1587.0	study	Phase1	study/STIM_010.jpg	99
140.733	0.845	845.2	study	Phase1	study/STIM_010.jpg	100
145.383	1.644	1643.8	study	Phase1	study/STIM_011.jpg	99
149.211	1.649	1648.8	study	Phase1	study/STIM_011.jpg	100
154.434	1.295	1294.9	study	Phase1	study/STIM_011.jpg	100
158.861	1.293	1293.0	study	Phase1	study/STIM_012.jpg	99
163.252	1.23	1230.2	study	Phase1	study/STIM_012.jpg	99
167.613	0.899	898.7	study	Phase1	study/STIM_012.jpg	100
171.036	1.248	1247.9	study	Phase1	study/STIM_013.jpg	100
174.526	1.062	1062.5	study	Phase1	study/STIM_013.jpg	99
178.869	0.772	771.9	study	Phase1	study/STIM_013.jpg	100
182.595	1.299	1298.7	study	Phase1	study/STIM_014.jpg	100
186.822	1.007	1007.1	study	Phase1	study/STIM_014.jpg	99
189.911	0.832	831.7	study	Phase1	study/STIM_014.jpg	100
194.278	1.699	1698.9	study	Phase1	study/STIM_015.jpg	99
199.203	1.184	1184.2	study	Phase1	study/STIM_015.jpg	99
202.758	1.183	1182.7	study	Phase1	study/STIM_015.jpg	99
206.504	1.849	1848.9	study	Phase1	study/STIM_016.jpg	99
210.554	1.154	1154.1	study	Phase1	study/STIM_016.jpg	100
214.876	1.451	1450.8	study	Phase1	study/STIM_016.jpg	99
219.347	1.774	1774.5	study	Phase1	study/STIM_017.jpg	99
223.351	1.066	1066.1	study	Phase1	study/STIM_017.jpg	99
228.107	0.807	806.9	study	Phase1	study/STIM_017.jpg	100
232.749	1.264	1264.0	study	Phase1	study/STIM_018.jpg	99
237.102	1.594	1593.6	study	Phase1	study/STIM_018.jpg	100
241.35	1.528	1528.2	study	Phase1	study/STIM_018.jpg	100
246.55	1.115	1115.1	study	Phase1	study/STIM_019.jpg	100
249.813	1.354	1354.2	study	Phase1	study/STIM_019.jpg	99
253.18	1.562	1561.6	study	Phase1	study/STIM_019.jpg	100
257.387	0.987	987.2	study	Phase1	study/STIM_020.jpg	99
261.674	1.498	1498.3	study	Phase1	study/STIM_020.jpg	100
266.797	1.606	1606.5	study	Phase1	study/STIM_020.jpg	100
271.019	1.816	1815.5	study	Phase1	study/STIM_021.jpg	100
274.977	1.403	1403.0	study	Phase1	study/STIM_021.jpg	99
278.448	0.999	999.0	study	Phase1	study/STIM_021.jpg	100
282.086	1.532	1532.3	study	Phase1	study/STIM_022.jpg	100
286.712	1.766	1765.6	study	Phase1	study/STIM_022.jpg	100
292.13	1.682	1682.4	study	Phase1	study/STIM_022.jpg	99
296.445	1.22	1220.0	study	Phase1	study/STIM_023.jpg	100
300.917	1.247	1247.4	study	Phase1	study/STIM_023.jpg	100
305.475	1.073	1073.4	study	Phase1	study/STIM_023.jpg	99
310.003	1.503	1503.2	study	Phase1	study/STIM_024.jpg	99
314.434	1.262	1261.6	study	Phase1	study/STIM_024.jpg	100
319.607	1.439	1438.9	study	Phase1	study/STIM_024.jpg	99
324.118	1.792	1792.3	study	Phase1	study/STIM_025.jpg	99
328.326	1.76	1760.3	study	Phase1	study/STIM_025.jpg	100
333.149	1.275	1275.2	study	Phase1	study/STIM_025.jpg	99
337.212	1.882	1882.5	study	Phase1	study/STIM_026.jpg	99
341.667	1.077	1076.6	study	Phase1	study/STIM_026.jpg	100
346.674	1.691	1690.7	study	Phase1	study/STIM_026.jpg	99
351.315	0.949	949.3	study	Phase1	study/STIM_027.jpg	99
355.629	1.679	1678.8	study	Phase1	study/STIM_027.jpg	99
359.438	1.551	1551.1	study	Phase1	study/STIM_027.jpg	100
364.021	1.29	1290.0	study	Phase1	study/STIM_028.jpg	99
368.56	1.727	1727.3	study	Phase1	study/STIM_028.jpg	100
373.76	1.101	1101.0	study	Phase1	study/STIM_028.jpg	100
378.252	1.582	1582.3	study	Phase1	study/STIM_029.jpg	99
383.329	1.791	1791.2	study	Phase1	study/STIM_029.jpg	99
388.864	1.692	1692.5	study	Phase1	study/STIM_029.jpg	99
392.743	1.335	1334.6	test	Phase1	test/STIM_000.jpg	99
396.726	0.974	973.9	test	Phase1	test/STIM_000.jpg	99
400.469	0.82	819.5	test	Phase1	test/STIM_000.jpg	100
404.372	1.329	1329.1	test	Phase1	test/STIM_001.jpg	99
409.182	1.239	1239.1	test	Phase1	test/STIM_001.jpg	99
413.992	0.758	757.6	test	Phase1	test/STIM_001.jpg	99
417.711	0.982	981.8	test	Phase1	test/STIM_002.jpg	99
421.529	0.948	948.1	test	Phase1	test/STIM_002.jpg	99
425.011	1.229	1229.1	test	Phase1	test/STIM_002.jpg	100
428.981	1.314	1313.8	test	Phase1	test/STIM_003.jpg	99
434.082	0.916	916.5	test	Phase1	test/STIM_003.jpg	100
438.473	0.82	820.2	test	Phase1	test/STIM_003.jpg	100
442.399	1.359	1359.2	test	Phase1	test/STIM_004.jpg	100
447.471	1.173	1173.1	test	Phase1	test/STIM_004.jpg	99
452.002	1.109	1109.2	test	Phase1	test/STIM_004.jpg	99
455.962	1.048	1048.2	test	Phase1	test/STIM_005.jpg	99
460.167	1.093	1092.7	test	Phase1	test/STIM_005.jpg	100
464.74	0.643	643.1	test	Phase1	test/STIM_005.jpg	100
469.05	1.327	1326.9	test	Phase1	test/STIM_006.jpg	100
472.617	1.066	1066.2	test	Phase1	test/STIM_006.jpg	100
476.746	0.788	788.1	test	Phase1	test/STIM_006.jpg	99
479.875	1.299	1298.6	test	Phase1	test/STIM_007.jpg	99
483.169	0.778	777.5	test	Phase1	test/STIM_007.jpg	100
486.081	1.022	1021.5	test	Phase1	test/STIM_007.jpg	100
490.125	1.205	1205.1	test	Phase1	test/STIM_008.jpg	99
493.443	1.133	1132.7	test	Phase1	test/STIM_008.jpg	100
497.552	1.374	1374.3	test	Phase1	test/STIM_008.jpg	99
502.491	1.055	1054.8	test	Phase1	test/STIM_009.jpg	100
507.307	1.166	1166.2	test	Phase1	test/STIM_009.jpg	100
512.309	1.256	1256.0	test	Phase1	test/STIM_009.jpg	99
517.434	0.963	962.8	test	Phase1	test/STIM_010.jpg	100
521.354	0.726	726.3	test	Phase1	test/STIM_010.jpg	100
525.137	1.064	1064.2	test	Phase1	test/STIM_010.jpg	99
529.853	0.976	976.1	test	Phase1	test/STIM_011.jpg	100
532.994	1.189	1189.0	test	Phase1	test/STIM_011.jpg	100
537.597	1.323	1322.9	test	Phase1	test/STIM_011.jpg	99
542.075	1.16	1160.4	test	Phase1	test/STIM_012.jpg	100
546.173	1.256	1256.3	test	Phase1	test/STIM_012.jpg	100
550.624	0.95	950.3	test	Phase1	test/STIM_012.jpg	99
554.55	0.794	794.3	test	Phase1	test/STIM_013.jpg	100
557.595	0.729	728.9	test	Phase1	test/STIM_013.jpg	99
561.613	0.636	636.5	test	Phase1	test/STIM_013.jpg	100
565.275	0.717	717.2	test	Phase1	test/STIM_014.jpg	100
568.683	0.874	873.7	test	Phase1	test/STIM_014.jpg	100
572.788	1.034	1034.3	test	Phase1	test/STIM_014.jpg	99
577.211	1.37	1369.7	test	Phase1	test/STIM_015.jpg	100
582.496	0.998	997.6	test	Phase1	test/STIM_015.jpg	99
586.894	1.128	1128.4	test	Phase1	test/STIM_015.jpg	99
590.701	1.374	1373.8	test	Phase1	test/STIM_016.jpg	99
594.715	1.185	1185.3	test	Phase1	test/STIM_016.jpg	100
598.244	0.901	901.2	test	Phase1	test/STIM_016.jpg	99
603.084	1.018	1017.8	test	Phase1	test/STIM_017.jpg	99
606.831	0.817	817.2	test	Phase1	test/STIM_017.jpg	100
611.141	1.311	1311.4	test	Phase1	test/STIM_017.jpg	100
614.634	0.756	755.6	test	Phase1	test/STIM_018.jpg	100
618.544	1.184	1183.5	test	Phase1	test/STIM_018.jpg	99
623.499	0.978	977.7	test	Phase1	test/STIM_018.jpg	100
628.194	0.682	682.4	test	Phase1	test/STIM_019.jpg	99
631.958	0.934	933.6	test	Phase1	test/STIM_019.jpg	100
636.216	1.058	1058.3	test	Phase1	test/STIM_019.jpg	100
640.095	0.935	934.8	test	Phase1	test/STIM_020.jpg	99
643.829	1.263	1263.3	test	Phase1	test/STIM_020.jpg	99
647.168	0.68	679.9	test	Phase1	test/STIM_020.jpg	100
649.982	1.037	1036.6	test	Phase1	test/STIM_021.jpg	99
654.529	1.118	1117.6	test	Phase1	test/STIM_021.jpg	100
658.243	0.863	862.8	test	Phase1	test/STIM_021.jpg	100
662.831	1.055	1054.8	test	Phase1	test/STIM_022.jpg	100
666.749	1.057	1057.4	test	Phase1	test/STIM_022.jpg	99
669.872	0.98	979.5	test	Phase1	test/STIM_022.jpg	100
673.613	1.156	1156.2	test	Phase1	test/STIM_023.jpg	99
677.809	0.995	994.8	test	Phase1	test/STIM_023.jpg	100
681.206	1.048	1048.4	test	Phase1	test/STIM_023.jpg	99
685.05	0.637	637.3	test	Phase1	test/STIM_024.jpg	99
688.795	0.69	690.3	test	Phase1	test/STIM_024.jpg	100
692.055	1.08	1079.8	test	Phase1	test/STIM_024.jpg	100
695.762	0.745	745.2	test	Phase1	test/STIM_025.jpg	100
699.922	0.913	913.3	test	Phase1	test/STIM_025.jpg	100
704.639	0.864	864.1	test	Phase1	test/STIM_025.jpg	99
707.979	1.058	1058.2	test	Phase1	test/STIM_026.jpg	100
712.181	0.764	764.2	test	Phase1	test/STIM_026.jpg	100
715.376	1.226	1226.4	test	Phase1	test/STIM_026.jpg	100
720.459	0.724	724.3	test	Phase1	test/STIM_027.jpg	100
724.679	0.723	723.0	test	Phase1	test/STIM_027.jpg	99
728.267	1.202	1201.7	test	Phase1	test/STIM_027.jpg	100
733.111	0.863	863.4	test	Phase1	test/STIM_028.jpg	99
737.365	0.764	764.4	test	Phase1	test/STIM_028.jpg	100
741.696	1.089	1089.0	test	Phase1	test/STIM_028.jpg	99
746.029	0.92	919.9	test	Phase1	test/STIM_029.jpg	100
748.926	0.823	822.8	test	Phase1	test/STIM_029.jpg	100
753.131	0.891	891.4	test	Phase1	test/STIM_029.jpg	100
757.858	0.99	989.6	study	Phase2	study/STIM_000.jpg	100
761.603	0.914	914.1	study	Phase2	study/STIM_000.jpg	100
766.283	0.976	975.9	study	Phase2	study/STIM_000.jpg	99
769.594	1.371	1371.3	study	Phase2	study/STIM_001.jpg	99
773.839	1.324	1323.6	study	Phase2	study/STIM_001.jpg	99
777.698	0.747	746.9	study	Phase2	study/STIM_001.jpg	99
782.075	1.555	1554.9	study	Phase2	study/STIM_002.jpg	100
787.378	0.829	829.4	study	Phase2	study/STIM_002.jpg	99
791.034	1.193	1193.3	study	Phase2	study/STIM_002.jpg	99
794.939	0.785	785.0	study	Phase2	study/STIM_003.jpg	99
798.155	1.311	1310.9	study	Phase2	study/STIM_003.jpg	100
802.227	1.062	1061.7	study	Phase2	study/STIM_003.jpg	99
805.37	1.012	1011.6	study	Phase2	study/STIM_004.jpg	100
809.791	0.752	751.7	study	Phase2	study/STIM_004.jpg	100
812.904	0.94	939.7	study	Phase2	study/STIM_004.jpg	99
816.945	0.863	863.2	study	Phase2	study/STIM_005.jpg	99
820.932	1.409	1409.4	study	Phase2	study/STIM_005.jpg	99
826.042	1.316	1316.4	study	Phase2	study/STIM_005.jpg	100
830.933	0.827	827.1	study	Phase2	study/STIM_006.jpg	99
834.033	1.459	1458.9	study	Phase2	study/STIM_006.jpg	100
838.052	0.68	679.9	study	Phase2	study/STIM_006.jpg	99
841.072	0.888	888.2	study	Phase2	study/STIM_007.jpg	99
844.071	0.931	931.2	study	Phase2	study/STIM_007.jpg	99
848.097	0.865	865.1	study	Phase2	study/STIM_007.jpg	100
852.131	1.312	1312.2	study	Phase2	study/STIM_008.jpg	100
857.224	0.709	709.3	study	Phase2	study/STIM_008.jpg	99
861.037	0.644	644.0	study	Phase2	study/STIM_008.jpg	99
864.432	1.239	1238.9	study	Phase2	study/STIM_009.jpg	99
868.098	1.205	1204.8	study	Phase2	study/STIM_009.jpg	100
872.347	1.168	1168.3	study	Phase2	study/STIM_009.jpg	100
876.165	1.219	1219.2	study	Phase2	study/STIM_010.jpg	99
881.196	1.292	1292.1	study	Phase2	study/STIM_010.jpg	100
885.873	0.822	822.2	study	Phase2	study/STIM_010.jpg	100
889.943	1.59	1590.1	study	Phase2	study/STIM_011.jpg	100
893.792	1.407	1406.6	study	Phase2	study/STIM_011.jpg	99
898.354	1.044	1044.2	study	Phase2	study/STIM_011.jpg	100
903.257	1.058	1058.5	study	Phase2	study/STIM_012.jpg	100
907.964	1.424	1423.8	study	Phase2	study/STIM_012.jpg	100
912.429	1.38	1380.4	study	Phase2	study/STIM_012.jpg	99
916.137	0.916	916.4	study	Phase2	study/STIM_013.jpg	99
920.336	1.035	1035.3	study	Phase2	study/STIM_013.jpg	99
923.794	1.284	1283.5	study	Phase2	study/STIM_013.jpg	100
927.667	1.145	1145.0	study	Phase2	study/STIM_014.jpg	100
932.455	1.257	1257.2	study	Phase2	study/STIM_014.jpg	100
936.882	0.959	958.7	study	Phase2	study/STIM_014.jpg	100
941.01	1.219	1218.7	study	Phase2	study/STIM_015.jpg	99
945.494	1.358	1357.5	study	Phase2	study/STIM_015.jpg	100
949.77	1.234	1234.1	study	Phase2	study/STIM_015.jpg	100
954.282	1.062	1062.3	study	Phase2	study/STIM_016.jpg	99
959.239	1.193	1192.8	study	Phase2	study/STIM_016.jpg	99
962.838	1.157	1156.8	study	Phase2	study/STIM_016.jpg	99
967.591	0.92	919.9	study	Phase2	study/STIM_017.jpg	100
970.814	1.077	1076.9	study	Phase2	study/STIM_017.jpg	100
973.899	1.042	1041.6	study	Phase2	study/STIM_017.jpg	99
977.519	0.736	736.0	study	Phase2	study/STIM_018.jpg	99
982.051	1.089	1089.2	study	Phase2	study/STIM_018.jpg	100
986.195	0.767	767.0	study	Phase2	study/STIM_018.jpg	100
988.985	0.772	771.5	study	Phase2	study/STIM_019.jpg	100
993.298	0.991	990.7	study	Phase2	study/STIM_019.jpg	100
996.392	1.242	1242.4	study	Phase2	study/STIM_019.jpg	99
999.995	1.365	1365.0	study	Phase2	study/STIM_020.jpg	100
1004.255	1.003	1003.4	study	Phase2	study/STIM_020.jpg	99
1008.48	1.345	1344.9	study	Phase2	study/STIM_020.jpg	99
1012.58	0.888	887.7	study	Phase2	study/STIM_021.jpg	99
1015.751	0.775	774.6	study	Phase2	study/STIM_021.jpg	100
1019.566	1.086	1086.3	study	Phase2	study/STIM_021.jpg	99
1024.364	1.544	1543.5	study	Phase2	study/STIM_022.jpg	100
1029.093	1.07	1070.4	study	Phase2	study/STIM_022.jpg	100
1033.535	0.792	791.5	study	Phase2	study/STIM_022.jpg	100
1036.51	0.832	831.5	study	Phase2	study/STIM_023.jpg	99
1039.994	1.205	1205.1	study	Phase2	study/STIM_023.jpg	100
1043.409	0.837	836.8	study	Phase2	study/STIM_023.jpg	100
1047.715	1.46	1460.3	study	Phase2	study/STIM_024.jpg	99
1051.984	1.253	1253.3	study	Phase2	study/STIM_024.jpg	99
1055.332	0.988	988.4	study	Phase2	study/STIM_024.jpg	100
1059.011	0.99	989.7	study	Phase2	study/STIM_025.jpg	100
1063.781	1.341	1340.6	study	Phase2	study/STIM_025.jpg	99
1068.822	1.105	1105.0	study	Phase2	study/STIM_025.jpg	100
1073.739	1.313	1312.7	study	Phase2	study/STIM_026.jpg	99
1077.649	1.238	1238.0	study	Phase2	study/STIM_026.jpg	99
1082.794	0.797	797.1	study	Phase2	study/STIM_026.jpg	100
1085.782	1.335	1335.0	study	Phase2	study/STIM_027.jpg	99
1090.162	1.122	1121.6	study	Phase2	study/STIM_027.jpg	100
1094.294	1.206	1205.6	study	Phase2	study/STIM_027.jpg	99
1097.713	0.827	827.1	study	Phase2	study/STIM_028.jpg	100
1101.142	1.009	1009.0	study	Phase2	study/STIM_028.jpg	99
1104.593	0.642	641.5	study	Phase2	study/STIM_028.jpg	100
1107.984	1.401	1400.7	study	Phase2	study/STIM_029.jpg	100
1111.704	1.273	1273.1	study	Phase2	study/STIM_029.jpg	100
1116.604	0.901	901.2	study	Phase2	study/STIM_029.jpg	100
1120.524	1.376	1376.4	test	Phase2	test/STIM_000.jpg	100
1124.227	1.152	1152.4	test	Phase2	test/STIM_000.jpg	100
1128.974	1.289	1289.2	test	Phase2	test/STIM_000.jpg	99
1132.351	1.224	1224.0	test	Phase2	test/STIM_001.jpg	100
1136.408	0.931	931.1	test	Phase2	test/STIM_001.jpg	99
1141.165	1.179	1178.7	test	Phase2	test/STIM_001.jpg	99
1145.461	1.028	1027.7	test	Phase2	test/STIM_002.jpg	99
1150.356	0.97	970.4	test	Phase2	test/STIM_002.jpg	100
1153.792	0.908	907.7	test	Phase2	test/STIM_002.jpg	100
1158.501	1.358	1357.7	test	Phase2	test/STIM_003.jpg	99
1163.424	0.726	725.8	test	Phase2	test/STIM_003.jpg	100
1168.006	0.808	807.9	test	Phase2	test/STIM_003.jpg	100
1171.559	1.19	1189.5	test	Phase2	test/STIM_004.jpg	100
1176.148	1.265	1265.2	test	Phase2	test/STIM_004.jpg	100
1179.803	0.728	727.8	test	Phase2	test/STIM_004.jpg	99
1182.533	1.3	1299.7	test	Phase2	test/STIM_005.jpg	100
1186.191	0.748	748.0	test	Phase2	test/STIM_005.jpg	100
1189.431	0.696	695.8	test	Phase2	test/STIM_005.jpg	100
1192.635	0.647	647.2	test	Phase2	test/STIM_006.jpg	100
1196.417	0.66	659.7	test	Phase2	test/STIM_006.jpg	100
1199.684	1.332	1332.3	test	Phase2	test/STIM_006.jpg	100
1204.323	1.212	1212.5	test	Phase2	test/STIM_007.jpg	100
1207.669	1.329	1329.4	test	Phase2	test/STIM_007.jpg	99
1211.264	1.206	1206.2	test	Phase2	test/STIM_007.jpg	100
1215.866	0.967	967.2	test	Phase2	test/STIM_008.jpg	100
1218.979	0.745	745.0	test	Phase2	test/STIM_008.jpg	99
1221.946	0.968	968.2	test	Phase2	test/STIM_008.jpg	100
1225.466	0.658	658.4	test	Phase2	test/STIM_009.jpg	99
1229.208	1.282	1282.3	test	Phase2	test/STIM_009.jpg	100
1233.161	0.808	808.0	test	Phase2	test/STIM_009.jpg	100
1236.526	1.233	1233.3	test	Phase2	test/STIM_010.jpg	99
1241.517	1.15	1149.8	test	Phase2	test/STIM_010.jpg	100
1245.044	0.661	661.4	test	Phase2	test/STIM_010.jpg	99
1249.111	0.751	750.6	test	Phase2	test/STIM_011.jpg	99
1253.187	1.11	1110.0	test	Phase2	test/STIM_011.jpg	100
1256.903	0.908	908.4	test	Phase2	test/STIM_011.jpg	99
1260.326	1.264	1263.5	test	Phase2	test/STIM_012.jpg	99
1264.261	1.262	1261.8	test	Phase2	test/STIM_012.jpg	99
1267.765	0.641	641.1	test	Phase2	test/STIM_012.jpg	99
1272.11	0.776	776.0	test	Phase2	test/STIM_013.jpg	100
1276.789	0.863	862.6	test	Phase2	test/STIM_013.jpg	99
1280.013	1.072	1071.8	test	Phase2	test/STIM_013.jpg	99
1284.256	1.132	1131.7	test	Phase2	test/STIM_014.jpg	100
1289.13	0.717	717.4	test	Phase2	test/STIM_014.jpg	100
1292.147	0.96	959.7	test	Phase2	test/STIM_014.jpg	99
1295.722	1.369	1369.0	test	Phase2	test/STIM_015.jpg	99
1299.197	0.934	934.5	test	Phase2	test/STIM_015.jpg	100
1302.412	0.981	980.6	test	Phase2	test/STIM_015.jpg	99
1305.509	1.243	1242.6	test	Phase2	test/STIM_016.jpg	99
1309.608	1.346	1346.2	test	Phase2	test/STIM_016.jpg	99
1314.679	1.318	1317.5	test	Phase2	test/STIM_016.jpg	100
1319.791	0.703	702.6	test	Phase2	test/STIM_017.jpg	99
1324.222	1.03	1030.4	test	Phase2	test/STIM_017.jpg	99
1327.28	1.13	1129.6	test	Phase2	test/STIM_017.jpg	99
1331.705	1.343	1343.3	test	Phase2	test/STIM_018.jpg	100
1335.604	0.825	824.7	test	Phase2	test/STIM_018.jpg	99
1338.574	0.922	921.6	test	Phase2	test/STIM_018.jpg	99
1342.647	0.809	808.8	test	Phase2	test/STIM_019.jpg	99
1347.294	1.079	1079.4	test	Phase2	test/STIM_019.jpg	99
1350.927	0.826	826.4	test	Phase2	test/STIM_019.jpg	99
1354.519	1.326	1325.5	test	Phase2	test/STIM_020.jpg	100
1358.346	0.878	877.8	test	Phase2	test/STIM_020.jpg	99
1362.63	0.935	935.3	test	Phase2	test/STIM_020.jpg	100
1366.943	1.119	1118.6	test	Phase2	test/STIM_021.jpg	99
1370.044	1.298	1298.4	test	Phase2	test/STIM_021.jpg	99
1374.954	1.192	1191.6	test	Phase2	test/STIM_021.jpg	99
1379.867	0.67	670.4	test	Phase2	test/STIM_022.jpg	99
1382.615	0.872	871.5	test	Phase2	test/STIM_022.jpg	100
1386.594	1.093	1093.0	test	Phase2	test/STIM_022.jpg	99
1390.072	0.818	817.8	test	Phase2	test/STIM_023.jpg	99
1393.155	0.957	956.9	test	Phase2	test/STIM_023.jpg	99
1397.665	0.653	653.2	test	Phase2	test/STIM_023.jpg	99
1401.529	0.976	975.7	test	Phase2	test/STIM_024.jpg	99
1406.01	1.001	1000.6	test	Phase2	test/STIM_024.jpg	100
1409.626	0.857	856.6	test	Phase2	test/STIM_024.jpg	99
1413.831	0.881	881.2	test	Phase2	test/STIM_025.jpg	100
1416.771	0.955	955.0	test	Phase2	test/STIM_025.jpg	99
1421.471	0.973	972.6	test	Phase2	test/STIM_025.jpg	100
1425.129	0.992	991.7	test	Phase2	test/STIM_026.jpg	99
1428.813	1.211	1211.1	test	Phase2	test/STIM_026.jpg	100
1432.366	0.825	824.6	test	Phase2	test/STIM_026.jpg	100
1436.653	1.303	1303.0	test	Phase2	test/STIM_027.jpg	99
1439.906	0.779	779.0	test	Phase2	test/STIM_027.jpg	100
1443.058	0.676	676.5	test	Phase2	test/STIM_027.jpg	100
1447.475	0.777	777.2	test	Phase2	test/STIM_028.jpg	99
1452.163	1.074	1074.4	test	Phase2	test/STIM_028.jpg	100
1456.026	0.73	730.3	test	Phase2	test/STIM_028.jpg	100
1460.466	0.816	815.7	test	Phase2	test/STIM_029.jpg	99
1463.508	0.927	927.2	test	Phase2	test/STIM_029.jpg	99
1467.463	0.662	661.5	test	Phase2	test/STIM_029.jpg	99
1470.925	0.788	788.3	study	Phase3	study/STIM_000.jpg	99
1475.548	1.113	1113.4	study	Phase3	study/STIM_000.jpg	99
1479.901	0.706	705.9	study	Phase3	study/STIM_000.jpg	100
1484.49	1.315	1314.6	study	Phase3	study/STIM_001.jpg	99
1488.465	1.117	1116.8	study	Phase3	study/STIM_001.jpg	99
1493.379	0.931	931.4	study	Phase3	study/STIM_001.jpg	99
1497.027	0.901	901.3	study	Phase3	study/STIM_002.jpg	99
1500.83	1.231	1231.4	study	Phase3	study/STIM_002.jpg	99
1504.666	0.678	678.2	study	Phase3	study/STIM_002.jpg	99
1507.316	1.149	1148.7	study	Phase3	study/STIM_003.jpg	99
1510.813	0.705	705.2	study	Phase3	study/STIM_003.jpg	100
1515.477	0.702	702.2	study	Phase3	study/STIM_003.jpg	100
1519.792	0.855	855.2	study	Phase3	study/STIM_004.jpg	100
1523.181	0.833	833.2	study	Phase3	study/STIM_004.jpg	99
1526.1	1.276	1275.7	study	Phase3	study/STIM_004.jpg	100
1531.009	1.163	1162.8	study	Phase3	study/STIM_005.jpg	100
1535.517	1.226	1226.1	study	Phase3	study/STIM_005.jpg	100
1540.213	1.238	1238.0	study	Phase3	study/STIM_005.jpg	99
1545.079	0.814	814.5	study	Phase3	study/STIM_006.jpg	100
1549.067	0.699	698.7	study	Phase3	study/STIM_006.jpg	99
1553.714	1.178	1178.0	study	Phase3	study/STIM_006.jpg	99
1557.059	0.885	885.0	study	Phase3	study/STIM_007.jpg	99
1561.844	0.944	944.4	study	Phase3	study/STIM_007.jpg	99
1565.913	1.085	1084.8	study	Phase3	study/STIM_007.jpg	99
1569.278	1.2	1199.7	study	Phase3	study/STIM_008.jpg	100
1572.488	1.23	1230.1	study	Phase3	study/STIM_008.jpg	100
1577.091	1.077	1077.1	study	Phase3	study/STIM_008.jpg	99
1581.883	0.865	864.7	study	Phase3	study/STIM_009.jpg	99
1585.778	0.938	937.6	study	Phase3	study/STIM_009.jpg	99
1589.236	0.877	876.6	study	Phase3	study/STIM_009.jpg	100
1592.858	1.291	1291.0	study	Phase3	study/STIM_010.jpg	99
1597.714	1.254	1254.5	study	Phase3	study/STIM_010.jpg	100
1602.503	0.737	737.0	study	Phase3	study/STIM_010.jpg	99
1605.81	0.963	963.0	study	Phase3	study/STIM_011.jpg	99
1610.641	1.088	1087.8	study	Phase3	study/STIM_011.jpg	99
1614.141	0.711	710.8	study	Phase3	study/STIM_011.jpg	100
1617.77	1.257	1257.2	study	Phase3	study/STIM_012.jpg	99
1621.95	0.955	955.1	study	Phase3	study/STIM_012.jpg	99
1626.301	0.994	993.7	study	Phase3	study/STIM_012.jpg	100
1630.636	1.276	1275.5	study	Phase3	study/STIM_013.jpg	99
1633.968	0.746	746.2	study	Phase3	study/STIM_013.jpg	99
1637.371	0.632	632.2	study	Phase3	study/STIM_013.jpg	99
1641.653	0.635	635.2	study	Phase3	study/STIM_014.jpg	99
1646.216	0.631	631.0	study	Phase3	study/STIM_014.jpg	100
1649.695	0.722	722.3	study	Phase3	study/STIM_014.jpg	99
1654.08	0.865	865.3	study	Phase3	study/STIM_015.jpg	100
1658.124	1.248	1248.3	study	Phase3	study/STIM_015.jpg	100
1662.603	1.169	1169.2	study	Phase3	study/STIM_015.jpg	100
1666.677	0.879	879.1	study	Phase3	study/STIM_016.jpg	99
1669.998	0.962	962.3	study	Phase3	study/STIM_016.jpg	99
1672.944	1.281	1281.4	study	Phase3	study/STIM_016.jpg	100
1677.821	0.731	730.6	study	Phase3	study/STIM_017.jpg	100
1680.673	0.93	929.6	study	Phase3	study/STIM_017.jpg	100
1684.872	0.767	767.0	study	Phase3	study/STIM_017.jpg	99
1688.307	1.047	1046.6	study	Phase3	study/STIM_018.jpg	100
1692.968	0.968	967.5	study	Phase3	study/STIM_018.jpg	100
1697.179	1.316	1316.5	study	Phase3	study/STIM_018.jpg	100
1701.872	0.957	957.4	study	Phase3	study/STIM_019.jpg	100
1704.955	0.769	768.7	study	Phase3	study/STIM_019.jpg	99
1709.346	0.699	698.8	study	Phase3	study/STIM_019.jpg	99
1712.962	0.968	967.7	study	Phase3	study/STIM_020.jpg	99
1717.814	0.639	638.7	study	Phase3	study/STIM_020.jpg	99
1721.681	1.07	1069.7	study	Phase3	study/STIM_020.jpg	99
1726.428	0.84	840.5	study	Phase3	study/STIM_021.jpg	100
1729.305	0.695	694.8	study	Phase3	study/STIM_021.jpg	100
1732.58	1.081	1081.1	study	Phase3	study/STIM_021.jpg	99
1737.371	0.968	968.0	study	Phase3	study/STIM_022.jpg	100
1741.723	0.692	691.5	study	Phase3	study/STIM_022.jpg	100
1746.134	1.089	1088.6	study	Phase3	study/STIM_022.jpg	100
1751.077	0.935	935.3	study	Phase3	study/STIM_023.jpg	99
1755.269	0.677	677.3	study	Phase3	study/STIM_023.jpg	100
1758.13	1.229	1228.7	study	Phase3	study/STIM_023.jpg	100
1762.067	1.108	1108.4	study	Phase3	study/STIM_024.jpg	99
1765.213	0.715	714.7	study	Phase3	study/STIM_024.jpg	99
1768.283	1.156	1156.3	study	Phase3	study/STIM_024.jpg	100
1772.801	0.704	704.0	study	Phase3	study/STIM_025.jpg	99
1776.197	1.327	1327.0	study	Phase3	study/STIM_025.jpg	100
1780.085	0.7	699.9	study	Phase3	study/STIM_025.jpg	99
1784.508	0.684	684.3	study	Phase3	study/STIM_026.jpg	100
1788.254	1.085	1085.1	study	Phase3	study/STIM_026.jpg	99
1792.361	0.959	959.2	study	Phase3	study/STIM_026.jpg	100
1796.098	0.652	651.9	study	Phase3	study/STIM_027.jpg	100
1798.783	1.038	1038.4	study	Phase3	study/STIM_027.jpg	100
1802.373	0.85	849.9	study	Phase3	study/STIM_027.jpg	99
1806.157	0.909	908.6	study	Phase3	study/STIM_028.jpg	100
1809.663	1.074	1074.2	study	Phase3	study/STIM_028.jpg	100
1813.311	1.264	1263.5	study	Phase3	study/STIM_028.jpg	99
1816.794	1.17	1170.0	study	Phase3	study/STIM_029.jpg	99
1820.44	0.854	854.0	study	Phase3	study/STIM_029.jpg	100
1824.714	0.74	740.3	study	Phase3	study/STIM_029.jpg	99
1827.996	1.272	1271.8	test	Phase3	test/STIM_000.jpg	100
1831.754	1.079	1078.7	test	Phase3	test/STIM_000.jpg	99
1834.917	1.058	1058.0	test	Phase3	test/STIM_000.jpg	100
1838.641	1.176	1176.5	test	Phase3	test/STIM_001.jpg	100
1843.238	1.341	1340.7	test	Phase3	test/STIM_001.jpg	99
1848.369	0.808	807.5	test	Phase3	test/STIM_001.jpg	99
1851.887	1.172	1172.2	test	Phase3	test/STIM_002.jpg	100
1855.352	0.733	732.7	test	Phase3	test/STIM_002.jpg	100
1858.416	1.21	1210.5	test	Phase3	test/STIM_002.jpg	100
1862.301	0.788	788.4	test	Phase3	test/STIM_003.jpg	99
1866.805	1.269	1268.9	test	Phase3	test/STIM_003.jpg	100
1871.617	1.106	1105.6	test	Phase3	test/STIM_003.jpg	100
1875.241	0.641	640.7	test	Phase3	test/STIM_004.jpg	99
1878.718	1.283	1283.2	test	Phase3	test/STIM_004.jpg	99
1882.604	0.652	651.7	test	Phase3	test/STIM_004.jpg	99
1886.197	1.122	1122.0	test	Phase3	test/STIM_005.jpg	100
1889.95	1.324	1324.2	test	Phase3	test/STIM_005.jpg	100
1894.346	1.077	1076.8	test	Phase3	test/STIM_005.jpg	100
1898.748	0.898	898.4	test	Phase3	test/STIM_006.jpg	100
1903.381	1.246	1246.1	test	Phase3	test/STIM_006.jpg	99
1906.689	1.14	1140.0	test	Phase3	test/STIM_006.jpg	100
1910.963	0.959	959.3	test	Phase3	test/STIM_007.jpg	99
1914.778	0.794	794.5	test	Phase3	test/STIM_007.jpg	99
1918.125	1.081	1080.7	test	Phase3	test/STIM_007.jpg	99
1921.247	1.024	1023.9	test	Phase3	test/STIM_008.jpg	99
1926.135	1.243	1242.9	test	Phase3	test/STIM_008.jpg	99
1930.527	1.123	1122.9	test	Phase3	test/STIM_008.jpg	99
1935.403	1.067	1067.0	test	Phase3	test/STIM_009.jpg	99
1939.695	0.811	810.6	test	Phase3	test/STIM_009.jpg	99
1943.677	0.845	844.9	test	Phase3	test/STIM_009.jpg	99
1948.115	0.744	744.5	test	Phase3	test/STIM_010.jpg	100
1950.987	1.354	1354.2	test	Phase3	test/STIM_010.jpg	99
1956.111	1.36	1359.8	test	Phase3	test/STIM_010.jpg	99
1960.468	1.154	1154.2	test	Phase3	test/STIM_011.jpg	99
1964.592	0.948	948.1	test	Phase3	test/STIM_011.jpg	100
1968.582	1.167	1167.2	test	Phase3	test/STIM_011.jpg	100
1973.67	0.842	842.1	test	Phase3	test/STIM_012.jpg	100
1977.836	1.143	1143.3	test	Phase3	test/STIM_012.jpg	100
1982.686	0.805	804.6	test	Phase3	test/STIM_012.jpg	99
1986.455	1.002	1001.5	test	Phase3	test/STIM_013.jpg	99
1990.452	0.707	706.9	test	Phase3	test/STIM_013.jpg	100
1993.14	0.934	933.5	test	Phase3	test/STIM_013.jpg	99
1997.624	0.679	678.8	test	Phase3	test/STIM_014.jpg	99
2001.72	1.214	1213.7	test	Phase3	test/STIM_014.jpg	100
2004.998	1.12	1120.4	test	Phase3	test/STIM_014.jpg	100
2009.242	1.14	1139.6	test	Phase3	test/STIM_015.jpg	99
2013.25	0.809	809.0	test	Phase3	test/STIM_015.jpg	99
2017.876	1.019	1019.0	test	Phase3	test/STIM_015.jpg	99
2020.995	0.925	924.9	test	Phase3	test/STIM_016.jpg	100
2025.277	1.348	1347.8	test	Phase3	test/STIM_016.jpg	100
2029.324	1.128	1128.4	test	Phase3	test/STIM_016.jpg	99
2032.47	0.842	842.3	test	Phase3	test/STIM_017.jpg	100
2036.541	1.261	1260.9	test	Phase3	test/STIM_017.jpg	100
2040.519	0.854	854.2	test	Phase3	test/STIM_017.jpg	100
2043.577	0.776	775.8	test	Phase3	test/STIM_018.jpg	99
2046.596	1.262	1262.1	test	Phase3	test/STIM_018.jpg	99
2050.753	1.155	1155.0	test	Phase3	test/STIM_018.jpg	100
2054.741	0.795	795.1	test	Phase3	test/STIM_019.jpg	100
2057.564	1.072	1071.6	test	Phase3	test/STIM_019.jpg	99
2062.147	0.809	809.3	test	Phase3	test/STIM_019.jpg	99
2065.035	0.843	843.1	test	Phase3	test/STIM_020.jpg	99
2067.98	0.76	760.2	test	Phase3	test/STIM_020.jpg	99
2071.632	1.335	1335.3	test	Phase3	test/STIM_020.jpg	99
2076.233	1.203	1203.0	test	Phase3	test/STIM_021.jpg	99
2080.889	0.76	760.5	test	Phase3	test/STIM_021.jpg	99
2085.389	1.059	1059.2	test	Phase3	test/STIM_021.jpg	100
2088.417	1.087	1087.1	test	Phase3	test/STIM_022.jpg	100
2091.85	1.374	1374.4	test	Phase3	test/STIM_022.jpg	99
2096.287	0.992	992.4	test	Phase3	test/STIM_022.jpg	100
2100.202	0.886	885.7	test	Phase3	test/STIM_023.jpg	99
2104.174	0.669	668.8	test	Phase3	test/STIM_023.jpg	100
2107.808	0.661	661.2	test	Phase3	test/STIM_023.jpg	99
2111.399	0.72	720.3	test	Phase3	test/STIM_024.jpg	100
2115.08	1.283	1283.4	test	Phase3	test/STIM_024.jpg	100
2120.098	1.198	1197.6	test	Phase3	test/STIM_024.jpg	100
2124.472	1.177	1177.3	test	Phase3	test/STIM_025.jpg	99
2128.428	0.798	798.3	test	Phase3	test/STIM_025.jpg	100
2132.569	0.833	833.2	test	Phase3	test/STIM_025.jpg	99
2135.728	0.681	680.7	test	Phase3	test/STIM_026.jpg	100
2140.188	0.749	749.3	test	Phase3	test/STIM_026.jpg	100
2143.689	1.063	1063.0	test	Phase3	test/STIM_026.jpg	99
2148.084	1.086	1086.2	test	Phase3	test/STIM_027.jpg	99
2151.868	0.906	905.7	test	Phase3	test/STIM_027.jpg	99
2154.811	1.216	1216.5	test	Phase3	test/STIM_027.jpg	99
2159.427	0.863	863.3	test	Phase3	test/STIM_028.jpg	99
2163.851	0.713	713.2	test	Phase3	test/STIM_028.jpg	100
2167.594	1.14	1140.5	test	Phase3	test/STIM_028.jpg	100
2172.028	1.298	1298.4	test	Phase3	test/STIM_029.jpg	100
2176.893	1.065	1065.4	test	Phase3	test/STIM_029.jpg	100
2181.569	0.803	802.8	test	Phase3	test/STIM_029.jpg	100
