onset	duration	response_time_ms	trial_type	learning_stage	stimulus	response_port
0.0	1.132	1132.3	generate	Run1	generate/STIM_000.jpg	100
5.017	1.748	1747.7	generate	Run1	generate/STIM_000.jpg	99
8.793	2.008	2007.9	generate	Run1	generate/STIM_000.jpg	99
13.189	1.705	1705.4	generate	Run1	generate/STIM_000.jpg	99
18.585	1.324	1323.6	generate	Run1	generate/STIM_000.jpg	100
23.304	2.492	2491.8	generate	Run1	generate/STIM_001.jpg	100
29.051	2.568	2568.2	generate	Run1	generate/STIM_001.jpg	99
33.746	1.032	1032.2	generate	Run1	generate/STIM_001.jpg	99
37.894	0.977	976.8	generate	Run1	generate/STIM_001.jpg	100
42.191	1.374	1374.0	generate	Run1	generate/STIM_001.jpg	100
47.292	1.573	1573.2	generate	Run1	generate/STIM_002.jpg	99
52.353	2.54	2540.1	generate	Run1	generate/STIM_002.jpg	99
58.24	2.361	2361.0	generate	Run1	generate/STIM_002.jpg	100
63.408	1.258	1257.7	generate	Run1	generate/STIM_002.jpg	100
68.1	1.647	1647.4	generate	Run1	generate/STIM_002.jpg	100
73.179	1.725	1725.4	generate	Run1	generate/STIM_003.jpg	99
78.212	2.367	2367.4	generate	Run1	generate/STIM_003.jpg	99
82.646	1.871	1871.4	generate	Run1	generate/STIM_003.jpg	100
87.818	1.84	1840.4	generate	Run1	generate/STIM_003.jpg	99
92.081	1.68	1680.4	generate	Run1	generate/STIM_003.jpg	99
97.163	1.705	1705.3	generate	Run1	generate/STIM_004.jpg	99
102.384	1.377	1377.1	generate	Run1	generate/STIM_004.jpg	100
107.486	1.137	1137.1	generate	Run1	generate/STIM_004.jpg	100
112.524	1.182	1181.9	generate	Run1	generate/STIM_004.jpg	100
116.443	0.93	929.9	generate	Run1	generate/STIM_004.jpg	99
120.713	2.576	2576.2	generate	Run1	generate/STIM_005.jpg	99
127.139	2.519	2519.2	generate	Run1	generate/STIM_005.jpg	100
132.237	1.04	1040.3	generate	Run1	generate/STIM_005.jpg	100
136.504	1.024	1023.9	generate	Run1	generate/STIM_005.jpg	99
141.279	2.128	2128.1	generate	Run1	generate/STIM_005.jpg	100
146.436	1.429	1428.7	generate	Run1	generate/STIM_006.jpg	99
150.375	1.771	1771.0	generate	Run1	generate/STIM_006.jpg	100
155.479	1.139	1139.3	generate	Run1	generate/STIM_006.jpg	100
159.795	2.118	2118.3	generate	Run1	generate/STIM_006.jpg	100
165.863	1.874	1873.8	generate	Run1	generate/STIM_006.jpg	100
170.427	1.993	1993.2	generate	Run1	generate/STIM_007.jpg	99
174.59	1.829	1828.8	generate	Run1	generate/STIM_007.jpg	100
180.17	1.944	1944.5	generate	Run1	generate/STIM_007.jpg	100
185.668	1.072	1071.5	generate	Run1	generate/STIM_007.jpg	100
190.726	1.121	1121.0	generate	Run1	generate/STIM_007.jpg	99
194.878	2.474	2473.5	generate	Run1	generate/STIM_008.jpg	99
200.701	1.138	1138.4	generate	Run1	generate/STIM_008.jpg	100
204.758	2.408	2407.9	generate	Run1	generate/STIM_008.jpg	99
210.364	1.25	1250.3	generate	Run1	generate/STIM_008.jpg	99
214.009	1.7	1700.5	generate	Run1	generate/STIM_008.jpg	100
218.102	1.365	1365.3	generate	Run1	generate/STIM_009.jpg	100
222.462	1.107	1106.8	generate	Run1	generate/STIM_009.jpg	100
227.289	1.93	1930.5	generate	Run1	generate/STIM_009.jpg	99
232.584	2.003	2002.9	generate	Run1	generate/STIM_009.jpg	99
237.45	1.424	1423.6	generate	Run1	generate/STIM_009.jpg	100
242.172	1.803	1802.9	generate	Run1	generate/STIM_010.jpg	100
247.581	2.109	2109.3	generate	Run1	generate/STIM_010.jpg	100
253.062	1.799	1799.0	generate	Run1	generate/STIM_010.jpg	100
258.685	2.235	2234.6	generate	Run1	generate/STIM_010.jpg	100
263.346	1.098	1098.4	generate	Run1	generate/STIM_010.jpg	99
267.663	1.168	1167.7	generate	Run1	generate/STIM_011.jpg	100
272.627	1.561	1561.0	generate	Run1	generate/STIM_011.jpg	99
276.748	1.951	1951.2	generate	Run1	generate/STIM_011.jpg	100
280.866	1.448	1448.5	generate	Run1	generate/STIM_011.jpg	100
286.132	0.923	923.0	generate	Run1	generate/STIM_011.jpg	99
290.229	2.166	2165.8	generate	Run1	generate/STIM_012.jpg	100
295.965	2.133	2132.9	generate	Run1	generate/STIM_012.jpg	99
300.919	1.031	1030.6	generate	Run1	generate/STIM_012.jpg	100
305.421	2.13	2129.6	generate	Run1	generate/STIM_012.jpg	99
310.026	1.994	1994.0	generate	Run1	generate/STIM_012.jpg	100
315.589	2.609	2609.3	generate	Run1	generate/STIM_013.jpg	100
321.924	1.486	1486.0	generate	Run1	generate/STIM_013.jpg	99
326.403	1.014	1013.7	generate	Run1	generate/STIM_013.jpg	100
331.311	1.198	1198.4	generate	Run1	generate/STIM_013.jpg	99
336.055	1.365	1365.0	generate	Run1	generate/STIM_013.jpg	99
340.093	2.732	2731.8	generate	Run1	generate/STIM_014.jpg	99
346.581	1.224	1224.5	generate	Run1	generate/STIM_014.jpg	100
350.959	1.234	1234.5	generate	Run1	generate/STIM_014.jpg	100
354.323	2.106	2106.5	generate	Run1	generate/STIM_014.jpg	100
359.237	1.918	1917.8	generate	Run1	generate/STIM_014.jpg	100
363.98	2.411	2410.8	generate	Run1	generate/STIM_015.jpg	99
368.535	1.505	1504.6	generate	Run1	generate/STIM_015.jpg	99
373.845	2.412	2411.9	generate	Run1	generate/STIM_015.jpg	99
380.136	1.85	1849.7	generate	Run1	generate/STIM_015.jpg	100
385.871	1.383	1383.1	generate	Run1	generate/STIM_015.jpg	99
390.735	1.449	1448.9	generate	Run1	generate/STIM_016.jpg	100
395.141	1.817	1817.0	generate	Run1	generate/STIM_016.jpg	99
400.615	1.815	1815.3	generate	Run1	generate/STIM_016.jpg	99
404.859	1.758	1757.5	generate	Run1	generate/STIM_016.jpg	100
409.444	0.911	911.3	generate	Run1	generate/STIM_016.jpg	99
413.93	1.373	1373.3	generate	Run1	generate/STIM_017.jpg	100
418.833	1.072	1072.0	generate	Run1	generate/STIM_017.jpg	100
423.287	1.068	1068.0	generate	Run1	generate/STIM_017.jpg	100
427.355	1.247	1247.3	generate	Run1	generate/STIM_017.jpg	100
430.915	1.344	1343.5	generate	Run1	generate/STIM_017.jpg	100
434.389	1.555	1555.3	generate	Run1	generate/STIM_018.jpg	100
439.347	1.613	1613.2	generate	Run1	generate/STIM_018.jpg	100
443.344	1.307	1307.4	generate	Run1	generate/STIM_018.jpg	99
448.45	2.004	2004.1	generate	Run1	generate/STIM_018.jpg	99
453.252	1.808	1807.9	generate	Run1	generate/STIM_018.jpg	100
458.742	1.839	1838.7	generate	Run1	generate/STIM_019.jpg	100
462.828	2.591	2591.1	generate	Run1	generate/STIM_019.jpg	100
468.527	1.0	1000.0	generate	Run1	generate/STIM_019.jpg	99
472.276	1.525	1525.4	generate	Run1	generate/STIM_019.jpg	100
477.709	1.1	1100.2	generate	Run1	generate/STIM_019.jpg	100
481.224	1.728	1727.5	generate	Run1	generate/STIM_020.jpg	99
486.736	1.167	1167.0	generate	Run1	generate/STIM_020.jpg	99
491.742	1.282	1281.9	generate	Run1	generate/STIM_020.jpg	100
496.467	1.584	1583.5	generate	Run1	generate/STIM_020.jpg	100
501.888	1.324	1324.4	generate	Run1	generate/STIM_020.jpg	99
505.996	1.426	1425.8	generate	Run1	generate/STIM_021.jpg	99
510.916	2.361	2360.8	generate	Run1	generate/STIM_021.jpg	99
515.313	1.793	1793.1	generate	Run1	generate/STIM_021.jpg	100
520.934	1.683	1683.3	generate	Run1	generate/STIM_021.jpg	99
525.552	2.003	2002.9	generate	Run1	generate/STIM_021.jpg	100
531.421	1.623	1622.8	generate	Run1	generate/STIM_022.jpg	99
535.427	2.313	2313.4	generate	Run1	generate/STIM_022.jpg	99
540.564	1.567	1567.3	generate	Run1	generate/STIM_022.jpg	100
544.662	2.33	2329.8	generate	Run1	generate/STIM_022.jpg	100
550.846	1.783	1782.6	generate	Run1	generate/STIM_022.jpg	100
555.586	1.3	1299.8	generate	Run1	generate/STIM_023.jpg	99
560.866	2.363	2362.6	generate	Run1	generate/STIM_023.jpg	99
565.489	1.697	1697.0	generate	Run1	generate/STIM_023.jpg	100
570.532	1.461	1460.7	generate	Run1	generate/STIM_023.jpg	100
575.386	1.872	1872.5	generate	Run1	generate/STIM_023.jpg	100
580.424	2.502	2502.2	generate	Run1	generate/STIM_024.jpg	99
586.497	1.356	1355.5	generate	Run1	generate/STIM_024.jpg	99
590.99	2.003	2003.0	generate	Run1	generate/STIM_024.jpg	100
596.654	1.367	1367.3	generate	Run1	generate/STIM_024.jpg	99
601.976	1.38	1380.1	generate	Run1	generate/STIM_024.jpg	100
605.426	0.666	666.2	repeat	Run1	repeat/STIM_000.jpg	100
608.747	0.686	686.3	repeat	Run1	repeat/STIM_000.jpg	99
611.656	0.721	721.4	repeat	Run1	repeat/STIM_000.jpg	99
615.286	0.698	698.1	repeat	Run1	repeat/STIM_000.jpg	99
619.273	0.888	887.9	repeat	Run1	repeat/STIM_000.jpg	100
622.686	0.716	715.5	repeat	Run1	repeat/STIM_001.jpg	99
627.265	0.517	516.7	repeat	Run1	repeat/STIM_001.jpg	99
630.042	0.761	761.3	repeat	Run1	repeat/STIM_001.jpg	100
633.219	0.576	575.5	repeat	Run1	repeat/STIM_001.jpg	99
636.953	0.801	801.3	repeat	Run1	repeat/STIM_001.jpg	99
640.183	0.86	860.5	repeat	Run1	repeat/STIM_002.jpg	99
643.321	0.656	655.5	repeat	Run1	repeat/STIM_002.jpg	99
646.691	0.886	886.2	repeat	Run1	repeat/STIM_002.jpg	100
651.196	0.592	591.7	repeat	Run1	repeat/STIM_002.jpg	100
654.493	0.743	742.8	repeat	Run1	repeat/STIM_002.jpg	99
658.584	0.694	693.7	repeat	Run1	repeat/STIM_003.jpg	99
661.715	0.602	602.4	repeat	Run1	repeat/STIM_003.jpg	99
666.149	0.776	775.7	repeat	Run1	repeat/STIM_003.jpg	100
669.168	0.526	525.5	repeat	Run1	repeat/STIM_003.jpg	99
671.925	0.821	821.2	repeat	Run1	repeat/STIM_003.jpg	99
675.1	0.814	814.3	repeat	Run1	repeat/STIM_004.jpg	100
678.343	0.517	516.7	repeat	Run1	repeat/STIM_004.jpg	100
682.476	0.532	532.1	repeat	Run1	repeat/STIM_004.jpg	99
685.722	0.554	553.8	repeat	Run1	repeat/STIM_004.jpg	100
689.252	0.87	869.8	repeat	Run1	repeat/STIM_004.jpg	100
693.87	0.845	845.3	repeat	Run1	repeat/STIM_005.jpg	100
697.178	0.713	713.4	repeat	Run1	repeat/STIM_005.jpg	99
700.158	0.525	525.4	repeat	Run1	repeat/STIM_005.jpg	100
703.454	0.501	500.6	repeat	Run1	repeat/STIM_005.jpg	100
707.505	0.503	502.8	repeat	Run1	repeat/STIM_005.jpg	100
711.828	0.839	839.1	repeat	Run1	repeat/STIM_006.jpg	99
714.877	0.912	912.1	repeat	Run1	repeat/STIM_006.jpg	100
718.414	0.461	460.7	repeat	Run1	repeat/STIM_006.jpg	100
722.846	0.501	501.2	repeat	Run1	repeat/STIM_006.jpg	100
726.079	0.52	520.0	repeat	Run1	repeat/STIM_006.jpg	99
730.051	0.822	822.5	repeat	Run1	repeat/STIM_007.jpg	99
734.794	0.495	495.3	repeat	Run1	repeat/STIM_007.jpg	100
739.1	0.67	669.5	repeat	Run1	repeat/STIM_007.jpg	100
742.994	0.63	630.4	repeat	Run1	repeat/STIM_007.jpg	100
746.758	0.821	821.0	repeat	Run1	repeat/STIM_007.jpg	100
750.674	0.793	793.1	repeat	Run1	repeat/STIM_008.jpg	99
754.522	0.8	800.5	repeat	Run1	repeat/STIM_008.jpg	99
758.148	0.772	772.4	repeat	Run1	repeat/STIM_008.jpg	100
761.51	0.472	471.6	repeat	Run1	repeat/STIM_008.jpg	99
764.134	0.788	787.6	repeat	Run1	repeat/STIM_008.jpg	99
768.875	0.505	504.8	repeat	Run1	repeat/STIM_009.jpg	99
771.907	0.685	684.9	repeat	Run1	repeat/STIM_009.jpg	99
775.508	0.845	845.3	repeat	Run1	repeat/STIM_009.jpg	100
779.395	0.825	824.8	repeat	Run1	repeat/STIM_009.jpg	100
784.202	0.782	782.5	repeat	Run1	repeat/STIM_009.jpg	99
788.119	0.636	636.2	repeat	Run1	repeat/STIM_010.jpg	99
792.058	0.694	694.2	repeat	Run1	repeat/STIM_010.jpg	99
796.33	0.516	515.5	repeat	Run1	repeat/STIM_010.jpg	100
799.139	0.566	566.2	repeat	Run1	repeat/STIM_010.jpg	100
801.84	0.721	721.2	repeat	Run1	repeat/STIM_010.jpg	99
805.937	0.906	906.5	repeat	Run1	repeat/STIM_011.jpg	99
810.843	0.919	918.6	repeat	Run1	repeat/STIM_011.jpg	100
814.22	0.729	729.1	repeat	Run1	repeat/STIM_011.jpg	99
818.635	0.471	470.7	repeat	Run1	repeat/STIM_011.jpg	100
822.166	0.518	517.5	repeat	Run1	repeat/STIM_011.jpg	99
825.509	0.462	462.0	repeat	Run1	repeat/STIM_012.jpg	99
828.662	0.772	772.1	repeat	Run1	repeat/STIM_012.jpg	100
832.722	0.62	620.2	repeat	Run1	repeat/STIM_012.jpg	100
836.196	0.875	875.4	repeat	Run1	repeat/STIM_012.jpg	100
839.278	0.665	665.1	repeat	Run1	repeat/STIM_012.jpg	100
842.832	0.633	633.2	repeat	Run1	repeat/STIM_013.jpg	99
847.297	0.588	587.8	repeat	Run1	repeat/STIM_013.jpg	100
851.653	0.686	686.0	repeat	Run1	repeat/STIM_013.jpg	100
855.401	0.764	764.1	repeat	Run1	repeat/STIM_013.jpg	99
859.667	0.876	876.1	repeat	Run1	repeat/STIM_013.jpg	99
863.542	0.598	598.2	repeat	Run1	repeat/STIM_014.jpg	100
866.492	0.763	762.9	repeat	Run1	repeat/STIM_014.jpg	100
870.418	0.688	687.8	repeat	Run1	repeat/STIM_014.jpg	100
874.344	0.709	709.3	repeat	Run1	repeat/STIM_014.jpg	100
878.708	0.679	678.6	repeat	Run1	repeat/STIM_014.jpg	99
882.114	1.679	1679.2	generate	Run2	generate/STIM_000.jpg	100
887.001	1.238	1237.8	generate	Run2	generate/STIM_000.jpg	99
890.332	2.065	2064.6	generate	Run2	generate/STIM_000.jpg	100
895.432	1.111	1111.1	generate	Run2	generate/STIM_000.jpg	99
899.638	1.107	1106.7	generate	Run2	generate/STIM_000.jpg	99
902.771	1.492	1491.6	generate	Run2	generate/STIM_001.jpg	99
907.684	1.537	1537.4	generate	Run2	generate/STIM_001.jpg	99
911.231	1.476	1475.6	generate	Run2	generate/STIM_001.jpg	99
915.148	1.111	1110.6	generate	Run2	generate/STIM_001.jpg	100
918.45	1.456	1456.1	generate	Run2	generate/STIM_001.jpg	99
921.926	1.224	1223.9	generate	Run2	generate/STIM_002.jpg	99
925.977	1.105	1104.8	generate	Run2	generate/STIM_002.jpg	99
931.067	1.698	1698.5	generate	Run2	generate/STIM_002.jpg	99
936.182	0.776	776.3	generate	Run2	generate/STIM_002.jpg	100
940.157	1.445	1445.3	generate	Run2	generate/STIM_002.jpg	99
943.977	1.991	1990.7	generate	Run2	generate/STIM_003.jpg	100
949.031	1.037	1037.3	generate	Run2	generate/STIM_003.jpg	100
953.13	1.283	1282.7	generate	Run2	generate/STIM_003.jpg	99
957.084	1.691	1690.6	generate	Run2	generate/STIM_003.jpg	100
962.487	1.911	1911.2	generate	Run2	generate/STIM_003.jpg	99
966.801	1.528	1528.1	generate	Run2	generate/STIM_004.jpg	99
971.031	1.075	1075.1	generate	Run2	generate/STIM_004.jpg	99
975.3	1.723	1722.7	generate	Run2	generate/STIM_004.jpg	100
980.131	1.258	1258.3	generate	Run2	generate/STIM_004.jpg	100
984.328	0.819	818.7	generate	Run2	generate/STIM_004.jpg	99
988.463	1.442	1442.1	generate	Run2	generate/STIM_005.jpg	100
992.812	1.194	1193.9	generate	Run2	generate/STIM_005.jpg	100
996.975	1.7	1700.3	generate	Run2	generate/STIM_005.jpg	99
1002.352	1.756	1755.7	generate	Run2	generate/STIM_005.jpg	100
1007.361	1.635	1634.9	generate	Run2	generate/STIM_005.jpg	99
1011.077	2.159	2159.0	generate	Run2	generate/STIM_006.jpg	99
1015.345	1.279	1278.9	generate	Run2	generate/STIM_006.jpg	100
1020.219	1.79	1789.9	generate	Run2	generate/STIM_006.jpg	99
1025.517	1.178	1177.8	generate	Run2	generate/STIM_006.jpg	99
1029.22	0.913	913.1	generate	Run2	generate/STIM_006.jpg	100
1032.301	1.997	1996.7	generate	Run2	generate/STIM_007.jpg	100
1037.826	1.233	1233.1	generate	Run2	generate/STIM_007.jpg	99
1042.532	1.536	1535.5	generate	Run2	generate/STIM_007.jpg	100
1047.527	1.581	1580.6	generate	Run2	generate/STIM_007.jpg	100
1052.617	1.696	1696.2	generate	Run2	generate/STIM_007.jpg	100
1057.587	1.976	1975.9	generate	Run2	generate/STIM_008.jpg	100
1062.389	1.114	1113.8	generate	Run2	generate/STIM_008.jpg	100
1065.834	1.325	1324.8	generate	Run2	generate/STIM_008.jpg	99
1070.335	1.646	1645.5	generate	Run2	generate/STIM_008.jpg	99
1074.736	0.883	882.6	generate	Run2	generate/STIM_008.jpg	100
1078.455	1.065	1064.7	generate	Run2	generate/STIM_009.jpg	100
1082.28	2.193	2192.9	generate	Run2	generate/STIM_009.jpg	100
1087.323	1.339	1339.3	generate	Run2	generate/STIM_009.jpg	99
1091.023	1.896	1895.5	generate	Run2	generate/STIM_009.jpg	99
1096.402	1.545	1544.8	generate	Run2	generate/STIM_009.jpg	100
1101.396	1.482	1482.3	generate	Run2	generate/STIM_010.jpg	100
1105.006	1.777	1777.1	generate	Run2	generate/STIM_010.jpg	100
1108.822	1.803	1802.8	generate	Run2	generate/STIM_010.jpg	100
1114.099	0.932	932.0	generate	Run2	generate/STIM_010.jpg	99
1118.808	1.642	1641.8	generate	Run2	generate/STIM_010.jpg	99
1123.044	1.313	1313.0	generate	Run2	generate/STIM_011.jpg	100
1126.667	0.957	957.4	generate	Run2	generate/STIM_011.jpg	99
1130.132	1.778	1778.2	generate	Run2	generate/STIM_011.jpg	99
1134.717	0.912	912.2	generate	Run2	generate/STIM_011.jpg	100
1138.347	0.852	851.6	generate	Run2	generate/STIM_011.jpg	100
1141.305	1.644	1643.8	generate	Run2	generate/STIM_012.jpg	100
1145.256	1.571	1571.4	generate	Run2	generate/STIM_012.jpg	100
1149.611	1.814	1813.8	generate	Run2	generate/STIM_012.jpg	99
1153.839	1.862	1861.5	generate	Run2	generate/STIM_012.jpg	100
1159.408	1.763	1763.0	generate	Run2	generate/STIM_012.jpg	99
1164.156	1.794	1794.1	generate	Run2	generate/STIM_013.jpg	99
1168.814	1.877	1876.6	generate	Run2	generate/STIM_013.jpg	99
1174.246	1.837	1837.1	generate	Run2	generate/STIM_013.jpg	100
1179.173	0.846	846.0	generate	Run2	generate/STIM_013.jpg	99
1182.811	1.615	1615.4	generate	Run2	generate/STIM_013.jpg	99
1186.892	1.077	1076.9	generate	Run2	generate/STIM_014.jpg	100
1191.601	1.797	1796.9	generate	Run2	generate/STIM_014.jpg	99
1196.617	1.407	1407.0	generate	Run2	generate/STIM_014.jpg	99
1200.06	1.748	1748.5	generate	Run2	generate/STIM_014.jpg	100
1205.299	1.306	1305.6	generate	Run2	generate/STIM_014.jpg	100
1209.641	1.611	1610.9	generate	Run2	generate/STIM_015.jpg	99
1213.425	0.901	901.4	generate	Run2	generate/STIM_015.jpg	100
1217.126	1.918	1917.6	generate	Run2	generate/STIM_015.jpg	99
1221.567	1.369	1369.1	generate	Run2	generate/STIM_015.jpg	100
1226.568	1.76	1760.2	generate	Run2	generate/STIM_015.jpg	99
1231.456	2.14	2140.5	generate	Run2	generate/STIM_016.jpg	99
1236.798	1.429	1429.2	generate	Run2	generate/STIM_016.jpg	100
1240.962	0.867	866.7	generate	Run2	generate/STIM_016.jpg	100
1244.936	1.88	1880.3	generate	Run2	generate/STIM_016.jpg	100
1250.263	1.818	1818.0	generate	Run2	generate/STIM_016.jpg	100
1255.259	1.624	1623.5	generate	Run2	generate/STIM_017.jpg	99
1260.73	2.144	2144.1	generate	Run2	generate/STIM_017.jpg	99
1266.584	1.147	1147.4	generate	Run2	generate/STIM_017.jpg	100
1270.592	0.835	835.0	generate	Run2	generate/STIM_017.jpg	99
1274.855	1.096	1096.0	generate	Run2	generate/STIM_017.jpg	100
1278.794	1.513	1513.3	generate	Run2	generate/STIM_018.jpg	99
1284.005	1.373	1372.9	generate	Run2	generate/STIM_018.jpg	99
1287.851	2.051	2051.3	generate	Run2	generate/STIM_018.jpg	100
1292.942	0.824	824.2	generate	Run2	generate/STIM_018.jpg	99
1295.855	1.516	1515.7	generate	Run2	generate/STIM_018.jpg	100
1300.651	2.264	2263.7	generate	Run2	generate/STIM_019.jpg	100
1306.659	1.721	1721.4	generate	Run2	generate/STIM_019.jpg	100
1312.242	0.998	998.1	generate	Run2	generate/STIM_019.jpg	100
1316.711	1.702	1701.5	generate	Run2	generate/STIM_019.jpg	100
1322.026	1.497	1497.4	generate	Run2	generate/STIM_019.jpg	100
1327.43	2.341	2341.2	generate	Run2	generate/STIM_020.jpg	100
1331.945	0.918	918.0	generate	Run2	generate/STIM_020.jpg	100
1336.312	1.623	1623.1	generate	Run2	generate/STIM_020.jpg	99
1340.0	1.083	1083.0	generate	Run2	generate/STIM_020.jpg	99
1344.393	1.666	1666.4	generate	Run2	generate/STIM_020.jpg	100
1349.992	2.296	2296.1	generate	Run2	generate/STIM_021.jpg	99
1354.43	2.0	1999.8	generate	Run2	generate/STIM_021.jpg	99
1360.142	0.85	849.7	generate	Run2	generate/STIM_021.jpg	100
1363.957	1.19	1189.8	generate	Run2	generate/STIM_021.jpg	99
1368.821	1.023	1023.0	generate	Run2	generate/STIM_021.jpg	99
1372.284	1.767	1767.3	generate	Run2	generate/STIM_022.jpg	100
1377.379	1.025	1025.1	generate	Run2	generate/STIM_022.jpg	100
1381.911	1.012	1012.2	generate	Run2	generate/STIM_022.jpg	100
1385.695	0.79	790.2	generate	Run2	generate/STIM_022.jpg	99
1389.393	1.583	1583.1	generate	Run2	generate/STIM_022.jpg	100
1394.305	1.722	1722.0	generate	Run2	generate/STIM_023.jpg	100
1399.689	1.013	1012.8	generate	Run2	generate/STIM_023.jpg	100
1404.69	1.871	1870.7	generate	Run2	generate/STIM_023.jpg	99
1408.664	1.746	1745.6	generate	Run2	generate/STIM_023.jpg	99
1413.332	1.238	1238.5	generate	Run2	generate/STIM_023.jpg	100
1417.414	1.246	1246.1	generate	Run2	generate/STIM_024.jpg	99
1421.952	1.797	1797.1	generate	Run2	generate/STIM_024.jpg	99
1427.306	2.06	2060.3	generate	Run2	generate/STIM_024.jpg	99
1432.993	1.498	1498.3	generate	Run2	generate/STIM_024.jpg	100
1437.511	0.78	780.2	generate	Run2	generate/STIM_024.jpg	100
1441.057	0.708	707.8	repeat	Run2	repeat/STIM_000.jpg	99
1444.85	0.505	505.2	repeat	Run2	repeat/STIM_000.jpg	99
1449.158	0.669	669.1	repeat	Run2	repeat/STIM_000.jpg	99
1453.255	0.873	873.4	repeat	Run2	repeat/STIM_000.jpg	100
1457.917	0.516	515.7	repeat	Run2	repeat/STIM_000.jpg	100
1462.241	0.816	815.8	repeat	Run2	repeat/STIM_001.jpg	100
1465.704	0.683	682.9	repeat	Run2	repeat/STIM_001.jpg	100
1469.856	0.867	866.9	repeat	Run2	repeat/STIM_001.jpg	100
1473.097	0.553	553.0	repeat	Run2	repeat/STIM_001.jpg	99
1476.762	0.618	617.6	repeat	Run2	repeat/STIM_001.jpg	100
1479.909	0.834	834.2	repeat	Run2	repeat/STIM_002.jpg	99
1483.801	0.835	835.3	repeat	Run2	repeat/STIM_002.jpg	100
1488.119	0.547	546.6	repeat	Run2	repeat/STIM_002.jpg	100
1490.789	0.822	821.5	repeat	Run2	repeat/STIM_002.jpg	100
1495.029	0.633	633.2	repeat	Run2	repeat/STIM_002.jpg	100
1499.379	0.64	639.5	repeat	Run2	repeat/STIM_003.jpg	99
1503.185	0.549	549.3	repeat	Run2	repeat/STIM_003.jpg	99
1506.141	0.535	534.7	repeat	Run2	repeat/STIM_003.jpg	99
1509.892	0.852	851.6	repeat	Run2	repeat/STIM_003.jpg	100
1513.985	0.683	683.1	repeat	Run2	repeat/STIM_003.jpg	100
1518.605	0.496	495.8	repeat	Run2	repeat/STIM_004.jpg	99
1522.632	0.908	907.6	repeat	Run2	repeat/STIM_004.jpg	99
1526.944	0.85	850.5	repeat	Run2	repeat/STIM_004.jpg	100
1530.039	0.754	753.9	repeat	Run2	repeat/STIM_004.jpg	100
1533.034	0.908	907.9	repeat	Run2	repeat/STIM_004.jpg	100
1536.482	0.56	559.6	repeat	Run2	repeat/STIM_005.jpg	100
1539.742	0.486	486.2	repeat	Run2	repeat/STIM_005.jpg	99
1543.773	0.586	585.8	repeat	Run2	repeat/STIM_005.jpg	100
1547.112	0.476	475.5	repeat	Run2	repeat/STIM_005.jpg	99
1551.229	0.472	471.9	repeat	Run2	repeat/STIM_005.jpg	99
1554.738	0.887	887.4	repeat	Run2	repeat/STIM_006.jpg	99
1557.651	0.806	805.7	repeat	Run2	repeat/STIM_006.jpg	100
1562.176	0.496	496.4	repeat	Run2	repeat/STIM_006.jpg	100
1566.15	0.88	880.2	repeat	Run2	repeat/STIM_006.jpg	100
1570.825	0.909	908.9	repeat	Run2	repeat/STIM_006.jpg	100
1574.058	0.514	513.6	repeat	Run2	repeat/STIM_007.jpg	99
1578.239	0.467	467.3	repeat	Run2	repeat/STIM_007.jpg	99
1581.963	0.543	543.1	repeat	Run2	repeat/STIM_007.jpg	99
1585.078	0.718	717.9	repeat	Run2	repeat/STIM_007.jpg	99
1589.441	0.837	836.6	repeat	Run2	repeat/STIM_007.jpg	99
1593.586	0.616	615.5	repeat	Run2	repeat/STIM_008.jpg	99
1596.352	0.644	644.1	repeat	Run2	repeat/STIM_008.jpg	100
1599.098	0.649	649.4	repeat	Run2	repeat/STIM_008.jpg	99
1603.298	0.765	764.7	repeat	Run2	repeat/STIM_008.jpg	100
1606.184	0.738	737.7	repeat	Run2	repeat/STIM_008.jpg	99
1610.308	0.682	681.9	repeat	Run2	repeat/STIM_009.jpg	100
1614.391	0.524	523.5	repeat	Run2	repeat/STIM_009.jpg	100
1618.803	0.63	630.0	repeat	Run2	repeat/STIM_009.jpg	99
1621.754	0.904	904.4	repeat	Run2	repeat/STIM_009.jpg	100
1624.991	0.488	488.4	repeat	Run2	repeat/STIM_009.jpg	100
1628.998	0.806	805.6	repeat	Run2	repeat/STIM_010.jpg	100
1631.804	0.847	847.4	repeat	Run2	repeat/STIM_010.jpg	100
1635.38	0.919	918.6	repeat	Run2	repeat/STIM_010.jpg	99
1638.515	0.478	477.7	repeat	Run2	repeat/STIM_010.jpg	100
1642.369	0.616	616.1	repeat	Run2	repeat/STIM_010.jpg	99
1645.973	0.783	783.0	repeat	Run2	repeat/STIM_011.jpg	100
1650.654	0.696	696.3	repeat	Run2	repeat/STIM_011.jpg	99
1655.2	0.665	665.1	repeat	Run2	repeat/STIM_011.jpg	100
1659.321	0.471	470.7	repeat	Run2	repeat/STIM_011.jpg	100
1662.944	0.711	710.8	repeat	Run2	repeat/STIM_011.jpg	99
1666.264	0.789	789.3	repeat	Run2	repeat/STIM_012.jpg	99
1669.769	0.771	771.4	repeat	Run2	repeat/STIM_012.jpg	99
1673.856	0.549	548.6	repeat	Run2	repeat/STIM_012.jpg	99
1677.525	0.864	863.7	repeat	Run2	repeat/STIM_012.jpg	100
1682.308	0.855	855.2	repeat	Run2	repeat/STIM_012.jpg	100
1686.757	0.82	820.0	repeat	Run2	repeat/STIM_013.jpg	99
1690.338	0.54	540.5	repeat	Run2	repeat/STIM_013.jpg	100
1693.598	0.855	855.2	repeat	Run2	repeat/STIM_013.jpg	100
1696.913	0.866	866.5	repeat	Run2	repeat/STIM_013.jpg	99
1701.335	0.732	731.7	repeat	Run2	repeat/STIM_013.jpg	100
1704.883	0.57	569.5	repeat	Run2	repeat/STIM_014.jpg	100
1707.811	0.778	777.8	repeat	Run2	repeat/STIM_014.jpg	100
1711.145	0.48	479.9	repeat	Run2	repeat/STIM_014.jpg	99
1714.491	0.579	578.8	repeat	Run2	repeat/STIM_014.jpg	99
1718.459	0.589	589.1	repeat	Run2	repeat/STIM_014.jpg	99
1722.114	1.798	1797.5	generate	Run3	generate/STIM_000.jpg	100
1726.814	0.792	791.5	generate	Run3	generate/STIM_000.jpg	100
1731.32	1.308	1308.4	generate	Run3	generate/STIM_000.jpg	100
1735.357	1.524	1523.9	generate	Run3	generate/STIM_000.jpg	100
1739.979	1.797	1796.7	generate	Run3	generate/STIM_000.jpg	99
1745.574	1.511	1511.0	generate	Run3	generate/STIM_001.jpg	99
1750.13	1.784	1783.7	generate	Run3	generate/STIM_001.jpg	99
1754.382	0.896	896.0	generate	Run3	generate/STIM_001.jpg	100
1758.353	0.941	941.4	generate	Run3	generate/STIM_001.jpg	100
1762.786	1.675	1674.7	generate	Run3	generate/STIM_001.jpg	100
1766.518	1.633	1632.9	generate	Run3	generate/STIM_002.jpg	99
1771.607	1.889	1889.2	generate	Run3	generate/STIM_002.jpg	100
1775.519	1.545	1544.6	generate	Run3	generate/STIM_002.jpg	100
1780.722	1.859	1859.2	generate	Run3	generate/STIM_002.jpg	100
1785.169	1.81	1810.3	generate	Run3	generate/STIM_002.jpg	99
1790.358	1.779	1778.9	generate	Run3	generate/STIM_003.jpg	100
1795.492	1.393	1393.4	generate	Run3	generate/STIM_003.jpg	99
1800.748	1.468	1468.1	generate	Run3	generate/STIM_003.jpg	100
1806.196	1.022	1021.9	generate	Run3	generate/STIM_003.jpg	99
1810.108	0.918	918.0	generate	Run3	generate/STIM_003.jpg	100
1813.182	1.776	1775.6	generate	Run3	generate/STIM_004.jpg	100
1818.896	1.077	1076.8	generate	Run3	generate/STIM_004.jpg	100
1823.193	1.449	1449.2	generate	Run3	generate/STIM_004.jpg	99
1827.919	1.166	1166.3	generate	Run3	generate/STIM_004.jpg	99
1832.203	1.676	1675.9	generate	Run3	generate/STIM_004.jpg	99
1837.673	1.065	1065.2	generate	Run3	generate/STIM_005.jpg	99
1841.971	1.85	1850.2	generate	Run3	generate/STIM_005.jpg	99
1847.723	1.473	1472.8	generate	Run3	generate/STIM_005.jpg	99
1851.584	0.782	782.1	generate	Run3	generate/STIM_005.jpg	100
1855.374	1.702	1701.9	generate	Run3	generate/STIM_005.jpg	100
1859.365	1.216	1216.3	generate	Run3	generate/STIM_006.jpg	99
1862.844	1.788	1788.0	generate	Run3	generate/STIM_006.jpg	100
1867.694	1.155	1155.3	generate	Run3	generate/STIM_006.jpg	100
1872.219	1.209	1208.6	generate	Run3	generate/STIM_006.jpg	99
1875.95	1.7	1700.5	generate	Run3	generate/STIM_006.jpg	100
1879.882	1.794	1794.4	generate	Run3	generate/STIM_007.jpg	99
1884.041	1.188	1188.0	generate	Run3	generate/STIM_007.jpg	99
1888.077	1.258	1258.4	generate	Run3	generate/STIM_007.jpg	100
1892.644	1.922	1921.9	generate	Run3	generate/STIM_007.jpg	100
1897.277	1.708	1707.7	generate	Run3	generate/STIM_007.jpg	99
1902.857	1.9	1899.6	generate	Run3	generate/STIM_008.jpg	99
1907.145	1.154	1154.5	generate	Run3	generate/STIM_008.jpg	99
1910.557	1.581	1581.3	generate	Run3	generate/STIM_008.jpg	100
1915.519	0.893	892.8	generate	Run3	generate/STIM_008.jpg	99
1920.179	1.312	1312.1	generate	Run3	generate/STIM_008.jpg	100
1924.931	1.787	1786.6	generate	Run3	generate/STIM_009.jpg	100
1928.826	1.428	1427.7	generate	Run3	generate/STIM_009.jpg	99
1933.076	0.831	831.4	generate	Run3	generate/STIM_009.jpg	99
1936.743	1.617	1617.3	generate	Run3	generate/STIM_009.jpg	99
1942.093	1.26	1260.3	generate	Run3	generate/STIM_009.jpg	99
1946.038	1.765	1764.6	generate	Run3	generate/STIM_010.jpg	100
1951.011	1.877	1877.2	generate	Run3	generate/STIM_010.jpg	99
1955.989	1.503	1503.3	generate	Run3	generate/STIM_010.jpg	100
1960.525	0.848	847.6	generate	Run3	generate/STIM_010.jpg	100
1964.52	1.551	1551.4	generate	Run3	generate/STIM_010.jpg	99
1969.245	1.479	1478.7	generate	Run3	generate/STIM_011.jpg	100
1973.81	1.472	1471.8	generate	Run3	generate/STIM_011.jpg	99
1977.852	1.793	1793.3	generate	Run3	generate/STIM_011.jpg	100
1982.711	1.086	1086.3	generate	Run3	generate/STIM_011.jpg	100
1987.774	0.779	779.0	generate	Run3	generate/STIM_011.jpg	99
1991.158	1.578	1578.3	generate	Run3	generate/STIM_012.jpg	100
1995.674	1.364	1363.6	generate	Run3	generate/STIM_012.jpg	100
2000.827	1.829	1829.2	generate	Run3	generate/STIM_012.jpg	100
2006.506	1.48	1479.7	generate	Run3	generate/STIM_012.jpg	99
2011.239	1.51	1510.1	generate	Run3	generate/STIM_012.jpg	100
2015.211	0.914	914.0	generate	Run3	generate/STIM_013.jpg	99
2019.384	1.063	1062.9	generate	Run3	generate/STIM_013.jpg	99
2023.133	1.281	1280.8	generate	Run3	generate/STIM_013.jpg	100
2027.328	1.308	1307.8	generate	Run3	generate/STIM_013.jpg	100
2032.088	0.831	830.7	generate	Run3	generate/STIM_013.jpg	100
2035.796	1.197	1196.6	generate	Run3	generate/STIM_014.jpg	99
2040.769	1.705	1704.8	generate	Run3	generate/STIM_014.jpg	100
2045.668	1.9	1899.6	generate	Run3	generate/STIM_014.jpg	99
2049.902	1.719	1719.4	generate	Run3	generate/STIM_014.jpg	99
2055.134	0.966	966.5	generate	Run3	generate/STIM_014.jpg	99
2059.349	1.084	1084.0	generate	Run3	generate/STIM_015.jpg	100
2063.273	0.972	972.0	generate	Run3	generate/STIM_015.jpg	99
2068.185	1.561	1561.2	generate	Run3	generate/STIM_015.jpg	100
2073.64	0.812	812.2	generate	Run3	generate/STIM_015.jpg	100
2078.201	0.89	889.6	generate	Run3	generate/STIM_015.jpg	100
2081.1	1.486	1486.2	generate	Run3	generate/STIM_016.jpg	99
2085.493	1.034	1034.5	generate	Run3	generate/STIM_016.jpg	100
2090.406	1.851	1851.1	generate	Run3	generate/STIM_016.jpg	100
2094.548	1.45	1449.5	generate	Run3	generate/STIM_016.jpg	99
2099.546	1.267	1266.7	generate	Run3	generate/STIM_016.jpg	100
2103.117	1.283	1283.3	generate	Run3	generate/STIM_017.jpg	99
2107.376	1.9	1900.0	generate	Run3	generate/STIM_017.jpg	100
2111.923	1.629	1628.9	generate	Run3	generate/STIM_017.jpg	100
2115.959	1.616	1615.8	generate	Run3	generate/STIM_017.jpg	99
2119.828	1.018	1018.2	generate	Run3	generate/STIM_017.jpg	100
2124.371	1.399	1398.7	generate	Run3	generate/STIM_018.jpg	100
2128.156	1.526	1525.8	generate	Run3	generate/STIM_018.jpg	99
2132.282	0.963	963.0	generate	Run3	generate/STIM_018.jpg	100
2135.69	0.891	890.7	generate	Run3	generate/STIM_018.jpg	99
2140.222	1.064	1064.2	generate	Run3	generate/STIM_018.jpg	100
2144.993	1.33	1330.3	generate	Run3	generate/STIM_019.jpg	99
2148.43	1.284	1284.0	generate	Run3	generate/STIM_019.jpg	100
2151.725	1.246	1245.6	generate	Run3	generate/STIM_019.jpg	100
2155.353	1.417	1416.9	generate	Run3	generate/STIM_019.jpg	100
2158.897	1.714	1713.7	generate	Run3	generate/STIM_019.jpg	100
2163.382	0.909	909.0	generate	Run3	generate/STIM_020.jpg	100
2167.465	1.584	1583.8	generate	Run3	generate/STIM_020.jpg	100
2171.658	1.436	1436.0	generate	Run3	generate/STIM_020.jpg	100
2176.754	1.003	1003.1	generate	Run3	generate/STIM_020.jpg	100
2180.081	1.366	1366.3	generate	Run3	generate/STIM_020.jpg	99
2183.929	1.447	1446.9	generate	Run3	generate/STIM_021.jpg	100
2188.439	0.786	786.0	generate	Run3	generate/STIM_021.jpg	99
2192.557	0.816	816.0	generate	Run3	generate/STIM_021.jpg	100
2196.467	0.882	881.8	generate	Run3	generate/STIM_021.jpg	100
2201.148	1.094	1093.9	generate	Run3	generate/STIM_021.jpg	99
2205.945	1.56	1560.0	generate	Run3	generate/STIM_022.jpg	100
2209.682	1.122	1121.8	generate	Run3	generate/STIM_022.jpg	100
2214.259	1.362	1361.9	generate	Run3	generate/STIM_022.jpg	99
2219.574	0.972	971.9	generate	Run3	generate/STIM_022.jpg	100
2224.215	1.196	1196.4	generate	Run3	generate/STIM_022.jpg	100
2228.615	1.419	1418.7	generate	Run3	generate/STIM_023.jpg	99
2232.415	1.202	1201.5	generate	Run3	generate/STIM_023.jpg	100
2237.411	0.829	828.8	generate	Run3	generate/STIM_023.jpg	100
2240.944	1.093	1093.0	generate	Run3	generate/STIM_023.jpg	99
2245.009	1.128	1127.8	generate	Run3	generate/STIM_023.jpg	99
2249.254	1.698	1698.2	generate	Run3	generate/STIM_024.jpg	100
2254.448	0.998	997.9	generate	Run3	generate/STIM_024.jpg	99
2257.884	1.191	1191.3	generate	Run3	generate/STIM_024.jpg	99
2261.541	1.738	1737.6	generate	Run3	generate/STIM_024.jpg	99
2265.864	1.812	1811.8	generate	Run3	generate/STIM_024.jpg	100
2269.865	0.576	575.6	repeat	Run3	repeat/STIM_000.jpg	100
2273.218	0.835	835.4	repeat	Run3	repeat/STIM_000.jpg	100
2277.156	0.643	643.4	repeat	Run3	repeat/STIM_000.jpg	99
2279.84	0.485	484.8	repeat	Run3	repeat/STIM_000.jpg	99
2284.086	0.612	611.8	repeat	Run3	repeat/STIM_000.jpg	99
2288.647	0.75	749.6	repeat	Run3	repeat/STIM_001.jpg	100
2293.041	0.7	699.5	repeat	Run3	repeat/STIM_001.jpg	100
2296.604	0.842	842.5	repeat	Run3	repeat/STIM_001.jpg	99
2301.336	0.759	758.8	repeat	Run3	repeat/STIM_001.jpg	100
2306.054	0.579	578.6	repeat	Run3	repeat/STIM_001.jpg	100
2308.647	0.833	832.9	repeat	Run3	repeat/STIM_002.jpg	100
2312.484	0.703	703.4	repeat	Run3	repeat/STIM_002.jpg	99
2316.3	0.83	829.9	repeat	Run3	repeat/STIM_002.jpg	99
2319.324	0.471	471.4	repeat	Run3	repeat/STIM_002.jpg	99
2322.123	0.894	893.8	repeat	Run3	repeat/STIM_002.jpg	100
2325.213	0.478	478.5	repeat	Run3	repeat/STIM_003.jpg	99
2328.417	0.911	910.9	repeat	Run3	repeat/STIM_003.jpg	100
2332.191	0.471	470.6	repeat	Run3	repeat/STIM_003.jpg	100
2336.207	0.8	800.3	repeat	Run3	repeat/STIM_003.jpg	99
2339.786	0.668	668.3	repeat	Run3	repeat/STIM_003.jpg	99
2342.895	0.496	495.5	repeat	Run3	repeat/STIM_004.jpg	100
2346.13	0.629	629.4	repeat	Run3	repeat/STIM_004.jpg	100
2349.611	0.477	476.7	repeat	Run3	repeat/STIM_004.jpg	99
2352.942	0.511	510.7	repeat	Run3	repeat/STIM_004.jpg	100
2355.623	0.537	537.0	repeat	Run3	repeat/STIM_004.jpg	99
2358.934	0.618	618.3	repeat	Run3	repeat/STIM_005.jpg	99
2362.798	0.72	719.5	repeat	Run3	repeat/STIM_005.jpg	99
2365.645	0.481	481.4	repeat	Run3	repeat/STIM_005.jpg	99
2368.848	0.811	811.3	repeat	Run3	repeat/STIM_005.jpg	100
2372.45	0.864	863.7	repeat	Run3	repeat/STIM_005.jpg	100
2377.024	0.852	851.5	repeat	Run3	repeat/STIM_006.jpg	99
2380.676	0.681	680.7	repeat	Run3	repeat/STIM_006.jpg	100
2383.562	0.613	612.7	repeat	Run3	repeat/STIM_006.jpg	100
2387.518	0.583	583.2	repeat	Run3	repeat/STIM_006.jpg	99
2390.329	0.882	881.9	repeat	Run3	repeat/STIM_006.jpg	99
2393.255	0.561	561.4	repeat	Run3	repeat/STIM_007.jpg	100
2396.328	0.506	506.5	repeat	Run3	repeat/STIM_007.jpg	100
2399.987	0.568	568.3	repeat	Run3	repeat/STIM_007.jpg	99
2402.699	0.818	817.6	repeat	Run3	repeat/STIM_007.jpg	99
2407.139	0.751	750.7	repeat	Run3	repeat/STIM_007.jpg	99
2410.443	0.685	684.6	repeat	Run3	repeat/STIM_008.jpg	100
2413.688	0.559	559.3	repeat	Run3	repeat/STIM_008.jpg	99
2417.043	0.661	661.4	repeat	Run3	repeat/STIM_008.jpg	100
2421.185	0.55	549.9	repeat	Run3	repeat/STIM_008.jpg	99
2425.642	0.902	901.7	repeat	Run3	repeat/STIM_008.jpg	99
2428.799	0.492	492.4	repeat	Run3	repeat/STIM_009.jpg	100
2432.376	0.597	597.3	repeat	Run3	repeat/STIM_009.jpg	100
2435.367	0.512	512.4	repeat	Run3	repeat/STIM_009.jpg	99
2438.055	0.856	855.7	repeat	Run3	repeat/STIM_009.jpg	99
2441.446	0.499	499.4	repeat	Run3	repeat/STIM_009.jpg	100
2444.543	0.618	618.4	repeat	Run3	repeat/STIM_010.jpg	100
2447.269	0.495	495.4	repeat	Run3	repeat/STIM_010.jpg	100
2451.522	0.661	661.1	repeat	Run3	repeat/STIM_010.jpg	100
2455.126	0.505	505.5	repeat	Run3	repeat/STIM_010.jpg	99
2459.57	0.519	519.2	repeat	Run3	repeat/STIM_010.jpg	100
2462.685	0.622	622.2	repeat	Run3	repeat/STIM_011.jpg	99
2465.434	0.692	691.7	repeat	Run3	repeat/STIM_011.jpg	100
2468.836	0.568	568.0	repeat	Run3	repeat/STIM_011.jpg	100
2472.567	0.565	564.8	repeat	Run3	repeat/STIM_011.jpg	99
2476.443	0.73	730.4	repeat	Run3	repeat/STIM_011.jpg	100
2480.397	0.54	540.1	repeat	Run3	repeat/STIM_012.jpg	99
2484.679	0.829	829.2	repeat	Run3	repeat/STIM_012.jpg	99
2487.87	0.649	649.2	repeat	Run3	repeat/STIM_012.jpg	99
2491.078	0.515	515.4	repeat	Run3	repeat/STIM_012.jpg	100
2495.195	0.823	822.6	repeat	Run3	repeat/STIM_012.jpg	99
2498.916	0.512	512.3	repeat	Run3	repeat/STIM_013.jpg	99
2501.531	0.841	841.2	repeat	Run3	repeat/STIM_013.jpg	100
2505.179	0.514	514.2	repeat	Run3	repeat/STIM_013.jpg	99
2509.521	0.846	846.1	repeat	Run3	repeat/STIM_013.jpg	99
2514.366	0.892	891.9	repeat	Run3	repeat/STIM_013.jpg	99
2519.087	0.6	600.3	repeat	Run3	repeat/STIM_014.jpg	100
2522.997	0.68	679.5	repeat	Run3	repeat/STIM_014.jpg	99
2526.625	0.808	807.5	repeat	Run3	repeat/STIM_014.jpg	100
2531.391	0.779	779.3	repeat	Run3	repeat/STIM_014.jpg	99
2535.554	0.868	868.3	repeat	Run3	repeat/STIM_014.jpg	99
2539.693	0.804	803.9	generate	Run4	generate/STIM_000.jpg	100
2543.318	1.524	1523.5	generate	Run4	generate/STIM_000.jpg	99
2548.256	1.825	1824.8	generate	Run4	generate/STIM_000.jpg	99
2552.119	1.436	1435.7	generate	Run4	generate/STIM_000.jpg	99
2556.334	1.407	1407.4	generate	Run4	generate/STIM_000.jpg	99
2560.718	1.488	1487.6	generate	Run4	generate/STIM_001.jpg	99
2564.803	1.857	1857.0	generate	Run4	generate/STIM_001.jpg	100
2570.089	1.866	1865.7	generate	Run4	generate/STIM_001.jpg	100
2574.396	1.062	1062.1	generate	Run4	generate/STIM_001.jpg	99
2577.62	1.47	1469.8	generate	Run4	generate/STIM_001.jpg	99
2583.024	1.804	1803.5	generate	Run4	generate/STIM_002.jpg	99
2587.612	1.832	1831.6	generate	Run4	generate/STIM_002.jpg	99
2592.61	1.504	1504.1	generate	Run4	generate/STIM_002.jpg	100
2596.488	1.548	1548.4	generate	Run4	generate/STIM_002.jpg	99
2600.699	1.34	1340.2	generate	Run4	generate/STIM_002.jpg	100
2604.862	1.188	1188.5	generate	Run4	generate/STIM_003.jpg	100
2609.28	1.587	1586.6	generate	Run4	generate/STIM_003.jpg	100
2614.835	1.855	1854.6	generate	Run4	generate/STIM_003.jpg	100
2620.199	1.428	1428.1	generate	Run4	generate/STIM_003.jpg	100
2624.279	1.65	1649.8	generate	Run4	generate/STIM_003.jpg	99
2628.165	0.777	776.7	generate	Run4	generate/STIM_004.jpg	100
2632.362	1.562	1562.1	generate	Run4	generate/STIM_004.jpg	99
2636.793	1.502	1501.9	generate	Run4	generate/STIM_004.jpg	99
2641.237	1.593	1592.6	generate	Run4	generate/STIM_004.jpg	99
2646.612	0.823	822.6	generate	Run4	generate/STIM_004.jpg	99
2649.654	0.814	814.0	generate	Run4	generate/STIM_005.jpg	100
2654.075	1.487	1487.0	generate	Run4	generate/STIM_005.jpg	100
2658.627	1.804	1803.5	generate	Run4	generate/STIM_005.jpg	100
2664.019	1.013	1012.8	generate	Run4	generate/STIM_005.jpg	99
2668.838	1.4	1400.2	generate	Run4	generate/STIM_005.jpg	99
2673.703	1.91	1910.4	generate	Run4	generate/STIM_006.jpg	99
2678.529	1.048	1048.0	generate	Run4	generate/STIM_006.jpg	100
2682.551	1.379	1379.0	generate	Run4	generate/STIM_006.jpg	100
2687.33	1.351	1350.8	generate	Run4	generate/STIM_006.jpg	99
2692.493	1.016	1015.8	generate	Run4	generate/STIM_006.jpg	100
2697.242	1.209	1208.7	generate	Run4	generate/STIM_007.jpg	100
2702.076	1.658	1657.7	generate	Run4	generate/STIM_007.jpg	99
2706.611	1.216	1215.8	generate	Run4	generate/STIM_007.jpg	99
2711.259	1.055	1055.1	generate	Run4	generate/STIM_007.jpg	100
2715.248	1.31	1309.8	generate	Run4	generate/STIM_007.jpg	99
2720.544	1.872	1872.2	generate	Run4	generate/STIM_008.jpg	100
2724.709	1.454	1454.5	generate	Run4	generate/STIM_008.jpg	99
2729.911	1.585	1585.1	generate	Run4	generate/STIM_008.jpg	99
2733.802	1.706	1705.6	generate	Run4	generate/STIM_008.jpg	99
2738.572	1.581	1580.9	generate	Run4	generate/STIM_008.jpg	100
2742.888	1.187	1186.9	generate	Run4	generate/STIM_009.jpg	100
2747.468	1.239	1238.9	generate	Run4	generate/STIM_009.jpg	100
2751.582	1.078	1077.7	generate	Run4	generate/STIM_009.jpg	100
2755.619	1.212	1212.2	generate	Run4	generate/STIM_009.jpg	100
2759.569	1.243	1243.3	generate	Run4	generate/STIM_009.jpg	99
2764.282	1.844	1844.4	generate	Run4	generate/STIM_010.jpg	100
2770.051	0.821	820.7	generate	Run4	generate/STIM_010.jpg	99
2773.038	0.924	923.5	generate	Run4	generate/STIM_010.jpg	99
2777.29	0.894	893.9	generate	Run4	generate/STIM_010.jpg	100
2782.097	1.464	1464.5	generate	Run4	generate/STIM_010.jpg	100
2786.353	1.595	1594.9	generate	Run4	generate/STIM_011.jpg	99
2789.989	1.396	1395.5	generate	Run4	generate/STIM_011.jpg	99
2794.265	0.864	864.3	generate	Run4	generate/STIM_011.jpg	99
2797.985	1.066	1066.1	generate	Run4	generate/STIM_011.jpg	100
2801.615	1.682	1682.0	generate	Run4	generate/STIM_011.jpg	99
2805.714	1.582	1581.5	generate	Run4	generate/STIM_012.jpg	100
2809.707	1.837	1836.8	generate	Run4	generate/STIM_012.jpg	99
2814.676	1.269	1269.3	generate	Run4	generate/STIM_012.jpg	100
2819.569	1.839	1839.0	generate	Run4	generate/STIM_012.jpg	99
2824.429	1.102	1101.9	generate	Run4	generate/STIM_012.jpg	99
2828.895	1.583	1583.4	generate	Run4	generate/STIM_013.jpg	100
2834.168	1.736	1736.1	generate	Run4	generate/STIM_013.jpg	100
2837.992	1.726	1725.5	generate	Run4	generate/STIM_013.jpg	99
2841.915	1.391	1391.0	generate	Run4	generate/STIM_013.jpg	100
2846.782	1.639	1639.4	generate	Run4	generate/STIM_013.jpg	100
2852.203	1.698	1698.2	generate	Run4	generate/STIM_014.jpg	100
2856.039	1.776	1776.4	generate	Run4	generate/STIM_014.jpg	99
2860.795	1.129	1128.7	generate	Run4	generate/STIM_014.jpg	99
2864.91	1.023	1022.6	generate	Run4	generate/STIM_014.jpg	99
2868.167	0.839	839.3	generate	Run4	generate/STIM_014.jpg	99
2871.36	1.289	1289.0	generate	Run4	generate/STIM_015.jpg	100
2876.288	1.868	1868.3	generate	Run4	generate/STIM_015.jpg	99
2881.373	1.118	1118.2	generate	Run4	generate/STIM_015.jpg	99
2886.447	0.854	854.5	generate	Run4	generate/STIM_015.jpg	100
2889.738	1.072	1072.5	generate	Run4	generate/STIM_015.jpg	99
2893.471	1.202	1201.9	generate	Run4	generate/STIM_016.jpg	99
2897.503	1.564	1563.8	generate	Run4	generate/STIM_016.jpg	100
2903.045	0.898	898.0	generate	Run4	generate/STIM_016.jpg	99
2907.217	1.772	1771.6	generate	Run4	generate/STIM_016.jpg	99
2911.741	1.883	1883.0	generate	Run4	generate/STIM_016.jpg	100
2917.151	1.01	1009.6	generate	Run4	generate/STIM_017.jpg	100
2921.292	1.48	1480.3	generate	Run4	generate/STIM_017.jpg	100
2925.068	1.547	1547.4	generate	Run4	generate/STIM_017.jpg	100
2930.209	0.81	810.3	generate	Run4	generate/STIM_017.jpg	100
2934.186	0.806	806.2	generate	Run4	generate/STIM_017.jpg	100
2937.177	1.159	1159.2	generate	Run4	generate/STIM_018.jpg	100
2940.574	1.832	1831.6	generate	Run4	generate/STIM_018.jpg	99
2944.447	1.696	1696.4	generate	Run4	generate/STIM_018.jpg	99
2948.342	1.35	1350.1	generate	Run4	generate/STIM_018.jpg	99
2953.571	1.747	1747.3	generate	Run4	generate/STIM_018.jpg	100
2957.795	0.973	972.6	generate	Run4	generate/STIM_019.jpg	100
2962.318	0.836	836.1	generate	Run4	generate/STIM_019.jpg	99
2965.302	1.151	1151.1	generate	Run4	generate/STIM_019.jpg	99
2968.917	1.109	1108.6	generate	Run4	generate/STIM_019.jpg	99
2972.517	1.444	1444.4	generate	Run4	generate/STIM_019.jpg	100
2976.048	1.257	1256.7	generate	Run4	generate/STIM_020.jpg	99
2979.461	1.278	1277.5	generate	Run4	generate/STIM_020.jpg	100
2984.511	1.201	1201.3	generate	Run4	generate/STIM_020.jpg	100
2988.947	1.033	1033.0	generate	Run4	generate/STIM_020.jpg	99
2993.404	0.823	822.7	generate	Run4	generate/STIM_020.jpg	100
2997.885	1.395	1394.6	generate	Run4	generate/STIM_021.jpg	99
3001.721	1.353	1353.0	generate	Run4	generate/STIM_021.jpg	99
3006.991	0.794	794.4	generate	Run4	generate/STIM_021.jpg	100
3010.531	1.382	1381.6	generate	Run4	generate/STIM_021.jpg	100
3014.071	0.921	920.7	generate	Run4	generate/STIM_021.jpg	99
3017.701	1.573	1573.3	generate	Run4	generate/STIM_022.jpg	99
3023.148	1.667	1667.3	generate	Run4	generate/STIM_022.jpg	100
3026.952	1.256	1255.5	generate	Run4	generate/STIM_022.jpg	99
3031.325	0.843	842.8	generate	Run4	generate/STIM_022.jpg	99
3035.96	1.77	1769.5	generate	Run4	generate/STIM_022.jpg	99
3039.869	1.477	1476.9	generate	Run4	generate/STIM_023.jpg	99
3043.805	1.913	1913.2	generate	Run4	generate/STIM_023.jpg	99
3048.354	1.314	1314.3	generate	Run4	generate/STIM_023.jpg	99
3052.624	1.596	1596.3	generate	Run4	generate/STIM_023.jpg	99
3056.972	1.404	1404.5	generate	Run4	generate/STIM_023.jpg	99
3060.918	1.617	1616.7	generate	Run4	generate/STIM_024.jpg	99
3065.476	1.684	1684.5	generate	Run4	generate/STIM_024.jpg	100
3071.155	1.198	1198.0	generate	Run4	generate/STIM_024.jpg	100
3075.233	1.485	1485.1	generate	Run4	generate/STIM_024.jpg	100
3080.16	0.784	783.9	generate	Run4	generate/STIM_024.jpg	99
3083.528	0.739	738.6	repeat	Run4	repeat/STIM_000.jpg	100
3086.719	0.7	700.3	repeat	Run4	repeat/STIM_000.jpg	100
3090.406	0.741	740.8	repeat	Run4	repeat/STIM_000.jpg	100
3093.243	0.79	790.3	repeat	Run4	repeat/STIM_000.jpg	100
3096.753	0.7	699.6	repeat	Run4	repeat/STIM_000.jpg	99
3100.415	0.784	783.5	repeat	Run4	repeat/STIM_001.jpg	99
3103.519	0.8	800.1	repeat	Run4	repeat/STIM_001.jpg	99
3107.555	0.64	639.5	repeat	Run4	repeat/STIM_001.jpg	100
3110.659	0.59	589.5	repeat	Run4	repeat/STIM_001.jpg	100
3113.873	0.629	629.3	repeat	Run4	repeat/STIM_001.jpg	100
3117.754	0.64	640.0	repeat	Run4	repeat/STIM_002.jpg	99
3121.587	0.799	799.4	repeat	Run4	repeat/STIM_002.jpg	99
3124.795	0.777	777.2	repeat	Run4	repeat/STIM_002.jpg	100
3127.946	0.588	588.0	repeat	Run4	repeat/STIM_002.jpg	99
3132.422	0.822	822.2	repeat	Run4	repeat/STIM_002.jpg	100
3136.335	0.869	868.7	repeat	Run4	repeat/STIM_003.jpg	99
3140.706	0.845	844.9	repeat	Run4	repeat/STIM_003.jpg	99
3144.533	0.741	740.7	repeat	Run4	repeat/STIM_003.jpg	99
3148.538	0.605	605.2	repeat	Run4	repeat/STIM_003.jpg	99
3151.37	0.85	849.6	repeat	Run4	repeat/STIM_003.jpg	100
3154.682	0.594	593.5	repeat	Run4	repeat/STIM_004.jpg	100
3159.176	0.62	620.1	repeat	Run4	repeat/STIM_004.jpg	100
3163.563	0.752	752.3	repeat	Run4	repeat/STIM_004.jpg	100
3166.537	0.802	801.9	repeat	Run4	repeat/STIM_004.jpg	99
3170.158	0.784	784.0	repeat	Run4	repeat/STIM_004.jpg	100
3173.211	0.905	904.9	repeat	Run4	repeat/STIM_005.jpg	100
3177.324	0.62	620.4	repeat	Run4	repeat/STIM_005.jpg	99
3180.929	0.544	544.5	repeat	Run4	repeat/STIM_005.jpg	100
3183.721	0.899	899.4	repeat	Run4	repeat/STIM_005.jpg	100
3187.225	0.522	522.4	repeat	Run4	repeat/STIM_005.jpg	100
3190.361	0.603	603.3	repeat	Run4	repeat/STIM_006.jpg	100
3194.177	0.566	566.3	repeat	Run4	repeat/STIM_006.jpg	99
3198.08	0.558	558.0	repeat	Run4	repeat/STIM_006.jpg	100
3201.876	0.78	779.8	repeat	Run4	repeat/STIM_006.jpg	100
3206.387	0.568	567.8	repeat	Run4	repeat/STIM_006.jpg	99
3209.706	0.765	765.1	repeat	Run4	repeat/STIM_007.jpg	99
3214.21	0.558	557.6	repeat	Run4	repeat/STIM_007.jpg	100
3218.214	0.605	605.3	repeat	Run4	repeat/STIM_007.jpg	99
3222.694	0.882	882.3	repeat	Run4	repeat/STIM_007.jpg	100
3226.019	0.74	739.5	repeat	Run4	repeat/STIM_007.jpg	100
3229.435	0.823	823.0	repeat	Run4	repeat/STIM_008.jpg	100
3234.047	0.512	511.6	repeat	Run4	repeat/STIM_008.jpg	100
3237.461	0.894	894.3	repeat	Run4	repeat/STIM_008.jpg	99
3240.666	0.816	816.4	repeat	Run4	repeat/STIM_008.jpg	99
3243.848	0.789	788.9	repeat	Run4	repeat/STIM_008.jpg	100
3247.794	0.841	841.4	repeat	Run4	repeat/STIM_009.jpg	99
3252.044	0.493	493.3	repeat	Run4	repeat/STIM_009.jpg	100
3254.782	0.879	878.7	repeat	Run4	repeat/STIM_009.jpg	99
3259.292	0.852	852.3	repeat	Run4	repeat/STIM_009.jpg	100
3262.228	0.755	754.9	repeat	Run4	repeat/STIM_009.jpg	100
3266.39	0.619	619.3	repeat	Run4	repeat/STIM_010.jpg	99
3269.62	0.694	694.3	repeat	Run4	repeat/STIM_010.jpg	99
3273.258	0.679	678.6	repeat	Run4	repeat/STIM_010.jpg	99
3276.008	0.651	650.6	repeat	Run4	repeat/STIM_010.jpg	100
3279.338	0.517	517.3	repeat	Run4	repeat/STIM_010.jpg	99
3283.611	0.827	827.0	repeat	Run4	repeat/STIM_011.jpg	99
3287.15	0.908	908.3	repeat	Run4	repeat/STIM_011.jpg	99
3291.062	0.644	644.4	repeat	Run4	repeat/STIM_011.jpg	100
3294.302	0.754	754.4	repeat	Run4	repeat/STIM_011.jpg	99
3297.296	0.615	614.7	repeat	Run4	repeat/STIM_011.jpg	100
3301.598	0.563	563.3	repeat	Run4	repeat/STIM_012.jpg	100
3305.998	0.854	853.9	repeat	Run4	repeat/STIM_012.jpg	99
3310.262	0.612	612.4	repeat	Run4	repeat/STIM_012.jpg	99
3314.232	0.727	726.9	repeat	Run4	repeat/STIM_012.jpg	100
3317.802	0.631	630.7	repeat	Run4	repeat/STIM_012.jpg	99
3321.083	0.718	718.4	repeat	Run4	repeat/STIM_013.jpg	100
3323.986	0.897	897.3	repeat	Run4	repeat/STIM_013.jpg	99
3328.578	0.712	712.5	repeat	Run4	repeat/STIM_013.jpg	100
3332.35	0.87	869.8	repeat	Run4	repeat/STIM_013.jpg	100
3335.766	0.557	557.4	repeat	Run4	repeat/STIM_013.jpg	99
3339.631	0.655	654.8	repeat	Run4	repeat/STIM_014.jpg	100
3343.818	0.653	652.6	repeat	Run4	repeat/STIM_014.jpg	100
3347.031	0.651	650.9	repeat	Run4	repeat/STIM_014.jpg	100
3350.532	0.847	846.6	repeat	Run4	repeat/STIM_014.jpg	100
3354.217	0.671	670.6	repeat	Run4	repeat/STIM_014.jpg	100
