onset	duration	accuracy	trial_type	learning_stage	stimulus
0.0	1.132	correct	generate	Run1	generate/STIM_000.jpg
5.017	1.748	correct	generate	Run1	generate/STIM_000.jpg
8.793	2.008	correct	generate	Run1	generate/STIM_000.jpg
13.189	1.705	correct	generate	Run1	generate/STIM_000.jpg
18.585	1.324	incorrect	generate	Run1	generate/STIM_000.jpg
23.304	2.492	correct	generate	Run1	generate/STIM_001.jpg
29.051	2.568	incorrect	generate	Run1	generate/STIM_001.jpg
33.746	1.032	correct	generate	Run1	generate/STIM_001.jpg
37.894	0.977	correct	generate	Run1	generate/STIM_001.jpg
42.191	1.374	correct	generate	Run1	generate/STIM_001.jpg
47.292	1.573	correct	generate	Run1	generate/STIM_002.jpg
52.353	2.54	incorrect	generate	Run1	generate/STIM_002.jpg
58.24	2.361	correct	generate	Run1	generate/STIM_002.jpg
63.408	1.258	incorrect	generate	Run1	generate/STIM_002.jpg
68.1	1.647	correct	generate	Run1	generate/STIM_002.jpg
73.179	1.725	correct	generate	Run1	generate/STIM_003.jpg
78.212	2.367	correct	generate	Run1	generate/STIM_003.jpg
82.646	1.871	correct	generate	Run1	generate/STIM_003.jpg
87.818	1.84	correct	generate	Run1	generate/STIM_003.jpg
92.081	1.68	correct	generate	Run1	generate/STIM_003.jpg
97.163	1.705	correct	generate	Run1	generate/STIM_004.jpg
102.384	1.377	incorrect	generate	Run1	generate/STIM_004.jpg
107.486	1.137	correct	generate	Run1	generate/STIM_004.jpg
112.524	1.182	correct	generate	Run1	generate/STIM_004.jpg
116.443	0.93	incorrect	generate	Run1	generate/STIM_004.jpg
120.713	2.576	correct	generate	Run1	generate/STIM_005.jpg
127.139	2.519	correct	generate	Run1	generate/STIM_005.jpg
132.237	1.04	correct	generate	Run1	generate/STIM_005.jpg
136.504	1.024	incorrect	generate	Run1	generate/STIM_005.jpg
141.279	2.128	correct	generate	Run1	generate/STIM_005.jpg
146.436	1.429	correct	generate	Run1	generate/STIM_006.jpg
150.375	1.771	correct	generate	Run1	generate/STIM_006.jpg
155.479	1.139	correct	generate	Run1	generate/STIM_006.jpg
159.795	2.118	correct	generate	Run1	generate/STIM_006.jpg
165.863	1.874	correct	generate	Run1	generate/STIM_006.jpg
170.427	1.993	correct	generate	Run1	generate/STIM_007.jpg
174.59	1.829	correct	generate	Run1	generate/STIM_007.jpg
180.17	1.944	correct	generate	Run1	generate/STIM_007.jpg
185.668	1.072	incorrect	generate	Run1	generate/STIM_007.jpg
190.726	1.121	correct	generate	Run1	generate/STIM_007.jpg
194.878	2.474	correct	generate	Run1	generate/STIM_008.jpg
200.701	1.138	correct	generate	Run1	generate/STIM_008.jpg
204.758	2.408	correct	generate	Run1	generate/STIM_008.jpg
210.364	1.25	correct	generate	Run1	generate/STIM_008.jpg
214.009	1.7	correct	generate	Run1	generate/STIM_008.jpg
218.102	1.365	incorrect	generate	Run1	generate/STIM_009.jpg
222.462	1.107	incorrect	generate	Run1	generate/STIM_009.jpg
227.289	1.93	correct	generate	Run1	generate/STIM_009.jpg
232.584	2.003	correct	generate	Run1	generate/STIM_009.jpg
237.45	1.424	correct	generate	Run1	generate/STIM_009.jpg
242.172	1.803	correct	generate	Run1	generate/STIM_010.jpg
247.581	2.109	correct	generate	Run1	generate/STIM_010.jpg
253.062	1.799	correct	generate	Run1	generate/STIM_010.jpg
258.685	2.235	incorrect	generate	Run1	generate/STIM_010.jpg
263.346	1.098	correct	generate	Run1	generate/STIM_010.jpg
267.663	1.168	correct	generate	Run1	generate/STIM_011.jpg
272.627	1.561	correct	generate	Run1	generate/STIM_011.jpg
276.748	1.951	correct	generate	Run1	generate/STIM_011.jpg
280.866	1.448	incorrect	generate	Run1	generate/STIM_011.jpg
286.132	0.923	incorrect	generate	Run1	generate/STIM_011.jpg
290.229	2.166	correct	generate	Run1	generate/STIM_012.jpg
295.965	2.133	correct	generate	Run1	generate/STIM_012.jpg
300.919	1.031	incorrect	generate	Run1	generate/STIM_012.jpg
305.421	2.13	correct	generate	Run1	generate/STIM_012.jpg
310.026	1.994	incorrect	generate	Run1	generate/STIM_012.jpg
315.589	2.609	correct	generate	Run1	generate/STIM_013.jpg
321.924	1.486	incorrect	generate	Run1	generate/STIM_013.jpg
326.403	1.014	correct	generate	Run1	generate/STIM_013.jpg
331.311	1.198	correct	generate	Run1	generate/STIM_013.jpg
336.055	1.365	correct	generate	Run1	generate/STIM_013.jpg
340.093	2.732	correct	generate	Run1	generate/STIM_014.jpg
346.581	1.224	incorrect	generate	Run1	generate/STIM_014.jpg
350.959	1.234	incorrect	generate	Run1	generate/STIM_014.jpg
354.323	2.106	correct	generate	Run1	generate/STIM_014.jpg
359.237	1.918	correct	generate	Run1	generate/STIM_014.jpg
363.98	2.411	correct	generate	Run1	generate/STIM_015.jpg
368.535	1.505	incorrect	generate	Run1	generate/STIM_015.jpg
373.845	2.412	correct	generate	Run1	generate/STIM_015.jpg
380.136	1.85	correct	generate	Run1	generate/STIM_015.jpg
385.871	1.383	incorrect	generate	Run1	generate/STIM_015.jpg
390.735	1.449	incorrect	generate	Run1	generate/STIM_016.jpg
395.141	1.817	correct	generate	Run1	generate/STIM_016.jpg
400.615	1.815	correct	generate	Run1	generate/STIM_016.jpg
404.859	1.758	correct	generate	Run1	generate/STIM_016.jpg
409.444	0.911	correct	generate	Run1	generate/STIM_016.jpg
413.93	1.373	correct	generate	Run1	generate/STIM_017.jpg
418.833	1.072	incorrect	generate	Run1	generate/STIM_017.jpg
423.287	1.068	incorrect	generate	Run1	generate/STIM_017.jpg
427.355	1.247	correct	generate	Run1	generate/STIM_017.jpg
430.915	1.344	correct	generate	Run1	generate/STIM_017.jpg
434.389	1.555	incorrect	generate	Run1	generate/STIM_018.jpg
439.347	1.613	correct	generate	Run1	generate/STIM_018.jpg
443.344	1.307	correct	generate	Run1	generate/STIM_018.jpg
448.45	2.004	incorrect	generate	Run1	generate/STIM_018.jpg
453.252	1.808	correct	generate	Run1	generate/STIM_018.jpg
458.742	1.839	correct	generate	Run1	generate/STIM_019.jpg
462.828	2.591	correct	generate	Run1	generate/STIM_019.jpg
468.527	1.0	incorrect	generate	Run1	generate/STIM_019.jpg
472.276	1.525	correct	generate	Run1	generate/STIM_019.jpg
477.709	1.1	correct	generate	Run1	generate/STIM_019.jpg
481.224	1.728	correct	generate	Run1	generate/STIM_020.jpg
486.736	1.167	correct	generate	Run1	generate/STIM_020.jpg
491.742	1.282	correct	generate	Run1	generate/STIM_020.jpg
496.467	1.584	correct	generate	Run1	generate/STIM_020.jpg
501.888	1.324	correct	generate	Run1	generate/STIM_020.jpg
505.996	1.426	incorrect	generate	Run1	generate/STIM_021.jpg
510.916	2.361	incorrect	generate	Run1	generate/STIM_021.jpg
515.313	1.793	correct	generate	Run1	generate/STIM_021.jpg
520.934	1.683	incorrect	generate	Run1	generate/STIM_021.jpg
525.552	2.003	correct	generate	Run1	generate/STIM_021.jpg
531.421	1.623	correct	generate	Run1	generate/STIM_022.jpg
535.427	2.313	correct	generate	Run1	generate/STIM_022.jpg
540.564	1.567	incorrect	generate	Run1	generate/STIM_022.jpg
544.662	2.33	correct	generate	Run1	generate/STIM_022.jpg
550.846	1.783	correct	generate	Run1	generate/STIM_022.jpg
555.586	1.3	correct	generate	Run1	generate/STIM_023.jpg
560.866	2.363	correct	generate	Run1	generate/STIM_023.jpg
565.489	1.697	incorrect	generate	Run1	generate/STIM_023.jpg
570.532	1.461	correct	generate	Run1	generate/STIM_023.jpg
575.386	1.872	correct	generate	Run1	generate/STIM_023.jpg
580.424	2.502	correct	generate	Run1	generate/STIM_024.jpg
586.497	1.356	correct	generate	Run1	generate/STIM_024.jpg
590.99	2.003	correct	generate	Run1	generate/STIM_024.jpg
596.654	1.367	correct	generate	Run1	generate/STIM_024.jpg
601.976	1.38	correct	generate	Run1	generate/STIM_024.jpg
605.426	0.666	correct	repeat	Run1	repeat/STIM_000.jpg
608.747	0.686	correct	repeat	Run1	repeat/STIM_000.jpg
611.656	0.721	correct	repeat	Run1	repeat/STIM_000.jpg
615.286	0.698	correct	repeat	Run1	repeat/STIM_000.jpg
619.273	0.888	correct	repeat	Run1	repeat/STIM_000.jpg
622.686	0.716	correct	repeat	Run1	repeat/STIM_001.jpg
627.265	0.517	correct	repeat	Run1	repeat/STIM_001.jpg
630.042	0.761	correct	repeat	Run1	repeat/STIM_001.jpg
633.219	0.576	correct	repeat	Run1	repeat/STIM_001.jpg
636.953	0.801	correct	repeat	Run1	repeat/STIM_001.jpg
640.183	0.86	correct	repeat	Run1	repeat/STIM_002.jpg
643.321	0.656	correct	repeat	Run1	repeat/STIM_002.jpg
646.691	0.886	correct	repeat	Run1	repeat/STIM_002.jpg
651.196	0.592	correct	repeat	Run1	repeat/STIM_002.jpg
654.493	0.743	incorrect	repeat	Run1	repeat/STIM_002.jpg
658.584	0.694	correct	repeat	Run1	repeat/STIM_003.jpg
661.715	0.602	incorrect	repeat	Run1	repeat/STIM_003.jpg
666.149	0.776	correct	repeat	Run1	repeat/STIM_003.jpg
669.168	0.526	correct	repeat	Run1	repeat/STIM_003.jpg
671.925	0.821	correct	repeat	Run1	repeat/STIM_003.jpg
675.1	0.814	incorrect	repeat	Run1	repeat/STIM_004.jpg
678.343	0.517	correct	repeat	Run1	repeat/STIM_004.jpg
682.476	0.532	correct	repeat	Run1	repeat/STIM_004.jpg
685.722	0.554	correct	repeat	Run1	repeat/STIM_004.jpg
689.252	0.87	correct	repeat	Run1	repeat/STIM_004.jpg
693.87	0.845	correct	repeat	Run1	repeat/STIM_005.jpg
697.178	0.713	correct	repeat	Run1	repeat/STIM_005.jpg
700.158	0.525	correct	repeat	Run1	repeat/STIM_005.jpg
703.454	0.501	correct	repeat	Run1	repeat/STIM_005.jpg
707.505	0.503	correct	repeat	Run1	repeat/STIM_005.jpg
711.828	0.839	correct	repeat	Run1	repeat/STIM_006.jpg
714.877	0.912	correct	repeat	Run1	repeat/STIM_006.jpg
718.414	0.461	correct	repeat	Run1	repeat/STIM_006.jpg
722.846	0.501	correct	repeat	Run1	repeat/STIM_006.jpg
726.079	0.52	correct	repeat	Run1	repeat/STIM_006.jpg
730.051	0.822	correct	repeat	Run1	repeat/STIM_007.jpg
734.794	0.495	correct	repeat	Run1	repeat/STIM_007.jpg
739.1	0.67	correct	repeat	Run1	repeat/STIM_007.jpg
742.994	0.63	correct	repeat	Run1	repeat/STIM_007.jpg
746.758	0.821	correct	repeat	Run1	repeat/STIM_007.jpg
750.674	0.793	correct	repeat	Run1	repeat/STIM_008.jpg
754.522	0.8	correct	repeat	Run1	repeat/STIM_008.jpg
758.148	0.772	correct	repeat	Run1	repeat/STIM_008.jpg
761.51	0.472	correct	repeat	Run1	repeat/STIM_008.jpg
764.134	0.788	correct	repeat	Run1	repeat/STIM_008.jpg
768.875	0.505	correct	repeat	Run1	repeat/STIM_009.jpg
771.907	0.685	correct	repeat	Run1	repeat/STIM_009.jpg
775.508	0.845	correct	repeat	Run1	repeat/STIM_009.jpg
779.395	0.825	correct	repeat	Run1	repeat/STIM_009.jpg
784.202	0.782	correct	repeat	Run1	repeat/STIM_009.jpg
788.119	0.636	correct	repeat	Run1	repeat/STIM_010.jpg
792.058	0.694	correct	repeat	Run1	repeat/STIM_010.jpg
796.33	0.516	correct	repeat	Run1	repeat/STIM_010.jpg
799.139	0.566	correct	repeat	Run1	repeat/STIM_010.jpg
801.84	0.721	correct	repeat	Run1	repeat/STIM_010.jpg
805.937	0.906	correct	repeat	Run1	repeat/STIM_011.jpg
810.843	0.919	correct	repeat	Run1	repeat/STIM_011.jpg
814.22	0.729	correct	repeat	Run1	repeat/STIM_011.jpg
818.635	0.471	correct	repeat	Run1	repeat/STIM_011.jpg
822.166	0.518	correct	repeat	Run1	repeat/STIM_011.jpg
825.509	0.462	correct	repeat	Run1	repeat/STIM_012.jpg
828.662	0.772	correct	repeat	Run1	repeat/STIM_012.jpg
832.722	0.62	correct	repeat	Run1	repeat/STIM_012.jpg
836.196	0.875	correct	repeat	Run1	repeat/STIM_012.jpg
839.278	0.665	correct	repeat	Run1	repeat/STIM_012.jpg
842.832	0.633	correct	repeat	Run1	repeat/STIM_013.jpg
847.297	0.588	correct	repeat	Run1	repeat/STIM_013.jpg
851.653	0.686	correct	repeat	Run1	repeat/STIM_013.jpg
855.401	0.764	correct	repeat	Run1	repeat/STIM_013.jpg
859.667	0.876	correct	repeat	Run1	repeat/STIM_013.jpg
863.542	0.598	correct	repeat	Run1	repeat/STIM_014.jpg
866.492	0.763	correct	repeat	Run1	repeat/STIM_014.jpg
870.418	0.688	correct	repeat	Run1	repeat/STIM_014.jpg
874.344	0.709	correct	repeat	Run1	repeat/STIM_014.jpg
878.708	0.679	correct	repeat	Run1	repeat/STIM_014.jpg
882.114	1.679	correct	generate	Run2	generate/STIM_000.jpg
887.001	1.238	correct	generate	Run2	generate/STIM_000.jpg
890.332	2.065	correct	generate	Run2	generate/STIM_000.jpg
895.432	1.111	correct	generate	Run2	generate/STIM_000.jpg
899.638	1.107	correct	generate	Run2	generate/STIM_000.jpg
902.771	1.492	incorrect	generate	Run2	generate/STIM_001.jpg
907.684	1.537	incorrect	generate	Run2	generate/STIM_001.jpg
911.231	1.476	correct	generate	Run2	generate/STIM_001.jpg
915.148	1.111	correct	generate	Run2	generate/STIM_001.jpg
918.45	1.456	incorrect	generate	Run2	generate/STIM_001.jpg
921.926	1.224	incorrect	generate	Run2	generate/STIM_002.jpg
925.977	1.105	incorrect	generate	Run2	generate/STIM_002.jpg
931.067	1.698	incorrect	generate	Run2	generate/STIM_002.jpg
936.182	0.776	incorrect	generate	Run2	generate/STIM_002.jpg
940.157	1.445	correct	generate	Run2	generate/STIM_002.jpg
943.977	1.991	correct	generate	Run2	generate/STIM_003.jpg
949.031	1.037	correct	generate	Run2	generate/STIM_003.jpg
953.13	1.283	correct	generate	Run2	generate/STIM_003.jpg
957.084	1.691	correct	generate	Run2	generate/STIM_003.jpg
962.487	1.911	incorrect	generate	Run2	generate/STIM_003.jpg
966.801	1.528	correct	generate	Run2	generate/STIM_004.jpg
971.031	1.075	incorrect	generate	Run2	generate/STIM_004.jpg
975.3	1.723	correct	generate	Run2	generate/STIM_004.jpg
980.131	1.258	correct	generate	Run2	generate/STIM_004.jpg
984.328	0.819	correct	generate	Run2	generate/STIM_004.jpg
988.463	1.442	correct	generate	Run2	generate/STIM_005.jpg
992.812	1.194	correct	generate	Run2	generate/STIM_005.jpg
996.975	1.7	correct	generate	Run2	generate/STIM_005.jpg
1002.352	1.756	correct	generate	Run2	generate/STIM_005.jpg
1007.361	1.635	correct	generate	Run2	generate/STIM_005.jpg
1011.077	2.159	correct	generate	Run2	generate/STIM_006.jpg
1015.345	1.279	correct	generate	Run2	generate/STIM_006.jpg
1020.219	1.79	correct	generate	Run2	generate/STIM_006.jpg
1025.517	1.178	correct	generate	Run2	generate/STIM_006.jpg
1029.22	0.913	correct	generate	Run2	generate/STIM_006.jpg
1032.301	1.997	correct	generate	Run2	generate/STIM_007.jpg
1037.826	1.233	correct	generate	Run2	generate/STIM_007.jpg
1042.532	1.536	correct	generate	Run2	generate/STIM_007.jpg
1047.527	1.581	correct	generate	Run2	generate/STIM_007.jpg
1052.617	1.696	correct	generate	Run2	generate/STIM_007.jpg
1057.587	1.976	correct	generate	Run2	generate/STIM_008.jpg
1062.389	1.114	correct	generate	Run2	generate/STIM_008.jpg
1065.834	1.325	incorrect	generate	Run2	generate/STIM_008.jpg
1070.335	1.646	correct	generate	Run2	generate/STIM_008.jpg
1074.736	0.883	correct	generate	Run2	generate/STIM_008.jpg
1078.455	1.065	correct	generate	Run2	generate/STIM_009.jpg
1082.28	2.193	correct	generate	Run2	generate/STIM_009.jpg
1087.323	1.339	correct	generate	Run2	generate/STIM_009.jpg
1091.023	1.896	correct	generate	Run2	generate/STIM_009.jpg
1096.402	1.545	correct	generate	Run2	generate/STIM_009.jpg
1101.396	1.482	incorrect	generate	Run2	generate/STIM_010.jpg
1105.006	1.777	incorrect	generate	Run2	generate/STIM_010.jpg
1108.822	1.803	correct	generate	Run2	generate/STIM_010.jpg
1114.099	0.932	correct	generate	Run2	generate/STIM_010.jpg
1118.808	1.642	correct	generate	Run2	generate/STIM_010.jpg
1123.044	1.313	correct	generate	Run2	generate/STIM_011.jpg
1126.667	0.957	incorrect	generate	Run2	generate/STIM_011.jpg
1130.132	1.778	correct	generate	Run2	generate/STIM_011.jpg
1134.717	0.912	correct	generate	Run2	generate/STIM_011.jpg
1138.347	0.852	correct	generate	Run2	generate/STIM_011.jpg
1141.305	1.644	correct	generate	Run2	generate/STIM_012.jpg
1145.256	1.571	correct	generate	Run2	generate/STIM_012.jpg
1149.611	1.814	correct	generate	Run2	generate/STIM_012.jpg
1153.839	1.862	correct	generate	Run2	generate/STIM_012.jpg
1159.408	1.763	correct	generate	Run2	generate/STIM_012.jpg
1164.156	1.794	correct	generate	Run2	generate/STIM_013.jpg
1168.814	1.877	incorrect	generate	Run2	generate/STIM_013.jpg
1174.246	1.837	correct	generate	Run2	generate/STIM_013.jpg
1179.173	0.846	correct	generate	Run2	generate/STIM_013.jpg
1182.811	1.615	correct	generate	Run2	generate/STIM_013.jpg
1186.892	1.077	correct	generate	Run2	generate/STIM_014.jpg
1191.601	1.797	incorrect	generate	Run2	generate/STIM_014.jpg
1196.617	1.407	correct	generate	Run2	generate/STIM_014.jpg
1200.06	1.748	correct	generate	Run2	generate/STIM_014.jpg
1205.299	1.306	correct	generate	Run2	generate/STIM_014.jpg
1209.641	1.611	correct	generate	Run2	generate/STIM_015.jpg
1213.425	0.901	incorrect	generate	Run2	generate/STIM_015.jpg
1217.126	1.918	correct	generate	Run2	generate/STIM_015.jpg
1221.567	1.369	correct	generate	Run2	generate/STIM_015.jpg
1226.568	1.76	correct	generate	Run2	generate/STIM_015.jpg
1231.456	2.14	correct	generate	Run2	generate/STIM_016.jpg
1236.798	1.429	correct	generate	Run2	generate/STIM_016.jpg
1240.962	0.867	correct	generate	Run2	generate/STIM_016.jpg
1244.936	1.88	correct	generate	Run2	generate/STIM_016.jpg
1250.263	1.818	correct	generate	Run2	generate/STIM_016.jpg
1255.259	1.624	incorrect	generate	Run2	generate/STIM_017.jpg
1260.73	2.144	correct	generate	Run2	generate/STIM_017.jpg
1266.584	1.147	correct	generate	Run2	generate/STIM_017.jpg
1270.592	0.835	correct	generate	Run2	generate/STIM_017.jpg
1274.855	1.096	correct	generate	Run2	generate/STIM_017.jpg
1278.794	1.513	incorrect	generate	Run2	generate/STIM_018.jpg
1284.005	1.373	correct	generate	Run2	generate/STIM_018.jpg
1287.851	2.051	correct	generate	Run2	generate/STIM_018.jpg
1292.942	0.824	correct	generate	Run2	generate/STIM_018.jpg
1295.855	1.516	correct	generate	Run2	generate/STIM_018.jpg
1300.651	2.264	correct	generate	Run2	generate/STIM_019.jpg
1306.659	1.721	correct	generate	Run2	generate/STIM_019.jpg
1312.242	0.998	correct	generate	Run2	generate/STIM_019.jpg
1316.711	1.702	incorrect	generate	Run2	generate/STIM_019.jpg
1322.026	1.497	correct	generate	Run2	generate/STIM_019.jpg
1327.43	2.341	correct	generate	Run2	generate/STIM_020.jpg
1331.945	0.918	correct	generate	Run2	generate/STIM_020.jpg
1336.312	1.623	incorrect	generate	Run2	generate/STIM_020.jpg
1340.0	1.083	correct	generate	Run2	generate/STIM_020.jpg
1344.393	1.666	correct	generate	Run2	generate/STIM_020.jpg
1349.992	2.296	correct	generate	Run2	generate/STIM_021.jpg
1354.43	2.0	incorrect	generate	Run2	generate/STIM_021.jpg
1360.142	0.85	correct	generate	Run2	generate/STIM_021.jpg
1363.957	1.19	correct	generate	Run2	generate/STIM_021.jpg
1368.821	1.023	correct	generate	Run2	generate/STIM_021.jpg
1372.284	1.767	incorrect	generate	Run2	generate/STIM_022.jpg
1377.379	1.025	correct	generate	Run2	generate/STIM_022.jpg
1381.911	1.012	correct	generate	Run2	generate/STIM_022.jpg
1385.695	0.79	correct	generate	Run2	generate/STIM_022.jpg
1389.393	1.583	incorrect	generate	Run2	generate/STIM_022.jpg
1394.305	1.722	correct	generate	Run2	generate/STIM_023.jpg
1399.689	1.013	correct	generate	Run2	generate/STIM_023.jpg
1404.69	1.871	correct	generate	Run2	generate/STIM_023.jpg
1408.664	1.746	correct	generate	Run2	generate/STIM_023.jpg
1413.332	1.238	correct	generate	Run2	generate/STIM_023.jpg
1417.414	1.246	correct	generate	Run2	generate/STIM_024.jpg
1421.952	1.797	correct	generate	Run2	generate/STIM_024.jpg
1427.306	2.06	correct	generate	Run2	generate/STIM_024.jpg
1432.993	1.498	correct	generate	Run2	generate/STIM_024.jpg
1437.511	0.78	correct	generate	Run2	generate/STIM_024.jpg
1441.057	0.708	correct	repeat	Run2	repeat/STIM_000.jpg
1444.85	0.505	correct	repeat	Run2	repeat/STIM_000.jpg
1449.158	0.669	correct	repeat	Run2	repeat/STIM_000.jpg
1453.255	0.873	correct	repeat	Run2	repeat/STIM_000.jpg
1457.917	0.516	correct	repeat	Run2	repeat/STIM_000.jpg
1462.241	0.816	correct	repeat	Run2	repeat/STIM_001.jpg
1465.704	0.683	correct	repeat	Run2	repeat/STIM_001.jpg
1469.856	0.867	correct	repeat	Run2	repeat/STIM_001.jpg
1473.097	0.553	correct	repeat	Run2	repeat/STIM_001.jpg
1476.762	0.618	correct	repeat	Run2	repeat/STIM_001.jpg
1479.909	0.834	incorrect	repeat	Run2	repeat/STIM_002.jpg
1483.801	0.835	correct	repeat	Run2	repeat/STIM_002.jpg
1488.119	0.547	correct	repeat	Run2	repeat/STIM_002.jpg
1490.789	0.822	correct	repeat	Run2	repeat/STIM_002.jpg
1495.029	0.633	correct	repeat	Run2	repeat/STIM_002.jpg
1499.379	0.64	incorrect	repeat	Run2	repeat/STIM_003.jpg
1503.185	0.549	incorrect	repeat	Run2	repeat/STIM_003.jpg
1506.141	0.535	correct	repeat	Run2	repeat/STIM_003.jpg
1509.892	0.852	correct	repeat	Run2	repeat/STIM_003.jpg
1513.985	0.683	correct	repeat	Run2	repeat/STIM_003.jpg
1518.605	0.496	correct	repeat	Run2	repeat/STIM_004.jpg
1522.632	0.908	correct	repeat	Run2	repeat/STIM_004.jpg
1526.944	0.85	correct	repeat	Run2	repeat/STIM_004.jpg
1530.039	0.754	correct	repeat	Run2	repeat/STIM_004.jpg
1533.034	0.908	correct	repeat	Run2	repeat/STIM_004.jpg
1536.482	0.56	correct	repeat	Run2	repeat/STIM_005.jpg
1539.742	0.486	correct	repeat	Run2	repeat/STIM_005.jpg
1543.773	0.586	correct	repeat	Run2	repeat/STIM_005.jpg
1547.112	0.476	correct	repeat	Run2	repeat/STIM_005.jpg
1551.229	0.472	correct	repeat	Run2	repeat/STIM_005.jpg
1554.738	0.887	correct	repeat	Run2	repeat/STIM_006.jpg
1557.651	0.806	correct	repeat	Run2	repeat/STIM_006.jpg
1562.176	0.496	correct	repeat	Run2	repeat/STIM_006.jpg
1566.15	0.88	correct	repeat	Run2	repeat/STIM_006.jpg
1570.825	0.909	correct	repeat	Run2	repeat/STIM_006.jpg
1574.058	0.514	correct	repeat	Run2	repeat/STIM_007.jpg
1578.239	0.467	correct	repeat	Run2	repeat/STIM_007.jpg
1581.963	0.543	correct	repeat	Run2	repeat/STIM_007.jpg
1585.078	0.718	correct	repeat	Run2	repeat/STIM_007.jpg
1589.441	0.837	correct	repeat	Run2	repeat/STIM_007.jpg
1593.586	0.616	correct	repeat	Run2	repeat/STIM_008.jpg
1596.352	0.644	correct	repeat	Run2	repeat/STIM_008.jpg
1599.098	0.649	correct	repeat	Run2	repeat/STIM_008.jpg
1603.298	0.765	correct	repeat	Run2	repeat/STIM_008.jpg
1606.184	0.738	incorrect	repeat	Run2	repeat/STIM_008.jpg
1610.308	0.682	correct	repeat	Run2	repeat/STIM_009.jpg
1614.391	0.524	correct	repeat	Run2	repeat/STIM_009.jpg
1618.803	0.63	correct	repeat	Run2	repeat/STIM_009.jpg
1621.754	0.904	correct	repeat	Run2	repeat/STIM_009.jpg
1624.991	0.488	correct	repeat	Run2	repeat/STIM_009.jpg
1628.998	0.806	correct	repeat	Run2	repeat/STIM_010.jpg
1631.804	0.847	correct	repeat	Run2	repeat/STIM_010.jpg
1635.38	0.919	correct	repeat	Run2	repeat/STIM_010.jpg
1638.515	0.478	correct	repeat	Run2	repeat/STIM_010.jpg
1642.369	0.616	correct	repeat	Run2	repeat/STIM_010.jpg
1645.973	0.783	correct	repeat	Run2	repeat/STIM_011.jpg
1650.654	0.696	correct	repeat	Run2	repeat/STIM_011.jpg
1655.2	0.665	correct	repeat	Run2	repeat/STIM_011.jpg
1659.321	0.471	correct	repeat	Run2	repeat/STIM_011.jpg
1662.944	0.711	correct	repeat	Run2	repeat/STIM_011.jpg
1666.264	0.789	correct	repeat	Run2	repeat/STIM_012.jpg
1669.769	0.771	correct	repeat	Run2	repeat/STIM_012.jpg
1673.856	0.549	correct	repeat	Run2	repeat/STIM_012.jpg
1677.525	0.864	correct	repeat	Run2	repeat/STIM_012.jpg
1682.308	0.855	correct	repeat	Run2	repeat/STIM_012.jpg
1686.757	0.82	correct	repeat	Run2	repeat/STIM_013.jpg
1690.338	0.54	correct	repeat	Run2	repeat/STIM_013.jpg
1693.598	0.855	correct	repeat	Run2	repeat/STIM_013.jpg
1696.913	0.866	correct	repeat	Run2	repeat/STIM_013.jpg
1701.335	0.732	correct	repeat	Run2	repeat/STIM_013.jpg
1704.883	0.57	correct	repeat	Run2	repeat/STIM_014.jpg
1707.811	0.778	correct	repeat	Run2	repeat/STIM_014.jpg
1711.145	0.48	correct	repeat	Run2	repeat/STIM_014.jpg
1714.491	0.579	correct	repeat	Run2	repeat/STIM_014.jpg
1718.459	0.589	correct	repeat	Run2	repeat/STIM_014.jpg
1722.114	1.798	incorrect	generate	Run3	generate/STIM_000.jpg
1726.814	0.792	correct	generate	Run3	generate/STIM_000.jpg
1731.32	1.308	correct	generate	Run3	generate/STIM_000.jpg
1735.357	1.524	correct	generate	Run3	generate/STIM_000.jpg
1739.979	1.797	correct	generate	Run3	generate/STIM_000.jpg
1745.574	1.511	correct	generate	Run3	generate/STIM_001.jpg
1750.13	1.784	correct	generate	Run3	generate/STIM_001.jpg
1754.382	0.896	correct	generate	Run3	generate/STIM_001.jpg
1758.353	0.941	correct	generate	Run3	generate/STIM_001.jpg
1762.786	1.675	correct	generate	Run3	generate/STIM_001.jpg
1766.518	1.633	correct	generate	Run3	generate/STIM_002.jpg
1771.607	1.889	correct	generate	Run3	generate/STIM_002.jpg
1775.519	1.545	correct	generate	Run3	generate/STIM_002.jpg
1780.722	1.859	correct	generate	Run3	generate/STIM_002.jpg
1785.169	1.81	correct	generate	Run3	generate/STIM_002.jpg
1790.358	1.779	correct	generate	Run3	generate/STIM_003.jpg
1795.492	1.393	incorrect	generate	Run3	generate/STIM_003.jpg
1800.748	1.468	correct	generate	Run3	generate/STIM_003.jpg
1806.196	1.022	correct	generate	Run3	generate/STIM_003.jpg
1810.108	0.918	correct	generate	Run3	generate/STIM_003.jpg
1813.182	1.776	correct	generate	Run3	generate/STIM_004.jpg
1818.896	1.077	incorrect	generate	Run3	generate/STIM_004.jpg
1823.193	1.449	correct	generate	Run3	generate/STIM_004.jpg
1827.919	1.166	correct	generate	Run3	generate/STIM_004.jpg
1832.203	1.676	correct	generate	Run3	generate/STIM_004.jpg
1837.673	1.065	incorrect	generate	Run3	generate/STIM_005.jpg
1841.971	1.85	correct	generate	Run3	generate/STIM_005.jpg
1847.723	1.473	incorrect	generate	Run3	generate/STIM_005.jpg
1851.584	0.782	correct	generate	Run3	generate/STIM_005.jpg
1855.374	1.702	correct	generate	Run3	generate/STIM_005.jpg
1859.365	1.216	correct	generate	Run3	generate/STIM_006.jpg
1862.844	1.788	correct	generate	Run3	generate/STIM_006.jpg
1867.694	1.155	correct	generate	Run3	generate/STIM_006.jpg
1872.219	1.209	correct	generate	Run3	generate/STIM_006.jpg
1875.95	1.7	correct	generate	Run3	generate/STIM_006.jpg
1879.882	1.794	correct	generate	Run3	generate/STIM_007.jpg
1884.041	1.188	correct	generate	Run3	generate/STIM_007.jpg
1888.077	1.258	correct	generate	Run3	generate/STIM_007.jpg
1892.644	1.922	correct	generate	Run3	generate/STIM_007.jpg
1897.277	1.708	incorrect	generate	Run3	generate/STIM_007.jpg
1902.857	1.9	correct	generate	Run3	generate/STIM_008.jpg
1907.145	1.154	correct	generate	Run3	generate/STIM_008.jpg
1910.557	1.581	correct	generate	Run3	generate/STIM_008.jpg
1915.519	0.893	incorrect	generate	Run3	generate/STIM_008.jpg
1920.179	1.312	correct	generate	Run3	generate/STIM_008.jpg
1924.931	1.787	correct	generate	Run3	generate/STIM_009.jpg
1928.826	1.428	correct	generate	Run3	generate/STIM_009.jpg
1933.076	0.831	correct	generate	Run3	generate/STIM_009.jpg
1936.743	1.617	incorrect	generate	Run3	generate/STIM_009.jpg
1942.093	1.26	correct	generate	Run3	generate/STIM_009.jpg
1946.038	1.765	correct	generate	Run3	generate/STIM_010.jpg
1951.011	1.877	correct	generate	Run3	generate/STIM_010.jpg
1955.989	1.503	correct	generate	Run3	generate/STIM_010.jpg
1960.525	0.848	correct	generate	Run3	generate/STIM_010.jpg
1964.52	1.551	correct	generate	Run3	generate/STIM_010.jpg
1969.245	1.479	incorrect	generate	Run3	generate/STIM_011.jpg
1973.81	1.472	correct	generate	Run3	generate/STIM_011.jpg
1977.852	1.793	correct	generate	Run3	generate/STIM_011.jpg
1982.711	1.086	correct	generate	Run3	generate/STIM_011.jpg
1987.774	0.779	correct	generate	Run3	generate/STIM_011.jpg
1991.158	1.578	correct	generate	Run3	generate/STIM_012.jpg
1995.674	1.364	correct	generate	Run3	generate/STIM_012.jpg
2000.827	1.829	correct	generate	Run3	generate/STIM_012.jpg
2006.506	1.48	incorrect	generate	Run3	generate/STIM_012.jpg
2011.239	1.51	correct	generate	Run3	generate/STIM_012.jpg
2015.211	0.914	incorrect	generate	Run3	generate/STIM_013.jpg
2019.384	1.063	correct	generate	Run3	generate/STIM_013.jpg
2023.133	1.281	correct	generate	Run3	generate/STIM_013.jpg
2027.328	1.308	correct	generate	Run3	generate/STIM_013.jpg
2032.088	0.831	correct	generate	Run3	generate/STIM_013.jpg
2035.796	1.197	correct	generate	Run3	generate/STIM_014.jpg
2040.769	1.705	correct	generate	Run3	generate/STIM_014.jpg
2045.668	1.9	correct	generate	Run3	generate/STIM_014.jpg
2049.902	1.719	correct	generate	Run3	generate/STIM_014.jpg
2055.134	0.966	correct	generate	Run3	generate/STIM_014.jpg
2059.349	1.084	correct	generate	Run3	generate/STIM_015.jpg
2063.273	0.972	correct	generate	Run3	generate/STIM_015.jpg
2068.185	1.561	correct	generate	Run3	generate/STIM_015.jpg
2073.64	0.812	correct	generate	Run3	generate/STIM_015.jpg
2078.201	0.89	correct	generate	Run3	generate/STIM_015.jpg
2081.1	1.486	incorrect	generate	Run3	generate/STIM_016.jpg
2085.493	1.034	correct	generate	Run3	generate/STIM_016.jpg
2090.406	1.851	correct	generate	Run3	generate/STIM_016.jpg
2094.548	1.45	correct	generate	Run3	generate/STIM_016.jpg
2099.546	1.267	correct	generate	Run3	generate/STIM_016.jpg
2103.117	1.283	correct	generate	Run3	generate/STIM_017.jpg
2107.376	1.9	incorrect	generate	Run3	generate/STIM_017.jpg
2111.923	1.629	correct	generate	Run3	generate/STIM_017.jpg
2115.959	1.616	correct	generate	Run3	generate/STIM_017.jpg
2119.828	1.018	correct	generate	Run3	generate/STIM_017.jpg
2124.371	1.399	correct	generate	Run3	generate/STIM_018.jpg
2128.156	1.526	correct	generate	Run3	generate/STIM_018.jpg
2132.282	0.963	correct	generate	Run3	generate/STIM_018.jpg
2135.69	0.891	correct	generate	Run3	generate/STIM_018.jpg
2140.222	1.064	correct	generate	Run3	generate/STIM_018.jpg
2144.993	1.33	correct	generate	Run3	generate/STIM_019.jpg
2148.43	1.284	incorrect	generate	Run3	generate/STIM_019.jpg
2151.725	1.246	correct	generate	Run3	generate/STIM_019.jpg
2155.353	1.417	correct	generate	Run3	generate/STIM_019.jpg
2158.897	1.714	correct	generate	Run3	generate/STIM_019.jpg
2163.382	0.909	correct	generate	Run3	generate/STIM_020.jpg
2167.465	1.584	correct	generate	Run3	generate/STIM_020.jpg
2171.658	1.436	correct	generate	Run3	generate/STIM_020.jpg
2176.754	1.003	correct	generate	Run3	generate/STIM_020.jpg
2180.081	1.366	incorrect	generate	Run3	generate/STIM_020.jpg
2183.929	1.447	incorrect	generate	Run3	generate/STIM_021.jpg
2188.439	0.786	correct	generate	Run3	generate/STIM_021.jpg
2192.557	0.816	correct	generate	Run3	generate/STIM_021.jpg
2196.467	0.882	correct	generate	Run3	generate/STIM_021.jpg
2201.148	1.094	correct	generate	Run3	generate/STIM_021.jpg
2205.945	1.56	incorrect	generate	Run3	generate/STIM_022.jpg
2209.682	1.122	correct	generate	Run3	generate/STIM_022.jpg
2214.259	1.362	correct	generate	Run3	generate/STIM_022.jpg
2219.574	0.972	correct	generate	Run3	generate/STIM_022.jpg
2224.215	1.196	correct	generate	Run3	generate/STIM_022.jpg
2228.615	1.419	correct	generate	Run3	generate/STIM_023.jpg
2232.415	1.202	correct	generate	Run3	generate/STIM_023.jpg
2237.411	0.829	correct	generate	Run3	generate/STIM_023.jpg
2240.944	1.093	correct	generate	Run3	generate/STIM_023.jpg
2245.009	1.128	correct	generate	Run3	generate/STIM_023.jpg
2249.254	1.698	correct	generate	Run3	generate/STIM_024.jpg
2254.448	0.998	correct	generate	Run3	generate/STIM_024.jpg
2257.884	1.191	correct	generate	Run3	generate/STIM_024.jpg
2261.541	1.738	correct	generate	Run3	generate/STIM_024.jpg
2265.864	1.812	correct	generate	Run3	generate/STIM_024.jpg
2269.865	0.576	correct	repeat	Run3	repeat/STIM_000.jpg
2273.218	0.835	correct	repeat	Run3	repeat/STIM_000.jpg
2277.156	0.643	correct	repeat	Run3	repeat/STIM_000.jpg
2279.84	0.485	correct	repeat	Run3	repeat/STIM_000.jpg
2284.086	0.612	correct	repeat	Run3	repeat/STIM_000.jpg
2288.647	0.75	correct	repeat	Run3	repeat/STIM_001.jpg
2293.041	0.7	correct	repeat	Run3	repeat/STIM_001.jpg
2296.604	0.842	correct	repeat	Run3	repeat/STIM_001.jpg
2301.336	0.759	correct	repeat	Run3	repeat/STIM_001.jpg
2306.054	0.579	correct	repeat	Run3	repeat/STIM_001.jpg
2308.647	0.833	correct	repeat	Run3	repeat/STIM_002.jpg
2312.484	0.703	incorrect	repeat	Run3	repeat/STIM_002.jpg
2316.3	0.83	correct	repeat	Run3	repeat/STIM_002.jpg
2319.324	0.471	correct	repeat	Run3	repeat/STIM_002.jpg
2322.123	0.894	correct	repeat	Run3	repeat/STIM_002.jpg
2325.213	0.478	correct	repeat	Run3	repeat/STIM_003.jpg
2328.417	0.911	correct	repeat	Run3	repeat/STIM_003.jpg
2332.191	0.471	correct	repeat	Run3	repeat/STIM_003.jpg
2336.207	0.8	correct	repeat	Run3	repeat/STIM_003.jpg
2339.786	0.668	correct	repeat	Run3	repeat/STIM_003.jpg
2342.895	0.496	correct	repeat	Run3	repeat/STIM_004.jpg
2346.13	0.629	correct	repeat	Run3	repeat/STIM_004.jpg
2349.611	0.477	correct	repeat	Run3	repeat/STIM_004.jpg
2352.942	0.511	correct	repeat	Run3	repeat/STIM_004.jpg
2355.623	0.537	correct	repeat	Run3	repeat/STIM_004.jpg
2358.934	0.618	correct	repeat	Run3	repeat/STIM_005.jpg
2362.798	0.72	correct	repeat	Run3	repeat/STIM_005.jpg
2365.645	0.481	correct	repeat	Run3	repeat/STIM_005.jpg
2368.848	0.811	incorrect	repeat	Run3	repeat/STIM_005.jpg
2372.45	0.864	correct	repeat	Run3	repeat/STIM_005.jpg
2377.024	0.852	correct	repeat	Run3	repeat/STIM_006.jpg
2380.676	0.681	correct	repeat	Run3	repeat/STIM_006.jpg
2383.562	0.613	correct	repeat	Run3	repeat/STIM_006.jpg
2387.518	0.583	correct	repeat	Run3	repeat/STIM_006.jpg
2390.329	0.882	correct	repeat	Run3	repeat/STIM_006.jpg
2393.255	0.561	correct	repeat	Run3	repeat/STIM_007.jpg
2396.328	0.506	correct	repeat	Run3	repeat/STIM_007.jpg
2399.987	0.568	correct	repeat	Run3	repeat/STIM_007.jpg
2402.699	0.818	correct	repeat	Run3	repeat/STIM_007.jpg
2407.139	0.751	correct	repeat	Run3	repeat/STIM_007.jpg
2410.443	0.685	correct	repeat	Run3	repeat/STIM_008.jpg
2413.688	0.559	correct	repeat	Run3	repeat/STIM_008.jpg
2417.043	0.661	correct	repeat	Run3	repeat/STIM_008.jpg
2421.185	0.55	correct	repeat	Run3	repeat/STIM_008.jpg
2425.642	0.902	correct	repeat	Run3	repeat/STIM_008.jpg
2428.799	0.492	correct	repeat	Run3	repeat/STIM_009.jpg
2432.376	0.597	correct	repeat	Run3	repeat/STIM_009.jpg
2435.367	0.512	correct	repeat	Run3	repeat/STIM_009.jpg
2438.055	0.856	correct	repeat	Run3	repeat/STIM_009.jpg
2441.446	0.499	correct	repeat	Run3	repeat/STIM_009.jpg
2444.543	0.618	incorrect	repeat	Run3	repeat/STIM_010.jpg
2447.269	0.495	correct	repeat	Run3	repeat/STIM_010.jpg
2451.522	0.661	correct	repeat	Run3	repeat/STIM_010.jpg
2455.126	0.505	correct	repeat	Run3	repeat/STIM_010.jpg
2459.57	0.519	correct	repeat	Run3	repeat/STIM_010.jpg
2462.685	0.622	correct	repeat	Run3	repeat/STIM_011.jpg
2465.434	0.692	correct	repeat	Run3	repeat/STIM_011.jpg
2468.836	0.568	correct	repeat	Run3	repeat/STIM_011.jpg
2472.567	0.565	correct	repeat	Run3	repeat/STIM_011.jpg
2476.443	0.73	correct	repeat	Run3	repeat/STIM_011.jpg
2480.397	0.54	correct	repeat	Run3	repeat/STIM_012.jpg
2484.679	0.829	correct	repeat	Run3	repeat/STIM_012.jpg
2487.87	0.649	correct	repeat	Run3	repeat/STIM_012.jpg
2491.078	0.515	correct	repeat	Run3	repeat/STIM_012.jpg
2495.195	0.823	correct	repeat	Run3	repeat/STIM_012.jpg
2498.916	0.512	correct	repeat	Run3	repeat/STIM_013.jpg
2501.531	0.841	correct	repeat	Run3	repeat/STIM_013.jpg
2505.179	0.514	correct	repeat	Run3	repeat/STIM_013.jpg
2509.521	0.846	correct	repeat	Run3	repeat/STIM_013.jpg
2514.366	0.892	correct	repeat	Run3	repeat/STIM_013.jpg
2519.087	0.6	correct	repeat	Run3	repeat/STIM_014.jpg
2522.997	0.68	correct	repeat	Run3	repeat/STIM_014.jpg
2526.625	0.808	incorrect	repeat	Run3	repeat/STIM_014.jpg
2531.391	0.779	correct	repeat	Run3	repeat/STIM_014.jpg
2535.554	0.868	correct	repeat	Run3	repeat/STIM_014.jpg
2539.693	0.804	correct	generate	Run4	generate/STIM_000.jpg
2543.318	1.524	incorrect	generate	Run4	generate/STIM_000.jpg
2548.256	1.825	correct	generate	Run4	generate/STIM_000.jpg
2552.119	1.436	correct	generate	Run4	generate/STIM_000.jpg
2556.334	1.407	correct	generate	Run4	generate/STIM_000.jpg
2560.718	1.488	correct	generate	Run4	generate/STIM_001.jpg
2564.803	1.857	correct	generate	Run4	generate/STIM_001.jpg
2570.089	1.866	correct	generate	Run4	generate/STIM_001.jpg
2574.396	1.062	correct	generate	Run4	generate/STIM_001.jpg
2577.62	1.47	correct	generate	Run4	generate/STIM_001.jpg
2583.024	1.804	correct	generate	Run4	generate/STIM_002.jpg
2587.612	1.832	correct	generate	Run4	generate/STIM_002.jpg
2592.61	1.504	correct	generate	Run4	generate/STIM_002.jpg
2596.488	1.548	correct	generate	Run4	generate/STIM_002.jpg
2600.699	1.34	correct	generate	Run4	generate/STIM_002.jpg
2604.862	1.188	correct	generate	Run4	generate/STIM_003.jpg
2609.28	1.587	incorrect	generate	Run4	generate/STIM_003.jpg
2614.835	1.855	correct	generate	Run4	generate/STIM_003.jpg
2620.199	1.428	correct	generate	Run4	generate/STIM_003.jpg
2624.279	1.65	correct	generate	Run4	generate/STIM_003.jpg
2628.165	0.777	correct	generate	Run4	generate/STIM_004.jpg
2632.362	1.562	correct	generate	Run4	generate/STIM_004.jpg
2636.793	1.502	correct	generate	Run4	generate/STIM_004.jpg
2641.237	1.593	correct	generate	Run4	generate/STIM_004.jpg
2646.612	0.823	correct	generate	Run4	generate/STIM_004.jpg
2649.654	0.814	correct	generate	Run4	generate/STIM_005.jpg
2654.075	1.487	correct	generate	Run4	generate/STIM_005.jpg
2658.627	1.804	correct	generate	Run4	generate/STIM_005.jpg
2664.019	1.013	correct	generate	Run4	generate/STIM_005.jpg
2668.838	1.4	correct	generate	Run4	generate/STIM_005.jpg
2673.703	1.91	correct	generate	Run4	generate/STIM_006.jpg
2678.529	1.048	correct	generate	Run4	generate/STIM_006.jpg
2682.551	1.379	correct	generate	Run4	generate/STIM_006.jpg
2687.33	1.351	correct	generate	Run4	generate/STIM_006.jpg
2692.493	1.016	correct	generate	Run4	generate/STIM_006.jpg
2697.242	1.209	correct	generate	Run4	generate/STIM_007.jpg
2702.076	1.658	correct	generate	Run4	generate/STIM_007.jpg
2706.611	1.216	correct	generate	Run4	generate/STIM_007.jpg
2711.259	1.055	correct	generate	Run4	generate/STIM_007.jpg
2715.248	1.31	correct	generate	Run4	generate/STIM_007.jpg
2720.544	1.872	correct	generate	Run4	generate/STIM_008.jpg
2724.709	1.454	correct	generate	Run4	generate/STIM_008.jpg
2729.911	1.585	correct	generate	Run4	generate/STIM_008.jpg
2733.802	1.706	incorrect	generate	Run4	generate/STIM_008.jpg
2738.572	1.581	correct	generate	Run4	generate/STIM_008.jpg
2742.888	1.187	correct	generate	Run4	generate/STIM_009.jpg
2747.468	1.239	correct	generate	Run4	generate/STIM_009.jpg
2751.582	1.078	correct	generate	Run4	generate/STIM_009.jpg
2755.619	1.212	correct	generate	Run4	generate/STIM_009.jpg
2759.569	1.243	correct	generate	Run4	generate/STIM_009.jpg
2764.282	1.844	correct	generate	Run4	generate/STIM_010.jpg
2770.051	0.821	correct	generate	Run4	generate/STIM_010.jpg
2773.038	0.924	correct	generate	Run4	generate/STIM_010.jpg
2777.29	0.894	correct	generate	Run4	generate/STIM_010.jpg
2782.097	1.464	correct	generate	Run4	generate/STIM_010.jpg
2786.353	1.595	correct	generate	Run4	generate/STIM_011.jpg
2789.989	1.396	correct	generate	Run4	generate/STIM_011.jpg
2794.265	0.864	correct	generate	Run4	generate/STIM_011.jpg
2797.985	1.066	correct	generate	Run4	generate/STIM_011.jpg
2801.615	1.682	correct	generate	Run4	generate/STIM_011.jpg
2805.714	1.582	correct	generate	Run4	generate/STIM_012.jpg
2809.707	1.837	correct	generate	Run4	generate/STIM_012.jpg
2814.676	1.269	correct	generate	Run4	generate/STIM_012.jpg
2819.569	1.839	correct	generate	Run4	generate/STIM_012.jpg
2824.429	1.102	correct	generate	Run4	generate/STIM_012.jpg
2828.895	1.583	correct	generate	Run4	generate/STIM_013.jpg
2834.168	1.736	correct	generate	Run4	generate/STIM_013.jpg
2837.992	1.726	correct	generate	Run4	generate/STIM_013.jpg
2841.915	1.391	correct	generate	Run4	generate/STIM_013.jpg
2846.782	1.639	correct	generate	Run4	generate/STIM_013.jpg
2852.203	1.698	correct	generate	Run4	generate/STIM_014.jpg
2856.039	1.776	correct	generate	Run4	generate/STIM_014.jpg
2860.795	1.129	correct	generate	Run4	generate/STIM_014.jpg
2864.91	1.023	correct	generate	Run4	generate/STIM_014.jpg
2868.167	0.839	correct	generate	Run4	generate/STIM_014.jpg
2871.36	1.289	correct	generate	Run4	generate/STIM_015.jpg
2876.288	1.868	correct	generate	Run4	generate/STIM_015.jpg
2881.373	1.118	incorrect	generate	Run4	generate/STIM_015.jpg
2886.447	0.854	correct	generate	Run4	generate/STIM_015.jpg
2889.738	1.072	correct	generate	Run4	generate/STIM_015.jpg
2893.471	1.202	correct	generate	Run4	generate/STIM_016.jpg
2897.503	1.564	correct	generate	Run4	generate/STIM_016.jpg
2903.045	0.898	correct	generate	Run4	generate/STIM_016.jpg
2907.217	1.772	correct	generate	Run4	generate/STIM_016.jpg
2911.741	1.883	correct	generate	Run4	generate/STIM_016.jpg
2917.151	1.01	incorrect	generate	Run4	generate/STIM_017.jpg
2921.292	1.48	correct	generate	Run4	generate/STIM_017.jpg
2925.068	1.547	correct	generate	Run4	generate/STIM_017.jpg
2930.209	0.81	correct	generate	Run4	generate/STIM_017.jpg
2934.186	0.806	correct	generate	Run4	generate/STIM_017.jpg
2937.177	1.159	correct	generate	Run4	generate/STIM_018.jpg
2940.574	1.832	correct	generate	Run4	generate/STIM_018.jpg
2944.447	1.696	correct	generate	Run4	generate/STIM_018.jpg
2948.342	1.35	correct	generate	Run4	generate/STIM_018.jpg
2953.571	1.747	incorrect	generate	Run4	generate/STIM_018.jpg
2957.795	0.973	correct	generate	Run4	generate/STIM_019.jpg
2962.318	0.836	correct	generate	Run4	generate/STIM_019.jpg
2965.302	1.151	correct	generate	Run4	generate/STIM_019.jpg
2968.917	1.109	correct	generate	Run4	generate/STIM_019.jpg
2972.517	1.444	correct	generate	Run4	generate/STIM_019.jpg
2976.048	1.257	correct	generate	Run4	generate/STIM_020.jpg
2979.461	1.278	incorrect	generate	Run4	generate/STIM_020.jpg
2984.511	1.201	correct	generate	Run4	generate/STIM_020.jpg
2988.947	1.033	correct	generate	Run4	generate/STIM_020.jpg
2993.404	0.823	correct	generate	Run4	generate/STIM_020.jpg
2997.885	1.395	correct	generate	Run4	generate/STIM_021.jpg
3001.721	1.353	correct	generate	Run4	generate/STIM_021.jpg
3006.991	0.794	correct	generate	Run4	generate/STIM_021.jpg
3010.531	1.382	correct	generate	Run4	generate/STIM_021.jpg
3014.071	0.921	correct	generate	Run4	generate/STIM_021.jpg
3017.701	1.573	correct	generate	Run4	generate/STIM_022.jpg
3023.148	1.667	correct	generate	Run4	generate/STIM_022.jpg
3026.952	1.256	correct	generate	Run4	generate/STIM_022.jpg
3031.325	0.843	correct	generate	Run4	generate/STIM_022.jpg
3035.96	1.77	correct	generate	Run4	generate/STIM_022.jpg
3039.869	1.477	incorrect	generate	Run4	generate/STIM_023.jpg
3043.805	1.913	correct	generate	Run4	generate/STIM_023.jpg
3048.354	1.314	correct	generate	Run4	generate/STIM_023.jpg
3052.624	1.596	correct	generate	Run4	generate/STIM_023.jpg
3056.972	1.404	correct	generate	Run4	generate/STIM_023.jpg
3060.918	1.617	correct	generate	Run4	generate/STIM_024.jpg
3065.476	1.684	correct	generate	Run4	generate/STIM_024.jpg
3071.155	1.198	correct	generate	Run4	generate/STIM_024.jpg
3075.233	1.485	correct	generate	Run4	generate/STIM_024.jpg
3080.16	0.784	correct	generate	Run4	generate/STIM_024.jpg
3083.528	0.739	correct	repeat	Run4	repeat/STIM_000.jpg
3086.719	0.7	correct	repeat	Run4	repeat/STIM_000.jpg
3090.406	0.741	correct	repeat	Run4	repeat/STIM_000.jpg
3093.243	0.79	correct	repeat	Run4	repeat/STIM_000.jpg
3096.753	0.7	correct	repeat	Run4	repeat/STIM_000.jpg
3100.415	0.784	correct	repeat	Run4	repeat/STIM_001.jpg
3103.519	0.8	correct	repeat	Run4	repeat/STIM_001.jpg
3107.555	0.64	correct	repeat	Run4	repeat/STIM_001.jpg
3110.659	0.59	correct	repeat	Run4	repeat/STIM_001.jpg
3113.873	0.629	correct	repeat	Run4	repeat/STIM_001.jpg
3117.754	0.64	correct	repeat	Run4	repeat/STIM_002.jpg
3121.587	0.799	correct	repeat	Run4	repeat/STIM_002.jpg
3124.795	0.777	correct	repeat	Run4	repeat/STIM_002.jpg
3127.946	0.588	correct	repeat	Run4	repeat/STIM_002.jpg
3132.422	0.822	correct	repeat	Run4	repeat/STIM_002.jpg
3136.335	0.869	correct	repeat	Run4	repeat/STIM_003.jpg
3140.706	0.845	incorrect	repeat	Run4	repeat/STIM_003.jpg
3144.533	0.741	correct	repeat	Run4	repeat/STIM_003.jpg
3148.538	0.605	incorrect	repeat	Run4	repeat/STIM_003.jpg
3151.37	0.85	correct	repeat	Run4	repeat/STIM_003.jpg
3154.682	0.594	correct	repeat	Run4	repeat/STIM_004.jpg
3159.176	0.62	incorrect	repeat	Run4	repeat/STIM_004.jpg
3163.563	0.752	correct	repeat	Run4	repeat/STIM_004.jpg
3166.537	0.802	correct	repeat	Run4	repeat/STIM_004.jpg
3170.158	0.784	correct	repeat	Run4	repeat/STIM_004.jpg
3173.211	0.905	correct	repeat	Run4	repeat/STIM_005.jpg
3177.324	0.62	correct	repeat	Run4	repeat/STIM_005.jpg
3180.929	0.544	correct	repeat	Run4	repeat/STIM_005.jpg
3183.721	0.899	correct	repeat	Run4	repeat/STIM_005.jpg
3187.225	0.522	correct	repeat	Run4	repeat/STIM_005.jpg
3190.361	0.603	correct	repeat	Run4	repeat/STIM_006.jpg
3194.177	0.566	correct	repeat	Run4	repeat/STIM_006.jpg
3198.08	0.558	incorrect	repeat	Run4	repeat/STIM_006.jpg
3201.876	0.78	correct	repeat	Run4	repeat/STIM_006.jpg
3206.387	0.568	correct	repeat	Run4	repeat/STIM_006.jpg
3209.706	0.765	correct	repeat	Run4	repeat/STIM_007.jpg
3214.21	0.558	correct	repeat	Run4	repeat/STIM_007.jpg
3218.214	0.605	correct	repeat	Run4	repeat/STIM_007.jpg
3222.694	0.882	correct	repeat	Run4	repeat/STIM_007.jpg
3226.019	0.74	correct	repeat	Run4	repeat/STIM_007.jpg
3229.435	0.823	correct	repeat	Run4	repeat/STIM_008.jpg
3234.047	0.512	correct	repeat	Run4	repeat/STIM_008.jpg
3237.461	0.894	incorrect	repeat	Run4	repeat/STIM_008.jpg
3240.666	0.816	correct	repeat	Run4	repeat/STIM_008.jpg
3243.848	0.789	correct	repeat	Run4	repeat/STIM_008.jpg
3247.794	0.841	incorrect	repeat	Run4	repeat/STIM_009.jpg
3252.044	0.493	correct	repeat	Run4	repeat/STIM_009.jpg
3254.782	0.879	correct	repeat	Run4	repeat/STIM_009.jpg
3259.292	0.852	correct	repeat	Run4	repeat/STIM_009.jpg
3262.228	0.755	correct	repeat	Run4	repeat/STIM_009.jpg
3266.39	0.619	correct	repeat	Run4	repeat/STIM_010.jpg
3269.62	0.694	correct	repeat	Run4	repeat/STIM_010.jpg
3273.258	0.679	correct	repeat	Run4	repeat/STIM_010.jpg
3276.008	0.651	correct	repeat	Run4	repeat/STIM_010.jpg
3279.338	0.517	incorrect	repeat	Run4	repeat/STIM_010.jpg
3283.611	0.827	correct	repeat	Run4	repeat/STIM_011.jpg
3287.15	0.908	correct	repeat	Run4	repeat/STIM_011.jpg
3291.062	0.644	correct	repeat	Run4	repeat/STIM_011.jpg
3294.302	0.754	incorrect	repeat	Run4	repeat/STIM_011.jpg
3297.296	0.615	incorrect	repeat	Run4	repeat/STIM_011.jpg
3301.598	0.563	correct	repeat	Run4	repeat/STIM_012.jpg
3305.998	0.854	correct	repeat	Run4	repeat/STIM_012.jpg
3310.262	0.612	correct	repeat	Run4	repeat/STIM_012.jpg
3314.232	0.727	correct	repeat	Run4	repeat/STIM_012.jpg
3317.802	0.631	correct	repeat	Run4	repeat/STIM_012.jpg
3321.083	0.718	incorrect	repeat	Run4	repeat/STIM_013.jpg
3323.986	0.897	correct	repeat	Run4	repeat/STIM_013.jpg
3328.578	0.712	correct	repeat	Run4	repeat/STIM_013.jpg
3332.35	0.87	correct	repeat	Run4	repeat/STIM_013.jpg
3335.766	0.557	correct	repeat	Run4	repeat/STIM_013.jpg
3339.631	0.655	correct	repeat	Run4	repeat/STIM_014.jpg
3343.818	0.653	correct	repeat	Run4	repeat/STIM_014.jpg
3347.031	0.651	incorrect	repeat	Run4	repeat/STIM_014.jpg
3350.532	0.847	correct	repeat	Run4	repeat/STIM_014.jpg
3354.217	0.671	correct	repeat	Run4	repeat/STIM_014.jpg
