onset	duration	accuracy_binary	trial_type	learning_stage	stimulus
0.0	1.132	1	generate	Run1	generate/STIM_000.jpg
5.017	1.748	1	generate	Run1	generate/STIM_000.jpg
8.793	2.008	1	generate	Run1	generate/STIM_000.jpg
13.189	1.705	1	generate	Run1	generate/STIM_000.jpg
18.585	1.324	0	generate	Run1	generate/STIM_000.jpg
23.304	2.492	1	generate	Run1	generate/STIM_001.jpg
29.051	2.568	0	generate	Run1	generate/STIM_001.jpg
33.746	1.032	1	generate	Run1	generate/STIM_001.jpg
37.894	0.977	1	generate	Run1	generate/STIM_001.jpg
42.191	1.374	1	generate	Run1	generate/STIM_001.jpg
47.292	1.573	1	generate	Run1	generate/STIM_002.jpg
52.353	2.54	0	generate	Run1	generate/STIM_002.jpg
58.24	2.361	1	generate	Run1	generate/STIM_002.jpg
63.408	1.258	0	generate	Run1	generate/STIM_002.jpg
68.1	1.647	1	generate	Run1	generate/STIM_002.jpg
73.179	1.725	1	generate	Run1	generate/STIM_003.jpg
78.212	2.367	1	generate	Run1	generate/STIM_003.jpg
82.646	1.871	1	generate	Run1	generate/STIM_003.jpg
87.818	1.84	1	generate	Run1	generate/STIM_003.jpg
92.081	1.68	1	generate	Run1	generate/STIM_003.jpg
97.163	1.705	1	generate	Run1	generate/STIM_004.jpg
102.384	1.377	0	generate	Run1	generate/STIM_004.jpg
107.486	1.137	1	generate	Run1	generate/STIM_004.jpg
112.524	1.182	1	generate	Run1	generate/STIM_004.jpg
116.443	0.93	0	generate	Run1	generate/STIM_004.jpg
120.713	2.576	1	generate	Run1	generate/STIM_005.jpg
127.139	2.519	1	generate	Run1	generate/STIM_005.jpg
132.237	1.04	1	generate	Run1	generate/STIM_005.jpg
136.504	1.024	0	generate	Run1	generate/STIM_005.jpg
141.279	2.128	1	generate	Run1	generate/STIM_005.jpg
146.436	1.429	1	generate	Run1	generate/STIM_006.jpg
150.375	1.771	1	generate	Run1	generate/STIM_006.jpg
155.479	1.139	1	generate	Run1	generate/STIM_006.jpg
159.795	2.118	1	generate	Run1	generate/STIM_006.jpg
165.863	1.874	1	generate	Run1	generate/STIM_006.jpg
170.427	1.993	1	generate	Run1	generate/STIM_007.jpg
174.59	1.829	1	generate	Run1	generate/STIM_007.jpg
180.17	1.944	1	generate	Run1	generate/STIM_007.jpg
185.668	1.072	0	generate	Run1	generate/STIM_007.jpg
190.726	1.121	1	generate	Run1	generate/STIM_007.jpg
194.878	2.474	1	generate	Run1	generate/STIM_008.jpg
200.701	1.138	1	generate	Run1	generate/STIM_008.jpg
204.758	2.408	1	generate	Run1	generate/STIM_008.jpg
210.364	1.25	1	generate	Run1	generate/STIM_008.jpg
214.009	1.7	1	generate	Run1	generate/STIM_008.jpg
218.102	1.365	0	generate	Run1	generate/STIM_009.jpg
222.462	1.107	0	generate	Run1	generate/STIM_009.jpg
227.289	1.93	1	generate	Run1	generate/STIM_009.jpg
232.584	2.003	1	generate	Run1	generate/STIM_009.jpg
237.45	1.424	1	generate	Run1	generate/STIM_009.jpg
242.172	1.803	1	generate	Run1	generate/STIM_010.jpg
247.581	2.109	1	generate	Run1	generate/STIM_010.jpg
253.062	1.799	1	generate	Run1	generate/STIM_010.jpg
258.685	2.235	0	generate	Run1	generate/STIM_010.jpg
263.346	1.098	1	generate	Run1	generate/STIM_010.jpg
267.663	1.168	1	generate	Run1	generate/STIM_011.jpg
272.627	1.561	1	generate	Run1	generate/STIM_011.jpg
276.748	1.951	1	generate	Run1	generate/STIM_011.jpg
280.866	1.448	0	generate	Run1	generate/STIM_011.jpg
286.132	0.923	0	generate	Run1	generate/STIM_011.jpg
290.229	2.166	1	generate	Run1	generate/STIM_012.jpg
295.965	2.133	1	generate	Run1	generate/STIM_012.jpg
300.919	1.031	0	generate	Run1	generate/STIM_012.jpg
305.421	2.13	1	generate	Run1	generate/STIM_012.jpg
310.026	1.994	0	generate	Run1	generate/STIM_012.jpg
315.589	2.609	1	generate	Run1	generate/STIM_013.jpg
321.924	1.486	0	generate	Run1	generate/STIM_013.jpg
326.403	1.014	1	generate	Run1	generate/STIM_013.jpg
331.311	1.198	1	generate	Run1	generate/STIM_013.jpg
336.055	1.365	1	generate	Run1	generate/STIM_013.jpg
340.093	2.732	1	generate	Run1	generate/STIM_014.jpg
346.581	1.224	0	generate	Run1	generate/STIM_014.jpg
350.959	1.234	0	generate	Run1	generate/STIM_014.jpg
354.323	2.106	1	generate	Run1	generate/STIM_014.jpg
359.237	1.918	1	generate	Run1	generate/STIM_014.jpg
363.98	2.411	1	generate	Run1	generate/STIM_015.jpg
368.535	1.505	0	generate	Run1	generate/STIM_015.jpg
373.845	2.412	1	generate	Run1	generate/STIM_015.jpg
380.136	1.85	1	generate	Run1	generate/STIM_015.jpg
385.871	1.383	0	generate	Run1	generate/STIM_015.jpg
390.735	1.449	0	generate	Run1	generate/STIM_016.jpg
395.141	1.817	1	generate	Run1	generate/STIM_016.jpg
400.615	1.815	1	generate	Run1	generate/STIM_016.jpg
404.859	1.758	1	generate	Run1	generate/STIM_016.jpg
409.444	0.911	1	generate	Run1	generate/STIM_016.jpg
413.93	1.373	1	generate	Run1	generate/STIM_017.jpg
418.833	1.072	0	generate	Run1	generate/STIM_017.jpg
423.287	1.068	0	generate	Run1	generate/STIM_017.jpg
427.355	1.247	1	generate	Run1	generate/STIM_017.jpg
430.915	1.344	1	generate	Run1	generate/STIM_017.jpg
434.389	1.555	0	generate	Run1	generate/STIM_018.jpg
439.347	1.613	1	generate	Run1	generate/STIM_018.jpg
443.344	1.307	1	generate	Run1	generate/STIM_018.jpg
448.45	2.004	0	generate	Run1	generate/STIM_018.jpg
453.252	1.808	1	generate	Run1	generate/STIM_018.jpg
458.742	1.839	1	generate	Run1	generate/STIM_019.jpg
462.828	2.591	1	generate	Run1	generate/STIM_019.jpg
468.527	1.0	0	generate	Run1	generate/STIM_019.jpg
472.276	1.525	1	generate	Run1	generate/STIM_019.jpg
477.709	1.1	1	generate	Run1	generate/STIM_019.jpg
481.224	1.728	1	generate	Run1	generate/STIM_020.jpg
486.736	1.167	1	generate	Run1	generate/STIM_020.jpg
491.742	1.282	1	generate	Run1	generate/STIM_020.jpg
496.467	1.584	1	generate	Run1	generate/STIM_020.jpg
501.888	1.324	1	generate	Run1	generate/STIM_020.jpg
505.996	1.426	0	generate	Run1	generate/STIM_021.jpg
510.916	2.361	0	generate	Run1	generate/STIM_021.jpg
515.313	1.793	1	generate	Run1	generate/STIM_021.jpg
520.934	1.683	0	generate	Run1	generate/STIM_021.jpg
525.552	2.003	1	generate	Run1	generate/STIM_021.jpg
531.421	1.623	1	generate	Run1	generate/STIM_022.jpg
535.427	2.313	1	generate	Run1	generate/STIM_022.jpg
540.564	1.567	0	generate	Run1	generate/STIM_022.jpg
544.662	2.33	1	generate	Run1	generate/STIM_022.jpg
550.846	1.783	1	generate	Run1	generate/STIM_022.jpg
555.586	1.3	1	generate	Run1	generate/STIM_023.jpg
560.866	2.363	1	generate	Run1	generate/STIM_023.jpg
565.489	1.697	0	generate	Run1	generate/STIM_023.jpg
570.532	1.461	1	generate	Run1	generate/STIM_023.jpg
575.386	1.872	1	generate	Run1	generate/STIM_023.jpg
580.424	2.502	1	generate	Run1	generate/STIM_024.jpg
586.497	1.356	1	generate	Run1	generate/STIM_024.jpg
590.99	2.003	1	generate	Run1	generate/STIM_024.jpg
596.654	1.367	1	generate	Run1	generate/STIM_024.jpg
601.976	1.38	1	generate	Run1	generate/STIM_024.jpg
605.426	0.666	1	repeat	Run1	repeat/STIM_000.jpg
608.747	0.686	1	repeat	Run1	repeat/STIM_000.jpg
611.656	0.721	1	repeat	Run1	repeat/STIM_000.jpg
615.286	0.698	1	repeat	Run1	repeat/STIM_000.jpg
619.273	0.888	1	repeat	Run1	repeat/STIM_000.jpg
622.686	0.716	1	repeat	Run1	repeat/STIM_001.jpg
627.265	0.517	1	repeat	Run1	repeat/STIM_001.jpg
630.042	0.761	1	repeat	Run1	repeat/STIM_001.jpg
633.219	0.576	1	repeat	Run1	repeat/STIM_001.jpg
636.953	0.801	1	repeat	Run1	repeat/STIM_001.jpg
640.183	0.86	1	repeat	Run1	repeat/STIM_002.jpg
643.321	0.656	1	repeat	Run1	repeat/STIM_002.jpg
646.691	0.886	1	repeat	Run1	repeat/STIM_002.jpg
651.196	0.592	1	repeat	Run1	repeat/STIM_002.jpg
654.493	0.743	0	repeat	Run1	repeat/STIM_002.jpg
658.584	0.694	1	repeat	Run1	repeat/STIM_003.jpg
661.715	0.602	0	repeat	Run1	repeat/STIM_003.jpg
666.149	0.776	1	repeat	Run1	repeat/STIM_003.jpg
669.168	0.526	1	repeat	Run1	repeat/STIM_003.jpg
671.925	0.821	1	repeat	Run1	repeat/STIM_003.jpg
675.1	0.814	0	repeat	Run1	repeat/STIM_004.jpg
678.343	0.517	1	repeat	Run1	repeat/STIM_004.jpg
682.476	0.532	1	repeat	Run1	repeat/STIM_004.jpg
685.722	0.554	1	repeat	Run1	repeat/STIM_004.jpg
689.252	0.87	1	repeat	Run1	repeat/STIM_004.jpg
693.87	0.845	1	repeat	Run1	repeat/STIM_005.jpg
697.178	0.713	1	repeat	Run1	repeat/STIM_005.jpg
700.158	0.525	1	repeat	Run1	repeat/STIM_005.jpg
703.454	0.501	1	repeat	Run1	repeat/STIM_005.jpg
707.505	0.503	1	repeat	Run1	repeat/STIM_005.jpg
711.828	0.839	1	repeat	Run1	repeat/STIM_006.jpg
714.877	0.912	1	repeat	Run1	repeat/STIM_006.jpg
718.414	0.461	1	repeat	Run1	repeat/STIM_006.jpg
722.846	0.501	1	repeat	Run1	repeat/STIM_006.jpg
726.079	0.52	1	repeat	Run1	repeat/STIM_006.jpg
730.051	0.822	1	repeat	Run1	repeat/STIM_007.jpg
734.794	0.495	1	repeat	Run1	repeat/STIM_007.jpg
739.1	0.67	1	repeat	Run1	repeat/STIM_007.jpg
742.994	0.63	1	repeat	Run1	repeat/STIM_007.jpg
746.758	0.821	1	repeat	Run1	repeat/STIM_007.jpg
750.674	0.793	1	repeat	Run1	repeat/STIM_008.jpg
754.522	0.8	1	repeat	Run1	repeat/STIM_008.jpg
758.148	0.772	1	repeat	Run1	repeat/STIM_008.jpg
761.51	0.472	1	repeat	Run1	repeat/STIM_008.jpg
764.134	0.788	1	repeat	Run1	repeat/STIM_008.jpg
768.875	0.505	1	repeat	Run1	repeat/STIM_009.jpg
771.907	0.685	1	repeat	Run1	repeat/STIM_009.jpg
775.508	0.845	1	repeat	Run1	repeat/STIM_009.jpg
779.395	0.825	1	repeat	Run1	repeat/STIM_009.jpg
784.202	0.782	1	repeat	Run1	repeat/STIM_009.jpg
788.119	0.636	1	repeat	Run1	repeat/STIM_010.jpg
792.058	0.694	1	repeat	Run1	repeat/STIM_010.jpg
796.33	0.516	1	repeat	Run1	repeat/STIM_010.jpg
799.139	0.566	1	repeat	Run1	repeat/STIM_010.jpg
801.84	0.721	1	repeat	Run1	repeat/STIM_010.jpg
805.937	0.906	1	repeat	Run1	repeat/STIM_011.jpg
810.843	0.919	1	repeat	Run1	repeat/STIM_011.jpg
814.22	0.729	1	repeat	Run1	repeat/STIM_011.jpg
818.635	0.471	1	repeat	Run1	repeat/STIM_011.jpg
822.166	0.518	1	repeat	Run1	repeat/STIM_011.jpg
825.509	0.462	1	repeat	Run1	repeat/STIM_012.jpg
828.662	0.772	1	repeat	Run1	repeat/STIM_012.jpg
832.722	0.62	1	repeat	Run1	repeat/STIM_012.jpg
836.196	0.875	1	repeat	Run1	repeat/STIM_012.jpg
839.278	0.665	1	repeat	Run1	repeat/STIM_012.jpg
842.832	0.633	1	repeat	Run1	repeat/STIM_013.jpg
847.297	0.588	1	repeat	Run1	repeat/STIM_013.jpg
851.653	0.686	1	repeat	Run1	repeat/STIM_013.jpg
855.401	0.764	1	repeat	Run1	repeat/STIM_013.jpg
859.667	0.876	1	repeat	Run1	repeat/STIM_013.jpg
863.542	0.598	1	repeat	Run1	repeat/STIM_014.jpg
866.492	0.763	1	repeat	Run1	repeat/STIM_014.jpg
870.418	0.688	1	repeat	Run1	repeat/STIM_014.jpg
874.344	0.709	1	repeat	Run1	repeat/STIM_014.jpg
878.708	0.679	1	repeat	Run1	repeat/STIM_014.jpg
882.114	1.679	1	generate	Run2	generate/STIM_000.jpg
887.001	1.238	1	generate	Run2	generate/STIM_000.jpg
890.332	2.065	1	generate	Run2	generate/STIM_000.jpg
895.432	1.111	1	generate	Run2	generate/STIM_000.jpg
899.638	1.107	1	generate	Run2	generate/STIM_000.jpg
902.771	1.492	0	generate	Run2	generate/STIM_001.jpg
907.684	1.537	0	generate	Run2	generate/STIM_001.jpg
911.231	1.476	1	generate	Run2	generate/STIM_001.jpg
915.148	1.111	1	generate	Run2	generate/STIM_001.jpg
918.45	1.456	0	generate	Run2	generate/STIM_001.jpg
921.926	1.224	0	generate	Run2	generate/STIM_002.jpg
925.977	1.105	0	generate	Run2	generate/STIM_002.jpg
931.067	1.698	0	generate	Run2	generate/STIM_002.jpg
936.182	0.776	0	generate	Run2	generate/STIM_002.jpg
940.157	1.445	1	generate	Run2	generate/STIM_002.jpg
943.977	1.991	1	generate	Run2	generate/STIM_003.jpg
949.031	1.037	1	generate	Run2	generate/STIM_003.jpg
953.13	1.283	1	generate	Run2	generate/STIM_003.jpg
957.084	1.691	1	generate	Run2	generate/STIM_003.jpg
962.487	1.911	0	generate	Run2	generate/STIM_003.jpg
966.801	1.528	1	generate	Run2	generate/STIM_004.jpg
971.031	1.075	0	generate	Run2	generate/STIM_004.jpg
975.3	1.723	1	generate	Run2	generate/STIM_004.jpg
980.131	1.258	1	generate	Run2	generate/STIM_004.jpg
984.328	0.819	1	generate	Run2	generate/STIM_004.jpg
988.463	1.442	1	generate	Run2	generate/STIM_005.jpg
992.812	1.194	1	generate	Run2	generate/STIM_005.jpg
996.975	1.7	1	generate	Run2	generate/STIM_005.jpg
1002.352	1.756	1	generate	Run2	generate/STIM_005.jpg
1007.361	1.635	1	generate	Run2	generate/STIM_005.jpg
1011.077	2.159	1	generate	Run2	generate/STIM_006.jpg
1015.345	1.279	1	generate	Run2	generate/STIM_006.jpg
1020.219	1.79	1	generate	Run2	generate/STIM_006.jpg
1025.517	1.178	1	generate	Run2	generate/STIM_006.jpg
1029.22	0.913	1	generate	Run2	generate/STIM_006.jpg
1032.301	1.997	1	generate	Run2	generate/STIM_007.jpg
1037.826	1.233	1	generate	Run2	generate/STIM_007.jpg
1042.532	1.536	1	generate	Run2	generate/STIM_007.jpg
1047.527	1.581	1	generate	Run2	generate/STIM_007.jpg
1052.617	1.696	1	generate	Run2	generate/STIM_007.jpg
1057.587	1.976	1	generate	Run2	generate/STIM_008.jpg
1062.389	1.114	1	generate	Run2	generate/STIM_008.jpg
1065.834	1.325	0	generate	Run2	generate/STIM_008.jpg
1070.335	1.646	1	generate	Run2	generate/STIM_008.jpg
1074.736	0.883	1	generate	Run2	generate/STIM_008.jpg
1078.455	1.065	1	generate	Run2	generate/STIM_009.jpg
1082.28	2.193	1	generate	Run2	generate/STIM_009.jpg
1087.323	1.339	1	generate	Run2	generate/STIM_009.jpg
1091.023	1.896	1	generate	Run2	generate/STIM_009.jpg
1096.402	1.545	1	generate	Run2	generate/STIM_009.jpg
1101.396	1.482	0	generate	Run2	generate/STIM_010.jpg
1105.006	1.777	0	generate	Run2	generate/STIM_010.jpg
1108.822	1.803	1	generate	Run2	generate/STIM_010.jpg
1114.099	0.932	1	generate	Run2	generate/STIM_010.jpg
1118.808	1.642	1	generate	Run2	generate/STIM_010.jpg
1123.044	1.313	1	generate	Run2	generate/STIM_011.jpg
1126.667	0.957	0	generate	Run2	generate/STIM_011.jpg
1130.132	1.778	1	generate	Run2	generate/STIM_011.jpg
1134.717	0.912	1	generate	Run2	generate/STIM_011.jpg
1138.347	0.852	1	generate	Run2	generate/STIM_011.jpg
1141.305	1.644	1	generate	Run2	generate/STIM_012.jpg
1145.256	1.571	1	generate	Run2	generate/STIM_012.jpg
1149.611	1.814	1	generate	Run2	generate/STIM_012.jpg
1153.839	1.862	1	generate	Run2	generate/STIM_012.jpg
1159.408	1.763	1	generate	Run2	generate/STIM_012.jpg
1164.156	1.794	1	generate	Run2	generate/STIM_013.jpg
1168.814	1.877	0	generate	Run2	generate/STIM_013.jpg
1174.246	1.837	1	generate	Run2	generate/STIM_013.jpg
1179.173	0.846	1	generate	Run2	generate/STIM_013.jpg
1182.811	1.615	1	generate	Run2	generate/STIM_013.jpg
1186.892	1.077	1	generate	Run2	generate/STIM_014.jpg
1191.601	1.797	0	generate	Run2	generate/STIM_014.jpg
1196.617	1.407	1	generate	Run2	generate/STIM_014.jpg
1200.06	1.748	1	generate	Run2	generate/STIM_014.jpg
1205.299	1.306	1	generate	Run2	generate/STIM_014.jpg
1209.641	1.611	1	generate	Run2	generate/STIM_015.jpg
1213.425	0.901	0	generate	Run2	generate/STIM_015.jpg
1217.126	1.918	1	generate	Run2	generate/STIM_015.jpg
1221.567	1.369	1	generate	Run2	generate/STIM_015.jpg
1226.568	1.76	1	generate	Run2	generate/STIM_015.jpg
1231.456	2.14	1	generate	Run2	generate/STIM_016.jpg
1236.798	1.429	1	generate	Run2	generate/STIM_016.jpg
1240.962	0.867	1	generate	Run2	generate/STIM_016.jpg
1244.936	1.88	1	generate	Run2	generate/STIM_016.jpg
1250.263	1.818	1	generate	Run2	generate/STIM_016.jpg
1255.259	1.624	0	generate	Run2	generate/STIM_017.jpg
1260.73	2.144	1	generate	Run2	generate/STIM_017.jpg
1266.584	1.147	1	generate	Run2	generate/STIM_017.jpg
1270.592	0.835	1	generate	Run2	generate/STIM_017.jpg
1274.855	1.096	1	generate	Run2	generate/STIM_017.jpg
1278.794	1.513	0	generate	Run2	generate/STIM_018.jpg
1284.005	1.373	1	generate	Run2	generate/STIM_018.jpg
1287.851	2.051	1	generate	Run2	generate/STIM_018.jpg
1292.942	0.824	1	generate	Run2	generate/STIM_018.jpg
1295.855	1.516	1	generate	Run2	generate/STIM_018.jpg
1300.651	2.264	1	generate	Run2	generate/STIM_019.jpg
1306.659	1.721	1	generate	Run2	generate/STIM_019.jpg
1312.242	0.998	1	generate	Run2	generate/STIM_019.jpg
1316.711	1.702	0	generate	Run2	generate/STIM_019.jpg
1322.026	1.497	1	generate	Run2	generate/STIM_019.jpg
1327.43	2.341	1	generate	Run2	generate/STIM_020.jpg
1331.945	0.918	1	generate	Run2	generate/STIM_020.jpg
1336.312	1.623	0	generate	Run2	generate/STIM_020.jpg
1340.0	1.083	1	generate	Run2	generate/STIM_020.jpg
1344.393	1.666	1	generate	Run2	generate/STIM_020.jpg
1349.992	2.296	1	generate	Run2	generate/STIM_021.jpg
1354.43	2.0	0	generate	Run2	generate/STIM_021.jpg
1360.142	0.85	1	generate	Run2	generate/STIM_021.jpg
1363.957	1.19	1	generate	Run2	generate/STIM_021.jpg
1368.821	1.023	1	generate	Run2	generate/STIM_021.jpg
1372.284	1.767	0	generate	Run2	generate/STIM_022.jpg
1377.379	1.025	1	generate	Run2	generate/STIM_022.jpg
1381.911	1.012	1	generate	Run2	generate/STIM_022.jpg
1385.695	0.79	1	generate	Run2	generate/STIM_022.jpg
1389.393	1.583	0	generate	Run2	generate/STIM_022.jpg
1394.305	1.722	1	generate	Run2	generate/STIM_023.jpg
1399.689	1.013	1	generate	Run2	generate/STIM_023.jpg
1404.69	1.871	1	generate	Run2	generate/STIM_023.jpg
1408.664	1.746	1	generate	Run2	generate/STIM_023.jpg
1413.332	1.238	1	generate	Run2	generate/STIM_023.jpg
1417.414	1.246	1	generate	Run2	generate/STIM_024.jpg
1421.952	1.797	1	generate	Run2	generate/STIM_024.jpg
1427.306	2.06	1	generate	Run2	generate/STIM_024.jpg
1432.993	1.498	1	generate	Run2	generate/STIM_024.jpg
1437.511	0.78	1	generate	Run2	generate/STIM_024.jpg
1441.057	0.708	1	repeat	Run2	repeat/STIM_000.jpg
1444.85	0.505	1	repeat	Run2	repeat/STIM_000.jpg
1449.158	0.669	1	repeat	Run2	repeat/STIM_000.jpg
1453.255	0.873	1	repeat	Run2	repeat/STIM_000.jpg
1457.917	0.516	1	repeat	Run2	repeat/STIM_000.jpg
1462.241	0.816	1	repeat	Run2	repeat/STIM_001.jpg
1465.704	0.683	1	repeat	Run2	repeat/STIM_001.jpg
1469.856	0.867	1	repeat	Run2	repeat/STIM_001.jpg
1473.097	0.553	1	repeat	Run2	repeat/STIM_001.jpg
1476.762	0.618	1	repeat	Run2	repeat/STIM_001.jpg
1479.909	0.834	0	repeat	Run2	repeat/STIM_002.jpg
1483.801	0.835	1	repeat	Run2	repeat/STIM_002.jpg
1488.119	0.547	1	repeat	Run2	repeat/STIM_002.jpg
1490.789	0.822	1	repeat	Run2	repeat/STIM_002.jpg
1495.029	0.633	1	repeat	Run2	repeat/STIM_002.jpg
1499.379	0.64	0	repeat	Run2	repeat/STIM_003.jpg
1503.185	0.549	0	repeat	Run2	repeat/STIM_003.jpg
1506.141	0.535	1	repeat	Run2	repeat/STIM_003.jpg
1509.892	0.852	1	repeat	Run2	repeat/STIM_003.jpg
1513.985	0.683	1	repeat	Run2	repeat/STIM_003.jpg
1518.605	0.496	1	repeat	Run2	repeat/STIM_004.jpg
1522.632	0.908	1	repeat	Run2	repeat/STIM_004.jpg
1526.944	0.85	1	repeat	Run2	repeat/STIM_004.jpg
1530.039	0.754	1	repeat	Run2	repeat/STIM_004.jpg
1533.034	0.908	1	repeat	Run2	repeat/STIM_004.jpg
1536.482	0.56	1	repeat	Run2	repeat/STIM_005.jpg
1539.742	0.486	1	repeat	Run2	repeat/STIM_005.jpg
1543.773	0.586	1	repeat	Run2	repeat/STIM_005.jpg
1547.112	0.476	1	repeat	Run2	repeat/STIM_005.jpg
1551.229	0.472	1	repeat	Run2	repeat/STIM_005.jpg
1554.738	0.887	1	repeat	Run2	repeat/STIM_006.jpg
1557.651	0.806	1	repeat	Run2	repeat/STIM_006.jpg
1562.176	0.496	1	repeat	Run2	repeat/STIM_006.jpg
1566.15	0.88	1	repeat	Run2	repeat/STIM_006.jpg
1570.825	0.909	1	repeat	Run2	repeat/STIM_006.jpg
1574.058	0.514	1	repeat	Run2	repeat/STIM_007.jpg
1578.239	0.467	1	repeat	Run2	repeat/STIM_007.jpg
1581.963	0.543	1	repeat	Run2	repeat/STIM_007.jpg
1585.078	0.718	1	repeat	Run2	repeat/STIM_007.jpg
1589.441	0.837	1	repeat	Run2	repeat/STIM_007.jpg
1593.586	0.616	1	repeat	Run2	repeat/STIM_008.jpg
1596.352	0.644	1	repeat	Run2	repeat/STIM_008.jpg
1599.098	0.649	1	repeat	Run2	repeat/STIM_008.jpg
1603.298	0.765	1	repeat	Run2	repeat/STIM_008.jpg
1606.184	0.738	0	repeat	Run2	repeat/STIM_008.jpg
1610.308	0.682	1	repeat	Run2	repeat/STIM_009.jpg
1614.391	0.524	1	repeat	Run2	repeat/STIM_009.jpg
1618.803	0.63	1	repeat	Run2	repeat/STIM_009.jpg
1621.754	0.904	1	repeat	Run2	repeat/STIM_009.jpg
1624.991	0.488	1	repeat	Run2	repeat/STIM_009.jpg
1628.998	0.806	1	repeat	Run2	repeat/STIM_010.jpg
1631.804	0.847	1	repeat	Run2	repeat/STIM_010.jpg
1635.38	0.919	1	repeat	Run2	repeat/STIM_010.jpg
1638.515	0.478	1	repeat	Run2	repeat/STIM_010.jpg
1642.369	0.616	1	repeat	Run2	repeat/STIM_010.jpg
1645.973	0.783	1	repeat	Run2	repeat/STIM_011.jpg
1650.654	0.696	1	repeat	Run2	repeat/STIM_011.jpg
1655.2	0.665	1	repeat	Run2	repeat/STIM_011.jpg
1659.321	0.471	1	repeat	Run2	repeat/STIM_011.jpg
1662.944	0.711	1	repeat	Run2	repeat/STIM_011.jpg
1666.264	0.789	1	repeat	Run2	repeat/STIM_012.jpg
1669.769	0.771	1	repeat	Run2	repeat/STIM_012.jpg
1673.856	0.549	1	repeat	Run2	repeat/STIM_012.jpg
1677.525	0.864	1	repeat	Run2	repeat/STIM_012.jpg
1682.308	0.855	1	repeat	Run2	repeat/STIM_012.jpg
1686.757	0.82	1	repeat	Run2	repeat/STIM_013.jpg
1690.338	0.54	1	repeat	Run2	repeat/STIM_013.jpg
1693.598	0.855	1	repeat	Run2	repeat/STIM_013.jpg
1696.913	0.866	1	repeat	Run2	repeat/STIM_013.jpg
1701.335	0.732	1	repeat	Run2	repeat/STIM_013.jpg
1704.883	0.57	1	repeat	Run2	repeat/STIM_014.jpg
1707.811	0.778	1	repeat	Run2	repeat/STIM_014.jpg
1711.145	0.48	1	repeat	Run2	repeat/STIM_014.jpg
1714.491	0.579	1	repeat	Run2	repeat/STIM_014.jpg
1718.459	0.589	1	repeat	Run2	repeat/STIM_014.jpg
1722.114	1.798	0	generate	Run3	generate/STIM_000.jpg
1726.814	0.792	1	generate	Run3	generate/STIM_000.jpg
1731.32	1.308	1	generate	Run3	generate/STIM_000.jpg
1735.357	1.524	1	generate	Run3	generate/STIM_000.jpg
1739.979	1.797	1	generate	Run3	generate/STIM_000.jpg
1745.574	1.511	1	generate	Run3	generate/STIM_001.jpg
1750.13	1.784	1	generate	Run3	generate/STIM_001.jpg
1754.382	0.896	1	generate	Run3	generate/STIM_001.jpg
1758.353	0.941	1	generate	Run3	generate/STIM_001.jpg
1762.786	1.675	1	generate	Run3	generate/STIM_001.jpg
1766.518	1.633	1	generate	Run3	generate/STIM_002.jpg
1771.607	1.889	1	generate	Run3	generate/STIM_002.jpg
1775.519	1.545	1	generate	Run3	generate/STIM_002.jpg
1780.722	1.859	1	generate	Run3	generate/STIM_002.jpg
1785.169	1.81	1	generate	Run3	generate/STIM_002.jpg
1790.358	1.779	1	generate	Run3	generate/STIM_003.jpg
1795.492	1.393	0	generate	Run3	generate/STIM_003.jpg
1800.748	1.468	1	generate	Run3	generate/STIM_003.jpg
1806.196	1.022	1	generate	Run3	generate/STIM_003.jpg
1810.108	0.918	1	generate	Run3	generate/STIM_003.jpg
1813.182	1.776	1	generate	Run3	generate/STIM_004.jpg
1818.896	1.077	0	generate	Run3	generate/STIM_004.jpg
1823.193	1.449	1	generate	Run3	generate/STIM_004.jpg
1827.919	1.166	1	generate	Run3	generate/STIM_004.jpg
1832.203	1.676	1	generate	Run3	generate/STIM_004.jpg
1837.673	1.065	0	generate	Run3	generate/STIM_005.jpg
1841.971	1.85	1	generate	Run3	generate/STIM_005.jpg
1847.723	1.473	0	generate	Run3	generate/STIM_005.jpg
1851.584	0.782	1	generate	Run3	generate/STIM_005.jpg
1855.374	1.702	1	generate	Run3	generate/STIM_005.jpg
1859.365	1.216	1	generate	Run3	generate/STIM_006.jpg
1862.844	1.788	1	generate	Run3	generate/STIM_006.jpg
1867.694	1.155	1	generate	Run3	generate/STIM_006.jpg
1872.219	1.209	1	generate	Run3	generate/STIM_006.jpg
1875.95	1.7	1	generate	Run3	generate/STIM_006.jpg
1879.882	1.794	1	generate	Run3	generate/STIM_007.jpg
1884.041	1.188	1	generate	Run3	generate/STIM_007.jpg
1888.077	1.258	1	generate	Run3	generate/STIM_007.jpg
1892.644	1.922	1	generate	Run3	generate/STIM_007.jpg
1897.277	1.708	0	generate	Run3	generate/STIM_007.jpg
1902.857	1.9	1	generate	Run3	generate/STIM_008.jpg
1907.145	1.154	1	generate	Run3	generate/STIM_008.jpg
1910.557	1.581	1	generate	Run3	generate/STIM_008.jpg
1915.519	0.893	0	generate	Run3	generate/STIM_008.jpg
1920.179	1.312	1	generate	Run3	generate/STIM_008.jpg
1924.931	1.787	1	generate	Run3	generate/STIM_009.jpg
1928.826	1.428	1	generate	Run3	generate/STIM_009.jpg
1933.076	0.831	1	generate	Run3	generate/STIM_009.jpg
1936.743	1.617	0	generate	Run3	generate/STIM_009.jpg
1942.093	1.26	1	generate	Run3	generate/STIM_009.jpg
1946.038	1.765	1	generate	Run3	generate/STIM_010.jpg
1951.011	1.877	1	generate	Run3	generate/STIM_010.jpg
1955.989	1.503	1	generate	Run3	generate/STIM_010.jpg
1960.525	0.848	1	generate	Run3	generate/STIM_010.jpg
1964.52	1.551	1	generate	Run3	generate/STIM_010.jpg
1969.245	1.479	0	generate	Run3	generate/STIM_011.jpg
1973.81	1.472	1	generate	Run3	generate/STIM_011.jpg
1977.852	1.793	1	generate	Run3	generate/STIM_011.jpg
1982.711	1.086	1	generate	Run3	generate/STIM_011.jpg
1987.774	0.779	1	generate	Run3	generate/STIM_011.jpg
1991.158	1.578	1	generate	Run3	generate/STIM_012.jpg
1995.674	1.364	1	generate	Run3	generate/STIM_012.jpg
2000.827	1.829	1	generate	Run3	generate/STIM_012.jpg
2006.506	1.48	0	generate	Run3	generate/STIM_012.jpg
2011.239	1.51	1	generate	Run3	generate/STIM_012.jpg
2015.211	0.914	0	generate	Run3	generate/STIM_013.jpg
2019.384	1.063	1	generate	Run3	generate/STIM_013.jpg
2023.133	1.281	1	generate	Run3	generate/STIM_013.jpg
2027.328	1.308	1	generate	Run3	generate/STIM_013.jpg
2032.088	0.831	1	generate	Run3	generate/STIM_013.jpg
2035.796	1.197	1	generate	Run3	generate/STIM_014.jpg
2040.769	1.705	1	generate	Run3	generate/STIM_014.jpg
2045.668	1.9	1	generate	Run3	generate/STIM_014.jpg
2049.902	1.719	1	generate	Run3	generate/STIM_014.jpg
2055.134	0.966	1	generate	Run3	generate/STIM_014.jpg
2059.349	1.084	1	generate	Run3	generate/STIM_015.jpg
2063.273	0.972	1	generate	Run3	generate/STIM_015.jpg
2068.185	1.561	1	generate	Run3	generate/STIM_015.jpg
2073.64	0.812	1	generate	Run3	generate/STIM_015.jpg
2078.201	0.89	1	generate	Run3	generate/STIM_015.jpg
2081.1	1.486	0	generate	Run3	generate/STIM_016.jpg
2085.493	1.034	1	generate	Run3	generate/STIM_016.jpg
2090.406	1.851	1	generate	Run3	generate/STIM_016.jpg
2094.548	1.45	1	generate	Run3	generate/STIM_016.jpg
2099.546	1.267	1	generate	Run3	generate/STIM_016.jpg
2103.117	1.283	1	generate	Run3	generate/STIM_017.jpg
2107.376	1.9	0	generate	Run3	generate/STIM_017.jpg
2111.923	1.629	1	generate	Run3	generate/STIM_017.jpg
2115.959	1.616	1	generate	Run3	generate/STIM_017.jpg
2119.828	1.018	1	generate	Run3	generate/STIM_017.jpg
2124.371	1.399	1	generate	Run3	generate/STIM_018.jpg
2128.156	1.526	1	generate	Run3	generate/STIM_018.jpg
2132.282	0.963	1	generate	Run3	generate/STIM_018.jpg
2135.69	0.891	1	generate	Run3	generate/STIM_018.jpg
2140.222	1.064	1	generate	Run3	generate/STIM_018.jpg
2144.993	1.33	1	generate	Run3	generate/STIM_019.jpg
2148.43	1.284	0	generate	Run3	generate/STIM_019.jpg
2151.725	1.246	1	generate	Run3	generate/STIM_019.jpg
2155.353	1.417	1	generate	Run3	generate/STIM_019.jpg
2158.897	1.714	1	generate	Run3	generate/STIM_019.jpg
2163.382	0.909	1	generate	Run3	generate/STIM_020.jpg
2167.465	1.584	1	generate	Run3	generate/STIM_020.jpg
2171.658	1.436	1	generate	Run3	generate/STIM_020.jpg
2176.754	1.003	1	generate	Run3	generate/STIM_020.jpg
2180.081	1.366	0	generate	Run3	generate/STIM_020.jpg
2183.929	1.447	0	generate	Run3	generate/STIM_021.jpg
2188.439	0.786	1	generate	Run3	generate/STIM_021.jpg
2192.557	0.816	1	generate	Run3	generate/STIM_021.jpg
2196.467	0.882	1	generate	Run3	generate/STIM_021.jpg
2201.148	1.094	1	generate	Run3	generate/STIM_021.jpg
2205.945	1.56	0	generate	Run3	generate/STIM_022.jpg
2209.682	1.122	1	generate	Run3	generate/STIM_022.jpg
2214.259	1.362	1	generate	Run3	generate/STIM_022.jpg
2219.574	0.972	1	generate	Run3	generate/STIM_022.jpg
2224.215	1.196	1	generate	Run3	generate/STIM_022.jpg
2228.615	1.419	1	generate	Run3	generate/STIM_023.jpg
2232.415	1.202	1	generate	Run3	generate/STIM_023.jpg
2237.411	0.829	1	generate	Run3	generate/STIM_023.jpg
2240.944	1.093	1	generate	Run3	generate/STIM_023.jpg
2245.009	1.128	1	generate	Run3	generate/STIM_023.jpg
2249.254	1.698	1	generate	Run3	generate/STIM_024.jpg
2254.448	0.998	1	generate	Run3	generate/STIM_024.jpg
2257.884	1.191	1	generate	Run3	generate/STIM_024.jpg
2261.541	1.738	1	generate	Run3	generate/STIM_024.jpg
2265.864	1.812	1	generate	Run3	generate/STIM_024.jpg
2269.865	0.576	1	repeat	Run3	repeat/STIM_000.jpg
2273.218	0.835	1	repeat	Run3	repeat/STIM_000.jpg
2277.156	0.643	1	repeat	Run3	repeat/STIM_000.jpg
2279.84	0.485	1	repeat	Run3	repeat/STIM_000.jpg
2284.086	0.612	1	repeat	Run3	repeat/STIM_000.jpg
2288.647	0.75	1	repeat	Run3	repeat/STIM_001.jpg
2293.041	0.7	1	repeat	Run3	repeat/STIM_001.jpg
2296.604	0.842	1	repeat	Run3	repeat/STIM_001.jpg
2301.336	0.759	1	repeat	Run3	repeat/STIM_001.jpg
2306.054	0.579	1	repeat	Run3	repeat/STIM_001.jpg
2308.647	0.833	1	repeat	Run3	repeat/STIM_002.jpg
2312.484	0.703	0	repeat	Run3	repeat/STIM_002.jpg
2316.3	0.83	1	repeat	Run3	repeat/STIM_002.jpg
2319.324	0.471	1	repeat	Run3	repeat/STIM_002.jpg
2322.123	0.894	1	repeat	Run3	repeat/STIM_002.jpg
2325.213	0.478	1	repeat	Run3	repeat/STIM_003.jpg
2328.417	0.911	1	repeat	Run3	repeat/STIM_003.jpg
2332.191	0.471	1	repeat	Run3	repeat/STIM_003.jpg
2336.207	0.8	1	repeat	Run3	repeat/STIM_003.jpg
2339.786	0.668	1	repeat	Run3	repeat/STIM_003.jpg
2342.895	0.496	1	repeat	Run3	repeat/STIM_004.jpg
2346.13	0.629	1	repeat	Run3	repeat/STIM_004.jpg
2349.611	0.477	1	repeat	Run3	repeat/STIM_004.jpg
2352.942	0.511	1	repeat	Run3	repeat/STIM_004.jpg
2355.623	0.537	1	repeat	Run3	repeat/STIM_004.jpg
2358.934	0.618	1	repeat	Run3	repeat/STIM_005.jpg
2362.798	0.72	1	repeat	Run3	repeat/STIM_005.jpg
2365.645	0.481	1	repeat	Run3	repeat/STIM_005.jpg
2368.848	0.811	0	repeat	Run3	repeat/STIM_005.jpg
2372.45	0.864	1	repeat	Run3	repeat/STIM_005.jpg
2377.024	0.852	1	repeat	Run3	repeat/STIM_006.jpg
2380.676	0.681	1	repeat	Run3	repeat/STIM_006.jpg
2383.562	0.613	1	repeat	Run3	repeat/STIM_006.jpg
2387.518	0.583	1	repeat	Run3	repeat/STIM_006.jpg
2390.329	0.882	1	repeat	Run3	repeat/STIM_006.jpg
2393.255	0.561	1	repeat	Run3	repeat/STIM_007.jpg
2396.328	0.506	1	repeat	Run3	repeat/STIM_007.jpg
2399.987	0.568	1	repeat	Run3	repeat/STIM_007.jpg
2402.699	0.818	1	repeat	Run3	repeat/STIM_007.jpg
2407.139	0.751	1	repeat	Run3	repeat/STIM_007.jpg
2410.443	0.685	1	repeat	Run3	repeat/STIM_008.jpg
2413.688	0.559	1	repeat	Run3	repeat/STIM_008.jpg
2417.043	0.661	1	repeat	Run3	repeat/STIM_008.jpg
2421.185	0.55	1	repeat	Run3	repeat/STIM_008.jpg
2425.642	0.902	1	repeat	Run3	repeat/STIM_008.jpg
2428.799	0.492	1	repeat	Run3	repeat/STIM_009.jpg
2432.376	0.597	1	repeat	Run3	repeat/STIM_009.jpg
2435.367	0.512	1	repeat	Run3	repeat/STIM_009.jpg
2438.055	0.856	1	repeat	Run3	repeat/STIM_009.jpg
2441.446	0.499	1	repeat	Run3	repeat/STIM_009.jpg
2444.543	0.618	0	repeat	Run3	repeat/STIM_010.jpg
2447.269	0.495	1	repeat	Run3	repeat/STIM_010.jpg
2451.522	0.661	1	repeat	Run3	repeat/STIM_010.jpg
2455.126	0.505	1	repeat	Run3	repeat/STIM_010.jpg
2459.57	0.519	1	repeat	Run3	repeat/STIM_010.jpg
2462.685	0.622	1	repeat	Run3	repeat/STIM_011.jpg
2465.434	0.692	1	repeat	Run3	repeat/STIM_011.jpg
2468.836	0.568	1	repeat	Run3	repeat/STIM_011.jpg
2472.567	0.565	1	repeat	Run3	repeat/STIM_011.jpg
2476.443	0.73	1	repeat	Run3	repeat/STIM_011.jpg
2480.397	0.54	1	repeat	Run3	repeat/STIM_012.jpg
2484.679	0.829	1	repeat	Run3	repeat/STIM_012.jpg
2487.87	0.649	1	repeat	Run3	repeat/STIM_012.jpg
2491.078	0.515	1	repeat	Run3	repeat/STIM_012.jpg
2495.195	0.823	1	repeat	Run3	repeat/STIM_012.jpg
2498.916	0.512	1	repeat	Run3	repeat/STIM_013.jpg
2501.531	0.841	1	repeat	Run3	repeat/STIM_013.jpg
2505.179	0.514	1	repeat	Run3	repeat/STIM_013.jpg
2509.521	0.846	1	repeat	Run3	repeat/STIM_013.jpg
2514.366	0.892	1	repeat	Run3	repeat/STIM_013.jpg
2519.087	0.6	1	repeat	Run3	repeat/STIM_014.jpg
2522.997	0.68	1	repeat	Run3	repeat/STIM_014.jpg
2526.625	0.808	0	repeat	Run3	repeat/STIM_014.jpg
2531.391	0.779	1	repeat	Run3	repeat/STIM_014.jpg
2535.554	0.868	1	repeat	Run3	repeat/STIM_014.jpg
2539.693	0.804	1	generate	Run4	generate/STIM_000.jpg
2543.318	1.524	0	generate	Run4	generate/STIM_000.jpg
2548.256	1.825	1	generate	Run4	generate/STIM_000.jpg
2552.119	1.436	1	generate	Run4	generate/STIM_000.jpg
2556.334	1.407	1	generate	Run4	generate/STIM_000.jpg
2560.718	1.488	1	generate	Run4	generate/STIM_001.jpg
2564.803	1.857	1	generate	Run4	generate/STIM_001.jpg
2570.089	1.866	1	generate	Run4	generate/STIM_001.jpg
2574.396	1.062	1	generate	Run4	generate/STIM_001.jpg
2577.62	1.47	1	generate	Run4	generate/STIM_001.jpg
2583.024	1.804	1	generate	Run4	generate/STIM_002.jpg
2587.612	1.832	1	generate	Run4	generate/STIM_002.jpg
2592.61	1.504	1	generate	Run4	generate/STIM_002.jpg
2596.488	1.548	1	generate	Run4	generate/STIM_002.jpg
2600.699	1.34	1	generate	Run4	generate/STIM_002.jpg
2604.862	1.188	1	generate	Run4	generate/STIM_003.jpg
2609.28	1.587	0	generate	Run4	generate/STIM_003.jpg
2614.835	1.855	1	generate	Run4	generate/STIM_003.jpg
2620.199	1.428	1	generate	Run4	generate/STIM_003.jpg
2624.279	1.65	1	generate	Run4	generate/STIM_003.jpg
2628.165	0.777	1	generate	Run4	generate/STIM_004.jpg
2632.362	1.562	1	generate	Run4	generate/STIM_004.jpg
2636.793	1.502	1	generate	Run4	generate/STIM_004.jpg
2641.237	1.593	1	generate	Run4	generate/STIM_004.jpg
2646.612	0.823	1	generate	Run4	generate/STIM_004.jpg
2649.654	0.814	1	generate	Run4	generate/STIM_005.jpg
2654.075	1.487	1	generate	Run4	generate/STIM_005.jpg
2658.627	1.804	1	generate	Run4	generate/STIM_005.jpg
2664.019	1.013	1	generate	Run4	generate/STIM_005.jpg
2668.838	1.4	1	generate	Run4	generate/STIM_005.jpg
2673.703	1.91	1	generate	Run4	generate/STIM_006.jpg
2678.529	1.048	1	generate	Run4	generate/STIM_006.jpg
2682.551	1.379	1	generate	Run4	generate/STIM_006.jpg
2687.33	1.351	1	generate	Run4	generate/STIM_006.jpg
2692.493	1.016	1	generate	Run4	generate/STIM_006.jpg
2697.242	1.209	1	generate	Run4	generate/STIM_007.jpg
2702.076	1.658	1	generate	Run4	generate/STIM_007.jpg
2706.611	1.216	1	generate	Run4	generate/STIM_007.jpg
2711.259	1.055	1	generate	Run4	generate/STIM_007.jpg
2715.248	1.31	1	generate	Run4	generate/STIM_007.jpg
2720.544	1.872	1	generate	Run4	generate/STIM_008.jpg
2724.709	1.454	1	generate	Run4	generate/STIM_008.jpg
2729.911	1.585	1	generate	Run4	generate/STIM_008.jpg
2733.802	1.706	0	generate	Run4	generate/STIM_008.jpg
2738.572	1.581	1	generate	Run4	generate/STIM_008.jpg
2742.888	1.187	1	generate	Run4	generate/STIM_009.jpg
2747.468	1.239	1	generate	Run4	generate/STIM_009.jpg
2751.582	1.078	1	generate	Run4	generate/STIM_009.jpg
2755.619	1.212	1	generate	Run4	generate/STIM_009.jpg
2759.569	1.243	1	generate	Run4	generate/STIM_009.jpg
2764.282	1.844	1	generate	Run4	generate/STIM_010.jpg
2770.051	0.821	1	generate	Run4	generate/STIM_010.jpg
2773.038	0.924	1	generate	Run4	generate/STIM_010.jpg
2777.29	0.894	1	generate	Run4	generate/STIM_010.jpg
2782.097	1.464	1	generate	Run4	generate/STIM_010.jpg
2786.353	1.595	1	generate	Run4	generate/STIM_011.jpg
2789.989	1.396	1	generate	Run4	generate/STIM_011.jpg
2794.265	0.864	1	generate	Run4	generate/STIM_011.jpg
2797.985	1.066	1	generate	Run4	generate/STIM_011.jpg
2801.615	1.682	1	generate	Run4	generate/STIM_011.jpg
2805.714	1.582	1	generate	Run4	generate/STIM_012.jpg
2809.707	1.837	1	generate	Run4	generate/STIM_012.jpg
2814.676	1.269	1	generate	Run4	generate/STIM_012.jpg
2819.569	1.839	1	generate	Run4	generate/STIM_012.jpg
2824.429	1.102	1	generate	Run4	generate/STIM_012.jpg
2828.895	1.583	1	generate	Run4	generate/STIM_013.jpg
2834.168	1.736	1	generate	Run4	generate/STIM_013.jpg
2837.992	1.726	1	generate	Run4	generate/STIM_013.jpg
2841.915	1.391	1	generate	Run4	generate/STIM_013.jpg
2846.782	1.639	1	generate	Run4	generate/STIM_013.jpg
2852.203	1.698	1	generate	Run4	generate/STIM_014.jpg
2856.039	1.776	1	generate	Run4	generate/STIM_014.jpg
2860.795	1.129	1	generate	Run4	generate/STIM_014.jpg
2864.91	1.023	1	generate	Run4	generate/STIM_014.jpg
2868.167	0.839	1	generate	Run4	generate/STIM_014.jpg
2871.36	1.289	1	generate	Run4	generate/STIM_015.jpg
2876.288	1.868	1	generate	Run4	generate/STIM_015.jpg
2881.373	1.118	0	generate	Run4	generate/STIM_015.jpg
2886.447	0.854	1	generate	Run4	generate/STIM_015.jpg
2889.738	1.072	1	generate	Run4	generate/STIM_015.jpg
2893.471	1.202	1	generate	Run4	generate/STIM_016.jpg
2897.503	1.564	1	generate	Run4	generate/STIM_016.jpg
2903.045	0.898	1	generate	Run4	generate/STIM_016.jpg
2907.217	1.772	1	generate	Run4	generate/STIM_016.jpg
2911.741	1.883	1	generate	Run4	generate/STIM_016.jpg
2917.151	1.01	0	generate	Run4	generate/STIM_017.jpg
2921.292	1.48	1	generate	Run4	generate/STIM_017.jpg
2925.068	1.547	1	generate	Run4	generate/STIM_017.jpg
2930.209	0.81	1	generate	Run4	generate/STIM_017.jpg
2934.186	0.806	1	generate	Run4	generate/STIM_017.jpg
2937.177	1.159	1	generate	Run4	generate/STIM_018.jpg
2940.574	1.832	1	generate	Run4	generate/STIM_018.jpg
2944.447	1.696	1	generate	Run4	generate/STIM_018.jpg
2948.342	1.35	1	generate	Run4	generate/STIM_018.jpg
2953.571	1.747	0	generate	Run4	generate/STIM_018.jpg
2957.795	0.973	1	generate	Run4	generate/STIM_019.jpg
2962.318	0.836	1	generate	Run4	generate/STIM_019.jpg
2965.302	1.151	1	generate	Run4	generate/STIM_019.jpg
2968.917	1.109	1	generate	Run4	generate/STIM_019.jpg
2972.517	1.444	1	generate	Run4	generate/STIM_019.jpg
2976.048	1.257	1	generate	Run4	generate/STIM_020.jpg
2979.461	1.278	0	generate	Run4	generate/STIM_020.jpg
2984.511	1.201	1	generate	Run4	generate/STIM_020.jpg
2988.947	1.033	1	generate	Run4	generate/STIM_020.jpg
2993.404	0.823	1	generate	Run4	generate/STIM_020.jpg
2997.885	1.395	1	generate	Run4	generate/STIM_021.jpg
3001.721	1.353	1	generate	Run4	generate/STIM_021.jpg
3006.991	0.794	1	generate	Run4	generate/STIM_021.jpg
3010.531	1.382	1	generate	Run4	generate/STIM_021.jpg
3014.071	0.921	1	generate	Run4	generate/STIM_021.jpg
3017.701	1.573	1	generate	Run4	generate/STIM_022.jpg
3023.148	1.667	1	generate	Run4	generate/STIM_022.jpg
3026.952	1.256	1	generate	Run4	generate/STIM_022.jpg
3031.325	0.843	1	generate	Run4	generate/STIM_022.jpg
3035.96	1.77	1	generate	Run4	generate/STIM_022.jpg
3039.869	1.477	0	generate	Run4	generate/STIM_023.jpg
3043.805	1.913	1	generate	Run4	generate/STIM_023.jpg
3048.354	1.314	1	generate	Run4	generate/STIM_023.jpg
3052.624	1.596	1	generate	Run4	generate/STIM_023.jpg
3056.972	1.404	1	generate	Run4	generate/STIM_023.jpg
3060.918	1.617	1	generate	Run4	generate/STIM_024.jpg
3065.476	1.684	1	generate	Run4	generate/STIM_024.jpg
3071.155	1.198	1	generate	Run4	generate/STIM_024.jpg
3075.233	1.485	1	generate	Run4	generate/STIM_024.jpg
3080.16	0.784	1	generate	Run4	generate/STIM_024.jpg
3083.528	0.739	1	repeat	Run4	repeat/STIM_000.jpg
3086.719	0.7	1	repeat	Run4	repeat/STIM_000.jpg
3090.406	0.741	1	repeat	Run4	repeat/STIM_000.jpg
3093.243	0.79	1	repeat	Run4	repeat/STIM_000.jpg
3096.753	0.7	1	repeat	Run4	repeat/STIM_000.jpg
3100.415	0.784	1	repeat	Run4	repeat/STIM_001.jpg
3103.519	0.8	1	repeat	Run4	repeat/STIM_001.jpg
3107.555	0.64	1	repeat	Run4	repeat/STIM_001.jpg
3110.659	0.59	1	repeat	Run4	repeat/STIM_001.jpg
3113.873	0.629	1	repeat	Run4	repeat/STIM_001.jpg
3117.754	0.64	1	repeat	Run4	repeat/STIM_002.jpg
3121.587	0.799	1	repeat	Run4	repeat/STIM_002.jpg
3124.795	0.777	1	repeat	Run4	repeat/STIM_002.jpg
3127.946	0.588	1	repeat	Run4	repeat/STIM_002.jpg
3132.422	0.822	1	repeat	Run4	repeat/STIM_002.jpg
3136.335	0.869	1	repeat	Run4	repeat/STIM_003.jpg
3140.706	0.845	0	repeat	Run4	repeat/STIM_003.jpg
3144.533	0.741	1	repeat	Run4	repeat/STIM_003.jpg
3148.538	0.605	0	repeat	Run4	repeat/STIM_003.jpg
3151.37	0.85	1	repeat	Run4	repeat/STIM_003.jpg
3154.682	0.594	1	repeat	Run4	repeat/STIM_004.jpg
3159.176	0.62	0	repeat	Run4	repeat/STIM_004.jpg
3163.563	0.752	1	repeat	Run4	repeat/STIM_004.jpg
3166.537	0.802	1	repeat	Run4	repeat/STIM_004.jpg
3170.158	0.784	1	repeat	Run4	repeat/STIM_004.jpg
3173.211	0.905	1	repeat	Run4	repeat/STIM_005.jpg
3177.324	0.62	1	repeat	Run4	repeat/STIM_005.jpg
3180.929	0.544	1	repeat	Run4	repeat/STIM_005.jpg
3183.721	0.899	1	repeat	Run4	repeat/STIM_005.jpg
3187.225	0.522	1	repeat	Run4	repeat/STIM_005.jpg
3190.361	0.603	1	repeat	Run4	repeat/STIM_006.jpg
3194.177	0.566	1	repeat	Run4	repeat/STIM_006.jpg
3198.08	0.558	0	repeat	Run4	repeat/STIM_006.jpg
3201.876	0.78	1	repeat	Run4	repeat/STIM_006.jpg
3206.387	0.568	1	repeat	Run4	repeat/STIM_006.jpg
3209.706	0.765	1	repeat	Run4	repeat/STIM_007.jpg
3214.21	0.558	1	repeat	Run4	repeat/STIM_007.jpg
3218.214	0.605	1	repeat	Run4	repeat/STIM_007.jpg
3222.694	0.882	1	repeat	Run4	repeat/STIM_007.jpg
3226.019	0.74	1	repeat	Run4	repeat/STIM_007.jpg
3229.435	0.823	1	repeat	Run4	repeat/STIM_008.jpg
3234.047	0.512	1	repeat	Run4	repeat/STIM_008.jpg
3237.461	0.894	0	repeat	Run4	repeat/STIM_008.jpg
3240.666	0.816	1	repeat	Run4	repeat/STIM_008.jpg
3243.848	0.789	1	repeat	Run4	repeat/STIM_008.jpg
3247.794	0.841	0	repeat	Run4	repeat/STIM_009.jpg
3252.044	0.493	1	repeat	Run4	repeat/STIM_009.jpg
3254.782	0.879	1	repeat	Run4	repeat/STIM_009.jpg
3259.292	0.852	1	repeat	Run4	repeat/STIM_009.jpg
3262.228	0.755	1	repeat	Run4	repeat/STIM_009.jpg
3266.39	0.619	1	repeat	Run4	repeat/STIM_010.jpg
3269.62	0.694	1	repeat	Run4	repeat/STIM_010.jpg
3273.258	0.679	1	repeat	Run4	repeat/STIM_010.jpg
3276.008	0.651	1	repeat	Run4	repeat/STIM_010.jpg
3279.338	0.517	0	repeat	Run4	repeat/STIM_010.jpg
3283.611	0.827	1	repeat	Run4	repeat/STIM_011.jpg
3287.15	0.908	1	repeat	Run4	repeat/STIM_011.jpg
3291.062	0.644	1	repeat	Run4	repeat/STIM_011.jpg
3294.302	0.754	0	repeat	Run4	repeat/STIM_011.jpg
3297.296	0.615	0	repeat	Run4	repeat/STIM_011.jpg
3301.598	0.563	1	repeat	Run4	repeat/STIM_012.jpg
3305.998	0.854	1	repeat	Run4	repeat/STIM_012.jpg
3310.262	0.612	1	repeat	Run4	repeat/STIM_012.jpg
3314.232	0.727	1	repeat	Run4	repeat/STIM_012.jpg
3317.802	0.631	1	repeat	Run4	repeat/STIM_012.jpg
3321.083	0.718	0	repeat	Run4	repeat/STIM_013.jpg
3323.986	0.897	1	repeat	Run4	repeat/STIM_013.jpg
3328.578	0.712	1	repeat	Run4	repeat/STIM_013.jpg
3332.35	0.87	1	repeat	Run4	repeat/STIM_013.jpg
3335.766	0.557	1	repeat	Run4	repeat/STIM_013.jpg
3339.631	0.655	1	repeat	Run4	repeat/STIM_014.jpg
3343.818	0.653	1	repeat	Run4	repeat/STIM_014.jpg
3347.031	0.651	0	repeat	Run4	repeat/STIM_014.jpg
3350.532	0.847	1	repeat	Run4	repeat/STIM_014.jpg
3354.217	0.671	1	repeat	Run4	repeat/STIM_014.jpg
