onset	duration	accuracy	trial_type	learning_stage	stimulus
0.0	1.421	correct	generate	Run1	generate/STIM_000.jpg
4.793	2.695	incorrect	generate	Run1	generate/STIM_000.jpg
10.748	1.815	correct	generate	Run1	generate/STIM_000.jpg
15.877	2.347	correct	generate	Run1	generate/STIM_000.jpg
20.353	2.666	incorrect	generate	Run1	generate/STIM_000.jpg
26.149	1.994	correct	generate	Run1	generate/STIM_001.jpg
31.176	1.558	incorrect	generate	Run1	generate/STIM_001.jpg
36.023	1.568	correct	generate	Run1	generate/STIM_001.jpg
40.382	2.463	correct	generate	Run1	generate/STIM_001.jpg
45.868	1.92	correct	generate	Run1	generate/STIM_001.jpg
51.159	2.032	correct	generate	Run1	generate/STIM_002.jpg
56.621	2.489	incorrect	generate	Run1	generate/STIM_002.jpg
62.378	1.225	correct	generate	Run1	generate/STIM_002.jpg
66.732	2.429	correct	generate	Run1	generate/STIM_002.jpg
71.836	2.654	correct	generate	Run1	generate/STIM_002.jpg
77.435	2.652	correct	generate	Run1	generate/STIM_003.jpg
83.563	3.229	correct	generate	Run1	generate/STIM_003.jpg
88.618	1.847	correct	generate	Run1	generate/STIM_003.jpg
94.072	2.942	correct	generate	Run1	generate/STIM_003.jpg
100.206	1.767	correct	generate	Run1	generate/STIM_003.jpg
104.336	3.39	correct	generate	Run1	generate/STIM_004.jpg
110.668	1.893	incorrect	generate	Run1	generate/STIM_004.jpg
115.808	2.644	correct	generate	Run1	generate/STIM_004.jpg
121.909	1.951	correct	generate	Run1	generate/STIM_004.jpg
126.934	2.452	incorrect	generate	Run1	generate/STIM_004.jpg
132.172	2.191	correct	generate	Run1	generate/STIM_005.jpg
136.183	2.483	correct	generate	Run1	generate/STIM_005.jpg
141.788	2.134	correct	generate	Run1	generate/STIM_005.jpg
147.078	2.591	incorrect	generate	Run1	generate/STIM_005.jpg
153.033	2.029	correct	generate	Run1	generate/STIM_005.jpg
157.064	2.37	correct	generate	Run1	generate/STIM_006.jpg
161.408	1.858	correct	generate	Run1	generate/STIM_006.jpg
166.24	2.083	incorrect	generate	Run1	generate/STIM_006.jpg
172.044	1.528	correct	generate	Run1	generate/STIM_006.jpg
176.975	2.653	correct	generate	Run1	generate/STIM_006.jpg
182.862	3.23	correct	generate	Run1	generate/STIM_007.jpg
188.166	2.518	correct	generate	Run1	generate/STIM_007.jpg
192.521	1.611	correct	generate	Run1	generate/STIM_007.jpg
196.713	2.741	incorrect	generate	Run1	generate/STIM_007.jpg
201.357	2.388	correct	generate	Run1	generate/STIM_007.jpg
205.803	1.477	correct	generate	Run1	generate/STIM_008.jpg
210.318	2.901	correct	generate	Run1	generate/STIM_008.jpg
216.382	1.832	correct	generate	Run1	generate/STIM_008.jpg
220.161	2.136	correct	generate	Run1	generate/STIM_008.jpg
225.826	2.388	correct	generate	Run1	generate/STIM_008.jpg
231.8	3.06	incorrect	generate	Run1	generate/STIM_009.jpg
237.9	3.272	incorrect	generate	Run1	generate/STIM_009.jpg
242.841	1.355	correct	generate	Run1	generate/STIM_009.jpg
248.094	1.534	correct	generate	Run1	generate/STIM_009.jpg
251.443	2.372	correct	generate	Run1	generate/STIM_009.jpg
257.298	3.058	correct	generate	Run1	generate/STIM_010.jpg
262.676	2.253	correct	generate	Run1	generate/STIM_010.jpg
267.839	1.654	correct	generate	Run1	generate/STIM_010.jpg
272.446	1.671	incorrect	generate	Run1	generate/STIM_010.jpg
276.877	2.189	correct	generate	Run1	generate/STIM_010.jpg
282.156	2.504	incorrect	generate	Run1	generate/STIM_011.jpg
286.738	1.573	correct	generate	Run1	generate/STIM_011.jpg
290.927	3.079	incorrect	generate	Run1	generate/STIM_011.jpg
295.66	2.818	incorrect	generate	Run1	generate/STIM_011.jpg
301.137	2.37	incorrect	generate	Run1	generate/STIM_011.jpg
305.77	3.209	correct	generate	Run1	generate/STIM_012.jpg
312.609	1.828	correct	generate	Run1	generate/STIM_012.jpg
316.255	1.353	incorrect	generate	Run1	generate/STIM_012.jpg
320.48	1.788	correct	generate	Run1	generate/STIM_012.jpg
325.287	2.71	incorrect	generate	Run1	generate/STIM_012.jpg
330.17	2.697	correct	generate	Run1	generate/STIM_013.jpg
336.016	2.296	incorrect	generate	Run1	generate/STIM_013.jpg
341.729	2.171	correct	generate	Run1	generate/STIM_013.jpg
347.376	1.578	correct	generate	Run1	generate/STIM_013.jpg
352.425	1.457	correct	generate	Run1	generate/STIM_013.jpg
356.525	2.482	correct	generate	Run1	generate/STIM_014.jpg
360.915	2.068	incorrect	generate	Run1	generate/STIM_014.jpg
364.978	2.073	incorrect	generate	Run1	generate/STIM_014.jpg
369.337	2.708	incorrect	generate	Run1	generate/STIM_014.jpg
375.204	2.281	incorrect	generate	Run1	generate/STIM_014.jpg
380.757	2.907	correct	generate	Run1	generate/STIM_015.jpg
387.237	1.848	incorrect	generate	Run1	generate/STIM_015.jpg
390.935	1.683	correct	generate	Run1	generate/STIM_015.jpg
396.395	2.845	correct	generate	Run1	generate/STIM_015.jpg
401.274	1.134	incorrect	generate	Run1	generate/STIM_015.jpg
405.287	3.184	incorrect	generate	Run1	generate/STIM_016.jpg
411.241	2.68	incorrect	generate	Run1	generate/STIM_016.jpg
417.014	1.856	correct	generate	Run1	generate/STIM_016.jpg
422.137	1.944	correct	generate	Run1	generate/STIM_016.jpg
426.231	1.988	correct	generate	Run1	generate/STIM_016.jpg
430.567	2.771	correct	generate	Run1	generate/STIM_017.jpg
436.133	2.671	incorrect	generate	Run1	generate/STIM_017.jpg
441.005	2.986	incorrect	generate	Run1	generate/STIM_017.jpg
446.028	1.233	correct	generate	Run1	generate/STIM_017.jpg
450.604	1.938	correct	generate	Run1	generate/STIM_017.jpg
454.901	3.082	incorrect	generate	Run1	generate/STIM_018.jpg
460.31	1.436	correct	generate	Run1	generate/STIM_018.jpg
465.21	2.968	correct	generate	Run1	generate/STIM_018.jpg
471.089	2.113	incorrect	generate	Run1	generate/STIM_018.jpg
476.796	2.549	correct	generate	Run1	generate/STIM_018.jpg
482.68	3.31	correct	generate	Run1	generate/STIM_019.jpg
487.697	2.024	correct	generate	Run1	generate/STIM_019.jpg
492.219	1.738	incorrect	generate	Run1	generate/STIM_019.jpg
496.884	1.767	correct	generate	Run1	generate/STIM_019.jpg
502.377	2.704	correct	generate	Run1	generate/STIM_019.jpg
507.448	2.381	correct	generate	Run1	generate/STIM_020.jpg
512.169	3.049	correct	generate	Run1	generate/STIM_020.jpg
517.084	2.03	correct	generate	Run1	generate/STIM_020.jpg
521.343	2.386	correct	generate	Run1	generate/STIM_020.jpg
525.973	1.597	correct	generate	Run1	generate/STIM_020.jpg
531.034	3.142	incorrect	generate	Run1	generate/STIM_021.jpg
536.592	1.315	incorrect	generate	Run1	generate/STIM_021.jpg
540.198	2.161	correct	generate	Run1	generate/STIM_021.jpg
545.718	2.636	incorrect	generate	Run1	generate/STIM_021.jpg
551.696	2.55	correct	generate	Run1	generate/STIM_021.jpg
557.07	2.286	correct	generate	Run1	generate/STIM_022.jpg
561.875	2.58	correct	generate	Run1	generate/STIM_022.jpg
567.377	2.893	incorrect	generate	Run1	generate/STIM_022.jpg
572.279	2.298	correct	generate	Run1	generate/STIM_022.jpg
576.428	1.532	correct	generate	Run1	generate/STIM_022.jpg
579.97	2.676	correct	generate	Run1	generate/STIM_023.jpg
585.214	2.084	correct	generate	Run1	generate/STIM_023.jpg
590.366	2.306	incorrect	generate	Run1	generate/STIM_023.jpg
595.538	2.205	correct	generate	Run1	generate/STIM_023.jpg
600.511	1.614	correct	generate	Run1	generate/STIM_023.jpg
604.365	2.349	correct	generate	Run1	generate/STIM_024.jpg
608.85	1.322	correct	generate	Run1	generate/STIM_024.jpg
613.752	2.783	correct	generate	Run1	generate/STIM_024.jpg
618.296	1.57	correct	generate	Run1	generate/STIM_024.jpg
621.875	1.889	correct	generate	Run1	generate/STIM_024.jpg
627.216	0.559	correct	repeat	Run1	repeat/STIM_000.jpg
629.861	1.014	correct	repeat	Run1	repeat/STIM_000.jpg
634.212	1.03	correct	repeat	Run1	repeat/STIM_000.jpg
637.891	0.832	correct	repeat	Run1	repeat/STIM_000.jpg
641.652	0.882	correct	repeat	Run1	repeat/STIM_000.jpg
644.446	1.154	correct	repeat	Run1	repeat/STIM_001.jpg
648.924	1.092	correct	repeat	Run1	repeat/STIM_001.jpg
653.742	0.95	correct	repeat	Run1	repeat/STIM_001.jpg
657.157	0.796	correct	repeat	Run1	repeat/STIM_001.jpg
659.932	0.709	correct	repeat	Run1	repeat/STIM_001.jpg
663.406	0.941	correct	repeat	Run1	repeat/STIM_002.jpg
667.422	0.994	correct	repeat	Run1	repeat/STIM_002.jpg
672.131	0.82	correct	repeat	Run1	repeat/STIM_002.jpg
675.738	0.949	correct	repeat	Run1	repeat/STIM_002.jpg
679.0	1.073	incorrect	repeat	Run1	repeat/STIM_002.jpg
683.464	1.04	correct	repeat	Run1	repeat/STIM_003.jpg
687.782	0.67	correct	repeat	Run1	repeat/STIM_003.jpg
691.284	0.848	correct	repeat	Run1	repeat/STIM_003.jpg
694.527	1.141	correct	repeat	Run1	repeat/STIM_003.jpg
697.618	1.159	correct	repeat	Run1	repeat/STIM_003.jpg
702.093	1.022	correct	repeat	Run1	repeat/STIM_004.jpg
705.133	0.805	correct	repeat	Run1	repeat/STIM_004.jpg
709.185	0.92	correct	repeat	Run1	repeat/STIM_004.jpg
713.328	1.057	correct	repeat	Run1	repeat/STIM_004.jpg
717.928	0.724	correct	repeat	Run1	repeat/STIM_004.jpg
722.337	1.048	correct	repeat	Run1	repeat/STIM_005.jpg
725.613	0.798	correct	repeat	Run1	repeat/STIM_005.jpg
728.398	0.946	correct	repeat	Run1	repeat/STIM_005.jpg
732.811	0.734	correct	repeat	Run1	repeat/STIM_005.jpg
736.204	1.205	correct	repeat	Run1	repeat/STIM_005.jpg
741.145	0.628	correct	repeat	Run1	repeat/STIM_006.jpg
744.328	0.829	correct	repeat	Run1	repeat/STIM_006.jpg
748.916	0.797	correct	repeat	Run1	repeat/STIM_006.jpg
751.903	0.908	correct	repeat	Run1	repeat/STIM_006.jpg
754.833	0.984	correct	repeat	Run1	repeat/STIM_006.jpg
758.86	0.57	correct	repeat	Run1	repeat/STIM_007.jpg
763.324	0.892	correct	repeat	Run1	repeat/STIM_007.jpg
766.82	0.618	correct	repeat	Run1	repeat/STIM_007.jpg
770.736	0.802	correct	repeat	Run1	repeat/STIM_007.jpg
773.905	0.77	correct	repeat	Run1	repeat/STIM_007.jpg
777.848	1.049	correct	repeat	Run1	repeat/STIM_008.jpg
781.711	0.74	correct	repeat	Run1	repeat/STIM_008.jpg
785.883	0.939	correct	repeat	Run1	repeat/STIM_008.jpg
788.842	1.166	correct	repeat	Run1	repeat/STIM_008.jpg
792.075	1.183	correct	repeat	Run1	repeat/STIM_008.jpg
795.78	0.687	correct	repeat	Run1	repeat/STIM_009.jpg
800.116	0.81	correct	repeat	Run1	repeat/STIM_009.jpg
803.576	1.125	correct	repeat	Run1	repeat/STIM_009.jpg
808.427	1.123	correct	repeat	Run1	repeat/STIM_009.jpg
813.212	0.757	correct	repeat	Run1	repeat/STIM_009.jpg
816.465	1.057	correct	repeat	Run1	repeat/STIM_010.jpg
821.011	1.189	correct	repeat	Run1	repeat/STIM_010.jpg
824.384	0.964	correct	repeat	Run1	repeat/STIM_010.jpg
827.466	0.768	correct	repeat	Run1	repeat/STIM_010.jpg
831.389	1.201	correct	repeat	Run1	repeat/STIM_010.jpg
834.928	0.968	correct	repeat	Run1	repeat/STIM_011.jpg
838.128	0.82	correct	repeat	Run1	repeat/STIM_011.jpg
842.539	0.624	correct	repeat	Run1	repeat/STIM_011.jpg
845.213	0.723	correct	repeat	Run1	repeat/STIM_011.jpg
849.32	1.063	correct	repeat	Run1	repeat/STIM_011.jpg
852.981	0.999	correct	repeat	Run1	repeat/STIM_012.jpg
856.997	1.061	correct	repeat	Run1	repeat/STIM_012.jpg
861.124	1.109	correct	repeat	Run1	repeat/STIM_012.jpg
866.07	1.011	correct	repeat	Run1	repeat/STIM_012.jpg
869.939	0.673	correct	repeat	Run1	repeat/STIM_012.jpg
874.13	0.858	correct	repeat	Run1	repeat/STIM_013.jpg
878.176	0.899	correct	repeat	Run1	repeat/STIM_013.jpg
881.548	1.1	correct	repeat	Run1	repeat/STIM_013.jpg
885.213	0.874	correct	repeat	Run1	repeat/STIM_013.jpg
889.425	0.749	correct	repeat	Run1	repeat/STIM_013.jpg
893.838	0.626	correct	repeat	Run1	repeat/STIM_014.jpg
896.803	0.883	correct	repeat	Run1	repeat/STIM_014.jpg
899.716	1.124	correct	repeat	Run1	repeat/STIM_014.jpg
903.42	0.893	correct	repeat	Run1	repeat/STIM_014.jpg
907.02	0.565	correct	repeat	Run1	repeat/STIM_014.jpg
911.204	1.416	correct	generate	Run2	generate/STIM_000.jpg
915.611	2.624	correct	generate	Run2	generate/STIM_000.jpg
919.988	1.796	correct	generate	Run2	generate/STIM_000.jpg
925.049	1.854	correct	generate	Run2	generate/STIM_000.jpg
930.186	1.529	correct	generate	Run2	generate/STIM_000.jpg
934.225	1.839	incorrect	generate	Run2	generate/STIM_001.jpg
938.772	1.831	incorrect	generate	Run2	generate/STIM_001.jpg
943.11	2.073	correct	generate	Run2	generate/STIM_001.jpg
948.981	1.721	correct	generate	Run2	generate/STIM_001.jpg
952.627	1.1	correct	generate	Run2	generate/STIM_001.jpg
957.22	1.846	incorrect	generate	Run2	generate/STIM_002.jpg
962.155	1.333	incorrect	generate	Run2	generate/STIM_002.jpg
966.989	1.202	incorrect	generate	Run2	generate/STIM_002.jpg
971.603	1.046	incorrect	generate	Run2	generate/STIM_002.jpg
974.712	1.881	correct	generate	Run2	generate/STIM_002.jpg
979.883	1.811	correct	generate	Run2	generate/STIM_003.jpg
983.533	2.169	correct	generate	Run2	generate/STIM_003.jpg
988.747	2.29	correct	generate	Run2	generate/STIM_003.jpg
993.893	1.996	correct	generate	Run2	generate/STIM_003.jpg
998.97	1.276	incorrect	generate	Run2	generate/STIM_003.jpg
1003.342	2.745	incorrect	generate	Run2	generate/STIM_004.jpg
1007.709	1.293	incorrect	generate	Run2	generate/STIM_004.jpg
1011.164	1.633	correct	generate	Run2	generate/STIM_004.jpg
1014.987	1.247	correct	generate	Run2	generate/STIM_004.jpg
1019.708	2.039	correct	generate	Run2	generate/STIM_004.jpg
1023.697	2.328	correct	generate	Run2	generate/STIM_005.jpg
1028.561	1.715	correct	generate	Run2	generate/STIM_005.jpg
1033.347	1.96	correct	generate	Run2	generate/STIM_005.jpg
1037.211	1.536	correct	generate	Run2	generate/STIM_005.jpg
1041.095	1.085	incorrect	generate	Run2	generate/STIM_005.jpg
1045.099	1.45	correct	generate	Run2	generate/STIM_006.jpg
1049.554	1.768	correct	generate	Run2	generate/STIM_006.jpg
1054.472	2.113	correct	generate	Run2	generate/STIM_006.jpg
1058.557	2.181	correct	generate	Run2	generate/STIM_006.jpg
1063.968	1.259	correct	generate	Run2	generate/STIM_006.jpg
1067.808	1.544	correct	generate	Run2	generate/STIM_007.jpg
1071.916	1.672	correct	generate	Run2	generate/STIM_007.jpg
1076.701	1.067	correct	generate	Run2	generate/STIM_007.jpg
1081.241	1.621	correct	generate	Run2	generate/STIM_007.jpg
1086.104	1.992	correct	generate	Run2	generate/STIM_007.jpg
1091.628	1.304	correct	generate	Run2	generate/STIM_008.jpg
1095.956	2.263	correct	generate	Run2	generate/STIM_008.jpg
1101.888	2.056	incorrect	generate	Run2	generate/STIM_008.jpg
1107.207	1.043	correct	generate	Run2	generate/STIM_008.jpg
1111.951	1.253	correct	generate	Run2	generate/STIM_008.jpg
1115.503	2.84	correct	generate	Run2	generate/STIM_009.jpg
1121.837	2.508	correct	generate	Run2	generate/STIM_009.jpg
1126.34	2.504	correct	generate	Run2	generate/STIM_009.jpg
1132.412	2.2	correct	generate	Run2	generate/STIM_009.jpg
1137.337	1.906	correct	generate	Run2	generate/STIM_009.jpg
1141.162	1.974	incorrect	generate	Run2	generate/STIM_010.jpg
1146.657	2.347	correct	generate	Run2	generate/STIM_010.jpg
1151.09	1.742	correct	generate	Run2	generate/STIM_010.jpg
1156.058	1.33	correct	generate	Run2	generate/STIM_010.jpg
1160.579	1.695	correct	generate	Run2	generate/STIM_010.jpg
1165.323	2.439	correct	generate	Run2	generate/STIM_011.jpg
1169.933	1.902	incorrect	generate	Run2	generate/STIM_011.jpg
1174.738	1.35	correct	generate	Run2	generate/STIM_011.jpg
1178.038	1.511	incorrect	generate	Run2	generate/STIM_011.jpg
1181.786	1.242	correct	generate	Run2	generate/STIM_011.jpg
1184.882	2.878	correct	generate	Run2	generate/STIM_012.jpg
1190.013	2.38	correct	generate	Run2	generate/STIM_012.jpg
1195.149	1.648	correct	generate	Run2	generate/STIM_012.jpg
1200.335	2.147	correct	generate	Run2	generate/STIM_012.jpg
1205.754	2.064	incorrect	generate	Run2	generate/STIM_012.jpg
1211.403	1.513	correct	generate	Run2	generate/STIM_013.jpg
1215.957	1.971	incorrect	generate	Run2	generate/STIM_013.jpg
1221.325	1.934	incorrect	generate	Run2	generate/STIM_013.jpg
1225.029	1.32	correct	generate	Run2	generate/STIM_013.jpg
1228.954	0.988	correct	generate	Run2	generate/STIM_013.jpg
1232.902	2.415	correct	generate	Run2	generate/STIM_014.jpg
1238.232	2.579	incorrect	generate	Run2	generate/STIM_014.jpg
1243.53	2.105	correct	generate	Run2	generate/STIM_014.jpg
1249.106	1.381	correct	generate	Run2	generate/STIM_014.jpg
1253.015	2.285	correct	generate	Run2	generate/STIM_014.jpg
1258.089	1.373	correct	generate	Run2	generate/STIM_015.jpg
1262.818	1.595	correct	generate	Run2	generate/STIM_015.jpg
1266.508	2.444	correct	generate	Run2	generate/STIM_015.jpg
1272.483	1.565	correct	generate	Run2	generate/STIM_015.jpg
1276.687	1.015	correct	generate	Run2	generate/STIM_015.jpg
1280.114	2.93	correct	generate	Run2	generate/STIM_016.jpg
1286.552	1.617	correct	generate	Run2	generate/STIM_016.jpg
1291.545	1.403	correct	generate	Run2	generate/STIM_016.jpg
1295.469	2.35	correct	generate	Run2	generate/STIM_016.jpg
1301.029	2.355	correct	generate	Run2	generate/STIM_016.jpg
1306.179	2.28	incorrect	generate	Run2	generate/STIM_017.jpg
1310.815	1.495	correct	generate	Run2	generate/STIM_017.jpg
1315.36	2.384	correct	generate	Run2	generate/STIM_017.jpg
1320.102	1.434	correct	generate	Run2	generate/STIM_017.jpg
1325.32	2.067	correct	generate	Run2	generate/STIM_017.jpg
1330.394	2.886	incorrect	generate	Run2	generate/STIM_018.jpg
1336.492	2.381	incorrect	generate	Run2	generate/STIM_018.jpg
1342.09	1.279	correct	generate	Run2	generate/STIM_018.jpg
1345.153	2.149	correct	generate	Run2	generate/STIM_018.jpg
1350.322	2.103	correct	generate	Run2	generate/STIM_018.jpg
1354.635	2.494	correct	generate	Run2	generate/STIM_019.jpg
1360.198	1.07	correct	generate	Run2	generate/STIM_019.jpg
1364.939	1.175	correct	generate	Run2	generate/STIM_019.jpg
1369.414	1.159	incorrect	generate	Run2	generate/STIM_019.jpg
1373.428	1.972	correct	generate	Run2	generate/STIM_019.jpg
1377.685	2.468	correct	generate	Run2	generate/STIM_020.jpg
1383.506	1.597	correct	generate	Run2	generate/STIM_020.jpg
1387.166	1.775	incorrect	generate	Run2	generate/STIM_020.jpg
1392.535	2.206	correct	generate	Run2	generate/STIM_020.jpg
1396.623	1.512	correct	generate	Run2	generate/STIM_020.jpg
1400.93	2.786	correct	generate	Run2	generate/STIM_021.jpg
1405.556	1.379	incorrect	generate	Run2	generate/STIM_021.jpg
1410.422	2.489	correct	generate	Run2	generate/STIM_021.jpg
1415.909	1.579	correct	generate	Run2	generate/STIM_021.jpg
1420.248	2.286	correct	generate	Run2	generate/STIM_021.jpg
1425.904	1.751	incorrect	generate	Run2	generate/STIM_022.jpg
1430.098	1.44	correct	generate	Run2	generate/STIM_022.jpg
1434.462	1.638	correct	generate	Run2	generate/STIM_022.jpg
1438.041	1.994	correct	generate	Run2	generate/STIM_022.jpg
1441.829	1.84	incorrect	generate	Run2	generate/STIM_022.jpg
1447.227	2.542	correct	generate	Run2	generate/STIM_023.jpg
1451.962	1.223	correct	generate	Run2	generate/STIM_023.jpg
1455.885	2.485	correct	generate	Run2	generate/STIM_023.jpg
1461.869	2.435	correct	generate	Run2	generate/STIM_023.jpg
1467.319	2.069	correct	generate	Run2	generate/STIM_023.jpg
1471.179	1.306	correct	generate	Run2	generate/STIM_024.jpg
1475.241	2.015	correct	generate	Run2	generate/STIM_024.jpg
1479.427	1.662	correct	generate	Run2	generate/STIM_024.jpg
1484.489	2.063	correct	generate	Run2	generate/STIM_024.jpg
1488.651	2.338	correct	generate	Run2	generate/STIM_024.jpg
1494.483	0.735	correct	repeat	Run2	repeat/STIM_000.jpg
1498.251	0.892	correct	repeat	Run2	repeat/STIM_000.jpg
1501.321	0.689	correct	repeat	Run2	repeat/STIM_000.jpg
1505.938	1.012	correct	repeat	Run2	repeat/STIM_000.jpg
1510.456	0.653	correct	repeat	Run2	repeat/STIM_000.jpg
1514.029	1.002	correct	repeat	Run2	repeat/STIM_001.jpg
1518.012	0.808	correct	repeat	Run2	repeat/STIM_001.jpg
1521.32	0.961	correct	repeat	Run2	repeat/STIM_001.jpg
1525.034	0.841	correct	repeat	Run2	repeat/STIM_001.jpg
1528.971	0.935	correct	repeat	Run2	repeat/STIM_001.jpg
1532.506	0.823	incorrect	repeat	Run2	repeat/STIM_002.jpg
1535.533	1.097	correct	repeat	Run2	repeat/STIM_002.jpg
1539.542	1.082	correct	repeat	Run2	repeat/STIM_002.jpg
1544.399	0.975	correct	repeat	Run2	repeat/STIM_002.jpg
1549.111	0.932	correct	repeat	Run2	repeat/STIM_002.jpg
1553.525	0.926	correct	repeat	Run2	repeat/STIM_003.jpg
1557.675	0.889	incorrect	repeat	Run2	repeat/STIM_003.jpg
1561.326	0.731	correct	repeat	Run2	repeat/STIM_003.jpg
1564.395	0.841	correct	repeat	Run2	repeat/STIM_003.jpg
1568.78	0.713	correct	repeat	Run2	repeat/STIM_003.jpg
1572.344	0.687	correct	repeat	Run2	repeat/STIM_004.jpg
1576.764	1.044	correct	repeat	Run2	repeat/STIM_004.jpg
1580.757	1.188	correct	repeat	Run2	repeat/STIM_004.jpg
1585.324	1.048	correct	repeat	Run2	repeat/STIM_004.jpg
1589.131	0.94	correct	repeat	Run2	repeat/STIM_004.jpg
1593.193	1.018	correct	repeat	Run2	repeat/STIM_005.jpg
1597.668	0.731	correct	repeat	Run2	repeat/STIM_005.jpg
1601.128	0.681	correct	repeat	Run2	repeat/STIM_005.jpg
1603.974	0.862	correct	repeat	Run2	repeat/STIM_005.jpg
1606.793	0.832	correct	repeat	Run2	repeat/STIM_005.jpg
1611.347	1.099	correct	repeat	Run2	repeat/STIM_006.jpg
1614.99	0.679	correct	repeat	Run2	repeat/STIM_006.jpg
1619.449	0.913	correct	repeat	Run2	repeat/STIM_006.jpg
1623.259	0.618	correct	repeat	Run2	repeat/STIM_006.jpg
1627.273	0.685	correct	repeat	Run2	repeat/STIM_006.jpg
1629.916	1.019	correct	repeat	Run2	repeat/STIM_007.jpg
1633.399	1.05	correct	repeat	Run2	repeat/STIM_007.jpg
1637.87	0.723	correct	repeat	Run2	repeat/STIM_007.jpg
1641.289	0.968	correct	repeat	Run2	repeat/STIM_007.jpg
1644.525	0.854	correct	repeat	Run2	repeat/STIM_007.jpg
1648.758	0.942	correct	repeat	Run2	repeat/STIM_008.jpg
1653.305	0.521	correct	repeat	Run2	repeat/STIM_008.jpg
1657.51	0.691	correct	repeat	Run2	repeat/STIM_008.jpg
1660.298	0.896	correct	repeat	Run2	repeat/STIM_008.jpg
1663.689	0.913	incorrect	repeat	Run2	repeat/STIM_008.jpg
1666.676	0.953	correct	repeat	Run2	repeat/STIM_009.jpg
1669.754	0.96	correct	repeat	Run2	repeat/STIM_009.jpg
1673.038	0.769	correct	repeat	Run2	repeat/STIM_009.jpg
1676.737	0.58	correct	repeat	Run2	repeat/STIM_009.jpg
1679.608	1.065	correct	repeat	Run2	repeat/STIM_009.jpg
1682.889	0.636	correct	repeat	Run2	repeat/STIM_010.jpg
1685.881	1.179	correct	repeat	Run2	repeat/STIM_010.jpg
1689.509	0.579	correct	repeat	Run2	repeat/STIM_010.jpg
1693.822	1.08	correct	repeat	Run2	repeat/STIM_010.jpg
1697.663	0.75	correct	repeat	Run2	repeat/STIM_010.jpg
1702.335	0.609	correct	repeat	Run2	repeat/STIM_011.jpg
1706.606	1.034	correct	repeat	Run2	repeat/STIM_011.jpg
1710.873	0.818	correct	repeat	Run2	repeat/STIM_011.jpg
1715.385	1.16	correct	repeat	Run2	repeat/STIM_011.jpg
1720.119	0.965	correct	repeat	Run2	repeat/STIM_011.jpg
1723.843	1.176	correct	repeat	Run2	repeat/STIM_012.jpg
1726.919	0.757	correct	repeat	Run2	repeat/STIM_012.jpg
1730.404	0.94	correct	repeat	Run2	repeat/STIM_012.jpg
1734.955	1.051	correct	repeat	Run2	repeat/STIM_012.jpg
1739.012	1.119	correct	repeat	Run2	repeat/STIM_012.jpg
1742.613	1.092	correct	repeat	Run2	repeat/STIM_013.jpg
1746.172	0.794	correct	repeat	Run2	repeat/STIM_013.jpg
1750.203	0.994	correct	repeat	Run2	repeat/STIM_013.jpg
1754.122	0.667	correct	repeat	Run2	repeat/STIM_013.jpg
1758.566	0.78	correct	repeat	Run2	repeat/STIM_013.jpg
1761.342	1.123	correct	repeat	Run2	repeat/STIM_014.jpg
1765.988	0.602	correct	repeat	Run2	repeat/STIM_014.jpg
1769.926	0.985	correct	repeat	Run2	repeat/STIM_014.jpg
1774.698	1.057	correct	repeat	Run2	repeat/STIM_014.jpg
1777.924	0.975	correct	repeat	Run2	repeat/STIM_014.jpg
1782.318	1.508	correct	generate	Run3	generate/STIM_000.jpg
1787.487	2.363	correct	generate	Run3	generate/STIM_000.jpg
1792.982	2.084	correct	generate	Run3	generate/STIM_000.jpg
1797.334	1.438	correct	generate	Run3	generate/STIM_000.jpg
1802.268	1.63	correct	generate	Run3	generate/STIM_000.jpg
1805.98	1.13	correct	generate	Run3	generate/STIM_001.jpg
1809.563	2.278	correct	generate	Run3	generate/STIM_001.jpg
1814.778	2.428	correct	generate	Run3	generate/STIM_001.jpg
1819.991	2.136	correct	generate	Run3	generate/STIM_001.jpg
1825.141	1.677	correct	generate	Run3	generate/STIM_001.jpg
1829.14	2.34	correct	generate	Run3	generate/STIM_002.jpg
1834.004	2.405	correct	generate	Run3	generate/STIM_002.jpg
1838.15	1.62	correct	generate	Run3	generate/STIM_002.jpg
1842.005	1.045	correct	generate	Run3	generate/STIM_002.jpg
1845.214	1.42	correct	generate	Run3	generate/STIM_002.jpg
1848.654	1.849	correct	generate	Run3	generate/STIM_003.jpg
1853.994	1.947	incorrect	generate	Run3	generate/STIM_003.jpg
1858.057	1.27	correct	generate	Run3	generate/STIM_003.jpg
1862.925	1.506	correct	generate	Run3	generate/STIM_003.jpg
1866.328	2.473	correct	generate	Run3	generate/STIM_003.jpg
1870.466	1.198	correct	generate	Run3	generate/STIM_004.jpg
1873.942	1.887	incorrect	generate	Run3	generate/STIM_004.jpg
1878.078	1.8	correct	generate	Run3	generate/STIM_004.jpg
1883.133	1.444	correct	generate	Run3	generate/STIM_004.jpg
1887.321	1.367	correct	generate	Run3	generate/STIM_004.jpg
1891.076	1.873	correct	generate	Run3	generate/STIM_005.jpg
1894.827	2.049	correct	generate	Run3	generate/STIM_005.jpg
1898.972	1.009	correct	generate	Run3	generate/STIM_005.jpg
1903.651	2.199	correct	generate	Run3	generate/STIM_005.jpg
1908.372	2.167	correct	generate	Run3	generate/STIM_005.jpg
1914.026	1.885	correct	generate	Run3	generate/STIM_006.jpg
1918.339	1.861	correct	generate	Run3	generate/STIM_006.jpg
1923.214	1.105	correct	generate	Run3	generate/STIM_006.jpg
1927.846	1.483	correct	generate	Run3	generate/STIM_006.jpg
1931.856	2.207	correct	generate	Run3	generate/STIM_006.jpg
1936.412	1.63	correct	generate	Run3	generate/STIM_007.jpg
1941.768	2.23	correct	generate	Run3	generate/STIM_007.jpg
1947.452	1.951	correct	generate	Run3	generate/STIM_007.jpg
1953.091	1.21	correct	generate	Run3	generate/STIM_007.jpg
1957.001	1.517	incorrect	generate	Run3	generate/STIM_007.jpg
1961.0	1.972	correct	generate	Run3	generate/STIM_008.jpg
1965.932	1.724	correct	generate	Run3	generate/STIM_008.jpg
1970.464	1.43	correct	generate	Run3	generate/STIM_008.jpg
1975.401	1.375	incorrect	generate	Run3	generate/STIM_008.jpg
1980.287	1.157	correct	generate	Run3	generate/STIM_008.jpg
1984.579	1.592	correct	generate	Run3	generate/STIM_009.jpg
1988.404	1.813	correct	generate	Run3	generate/STIM_009.jpg
1993.936	1.911	correct	generate	Run3	generate/STIM_009.jpg
1999.193	2.078	incorrect	generate	Run3	generate/STIM_009.jpg
2004.254	2.42	correct	generate	Run3	generate/STIM_009.jpg
2009.946	1.9	correct	generate	Run3	generate/STIM_010.jpg
2015.276	1.638	correct	generate	Run3	generate/STIM_010.jpg
2019.253	1.564	correct	generate	Run3	generate/STIM_010.jpg
2023.484	1.369	correct	generate	Run3	generate/STIM_010.jpg
2028.198	1.294	correct	generate	Run3	generate/STIM_010.jpg
2032.702	2.355	incorrect	generate	Run3	generate/STIM_011.jpg
2037.771	2.008	correct	generate	Run3	generate/STIM_011.jpg
2041.58	0.937	correct	generate	Run3	generate/STIM_011.jpg
2045.827	2.398	correct	generate	Run3	generate/STIM_011.jpg
2050.94	1.14	correct	generate	Run3	generate/STIM_011.jpg
2054.832	1.543	correct	generate	Run3	generate/STIM_012.jpg
2060.155	2.218	correct	generate	Run3	generate/STIM_012.jpg
2066.051	1.478	correct	generate	Run3	generate/STIM_012.jpg
2069.58	1.849	incorrect	generate	Run3	generate/STIM_012.jpg
2074.441	1.221	correct	generate	Run3	generate/STIM_012.jpg
2077.673	1.244	correct	generate	Run3	generate/STIM_013.jpg
2082.248	1.606	incorrect	generate	Run3	generate/STIM_013.jpg
2087.563	2.116	correct	generate	Run3	generate/STIM_013.jpg
2093.184	1.271	correct	generate	Run3	generate/STIM_013.jpg
2097.618	1.772	correct	generate	Run3	generate/STIM_013.jpg
2101.461	1.258	correct	generate	Run3	generate/STIM_014.jpg
2106.305	2.025	correct	generate	Run3	generate/STIM_014.jpg
2112.043	1.643	correct	generate	Run3	generate/STIM_014.jpg
2116.367	2.262	correct	generate	Run3	generate/STIM_014.jpg
2121.941	2.126	correct	generate	Run3	generate/STIM_014.jpg
2127.225	1.214	correct	generate	Run3	generate/STIM_015.jpg
2130.66	1.836	correct	generate	Run3	generate/STIM_015.jpg
2134.471	1.603	correct	generate	Run3	generate/STIM_015.jpg
2139.518	2.352	correct	generate	Run3	generate/STIM_015.jpg
2143.91	1.127	correct	generate	Run3	generate/STIM_015.jpg
2148.82	1.498	incorrect	generate	Run3	generate/STIM_016.jpg
2153.397	0.966	correct	generate	Run3	generate/STIM_016.jpg
2156.9	2.205	correct	generate	Run3	generate/STIM_016.jpg
2161.389	1.042	correct	generate	Run3	generate/STIM_016.jpg
2164.518	1.121	correct	generate	Run3	generate/STIM_016.jpg
2167.997	1.319	correct	generate	Run3	generate/STIM_017.jpg
2172.212	1.34	incorrect	generate	Run3	generate/STIM_017.jpg
2175.897	1.802	correct	generate	Run3	generate/STIM_017.jpg
2180.425	1.82	correct	generate	Run3	generate/STIM_017.jpg
2185.332	1.599	correct	generate	Run3	generate/STIM_017.jpg
2189.494	1.243	correct	generate	Run3	generate/STIM_018.jpg
2193.108	1.223	correct	generate	Run3	generate/STIM_018.jpg
2197.769	1.339	correct	generate	Run3	generate/STIM_018.jpg
2202.038	2.169	correct	generate	Run3	generate/STIM_018.jpg
2206.469	2.179	correct	generate	Run3	generate/STIM_018.jpg
2211.008	1.55	correct	generate	Run3	generate/STIM_019.jpg
2214.797	1.065	incorrect	generate	Run3	generate/STIM_019.jpg
2219.264	0.927	correct	generate	Run3	generate/STIM_019.jpg
2223.07	2.068	correct	generate	Run3	generate/STIM_019.jpg
2227.956	1.774	correct	generate	Run3	generate/STIM_019.jpg
2232.645	2.299	correct	generate	Run3	generate/STIM_020.jpg
2237.871	1.431	correct	generate	Run3	generate/STIM_020.jpg
2241.45	2.176	correct	generate	Run3	generate/STIM_020.jpg
2245.67	2.19	correct	generate	Run3	generate/STIM_020.jpg
2251.077	2.173	correct	generate	Run3	generate/STIM_020.jpg
2255.736	1.951	incorrect	generate	Run3	generate/STIM_021.jpg
2260.546	1.037	correct	generate	Run3	generate/STIM_021.jpg
2265.194	1.885	correct	generate	Run3	generate/STIM_021.jpg
2269.947	1.083	correct	generate	Run3	generate/STIM_021.jpg
2274.882	1.472	correct	generate	Run3	generate/STIM_021.jpg
2280.003	1.063	incorrect	generate	Run3	generate/STIM_022.jpg
2284.943	2.266	correct	generate	Run3	generate/STIM_022.jpg
2289.17	1.811	correct	generate	Run3	generate/STIM_022.jpg
2293.543	1.213	correct	generate	Run3	generate/STIM_022.jpg
2297.849	2.424	correct	generate	Run3	generate/STIM_022.jpg
2302.281	2.015	correct	generate	Run3	generate/STIM_023.jpg
2306.269	1.754	correct	generate	Run3	generate/STIM_023.jpg
2311.622	1.858	correct	generate	Run3	generate/STIM_023.jpg
2316.038	1.26	correct	generate	Run3	generate/STIM_023.jpg
2321.136	0.988	correct	generate	Run3	generate/STIM_023.jpg
2325.64	1.59	correct	generate	Run3	generate/STIM_024.jpg
2330.542	1.593	correct	generate	Run3	generate/STIM_024.jpg
2333.959	1.495	correct	generate	Run3	generate/STIM_024.jpg
2338.577	2.201	correct	generate	Run3	generate/STIM_024.jpg
2342.559	2.244	correct	generate	Run3	generate/STIM_024.jpg
2348.442	1.155	correct	repeat	Run3	repeat/STIM_000.jpg
2352.798	0.683	correct	repeat	Run3	repeat/STIM_000.jpg
2355.448	1.023	correct	repeat	Run3	repeat/STIM_000.jpg
2359.4	1.074	correct	repeat	Run3	repeat/STIM_000.jpg
2362.853	1.014	correct	repeat	Run3	repeat/STIM_000.jpg
2366.973	0.565	correct	repeat	Run3	repeat/STIM_001.jpg
2369.56	0.805	correct	repeat	Run3	repeat/STIM_001.jpg
2374.292	1.07	correct	repeat	Run3	repeat/STIM_001.jpg
2378.302	0.75	correct	repeat	Run3	repeat/STIM_001.jpg
2381.968	0.943	correct	repeat	Run3	repeat/STIM_001.jpg
2386.452	1.162	correct	repeat	Run3	repeat/STIM_002.jpg
2391.093	0.926	incorrect	repeat	Run3	repeat/STIM_002.jpg
2395.381	0.984	correct	repeat	Run3	repeat/STIM_002.jpg
2398.844	0.539	correct	repeat	Run3	repeat/STIM_002.jpg
2402.304	1.012	correct	repeat	Run3	repeat/STIM_002.jpg
2407.061	0.93	correct	repeat	Run3	repeat/STIM_003.jpg
2410.365	0.737	correct	repeat	Run3	repeat/STIM_003.jpg
2413.198	0.707	correct	repeat	Run3	repeat/STIM_003.jpg
2416.825	0.635	correct	repeat	Run3	repeat/STIM_003.jpg
2420.049	1.166	correct	repeat	Run3	repeat/STIM_003.jpg
2423.172	1.128	correct	repeat	Run3	repeat/STIM_004.jpg
2426.441	0.698	correct	repeat	Run3	repeat/STIM_004.jpg
2430.953	1.095	correct	repeat	Run3	repeat/STIM_004.jpg
2435.804	0.648	correct	repeat	Run3	repeat/STIM_004.jpg
2439.969	0.518	correct	repeat	Run3	repeat/STIM_004.jpg
2443.213	0.633	correct	repeat	Run3	repeat/STIM_005.jpg
2446.047	0.859	correct	repeat	Run3	repeat/STIM_005.jpg
2450.538	0.627	correct	repeat	Run3	repeat/STIM_005.jpg
2454.904	0.792	incorrect	repeat	Run3	repeat/STIM_005.jpg
2458.794	0.828	correct	repeat	Run3	repeat/STIM_005.jpg
2462.896	0.522	correct	repeat	Run3	repeat/STIM_006.jpg
2465.712	0.544	correct	repeat	Run3	repeat/STIM_006.jpg
2469.495	0.696	correct	repeat	Run3	repeat/STIM_006.jpg
2473.83	0.701	correct	repeat	Run3	repeat/STIM_006.jpg
2478.058	0.927	correct	repeat	Run3	repeat/STIM_006.jpg
2481.294	0.483	correct	repeat	Run3	repeat/STIM_007.jpg
2484.986	1.077	correct	repeat	Run3	repeat/STIM_007.jpg
2488.787	0.752	correct	repeat	Run3	repeat/STIM_007.jpg
2491.597	0.872	correct	repeat	Run3	repeat/STIM_007.jpg
2496.08	1.062	correct	repeat	Run3	repeat/STIM_007.jpg
2500.597	1.075	correct	repeat	Run3	repeat/STIM_008.jpg
2504.98	1.192	correct	repeat	Run3	repeat/STIM_008.jpg
2508.299	0.941	correct	repeat	Run3	repeat/STIM_008.jpg
2511.378	1.049	correct	repeat	Run3	repeat/STIM_008.jpg
2514.9	0.956	correct	repeat	Run3	repeat/STIM_008.jpg
2519.015	0.651	correct	repeat	Run3	repeat/STIM_009.jpg
2523.259	0.708	incorrect	repeat	Run3	repeat/STIM_009.jpg
2526.821	0.979	correct	repeat	Run3	repeat/STIM_009.jpg
2530.573	0.778	correct	repeat	Run3	repeat/STIM_009.jpg
2533.256	1.016	correct	repeat	Run3	repeat/STIM_009.jpg
2537.725	0.743	correct	repeat	Run3	repeat/STIM_010.jpg
2541.17	1.044	correct	repeat	Run3	repeat/STIM_010.jpg
2545.399	1.012	correct	repeat	Run3	repeat/STIM_010.jpg
2548.999	1.05	correct	repeat	Run3	repeat/STIM_010.jpg
2552.115	1.013	correct	repeat	Run3	repeat/STIM_010.jpg
2555.782	0.753	correct	repeat	Run3	repeat/STIM_011.jpg
2559.868	0.797	correct	repeat	Run3	repeat/STIM_011.jpg
2563.002	1.176	correct	repeat	Run3	repeat/STIM_011.jpg
2566.363	0.948	correct	repeat	Run3	repeat/STIM_011.jpg
2569.801	0.887	correct	repeat	Run3	repeat/STIM_011.jpg
2574.157	0.631	correct	repeat	Run3	repeat/STIM_012.jpg
2578.629	0.831	correct	repeat	Run3	repeat/STIM_012.jpg
2583.223	0.948	correct	repeat	Run3	repeat/STIM_012.jpg
2587.75	0.881	correct	repeat	Run3	repeat/STIM_012.jpg
2591.337	1.088	correct	repeat	Run3	repeat/STIM_012.jpg
2594.556	0.874	correct	repeat	Run3	repeat/STIM_013.jpg
2597.51	0.566	correct	repeat	Run3	repeat/STIM_013.jpg
2600.203	1.054	correct	repeat	Run3	repeat/STIM_013.jpg
2604.7	1.066	correct	repeat	Run3	repeat/STIM_013.jpg
2608.759	0.723	correct	repeat	Run3	repeat/STIM_013.jpg
2612.819	1.117	correct	repeat	Run3	repeat/STIM_014.jpg
2616.321	0.58	correct	repeat	Run3	repeat/STIM_014.jpg
2619.221	0.888	incorrect	repeat	Run3	repeat/STIM_014.jpg
2622.464	0.696	correct	repeat	Run3	repeat/STIM_014.jpg
2626.159	0.856	correct	repeat	Run3	repeat/STIM_014.jpg
2630.248	1.789	correct	generate	Run4	generate/STIM_000.jpg
2634.924	1.036	incorrect	generate	Run4	generate/STIM_000.jpg
2638.932	1.312	correct	generate	Run4	generate/STIM_000.jpg
2642.201	2.322	correct	generate	Run4	generate/STIM_000.jpg
2647.324	1.51	correct	generate	Run4	generate/STIM_000.jpg
2651.323	1.19	correct	generate	Run4	generate/STIM_001.jpg
2655.718	2.123	correct	generate	Run4	generate/STIM_001.jpg
2661.324	1.08	correct	generate	Run4	generate/STIM_001.jpg
2664.921	1.056	correct	generate	Run4	generate/STIM_001.jpg
2669.414	2.224	correct	generate	Run4	generate/STIM_001.jpg
2674.614	1.904	correct	generate	Run4	generate/STIM_002.jpg
2679.706	1.752	correct	generate	Run4	generate/STIM_002.jpg
2683.832	2.265	correct	generate	Run4	generate/STIM_002.jpg
2688.524	1.146	correct	generate	Run4	generate/STIM_002.jpg
2692.08	1.76	correct	generate	Run4	generate/STIM_002.jpg
2696.523	1.674	correct	generate	Run4	generate/STIM_003.jpg
2701.503	2.112	incorrect	generate	Run4	generate/STIM_003.jpg
2706.825	1.661	correct	generate	Run4	generate/STIM_003.jpg
2711.381	1.734	correct	generate	Run4	generate/STIM_003.jpg
2715.588	1.819	correct	generate	Run4	generate/STIM_003.jpg
2720.646	1.241	correct	generate	Run4	generate/STIM_004.jpg
2724.102	1.81	correct	generate	Run4	generate/STIM_004.jpg
2728.695	1.208	correct	generate	Run4	generate/STIM_004.jpg
2732.601	2.179	correct	generate	Run4	generate/STIM_004.jpg
2738.315	1.064	correct	generate	Run4	generate/STIM_004.jpg
2741.291	1.634	correct	generate	Run4	generate/STIM_005.jpg
2745.515	1.528	correct	generate	Run4	generate/STIM_005.jpg
2750.601	1.394	correct	generate	Run4	generate/STIM_005.jpg
2754.408	2.069	correct	generate	Run4	generate/STIM_005.jpg
2758.301	2.075	correct	generate	Run4	generate/STIM_005.jpg
2762.687	1.414	correct	generate	Run4	generate/STIM_006.jpg
2767.872	1.663	correct	generate	Run4	generate/STIM_006.jpg
2771.418	1.607	correct	generate	Run4	generate/STIM_006.jpg
2775.846	2.112	correct	generate	Run4	generate/STIM_006.jpg
2780.759	2.226	correct	generate	Run4	generate/STIM_006.jpg
2785.135	1.345	correct	generate	Run4	generate/STIM_007.jpg
2789.973	1.3	correct	generate	Run4	generate/STIM_007.jpg
2794.094	0.991	correct	generate	Run4	generate/STIM_007.jpg
2797.294	1.98	correct	generate	Run4	generate/STIM_007.jpg
2801.245	1.034	correct	generate	Run4	generate/STIM_007.jpg
2804.747	1.752	correct	generate	Run4	generate/STIM_008.jpg
2808.986	1.647	correct	generate	Run4	generate/STIM_008.jpg
2813.967	2.052	correct	generate	Run4	generate/STIM_008.jpg
2817.989	1.842	incorrect	generate	Run4	generate/STIM_008.jpg
2823.56	1.312	correct	generate	Run4	generate/STIM_008.jpg
2826.787	1.2	correct	generate	Run4	generate/STIM_009.jpg
2830.151	1.97	correct	generate	Run4	generate/STIM_009.jpg
2835.591	1.171	correct	generate	Run4	generate/STIM_009.jpg
2839.106	1.449	correct	generate	Run4	generate/STIM_009.jpg
2844.233	1.815	correct	generate	Run4	generate/STIM_009.jpg
2849.393	1.89	correct	generate	Run4	generate/STIM_010.jpg
2853.698	1.872	correct	generate	Run4	generate/STIM_010.jpg
2857.608	2.148	correct	generate	Run4	generate/STIM_010.jpg
2862.077	1.768	correct	generate	Run4	generate/STIM_010.jpg
2867.463	2.275	correct	generate	Run4	generate/STIM_010.jpg
2872.259	2.339	correct	generate	Run4	generate/STIM_011.jpg
2877.127	1.185	incorrect	generate	Run4	generate/STIM_011.jpg
2880.644	1.279	correct	generate	Run4	generate/STIM_011.jpg
2884.698	2.312	correct	generate	Run4	generate/STIM_011.jpg
2889.61	1.953	correct	generate	Run4	generate/STIM_011.jpg
2893.967	0.985	correct	generate	Run4	generate/STIM_012.jpg
2897.566	1.25	correct	generate	Run4	generate/STIM_012.jpg
2902.151	2.002	correct	generate	Run4	generate/STIM_012.jpg
2906.316	1.738	correct	generate	Run4	generate/STIM_012.jpg
2909.981	2.023	correct	generate	Run4	generate/STIM_012.jpg
2914.938	1.154	correct	generate	Run4	generate/STIM_013.jpg
2918.673	2.3	correct	generate	Run4	generate/STIM_013.jpg
2923.389	1.614	correct	generate	Run4	generate/STIM_013.jpg
2928.449	1.106	correct	generate	Run4	generate/STIM_013.jpg
2931.696	1.842	correct	generate	Run4	generate/STIM_013.jpg
2936.03	1.469	correct	generate	Run4	generate/STIM_014.jpg
2940.249	1.197	correct	generate	Run4	generate/STIM_014.jpg
2945.001	2.261	correct	generate	Run4	generate/STIM_014.jpg
2949.532	1.114	correct	generate	Run4	generate/STIM_014.jpg
2953.494	2.005	correct	generate	Run4	generate/STIM_014.jpg
2958.134	2.189	correct	generate	Run4	generate/STIM_015.jpg
2962.055	1.396	correct	generate	Run4	generate/STIM_015.jpg
2966.895	1.391	incorrect	generate	Run4	generate/STIM_015.jpg
2971.509	1.428	correct	generate	Run4	generate/STIM_015.jpg
2976.586	1.747	correct	generate	Run4	generate/STIM_015.jpg
2981.985	1.84	correct	generate	Run4	generate/STIM_016.jpg
2986.526	1.637	correct	generate	Run4	generate/STIM_016.jpg
2991.623	2.236	correct	generate	Run4	generate/STIM_016.jpg
2995.602	1.765	correct	generate	Run4	generate/STIM_016.jpg
3000.325	1.103	correct	generate	Run4	generate/STIM_016.jpg
3004.932	2.179	correct	generate	Run4	generate/STIM_017.jpg
3009.771	1.188	correct	generate	Run4	generate/STIM_017.jpg
3013.249	2.19	correct	generate	Run4	generate/STIM_017.jpg
3019.06	1.725	correct	generate	Run4	generate/STIM_017.jpg
3023.092	1.76	correct	generate	Run4	generate/STIM_017.jpg
3026.989	1.096	correct	generate	Run4	generate/STIM_018.jpg
3030.334	2.326	correct	generate	Run4	generate/STIM_018.jpg
3034.56	2.047	correct	generate	Run4	generate/STIM_018.jpg
3039.382	1.646	correct	generate	Run4	generate/STIM_018.jpg
3043.167	1.92	incorrect	generate	Run4	generate/STIM_018.jpg
3047.784	1.847	correct	generate	Run4	generate/STIM_019.jpg
3053.117	1.998	correct	generate	Run4	generate/STIM_019.jpg
3058.072	1.264	correct	generate	Run4	generate/STIM_019.jpg
3061.953	1.761	correct	generate	Run4	generate/STIM_019.jpg
3066.895	2.393	correct	generate	Run4	generate/STIM_019.jpg
3072.897	1.848	correct	generate	Run4	generate/STIM_020.jpg
3077.052	1.087	correct	generate	Run4	generate/STIM_020.jpg
3080.15	1.835	correct	generate	Run4	generate/STIM_020.jpg
3084.128	2.247	correct	generate	Run4	generate/STIM_020.jpg
3089.444	2.286	correct	generate	Run4	generate/STIM_020.jpg
3094.398	2.203	correct	generate	Run4	generate/STIM_021.jpg
3099.571	1.563	correct	generate	Run4	generate/STIM_021.jpg
3103.587	2.295	correct	generate	Run4	generate/STIM_021.jpg
3108.482	1.689	correct	generate	Run4	generate/STIM_021.jpg
3113.335	1.581	correct	generate	Run4	generate/STIM_021.jpg
3117.755	2.249	correct	generate	Run4	generate/STIM_022.jpg
3121.841	2.02	correct	generate	Run4	generate/STIM_022.jpg
3126.889	2.194	correct	generate	Run4	generate/STIM_022.jpg
3132.298	2.018	correct	generate	Run4	generate/STIM_022.jpg
3136.411	1.931	correct	generate	Run4	generate/STIM_022.jpg
3141.309	1.712	correct	generate	Run4	generate/STIM_023.jpg
3144.887	2.176	correct	generate	Run4	generate/STIM_023.jpg
3150.334	1.526	correct	generate	Run4	generate/STIM_023.jpg
3154.27	1.926	correct	generate	Run4	generate/STIM_023.jpg
3159.36	1.381	correct	generate	Run4	generate/STIM_023.jpg
3164.175	2.197	correct	generate	Run4	generate/STIM_024.jpg
3169.373	0.937	correct	generate	Run4	generate/STIM_024.jpg
3173.791	1.94	correct	generate	Run4	generate/STIM_024.jpg
3178.777	1.938	correct	generate	Run4	generate/STIM_024.jpg
3184.031	2.164	correct	generate	Run4	generate/STIM_024.jpg
3189.782	0.806	correct	repeat	Run4	repeat/STIM_000.jpg
3193.738	0.942	correct	repeat	Run4	repeat/STIM_000.jpg
3197.874	1.101	correct	repeat	Run4	repeat/STIM_000.jpg
3201.354	0.994	correct	repeat	Run4	repeat/STIM_000.jpg
3205.923	0.701	correct	repeat	Run4	repeat/STIM_000.jpg
3208.828	0.78	correct	repeat	Run4	repeat/STIM_001.jpg
3211.716	0.732	correct	repeat	Run4	repeat/STIM_001.jpg
3214.812	0.599	correct	repeat	Run4	repeat/STIM_001.jpg
3218.383	0.753	correct	repeat	Run4	repeat/STIM_001.jpg
3221.999	0.681	correct	repeat	Run4	repeat/STIM_001.jpg
3226.597	0.58	correct	repeat	Run4	repeat/STIM_002.jpg
3229.694	0.846	correct	repeat	Run4	repeat/STIM_002.jpg
3232.946	1.005	correct	repeat	Run4	repeat/STIM_002.jpg
3236.255	0.664	correct	repeat	Run4	repeat/STIM_002.jpg
3240.858	0.854	correct	repeat	Run4	repeat/STIM_002.jpg
3245.58	0.72	correct	repeat	Run4	repeat/STIM_003.jpg
3249.605	0.687	incorrect	repeat	Run4	repeat/STIM_003.jpg
3254.22	0.905	correct	repeat	Run4	repeat/STIM_003.jpg
3258.357	0.631	incorrect	repeat	Run4	repeat/STIM_003.jpg
3262.89	0.746	correct	repeat	Run4	repeat/STIM_003.jpg
3266.757	0.718	correct	repeat	Run4	repeat/STIM_004.jpg
3269.861	0.562	incorrect	repeat	Run4	repeat/STIM_004.jpg
3273.152	1.164	correct	repeat	Run4	repeat/STIM_004.jpg
3276.413	1.025	correct	repeat	Run4	repeat/STIM_004.jpg
3279.71	0.647	correct	repeat	Run4	repeat/STIM_004.jpg
3282.741	1.124	correct	repeat	Run4	repeat/STIM_005.jpg
3286.02	0.658	correct	repeat	Run4	repeat/STIM_005.jpg
3290.115	0.632	correct	repeat	Run4	repeat/STIM_005.jpg
3294.124	1.205	correct	repeat	Run4	repeat/STIM_005.jpg
3297.621	0.828	correct	repeat	Run4	repeat/STIM_005.jpg
3300.581	0.94	correct	repeat	Run4	repeat/STIM_006.jpg
3305.141	0.748	correct	repeat	Run4	repeat/STIM_006.jpg
3308.822	1.156	incorrect	repeat	Run4	repeat/STIM_006.jpg
3313.093	1.058	correct	repeat	Run4	repeat/STIM_006.jpg
3317.428	0.585	correct	repeat	Run4	repeat/STIM_006.jpg
3320.714	0.946	correct	repeat	Run4	repeat/STIM_007.jpg
3323.728	0.752	correct	repeat	Run4	repeat/STIM_007.jpg
3326.705	0.737	correct	repeat	Run4	repeat/STIM_007.jpg
3330.325	1.106	correct	repeat	Run4	repeat/STIM_007.jpg
3333.95	0.586	correct	repeat	Run4	repeat/STIM_007.jpg
3337.07	1.128	correct	repeat	Run4	repeat/STIM_008.jpg
3340.617	0.629	correct	repeat	Run4	repeat/STIM_008.jpg
3344.835	0.933	incorrect	repeat	Run4	repeat/STIM_008.jpg
3348.663	0.756	correct	repeat	Run4	repeat/STIM_008.jpg
3352.919	1.082	correct	repeat	Run4	repeat/STIM_008.jpg
3356.148	0.881	incorrect	repeat	Run4	repeat/STIM_009.jpg
3359.079	0.697	correct	repeat	Run4	repeat/STIM_009.jpg
3362.901	0.808	correct	repeat	Run4	repeat/STIM_009.jpg
3367.356	1.081	correct	repeat	Run4	repeat/STIM_009.jpg
3371.781	0.909	correct	repeat	Run4	repeat/STIM_009.jpg
3376.194	0.943	correct	repeat	Run4	repeat/STIM_010.jpg
3379.232	0.862	correct	repeat	Run4	repeat/STIM_010.jpg
3383.369	1.054	correct	repeat	Run4	repeat/STIM_010.jpg
3387.649	1.104	correct	repeat	Run4	repeat/STIM_010.jpg
3391.39	0.768	correct	repeat	Run4	repeat/STIM_010.jpg
3395.757	0.991	correct	repeat	Run4	repeat/STIM_011.jpg
3399.295	0.95	correct	repeat	Run4	repeat/STIM_011.jpg
3403.652	0.888	correct	repeat	Run4	repeat/STIM_011.jpg
3407.325	0.614	incorrect	repeat	Run4	repeat/STIM_011.jpg
3410.544	1.254	incorrect	repeat	Run4	repeat/STIM_011.jpg
3413.675	0.75	correct	repeat	Run4	repeat/STIM_012.jpg
3416.752	0.683	correct	repeat	Run4	repeat/STIM_012.jpg
3420.329	0.892	correct	repeat	Run4	repeat/STIM_012.jpg
3423.742	0.744	correct	repeat	Run4	repeat/STIM_012.jpg
3427.832	0.923	correct	repeat	Run4	repeat/STIM_012.jpg
3431.312	0.764	correct	repeat	Run4	repeat/STIM_013.jpg
3434.499	0.71	correct	repeat	Run4	repeat/STIM_013.jpg
3437.352	0.944	correct	repeat	Run4	repeat/STIM_013.jpg
3440.329	0.64	correct	repeat	Run4	repeat/STIM_013.jpg
3443.343	1.08	correct	repeat	Run4	repeat/STIM_013.jpg
3447.244	0.985	correct	repeat	Run4	repeat/STIM_014.jpg
3451.432	0.988	correct	repeat	Run4	repeat/STIM_014.jpg
3456.062	1.175	correct	repeat	Run4	repeat/STIM_014.jpg
3460.351	0.766	correct	repeat	Run4	repeat/STIM_014.jpg
3463.052	0.993	correct	repeat	Run4	repeat/STIM_014.jpg
