onset	duration	response_time_ms	trial_type	learning_stage	stimulus	response_port
0.0	1.421	1420.7	generate	Run1	generate/STIM_000.jpg	100
4.793	2.695	2695.2	generate	Run1	generate/STIM_000.jpg	99
10.748	1.815	1815.3	generate	Run1	generate/STIM_000.jpg	99
15.877	2.347	2347.4	generate	Run1	generate/STIM_000.jpg	99
20.353	2.666	2666.4	generate	Run1	generate/STIM_000.jpg	100
26.149	1.994	1994.4	generate	Run1	generate/STIM_001.jpg	100
31.176	1.558	1557.6	generate	Run1	generate/STIM_001.jpg	99
36.023	1.568	1568.5	generate	Run1	generate/STIM_001.jpg	99
40.382	2.463	2463.1	generate	Run1	generate/STIM_001.jpg	100
45.868	1.92	1919.5	generate	Run1	generate/STIM_001.jpg	100
51.159	2.032	2032.3	generate	Run1	generate/STIM_002.jpg	99
56.621	2.489	2488.8	generate	Run1	generate/STIM_002.jpg	99
62.378	1.225	1225.1	generate	Run1	generate/STIM_002.jpg	100
66.732	2.429	2428.8	generate	Run1	generate/STIM_002.jpg	100
71.836	2.654	2654.0	generate	Run1	generate/STIM_002.jpg	100
77.435	2.652	2651.5	generate	Run1	generate/STIM_003.jpg	99
83.563	3.229	3229.1	generate	Run1	generate/STIM_003.jpg	99
88.618	1.847	1847.2	generate	Run1	generate/STIM_003.jpg	100
94.072	2.942	2942.1	generate	Run1	generate/STIM_003.jpg	99
100.206	1.767	1767.3	generate	Run1	generate/STIM_003.jpg	99
104.336	3.39	3390.5	generate	Run1	generate/STIM_004.jpg	99
110.668	1.893	1892.6	generate	Run1	generate/STIM_004.jpg	100
115.808	2.644	2643.9	generate	Run1	generate/STIM_004.jpg	100
121.909	1.951	1951.2	generate	Run1	generate/STIM_004.jpg	100
126.934	2.452	2451.6	generate	Run1	generate/STIM_004.jpg	99
132.172	2.191	2191.4	generate	Run1	generate/STIM_005.jpg	99
136.183	2.483	2483.3	generate	Run1	generate/STIM_005.jpg	100
141.788	2.134	2134.2	generate	Run1	generate/STIM_005.jpg	100
147.078	2.591	2591.2	generate	Run1	generate/STIM_005.jpg	99
153.033	2.029	2029.1	generate	Run1	generate/STIM_005.jpg	100
157.064	2.37	2370.5	generate	Run1	generate/STIM_006.jpg	99
161.408	1.858	1857.5	generate	Run1	generate/STIM_006.jpg	100
166.24	2.083	2083.1	generate	Run1	generate/STIM_006.jpg	100
172.044	1.528	1527.5	generate	Run1	generate/STIM_006.jpg	100
176.975	2.653	2652.6	generate	Run1	generate/STIM_006.jpg	100
182.862	3.23	3230.2	generate	Run1	generate/STIM_007.jpg	99
188.166	2.518	2517.5	generate	Run1	generate/STIM_007.jpg	100
192.521	1.611	1611.4	generate	Run1	generate/STIM_007.jpg	100
196.713	2.741	2741.3	generate	Run1	generate/STIM_007.jpg	100
201.357	2.388	2388.1	generate	Run1	generate/STIM_007.jpg	99
205.803	1.477	1476.6	generate	Run1	generate/STIM_008.jpg	99
210.318	2.901	2901.0	generate	Run1	generate/STIM_008.jpg	100
216.382	1.832	1831.5	generate	Run1	generate/STIM_008.jpg	99
220.161	2.136	2136.4	generate	Run1	generate/STIM_008.jpg	99
225.826	2.388	2387.8	generate	Run1	generate/STIM_008.jpg	100
231.8	3.06	3060.0	generate	Run1	generate/STIM_009.jpg	100
237.9	3.272	3272.2	generate	Run1	generate/STIM_009.jpg	100
242.841	1.355	1355.3	generate	Run1	generate/STIM_009.jpg	99
248.094	1.534	1533.7	generate	Run1	generate/STIM_009.jpg	99
251.443	2.372	2372.1	generate	Run1	generate/STIM_009.jpg	100
257.298	3.058	3057.9	generate	Run1	generate/STIM_010.jpg	100
262.676	2.253	2253.4	generate	Run1	generate/STIM_010.jpg	100
267.839	1.654	1654.2	generate	Run1	generate/STIM_010.jpg	100
272.446	1.671	1671.4	generate	Run1	generate/STIM_010.jpg	100
276.877	2.189	2188.9	generate	Run1	generate/STIM_010.jpg	99
282.156	2.504	2504.0	generate	Run1	generate/STIM_011.jpg	100
286.738	1.573	1572.6	generate	Run1	generate/STIM_011.jpg	99
290.927	3.079	3079.1	generate	Run1	generate/STIM_011.jpg	100
295.66	2.818	2817.9	generate	Run1	generate/STIM_011.jpg	100
301.137	2.37	2370.1	generate	Run1	generate/STIM_011.jpg	99
305.77	3.209	3209.2	generate	Run1	generate/STIM_012.jpg	100
312.609	1.828	1827.8	generate	Run1	generate/STIM_012.jpg	99
316.255	1.353	1352.7	generate	Run1	generate/STIM_012.jpg	100
320.48	1.788	1788.2	generate	Run1	generate/STIM_012.jpg	99
325.287	2.71	2710.2	generate	Run1	generate/STIM_012.jpg	100
330.17	2.697	2697.1	generate	Run1	generate/STIM_013.jpg	100
336.016	2.296	2296.2	generate	Run1	generate/STIM_013.jpg	99
341.729	2.171	2171.3	generate	Run1	generate/STIM_013.jpg	100
347.376	1.578	1578.1	generate	Run1	generate/STIM_013.jpg	99
352.425	1.457	1457.2	generate	Run1	generate/STIM_013.jpg	99
356.525	2.482	2481.5	generate	Run1	generate/STIM_014.jpg	99
360.915	2.068	2068.1	generate	Run1	generate/STIM_014.jpg	100
364.978	2.073	2073.1	generate	Run1	generate/STIM_014.jpg	100
369.337	2.708	2707.6	generate	Run1	generate/STIM_014.jpg	100
375.204	2.281	2280.9	generate	Run1	generate/STIM_014.jpg	100
380.757	2.907	2907.4	generate	Run1	generate/STIM_015.jpg	99
387.237	1.848	1847.6	generate	Run1	generate/STIM_015.jpg	99
390.935	1.683	1683.0	generate	Run1	generate/STIM_015.jpg	99
396.395	2.845	2844.6	generate	Run1	generate/STIM_015.jpg	100
401.274	1.134	1133.9	generate	Run1	generate/STIM_015.jpg	99
405.287	3.184	3184.2	generate	Run1	generate/STIM_016.jpg	100
411.241	2.68	2679.9	generate	Run1	generate/STIM_016.jpg	99
417.014	1.856	1856.5	generate	Run1	generate/STIM_016.jpg	99
422.137	1.944	1943.8	generate	Run1	generate/STIM_016.jpg	100
426.231	1.988	1988.2	generate	Run1	generate/STIM_016.jpg	99
430.567	2.771	2770.9	generate	Run1	generate/STIM_017.jpg	100
436.133	2.671	2670.7	generate	Run1	generate/STIM_017.jpg	100
441.005	2.986	2986.2	generate	Run1	generate/STIM_017.jpg	100
446.028	1.233	1233.3	generate	Run1	generate/STIM_017.jpg	100
450.604	1.938	1937.5	generate	Run1	generate/STIM_017.jpg	100
454.901	3.082	3081.8	generate	Run1	generate/STIM_018.jpg	100
460.31	1.436	1435.9	generate	Run1	generate/STIM_018.jpg	100
465.21	2.968	2968.1	generate	Run1	generate/STIM_018.jpg	99
471.089	2.113	2112.8	generate	Run1	generate/STIM_018.jpg	99
476.796	2.549	2548.7	generate	Run1	generate/STIM_018.jpg	100
482.68	3.31	3310.4	generate	Run1	generate/STIM_019.jpg	100
487.697	2.024	2023.8	generate	Run1	generate/STIM_019.jpg	100
492.219	1.738	1738.1	generate	Run1	generate/STIM_019.jpg	99
496.884	1.767	1766.8	generate	Run1	generate/STIM_019.jpg	100
502.377	2.704	2704.2	generate	Run1	generate/STIM_019.jpg	100
507.448	2.381	2380.9	generate	Run1	generate/STIM_020.jpg	99
512.169	3.049	3049.3	generate	Run1	generate/STIM_020.jpg	99
517.084	2.03	2029.5	generate	Run1	generate/STIM_020.jpg	100
521.343	2.386	2386.2	generate	Run1	generate/STIM_020.jpg	100
525.973	1.597	1596.8	generate	Run1	generate/STIM_020.jpg	99
531.034	3.142	3142.1	generate	Run1	generate/STIM_021.jpg	99
536.592	1.315	1315.4	generate	Run1	generate/STIM_021.jpg	99
540.198	2.161	2161.0	generate	Run1	generate/STIM_021.jpg	100
545.718	2.636	2635.7	generate	Run1	generate/STIM_021.jpg	99
551.696	2.55	2549.9	generate	Run1	generate/STIM_021.jpg	100
557.07	2.286	2286.1	generate	Run1	generate/STIM_022.jpg	99
561.875	2.58	2580.5	generate	Run1	generate/STIM_022.jpg	99
567.377	2.893	2892.6	generate	Run1	generate/STIM_022.jpg	100
572.279	2.298	2297.6	generate	Run1	generate/STIM_022.jpg	100
576.428	1.532	1531.6	generate	Run1	generate/STIM_022.jpg	100
579.97	2.676	2676.5	generate	Run1	generate/STIM_023.jpg	99
585.214	2.084	2084.1	generate	Run1	generate/STIM_023.jpg	99
590.366	2.306	2305.6	generate	Run1	generate/STIM_023.jpg	100
595.538	2.205	2204.7	generate	Run1	generate/STIM_023.jpg	100
600.511	1.614	1613.5	generate	Run1	generate/STIM_023.jpg	100
604.365	2.349	2349.0	generate	Run1	generate/STIM_024.jpg	99
608.85	1.322	1322.3	generate	Run1	generate/STIM_024.jpg	99
613.752	2.783	2783.4	generate	Run1	generate/STIM_024.jpg	100
618.296	1.57	1570.0	generate	Run1	generate/STIM_024.jpg	99
621.875	1.889	1889.0	generate	Run1	generate/STIM_024.jpg	100
627.216	0.559	559.1	repeat	Run1	repeat/STIM_000.jpg	100
629.861	1.014	1013.7	repeat	Run1	repeat/STIM_000.jpg	99
634.212	1.03	1030.4	repeat	Run1	repeat/STIM_000.jpg	99
637.891	0.832	832.3	repeat	Run1	repeat/STIM_000.jpg	99
641.652	0.882	881.5	repeat	Run1	repeat/STIM_000.jpg	100
644.446	1.154	1154.5	repeat	Run1	repeat/STIM_001.jpg	99
648.924	1.092	1091.7	repeat	Run1	repeat/STIM_001.jpg	99
653.742	0.95	949.8	repeat	Run1	repeat/STIM_001.jpg	100
657.157	0.796	796.3	repeat	Run1	repeat/STIM_001.jpg	99
659.932	0.709	708.8	repeat	Run1	repeat/STIM_001.jpg	99
663.406	0.941	941.3	repeat	Run1	repeat/STIM_002.jpg	99
667.422	0.994	993.8	repeat	Run1	repeat/STIM_002.jpg	99
672.131	0.82	820.3	repeat	Run1	repeat/STIM_002.jpg	100
675.738	0.949	949.0	repeat	Run1	repeat/STIM_002.jpg	100
679.0	1.073	1073.1	repeat	Run1	repeat/STIM_002.jpg	99
683.464	1.04	1040.0	repeat	Run1	repeat/STIM_003.jpg	99
687.782	0.67	670.3	repeat	Run1	repeat/STIM_003.jpg	99
691.284	0.848	847.8	repeat	Run1	repeat/STIM_003.jpg	100
694.527	1.141	1141.4	repeat	Run1	repeat/STIM_003.jpg	99
697.618	1.159	1159.4	repeat	Run1	repeat/STIM_003.jpg	99
702.093	1.022	1021.7	repeat	Run1	repeat/STIM_004.jpg	100
705.133	0.805	805.1	repeat	Run1	repeat/STIM_004.jpg	100
709.185	0.92	919.9	repeat	Run1	repeat/STIM_004.jpg	99
713.328	1.057	1056.6	repeat	Run1	repeat/STIM_004.jpg	100
717.928	0.724	723.8	repeat	Run1	repeat/STIM_004.jpg	100
722.337	1.048	1047.6	repeat	Run1	repeat/STIM_005.jpg	100
725.613	0.798	798.1	repeat	Run1	repeat/STIM_005.jpg	99
728.398	0.946	946.4	repeat	Run1	repeat/STIM_005.jpg	100
732.811	0.734	734.4	repeat	Run1	repeat/STIM_005.jpg	100
736.204	1.205	1205.1	repeat	Run1	repeat/STIM_005.jpg	100
741.145	0.628	627.8	repeat	Run1	repeat/STIM_006.jpg	99
744.328	0.829	829.2	repeat	Run1	repeat/STIM_006.jpg	100
748.916	0.797	797.0	repeat	Run1	repeat/STIM_006.jpg	100
751.903	0.908	907.6	repeat	Run1	repeat/STIM_006.jpg	100
754.833	0.984	983.6	repeat	Run1	repeat/STIM_006.jpg	99
758.86	0.57	569.7	repeat	Run1	repeat/STIM_007.jpg	99
763.324	0.892	891.7	repeat	Run1	repeat/STIM_007.jpg	100
766.82	0.618	618.4	repeat	Run1	repeat/STIM_007.jpg	100
770.736	0.802	802.1	repeat	Run1	repeat/STIM_007.jpg	100
773.905	0.77	769.8	repeat	Run1	repeat/STIM_007.jpg	100
777.848	1.049	1049.2	repeat	Run1	repeat/STIM_008.jpg	99
781.711	0.74	740.4	repeat	Run1	repeat/STIM_008.jpg	99
785.883	0.939	938.9	repeat	Run1	repeat/STIM_008.jpg	100
788.842	1.166	1165.9	repeat	Run1	repeat/STIM_008.jpg	99
792.075	1.183	1182.7	repeat	Run1	repeat/STIM_008.jpg	99
795.78	0.687	686.6	repeat	Run1	repeat/STIM_009.jpg	99
800.116	0.81	809.9	repeat	Run1	repeat/STIM_009.jpg	99
803.576	1.125	1125.3	repeat	Run1	repeat/STIM_009.jpg	100
808.427	1.123	1122.8	repeat	Run1	repeat/STIM_009.jpg	100
813.212	0.757	757.0	repeat	Run1	repeat/STIM_009.jpg	99
816.465	1.057	1057.0	repeat	Run1	repeat/STIM_010.jpg	99
821.011	1.189	1188.9	repeat	Run1	repeat/STIM_010.jpg	99
824.384	0.964	963.7	repeat	Run1	repeat/STIM_010.jpg	100
827.466	0.768	767.8	repeat	Run1	repeat/STIM_010.jpg	100
831.389	1.201	1200.7	repeat	Run1	repeat/STIM_010.jpg	99
834.928	0.968	968.5	repeat	Run1	repeat/STIM_011.jpg	99
838.128	0.82	819.7	repeat	Run1	repeat/STIM_011.jpg	100
842.539	0.624	624.1	repeat	Run1	repeat/STIM_011.jpg	99
845.213	0.723	723.3	repeat	Run1	repeat/STIM_011.jpg	100
849.32	1.063	1062.9	repeat	Run1	repeat/STIM_011.jpg	99
852.981	0.999	999.3	repeat	Run1	repeat/STIM_012.jpg	99
856.997	1.061	1060.8	repeat	Run1	repeat/STIM_012.jpg	100
861.124	1.109	1109.0	repeat	Run1	repeat/STIM_012.jpg	100
866.07	1.011	1011.1	repeat	Run1	repeat/STIM_012.jpg	100
869.939	0.673	673.2	repeat	Run1	repeat/STIM_012.jpg	100
874.13	0.858	857.8	repeat	Run1	repeat/STIM_013.jpg	99
878.176	0.899	899.1	repeat	Run1	repeat/STIM_013.jpg	100
881.548	1.1	1100.5	repeat	Run1	repeat/STIM_013.jpg	100
885.213	0.874	874.5	repeat	Run1	repeat/STIM_013.jpg	99
889.425	0.749	748.7	repeat	Run1	repeat/STIM_013.jpg	99
893.838	0.626	626.1	repeat	Run1	repeat/STIM_014.jpg	100
896.803	0.883	883.0	repeat	Run1	repeat/STIM_014.jpg	100
899.716	1.124	1123.9	repeat	Run1	repeat/STIM_014.jpg	100
903.42	0.893	893.1	repeat	Run1	repeat/STIM_014.jpg	100
907.02	0.565	565.0	repeat	Run1	repeat/STIM_014.jpg	99
911.204	1.416	1416.4	generate	Run2	generate/STIM_000.jpg	100
915.611	2.624	2624.5	generate	Run2	generate/STIM_000.jpg	99
919.988	1.796	1795.7	generate	Run2	generate/STIM_000.jpg	100
925.049	1.854	1854.3	generate	Run2	generate/STIM_000.jpg	99
930.186	1.529	1528.6	generate	Run2	generate/STIM_000.jpg	99
934.225	1.839	1839.1	generate	Run2	generate/STIM_001.jpg	99
938.772	1.831	1830.9	generate	Run2	generate/STIM_001.jpg	99
943.11	2.073	2073.3	generate	Run2	generate/STIM_001.jpg	99
948.981	1.721	1720.6	generate	Run2	generate/STIM_001.jpg	100
952.627	1.1	1099.8	generate	Run2	generate/STIM_001.jpg	99
957.22	1.846	1845.8	generate	Run2	generate/STIM_002.jpg	99
962.155	1.333	1333.3	generate	Run2	generate/STIM_002.jpg	99
966.989	1.202	1202.0	generate	Run2	generate/STIM_002.jpg	99
971.603	1.046	1045.9	generate	Run2	generate/STIM_002.jpg	100
974.712	1.881	1880.8	generate	Run2	generate/STIM_002.jpg	99
979.883	1.811	1811.2	generate	Run2	generate/STIM_003.jpg	100
983.533	2.169	2169.0	generate	Run2	generate/STIM_003.jpg	100
988.747	2.29	2289.6	generate	Run2	generate/STIM_003.jpg	99
993.893	1.996	1996.0	generate	Run2	generate/STIM_003.jpg	100
998.97	1.276	1275.9	generate	Run2	generate/STIM_003.jpg	99
1003.342	2.745	2744.9	generate	Run2	generate/STIM_004.jpg	99
1007.709	1.293	1293.3	generate	Run2	generate/STIM_004.jpg	99
1011.164	1.633	1633.2	generate	Run2	generate/STIM_004.jpg	100
1014.987	1.247	1246.8	generate	Run2	generate/STIM_004.jpg	100
1019.708	2.039	2038.8	generate	Run2	generate/STIM_004.jpg	99
1023.697	2.328	2328.1	generate	Run2	generate/STIM_005.jpg	100
1028.561	1.715	1714.9	generate	Run2	generate/STIM_005.jpg	100
1033.347	1.96	1959.5	generate	Run2	generate/STIM_005.jpg	99
1037.211	1.536	1536.0	generate	Run2	generate/STIM_005.jpg	100
1041.095	1.085	1085.3	generate	Run2	generate/STIM_005.jpg	99
1045.099	1.45	1450.2	generate	Run2	generate/STIM_006.jpg	99
1049.554	1.768	1768.0	generate	Run2	generate/STIM_006.jpg	100
1054.472	2.113	2112.6	generate	Run2	generate/STIM_006.jpg	99
1058.557	2.181	2180.7	generate	Run2	generate/STIM_006.jpg	99
1063.968	1.259	1258.9	generate	Run2	generate/STIM_006.jpg	100
1067.808	1.544	1544.4	generate	Run2	generate/STIM_007.jpg	100
1071.916	1.672	1671.8	generate	Run2	generate/STIM_007.jpg	99
1076.701	1.067	1067.3	generate	Run2	generate/STIM_007.jpg	100
1081.241	1.621	1620.7	generate	Run2	generate/STIM_007.jpg	100
1086.104	1.992	1992.3	generate	Run2	generate/STIM_007.jpg	100
1091.628	1.304	1304.4	generate	Run2	generate/STIM_008.jpg	100
1095.956	2.263	2263.1	generate	Run2	generate/STIM_008.jpg	100
1101.888	2.056	2056.0	generate	Run2	generate/STIM_008.jpg	99
1107.207	1.043	1043.3	generate	Run2	generate/STIM_008.jpg	99
1111.951	1.253	1253.4	generate	Run2	generate/STIM_008.jpg	100
1115.503	2.84	2839.8	generate	Run2	generate/STIM_009.jpg	100
1121.837	2.508	2507.7	generate	Run2	generate/STIM_009.jpg	100
1126.34	2.504	2503.9	generate	Run2	generate/STIM_009.jpg	99
1132.412	2.2	2199.8	generate	Run2	generate/STIM_009.jpg	99
1137.337	1.906	1905.8	generate	Run2	generate/STIM_009.jpg	100
1141.162	1.974	1974.0	generate	Run2	generate/STIM_010.jpg	100
1146.657	2.347	2346.6	generate	Run2	generate/STIM_010.jpg	100
1151.09	1.742	1741.5	generate	Run2	generate/STIM_010.jpg	100
1156.058	1.33	1329.9	generate	Run2	generate/STIM_010.jpg	99
1160.579	1.695	1694.8	generate	Run2	generate/STIM_010.jpg	99
1165.323	2.439	2438.8	generate	Run2	generate/STIM_011.jpg	100
1169.933	1.902	1902.1	generate	Run2	generate/STIM_011.jpg	99
1174.738	1.35	1349.6	generate	Run2	generate/STIM_011.jpg	99
1178.038	1.511	1510.7	generate	Run2	generate/STIM_011.jpg	100
1181.786	1.242	1242.3	generate	Run2	generate/STIM_011.jpg	100
1184.882	2.878	2878.1	generate	Run2	generate/STIM_012.jpg	100
1190.013	2.38	2380.5	generate	Run2	generate/STIM_012.jpg	100
1195.149	1.648	1648.3	generate	Run2	generate/STIM_012.jpg	99
1200.335	2.147	2146.7	generate	Run2	generate/STIM_012.jpg	100
1205.754	2.064	2064.4	generate	Run2	generate/STIM_012.jpg	99
1211.403	1.513	1513.0	generate	Run2	generate/STIM_013.jpg	99
1215.957	1.971	1971.1	generate	Run2	generate/STIM_013.jpg	99
1221.325	1.934	1934.3	generate	Run2	generate/STIM_013.jpg	100
1225.029	1.32	1319.9	generate	Run2	generate/STIM_013.jpg	99
1228.954	0.988	988.1	generate	Run2	generate/STIM_013.jpg	99
1232.902	2.415	2415.3	generate	Run2	generate/STIM_014.jpg	100
1238.232	2.579	2579.4	generate	Run2	generate/STIM_014.jpg	99
1243.53	2.105	2104.9	generate	Run2	generate/STIM_014.jpg	99
1249.106	1.381	1381.0	generate	Run2	generate/STIM_014.jpg	100
1253.015	2.285	2285.0	generate	Run2	generate/STIM_014.jpg	100
1258.089	1.373	1373.1	generate	Run2	generate/STIM_015.jpg	99
1262.818	1.595	1595.1	generate	Run2	generate/STIM_015.jpg	100
1266.508	2.444	2443.6	generate	Run2	generate/STIM_015.jpg	99
1272.483	1.565	1565.3	generate	Run2	generate/STIM_015.jpg	100
1276.687	1.015	1014.8	generate	Run2	generate/STIM_015.jpg	99
1280.114	2.93	2930.5	generate	Run2	generate/STIM_016.jpg	99
1286.552	1.617	1617.3	generate	Run2	generate/STIM_016.jpg	100
1291.545	1.403	1403.0	generate	Run2	generate/STIM_016.jpg	100
1295.469	2.35	2349.8	generate	Run2	generate/STIM_016.jpg	100
1301.029	2.355	2355.0	generate	Run2	generate/STIM_016.jpg	100
1306.179	2.28	2279.9	generate	Run2	generate/STIM_017.jpg	99
1310.815	1.495	1495.3	generate	Run2	generate/STIM_017.jpg	99
1315.36	2.384	2384.4	generate	Run2	generate/STIM_017.jpg	100
1320.102	1.434	1434.0	generate	Run2	generate/STIM_017.jpg	99
1325.32	2.067	2067.3	generate	Run2	generate/STIM_017.jpg	100
1330.394	2.886	2885.9	generate	Run2	generate/STIM_018.jpg	99
1336.492	2.381	2381.1	generate	Run2	generate/STIM_018.jpg	99
1342.09	1.279	1278.7	generate	Run2	generate/STIM_018.jpg	100
1345.153	2.149	2149.4	generate	Run2	generate/STIM_018.jpg	99
1350.322	2.103	2102.7	generate	Run2	generate/STIM_018.jpg	100
1354.635	2.494	2493.7	generate	Run2	generate/STIM_019.jpg	100
1360.198	1.07	1069.8	generate	Run2	generate/STIM_019.jpg	100
1364.939	1.175	1174.6	generate	Run2	generate/STIM_019.jpg	100
1369.414	1.159	1158.9	generate	Run2	generate/STIM_019.jpg	100
1373.428	1.972	1972.0	generate	Run2	generate/STIM_019.jpg	100
1377.685	2.468	2468.5	generate	Run2	generate/STIM_020.jpg	100
1383.506	1.597	1597.0	generate	Run2	generate/STIM_020.jpg	100
1387.166	1.775	1774.6	generate	Run2	generate/STIM_020.jpg	99
1392.535	2.206	2205.7	generate	Run2	generate/STIM_020.jpg	99
1396.623	1.512	1512.5	generate	Run2	generate/STIM_020.jpg	100
1400.93	2.786	2785.5	generate	Run2	generate/STIM_021.jpg	99
1405.556	1.379	1378.6	generate	Run2	generate/STIM_021.jpg	99
1410.422	2.489	2489.0	generate	Run2	generate/STIM_021.jpg	100
1415.909	1.579	1578.8	generate	Run2	generate/STIM_021.jpg	99
1420.248	2.286	2286.4	generate	Run2	generate/STIM_021.jpg	99
1425.904	1.751	1750.6	generate	Run2	generate/STIM_022.jpg	100
1430.098	1.44	1439.7	generate	Run2	generate/STIM_022.jpg	100
1434.462	1.638	1638.2	generate	Run2	generate/STIM_022.jpg	100
1438.041	1.994	1993.6	generate	Run2	generate/STIM_022.jpg	99
1441.829	1.84	1840.3	generate	Run2	generate/STIM_022.jpg	100
1447.227	2.542	2542.5	generate	Run2	generate/STIM_023.jpg	100
1451.962	1.223	1223.2	generate	Run2	generate/STIM_023.jpg	100
1455.885	2.485	2484.9	generate	Run2	generate/STIM_023.jpg	99
1461.869	2.435	2435.2	generate	Run2	generate/STIM_023.jpg	99
1467.319	2.069	2069.2	generate	Run2	generate/STIM_023.jpg	100
1471.179	1.306	1306.0	generate	Run2	generate/STIM_024.jpg	99
1475.241	2.015	2015.4	generate	Run2	generate/STIM_024.jpg	99
1479.427	1.662	1662.1	generate	Run2	generate/STIM_024.jpg	99
1484.489	2.063	2063.3	generate	Run2	generate/STIM_024.jpg	100
1488.651	2.338	2337.9	generate	Run2	generate/STIM_024.jpg	100
1494.483	0.735	734.8	repeat	Run2	repeat/STIM_000.jpg	99
1498.251	0.892	892.3	repeat	Run2	repeat/STIM_000.jpg	99
1501.321	0.689	689.2	repeat	Run2	repeat/STIM_000.jpg	99
1505.938	1.012	1012.0	repeat	Run2	repeat/STIM_000.jpg	100
1510.456	0.653	653.0	repeat	Run2	repeat/STIM_000.jpg	100
1514.029	1.002	1002.0	repeat	Run2	repeat/STIM_001.jpg	100
1518.012	0.808	807.8	repeat	Run2	repeat/STIM_001.jpg	100
1521.32	0.961	961.3	repeat	Run2	repeat/STIM_001.jpg	100
1525.034	0.841	840.9	repeat	Run2	repeat/STIM_001.jpg	99
1528.971	0.935	934.8	repeat	Run2	repeat/STIM_001.jpg	100
1532.506	0.823	823.3	repeat	Run2	repeat/STIM_002.jpg	99
1535.533	1.097	1096.8	repeat	Run2	repeat/STIM_002.jpg	100
1539.542	1.082	1081.7	repeat	Run2	repeat/STIM_002.jpg	100
1544.399	0.975	974.8	repeat	Run2	repeat/STIM_002.jpg	100
1549.111	0.932	932.0	repeat	Run2	repeat/STIM_002.jpg	100
1553.525	0.926	925.9	repeat	Run2	repeat/STIM_003.jpg	99
1557.675	0.889	888.8	repeat	Run2	repeat/STIM_003.jpg	99
1561.326	0.731	731.0	repeat	Run2	repeat/STIM_003.jpg	99
1564.395	0.841	840.7	repeat	Run2	repeat/STIM_003.jpg	100
1568.78	0.713	713.3	repeat	Run2	repeat/STIM_003.jpg	100
1572.344	0.687	686.7	repeat	Run2	repeat/STIM_004.jpg	99
1576.764	1.044	1044.3	repeat	Run2	repeat/STIM_004.jpg	99
1580.757	1.188	1188.0	repeat	Run2	repeat/STIM_004.jpg	100
1585.324	1.048	1047.6	repeat	Run2	repeat/STIM_004.jpg	100
1589.131	0.94	940.4	repeat	Run2	repeat/STIM_004.jpg	100
1593.193	1.018	1017.7	repeat	Run2	repeat/STIM_005.jpg	100
1597.668	0.731	731.4	repeat	Run2	repeat/STIM_005.jpg	99
1601.128	0.681	681.1	repeat	Run2	repeat/STIM_005.jpg	100
1603.974	0.862	861.8	repeat	Run2	repeat/STIM_005.jpg	99
1606.793	0.832	832.1	repeat	Run2	repeat/STIM_005.jpg	99
1611.347	1.099	1098.7	repeat	Run2	repeat/STIM_006.jpg	99
1614.99	0.679	678.8	repeat	Run2	repeat/STIM_006.jpg	100
1619.449	0.913	913.2	repeat	Run2	repeat/STIM_006.jpg	100
1623.259	0.618	617.6	repeat	Run2	repeat/STIM_006.jpg	100
1627.273	0.685	684.8	repeat	Run2	repeat/STIM_006.jpg	100
1629.916	1.019	1018.7	repeat	Run2	repeat/STIM_007.jpg	99
1633.399	1.05	1050.1	repeat	Run2	repeat/STIM_007.jpg	99
1637.87	0.723	722.6	repeat	Run2	repeat/STIM_007.jpg	99
1641.289	0.968	967.9	repeat	Run2	repeat/STIM_007.jpg	99
1644.525	0.854	853.9	repeat	Run2	repeat/STIM_007.jpg	99
1648.758	0.942	941.6	repeat	Run2	repeat/STIM_008.jpg	99
1653.305	0.521	520.9	repeat	Run2	repeat/STIM_008.jpg	100
1657.51	0.691	691.3	repeat	Run2	repeat/STIM_008.jpg	99
1660.298	0.896	896.1	repeat	Run2	repeat/STIM_008.jpg	100
1663.689	0.913	913.0	repeat	Run2	repeat/STIM_008.jpg	99
1666.676	0.953	952.6	repeat	Run2	repeat/STIM_009.jpg	100
1669.754	0.96	960.1	repeat	Run2	repeat/STIM_009.jpg	100
1673.038	0.769	768.8	repeat	Run2	repeat/STIM_009.jpg	99
1676.737	0.58	579.6	repeat	Run2	repeat/STIM_009.jpg	100
1679.608	1.065	1065.0	repeat	Run2	repeat/STIM_009.jpg	100
1682.889	0.636	635.8	repeat	Run2	repeat/STIM_010.jpg	100
1685.881	1.179	1178.9	repeat	Run2	repeat/STIM_010.jpg	100
1689.509	0.579	579.0	repeat	Run2	repeat/STIM_010.jpg	99
1693.822	1.08	1080.4	repeat	Run2	repeat/STIM_010.jpg	100
1697.663	0.75	750.2	repeat	Run2	repeat/STIM_010.jpg	99
1702.335	0.609	609.1	repeat	Run2	repeat/STIM_011.jpg	100
1706.606	1.034	1034.0	repeat	Run2	repeat/STIM_011.jpg	99
1710.873	0.818	818.1	repeat	Run2	repeat/STIM_011.jpg	100
1715.385	1.16	1159.7	repeat	Run2	repeat/STIM_011.jpg	100
1720.119	0.965	965.2	repeat	Run2	repeat/STIM_011.jpg	99
1723.843	1.176	1175.8	repeat	Run2	repeat/STIM_012.jpg	99
1726.919	0.757	756.7	repeat	Run2	repeat/STIM_012.jpg	99
1730.404	0.94	939.8	repeat	Run2	repeat/STIM_012.jpg	99
1734.955	1.051	1051.0	repeat	Run2	repeat/STIM_012.jpg	100
1739.012	1.119	1119.2	repeat	Run2	repeat/STIM_012.jpg	100
1742.613	1.092	1092.5	repeat	Run2	repeat/STIM_013.jpg	99
1746.172	0.794	794.5	repeat	Run2	repeat/STIM_013.jpg	100
1750.203	0.994	994.4	repeat	Run2	repeat/STIM_013.jpg	100
1754.122	0.667	667.0	repeat	Run2	repeat/STIM_013.jpg	99
1758.566	0.78	780.3	repeat	Run2	repeat/STIM_013.jpg	100
1761.342	1.123	1123.2	repeat	Run2	repeat/STIM_014.jpg	100
1765.988	0.602	602.5	repeat	Run2	repeat/STIM_014.jpg	100
1769.926	0.985	984.6	repeat	Run2	repeat/STIM_014.jpg	99
1774.698	1.057	1057.0	repeat	Run2	repeat/STIM_014.jpg	99
1777.924	0.975	974.9	repeat	Run2	repeat/STIM_014.jpg	99
1782.318	1.508	1507.7	generate	Run3	generate/STIM_000.jpg	100
1787.487	2.363	2363.1	generate	Run3	generate/STIM_000.jpg	100
1792.982	2.084	2084.2	generate	Run3	generate/STIM_000.jpg	100
1797.334	1.438	1438.3	generate	Run3	generate/STIM_000.jpg	100
1802.268	1.63	1629.9	generate	Run3	generate/STIM_000.jpg	99
1805.98	1.13	1129.9	generate	Run3	generate/STIM_001.jpg	99
1809.563	2.278	2278.5	generate	Run3	generate/STIM_001.jpg	99
1814.778	2.428	2427.9	generate	Run3	generate/STIM_001.jpg	100
1819.991	2.136	2136.1	generate	Run3	generate/STIM_001.jpg	100
1825.141	1.677	1676.7	generate	Run3	generate/STIM_001.jpg	100
1829.14	2.34	2340.1	generate	Run3	generate/STIM_002.jpg	99
1834.004	2.405	2405.2	generate	Run3	generate/STIM_002.jpg	100
1838.15	1.62	1620.4	generate	Run3	generate/STIM_002.jpg	100
1842.005	1.045	1044.8	generate	Run3	generate/STIM_002.jpg	100
1845.214	1.42	1419.6	generate	Run3	generate/STIM_002.jpg	99
1848.654	1.849	1848.6	generate	Run3	generate/STIM_003.jpg	100
1853.994	1.947	1947.2	generate	Run3	generate/STIM_003.jpg	99
1858.057	1.27	1270.4	generate	Run3	generate/STIM_003.jpg	100
1862.925	1.506	1505.6	generate	Run3	generate/STIM_003.jpg	99
1866.328	2.473	2473.1	generate	Run3	generate/STIM_003.jpg	100
1870.466	1.198	1197.9	generate	Run3	generate/STIM_004.jpg	100
1873.942	1.887	1886.7	generate	Run3	generate/STIM_004.jpg	100
1878.078	1.8	1799.9	generate	Run3	generate/STIM_004.jpg	99
1883.133	1.444	1444.3	generate	Run3	generate/STIM_004.jpg	99
1887.321	1.367	1366.7	generate	Run3	generate/STIM_004.jpg	99
1891.076	1.873	1873.3	generate	Run3	generate/STIM_005.jpg	99
1894.827	2.049	2049.3	generate	Run3	generate/STIM_005.jpg	99
1898.972	1.009	1008.9	generate	Run3	generate/STIM_005.jpg	99
1903.651	2.199	2199.1	generate	Run3	generate/STIM_005.jpg	100
1908.372	2.167	2167.4	generate	Run3	generate/STIM_005.jpg	100
1914.026	1.885	1884.8	generate	Run3	generate/STIM_006.jpg	99
1918.339	1.861	1860.6	generate	Run3	generate/STIM_006.jpg	100
1923.214	1.105	1104.6	generate	Run3	generate/STIM_006.jpg	100
1927.846	1.483	1482.9	generate	Run3	generate/STIM_006.jpg	99
1931.856	2.207	2206.8	generate	Run3	generate/STIM_006.jpg	100
1936.412	1.63	1630.3	generate	Run3	generate/STIM_007.jpg	99
1941.768	2.23	2229.9	generate	Run3	generate/STIM_007.jpg	99
1947.452	1.951	1951.1	generate	Run3	generate/STIM_007.jpg	100
1953.091	1.21	1210.1	generate	Run3	generate/STIM_007.jpg	100
1957.001	1.517	1517.4	generate	Run3	generate/STIM_007.jpg	99
1961.0	1.972	1972.2	generate	Run3	generate/STIM_008.jpg	99
1965.932	1.724	1723.6	generate	Run3	generate/STIM_008.jpg	99
1970.464	1.43	1429.8	generate	Run3	generate/STIM_008.jpg	100
1975.401	1.375	1375.0	generate	Run3	generate/STIM_008.jpg	99
1980.287	1.157	1157.0	generate	Run3	generate/STIM_008.jpg	100
1984.579	1.592	1591.5	generate	Run3	generate/STIM_009.jpg	100
1988.404	1.813	1812.7	generate	Run3	generate/STIM_009.jpg	99
1993.936	1.911	1910.6	generate	Run3	generate/STIM_009.jpg	99
1999.193	2.078	2078.1	generate	Run3	generate/STIM_009.jpg	99
2004.254	2.42	2419.7	generate	Run3	generate/STIM_009.jpg	99
2009.946	1.9	1899.9	generate	Run3	generate/STIM_010.jpg	100
2015.276	1.638	1638.1	generate	Run3	generate/STIM_010.jpg	99
2019.253	1.564	1563.6	generate	Run3	generate/STIM_010.jpg	100
2023.484	1.369	1368.6	generate	Run3	generate/STIM_010.jpg	100
2028.198	1.294	1294.4	generate	Run3	generate/STIM_010.jpg	99
2032.702	2.355	2354.9	generate	Run3	generate/STIM_011.jpg	100
2037.771	2.008	2007.7	generate	Run3	generate/STIM_011.jpg	99
2041.58	0.937	937.0	generate	Run3	generate/STIM_011.jpg	100
2045.827	2.398	2398.1	generate	Run3	generate/STIM_011.jpg	100
2050.94	1.14	1140.3	generate	Run3	generate/STIM_011.jpg	99
2054.832	1.543	1542.9	generate	Run3	generate/STIM_012.jpg	100
2060.155	2.218	2218.3	generate	Run3	generate/STIM_012.jpg	100
2066.051	1.478	1478.5	generate	Run3	generate/STIM_012.jpg	100
2069.58	1.849	1849.0	generate	Run3	generate/STIM_012.jpg	99
2074.441	1.221	1221.0	generate	Run3	generate/STIM_012.jpg	100
2077.673	1.244	1243.6	generate	Run3	generate/STIM_013.jpg	99
2082.248	1.606	1606.5	generate	Run3	generate/STIM_013.jpg	99
2087.563	2.116	2115.5	generate	Run3	generate/STIM_013.jpg	100
2093.184	1.271	1270.9	generate	Run3	generate/STIM_013.jpg	100
2097.618	1.772	1772.2	generate	Run3	generate/STIM_013.jpg	100
2101.461	1.258	1258.4	generate	Run3	generate/STIM_014.jpg	99
2106.305	2.025	2024.8	generate	Run3	generate/STIM_014.jpg	100
2112.043	1.643	1642.8	generate	Run3	generate/STIM_014.jpg	99
2116.367	2.262	2261.5	generate	Run3	generate/STIM_014.jpg	99
2121.941	2.126	2125.9	generate	Run3	generate/STIM_014.jpg	99
2127.225	1.214	1214.5	generate	Run3	generate/STIM_015.jpg	100
2130.66	1.836	1836.3	generate	Run3	generate/STIM_015.jpg	99
2134.471	1.603	1603.3	generate	Run3	generate/STIM_015.jpg	100
2139.518	2.352	2352.2	generate	Run3	generate/STIM_015.jpg	100
2143.91	1.127	1126.6	generate	Run3	generate/STIM_015.jpg	100
2148.82	1.498	1497.5	generate	Run3	generate/STIM_016.jpg	99
2153.397	0.966	966.0	generate	Run3	generate/STIM_016.jpg	100
2156.9	2.205	2205.2	generate	Run3	generate/STIM_016.jpg	100
2161.389	1.042	1042.4	generate	Run3	generate/STIM_016.jpg	99
2164.518	1.121	1121.3	generate	Run3	generate/STIM_016.jpg	100
2167.997	1.319	1318.6	generate	Run3	generate/STIM_017.jpg	99
2172.212	1.34	1339.6	generate	Run3	generate/STIM_017.jpg	100
2175.897	1.802	1802.4	generate	Run3	generate/STIM_017.jpg	100
2180.425	1.82	1820.3	generate	Run3	generate/STIM_017.jpg	99
2185.332	1.599	1599.4	generate	Run3	generate/STIM_017.jpg	100
2189.494	1.243	1242.7	generate	Run3	generate/STIM_018.jpg	100
2193.108	1.223	1223.2	generate	Run3	generate/STIM_018.jpg	99
2197.769	1.339	1338.6	generate	Run3	generate/STIM_018.jpg	100
2202.038	2.169	2168.7	generate	Run3	generate/STIM_018.jpg	99
2206.469	2.179	2179.1	generate	Run3	generate/STIM_018.jpg	100
2211.008	1.55	1549.7	generate	Run3	generate/STIM_019.jpg	99
2214.797	1.065	1065.4	generate	Run3	generate/STIM_019.jpg	100
2219.264	0.927	926.9	generate	Run3	generate/STIM_019.jpg	100
2223.07	2.068	2067.6	generate	Run3	generate/STIM_019.jpg	100
2227.956	1.774	1774.1	generate	Run3	generate/STIM_019.jpg	100
2232.645	2.299	2298.8	generate	Run3	generate/STIM_020.jpg	100
2237.871	1.431	1430.9	generate	Run3	generate/STIM_020.jpg	100
2241.45	2.176	2176.2	generate	Run3	generate/STIM_020.jpg	100
2245.67	2.19	2190.1	generate	Run3	generate/STIM_020.jpg	100
2251.077	2.173	2172.7	generate	Run3	generate/STIM_020.jpg	99
2255.736	1.951	1951.0	generate	Run3	generate/STIM_021.jpg	100
2260.546	1.037	1037.4	generate	Run3	generate/STIM_021.jpg	99
2265.194	1.885	1884.6	generate	Run3	generate/STIM_021.jpg	100
2269.947	1.083	1083.0	generate	Run3	generate/STIM_021.jpg	100
2274.882	1.472	1472.5	generate	Run3	generate/STIM_021.jpg	99
2280.003	1.063	1063.3	generate	Run3	generate/STIM_022.jpg	100
2284.943	2.266	2265.6	generate	Run3	generate/STIM_022.jpg	100
2289.17	1.811	1810.8	generate	Run3	generate/STIM_022.jpg	99
2293.543	1.213	1212.9	generate	Run3	generate/STIM_022.jpg	100
2297.849	2.424	2424.1	generate	Run3	generate/STIM_022.jpg	100
2302.281	2.015	2014.7	generate	Run3	generate/STIM_023.jpg	99
2306.269	1.754	1754.0	generate	Run3	generate/STIM_023.jpg	100
2311.622	1.858	1858.1	generate	Run3	generate/STIM_023.jpg	100
2316.038	1.26	1260.3	generate	Run3	generate/STIM_023.jpg	99
2321.136	0.988	988.3	generate	Run3	generate/STIM_023.jpg	99
2325.64	1.59	1590.4	generate	Run3	generate/STIM_024.jpg	100
2330.542	1.593	1592.6	generate	Run3	generate/STIM_024.jpg	99
2333.959	1.495	1494.6	generate	Run3	generate/STIM_024.jpg	99
2338.577	2.201	2201.3	generate	Run3	generate/STIM_024.jpg	99
2342.559	2.244	2243.9	generate	Run3	generate/STIM_024.jpg	100
2348.442	1.155	1155.1	repeat	Run3	repeat/STIM_000.jpg	100
2352.798	0.683	682.7	repeat	Run3	repeat/STIM_000.jpg	100
2355.448	1.023	1022.6	repeat	Run3	repeat/STIM_000.jpg	99
2359.4	1.074	1074.4	repeat	Run3	repeat/STIM_000.jpg	99
2362.853	1.014	1013.8	repeat	Run3	repeat/STIM_000.jpg	99
2366.973	0.565	565.3	repeat	Run3	repeat/STIM_001.jpg	100
2369.56	0.805	804.9	repeat	Run3	repeat/STIM_001.jpg	100
2374.292	1.07	1069.9	repeat	Run3	repeat/STIM_001.jpg	99
2378.302	0.75	750.4	repeat	Run3	repeat/STIM_001.jpg	100
2381.968	0.943	942.9	repeat	Run3	repeat/STIM_001.jpg	100
2386.452	1.162	1161.9	repeat	Run3	repeat/STIM_002.jpg	100
2391.093	0.926	926.5	repeat	Run3	repeat/STIM_002.jpg	99
2395.381	0.984	984.4	repeat	Run3	repeat/STIM_002.jpg	99
2398.844	0.539	539.1	repeat	Run3	repeat/STIM_002.jpg	99
2402.304	1.012	1011.5	repeat	Run3	repeat/STIM_002.jpg	100
2407.061	0.93	929.5	repeat	Run3	repeat/STIM_003.jpg	99
2410.365	0.737	737.2	repeat	Run3	repeat/STIM_003.jpg	100
2413.198	0.707	707.4	repeat	Run3	repeat/STIM_003.jpg	100
2416.825	0.635	634.7	repeat	Run3	repeat/STIM_003.jpg	99
2420.049	1.166	1166.3	repeat	Run3	repeat/STIM_003.jpg	99
2423.172	1.128	1128.3	repeat	Run3	repeat/STIM_004.jpg	100
2426.441	0.698	698.0	repeat	Run3	repeat/STIM_004.jpg	100
2430.953	1.095	1094.6	repeat	Run3	repeat/STIM_004.jpg	99
2435.804	0.648	647.8	repeat	Run3	repeat/STIM_004.jpg	100
2439.969	0.518	517.8	repeat	Run3	repeat/STIM_004.jpg	99
2443.213	0.633	633.4	repeat	Run3	repeat/STIM_005.jpg	99
2446.047	0.859	859.0	repeat	Run3	repeat/STIM_005.jpg	99
2450.538	0.627	627.0	repeat	Run3	repeat/STIM_005.jpg	99
2454.904	0.792	792.0	repeat	Run3	repeat/STIM_005.jpg	100
2458.794	0.828	828.0	repeat	Run3	repeat/STIM_005.jpg	100
2462.896	0.522	522.5	repeat	Run3	repeat/STIM_006.jpg	99
2465.712	0.544	544.2	repeat	Run3	repeat/STIM_006.jpg	100
2469.495	0.696	696.2	repeat	Run3	repeat/STIM_006.jpg	100
2473.83	0.701	700.6	repeat	Run3	repeat/STIM_006.jpg	99
2478.058	0.927	926.9	repeat	Run3	repeat/STIM_006.jpg	99
2481.294	0.483	482.8	repeat	Run3	repeat/STIM_007.jpg	100
2484.986	1.077	1077.4	repeat	Run3	repeat/STIM_007.jpg	100
2488.787	0.752	752.3	repeat	Run3	repeat/STIM_007.jpg	99
2491.597	0.872	871.7	repeat	Run3	repeat/STIM_007.jpg	99
2496.08	1.062	1061.8	repeat	Run3	repeat/STIM_007.jpg	99
2500.597	1.075	1075.3	repeat	Run3	repeat/STIM_008.jpg	100
2504.98	1.192	1191.6	repeat	Run3	repeat/STIM_008.jpg	99
2508.299	0.941	941.2	repeat	Run3	repeat/STIM_008.jpg	100
2511.378	1.049	1048.8	repeat	Run3	repeat/STIM_008.jpg	99
2514.9	0.956	955.8	repeat	Run3	repeat/STIM_008.jpg	99
2519.015	0.651	650.8	repeat	Run3	repeat/STIM_009.jpg	100
2523.259	0.708	708.2	repeat	Run3	repeat/STIM_009.jpg	100
2526.821	0.979	978.8	repeat	Run3	repeat/STIM_009.jpg	99
2530.573	0.778	777.7	repeat	Run3	repeat/STIM_009.jpg	99
2533.256	1.016	1016.3	repeat	Run3	repeat/STIM_009.jpg	100
2537.725	0.743	743.3	repeat	Run3	repeat/STIM_010.jpg	100
2541.17	1.044	1043.8	repeat	Run3	repeat/STIM_010.jpg	100
2545.399	1.012	1011.8	repeat	Run3	repeat/STIM_010.jpg	100
2548.999	1.05	1050.1	repeat	Run3	repeat/STIM_010.jpg	99
2552.115	1.013	1012.7	repeat	Run3	repeat/STIM_010.jpg	100
2555.782	0.753	752.6	repeat	Run3	repeat/STIM_011.jpg	99
2559.868	0.797	796.9	repeat	Run3	repeat/STIM_011.jpg	100
2563.002	1.176	1175.7	repeat	Run3	repeat/STIM_011.jpg	100
2566.363	0.948	948.0	repeat	Run3	repeat/STIM_011.jpg	99
2569.801	0.887	887.2	repeat	Run3	repeat/STIM_011.jpg	100
2574.157	0.631	631.2	repeat	Run3	repeat/STIM_012.jpg	99
2578.629	0.831	830.9	repeat	Run3	repeat/STIM_012.jpg	99
2583.223	0.948	948.2	repeat	Run3	repeat/STIM_012.jpg	99
2587.75	0.881	881.3	repeat	Run3	repeat/STIM_012.jpg	100
2591.337	1.088	1088.5	repeat	Run3	repeat/STIM_012.jpg	99
2594.556	0.874	874.5	repeat	Run3	repeat/STIM_013.jpg	99
2597.51	0.566	566.0	repeat	Run3	repeat/STIM_013.jpg	100
2600.203	1.054	1053.7	repeat	Run3	repeat/STIM_013.jpg	99
2604.7	1.066	1065.9	repeat	Run3	repeat/STIM_013.jpg	99
2608.759	0.723	722.8	repeat	Run3	repeat/STIM_013.jpg	99
2612.819	1.117	1116.7	repeat	Run3	repeat/STIM_014.jpg	100
2616.321	0.58	579.5	repeat	Run3	repeat/STIM_014.jpg	99
2619.221	0.888	887.5	repeat	Run3	repeat/STIM_014.jpg	100
2622.464	0.696	696.4	repeat	Run3	repeat/STIM_014.jpg	99
2626.159	0.856	856.5	repeat	Run3	repeat/STIM_014.jpg	99
2630.248	1.789	1789.3	generate	Run4	generate/STIM_000.jpg	100
2634.924	1.036	1036.1	generate	Run4	generate/STIM_000.jpg	99
2638.932	1.312	1312.1	generate	Run4	generate/STIM_000.jpg	99
2642.201	2.322	2322.1	generate	Run4	generate/STIM_000.jpg	99
2647.324	1.51	1509.7	generate	Run4	generate/STIM_000.jpg	99
2651.323	1.19	1190.2	generate	Run4	generate/STIM_001.jpg	99
2655.718	2.123	2123.2	generate	Run4	generate/STIM_001.jpg	100
2661.324	1.08	1080.3	generate	Run4	generate/STIM_001.jpg	100
2664.921	1.056	1055.7	generate	Run4	generate/STIM_001.jpg	99
2669.414	2.224	2224.5	generate	Run4	generate/STIM_001.jpg	99
2674.614	1.904	1904.1	generate	Run4	generate/STIM_002.jpg	99
2679.706	1.752	1752.1	generate	Run4	generate/STIM_002.jpg	99
2683.832	2.265	2265.2	generate	Run4	generate/STIM_002.jpg	100
2688.524	1.146	1146.2	generate	Run4	generate/STIM_002.jpg	99
2692.08	1.76	1760.2	generate	Run4	generate/STIM_002.jpg	100
2696.523	1.674	1673.5	generate	Run4	generate/STIM_003.jpg	100
2701.503	2.112	2112.2	generate	Run4	generate/STIM_003.jpg	100
2706.825	1.661	1660.6	generate	Run4	generate/STIM_003.jpg	100
2711.381	1.734	1734.1	generate	Run4	generate/STIM_003.jpg	100
2715.588	1.819	1819.2	generate	Run4	generate/STIM_003.jpg	99
2720.646	1.241	1241.4	generate	Run4	generate/STIM_004.jpg	100
2724.102	1.81	1810.1	generate	Run4	generate/STIM_004.jpg	99
2728.695	1.208	1208.3	generate	Run4	generate/STIM_004.jpg	99
2732.601	2.179	2179.3	generate	Run4	generate/STIM_004.jpg	99
2738.315	1.064	1064.5	generate	Run4	generate/STIM_004.jpg	99
2741.291	1.634	1634.3	generate	Run4	generate/STIM_005.jpg	100
2745.515	1.528	1527.9	generate	Run4	generate/STIM_005.jpg	100
2750.601	1.394	1394.1	generate	Run4	generate/STIM_005.jpg	100
2754.408	2.069	2069.4	generate	Run4	generate/STIM_005.jpg	99
2758.301	2.075	2075.1	generate	Run4	generate/STIM_005.jpg	99
2762.687	1.414	1414.2	generate	Run4	generate/STIM_006.jpg	99
2767.872	1.663	1663.1	generate	Run4	generate/STIM_006.jpg	100
2771.418	1.607	1607.1	generate	Run4	generate/STIM_006.jpg	100
2775.846	2.112	2112.5	generate	Run4	generate/STIM_006.jpg	99
2780.759	2.226	2225.6	generate	Run4	generate/STIM_006.jpg	100
2785.135	1.345	1345.0	generate	Run4	generate/STIM_007.jpg	100
2789.973	1.3	1299.6	generate	Run4	generate/STIM_007.jpg	99
2794.094	0.991	990.7	generate	Run4	generate/STIM_007.jpg	99
2797.294	1.98	1980.0	generate	Run4	generate/STIM_007.jpg	100
2801.245	1.034	1033.5	generate	Run4	generate/STIM_007.jpg	99
2804.747	1.752	1752.3	generate	Run4	generate/STIM_008.jpg	100
2808.986	1.647	1647.4	generate	Run4	generate/STIM_008.jpg	99
2813.967	2.052	2052.5	generate	Run4	generate/STIM_008.jpg	99
2817.989	1.842	1841.5	generate	Run4	generate/STIM_008.jpg	99
2823.56	1.312	1311.8	generate	Run4	generate/STIM_008.jpg	100
2826.787	1.2	1199.5	generate	Run4	generate/STIM_009.jpg	100
2830.151	1.97	1969.5	generate	Run4	generate/STIM_009.jpg	100
2835.591	1.171	1171.0	generate	Run4	generate/STIM_009.jpg	100
2839.106	1.449	1449.1	generate	Run4	generate/STIM_009.jpg	100
2844.233	1.815	1814.7	generate	Run4	generate/STIM_009.jpg	99
2849.393	1.89	1890.1	generate	Run4	generate/STIM_010.jpg	100
2853.698	1.872	1872.1	generate	Run4	generate/STIM_010.jpg	99
2857.608	2.148	2147.6	generate	Run4	generate/STIM_010.jpg	99
2862.077	1.768	1768.5	generate	Run4	generate/STIM_010.jpg	100
2867.463	2.275	2274.8	generate	Run4	generate/STIM_010.jpg	100
2872.259	2.339	2339.1	generate	Run4	generate/STIM_011.jpg	99
2877.127	1.185	1185.1	generate	Run4	generate/STIM_011.jpg	99
2880.644	1.279	1278.9	generate	Run4	generate/STIM_011.jpg	99
2884.698	2.312	2311.6	generate	Run4	generate/STIM_011.jpg	100
2889.61	1.953	1952.7	generate	Run4	generate/STIM_011.jpg	99
2893.967	0.985	984.7	generate	Run4	generate/STIM_012.jpg	100
2897.566	1.25	1249.5	generate	Run4	generate/STIM_012.jpg	99
2902.151	2.002	2002.4	generate	Run4	generate/STIM_012.jpg	100
2906.316	1.738	1737.5	generate	Run4	generate/STIM_012.jpg	99
2909.981	2.023	2022.7	generate	Run4	generate/STIM_012.jpg	99
2914.938	1.154	1153.5	generate	Run4	generate/STIM_013.jpg	100
2918.673	2.3	2300.5	generate	Run4	generate/STIM_013.jpg	100
2923.389	1.614	1614.4	generate	Run4	generate/STIM_013.jpg	99
2928.449	1.106	1106.0	generate	Run4	generate/STIM_013.jpg	100
2931.696	1.842	1842.3	generate	Run4	generate/STIM_013.jpg	100
2936.03	1.469	1469.3	generate	Run4	generate/STIM_014.jpg	100
2940.249	1.197	1197.0	generate	Run4	generate/STIM_014.jpg	99
2945.001	2.261	2261.2	generate	Run4	generate/STIM_014.jpg	99
2949.532	1.114	1113.9	generate	Run4	generate/STIM_014.jpg	99
2953.494	2.005	2005.1	generate	Run4	generate/STIM_014.jpg	99
2958.134	2.189	2188.7	generate	Run4	generate/STIM_015.jpg	100
2962.055	1.396	1395.6	generate	Run4	generate/STIM_015.jpg	99
2966.895	1.391	1391.2	generate	Run4	generate/STIM_015.jpg	99
2971.509	1.428	1427.5	generate	Run4	generate/STIM_015.jpg	100
2976.586	1.747	1747.2	generate	Run4	generate/STIM_015.jpg	99
2981.985	1.84	1840.3	generate	Run4	generate/STIM_016.jpg	99
2986.526	1.637	1637.3	generate	Run4	generate/STIM_016.jpg	100
2991.623	2.236	2235.6	generate	Run4	generate/STIM_016.jpg	99
2995.602	1.765	1764.7	generate	Run4	generate/STIM_016.jpg	99
3000.325	1.103	1102.6	generate	Run4	generate/STIM_016.jpg	100
3004.932	2.179	2178.7	generate	Run4	generate/STIM_017.jpg	100
3009.771	1.188	1188.1	generate	Run4	generate/STIM_017.jpg	100
3013.249	2.19	2189.5	generate	Run4	generate/STIM_017.jpg	100
3019.06	1.725	1725.0	generate	Run4	generate/STIM_017.jpg	100
3023.092	1.76	1760.0	generate	Run4	generate/STIM_017.jpg	100
3026.989	1.096	1095.8	generate	Run4	generate/STIM_018.jpg	100
3030.334	2.326	2325.9	generate	Run4	generate/STIM_018.jpg	99
3034.56	2.047	2047.3	generate	Run4	generate/STIM_018.jpg	99
3039.382	1.646	1645.6	generate	Run4	generate/STIM_018.jpg	99
3043.167	1.92	1919.8	generate	Run4	generate/STIM_018.jpg	100
3047.784	1.847	1847.2	generate	Run4	generate/STIM_019.jpg	100
3053.117	1.998	1998.2	generate	Run4	generate/STIM_019.jpg	99
3058.072	1.264	1263.9	generate	Run4	generate/STIM_019.jpg	99
3061.953	1.761	1761.0	generate	Run4	generate/STIM_019.jpg	99
3066.895	2.393	2393.2	generate	Run4	generate/STIM_019.jpg	100
3072.897	1.848	1848.5	generate	Run4	generate/STIM_020.jpg	99
3077.052	1.087	1087.4	generate	Run4	generate/STIM_020.jpg	100
3080.15	1.835	1835.3	generate	Run4	generate/STIM_020.jpg	100
3084.128	2.247	2247.4	generate	Run4	generate/STIM_020.jpg	99
3089.444	2.286	2286.2	generate	Run4	generate/STIM_020.jpg	100
3094.398	2.203	2203.4	generate	Run4	generate/STIM_021.jpg	99
3099.571	1.563	1563.1	generate	Run4	generate/STIM_021.jpg	99
3103.587	2.295	2294.8	generate	Run4	generate/STIM_021.jpg	100
3108.482	1.689	1688.7	generate	Run4	generate/STIM_021.jpg	100
3113.335	1.581	1581.4	generate	Run4	generate/STIM_021.jpg	99
3117.755	2.249	2249.4	generate	Run4	generate/STIM_022.jpg	99
3121.841	2.02	2020.0	generate	Run4	generate/STIM_022.jpg	100
3126.889	2.194	2193.8	generate	Run4	generate/STIM_022.jpg	99
3132.298	2.018	2017.8	generate	Run4	generate/STIM_022.jpg	99
3136.411	1.931	1931.4	generate	Run4	generate/STIM_022.jpg	99
3141.309	1.712	1712.2	generate	Run4	generate/STIM_023.jpg	99
3144.887	2.176	2175.7	generate	Run4	generate/STIM_023.jpg	99
3150.334	1.526	1526.0	generate	Run4	generate/STIM_023.jpg	99
3154.27	1.926	1926.0	generate	Run4	generate/STIM_023.jpg	99
3159.36	1.381	1380.9	generate	Run4	generate/STIM_023.jpg	99
3164.175	2.197	2197.2	generate	Run4	generate/STIM_024.jpg	99
3169.373	0.937	936.8	generate	Run4	generate/STIM_024.jpg	100
3173.791	1.94	1939.7	generate	Run4	generate/STIM_024.jpg	100
3178.777	1.938	1937.5	generate	Run4	generate/STIM_024.jpg	100
3184.031	2.164	2163.6	generate	Run4	generate/STIM_024.jpg	99
3189.782	0.806	806.1	repeat	Run4	repeat/STIM_000.jpg	100
3193.738	0.942	941.9	repeat	Run4	repeat/STIM_000.jpg	100
3197.874	1.101	1101.1	repeat	Run4	repeat/STIM_000.jpg	100
3201.354	0.994	994.2	repeat	Run4	repeat/STIM_000.jpg	100
3205.923	0.701	700.7	repeat	Run4	repeat/STIM_000.jpg	99
3208.828	0.78	780.3	repeat	Run4	repeat/STIM_001.jpg	99
3211.716	0.732	732.3	repeat	Run4	repeat/STIM_001.jpg	99
3214.812	0.599	598.8	repeat	Run4	repeat/STIM_001.jpg	100
3218.383	0.753	752.6	repeat	Run4	repeat/STIM_001.jpg	100
3221.999	0.681	680.9	repeat	Run4	repeat/STIM_001.jpg	100
3226.597	0.58	579.7	repeat	Run4	repeat/STIM_002.jpg	99
3229.694	0.846	846.2	repeat	Run4	repeat/STIM_002.jpg	99
3232.946	1.005	1004.6	repeat	Run4	repeat/STIM_002.jpg	100
3236.255	0.664	664.5	repeat	Run4	repeat/STIM_002.jpg	99
3240.858	0.854	854.1	repeat	Run4	repeat/STIM_002.jpg	100
3245.58	0.72	719.6	repeat	Run4	repeat/STIM_003.jpg	99
3249.605	0.687	687.3	repeat	Run4	repeat/STIM_003.jpg	99
3254.22	0.905	904.6	repeat	Run4	repeat/STIM_003.jpg	99
3258.357	0.631	631.3	repeat	Run4	repeat/STIM_003.jpg	99
3262.89	0.746	745.7	repeat	Run4	repeat/STIM_003.jpg	100
3266.757	0.718	718.3	repeat	Run4	repeat/STIM_004.jpg	100
3269.861	0.562	562.1	repeat	Run4	repeat/STIM_004.jpg	100
3273.152	1.164	1164.2	repeat	Run4	repeat/STIM_004.jpg	100
3276.413	1.025	1024.6	repeat	Run4	repeat/STIM_004.jpg	99
3279.71	0.647	646.7	repeat	Run4	repeat/STIM_004.jpg	100
3282.741	1.124	1124.4	repeat	Run4	repeat/STIM_005.jpg	100
3286.02	0.658	657.9	repeat	Run4	repeat/STIM_005.jpg	99
3290.115	0.632	632.3	repeat	Run4	repeat/STIM_005.jpg	100
3294.124	1.205	1204.9	repeat	Run4	repeat/STIM_005.jpg	100
3297.621	0.828	828.5	repeat	Run4	repeat/STIM_005.jpg	100
3300.581	0.94	940.3	repeat	Run4	repeat/STIM_006.jpg	100
3305.141	0.748	747.6	repeat	Run4	repeat/STIM_006.jpg	99
3308.822	1.156	1156.5	repeat	Run4	repeat/STIM_006.jpg	100
3313.093	1.058	1058.0	repeat	Run4	repeat/STIM_006.jpg	100
3317.428	0.585	585.0	repeat	Run4	repeat/STIM_006.jpg	99
3320.714	0.946	946.0	repeat	Run4	repeat/STIM_007.jpg	99
3323.728	0.752	751.6	repeat	Run4	repeat/STIM_007.jpg	100
3326.705	0.737	736.7	repeat	Run4	repeat/STIM_007.jpg	99
3330.325	1.106	1106.5	repeat	Run4	repeat/STIM_007.jpg	100
3333.95	0.586	586.4	repeat	Run4	repeat/STIM_007.jpg	100
3337.07	1.128	1128.3	repeat	Run4	repeat/STIM_008.jpg	100
3340.617	0.629	628.9	repeat	Run4	repeat/STIM_008.jpg	100
3344.835	0.933	932.6	repeat	Run4	repeat/STIM_008.jpg	99
3348.663	0.756	755.7	repeat	Run4	repeat/STIM_008.jpg	99
3352.919	1.082	1081.7	repeat	Run4	repeat/STIM_008.jpg	100
3356.148	0.881	880.9	repeat	Run4	repeat/STIM_009.jpg	99
3359.079	0.697	697.1	repeat	Run4	repeat/STIM_009.jpg	100
3362.901	0.808	808.1	repeat	Run4	repeat/STIM_009.jpg	99
3367.356	1.081	1080.7	repeat	Run4	repeat/STIM_009.jpg	100
3371.781	0.909	909.4	repeat	Run4	repeat/STIM_009.jpg	100
3376.194	0.943	942.9	repeat	Run4	repeat/STIM_010.jpg	99
3379.232	0.862	861.5	repeat	Run4	repeat/STIM_010.jpg	99
3383.369	1.054	1054.4	repeat	Run4	repeat/STIM_010.jpg	99
3387.649	1.104	1103.9	repeat	Run4	repeat/STIM_010.jpg	100
3391.39	0.768	768.5	repeat	Run4	repeat/STIM_010.jpg	99
3395.757	0.991	991.0	repeat	Run4	repeat/STIM_011.jpg	99
3399.295	0.95	949.6	repeat	Run4	repeat/STIM_011.jpg	99
3403.652	0.888	888.1	repeat	Run4	repeat/STIM_011.jpg	100
3407.325	0.614	614.5	repeat	Run4	repeat/STIM_011.jpg	99
3410.544	1.254	1254.5	repeat	Run4	repeat/STIM_011.jpg	100
3413.675	0.75	750.3	repeat	Run4	repeat/STIM_012.jpg	100
3416.752	0.683	682.9	repeat	Run4	repeat/STIM_012.jpg	99
3420.329	0.892	892.1	repeat	Run4	repeat/STIM_012.jpg	99
3423.742	0.744	744.5	repeat	Run4	repeat/STIM_012.jpg	100
3427.832	0.923	923.1	repeat	Run4	repeat/STIM_012.jpg	99
3431.312	0.764	763.9	repeat	Run4	repeat/STIM_013.jpg	100
3434.499	0.71	710.2	repeat	Run4	repeat/STIM_013.jpg	99
3437.352	0.944	944.2	repeat	Run4	repeat/STIM_013.jpg	100
3440.329	0.64	640.4	repeat	Run4	repeat/STIM_013.jpg	100
3443.343	1.08	1080.1	repeat	Run4	repeat/STIM_013.jpg	99
3447.244	0.985	985.1	repeat	Run4	repeat/STIM_014.jpg	100
3451.432	0.988	988.1	repeat	Run4	repeat/STIM_014.jpg	100
3456.062	1.175	1175.2	repeat	Run4	repeat/STIM_014.jpg	100
3460.351	0.766	766.5	repeat	Run4	repeat/STIM_014.jpg	100
3463.052	0.993	993.3	repeat	Run4	repeat/STIM_014.jpg	100
