onset	duration	accuracy	trial_type	learning_stage	stimulus
0.0	3.798	correct	navigation	Trial1	navigation/STIM_000.jpg
7.636	3.834	incorrect	navigation	Trial1	navigation/STIM_000.jpg
15.453	3.08	correct	navigation	Trial1	navigation/STIM_000.jpg
21.955	3.094	correct	navigation	Trial1	navigation/STIM_000.jpg
28.713	3.944	correct	navigation	Trial1	navigation/STIM_000.jpg
36.617	3.165	correct	navigation	Trial1	navigation/STIM_000.jpg
41.832	2.653	correct	navigation	Trial1	navigation/STIM_001.jpg
46.997	4.929	correct	navigation	Trial1	navigation/STIM_001.jpg
54.139	5.083	correct	navigation	Trial1	navigation/STIM_001.jpg
62.559	3.419	correct	navigation	Trial1	navigation/STIM_001.jpg
69.204	4.518	incorrect	navigation	Trial1	navigation/STIM_001.jpg
76.067	3.323	incorrect	navigation	Trial1	navigation/STIM_001.jpg
82.353	3.964	correct	navigation	Trial1	navigation/STIM_002.jpg
89.708	2.415	incorrect	navigation	Trial1	navigation/STIM_002.jpg
94.476	4.399	incorrect	navigation	Trial1	navigation/STIM_002.jpg
101.286	4.686	correct	navigation	Trial1	navigation/STIM_002.jpg
109.169	2.788	incorrect	navigation	Trial1	navigation/STIM_002.jpg
115.369	2.377	incorrect	navigation	Trial1	navigation/STIM_002.jpg
120.401	2.802	correct	navigation	Trial1	navigation/STIM_003.jpg
125.386	2.976	correct	navigation	Trial1	navigation/STIM_003.jpg
130.659	3.705	correct	navigation	Trial1	navigation/STIM_003.jpg
137.206	3.934	correct	navigation	Trial1	navigation/STIM_003.jpg
144.48	2.142	incorrect	navigation	Trial1	navigation/STIM_003.jpg
148.883	2.26	correct	navigation	Trial1	navigation/STIM_003.jpg
154.855	4.752	correct	navigation	Trial1	navigation/STIM_004.jpg
161.879	4.931	incorrect	navigation	Trial1	navigation/STIM_004.jpg
169.968	3.318	correct	navigation	Trial1	navigation/STIM_004.jpg
177.217	2.74	correct	navigation	Trial1	navigation/STIM_004.jpg
182.335	2.316	correct	navigation	Trial1	navigation/STIM_004.jpg
186.783	4.052	correct	navigation	Trial1	navigation/STIM_004.jpg
193.051	3.473	incorrect	navigation	Trial1	navigation/STIM_005.jpg
199.433	5.095	correct	navigation	Trial1	navigation/STIM_005.jpg
208.106	4.812	incorrect	navigation	Trial1	navigation/STIM_005.jpg
216.148	3.573	correct	navigation	Trial1	navigation/STIM_005.jpg
222.414	2.282	correct	navigation	Trial1	navigation/STIM_005.jpg
227.312	2.807	correct	navigation	Trial1	navigation/STIM_005.jpg
234.067	3.995	correct	navigation	Trial1	navigation/STIM_006.jpg
240.584	4.671	incorrect	navigation	Trial1	navigation/STIM_006.jpg
248.917	4.563	correct	navigation	Trial1	navigation/STIM_006.jpg
256.381	2.27	correct	navigation	Trial1	navigation/STIM_006.jpg
262.008	3.904	incorrect	navigation	Trial1	navigation/STIM_006.jpg
268.86	4.221	correct	navigation	Trial1	navigation/STIM_006.jpg
275.855	3.076	correct	navigation	Trial1	navigation/STIM_007.jpg
282.229	4.681	incorrect	navigation	Trial1	navigation/STIM_007.jpg
289.015	4.916	incorrect	navigation	Trial1	navigation/STIM_007.jpg
297.282	4.537	incorrect	navigation	Trial1	navigation/STIM_007.jpg
304.424	3.635	correct	navigation	Trial1	navigation/STIM_007.jpg
311.664	3.453	incorrect	navigation	Trial1	navigation/STIM_007.jpg
318.793	5.292	correct	navigation	Trial1	navigation/STIM_008.jpg
326.71	3.672	correct	navigation	Trial1	navigation/STIM_008.jpg
332.772	4.525	correct	navigation	Trial1	navigation/STIM_008.jpg
339.845	2.725	correct	navigation	Trial1	navigation/STIM_008.jpg
345.025	3.233	correct	navigation	Trial1	navigation/STIM_008.jpg
351.754	3.552	correct	navigation	Trial1	navigation/STIM_008.jpg
358.844	2.975	correct	navigation	Trial1	navigation/STIM_009.jpg
364.732	2.822	correct	navigation	Trial1	navigation/STIM_009.jpg
370.256	3.005	correct	navigation	Trial1	navigation/STIM_009.jpg
375.741	2.725	correct	navigation	Trial1	navigation/STIM_009.jpg
381.239	3.632	incorrect	navigation	Trial1	navigation/STIM_009.jpg
386.994	3.762	correct	navigation	Trial1	navigation/STIM_009.jpg
392.887	5.265	correct	navigation	Trial1	navigation/STIM_010.jpg
400.449	3.943	correct	navigation	Trial1	navigation/STIM_010.jpg
406.513	2.604	incorrect	navigation	Trial1	navigation/STIM_010.jpg
411.474	4.656	incorrect	navigation	Trial1	navigation/STIM_010.jpg
419.815	4.126	correct	navigation	Trial1	navigation/STIM_010.jpg
426.038	3.131	correct	navigation	Trial1	navigation/STIM_010.jpg
432.379	3.602	correct	navigation	Trial1	navigation/STIM_011.jpg
438.911	4.276	incorrect	navigation	Trial1	navigation/STIM_011.jpg
446.183	3.153	correct	navigation	Trial1	navigation/STIM_011.jpg
453.27	3.99	correct	navigation	Trial1	navigation/STIM_011.jpg
459.925	4.073	incorrect	navigation	Trial1	navigation/STIM_011.jpg
467.758	2.049	correct	navigation	Trial1	navigation/STIM_011.jpg
473.2	1.192	correct	pointing	Trial1	pointing/STIM_000.jpg
477.921	1.154	correct	pointing	Trial1	pointing/STIM_000.jpg
482.213	1.497	correct	pointing	Trial1	pointing/STIM_000.jpg
487.691	1.221	correct	pointing	Trial1	pointing/STIM_000.jpg
492.507	1.366	correct	pointing	Trial1	pointing/STIM_000.jpg
496.168	1.451	correct	pointing	Trial1	pointing/STIM_000.jpg
500.49	1.214	correct	pointing	Trial1	pointing/STIM_001.jpg
504.722	1.339	correct	pointing	Trial1	pointing/STIM_001.jpg
508.578	1.358	correct	pointing	Trial1	pointing/STIM_001.jpg
512.452	1.221	correct	pointing	Trial1	pointing/STIM_001.jpg
517.447	1.708	correct	pointing	Trial1	pointing/STIM_001.jpg
521.71	1.457	correct	pointing	Trial1	pointing/STIM_001.jpg
526.834	1.43	incorrect	pointing	Trial1	pointing/STIM_002.jpg
530.582	1.68	correct	pointing	Trial1	pointing/STIM_002.jpg
534.714	1.498	correct	pointing	Trial1	pointing/STIM_002.jpg
539.249	1.66	correct	pointing	Trial1	pointing/STIM_002.jpg
544.8	1.664	correct	pointing	Trial1	pointing/STIM_002.jpg
549.228	1.621	incorrect	pointing	Trial1	pointing/STIM_002.jpg
553.672	1.275	correct	pointing	Trial1	pointing/STIM_003.jpg
558.463	1.084	correct	pointing	Trial1	pointing/STIM_003.jpg
563.176	1.346	correct	pointing	Trial1	pointing/STIM_003.jpg
568.343	1.086	correct	pointing	Trial1	pointing/STIM_003.jpg
572.233	1.097	incorrect	pointing	Trial1	pointing/STIM_003.jpg
576.042	1.1	correct	pointing	Trial1	pointing/STIM_003.jpg
579.586	1.582	correct	pointing	Trial1	pointing/STIM_004.jpg
583.714	1.312	correct	pointing	Trial1	pointing/STIM_004.jpg
587.875	1.197	correct	pointing	Trial1	pointing/STIM_004.jpg
591.857	1.616	correct	pointing	Trial1	pointing/STIM_004.jpg
596.502	1.241	correct	pointing	Trial1	pointing/STIM_004.jpg
600.538	1.263	correct	pointing	Trial1	pointing/STIM_004.jpg
603.983	0.926	correct	pointing	Trial1	pointing/STIM_005.jpg
607.566	0.98	correct	pointing	Trial1	pointing/STIM_005.jpg
610.812	1.504	incorrect	pointing	Trial1	pointing/STIM_005.jpg
614.696	1.096	incorrect	pointing	Trial1	pointing/STIM_005.jpg
619.213	1.623	correct	pointing	Trial1	pointing/STIM_005.jpg
624.658	1.028	correct	pointing	Trial1	pointing/STIM_005.jpg
628.994	1.431	correct	pointing	Trial1	pointing/STIM_006.jpg
633.767	1.599	correct	pointing	Trial1	pointing/STIM_006.jpg
638.466	1.15	correct	pointing	Trial1	pointing/STIM_006.jpg
641.632	1.436	incorrect	pointing	Trial1	pointing/STIM_006.jpg
645.384	1.564	correct	pointing	Trial1	pointing/STIM_006.jpg
650.526	1.222	correct	pointing	Trial1	pointing/STIM_006.jpg
654.158	1.2	correct	pointing	Trial1	pointing/STIM_007.jpg
657.795	1.359	correct	pointing	Trial1	pointing/STIM_007.jpg
662.167	1.242	correct	pointing	Trial1	pointing/STIM_007.jpg
666.585	1.065	correct	pointing	Trial1	pointing/STIM_007.jpg
669.81	1.102	correct	pointing	Trial1	pointing/STIM_007.jpg
673.811	1.272	correct	pointing	Trial1	pointing/STIM_007.jpg
678.924	1.151	correct	pointing	Trial1	pointing/STIM_008.jpg
682.208	1.701	correct	pointing	Trial1	pointing/STIM_008.jpg
686.483	1.091	correct	pointing	Trial1	pointing/STIM_008.jpg
690.869	1.533	correct	pointing	Trial1	pointing/STIM_008.jpg
696.026	1.349	correct	pointing	Trial1	pointing/STIM_008.jpg
699.479	0.939	correct	pointing	Trial1	pointing/STIM_008.jpg
702.872	1.266	correct	pointing	Trial1	pointing/STIM_009.jpg
706.214	1.437	correct	pointing	Trial1	pointing/STIM_009.jpg
711.484	1.665	correct	pointing	Trial1	pointing/STIM_009.jpg
715.883	1.485	correct	pointing	Trial1	pointing/STIM_009.jpg
720.296	1.205	correct	pointing	Trial1	pointing/STIM_009.jpg
723.647	1.527	correct	pointing	Trial1	pointing/STIM_009.jpg
727.953	1.125	correct	pointing	Trial1	pointing/STIM_010.jpg
732.541	1.36	correct	pointing	Trial1	pointing/STIM_010.jpg
737.124	1.664	correct	pointing	Trial1	pointing/STIM_010.jpg
742.234	1.312	correct	pointing	Trial1	pointing/STIM_010.jpg
747.17	1.165	correct	pointing	Trial1	pointing/STIM_010.jpg
751.55	0.974	correct	pointing	Trial1	pointing/STIM_010.jpg
755.974	1.43	correct	pointing	Trial1	pointing/STIM_011.jpg
760.508	1.536	correct	pointing	Trial1	pointing/STIM_011.jpg
765.817	1.608	correct	pointing	Trial1	pointing/STIM_011.jpg
770.147	1.357	correct	pointing	Trial1	pointing/STIM_011.jpg
774.598	1.135	correct	pointing	Trial1	pointing/STIM_011.jpg
778.425	1.173	correct	pointing	Trial1	pointing/STIM_011.jpg
782.119	3.314	correct	navigation	Trial2	navigation/STIM_000.jpg
788.229	2.791	incorrect	navigation	Trial2	navigation/STIM_000.jpg
794.005	2.207	correct	navigation	Trial2	navigation/STIM_000.jpg
798.71	2.361	correct	navigation	Trial2	navigation/STIM_000.jpg
803.893	1.624	correct	navigation	Trial2	navigation/STIM_000.jpg
809.215	2.295	correct	navigation	Trial2	navigation/STIM_000.jpg
814.938	3.761	incorrect	navigation	Trial2	navigation/STIM_001.jpg
821.21	3.136	correct	navigation	Trial2	navigation/STIM_001.jpg
828.086	2.334	correct	navigation	Trial2	navigation/STIM_001.jpg
833.79	3.716	correct	navigation	Trial2	navigation/STIM_001.jpg
840.001	3.42	correct	navigation	Trial2	navigation/STIM_001.jpg
847.384	2.619	correct	navigation	Trial2	navigation/STIM_001.jpg
853.861	3.19	correct	navigation	Trial2	navigation/STIM_002.jpg
860.879	3.327	correct	navigation	Trial2	navigation/STIM_002.jpg
867.997	3.52	correct	navigation	Trial2	navigation/STIM_002.jpg
873.754	3.97	correct	navigation	Trial2	navigation/STIM_002.jpg
881.384	2.623	correct	navigation	Trial2	navigation/STIM_002.jpg
886.224	1.957	correct	navigation	Trial2	navigation/STIM_002.jpg
890.93	3.256	correct	navigation	Trial2	navigation/STIM_003.jpg
896.899	4.211	correct	navigation	Trial2	navigation/STIM_003.jpg
903.424	2.47	correct	navigation	Trial2	navigation/STIM_003.jpg
908.357	2.117	correct	navigation	Trial2	navigation/STIM_003.jpg
912.514	2.988	correct	navigation	Trial2	navigation/STIM_003.jpg
919.413	3.786	correct	navigation	Trial2	navigation/STIM_003.jpg
926.068	3.241	correct	navigation	Trial2	navigation/STIM_004.jpg
931.847	3.856	incorrect	navigation	Trial2	navigation/STIM_004.jpg
938.616	1.917	correct	navigation	Trial2	navigation/STIM_004.jpg
943.033	1.654	correct	navigation	Trial2	navigation/STIM_004.jpg
948.267	1.97	correct	navigation	Trial2	navigation/STIM_004.jpg
952.683	1.89	correct	navigation	Trial2	navigation/STIM_004.jpg
958.027	4.402	correct	navigation	Trial2	navigation/STIM_005.jpg
966.039	3.281	correct	navigation	Trial2	navigation/STIM_005.jpg
972.914	3.5	correct	navigation	Trial2	navigation/STIM_005.jpg
978.709	3.079	correct	navigation	Trial2	navigation/STIM_005.jpg
985.15	2.522	incorrect	navigation	Trial2	navigation/STIM_005.jpg
989.913	3.742	correct	navigation	Trial2	navigation/STIM_005.jpg
996.979	2.941	correct	navigation	Trial2	navigation/STIM_006.jpg
1002.442	2.159	correct	navigation	Trial2	navigation/STIM_006.jpg
1006.614	1.738	correct	navigation	Trial2	navigation/STIM_006.jpg
1012.325	2.893	correct	navigation	Trial2	navigation/STIM_006.jpg
1018.527	2.729	correct	navigation	Trial2	navigation/STIM_006.jpg
1024.386	2.1	correct	navigation	Trial2	navigation/STIM_006.jpg
1030.317	2.929	incorrect	navigation	Trial2	navigation/STIM_007.jpg
1036.519	3.193	correct	navigation	Trial2	navigation/STIM_007.jpg
1042.787	3.249	correct	navigation	Trial2	navigation/STIM_007.jpg
1048.049	2.184	incorrect	navigation	Trial2	navigation/STIM_007.jpg
1053.899	1.916	correct	navigation	Trial2	navigation/STIM_007.jpg
1058.042	2.925	correct	navigation	Trial2	navigation/STIM_007.jpg
1064.241	2.974	incorrect	navigation	Trial2	navigation/STIM_008.jpg
1070.069	4.434	correct	navigation	Trial2	navigation/STIM_008.jpg
1078.423	1.957	correct	navigation	Trial2	navigation/STIM_008.jpg
1083.031	3.993	correct	navigation	Trial2	navigation/STIM_008.jpg
1089.084	3.654	correct	navigation	Trial2	navigation/STIM_008.jpg
1095.569	2.51	correct	navigation	Trial2	navigation/STIM_008.jpg
1101.19	2.302	correct	navigation	Trial2	navigation/STIM_009.jpg
1106.669	3.168	correct	navigation	Trial2	navigation/STIM_009.jpg
1112.959	3.909	correct	navigation	Trial2	navigation/STIM_009.jpg
1120.791	3.19	correct	navigation	Trial2	navigation/STIM_009.jpg
1126.91	3.094	incorrect	navigation	Trial2	navigation/STIM_009.jpg
1132.9	3.358	correct	navigation	Trial2	navigation/STIM_009.jpg
1139.432	4.006	correct	navigation	Trial2	navigation/STIM_010.jpg
1147.22	2.984	correct	navigation	Trial2	navigation/STIM_010.jpg
1154.092	3.095	correct	navigation	Trial2	navigation/STIM_010.jpg
1160.495	3.242	correct	navigation	Trial2	navigation/STIM_010.jpg
1165.758	2.866	correct	navigation	Trial2	navigation/STIM_010.jpg
1171.932	3.067	incorrect	navigation	Trial2	navigation/STIM_010.jpg
1177.565	4.601	incorrect	navigation	Trial2	navigation/STIM_011.jpg
1184.304	4.549	correct	navigation	Trial2	navigation/STIM_011.jpg
1191.492	3.561	correct	navigation	Trial2	navigation/STIM_011.jpg
1197.762	3.472	correct	navigation	Trial2	navigation/STIM_011.jpg
1205.194	2.195	incorrect	navigation	Trial2	navigation/STIM_011.jpg
1211.055	3.813	correct	navigation	Trial2	navigation/STIM_011.jpg
1217.013	1.003	correct	pointing	Trial2	pointing/STIM_000.jpg
1221.819	1.71	correct	pointing	Trial2	pointing/STIM_000.jpg
1227.036	0.939	correct	pointing	Trial2	pointing/STIM_000.jpg
1231.196	1.443	correct	pointing	Trial2	pointing/STIM_000.jpg
1235.098	1.453	correct	pointing	Trial2	pointing/STIM_000.jpg
1239.119	0.981	correct	pointing	Trial2	pointing/STIM_000.jpg
1243.789	1.063	correct	pointing	Trial2	pointing/STIM_001.jpg
1248.726	0.996	correct	pointing	Trial2	pointing/STIM_001.jpg
1252.062	1.436	correct	pointing	Trial2	pointing/STIM_001.jpg
1255.827	1.079	correct	pointing	Trial2	pointing/STIM_001.jpg
1259.53	1.415	correct	pointing	Trial2	pointing/STIM_001.jpg
1262.997	1.094	correct	pointing	Trial2	pointing/STIM_001.jpg
1266.315	1.513	correct	pointing	Trial2	pointing/STIM_002.jpg
1271.015	1.008	correct	pointing	Trial2	pointing/STIM_002.jpg
1275.162	1.353	correct	pointing	Trial2	pointing/STIM_002.jpg
1278.538	0.982	correct	pointing	Trial2	pointing/STIM_002.jpg
1283.128	1.23	incorrect	pointing	Trial2	pointing/STIM_002.jpg
1286.844	1.642	correct	pointing	Trial2	pointing/STIM_002.jpg
1292.476	0.973	correct	pointing	Trial2	pointing/STIM_003.jpg
1297.354	1.531	correct	pointing	Trial2	pointing/STIM_003.jpg
1302.606	1.388	correct	pointing	Trial2	pointing/STIM_003.jpg
1306.477	1.611	correct	pointing	Trial2	pointing/STIM_003.jpg
1310.552	1.106	correct	pointing	Trial2	pointing/STIM_003.jpg
1314.031	1.233	correct	pointing	Trial2	pointing/STIM_003.jpg
1317.275	1.668	correct	pointing	Trial2	pointing/STIM_004.jpg
1321.774	1.128	correct	pointing	Trial2	pointing/STIM_004.jpg
1325.323	1.178	correct	pointing	Trial2	pointing/STIM_004.jpg
1330.085	1.352	correct	pointing	Trial2	pointing/STIM_004.jpg
1334.833	1.685	correct	pointing	Trial2	pointing/STIM_004.jpg
1339.672	1.455	correct	pointing	Trial2	pointing/STIM_004.jpg
1343.878	1.195	incorrect	pointing	Trial2	pointing/STIM_005.jpg
1348.904	1.103	correct	pointing	Trial2	pointing/STIM_005.jpg
1353.952	0.981	incorrect	pointing	Trial2	pointing/STIM_005.jpg
1358.216	1.464	correct	pointing	Trial2	pointing/STIM_005.jpg
1363.626	1.578	correct	pointing	Trial2	pointing/STIM_005.jpg
1368.476	1.384	correct	pointing	Trial2	pointing/STIM_005.jpg
1372.261	1.701	correct	pointing	Trial2	pointing/STIM_006.jpg
1377.66	1.111	correct	pointing	Trial2	pointing/STIM_006.jpg
1381.492	0.933	correct	pointing	Trial2	pointing/STIM_006.jpg
1384.63	0.956	correct	pointing	Trial2	pointing/STIM_006.jpg
1387.699	1.529	correct	pointing	Trial2	pointing/STIM_006.jpg
1392.318	1.444	correct	pointing	Trial2	pointing/STIM_006.jpg
1395.763	1.192	correct	pointing	Trial2	pointing/STIM_007.jpg
1399.918	1.687	correct	pointing	Trial2	pointing/STIM_007.jpg
1403.66	1.343	incorrect	pointing	Trial2	pointing/STIM_007.jpg
1407.542	1.092	correct	pointing	Trial2	pointing/STIM_007.jpg
1410.953	1.522	correct	pointing	Trial2	pointing/STIM_007.jpg
1415.948	1.197	correct	pointing	Trial2	pointing/STIM_007.jpg
1419.226	1.225	correct	pointing	Trial2	pointing/STIM_008.jpg
1422.813	1.658	correct	pointing	Trial2	pointing/STIM_008.jpg
1427.398	0.92	correct	pointing	Trial2	pointing/STIM_008.jpg
1431.709	1.307	correct	pointing	Trial2	pointing/STIM_008.jpg
1435.204	1.346	correct	pointing	Trial2	pointing/STIM_008.jpg
1438.595	1.544	correct	pointing	Trial2	pointing/STIM_008.jpg
1443.782	1.299	correct	pointing	Trial2	pointing/STIM_009.jpg
1447.445	1.684	correct	pointing	Trial2	pointing/STIM_009.jpg
1451.452	1.129	correct	pointing	Trial2	pointing/STIM_009.jpg
1455.345	1.329	correct	pointing	Trial2	pointing/STIM_009.jpg
1460.321	1.436	correct	pointing	Trial2	pointing/STIM_009.jpg
1465.272	1.3	correct	pointing	Trial2	pointing/STIM_009.jpg
1469.19	1.224	correct	pointing	Trial2	pointing/STIM_010.jpg
1473.864	1.409	correct	pointing	Trial2	pointing/STIM_010.jpg
1478.768	1.581	correct	pointing	Trial2	pointing/STIM_010.jpg
1483.159	1.598	correct	pointing	Trial2	pointing/STIM_010.jpg
1488.732	1.467	correct	pointing	Trial2	pointing/STIM_010.jpg
1493.531	1.016	correct	pointing	Trial2	pointing/STIM_010.jpg
1498.176	1.143	correct	pointing	Trial2	pointing/STIM_011.jpg
1502.32	1.177	correct	pointing	Trial2	pointing/STIM_011.jpg
1506.22	1.269	correct	pointing	Trial2	pointing/STIM_011.jpg
1510.838	0.988	correct	pointing	Trial2	pointing/STIM_011.jpg
1514.48	0.918	correct	pointing	Trial2	pointing/STIM_011.jpg
1517.689	1.18	correct	pointing	Trial2	pointing/STIM_011.jpg
1521.255	2.087	correct	navigation	Trial3	navigation/STIM_000.jpg
1527.046	2.475	correct	navigation	Trial3	navigation/STIM_000.jpg
1533.448	3.136	correct	navigation	Trial3	navigation/STIM_000.jpg
1539.79	2.439	correct	navigation	Trial3	navigation/STIM_000.jpg
1545.31	3.597	correct	navigation	Trial3	navigation/STIM_000.jpg
1551.776	3.234	correct	navigation	Trial3	navigation/STIM_000.jpg
1557.283	3.653	correct	navigation	Trial3	navigation/STIM_001.jpg
1563.609	3.447	incorrect	navigation	Trial3	navigation/STIM_001.jpg
1570.242	3.53	correct	navigation	Trial3	navigation/STIM_001.jpg
1576.909	2.172	incorrect	navigation	Trial3	navigation/STIM_001.jpg
1581.399	1.68	correct	navigation	Trial3	navigation/STIM_001.jpg
1585.822	3.609	correct	navigation	Trial3	navigation/STIM_001.jpg
1591.809	2.338	correct	navigation	Trial3	navigation/STIM_002.jpg
1596.804	2.859	correct	navigation	Trial3	navigation/STIM_002.jpg
1602.754	3.132	correct	navigation	Trial3	navigation/STIM_002.jpg
1609.713	3.33	correct	navigation	Trial3	navigation/STIM_002.jpg
1616.856	3.988	incorrect	navigation	Trial3	navigation/STIM_002.jpg
1624.613	3.663	correct	navigation	Trial3	navigation/STIM_002.jpg
1630.876	3.562	correct	navigation	Trial3	navigation/STIM_003.jpg
1637.058	2.103	correct	navigation	Trial3	navigation/STIM_003.jpg
1642.063	3.379	correct	navigation	Trial3	navigation/STIM_003.jpg
1647.983	1.632	correct	navigation	Trial3	navigation/STIM_003.jpg
1653.263	3.447	correct	navigation	Trial3	navigation/STIM_003.jpg
1660.224	1.849	incorrect	navigation	Trial3	navigation/STIM_003.jpg
1665.62	1.912	correct	navigation	Trial3	navigation/STIM_004.jpg
1670.992	3.012	incorrect	navigation	Trial3	navigation/STIM_004.jpg
1676.412	2.828	correct	navigation	Trial3	navigation/STIM_004.jpg
1681.837	2.585	correct	navigation	Trial3	navigation/STIM_004.jpg
1687.771	1.68	correct	navigation	Trial3	navigation/STIM_004.jpg
1692.181	2.709	correct	navigation	Trial3	navigation/STIM_004.jpg
1696.987	2.724	correct	navigation	Trial3	navigation/STIM_005.jpg
1701.74	3.232	correct	navigation	Trial3	navigation/STIM_005.jpg
1707.181	2.916	correct	navigation	Trial3	navigation/STIM_005.jpg
1712.422	2.141	correct	navigation	Trial3	navigation/STIM_005.jpg
1716.971	3.835	correct	navigation	Trial3	navigation/STIM_005.jpg
1722.83	2.266	correct	navigation	Trial3	navigation/STIM_005.jpg
1729.039	3.398	correct	navigation	Trial3	navigation/STIM_006.jpg
1736.286	2.508	incorrect	navigation	Trial3	navigation/STIM_006.jpg
1741.081	2.199	correct	navigation	Trial3	navigation/STIM_006.jpg
1746.116	2.737	correct	navigation	Trial3	navigation/STIM_006.jpg
1752.595	2.198	correct	navigation	Trial3	navigation/STIM_006.jpg
1758.336	3.902	correct	navigation	Trial3	navigation/STIM_006.jpg
1766.022	3.13	correct	navigation	Trial3	navigation/STIM_007.jpg
1772.128	2.325	correct	navigation	Trial3	navigation/STIM_007.jpg
1776.906	2.118	correct	navigation	Trial3	navigation/STIM_007.jpg
1782.523	1.676	correct	navigation	Trial3	navigation/STIM_007.jpg
1786.348	2.864	correct	navigation	Trial3	navigation/STIM_007.jpg
1792.811	2.049	incorrect	navigation	Trial3	navigation/STIM_007.jpg
1797.846	3.18	incorrect	navigation	Trial3	navigation/STIM_008.jpg
1804.04	3.949	correct	navigation	Trial3	navigation/STIM_008.jpg
1811.104	2.883	correct	navigation	Trial3	navigation/STIM_008.jpg
1817.489	3.597	correct	navigation	Trial3	navigation/STIM_008.jpg
1823.846	2.814	correct	navigation	Trial3	navigation/STIM_008.jpg
1830.235	2.53	correct	navigation	Trial3	navigation/STIM_008.jpg
1835.08	2.399	correct	navigation	Trial3	navigation/STIM_009.jpg
1840.702	1.946	correct	navigation	Trial3	navigation/STIM_009.jpg
1846.091	2.467	correct	navigation	Trial3	navigation/STIM_009.jpg
1851.103	2.23	correct	navigation	Trial3	navigation/STIM_009.jpg
1856.002	2.87	correct	navigation	Trial3	navigation/STIM_009.jpg
1861.658	3.035	correct	navigation	Trial3	navigation/STIM_009.jpg
1867.231	3.013	correct	navigation	Trial3	navigation/STIM_010.jpg
1873.384	3.611	correct	navigation	Trial3	navigation/STIM_010.jpg
1879.433	2.372	correct	navigation	Trial3	navigation/STIM_010.jpg
1884.055	2.495	correct	navigation	Trial3	navigation/STIM_010.jpg
1889.066	1.771	incorrect	navigation	Trial3	navigation/STIM_010.jpg
1894.758	1.942	correct	navigation	Trial3	navigation/STIM_010.jpg
1900.529	3.427	incorrect	navigation	Trial3	navigation/STIM_011.jpg
1906.697	3.799	correct	navigation	Trial3	navigation/STIM_011.jpg
1913.656	2.843	incorrect	navigation	Trial3	navigation/STIM_011.jpg
1920.008	2.184	correct	navigation	Trial3	navigation/STIM_011.jpg
1924.548	3.038	correct	navigation	Trial3	navigation/STIM_011.jpg
1930.714	3.406	incorrect	navigation	Trial3	navigation/STIM_011.jpg
1937.745	1.388	correct	pointing	Trial3	pointing/STIM_000.jpg
1942.358	1.576	correct	pointing	Trial3	pointing/STIM_000.jpg
1947.115	1.218	incorrect	pointing	Trial3	pointing/STIM_000.jpg
1951.337	1.599	correct	pointing	Trial3	pointing/STIM_000.jpg
1955.758	1.058	correct	pointing	Trial3	pointing/STIM_000.jpg
1960.681	1.338	correct	pointing	Trial3	pointing/STIM_000.jpg
1965.962	1.226	correct	pointing	Trial3	pointing/STIM_001.jpg
1969.918	1.06	correct	pointing	Trial3	pointing/STIM_001.jpg
1973.149	1.246	correct	pointing	Trial3	pointing/STIM_001.jpg
1977.12	1.582	correct	pointing	Trial3	pointing/STIM_001.jpg
1981.023	1.172	correct	pointing	Trial3	pointing/STIM_001.jpg
1984.302	1.486	correct	pointing	Trial3	pointing/STIM_001.jpg
1988.274	1.436	correct	pointing	Trial3	pointing/STIM_002.jpg
1993.207	1.219	correct	pointing	Trial3	pointing/STIM_002.jpg
1996.564	1.124	correct	pointing	Trial3	pointing/STIM_002.jpg
2001.348	1.582	correct	pointing	Trial3	pointing/STIM_002.jpg
2005.45	1.223	correct	pointing	Trial3	pointing/STIM_002.jpg
2008.955	1.476	incorrect	pointing	Trial3	pointing/STIM_002.jpg
2013.029	1.342	correct	pointing	Trial3	pointing/STIM_003.jpg
2017.31	1.168	correct	pointing	Trial3	pointing/STIM_003.jpg
2021.036	1.459	correct	pointing	Trial3	pointing/STIM_003.jpg
2026.105	1.427	correct	pointing	Trial3	pointing/STIM_003.jpg
2029.796	1.568	correct	pointing	Trial3	pointing/STIM_003.jpg
2033.459	1.615	correct	pointing	Trial3	pointing/STIM_003.jpg
2038.227	1.23	incorrect	pointing	Trial3	pointing/STIM_004.jpg
2041.92	1.229	correct	pointing	Trial3	pointing/STIM_004.jpg
2045.617	1.656	correct	pointing	Trial3	pointing/STIM_004.jpg
2051.028	1.024	correct	pointing	Trial3	pointing/STIM_004.jpg
2054.995	1.52	correct	pointing	Trial3	pointing/STIM_004.jpg
2060.105	1.15	correct	pointing	Trial3	pointing/STIM_004.jpg
2065.213	1.206	correct	pointing	Trial3	pointing/STIM_005.jpg
2068.455	1.424	correct	pointing	Trial3	pointing/STIM_005.jpg
2072.942	1.569	incorrect	pointing	Trial3	pointing/STIM_005.jpg
2078.457	1.677	incorrect	pointing	Trial3	pointing/STIM_005.jpg
2083.048	0.995	correct	pointing	Trial3	pointing/STIM_005.jpg
2086.861	1.307	correct	pointing	Trial3	pointing/STIM_005.jpg
2091.032	1.172	correct	pointing	Trial3	pointing/STIM_006.jpg
2096.063	1.574	correct	pointing	Trial3	pointing/STIM_006.jpg
2100.282	1.636	correct	pointing	Trial3	pointing/STIM_006.jpg
2105.908	1.522	correct	pointing	Trial3	pointing/STIM_006.jpg
2109.826	1.243	correct	pointing	Trial3	pointing/STIM_006.jpg
2113.133	1.713	correct	pointing	Trial3	pointing/STIM_006.jpg
2118.567	1.476	correct	pointing	Trial3	pointing/STIM_007.jpg
2123.742	1.385	correct	pointing	Trial3	pointing/STIM_007.jpg
2128.776	1.286	correct	pointing	Trial3	pointing/STIM_007.jpg
2132.835	1.167	correct	pointing	Trial3	pointing/STIM_007.jpg
2136.078	1.456	incorrect	pointing	Trial3	pointing/STIM_007.jpg
2140.635	1.186	correct	pointing	Trial3	pointing/STIM_007.jpg
2144.665	1.049	correct	pointing	Trial3	pointing/STIM_008.jpg
2147.821	1.143	incorrect	pointing	Trial3	pointing/STIM_008.jpg
2152.206	1.263	correct	pointing	Trial3	pointing/STIM_008.jpg
2156.868	1.16	correct	pointing	Trial3	pointing/STIM_008.jpg
2161.904	1.223	correct	pointing	Trial3	pointing/STIM_008.jpg
2166.231	1.497	correct	pointing	Trial3	pointing/STIM_008.jpg
2169.735	1.352	correct	pointing	Trial3	pointing/STIM_009.jpg
2174.344	1.157	correct	pointing	Trial3	pointing/STIM_009.jpg
2178.329	1.316	correct	pointing	Trial3	pointing/STIM_009.jpg
2183.539	1.215	correct	pointing	Trial3	pointing/STIM_009.jpg
2187.81	1.453	correct	pointing	Trial3	pointing/STIM_009.jpg
2191.801	1.31	correct	pointing	Trial3	pointing/STIM_009.jpg
2196.545	1.027	correct	pointing	Trial3	pointing/STIM_010.jpg
2199.941	1.393	correct	pointing	Trial3	pointing/STIM_010.jpg
2204.186	1.388	correct	pointing	Trial3	pointing/STIM_010.jpg
2207.635	1.259	incorrect	pointing	Trial3	pointing/STIM_010.jpg
2211.299	1.072	correct	pointing	Trial3	pointing/STIM_010.jpg
2215.043	1.133	correct	pointing	Trial3	pointing/STIM_010.jpg
2218.324	1.578	correct	pointing	Trial3	pointing/STIM_011.jpg
2223.885	1.563	correct	pointing	Trial3	pointing/STIM_011.jpg
2229.03	1.127	correct	pointing	Trial3	pointing/STIM_011.jpg
2232.291	1.658	correct	pointing	Trial3	pointing/STIM_011.jpg
2236.753	0.957	correct	pointing	Trial3	pointing/STIM_011.jpg
2240.082	1.64	incorrect	pointing	Trial3	pointing/STIM_011.jpg
