onset	duration	response_time_ms	trial_type	learning_stage	stimulus	response_port
0.0	3.798	3798.4	navigation	Trial1	navigation/STIM_000.jpg	99
7.636	3.834	3834.0	navigation	Trial1	navigation/STIM_000.jpg	99
15.453	3.08	3079.9	navigation	Trial1	navigation/STIM_000.jpg	99
21.955	3.094	3093.7	navigation	Trial1	navigation/STIM_000.jpg	99
28.713	3.944	3944.5	navigation	Trial1	navigation/STIM_000.jpg	99
36.617	3.165	3165.3	navigation	Trial1	navigation/STIM_000.jpg	100
41.832	2.653	2652.9	navigation	Trial1	navigation/STIM_001.jpg	99
46.997	4.929	4928.7	navigation	Trial1	navigation/STIM_001.jpg	99
54.139	5.083	5082.6	navigation	Trial1	navigation/STIM_001.jpg	100
62.559	3.419	3418.8	navigation	Trial1	navigation/STIM_001.jpg	100
69.204	4.518	4517.9	navigation	Trial1	navigation/STIM_001.jpg	100
76.067	3.323	3322.7	navigation	Trial1	navigation/STIM_001.jpg	100
82.353	3.964	3964.2	navigation	Trial1	navigation/STIM_002.jpg	100
89.708	2.415	2415.0	navigation	Trial1	navigation/STIM_002.jpg	99
94.476	4.399	4399.4	navigation	Trial1	navigation/STIM_002.jpg	99
101.286	4.686	4686.5	navigation	Trial1	navigation/STIM_002.jpg	99
109.169	2.788	2787.7	navigation	Trial1	navigation/STIM_002.jpg	99
115.369	2.377	2377.2	navigation	Trial1	navigation/STIM_002.jpg	100
120.401	2.802	2801.6	navigation	Trial1	navigation/STIM_003.jpg	99
125.386	2.976	2976.2	navigation	Trial1	navigation/STIM_003.jpg	100
130.659	3.705	3705.2	navigation	Trial1	navigation/STIM_003.jpg	100
137.206	3.934	3934.5	navigation	Trial1	navigation/STIM_003.jpg	100
144.48	2.142	2141.7	navigation	Trial1	navigation/STIM_003.jpg	100
148.883	2.26	2260.3	navigation	Trial1	navigation/STIM_003.jpg	100
154.855	4.752	4752.0	navigation	Trial1	navigation/STIM_004.jpg	99
161.879	4.931	4931.4	navigation	Trial1	navigation/STIM_004.jpg	99
169.968	3.318	3318.3	navigation	Trial1	navigation/STIM_004.jpg	100
177.217	2.74	2740.3	navigation	Trial1	navigation/STIM_004.jpg	99
182.335	2.316	2316.1	navigation	Trial1	navigation/STIM_004.jpg	99
186.783	4.052	4052.4	navigation	Trial1	navigation/STIM_004.jpg	99
193.051	3.473	3473.0	navigation	Trial1	navigation/STIM_005.jpg	100
199.433	5.095	5095.4	navigation	Trial1	navigation/STIM_005.jpg	100
208.106	4.812	4811.8	navigation	Trial1	navigation/STIM_005.jpg	100
216.148	3.573	3572.7	navigation	Trial1	navigation/STIM_005.jpg	99
222.414	2.282	2282.1	navigation	Trial1	navigation/STIM_005.jpg	100
227.312	2.807	2807.2	navigation	Trial1	navigation/STIM_005.jpg	99
234.067	3.995	3995.0	navigation	Trial1	navigation/STIM_006.jpg	100
240.584	4.671	4670.7	navigation	Trial1	navigation/STIM_006.jpg	99
248.917	4.563	4562.9	navigation	Trial1	navigation/STIM_006.jpg	100
256.381	2.27	2269.6	navigation	Trial1	navigation/STIM_006.jpg	99
262.008	3.904	3903.6	navigation	Trial1	navigation/STIM_006.jpg	100
268.86	4.221	4221.0	navigation	Trial1	navigation/STIM_006.jpg	99
275.855	3.076	3076.2	navigation	Trial1	navigation/STIM_007.jpg	100
282.229	4.681	4680.7	navigation	Trial1	navigation/STIM_007.jpg	99
289.015	4.916	4916.3	navigation	Trial1	navigation/STIM_007.jpg	100
297.282	4.537	4536.8	navigation	Trial1	navigation/STIM_007.jpg	99
304.424	3.635	3634.7	navigation	Trial1	navigation/STIM_007.jpg	100
311.664	3.453	3452.7	navigation	Trial1	navigation/STIM_007.jpg	99
318.793	5.292	5291.5	navigation	Trial1	navigation/STIM_008.jpg	100
326.71	3.672	3671.5	navigation	Trial1	navigation/STIM_008.jpg	99
332.772	4.525	4525.2	navigation	Trial1	navigation/STIM_008.jpg	99
339.845	2.725	2725.3	navigation	Trial1	navigation/STIM_008.jpg	99
345.025	3.233	3232.8	navigation	Trial1	navigation/STIM_008.jpg	99
351.754	3.552	3551.8	navigation	Trial1	navigation/STIM_008.jpg	100
358.844	2.975	2975.2	navigation	Trial1	navigation/STIM_009.jpg	100
364.732	2.822	2821.5	navigation	Trial1	navigation/STIM_009.jpg	100
370.256	3.005	3005.4	navigation	Trial1	navigation/STIM_009.jpg	100
375.741	2.725	2725.1	navigation	Trial1	navigation/STIM_009.jpg	100
381.239	3.632	3632.5	navigation	Trial1	navigation/STIM_009.jpg	99
386.994	3.762	3761.9	navigation	Trial1	navigation/STIM_009.jpg	100
392.887	5.265	5265.1	navigation	Trial1	navigation/STIM_010.jpg	99
400.449	3.943	3942.8	navigation	Trial1	navigation/STIM_010.jpg	99
406.513	2.604	2604.2	navigation	Trial1	navigation/STIM_010.jpg	99
411.474	4.656	4656.2	navigation	Trial1	navigation/STIM_010.jpg	99
419.815	4.126	4125.7	navigation	Trial1	navigation/STIM_010.jpg	100
426.038	3.131	3130.6	navigation	Trial1	navigation/STIM_010.jpg	100
432.379	3.602	3601.7	navigation	Trial1	navigation/STIM_011.jpg	99
438.911	4.276	4276.0	navigation	Trial1	navigation/STIM_011.jpg	99
446.183	3.153	3153.3	navigation	Trial1	navigation/STIM_011.jpg	99
453.27	3.99	3990.3	navigation	Trial1	navigation/STIM_011.jpg	99
459.925	4.073	4073.1	navigation	Trial1	navigation/STIM_011.jpg	100
467.758	2.049	2049.0	navigation	Trial1	navigation/STIM_011.jpg	99
473.2	1.192	1191.5	pointing	Trial1	pointing/STIM_000.jpg	100
477.921	1.154	1153.9	pointing	Trial1	pointing/STIM_000.jpg	99
482.213	1.497	1496.8	pointing	Trial1	pointing/STIM_000.jpg	99
487.691	1.221	1221.4	pointing	Trial1	pointing/STIM_000.jpg	99
492.507	1.366	1365.9	pointing	Trial1	pointing/STIM_000.jpg	99
496.168	1.451	1450.6	pointing	Trial1	pointing/STIM_000.jpg	100
500.49	1.214	1213.9	pointing	Trial1	pointing/STIM_001.jpg	100
504.722	1.339	1338.6	pointing	Trial1	pointing/STIM_001.jpg	100
508.578	1.358	1357.6	pointing	Trial1	pointing/STIM_001.jpg	100
512.452	1.221	1221.4	pointing	Trial1	pointing/STIM_001.jpg	100
517.447	1.708	1707.5	pointing	Trial1	pointing/STIM_001.jpg	100
521.71	1.457	1457.2	pointing	Trial1	pointing/STIM_001.jpg	100
526.834	1.43	1429.5	pointing	Trial1	pointing/STIM_002.jpg	100
530.582	1.68	1680.2	pointing	Trial1	pointing/STIM_002.jpg	100
534.714	1.498	1497.5	pointing	Trial1	pointing/STIM_002.jpg	100
539.249	1.66	1660.0	pointing	Trial1	pointing/STIM_002.jpg	99
544.8	1.664	1663.5	pointing	Trial1	pointing/STIM_002.jpg	100
549.228	1.621	1620.7	pointing	Trial1	pointing/STIM_002.jpg	99
553.672	1.275	1275.1	pointing	Trial1	pointing/STIM_003.jpg	99
558.463	1.084	1083.7	pointing	Trial1	pointing/STIM_003.jpg	100
563.176	1.346	1345.6	pointing	Trial1	pointing/STIM_003.jpg	99
568.343	1.086	1085.9	pointing	Trial1	pointing/STIM_003.jpg	99
572.233	1.097	1096.6	pointing	Trial1	pointing/STIM_003.jpg	99
576.042	1.1	1099.5	pointing	Trial1	pointing/STIM_003.jpg	100
579.586	1.582	1582.0	pointing	Trial1	pointing/STIM_004.jpg	100
583.714	1.312	1311.7	pointing	Trial1	pointing/STIM_004.jpg	100
587.875	1.197	1197.3	pointing	Trial1	pointing/STIM_004.jpg	100
591.857	1.616	1615.5	pointing	Trial1	pointing/STIM_004.jpg	100
596.502	1.241	1241.2	pointing	Trial1	pointing/STIM_004.jpg	99
600.538	1.263	1262.8	pointing	Trial1	pointing/STIM_004.jpg	99
603.983	0.926	926.1	pointing	Trial1	pointing/STIM_005.jpg	99
607.566	0.98	979.6	pointing	Trial1	pointing/STIM_005.jpg	100
610.812	1.504	1504.5	pointing	Trial1	pointing/STIM_005.jpg	100
614.696	1.096	1096.1	pointing	Trial1	pointing/STIM_005.jpg	99
619.213	1.623	1623.2	pointing	Trial1	pointing/STIM_005.jpg	100
624.658	1.028	1028.1	pointing	Trial1	pointing/STIM_005.jpg	100
628.994	1.431	1431.0	pointing	Trial1	pointing/STIM_006.jpg	99
633.767	1.599	1598.7	pointing	Trial1	pointing/STIM_006.jpg	100
638.466	1.15	1150.4	pointing	Trial1	pointing/STIM_006.jpg	100
641.632	1.436	1435.6	pointing	Trial1	pointing/STIM_006.jpg	100
645.384	1.564	1564.1	pointing	Trial1	pointing/STIM_006.jpg	100
650.526	1.222	1222.2	pointing	Trial1	pointing/STIM_006.jpg	99
654.158	1.2	1200.3	pointing	Trial1	pointing/STIM_007.jpg	100
657.795	1.359	1359.4	pointing	Trial1	pointing/STIM_007.jpg	99
662.167	1.242	1241.7	pointing	Trial1	pointing/STIM_007.jpg	99
666.585	1.065	1065.1	pointing	Trial1	pointing/STIM_007.jpg	99
669.81	1.102	1102.2	pointing	Trial1	pointing/STIM_007.jpg	100
673.811	1.272	1272.3	pointing	Trial1	pointing/STIM_007.jpg	99
678.924	1.151	1150.9	pointing	Trial1	pointing/STIM_008.jpg	100
682.208	1.701	1700.7	pointing	Trial1	pointing/STIM_008.jpg	99
686.483	1.091	1090.6	pointing	Trial1	pointing/STIM_008.jpg	99
690.869	1.533	1532.6	pointing	Trial1	pointing/STIM_008.jpg	99
696.026	1.349	1349.1	pointing	Trial1	pointing/STIM_008.jpg	99
699.479	0.939	939.0	pointing	Trial1	pointing/STIM_008.jpg	100
702.872	1.266	1266.4	pointing	Trial1	pointing/STIM_009.jpg	99
706.214	1.437	1436.7	pointing	Trial1	pointing/STIM_009.jpg	99
711.484	1.665	1665.0	pointing	Trial1	pointing/STIM_009.jpg	100
715.883	1.485	1484.9	pointing	Trial1	pointing/STIM_009.jpg	99
720.296	1.205	1205.1	pointing	Trial1	pointing/STIM_009.jpg	100
723.647	1.527	1527.3	pointing	Trial1	pointing/STIM_009.jpg	99
727.953	1.125	1125.4	pointing	Trial1	pointing/STIM_010.jpg	99
732.541	1.36	1360.2	pointing	Trial1	pointing/STIM_010.jpg	99
737.124	1.664	1663.9	pointing	Trial1	pointing/STIM_010.jpg	100
742.234	1.312	1312.3	pointing	Trial1	pointing/STIM_010.jpg	99
747.17	1.165	1165.3	pointing	Trial1	pointing/STIM_010.jpg	100
751.55	0.974	974.5	pointing	Trial1	pointing/STIM_010.jpg	99
755.974	1.43	1430.4	pointing	Trial1	pointing/STIM_011.jpg	99
760.508	1.536	1536.5	pointing	Trial1	pointing/STIM_011.jpg	100
765.817	1.608	1608.3	pointing	Trial1	pointing/STIM_011.jpg	99
770.147	1.357	1356.8	pointing	Trial1	pointing/STIM_011.jpg	99
774.598	1.135	1135.0	pointing	Trial1	pointing/STIM_011.jpg	100
778.425	1.173	1172.9	pointing	Trial1	pointing/STIM_011.jpg	99
782.119	3.314	3313.8	navigation	Trial2	navigation/STIM_000.jpg	99
788.229	2.791	2790.7	navigation	Trial2	navigation/STIM_000.jpg	99
794.005	2.207	2207.0	navigation	Trial2	navigation/STIM_000.jpg	99
798.71	2.361	2361.1	navigation	Trial2	navigation/STIM_000.jpg	99
803.893	1.624	1624.2	navigation	Trial2	navigation/STIM_000.jpg	100
809.215	2.295	2295.4	navigation	Trial2	navigation/STIM_000.jpg	100
814.938	3.761	3760.6	navigation	Trial2	navigation/STIM_001.jpg	100
821.21	3.136	3135.9	navigation	Trial2	navigation/STIM_001.jpg	99
828.086	2.334	2333.6	navigation	Trial2	navigation/STIM_001.jpg	100
833.79	3.716	3716.5	navigation	Trial2	navigation/STIM_001.jpg	99
840.001	3.42	3420.5	navigation	Trial2	navigation/STIM_001.jpg	99
847.384	2.619	2618.8	navigation	Trial2	navigation/STIM_001.jpg	100
853.861	3.19	3190.4	navigation	Trial2	navigation/STIM_002.jpg	99
860.879	3.327	3326.6	navigation	Trial2	navigation/STIM_002.jpg	99
867.997	3.52	3519.8	navigation	Trial2	navigation/STIM_002.jpg	99
873.754	3.97	3970.5	navigation	Trial2	navigation/STIM_002.jpg	99
881.384	2.623	2623.4	navigation	Trial2	navigation/STIM_002.jpg	100
886.224	1.957	1956.6	navigation	Trial2	navigation/STIM_002.jpg	100
890.93	3.256	3255.7	navigation	Trial2	navigation/STIM_003.jpg	99
896.899	4.211	4210.6	navigation	Trial2	navigation/STIM_003.jpg	100
903.424	2.47	2469.8	navigation	Trial2	navigation/STIM_003.jpg	100
908.357	2.117	2117.1	navigation	Trial2	navigation/STIM_003.jpg	100
912.514	2.988	2987.9	navigation	Trial2	navigation/STIM_003.jpg	99
919.413	3.786	3786.4	navigation	Trial2	navigation/STIM_003.jpg	100
926.068	3.241	3240.7	navigation	Trial2	navigation/STIM_004.jpg	99
931.847	3.856	3855.7	navigation	Trial2	navigation/STIM_004.jpg	100
938.616	1.917	1917.1	navigation	Trial2	navigation/STIM_004.jpg	99
943.033	1.654	1654.4	navigation	Trial2	navigation/STIM_004.jpg	100
948.267	1.97	1970.3	navigation	Trial2	navigation/STIM_004.jpg	100
952.683	1.89	1890.4	navigation	Trial2	navigation/STIM_004.jpg	99
958.027	4.402	4401.6	navigation	Trial2	navigation/STIM_005.jpg	99
966.039	3.281	3281.4	navigation	Trial2	navigation/STIM_005.jpg	99
972.914	3.5	3500.1	navigation	Trial2	navigation/STIM_005.jpg	100
978.709	3.079	3079.1	navigation	Trial2	navigation/STIM_005.jpg	100
985.15	2.522	2521.8	navigation	Trial2	navigation/STIM_005.jpg	100
989.913	3.742	3742.4	navigation	Trial2	navigation/STIM_005.jpg	100
996.979	2.941	2941.1	navigation	Trial2	navigation/STIM_006.jpg	100
1002.442	2.159	2159.1	navigation	Trial2	navigation/STIM_006.jpg	100
1006.614	1.738	1738.5	navigation	Trial2	navigation/STIM_006.jpg	100
1012.325	2.893	2892.7	navigation	Trial2	navigation/STIM_006.jpg	99
1018.527	2.729	2728.8	navigation	Trial2	navigation/STIM_006.jpg	99
1024.386	2.1	2099.6	navigation	Trial2	navigation/STIM_006.jpg	100
1030.317	2.929	2929.1	navigation	Trial2	navigation/STIM_007.jpg	99
1036.519	3.193	3193.0	navigation	Trial2	navigation/STIM_007.jpg	99
1042.787	3.249	3248.6	navigation	Trial2	navigation/STIM_007.jpg	100
1048.049	2.184	2183.6	navigation	Trial2	navigation/STIM_007.jpg	99
1053.899	1.916	1916.0	navigation	Trial2	navigation/STIM_007.jpg	100
1058.042	2.925	2925.2	navigation	Trial2	navigation/STIM_007.jpg	100
1064.241	2.974	2973.5	navigation	Trial2	navigation/STIM_008.jpg	100
1070.069	4.434	4433.5	navigation	Trial2	navigation/STIM_008.jpg	100
1078.423	1.957	1956.9	navigation	Trial2	navigation/STIM_008.jpg	100
1083.031	3.993	3992.8	navigation	Trial2	navigation/STIM_008.jpg	100
1089.084	3.654	3653.9	navigation	Trial2	navigation/STIM_008.jpg	100
1095.569	2.51	2509.8	navigation	Trial2	navigation/STIM_008.jpg	100
1101.19	2.302	2302.3	navigation	Trial2	navigation/STIM_009.jpg	100
1106.669	3.168	3168.3	navigation	Trial2	navigation/STIM_009.jpg	99
1112.959	3.909	3909.4	navigation	Trial2	navigation/STIM_009.jpg	100
1120.791	3.19	3189.6	navigation	Trial2	navigation/STIM_009.jpg	100
1126.91	3.094	3094.0	navigation	Trial2	navigation/STIM_009.jpg	100
1132.9	3.358	3358.1	navigation	Trial2	navigation/STIM_009.jpg	100
1139.432	4.006	4005.7	navigation	Trial2	navigation/STIM_010.jpg	99
1147.22	2.984	2983.5	navigation	Trial2	navigation/STIM_010.jpg	99
1154.092	3.095	3094.6	navigation	Trial2	navigation/STIM_010.jpg	100
1160.495	3.242	3241.6	navigation	Trial2	navigation/STIM_010.jpg	99
1165.758	2.866	2865.8	navigation	Trial2	navigation/STIM_010.jpg	99
1171.932	3.067	3067.3	navigation	Trial2	navigation/STIM_010.jpg	99
1177.565	4.601	4601.1	navigation	Trial2	navigation/STIM_011.jpg	100
1184.304	4.549	4549.1	navigation	Trial2	navigation/STIM_011.jpg	100
1191.492	3.561	3560.8	navigation	Trial2	navigation/STIM_011.jpg	99
1197.762	3.472	3472.2	navigation	Trial2	navigation/STIM_011.jpg	100
1205.194	2.195	2195.0	navigation	Trial2	navigation/STIM_011.jpg	100
1211.055	3.813	3812.8	navigation	Trial2	navigation/STIM_011.jpg	99
1217.013	1.003	1002.7	pointing	Trial2	pointing/STIM_000.jpg	99
1221.819	1.71	1710.2	pointing	Trial2	pointing/STIM_000.jpg	100
1227.036	0.939	939.4	pointing	Trial2	pointing/STIM_000.jpg	100
1231.196	1.443	1442.9	pointing	Trial2	pointing/STIM_000.jpg	100
1235.098	1.453	1452.7	pointing	Trial2	pointing/STIM_000.jpg	99
1239.119	0.981	981.3	pointing	Trial2	pointing/STIM_000.jpg	100
1243.789	1.063	1063.3	pointing	Trial2	pointing/STIM_001.jpg	100
1248.726	0.996	996.1	pointing	Trial2	pointing/STIM_001.jpg	100
1252.062	1.436	1435.6	pointing	Trial2	pointing/STIM_001.jpg	99
1255.827	1.079	1079.2	pointing	Trial2	pointing/STIM_001.jpg	100
1259.53	1.415	1415.0	pointing	Trial2	pointing/STIM_001.jpg	100
1262.997	1.094	1094.2	pointing	Trial2	pointing/STIM_001.jpg	100
1266.315	1.513	1512.6	pointing	Trial2	pointing/STIM_002.jpg	100
1271.015	1.008	1007.9	pointing	Trial2	pointing/STIM_002.jpg	100
1275.162	1.353	1352.6	pointing	Trial2	pointing/STIM_002.jpg	100
1278.538	0.982	982.0	pointing	Trial2	pointing/STIM_002.jpg	99
1283.128	1.23	1230.2	pointing	Trial2	pointing/STIM_002.jpg	99
1286.844	1.642	1641.8	pointing	Trial2	pointing/STIM_002.jpg	100
1292.476	0.973	973.3	pointing	Trial2	pointing/STIM_003.jpg	100
1297.354	1.531	1530.6	pointing	Trial2	pointing/STIM_003.jpg	99
1302.606	1.388	1387.9	pointing	Trial2	pointing/STIM_003.jpg	99
1306.477	1.611	1611.4	pointing	Trial2	pointing/STIM_003.jpg	99
1310.552	1.106	1105.9	pointing	Trial2	pointing/STIM_003.jpg	99
1314.031	1.233	1233.4	pointing	Trial2	pointing/STIM_003.jpg	99
1317.275	1.668	1667.7	pointing	Trial2	pointing/STIM_004.jpg	99
1321.774	1.128	1127.6	pointing	Trial2	pointing/STIM_004.jpg	99
1325.323	1.178	1177.7	pointing	Trial2	pointing/STIM_004.jpg	100
1330.085	1.352	1352.2	pointing	Trial2	pointing/STIM_004.jpg	100
1334.833	1.685	1684.9	pointing	Trial2	pointing/STIM_004.jpg	99
1339.672	1.455	1454.7	pointing	Trial2	pointing/STIM_004.jpg	100
1343.878	1.195	1194.7	pointing	Trial2	pointing/STIM_005.jpg	99
1348.904	1.103	1103.1	pointing	Trial2	pointing/STIM_005.jpg	99
1353.952	0.981	980.6	pointing	Trial2	pointing/STIM_005.jpg	100
1358.216	1.464	1464.5	pointing	Trial2	pointing/STIM_005.jpg	99
1363.626	1.578	1578.2	pointing	Trial2	pointing/STIM_005.jpg	99
1368.476	1.384	1383.6	pointing	Trial2	pointing/STIM_005.jpg	100
1372.261	1.701	1701.0	pointing	Trial2	pointing/STIM_006.jpg	100
1377.66	1.111	1110.7	pointing	Trial2	pointing/STIM_006.jpg	99
1381.492	0.933	932.7	pointing	Trial2	pointing/STIM_006.jpg	99
1384.63	0.956	956.4	pointing	Trial2	pointing/STIM_006.jpg	99
1387.699	1.529	1529.3	pointing	Trial2	pointing/STIM_006.jpg	99
1392.318	1.444	1444.0	pointing	Trial2	pointing/STIM_006.jpg	99
1395.763	1.192	1191.5	pointing	Trial2	pointing/STIM_007.jpg	99
1399.918	1.687	1686.8	pointing	Trial2	pointing/STIM_007.jpg	100
1403.66	1.343	1342.6	pointing	Trial2	pointing/STIM_007.jpg	100
1407.542	1.092	1091.9	pointing	Trial2	pointing/STIM_007.jpg	100
1410.953	1.522	1522.5	pointing	Trial2	pointing/STIM_007.jpg	99
1415.948	1.197	1197.4	pointing	Trial2	pointing/STIM_007.jpg	99
1419.226	1.225	1224.7	pointing	Trial2	pointing/STIM_008.jpg	100
1422.813	1.658	1657.8	pointing	Trial2	pointing/STIM_008.jpg	100
1427.398	0.92	919.8	pointing	Trial2	pointing/STIM_008.jpg	100
1431.709	1.307	1307.1	pointing	Trial2	pointing/STIM_008.jpg	99
1435.204	1.346	1346.0	pointing	Trial2	pointing/STIM_008.jpg	100
1438.595	1.544	1544.3	pointing	Trial2	pointing/STIM_008.jpg	99
1443.782	1.299	1298.6	pointing	Trial2	pointing/STIM_009.jpg	100
1447.445	1.684	1684.3	pointing	Trial2	pointing/STIM_009.jpg	100
1451.452	1.129	1129.0	pointing	Trial2	pointing/STIM_009.jpg	100
1455.345	1.329	1328.6	pointing	Trial2	pointing/STIM_009.jpg	100
1460.321	1.436	1436.4	pointing	Trial2	pointing/STIM_009.jpg	100
1465.272	1.3	1300.3	pointing	Trial2	pointing/STIM_009.jpg	99
1469.19	1.224	1224.1	pointing	Trial2	pointing/STIM_010.jpg	99
1473.864	1.409	1409.4	pointing	Trial2	pointing/STIM_010.jpg	100
1478.768	1.581	1581.0	pointing	Trial2	pointing/STIM_010.jpg	99
1483.159	1.598	1598.4	pointing	Trial2	pointing/STIM_010.jpg	100
1488.732	1.467	1467.3	pointing	Trial2	pointing/STIM_010.jpg	100
1493.531	1.016	1015.5	pointing	Trial2	pointing/STIM_010.jpg	100
1498.176	1.143	1143.3	pointing	Trial2	pointing/STIM_011.jpg	99
1502.32	1.177	1177.0	pointing	Trial2	pointing/STIM_011.jpg	99
1506.22	1.269	1268.6	pointing	Trial2	pointing/STIM_011.jpg	99
1510.838	0.988	987.9	pointing	Trial2	pointing/STIM_011.jpg	100
1514.48	0.918	917.7	pointing	Trial2	pointing/STIM_011.jpg	99
1517.689	1.18	1180.1	pointing	Trial2	pointing/STIM_011.jpg	99
1521.255	2.087	2087.0	navigation	Trial3	navigation/STIM_000.jpg	100
1527.046	2.475	2474.6	navigation	Trial3	navigation/STIM_000.jpg	100
1533.448	3.136	3135.8	navigation	Trial3	navigation/STIM_000.jpg	100
1539.79	2.439	2439.4	navigation	Trial3	navigation/STIM_000.jpg	100
1545.31	3.597	3596.9	navigation	Trial3	navigation/STIM_000.jpg	99
1551.776	3.234	3234.0	navigation	Trial3	navigation/STIM_000.jpg	100
1557.283	3.653	3652.8	navigation	Trial3	navigation/STIM_001.jpg	100
1563.609	3.447	3447.3	navigation	Trial3	navigation/STIM_001.jpg	99
1570.242	3.53	3530.1	navigation	Trial3	navigation/STIM_001.jpg	100
1576.909	2.172	2171.7	navigation	Trial3	navigation/STIM_001.jpg	100
1581.399	1.68	1680.1	navigation	Trial3	navigation/STIM_001.jpg	100
1585.822	3.609	3609.0	navigation	Trial3	navigation/STIM_001.jpg	99
1591.809	2.338	2338.2	navigation	Trial3	navigation/STIM_002.jpg	99
1596.804	2.859	2859.4	navigation	Trial3	navigation/STIM_002.jpg	100
1602.754	3.132	3132.4	navigation	Trial3	navigation/STIM_002.jpg	100
1609.713	3.33	3330.2	navigation	Trial3	navigation/STIM_002.jpg	99
1616.856	3.988	3987.5	navigation	Trial3	navigation/STIM_002.jpg	99
1624.613	3.663	3663.1	navigation	Trial3	navigation/STIM_002.jpg	99
1630.876	3.562	3561.8	navigation	Trial3	navigation/STIM_003.jpg	99
1637.058	2.103	2102.6	navigation	Trial3	navigation/STIM_003.jpg	100
1642.063	3.379	3378.6	navigation	Trial3	navigation/STIM_003.jpg	100
1647.983	1.632	1631.5	navigation	Trial3	navigation/STIM_003.jpg	100
1653.263	3.447	3446.8	navigation	Trial3	navigation/STIM_003.jpg	100
1660.224	1.849	1848.6	navigation	Trial3	navigation/STIM_003.jpg	99
1665.62	1.912	1911.9	navigation	Trial3	navigation/STIM_004.jpg	99
1670.992	3.012	3012.1	navigation	Trial3	navigation/STIM_004.jpg	100
1676.412	2.828	2827.9	navigation	Trial3	navigation/STIM_004.jpg	100
1681.837	2.585	2584.7	navigation	Trial3	navigation/STIM_004.jpg	99
1687.771	1.68	1679.5	navigation	Trial3	navigation/STIM_004.jpg	100
1692.181	2.709	2709.1	navigation	Trial3	navigation/STIM_004.jpg	99
1696.987	2.724	2724.1	navigation	Trial3	navigation/STIM_005.jpg	99
1701.74	3.232	3232.2	navigation	Trial3	navigation/STIM_005.jpg	100
1707.181	2.916	2916.2	navigation	Trial3	navigation/STIM_005.jpg	99
1712.422	2.141	2140.9	navigation	Trial3	navigation/STIM_005.jpg	99
1716.971	3.835	3834.7	navigation	Trial3	navigation/STIM_005.jpg	99
1722.83	2.266	2266.5	navigation	Trial3	navigation/STIM_005.jpg	99
1729.039	3.398	3398.0	navigation	Trial3	navigation/STIM_006.jpg	99
1736.286	2.508	2508.4	navigation	Trial3	navigation/STIM_006.jpg	100
1741.081	2.199	2199.2	navigation	Trial3	navigation/STIM_006.jpg	100
1746.116	2.737	2737.3	navigation	Trial3	navigation/STIM_006.jpg	100
1752.595	2.198	2197.8	navigation	Trial3	navigation/STIM_006.jpg	99
1758.336	3.902	3901.5	navigation	Trial3	navigation/STIM_006.jpg	100
1766.022	3.13	3130.3	navigation	Trial3	navigation/STIM_007.jpg	99
1772.128	2.325	2325.1	navigation	Trial3	navigation/STIM_007.jpg	100
1776.906	2.118	2117.6	navigation	Trial3	navigation/STIM_007.jpg	100
1782.523	1.676	1676.4	navigation	Trial3	navigation/STIM_007.jpg	100
1786.348	2.864	2863.6	navigation	Trial3	navigation/STIM_007.jpg	99
1792.811	2.049	2048.9	navigation	Trial3	navigation/STIM_007.jpg	99
1797.846	3.18	3179.9	navigation	Trial3	navigation/STIM_008.jpg	100
1804.04	3.949	3949.0	navigation	Trial3	navigation/STIM_008.jpg	100
1811.104	2.883	2882.6	navigation	Trial3	navigation/STIM_008.jpg	100
1817.489	3.597	3597.1	navigation	Trial3	navigation/STIM_008.jpg	99
1823.846	2.814	2814.2	navigation	Trial3	navigation/STIM_008.jpg	99
1830.235	2.53	2530.3	navigation	Trial3	navigation/STIM_008.jpg	99
1835.08	2.399	2399.1	navigation	Trial3	navigation/STIM_009.jpg	100
1840.702	1.946	1946.3	navigation	Trial3	navigation/STIM_009.jpg	100
1846.091	2.467	2466.8	navigation	Trial3	navigation/STIM_009.jpg	99
1851.103	2.23	2230.3	navigation	Trial3	navigation/STIM_009.jpg	100
1856.002	2.87	2869.5	navigation	Trial3	navigation/STIM_009.jpg	100
1861.658	3.035	3034.6	navigation	Trial3	navigation/STIM_009.jpg	99
1867.231	3.013	3012.6	navigation	Trial3	navigation/STIM_010.jpg	100
1873.384	3.611	3611.0	navigation	Trial3	navigation/STIM_010.jpg	99
1879.433	2.372	2371.6	navigation	Trial3	navigation/STIM_010.jpg	100
1884.055	2.495	2495.3	navigation	Trial3	navigation/STIM_010.jpg	99
1889.066	1.771	1770.8	navigation	Trial3	navigation/STIM_010.jpg	100
1894.758	1.942	1942.5	navigation	Trial3	navigation/STIM_010.jpg	100
1900.529	3.427	3426.7	navigation	Trial3	navigation/STIM_011.jpg	99
1906.697	3.799	3799.2	navigation	Trial3	navigation/STIM_011.jpg	99
1913.656	2.843	2842.7	navigation	Trial3	navigation/STIM_011.jpg	100
1920.008	2.184	2184.3	navigation	Trial3	navigation/STIM_011.jpg	100
1924.548	3.038	3038.2	navigation	Trial3	navigation/STIM_011.jpg	100
1930.714	3.406	3406.4	navigation	Trial3	navigation/STIM_011.jpg	100
1937.745	1.388	1387.6	pointing	Trial3	pointing/STIM_000.jpg	99
1942.358	1.576	1575.6	pointing	Trial3	pointing/STIM_000.jpg	100
1947.115	1.218	1218.1	pointing	Trial3	pointing/STIM_000.jpg	99
1951.337	1.599	1598.9	pointing	Trial3	pointing/STIM_000.jpg	99
1955.758	1.058	1057.6	pointing	Trial3	pointing/STIM_000.jpg	99
1960.681	1.338	1338.4	pointing	Trial3	pointing/STIM_000.jpg	99
1965.962	1.226	1225.9	pointing	Trial3	pointing/STIM_001.jpg	100
1969.918	1.06	1060.0	pointing	Trial3	pointing/STIM_001.jpg	100
1973.149	1.246	1245.7	pointing	Trial3	pointing/STIM_001.jpg	99
1977.12	1.582	1582.4	pointing	Trial3	pointing/STIM_001.jpg	100
1981.023	1.172	1172.5	pointing	Trial3	pointing/STIM_001.jpg	99
1984.302	1.486	1485.5	pointing	Trial3	pointing/STIM_001.jpg	100
1988.274	1.436	1435.6	pointing	Trial3	pointing/STIM_002.jpg	100
1993.207	1.219	1219.4	pointing	Trial3	pointing/STIM_002.jpg	99
1996.564	1.124	1123.6	pointing	Trial3	pointing/STIM_002.jpg	99
2001.348	1.582	1581.6	pointing	Trial3	pointing/STIM_002.jpg	99
2005.45	1.223	1222.9	pointing	Trial3	pointing/STIM_002.jpg	100
2008.955	1.476	1475.8	pointing	Trial3	pointing/STIM_002.jpg	99
2013.029	1.342	1341.7	pointing	Trial3	pointing/STIM_003.jpg	100
2017.31	1.168	1168.5	pointing	Trial3	pointing/STIM_003.jpg	99
2021.036	1.459	1459.1	pointing	Trial3	pointing/STIM_003.jpg	99
2026.105	1.427	1427.2	pointing	Trial3	pointing/STIM_003.jpg	99
2029.796	1.568	1567.8	pointing	Trial3	pointing/STIM_003.jpg	99
2033.459	1.615	1615.2	pointing	Trial3	pointing/STIM_003.jpg	99
2038.227	1.23	1229.8	pointing	Trial3	pointing/STIM_004.jpg	100
2041.92	1.229	1228.8	pointing	Trial3	pointing/STIM_004.jpg	100
2045.617	1.656	1656.3	pointing	Trial3	pointing/STIM_004.jpg	99
2051.028	1.024	1024.3	pointing	Trial3	pointing/STIM_004.jpg	99
2054.995	1.52	1519.5	pointing	Trial3	pointing/STIM_004.jpg	99
2060.105	1.15	1150.3	pointing	Trial3	pointing/STIM_004.jpg	100
2065.213	1.206	1205.9	pointing	Trial3	pointing/STIM_005.jpg	100
2068.455	1.424	1423.9	pointing	Trial3	pointing/STIM_005.jpg	99
2072.942	1.569	1569.1	pointing	Trial3	pointing/STIM_005.jpg	100
2078.457	1.677	1677.0	pointing	Trial3	pointing/STIM_005.jpg	100
2083.048	0.995	995.0	pointing	Trial3	pointing/STIM_005.jpg	99
2086.861	1.307	1307.0	pointing	Trial3	pointing/STIM_005.jpg	100
2091.032	1.172	1172.5	pointing	Trial3	pointing/STIM_006.jpg	99
2096.063	1.574	1574.5	pointing	Trial3	pointing/STIM_006.jpg	99
2100.282	1.636	1636.3	pointing	Trial3	pointing/STIM_006.jpg	99
2105.908	1.522	1522.5	pointing	Trial3	pointing/STIM_006.jpg	99
2109.826	1.243	1243.3	pointing	Trial3	pointing/STIM_006.jpg	99
2113.133	1.713	1713.3	pointing	Trial3	pointing/STIM_006.jpg	99
2118.567	1.476	1475.8	pointing	Trial3	pointing/STIM_007.jpg	99
2123.742	1.385	1385.0	pointing	Trial3	pointing/STIM_007.jpg	100
2128.776	1.286	1286.1	pointing	Trial3	pointing/STIM_007.jpg	100
2132.835	1.167	1166.7	pointing	Trial3	pointing/STIM_007.jpg	99
2136.078	1.456	1455.8	pointing	Trial3	pointing/STIM_007.jpg	99
2140.635	1.186	1185.5	pointing	Trial3	pointing/STIM_007.jpg	99
2144.665	1.049	1049.0	pointing	Trial3	pointing/STIM_008.jpg	100
2147.821	1.143	1143.2	pointing	Trial3	pointing/STIM_008.jpg	100
2152.206	1.263	1263.2	pointing	Trial3	pointing/STIM_008.jpg	99
2156.868	1.16	1160.4	pointing	Trial3	pointing/STIM_008.jpg	99
2161.904	1.223	1223.3	pointing	Trial3	pointing/STIM_008.jpg	100
2166.231	1.497	1497.3	pointing	Trial3	pointing/STIM_008.jpg	100
2169.735	1.352	1352.1	pointing	Trial3	pointing/STIM_009.jpg	100
2174.344	1.157	1157.1	pointing	Trial3	pointing/STIM_009.jpg	99
2178.329	1.316	1315.9	pointing	Trial3	pointing/STIM_009.jpg	100
2183.539	1.215	1214.9	pointing	Trial3	pointing/STIM_009.jpg	99
2187.81	1.453	1453.3	pointing	Trial3	pointing/STIM_009.jpg	100
2191.801	1.31	1310.3	pointing	Trial3	pointing/STIM_009.jpg	99
2196.545	1.027	1026.7	pointing	Trial3	pointing/STIM_010.jpg	100
2199.941	1.393	1392.8	pointing	Trial3	pointing/STIM_010.jpg	99
2204.186	1.388	1387.7	pointing	Trial3	pointing/STIM_010.jpg	100
2207.635	1.259	1259.2	pointing	Trial3	pointing/STIM_010.jpg	99
2211.299	1.072	1072.5	pointing	Trial3	pointing/STIM_010.jpg	99
2215.043	1.133	1133.3	pointing	Trial3	pointing/STIM_010.jpg	99
2218.324	1.578	1578.4	pointing	Trial3	pointing/STIM_011.jpg	99
2223.885	1.563	1563.2	pointing	Trial3	pointing/STIM_011.jpg	100
2229.03	1.127	1126.6	pointing	Trial3	pointing/STIM_011.jpg	99
2232.291	1.658	1658.1	pointing	Trial3	pointing/STIM_011.jpg	100
2236.753	0.957	956.8	pointing	Trial3	pointing/STIM_011.jpg	99
2240.082	1.64	1640.0	pointing	Trial3	pointing/STIM_011.jpg	100
