onset	duration	accuracy_binary	trial_type	learning_stage	stimulus
0.0	3.024	1	navigation	Trial1	navigation/STIM_000.jpg
7.181	3.641	1	navigation	Trial1	navigation/STIM_000.jpg
14.377	1.844	1	navigation	Trial1	navigation/STIM_000.jpg
20.08	1.832	1	navigation	Trial1	navigation/STIM_000.jpg
25.823	3.287	0	navigation	Trial1	navigation/STIM_000.jpg
33.152	2.066	1	navigation	Trial1	navigation/STIM_000.jpg
38.274	3.154	1	navigation	Trial1	navigation/STIM_001.jpg
45.083	2.726	1	navigation	Trial1	navigation/STIM_001.jpg
51.645	2.324	1	navigation	Trial1	navigation/STIM_001.jpg
57.553	3.244	1	navigation	Trial1	navigation/STIM_001.jpg
64.117	3.012	0	navigation	Trial1	navigation/STIM_001.jpg
70.419	1.768	0	navigation	Trial1	navigation/STIM_001.jpg
74.992	3.192	1	navigation	Trial1	navigation/STIM_002.jpg
82.096	3.578	0	navigation	Trial1	navigation/STIM_002.jpg
89.257	1.779	0	navigation	Trial1	navigation/STIM_002.jpg
94.028	2.781	1	navigation	Trial1	navigation/STIM_002.jpg
100.162	3.002	0	navigation	Trial1	navigation/STIM_002.jpg
106.541	1.614	1	navigation	Trial1	navigation/STIM_002.jpg
110.604	3.635	0	navigation	Trial1	navigation/STIM_003.jpg
117.538	2.1	1	navigation	Trial1	navigation/STIM_003.jpg
122.908	1.83	1	navigation	Trial1	navigation/STIM_003.jpg
128.444	3.257	1	navigation	Trial1	navigation/STIM_003.jpg
134.917	1.624	0	navigation	Trial1	navigation/STIM_003.jpg
140.267	2.799	1	navigation	Trial1	navigation/STIM_003.jpg
147.322	2.222	1	navigation	Trial1	navigation/STIM_004.jpg
152.577	3.307	0	navigation	Trial1	navigation/STIM_004.jpg
160.122	3.558	1	navigation	Trial1	navigation/STIM_004.jpg
166.962	2.828	1	navigation	Trial1	navigation/STIM_004.jpg
172.419	2.656	1	navigation	Trial1	navigation/STIM_004.jpg
179.156	2.422	1	navigation	Trial1	navigation/STIM_004.jpg
184.607	4.16	0	navigation	Trial1	navigation/STIM_005.jpg
192.553	3.389	1	navigation	Trial1	navigation/STIM_005.jpg
198.407	3.109	0	navigation	Trial1	navigation/STIM_005.jpg
204.895	1.696	1	navigation	Trial1	navigation/STIM_005.jpg
210.428	2.741	1	navigation	Trial1	navigation/STIM_005.jpg
216.545	3.251	1	navigation	Trial1	navigation/STIM_005.jpg
222.253	3.694	1	navigation	Trial1	navigation/STIM_006.jpg
230.296	2.537	0	navigation	Trial1	navigation/STIM_006.jpg
236.559	3.45	1	navigation	Trial1	navigation/STIM_006.jpg
242.827	3.456	1	navigation	Trial1	navigation/STIM_006.jpg
249.832	2.424	0	navigation	Trial1	navigation/STIM_006.jpg
254.584	1.449	1	navigation	Trial1	navigation/STIM_006.jpg
259.176	4.082	1	navigation	Trial1	navigation/STIM_007.jpg
266.754	3.489	0	navigation	Trial1	navigation/STIM_007.jpg
273.572	1.688	0	navigation	Trial1	navigation/STIM_007.jpg
277.664	3.668	0	navigation	Trial1	navigation/STIM_007.jpg
285.165	3.134	1	navigation	Trial1	navigation/STIM_007.jpg
291.632	3.011	0	navigation	Trial1	navigation/STIM_007.jpg
297.913	1.917	1	navigation	Trial1	navigation/STIM_008.jpg
302.255	3.78	1	navigation	Trial1	navigation/STIM_008.jpg
309.345	3.924	0	navigation	Trial1	navigation/STIM_008.jpg
317.291	3.019	1	navigation	Trial1	navigation/STIM_008.jpg
323.667	1.599	1	navigation	Trial1	navigation/STIM_008.jpg
327.986	3.239	1	navigation	Trial1	navigation/STIM_008.jpg
333.88	3.128	1	navigation	Trial1	navigation/STIM_009.jpg
341.023	2.359	1	navigation	Trial1	navigation/STIM_009.jpg
345.844	2.472	1	navigation	Trial1	navigation/STIM_009.jpg
351.4	3.326	1	navigation	Trial1	navigation/STIM_009.jpg
357.621	2.276	0	navigation	Trial1	navigation/STIM_009.jpg
364.093	2.185	1	navigation	Trial1	navigation/STIM_009.jpg
369.288	3.871	1	navigation	Trial1	navigation/STIM_010.jpg
377.437	1.912	1	navigation	Trial1	navigation/STIM_010.jpg
382.028	2.045	0	navigation	Trial1	navigation/STIM_010.jpg
387.008	1.797	0	navigation	Trial1	navigation/STIM_010.jpg
392.524	1.841	1	navigation	Trial1	navigation/STIM_010.jpg
396.9	1.465	1	navigation	Trial1	navigation/STIM_010.jpg
401.826	4.393	1	navigation	Trial1	navigation/STIM_011.jpg
409.916	3.677	0	navigation	Trial1	navigation/STIM_011.jpg
417.377	1.679	1	navigation	Trial1	navigation/STIM_011.jpg
421.639	2.93	1	navigation	Trial1	navigation/STIM_011.jpg
428.779	3.295	0	navigation	Trial1	navigation/STIM_011.jpg
434.663	2.175	1	navigation	Trial1	navigation/STIM_011.jpg
440.792	0.994	1	pointing	Trial1	pointing/STIM_000.jpg
444.378	1.142	1	pointing	Trial1	pointing/STIM_000.jpg
449.354	0.819	1	pointing	Trial1	pointing/STIM_000.jpg
452.361	1.104	1	pointing	Trial1	pointing/STIM_000.jpg
457.535	0.844	1	pointing	Trial1	pointing/STIM_000.jpg
461.991	0.86	1	pointing	Trial1	pointing/STIM_000.jpg
465.066	1.026	1	pointing	Trial1	pointing/STIM_001.jpg
469.657	0.738	1	pointing	Trial1	pointing/STIM_001.jpg
473.613	0.878	1	pointing	Trial1	pointing/STIM_001.jpg
477.522	1.141	1	pointing	Trial1	pointing/STIM_001.jpg
481.422	0.911	1	pointing	Trial1	pointing/STIM_001.jpg
486.042	1.178	1	pointing	Trial1	pointing/STIM_001.jpg
489.566	1.258	0	pointing	Trial1	pointing/STIM_002.jpg
493.476	1.222	1	pointing	Trial1	pointing/STIM_002.jpg
498.206	0.863	1	pointing	Trial1	pointing/STIM_002.jpg
502.933	1.134	1	pointing	Trial1	pointing/STIM_002.jpg
507.773	1.131	1	pointing	Trial1	pointing/STIM_002.jpg
511.443	1.276	1	pointing	Trial1	pointing/STIM_002.jpg
516.059	1.062	1	pointing	Trial1	pointing/STIM_003.jpg
520.96	0.888	1	pointing	Trial1	pointing/STIM_003.jpg
524.653	0.732	1	pointing	Trial1	pointing/STIM_003.jpg
529.315	1.092	1	pointing	Trial1	pointing/STIM_003.jpg
533.065	1.312	1	pointing	Trial1	pointing/STIM_003.jpg
537.583	0.783	1	pointing	Trial1	pointing/STIM_003.jpg
540.693	0.872	1	pointing	Trial1	pointing/STIM_004.jpg
544.333	1.204	1	pointing	Trial1	pointing/STIM_004.jpg
548.132	0.768	1	pointing	Trial1	pointing/STIM_004.jpg
551.302	1.018	1	pointing	Trial1	pointing/STIM_004.jpg
554.496	0.884	1	pointing	Trial1	pointing/STIM_004.jpg
558.667	1.263	1	pointing	Trial1	pointing/STIM_004.jpg
562.269	1.318	1	pointing	Trial1	pointing/STIM_005.jpg
566.665	1.181	1	pointing	Trial1	pointing/STIM_005.jpg
570.915	1.191	0	pointing	Trial1	pointing/STIM_005.jpg
574.465	0.775	0	pointing	Trial1	pointing/STIM_005.jpg
578.231	0.956	1	pointing	Trial1	pointing/STIM_005.jpg
581.353	0.769	1	pointing	Trial1	pointing/STIM_005.jpg
585.535	1.207	1	pointing	Trial1	pointing/STIM_006.jpg
589.874	0.85	1	pointing	Trial1	pointing/STIM_006.jpg
593.202	1.032	1	pointing	Trial1	pointing/STIM_006.jpg
597.155	1.034	0	pointing	Trial1	pointing/STIM_006.jpg
602.164	0.721	1	pointing	Trial1	pointing/STIM_006.jpg
606.096	1.29	1	pointing	Trial1	pointing/STIM_006.jpg
610.738	1.095	1	pointing	Trial1	pointing/STIM_007.jpg
615.793	1.112	1	pointing	Trial1	pointing/STIM_007.jpg
620.948	0.772	1	pointing	Trial1	pointing/STIM_007.jpg
625.347	1.27	1	pointing	Trial1	pointing/STIM_007.jpg
629.834	0.791	1	pointing	Trial1	pointing/STIM_007.jpg
633.182	0.794	1	pointing	Trial1	pointing/STIM_007.jpg
637.848	1.061	1	pointing	Trial1	pointing/STIM_008.jpg
642.029	0.809	1	pointing	Trial1	pointing/STIM_008.jpg
645.781	1.032	1	pointing	Trial1	pointing/STIM_008.jpg
649.202	0.755	1	pointing	Trial1	pointing/STIM_008.jpg
653.82	1.109	1	pointing	Trial1	pointing/STIM_008.jpg
658.538	1.086	1	pointing	Trial1	pointing/STIM_008.jpg
661.943	1.232	1	pointing	Trial1	pointing/STIM_009.jpg
665.532	1.143	1	pointing	Trial1	pointing/STIM_009.jpg
670.302	0.946	1	pointing	Trial1	pointing/STIM_009.jpg
673.388	0.728	1	pointing	Trial1	pointing/STIM_009.jpg
676.368	0.922	1	pointing	Trial1	pointing/STIM_009.jpg
679.949	1.148	1	pointing	Trial1	pointing/STIM_009.jpg
684.448	0.969	1	pointing	Trial1	pointing/STIM_010.jpg
688.992	1.215	1	pointing	Trial1	pointing/STIM_010.jpg
693.005	1.047	1	pointing	Trial1	pointing/STIM_010.jpg
696.435	1.096	1	pointing	Trial1	pointing/STIM_010.jpg
699.758	1.03	1	pointing	Trial1	pointing/STIM_010.jpg
704.331	0.938	1	pointing	Trial1	pointing/STIM_010.jpg
707.845	0.796	1	pointing	Trial1	pointing/STIM_011.jpg
711.974	0.921	1	pointing	Trial1	pointing/STIM_011.jpg
716.968	1.12	1	pointing	Trial1	pointing/STIM_011.jpg
720.645	1.022	1	pointing	Trial1	pointing/STIM_011.jpg
724.251	1.321	1	pointing	Trial1	pointing/STIM_011.jpg
728.337	1.185	1	pointing	Trial1	pointing/STIM_011.jpg
731.9	3.165	0	navigation	Trial2	navigation/STIM_000.jpg
738.233	3.292	0	navigation	Trial2	navigation/STIM_000.jpg
744.887	2.903	1	navigation	Trial2	navigation/STIM_000.jpg
751.485	1.754	1	navigation	Trial2	navigation/STIM_000.jpg
756.123	2.624	1	navigation	Trial2	navigation/STIM_000.jpg
762.132	1.656	1	navigation	Trial2	navigation/STIM_000.jpg
766.582	3.668	0	navigation	Trial2	navigation/STIM_001.jpg
773.086	2.601	1	navigation	Trial2	navigation/STIM_001.jpg
779.335	2.962	1	navigation	Trial2	navigation/STIM_001.jpg
786.483	2.487	1	navigation	Trial2	navigation/STIM_001.jpg
791.548	2.116	1	navigation	Trial2	navigation/STIM_001.jpg
796.841	2.515	1	navigation	Trial2	navigation/STIM_001.jpg
803.493	3.192	1	navigation	Trial2	navigation/STIM_002.jpg
810.213	2.466	1	navigation	Trial2	navigation/STIM_002.jpg
816.009	2.343	1	navigation	Trial2	navigation/STIM_002.jpg
822.354	1.557	1	navigation	Trial2	navigation/STIM_002.jpg
826.798	2.799	1	navigation	Trial2	navigation/STIM_002.jpg
833.273	1.413	1	navigation	Trial2	navigation/STIM_002.jpg
838.034	2.061	1	navigation	Trial2	navigation/STIM_003.jpg
843.266	2.406	1	navigation	Trial2	navigation/STIM_003.jpg
848.394	1.787	1	navigation	Trial2	navigation/STIM_003.jpg
853.926	2.222	1	navigation	Trial2	navigation/STIM_003.jpg
859.327	1.604	1	navigation	Trial2	navigation/STIM_003.jpg
864.182	2.146	1	navigation	Trial2	navigation/STIM_003.jpg
870.491	2.389	1	navigation	Trial2	navigation/STIM_004.jpg
876.321	2.726	1	navigation	Trial2	navigation/STIM_004.jpg
882.875	1.443	1	navigation	Trial2	navigation/STIM_004.jpg
888.221	2.019	1	navigation	Trial2	navigation/STIM_004.jpg
893.275	2.229	1	navigation	Trial2	navigation/STIM_004.jpg
898.99	2.408	1	navigation	Trial2	navigation/STIM_004.jpg
905.05	1.617	0	navigation	Trial2	navigation/STIM_005.jpg
909.794	2.069	1	navigation	Trial2	navigation/STIM_005.jpg
914.988	1.903	1	navigation	Trial2	navigation/STIM_005.jpg
919.635	1.298	1	navigation	Trial2	navigation/STIM_005.jpg
923.316	1.346	1	navigation	Trial2	navigation/STIM_005.jpg
928.129	2.818	1	navigation	Trial2	navigation/STIM_005.jpg
934.901	1.575	1	navigation	Trial2	navigation/STIM_006.jpg
939.065	2.759	1	navigation	Trial2	navigation/STIM_006.jpg
945.121	2.247	1	navigation	Trial2	navigation/STIM_006.jpg
951.007	3.049	1	navigation	Trial2	navigation/STIM_006.jpg
957.672	2.893	1	navigation	Trial2	navigation/STIM_006.jpg
964.747	2.92	1	navigation	Trial2	navigation/STIM_006.jpg
971.064	2.731	0	navigation	Trial2	navigation/STIM_007.jpg
977.673	3.285	1	navigation	Trial2	navigation/STIM_007.jpg
984.21	3.068	1	navigation	Trial2	navigation/STIM_007.jpg
990.474	2.791	1	navigation	Trial2	navigation/STIM_007.jpg
997.379	2.535	1	navigation	Trial2	navigation/STIM_007.jpg
1003.316	1.858	1	navigation	Trial2	navigation/STIM_007.jpg
1008.049	2.108	0	navigation	Trial2	navigation/STIM_008.jpg
1012.788	1.962	1	navigation	Trial2	navigation/STIM_008.jpg
1017.739	1.564	1	navigation	Trial2	navigation/STIM_008.jpg
1023.005	2.792	1	navigation	Trial2	navigation/STIM_008.jpg
1028.89	2.842	1	navigation	Trial2	navigation/STIM_008.jpg
1035.147	2.278	1	navigation	Trial2	navigation/STIM_008.jpg
1040.485	1.834	1	navigation	Trial2	navigation/STIM_009.jpg
1044.714	1.473	1	navigation	Trial2	navigation/STIM_009.jpg
1049.796	2.263	0	navigation	Trial2	navigation/STIM_009.jpg
1056.298	1.999	1	navigation	Trial2	navigation/STIM_009.jpg
1060.962	1.78	1	navigation	Trial2	navigation/STIM_009.jpg
1065.673	1.936	1	navigation	Trial2	navigation/STIM_009.jpg
1070.249	1.53	1	navigation	Trial2	navigation/STIM_010.jpg
1074.511	2.732	1	navigation	Trial2	navigation/STIM_010.jpg
1080.987	2.831	1	navigation	Trial2	navigation/STIM_010.jpg
1087.305	2.297	1	navigation	Trial2	navigation/STIM_010.jpg
1093.415	2.858	1	navigation	Trial2	navigation/STIM_010.jpg
1098.921	2.256	0	navigation	Trial2	navigation/STIM_010.jpg
1104.579	1.635	0	navigation	Trial2	navigation/STIM_011.jpg
1109.731	2.567	1	navigation	Trial2	navigation/STIM_011.jpg
1116.208	2.664	1	navigation	Trial2	navigation/STIM_011.jpg
1121.736	1.295	1	navigation	Trial2	navigation/STIM_011.jpg
1126.868	1.658	1	navigation	Trial2	navigation/STIM_011.jpg
1131.087	1.256	1	navigation	Trial2	navigation/STIM_011.jpg
1136.373	0.881	1	pointing	Trial2	pointing/STIM_000.jpg
1139.736	0.872	1	pointing	Trial2	pointing/STIM_000.jpg
1144.013	1.273	1	pointing	Trial2	pointing/STIM_000.jpg
1148.487	0.933	1	pointing	Trial2	pointing/STIM_000.jpg
1151.717	1.129	1	pointing	Trial2	pointing/STIM_000.jpg
1156.971	1.256	1	pointing	Trial2	pointing/STIM_000.jpg
1161.794	1.256	1	pointing	Trial2	pointing/STIM_001.jpg
1165.994	1.294	1	pointing	Trial2	pointing/STIM_001.jpg
1170.211	0.94	1	pointing	Trial2	pointing/STIM_001.jpg
1174.787	1.222	1	pointing	Trial2	pointing/STIM_001.jpg
1179.492	0.922	1	pointing	Trial2	pointing/STIM_001.jpg
1182.713	0.736	1	pointing	Trial2	pointing/STIM_001.jpg
1186.025	1.148	1	pointing	Trial2	pointing/STIM_002.jpg
1190.948	1.242	1	pointing	Trial2	pointing/STIM_002.jpg
1194.772	1.216	1	pointing	Trial2	pointing/STIM_002.jpg
1198.526	0.782	1	pointing	Trial2	pointing/STIM_002.jpg
1202.68	0.728	0	pointing	Trial2	pointing/STIM_002.jpg
1205.941	1.123	1	pointing	Trial2	pointing/STIM_002.jpg
1210.549	0.98	1	pointing	Trial2	pointing/STIM_003.jpg
1215.387	0.908	1	pointing	Trial2	pointing/STIM_003.jpg
1220.041	0.729	1	pointing	Trial2	pointing/STIM_003.jpg
1223.611	1.051	1	pointing	Trial2	pointing/STIM_003.jpg
1228.511	0.959	1	pointing	Trial2	pointing/STIM_003.jpg
1232.08	1.149	1	pointing	Trial2	pointing/STIM_003.jpg
1237.192	0.842	1	pointing	Trial2	pointing/STIM_004.jpg
1241.173	0.853	1	pointing	Trial2	pointing/STIM_004.jpg
1244.815	0.761	1	pointing	Trial2	pointing/STIM_004.jpg
1248.172	0.84	1	pointing	Trial2	pointing/STIM_004.jpg
1253.125	0.86	1	pointing	Trial2	pointing/STIM_004.jpg
1257.935	0.724	1	pointing	Trial2	pointing/STIM_004.jpg
1261.406	1.23	1	pointing	Trial2	pointing/STIM_005.jpg
1266.08	1.24	1	pointing	Trial2	pointing/STIM_005.jpg
1270.544	1.256	0	pointing	Trial2	pointing/STIM_005.jpg
1274.366	0.943	1	pointing	Trial2	pointing/STIM_005.jpg
1278.854	0.83	1	pointing	Trial2	pointing/STIM_005.jpg
1282.597	1.275	1	pointing	Trial2	pointing/STIM_005.jpg
1287.347	1.269	1	pointing	Trial2	pointing/STIM_006.jpg
1292.394	1.135	1	pointing	Trial2	pointing/STIM_006.jpg
1297.311	1.318	1	pointing	Trial2	pointing/STIM_006.jpg
1301.887	1.219	1	pointing	Trial2	pointing/STIM_006.jpg
1306.077	1.281	1	pointing	Trial2	pointing/STIM_006.jpg
1310.784	1.034	1	pointing	Trial2	pointing/STIM_006.jpg
1314.845	1.194	0	pointing	Trial2	pointing/STIM_007.jpg
1319.024	0.899	1	pointing	Trial2	pointing/STIM_007.jpg
1323.522	1.095	0	pointing	Trial2	pointing/STIM_007.jpg
1327.953	1.066	1	pointing	Trial2	pointing/STIM_007.jpg
1331.538	0.758	1	pointing	Trial2	pointing/STIM_007.jpg
1335.631	1.081	1	pointing	Trial2	pointing/STIM_007.jpg
1339.439	0.807	1	pointing	Trial2	pointing/STIM_008.jpg
1343.024	1.159	1	pointing	Trial2	pointing/STIM_008.jpg
1346.342	0.869	1	pointing	Trial2	pointing/STIM_008.jpg
1349.775	0.728	1	pointing	Trial2	pointing/STIM_008.jpg
1353.751	1.283	1	pointing	Trial2	pointing/STIM_008.jpg
1358.463	1.217	1	pointing	Trial2	pointing/STIM_008.jpg
1363.29	0.744	1	pointing	Trial2	pointing/STIM_009.jpg
1367.127	0.829	1	pointing	Trial2	pointing/STIM_009.jpg
1370.269	1.036	1	pointing	Trial2	pointing/STIM_009.jpg
1373.826	0.835	1	pointing	Trial2	pointing/STIM_009.jpg
1377.834	0.772	1	pointing	Trial2	pointing/STIM_009.jpg
1380.974	0.954	1	pointing	Trial2	pointing/STIM_009.jpg
1385.988	1.214	1	pointing	Trial2	pointing/STIM_010.jpg
1389.703	1.026	1	pointing	Trial2	pointing/STIM_010.jpg
1394.792	0.813	1	pointing	Trial2	pointing/STIM_010.jpg
1399.603	1.22	1	pointing	Trial2	pointing/STIM_010.jpg
1404.374	0.904	1	pointing	Trial2	pointing/STIM_010.jpg
1407.652	1.095	1	pointing	Trial2	pointing/STIM_010.jpg
1411.219	1.045	1	pointing	Trial2	pointing/STIM_011.jpg
1414.474	1.18	1	pointing	Trial2	pointing/STIM_011.jpg
1418.01	0.978	1	pointing	Trial2	pointing/STIM_011.jpg
1421.961	1.145	1	pointing	Trial2	pointing/STIM_011.jpg
1425.659	1.159	1	pointing	Trial2	pointing/STIM_011.jpg
1429.692	0.791	1	pointing	Trial2	pointing/STIM_011.jpg
1433.536	2.639	1	navigation	Trial3	navigation/STIM_000.jpg
1439.103	1.889	1	navigation	Trial3	navigation/STIM_000.jpg
1444.256	2.254	1	navigation	Trial3	navigation/STIM_000.jpg
1449.461	2.754	1	navigation	Trial3	navigation/STIM_000.jpg
1456.575	1.677	1	navigation	Trial3	navigation/STIM_000.jpg
1461.071	2.385	1	navigation	Trial3	navigation/STIM_000.jpg
1466.339	2.162	1	navigation	Trial3	navigation/STIM_001.jpg
1471.573	2.723	0	navigation	Trial3	navigation/STIM_001.jpg
1477.339	2.621	1	navigation	Trial3	navigation/STIM_001.jpg
1483.403	2.511	1	navigation	Trial3	navigation/STIM_001.jpg
1489.492	1.518	1	navigation	Trial3	navigation/STIM_001.jpg
1495.213	2.166	1	navigation	Trial3	navigation/STIM_001.jpg
1501.052	1.866	1	navigation	Trial3	navigation/STIM_002.jpg
1505.631	1.426	1	navigation	Trial3	navigation/STIM_002.jpg
1510.627	2.847	1	navigation	Trial3	navigation/STIM_002.jpg
1516.051	2.638	1	navigation	Trial3	navigation/STIM_002.jpg
1522.899	2.383	0	navigation	Trial3	navigation/STIM_002.jpg
1528.856	1.329	1	navigation	Trial3	navigation/STIM_002.jpg
1533.453	2.158	1	navigation	Trial3	navigation/STIM_003.jpg
1539.889	2.726	1	navigation	Trial3	navigation/STIM_003.jpg
1545.167	2.351	1	navigation	Trial3	navigation/STIM_003.jpg
1551.021	1.581	1	navigation	Trial3	navigation/STIM_003.jpg
1554.922	2.665	1	navigation	Trial3	navigation/STIM_003.jpg
1561.463	2.425	0	navigation	Trial3	navigation/STIM_003.jpg
1566.985	2.805	1	navigation	Trial3	navigation/STIM_004.jpg
1572.348	2.163	1	navigation	Trial3	navigation/STIM_004.jpg
1578.275	1.273	1	navigation	Trial3	navigation/STIM_004.jpg
1583.626	1.983	1	navigation	Trial3	navigation/STIM_004.jpg
1589.433	2.741	1	navigation	Trial3	navigation/STIM_004.jpg
1594.822	1.893	1	navigation	Trial3	navigation/STIM_004.jpg
1599.83	1.581	1	navigation	Trial3	navigation/STIM_005.jpg
1605.45	2.41	1	navigation	Trial3	navigation/STIM_005.jpg
1610.644	1.518	1	navigation	Trial3	navigation/STIM_005.jpg
1616.119	2.415	1	navigation	Trial3	navigation/STIM_005.jpg
1621.278	2.452	1	navigation	Trial3	navigation/STIM_005.jpg
1628.012	3.03	1	navigation	Trial3	navigation/STIM_005.jpg
1634.53	2.49	1	navigation	Trial3	navigation/STIM_006.jpg
1641.354	1.917	0	navigation	Trial3	navigation/STIM_006.jpg
1647.168	2.709	1	navigation	Trial3	navigation/STIM_006.jpg
1652.624	1.678	1	navigation	Trial3	navigation/STIM_006.jpg
1657.374	1.997	1	navigation	Trial3	navigation/STIM_006.jpg
1663.0	1.756	1	navigation	Trial3	navigation/STIM_006.jpg
1668.412	2.199	1	navigation	Trial3	navigation/STIM_007.jpg
1673.927	2.48	1	navigation	Trial3	navigation/STIM_007.jpg
1678.853	2.168	1	navigation	Trial3	navigation/STIM_007.jpg
1684.12	1.964	1	navigation	Trial3	navigation/STIM_007.jpg
1690.07	1.492	1	navigation	Trial3	navigation/STIM_007.jpg
1695.713	2.547	1	navigation	Trial3	navigation/STIM_007.jpg
1702.603	1.571	0	navigation	Trial3	navigation/STIM_008.jpg
1706.577	1.285	1	navigation	Trial3	navigation/STIM_008.jpg
1710.42	1.947	1	navigation	Trial3	navigation/STIM_008.jpg
1716.515	2.345	1	navigation	Trial3	navigation/STIM_008.jpg
1721.374	1.624	1	navigation	Trial3	navigation/STIM_008.jpg
1725.454	2.312	1	navigation	Trial3	navigation/STIM_008.jpg
1731.775	1.717	1	navigation	Trial3	navigation/STIM_009.jpg
1736.044	2.962	1	navigation	Trial3	navigation/STIM_009.jpg
1742.134	1.875	1	navigation	Trial3	navigation/STIM_009.jpg
1747.233	2.874	1	navigation	Trial3	navigation/STIM_009.jpg
1753.203	2.509	1	navigation	Trial3	navigation/STIM_009.jpg
1759.053	2.991	1	navigation	Trial3	navigation/STIM_009.jpg
1765.465	1.925	1	navigation	Trial3	navigation/STIM_010.jpg
1769.726	2.45	1	navigation	Trial3	navigation/STIM_010.jpg
1775.256	1.581	1	navigation	Trial3	navigation/STIM_010.jpg
1779.087	2.364	1	navigation	Trial3	navigation/STIM_010.jpg
1785.174	2.17	1	navigation	Trial3	navigation/STIM_010.jpg
1791.139	2.215	1	navigation	Trial3	navigation/STIM_010.jpg
1797.115	2.754	0	navigation	Trial3	navigation/STIM_011.jpg
1803.755	2.268	1	navigation	Trial3	navigation/STIM_011.jpg
1809.254	1.99	1	navigation	Trial3	navigation/STIM_011.jpg
1814.203	2.191	1	navigation	Trial3	navigation/STIM_011.jpg
1820.637	3.058	1	navigation	Trial3	navigation/STIM_011.jpg
1827.724	2.116	1	navigation	Trial3	navigation/STIM_011.jpg
1832.496	0.754	1	pointing	Trial3	pointing/STIM_000.jpg
1836.774	1.041	1	pointing	Trial3	pointing/STIM_000.jpg
1840.001	0.715	1	pointing	Trial3	pointing/STIM_000.jpg
1844.065	1.274	1	pointing	Trial3	pointing/STIM_000.jpg
1848.072	0.763	1	pointing	Trial3	pointing/STIM_000.jpg
1852.299	0.951	1	pointing	Trial3	pointing/STIM_000.jpg
1856.881	1.168	1	pointing	Trial3	pointing/STIM_001.jpg
1861.298	1.002	1	pointing	Trial3	pointing/STIM_001.jpg
1865.667	0.9	1	pointing	Trial3	pointing/STIM_001.jpg
1869.889	0.964	1	pointing	Trial3	pointing/STIM_001.jpg
1874.136	1.059	1	pointing	Trial3	pointing/STIM_001.jpg
1878.693	1.193	0	pointing	Trial3	pointing/STIM_001.jpg
1882.389	1.089	0	pointing	Trial3	pointing/STIM_002.jpg
1886.243	0.996	1	pointing	Trial3	pointing/STIM_002.jpg
1891.258	1.007	1	pointing	Trial3	pointing/STIM_002.jpg
1895.001	1.134	1	pointing	Trial3	pointing/STIM_002.jpg
1899.32	0.733	1	pointing	Trial3	pointing/STIM_002.jpg
1902.341	1.108	0	pointing	Trial3	pointing/STIM_002.jpg
1905.85	0.841	1	pointing	Trial3	pointing/STIM_003.jpg
1909.186	0.732	1	pointing	Trial3	pointing/STIM_003.jpg
1913.887	1.14	0	pointing	Trial3	pointing/STIM_003.jpg
1918.688	0.813	1	pointing	Trial3	pointing/STIM_003.jpg
1923.05	1.282	1	pointing	Trial3	pointing/STIM_003.jpg
1928.059	1.059	1	pointing	Trial3	pointing/STIM_003.jpg
1932.009	1.283	0	pointing	Trial3	pointing/STIM_004.jpg
1936.94	0.909	1	pointing	Trial3	pointing/STIM_004.jpg
1940.434	1.134	1	pointing	Trial3	pointing/STIM_004.jpg
1943.799	1.102	1	pointing	Trial3	pointing/STIM_004.jpg
1948.119	0.739	1	pointing	Trial3	pointing/STIM_004.jpg
1951.637	1.142	1	pointing	Trial3	pointing/STIM_004.jpg
1955.998	1.01	1	pointing	Trial3	pointing/STIM_005.jpg
1959.738	0.965	1	pointing	Trial3	pointing/STIM_005.jpg
1964.505	1.2	1	pointing	Trial3	pointing/STIM_005.jpg
1968.832	0.78	0	pointing	Trial3	pointing/STIM_005.jpg
1972.842	0.749	1	pointing	Trial3	pointing/STIM_005.jpg
1976.356	1.256	1	pointing	Trial3	pointing/STIM_005.jpg
1980.646	1.319	1	pointing	Trial3	pointing/STIM_006.jpg
1985.347	1.121	1	pointing	Trial3	pointing/STIM_006.jpg
1990.547	0.943	1	pointing	Trial3	pointing/STIM_006.jpg
1994.192	0.856	1	pointing	Trial3	pointing/STIM_006.jpg
1999.159	1.151	1	pointing	Trial3	pointing/STIM_006.jpg
2004.072	1.139	1	pointing	Trial3	pointing/STIM_006.jpg
2008.773	1.047	1	pointing	Trial3	pointing/STIM_007.jpg
2012.261	1.112	1	pointing	Trial3	pointing/STIM_007.jpg
2015.732	1.315	1	pointing	Trial3	pointing/STIM_007.jpg
2020.601	1.119	1	pointing	Trial3	pointing/STIM_007.jpg
2024.457	1.1	0	pointing	Trial3	pointing/STIM_007.jpg
2028.46	1.268	1	pointing	Trial3	pointing/STIM_007.jpg
2032.863	1.07	1	pointing	Trial3	pointing/STIM_008.jpg
2037.12	0.859	1	pointing	Trial3	pointing/STIM_008.jpg
2040.71	0.886	1	pointing	Trial3	pointing/STIM_008.jpg
2043.822	1.262	1	pointing	Trial3	pointing/STIM_008.jpg
2047.551	0.897	1	pointing	Trial3	pointing/STIM_008.jpg
2051.338	1.103	1	pointing	Trial3	pointing/STIM_008.jpg
2055.391	1.285	1	pointing	Trial3	pointing/STIM_009.jpg
2060.772	1.099	1	pointing	Trial3	pointing/STIM_009.jpg
2065.33	0.814	1	pointing	Trial3	pointing/STIM_009.jpg
2068.315	1.192	1	pointing	Trial3	pointing/STIM_009.jpg
2073.119	1.183	1	pointing	Trial3	pointing/STIM_009.jpg
2077.897	0.705	1	pointing	Trial3	pointing/STIM_009.jpg
2081.914	1.231	1	pointing	Trial3	pointing/STIM_010.jpg
2086.476	1.042	1	pointing	Trial3	pointing/STIM_010.jpg
2091.289	1.261	1	pointing	Trial3	pointing/STIM_010.jpg
2095.121	0.888	0	pointing	Trial3	pointing/STIM_010.jpg
2100.112	0.82	1	pointing	Trial3	pointing/STIM_010.jpg
2103.576	0.947	1	pointing	Trial3	pointing/STIM_010.jpg
2108.196	1.244	1	pointing	Trial3	pointing/STIM_011.jpg
2112.647	0.884	1	pointing	Trial3	pointing/STIM_011.jpg
2115.881	0.725	1	pointing	Trial3	pointing/STIM_011.jpg
2119.963	0.85	1	pointing	Trial3	pointing/STIM_011.jpg
2123.198	0.864	1	pointing	Trial3	pointing/STIM_011.jpg
2126.765	1.126	0	pointing	Trial3	pointing/STIM_011.jpg
