onset	duration	accuracy	trial_type	learning_stage	stimulus
0.0	1.287	incorrect	regulate	Run1	regulate/STIM_000.jpg
4.917	2.508	incorrect	regulate	Run1	regulate/STIM_000.jpg
10.024	2.054	correct	regulate	Run1	regulate/STIM_000.jpg
15.261	2.121	correct	regulate	Run1	regulate/STIM_000.jpg
20.049	1.932	incorrect	regulate	Run1	regulate/STIM_001.jpg
25.334	1.642	incorrect	regulate	Run1	regulate/STIM_001.jpg
30.475	1.581	correct	regulate	Run1	regulate/STIM_001.jpg
35.185	1.03	correct	regulate	Run1	regulate/STIM_001.jpg
39.693	1.257	correct	regulate	Run1	regulate/STIM_002.jpg
43.617	2.266	correct	regulate	Run1	regulate/STIM_002.jpg
48.985	1.815	incorrect	regulate	Run1	regulate/STIM_002.jpg
54.031	1.223	correct	regulate	Run1	regulate/STIM_002.jpg
58.219	1.942	correct	regulate	Run1	regulate/STIM_003.jpg
63.6	2.181	incorrect	regulate	Run1	regulate/STIM_003.jpg
68.817	2.332	correct	regulate	Run1	regulate/STIM_003.jpg
75.142	1.55	incorrect	regulate	Run1	regulate/STIM_003.jpg
78.88	1.328	incorrect	regulate	Run1	regulate/STIM_004.jpg
82.803	2.012	correct	regulate	Run1	regulate/STIM_004.jpg
87.759	1.093	correct	regulate	Run1	regulate/STIM_004.jpg
92.197	2.165	incorrect	regulate	Run1	regulate/STIM_004.jpg
97.572	2.06	incorrect	regulate	Run1	regulate/STIM_005.jpg
102.065	1.513	incorrect	regulate	Run1	regulate/STIM_005.jpg
106.068	2.213	correct	regulate	Run1	regulate/STIM_005.jpg
110.708	2.098	incorrect	regulate	Run1	regulate/STIM_005.jpg
115.295	1.448	correct	regulate	Run1	regulate/STIM_006.jpg
119.156	1.871	incorrect	regulate	Run1	regulate/STIM_006.jpg
123.67	1.589	correct	regulate	Run1	regulate/STIM_006.jpg
127.725	1.04	correct	regulate	Run1	regulate/STIM_006.jpg
132.751	2.049	incorrect	regulate	Run1	regulate/STIM_007.jpg
137.569	1.394	incorrect	regulate	Run1	regulate/STIM_007.jpg
142.597	2.225	incorrect	regulate	Run1	regulate/STIM_007.jpg
147.859	1.414	incorrect	regulate	Run1	regulate/STIM_007.jpg
151.453	2.326	correct	regulate	Run1	regulate/STIM_008.jpg
156.116	1.303	correct	regulate	Run1	regulate/STIM_008.jpg
161.343	1.923	correct	regulate	Run1	regulate/STIM_008.jpg
167.256	1.849	correct	regulate	Run1	regulate/STIM_008.jpg
172.05	2.247	correct	regulate	Run1	regulate/STIM_009.jpg
176.433	1.447	incorrect	regulate	Run1	regulate/STIM_009.jpg
180.267	2.259	incorrect	regulate	Run1	regulate/STIM_009.jpg
184.633	1.728	correct	regulate	Run1	regulate/STIM_009.jpg
188.89	2.34	incorrect	regulate	Run1	regulate/STIM_010.jpg
194.333	2.034	incorrect	regulate	Run1	regulate/STIM_010.jpg
199.586	1.72	incorrect	regulate	Run1	regulate/STIM_010.jpg
205.236	1.878	correct	regulate	Run1	regulate/STIM_010.jpg
209.655	2.283	incorrect	regulate	Run1	regulate/STIM_011.jpg
215.479	1.711	correct	regulate	Run1	regulate/STIM_011.jpg
219.33	1.217	incorrect	regulate	Run1	regulate/STIM_011.jpg
224.361	1.311	correct	regulate	Run1	regulate/STIM_011.jpg
229.094	1.853	correct	regulate	Run1	regulate/STIM_012.jpg
234.652	1.941	correct	regulate	Run1	regulate/STIM_012.jpg
238.974	1.327	incorrect	regulate	Run1	regulate/STIM_012.jpg
242.569	1.403	incorrect	regulate	Run1	regulate/STIM_012.jpg
246.697	1.718	correct	regulate	Run1	regulate/STIM_013.jpg
251.323	2.042	correct	regulate	Run1	regulate/STIM_013.jpg
256.866	1.866	correct	regulate	Run1	regulate/STIM_013.jpg
260.925	2.167	correct	regulate	Run1	regulate/STIM_013.jpg
266.237	1.895	correct	regulate	Run1	regulate/STIM_014.jpg
271.33	1.576	correct	regulate	Run1	regulate/STIM_014.jpg
275.166	1.758	correct	regulate	Run1	regulate/STIM_014.jpg
280.788	1.796	incorrect	regulate	Run1	regulate/STIM_014.jpg
285.487	2.612	incorrect	regulate	Run1	regulate/STIM_015.jpg
290.691	1.563	correct	regulate	Run1	regulate/STIM_015.jpg
294.291	2.153	correct	regulate	Run1	regulate/STIM_015.jpg
299.297	1.746	correct	regulate	Run1	regulate/STIM_015.jpg
305.015	2.095	correct	regulate	Run1	regulate/STIM_016.jpg
310.876	2.081	correct	regulate	Run1	regulate/STIM_016.jpg
316.211	2.366	incorrect	regulate	Run1	regulate/STIM_016.jpg
320.646	1.501	correct	regulate	Run1	regulate/STIM_016.jpg
325.537	1.849	correct	regulate	Run1	regulate/STIM_017.jpg
331.013	1.829	correct	regulate	Run1	regulate/STIM_017.jpg
335.167	2.244	correct	regulate	Run1	regulate/STIM_017.jpg
341.021	1.081	correct	regulate	Run1	regulate/STIM_017.jpg
344.328	2.628	correct	regulate	Run1	regulate/STIM_018.jpg
350.771	1.636	incorrect	regulate	Run1	regulate/STIM_018.jpg
355.244	1.38	correct	regulate	Run1	regulate/STIM_018.jpg
360.294	1.273	incorrect	regulate	Run1	regulate/STIM_018.jpg
363.923	2.563	correct	regulate	Run1	regulate/STIM_019.jpg
370.359	1.793	correct	regulate	Run1	regulate/STIM_019.jpg
374.435	1.465	correct	regulate	Run1	regulate/STIM_019.jpg
378.995	1.56	correct	regulate	Run1	regulate/STIM_019.jpg
383.959	2.145	incorrect	regulate	Run1	regulate/STIM_020.jpg
389.024	1.821	incorrect	regulate	Run1	regulate/STIM_020.jpg
394.682	1.22	incorrect	regulate	Run1	regulate/STIM_020.jpg
399.215	1.709	correct	regulate	Run1	regulate/STIM_020.jpg
403.001	1.878	correct	regulate	Run1	regulate/STIM_021.jpg
408.372	1.46	incorrect	regulate	Run1	regulate/STIM_021.jpg
413.648	1.266	correct	regulate	Run1	regulate/STIM_021.jpg
418.679	1.647	incorrect	regulate	Run1	regulate/STIM_021.jpg
423.614	2.411	incorrect	regulate	Run1	regulate/STIM_022.jpg
429.96	2.288	incorrect	regulate	Run1	regulate/STIM_022.jpg
435.356	2.083	incorrect	regulate	Run1	regulate/STIM_022.jpg
440.789	1.709	correct	regulate	Run1	regulate/STIM_022.jpg
444.629	2.622	incorrect	regulate	Run1	regulate/STIM_023.jpg
449.895	2.172	correct	regulate	Run1	regulate/STIM_023.jpg
454.899	1.571	correct	regulate	Run1	regulate/STIM_023.jpg
459.166	1.414	correct	regulate	Run1	regulate/STIM_023.jpg
463.537	1.961	correct	regulate	Run1	regulate/STIM_024.jpg
469.0	2.198	incorrect	regulate	Run1	regulate/STIM_024.jpg
474.412	1.784	incorrect	regulate	Run1	regulate/STIM_024.jpg
479.084	2.073	correct	regulate	Run1	regulate/STIM_024.jpg
483.184	2.165	incorrect	regulate	Run1	regulate/STIM_025.jpg
487.408	1.374	correct	regulate	Run1	regulate/STIM_025.jpg
492.062	1.82	incorrect	regulate	Run1	regulate/STIM_025.jpg
496.93	2.182	correct	regulate	Run1	regulate/STIM_025.jpg
502.868	2.582	correct	regulate	Run1	regulate/STIM_026.jpg
509.064	2.353	correct	regulate	Run1	regulate/STIM_026.jpg
515.169	1.384	correct	regulate	Run1	regulate/STIM_026.jpg
519.778	1.064	incorrect	regulate	Run1	regulate/STIM_026.jpg
523.628	1.926	incorrect	regulate	Run1	regulate/STIM_027.jpg
529.324	2.478	incorrect	regulate	Run1	regulate/STIM_027.jpg
533.948	1.481	incorrect	regulate	Run1	regulate/STIM_027.jpg
538.289	1.093	incorrect	regulate	Run1	regulate/STIM_027.jpg
542.132	1.793	incorrect	regulate	Run1	regulate/STIM_028.jpg
547.084	1.495	incorrect	regulate	Run1	regulate/STIM_028.jpg
551.229	2.253	correct	regulate	Run1	regulate/STIM_028.jpg
555.639	1.622	correct	regulate	Run1	regulate/STIM_028.jpg
560.997	1.653	incorrect	regulate	Run1	regulate/STIM_029.jpg
565.659	1.095	incorrect	regulate	Run1	regulate/STIM_029.jpg
568.813	1.286	correct	regulate	Run1	regulate/STIM_029.jpg
572.841	2.037	correct	regulate	Run1	regulate/STIM_029.jpg
578.536	0.924	incorrect	observe	Run1	observe/STIM_000.jpg
582.919	0.681	incorrect	observe	Run1	observe/STIM_000.jpg
586.993	0.701	incorrect	observe	Run1	observe/STIM_000.jpg
590.059	0.987	correct	observe	Run1	observe/STIM_000.jpg
593.765	0.637	incorrect	observe	Run1	observe/STIM_001.jpg
597.949	0.727	correct	observe	Run1	observe/STIM_001.jpg
601.072	1.043	correct	observe	Run1	observe/STIM_001.jpg
605.489	0.762	incorrect	observe	Run1	observe/STIM_001.jpg
608.526	0.83	correct	observe	Run1	observe/STIM_002.jpg
611.931	1.014	incorrect	observe	Run1	observe/STIM_002.jpg
616.643	0.839	incorrect	observe	Run1	observe/STIM_002.jpg
620.805	0.837	correct	observe	Run1	observe/STIM_002.jpg
625.184	1.169	correct	observe	Run1	observe/STIM_003.jpg
629.243	0.841	correct	observe	Run1	observe/STIM_003.jpg
633.221	0.771	correct	observe	Run1	observe/STIM_003.jpg
636.2	0.975	incorrect	observe	Run1	observe/STIM_003.jpg
640.34	0.658	correct	observe	Run1	observe/STIM_004.jpg
643.611	1.021	correct	observe	Run1	observe/STIM_004.jpg
648.057	1.153	correct	observe	Run1	observe/STIM_004.jpg
651.556	0.916	correct	observe	Run1	observe/STIM_004.jpg
656.466	0.677	incorrect	observe	Run1	observe/STIM_005.jpg
660.228	1.076	correct	observe	Run1	observe/STIM_005.jpg
663.543	1.06	correct	observe	Run1	observe/STIM_005.jpg
667.892	1.213	correct	observe	Run1	observe/STIM_005.jpg
672.46	0.705	correct	observe	Run1	observe/STIM_006.jpg
675.941	1.102	incorrect	observe	Run1	observe/STIM_006.jpg
679.956	1.204	incorrect	observe	Run1	observe/STIM_006.jpg
684.007	0.926	incorrect	observe	Run1	observe/STIM_006.jpg
688.078	1.005	incorrect	observe	Run1	observe/STIM_007.jpg
692.655	1.108	correct	observe	Run1	observe/STIM_007.jpg
697.281	1.138	correct	observe	Run1	observe/STIM_007.jpg
701.751	1.006	correct	observe	Run1	observe/STIM_007.jpg
706.492	0.733	correct	observe	Run1	observe/STIM_008.jpg
710.098	0.703	correct	observe	Run1	observe/STIM_008.jpg
714.03	1.059	correct	observe	Run1	observe/STIM_008.jpg
719.073	1.026	correct	observe	Run1	observe/STIM_008.jpg
722.117	0.91	incorrect	observe	Run1	observe/STIM_009.jpg
726.609	0.766	correct	observe	Run1	observe/STIM_009.jpg
731.047	0.888	correct	observe	Run1	observe/STIM_009.jpg
734.166	1.191	incorrect	observe	Run1	observe/STIM_009.jpg
738.058	0.708	correct	observe	Run1	observe/STIM_010.jpg
741.293	0.72	correct	observe	Run1	observe/STIM_010.jpg
744.454	1.13	incorrect	observe	Run1	observe/STIM_010.jpg
747.672	0.736	correct	observe	Run1	observe/STIM_010.jpg
751.357	0.978	correct	observe	Run1	observe/STIM_011.jpg
756.111	1.096	correct	observe	Run1	observe/STIM_011.jpg
760.268	1.035	correct	observe	Run1	observe/STIM_011.jpg
764.674	0.913	incorrect	observe	Run1	observe/STIM_011.jpg
768.898	0.93	correct	observe	Run1	observe/STIM_012.jpg
773.807	0.937	correct	observe	Run1	observe/STIM_012.jpg
778.06	1.009	correct	observe	Run1	observe/STIM_012.jpg
781.289	1.073	incorrect	observe	Run1	observe/STIM_012.jpg
785.586	0.876	correct	observe	Run1	observe/STIM_013.jpg
790.122	0.635	incorrect	observe	Run1	observe/STIM_013.jpg
793.192	1.159	correct	observe	Run1	observe/STIM_013.jpg
797.952	1.152	incorrect	observe	Run1	observe/STIM_013.jpg
801.354	1.128	correct	observe	Run1	observe/STIM_014.jpg
805.616	0.633	incorrect	observe	Run1	observe/STIM_014.jpg
808.612	0.609	incorrect	observe	Run1	observe/STIM_014.jpg
812.201	1.027	incorrect	observe	Run1	observe/STIM_014.jpg
816.949	0.609	correct	observe	Run1	observe/STIM_015.jpg
819.824	1.18	incorrect	observe	Run1	observe/STIM_015.jpg
824.589	0.972	correct	observe	Run1	observe/STIM_015.jpg
828.058	0.85	incorrect	observe	Run1	observe/STIM_015.jpg
831.511	0.755	incorrect	observe	Run1	observe/STIM_016.jpg
834.447	0.853	incorrect	observe	Run1	observe/STIM_016.jpg
838.243	1.122	correct	observe	Run1	observe/STIM_016.jpg
842.541	0.846	incorrect	observe	Run1	observe/STIM_016.jpg
846.325	0.786	incorrect	observe	Run1	observe/STIM_017.jpg
850.493	1.057	correct	observe	Run1	observe/STIM_017.jpg
854.482	0.915	correct	observe	Run1	observe/STIM_017.jpg
857.888	0.784	incorrect	observe	Run1	observe/STIM_017.jpg
861.264	0.922	correct	observe	Run1	observe/STIM_018.jpg
864.85	0.609	correct	observe	Run1	observe/STIM_018.jpg
867.841	0.72	correct	observe	Run1	observe/STIM_018.jpg
871.573	0.866	incorrect	observe	Run1	observe/STIM_018.jpg
875.881	0.792	correct	observe	Run1	observe/STIM_019.jpg
879.853	0.747	incorrect	observe	Run1	observe/STIM_019.jpg
882.949	0.848	correct	observe	Run1	observe/STIM_019.jpg
885.905	0.796	correct	observe	Run1	observe/STIM_019.jpg
890.097	1.206	incorrect	regulate	Run2	regulate/STIM_000.jpg
893.401	1.673	incorrect	regulate	Run2	regulate/STIM_000.jpg
897.263	0.917	correct	regulate	Run2	regulate/STIM_000.jpg
900.752	1.586	incorrect	regulate	Run2	regulate/STIM_000.jpg
906.044	1.216	incorrect	regulate	Run2	regulate/STIM_001.jpg
911.028	1.799	incorrect	regulate	Run2	regulate/STIM_001.jpg
916.097	1.43	incorrect	regulate	Run2	regulate/STIM_001.jpg
920.189	1.031	incorrect	regulate	Run2	regulate/STIM_001.jpg
923.43	2.054	correct	regulate	Run2	regulate/STIM_002.jpg
928.987	1.755	incorrect	regulate	Run2	regulate/STIM_002.jpg
933.639	1.748	correct	regulate	Run2	regulate/STIM_002.jpg
938.309	1.435	correct	regulate	Run2	regulate/STIM_002.jpg
941.799	1.142	correct	regulate	Run2	regulate/STIM_003.jpg
945.561	1.329	correct	regulate	Run2	regulate/STIM_003.jpg
950.401	1.6	incorrect	regulate	Run2	regulate/STIM_003.jpg
955.39	1.291	correct	regulate	Run2	regulate/STIM_003.jpg
960.484	1.764	incorrect	regulate	Run2	regulate/STIM_004.jpg
964.378	1.334	correct	regulate	Run2	regulate/STIM_004.jpg
967.866	0.966	correct	regulate	Run2	regulate/STIM_004.jpg
971.518	1.541	correct	regulate	Run2	regulate/STIM_004.jpg
975.35	1.358	incorrect	regulate	Run2	regulate/STIM_005.jpg
979.24	2.03	correct	regulate	Run2	regulate/STIM_005.jpg
983.714	1.538	correct	regulate	Run2	regulate/STIM_005.jpg
987.72	1.456	incorrect	regulate	Run2	regulate/STIM_005.jpg
991.802	1.788	incorrect	regulate	Run2	regulate/STIM_006.jpg
996.909	1.858	correct	regulate	Run2	regulate/STIM_006.jpg
1001.928	0.967	incorrect	regulate	Run2	regulate/STIM_006.jpg
1005.55	0.912	correct	regulate	Run2	regulate/STIM_006.jpg
1009.147	1.964	incorrect	regulate	Run2	regulate/STIM_007.jpg
1013.308	1.701	incorrect	regulate	Run2	regulate/STIM_007.jpg
1017.231	1.132	incorrect	regulate	Run2	regulate/STIM_007.jpg
1022.211	1.451	correct	regulate	Run2	regulate/STIM_007.jpg
1027.004	1.354	correct	regulate	Run2	regulate/STIM_008.jpg
1030.737	1.088	incorrect	regulate	Run2	regulate/STIM_008.jpg
1034.242	0.958	correct	regulate	Run2	regulate/STIM_008.jpg
1038.967	1.064	correct	regulate	Run2	regulate/STIM_008.jpg
1042.309	1.844	correct	regulate	Run2	regulate/STIM_009.jpg
1047.328	1.743	correct	regulate	Run2	regulate/STIM_009.jpg
1052.892	1.561	incorrect	regulate	Run2	regulate/STIM_009.jpg
1057.957	1.483	correct	regulate	Run2	regulate/STIM_009.jpg
1061.456	1.723	correct	regulate	Run2	regulate/STIM_010.jpg
1066.54	1.833	correct	regulate	Run2	regulate/STIM_010.jpg
1071.274	0.858	correct	regulate	Run2	regulate/STIM_010.jpg
1075.945	1.121	correct	regulate	Run2	regulate/STIM_010.jpg
1080.949	2.228	correct	regulate	Run2	regulate/STIM_011.jpg
1087.156	1.63	correct	regulate	Run2	regulate/STIM_011.jpg
1092.282	1.878	correct	regulate	Run2	regulate/STIM_011.jpg
1096.286	0.916	correct	regulate	Run2	regulate/STIM_011.jpg
1100.639	1.716	correct	regulate	Run2	regulate/STIM_012.jpg
1104.91	1.39	correct	regulate	Run2	regulate/STIM_012.jpg
1108.737	1.509	correct	regulate	Run2	regulate/STIM_012.jpg
1114.163	0.962	incorrect	regulate	Run2	regulate/STIM_012.jpg
1118.752	1.575	correct	regulate	Run2	regulate/STIM_013.jpg
1123.935	1.586	incorrect	regulate	Run2	regulate/STIM_013.jpg
1128.538	1.553	incorrect	regulate	Run2	regulate/STIM_013.jpg
1132.632	1.358	incorrect	regulate	Run2	regulate/STIM_013.jpg
1137.353	1.891	incorrect	regulate	Run2	regulate/STIM_014.jpg
1143.02	1.761	correct	regulate	Run2	regulate/STIM_014.jpg
1147.204	1.662	incorrect	regulate	Run2	regulate/STIM_014.jpg
1152.168	1.143	correct	regulate	Run2	regulate/STIM_014.jpg
1156.013	1.207	correct	regulate	Run2	regulate/STIM_015.jpg
1159.264	1.927	incorrect	regulate	Run2	regulate/STIM_015.jpg
1163.784	1.058	incorrect	regulate	Run2	regulate/STIM_015.jpg
1168.711	1.703	correct	regulate	Run2	regulate/STIM_015.jpg
1172.639	1.155	correct	regulate	Run2	regulate/STIM_016.jpg
1177.619	1.262	correct	regulate	Run2	regulate/STIM_016.jpg
1181.075	1.89	correct	regulate	Run2	regulate/STIM_016.jpg
1185.345	1.23	correct	regulate	Run2	regulate/STIM_016.jpg
1188.59	1.726	correct	regulate	Run2	regulate/STIM_017.jpg
1192.747	1.245	correct	regulate	Run2	regulate/STIM_017.jpg
1196.86	1.855	correct	regulate	Run2	regulate/STIM_017.jpg
1200.91	1.157	correct	regulate	Run2	regulate/STIM_017.jpg
1205.721	1.734	incorrect	regulate	Run2	regulate/STIM_018.jpg
1209.696	1.585	correct	regulate	Run2	regulate/STIM_018.jpg
1213.8	1.461	correct	regulate	Run2	regulate/STIM_018.jpg
1218.779	1.053	correct	regulate	Run2	regulate/STIM_018.jpg
1223.44	1.448	incorrect	regulate	Run2	regulate/STIM_019.jpg
1227.656	1.29	correct	regulate	Run2	regulate/STIM_019.jpg
1231.304	1.836	incorrect	regulate	Run2	regulate/STIM_019.jpg
1237.088	1.394	correct	regulate	Run2	regulate/STIM_019.jpg
1242.347	1.474	correct	regulate	Run2	regulate/STIM_020.jpg
1247.431	1.197	correct	regulate	Run2	regulate/STIM_020.jpg
1252.295	0.866	correct	regulate	Run2	regulate/STIM_020.jpg
1256.26	1.395	correct	regulate	Run2	regulate/STIM_020.jpg
1261.581	1.761	correct	regulate	Run2	regulate/STIM_021.jpg
1266.615	1.903	correct	regulate	Run2	regulate/STIM_021.jpg
1270.802	1.297	incorrect	regulate	Run2	regulate/STIM_021.jpg
1274.386	1.095	correct	regulate	Run2	regulate/STIM_021.jpg
1277.833	1.616	correct	regulate	Run2	regulate/STIM_022.jpg
1283.404	1.788	incorrect	regulate	Run2	regulate/STIM_022.jpg
1288.588	1.374	incorrect	regulate	Run2	regulate/STIM_022.jpg
1292.984	1.389	correct	regulate	Run2	regulate/STIM_022.jpg
1298.164	1.552	correct	regulate	Run2	regulate/STIM_023.jpg
1301.869	1.457	incorrect	regulate	Run2	regulate/STIM_023.jpg
1306.94	0.921	correct	regulate	Run2	regulate/STIM_023.jpg
1310.191	1.661	correct	regulate	Run2	regulate/STIM_023.jpg
1315.628	2.2	correct	regulate	Run2	regulate/STIM_024.jpg
1320.757	1.5	incorrect	regulate	Run2	regulate/STIM_024.jpg
1326.096	1.124	incorrect	regulate	Run2	regulate/STIM_024.jpg
1330.882	1.776	incorrect	regulate	Run2	regulate/STIM_024.jpg
1334.869	1.002	incorrect	regulate	Run2	regulate/STIM_025.jpg
1337.996	1.461	correct	regulate	Run2	regulate/STIM_025.jpg
1342.143	1.214	incorrect	regulate	Run2	regulate/STIM_025.jpg
1347.026	1.805	incorrect	regulate	Run2	regulate/STIM_025.jpg
1352.516	1.99	correct	regulate	Run2	regulate/STIM_026.jpg
1356.571	1.132	incorrect	regulate	Run2	regulate/STIM_026.jpg
1359.833	1.013	correct	regulate	Run2	regulate/STIM_026.jpg
1362.863	1.66	incorrect	regulate	Run2	regulate/STIM_026.jpg
1367.018	1.443	incorrect	regulate	Run2	regulate/STIM_027.jpg
1370.991	1.266	correct	regulate	Run2	regulate/STIM_027.jpg
1376.067	1.386	correct	regulate	Run2	regulate/STIM_027.jpg
1379.657	0.883	correct	regulate	Run2	regulate/STIM_027.jpg
1382.808	2.24	incorrect	regulate	Run2	regulate/STIM_028.jpg
1388.748	1.263	correct	regulate	Run2	regulate/STIM_028.jpg
1392.198	1.787	incorrect	regulate	Run2	regulate/STIM_028.jpg
1396.924	1.504	incorrect	regulate	Run2	regulate/STIM_028.jpg
1401.751	1.867	incorrect	regulate	Run2	regulate/STIM_029.jpg
1407.591	1.136	incorrect	regulate	Run2	regulate/STIM_029.jpg
1412.33	1.772	incorrect	regulate	Run2	regulate/STIM_029.jpg
1416.577	1.153	incorrect	regulate	Run2	regulate/STIM_029.jpg
1419.787	1.113	correct	observe	Run2	observe/STIM_000.jpg
1423.557	1.064	correct	observe	Run2	observe/STIM_000.jpg
1428.051	1.213	correct	observe	Run2	observe/STIM_000.jpg
1432.392	0.739	incorrect	observe	Run2	observe/STIM_000.jpg
1435.987	1.083	incorrect	observe	Run2	observe/STIM_001.jpg
1440.5	0.722	incorrect	observe	Run2	observe/STIM_001.jpg
1444.073	0.948	correct	observe	Run2	observe/STIM_001.jpg
1447.856	1.041	correct	observe	Run2	observe/STIM_001.jpg
1452.19	0.941	correct	observe	Run2	observe/STIM_002.jpg
1456.558	0.999	correct	observe	Run2	observe/STIM_002.jpg
1460.227	1.016	correct	observe	Run2	observe/STIM_002.jpg
1464.04	0.663	incorrect	observe	Run2	observe/STIM_002.jpg
1467.048	0.686	correct	observe	Run2	observe/STIM_003.jpg
1470.438	1.202	correct	observe	Run2	observe/STIM_003.jpg
1474.658	1.137	correct	observe	Run2	observe/STIM_003.jpg
1478.545	1.115	incorrect	observe	Run2	observe/STIM_003.jpg
1481.795	0.682	correct	observe	Run2	observe/STIM_004.jpg
1484.777	0.868	correct	observe	Run2	observe/STIM_004.jpg
1489.192	0.827	correct	observe	Run2	observe/STIM_004.jpg
1492.837	0.713	incorrect	observe	Run2	observe/STIM_004.jpg
1496.326	1.206	incorrect	observe	Run2	observe/STIM_005.jpg
1500.895	0.676	correct	observe	Run2	observe/STIM_005.jpg
1505.466	1.15	incorrect	observe	Run2	observe/STIM_005.jpg
1509.9	0.799	incorrect	observe	Run2	observe/STIM_005.jpg
1513.003	0.798	correct	observe	Run2	observe/STIM_006.jpg
1517.697	0.618	correct	observe	Run2	observe/STIM_006.jpg
1522.118	1.208	incorrect	observe	Run2	observe/STIM_006.jpg
1525.787	0.991	incorrect	observe	Run2	observe/STIM_006.jpg
1529.94	0.771	correct	observe	Run2	observe/STIM_007.jpg
1534.576	0.741	correct	observe	Run2	observe/STIM_007.jpg
1539.097	1.2	correct	observe	Run2	observe/STIM_007.jpg
1543.033	0.724	correct	observe	Run2	observe/STIM_007.jpg
1546.254	1.152	correct	observe	Run2	observe/STIM_008.jpg
1550.963	0.753	correct	observe	Run2	observe/STIM_008.jpg
1553.797	0.674	incorrect	observe	Run2	observe/STIM_008.jpg
1557.403	1.092	correct	observe	Run2	observe/STIM_008.jpg
1560.784	0.932	incorrect	observe	Run2	observe/STIM_009.jpg
1564.372	1.123	correct	observe	Run2	observe/STIM_009.jpg
1569.285	1.098	correct	observe	Run2	observe/STIM_009.jpg
1572.865	0.857	correct	observe	Run2	observe/STIM_009.jpg
1576.877	0.993	correct	observe	Run2	observe/STIM_010.jpg
1581.452	0.859	incorrect	observe	Run2	observe/STIM_010.jpg
1585.436	1.109	correct	observe	Run2	observe/STIM_010.jpg
1589.045	1.016	correct	observe	Run2	observe/STIM_010.jpg
1593.799	0.857	correct	observe	Run2	observe/STIM_011.jpg
1596.777	0.838	correct	observe	Run2	observe/STIM_011.jpg
1601.51	0.677	incorrect	observe	Run2	observe/STIM_011.jpg
1605.982	0.764	correct	observe	Run2	observe/STIM_011.jpg
1608.856	0.976	incorrect	observe	Run2	observe/STIM_012.jpg
1613.372	0.634	correct	observe	Run2	observe/STIM_012.jpg
1617.174	0.971	correct	observe	Run2	observe/STIM_012.jpg
1621.331	0.812	correct	observe	Run2	observe/STIM_012.jpg
1625.838	0.708	correct	observe	Run2	observe/STIM_013.jpg
1629.8	0.809	correct	observe	Run2	observe/STIM_013.jpg
1634.061	1.051	correct	observe	Run2	observe/STIM_013.jpg
1638.008	0.788	correct	observe	Run2	observe/STIM_013.jpg
1642.694	1.084	correct	observe	Run2	observe/STIM_014.jpg
1646.586	1.115	correct	observe	Run2	observe/STIM_014.jpg
1651.069	0.731	correct	observe	Run2	observe/STIM_014.jpg
1655.427	0.849	incorrect	observe	Run2	observe/STIM_014.jpg
1659.897	0.99	correct	observe	Run2	observe/STIM_015.jpg
1664.588	0.652	incorrect	observe	Run2	observe/STIM_015.jpg
1668.961	0.633	incorrect	observe	Run2	observe/STIM_015.jpg
1673.087	0.763	correct	observe	Run2	observe/STIM_015.jpg
1677.639	0.868	correct	observe	Run2	observe/STIM_016.jpg
1681.427	0.989	correct	observe	Run2	observe/STIM_016.jpg
1684.748	1.021	correct	observe	Run2	observe/STIM_016.jpg
1688.2	1.159	correct	observe	Run2	observe/STIM_016.jpg
1691.623	0.943	correct	observe	Run2	observe/STIM_017.jpg
1695.66	0.822	correct	observe	Run2	observe/STIM_017.jpg
1698.586	0.975	correct	observe	Run2	observe/STIM_017.jpg
1701.646	0.939	correct	observe	Run2	observe/STIM_017.jpg
1705.359	0.83	incorrect	observe	Run2	observe/STIM_018.jpg
1708.899	0.976	correct	observe	Run2	observe/STIM_018.jpg
1712.99	1.017	incorrect	observe	Run2	observe/STIM_018.jpg
1716.063	0.782	correct	observe	Run2	observe/STIM_018.jpg
1720.548	1.141	incorrect	observe	Run2	observe/STIM_019.jpg
1725.497	1.045	incorrect	observe	Run2	observe/STIM_019.jpg
1728.834	0.937	correct	observe	Run2	observe/STIM_019.jpg
1733.66	1.15	correct	observe	Run2	observe/STIM_019.jpg
1737.737	1.832	incorrect	regulate	Run3	regulate/STIM_000.jpg
1741.974	1.147	correct	regulate	Run3	regulate/STIM_000.jpg
1746.631	0.958	incorrect	regulate	Run3	regulate/STIM_000.jpg
1751.052	0.996	incorrect	regulate	Run3	regulate/STIM_000.jpg
1755.315	1.404	correct	regulate	Run3	regulate/STIM_001.jpg
1759.541	1.593	correct	regulate	Run3	regulate/STIM_001.jpg
1764.681	1.796	correct	regulate	Run3	regulate/STIM_001.jpg
1769.926	1.772	correct	regulate	Run3	regulate/STIM_001.jpg
1774.391	1.505	correct	regulate	Run3	regulate/STIM_002.jpg
1779.138	1.063	correct	regulate	Run3	regulate/STIM_002.jpg
1784.14	1.796	correct	regulate	Run3	regulate/STIM_002.jpg
1789.313	0.877	correct	regulate	Run3	regulate/STIM_002.jpg
1792.307	1.203	correct	regulate	Run3	regulate/STIM_003.jpg
1796.124	1.832	correct	regulate	Run3	regulate/STIM_003.jpg
1801.808	0.974	correct	regulate	Run3	regulate/STIM_003.jpg
1804.857	0.919	incorrect	regulate	Run3	regulate/STIM_003.jpg
1808.11	1.436	correct	regulate	Run3	regulate/STIM_004.jpg
1811.851	1.688	correct	regulate	Run3	regulate/STIM_004.jpg
1815.694	1.747	incorrect	regulate	Run3	regulate/STIM_004.jpg
1820.507	1.707	correct	regulate	Run3	regulate/STIM_004.jpg
1824.375	1.601	correct	regulate	Run3	regulate/STIM_005.jpg
1828.539	1.824	correct	regulate	Run3	regulate/STIM_005.jpg
1832.805	0.862	correct	regulate	Run3	regulate/STIM_005.jpg
1837.064	1.469	correct	regulate	Run3	regulate/STIM_005.jpg
1840.746	1.859	correct	regulate	Run3	regulate/STIM_006.jpg
1845.004	1.746	correct	regulate	Run3	regulate/STIM_006.jpg
1850.061	0.913	incorrect	regulate	Run3	regulate/STIM_006.jpg
1853.96	1.539	correct	regulate	Run3	regulate/STIM_006.jpg
1859.306	1.242	incorrect	regulate	Run3	regulate/STIM_007.jpg
1863.924	0.869	correct	regulate	Run3	regulate/STIM_007.jpg
1867.07	1.282	correct	regulate	Run3	regulate/STIM_007.jpg
1872.303	1.217	incorrect	regulate	Run3	regulate/STIM_007.jpg
1877.18	1.289	correct	regulate	Run3	regulate/STIM_008.jpg
1882.106	1.099	correct	regulate	Run3	regulate/STIM_008.jpg
1885.591	1.801	correct	regulate	Run3	regulate/STIM_008.jpg
1891.28	1.631	correct	regulate	Run3	regulate/STIM_008.jpg
1895.751	1.718	correct	regulate	Run3	regulate/STIM_009.jpg
1899.723	0.847	correct	regulate	Run3	regulate/STIM_009.jpg
1902.708	1.067	correct	regulate	Run3	regulate/STIM_009.jpg
1906.06	1.155	correct	regulate	Run3	regulate/STIM_009.jpg
1910.506	1.473	correct	regulate	Run3	regulate/STIM_010.jpg
1914.358	1.688	incorrect	regulate	Run3	regulate/STIM_010.jpg
1919.514	1.774	correct	regulate	Run3	regulate/STIM_010.jpg
1924.804	1.53	correct	regulate	Run3	regulate/STIM_010.jpg
1928.569	1.634	correct	regulate	Run3	regulate/STIM_011.jpg
1932.899	1.667	correct	regulate	Run3	regulate/STIM_011.jpg
1938.189	1.425	correct	regulate	Run3	regulate/STIM_011.jpg
1942.909	1.759	correct	regulate	Run3	regulate/STIM_011.jpg
1948.185	1.759	incorrect	regulate	Run3	regulate/STIM_012.jpg
1953.653	1.02	correct	regulate	Run3	regulate/STIM_012.jpg
1957.038	1.16	correct	regulate	Run3	regulate/STIM_012.jpg
1961.784	1.158	correct	regulate	Run3	regulate/STIM_012.jpg
1965.923	0.798	correct	regulate	Run3	regulate/STIM_013.jpg
1969.564	1.088	correct	regulate	Run3	regulate/STIM_013.jpg
1973.01	0.868	correct	regulate	Run3	regulate/STIM_013.jpg
1976.023	1.157	incorrect	regulate	Run3	regulate/STIM_013.jpg
1979.754	1.858	correct	regulate	Run3	regulate/STIM_014.jpg
1985.343	1.287	correct	regulate	Run3	regulate/STIM_014.jpg
1989.377	1.446	incorrect	regulate	Run3	regulate/STIM_014.jpg
1993.011	1.368	correct	regulate	Run3	regulate/STIM_014.jpg
1997.051	0.879	correct	regulate	Run3	regulate/STIM_015.jpg
2001.519	1.302	correct	regulate	Run3	regulate/STIM_015.jpg
2005.665	1.697	correct	regulate	Run3	regulate/STIM_015.jpg
2010.86	1.291	incorrect	regulate	Run3	regulate/STIM_015.jpg
2014.198	1.254	incorrect	regulate	Run3	regulate/STIM_016.jpg
2019.157	1.671	incorrect	regulate	Run3	regulate/STIM_016.jpg
2024.38	1.029	correct	regulate	Run3	regulate/STIM_016.jpg
2028.519	1.61	correct	regulate	Run3	regulate/STIM_016.jpg
2033.965	1.127	correct	regulate	Run3	regulate/STIM_017.jpg
2038.581	1.529	incorrect	regulate	Run3	regulate/STIM_017.jpg
2042.324	1.05	correct	regulate	Run3	regulate/STIM_017.jpg
2045.873	1.04	incorrect	regulate	Run3	regulate/STIM_017.jpg
2050.831	1.117	incorrect	regulate	Run3	regulate/STIM_018.jpg
2054.765	1.071	correct	regulate	Run3	regulate/STIM_018.jpg
2059.782	1.637	correct	regulate	Run3	regulate/STIM_018.jpg
2064.978	1.373	correct	regulate	Run3	regulate/STIM_018.jpg
2069.361	1.698	correct	regulate	Run3	regulate/STIM_019.jpg
2074.698	0.801	incorrect	regulate	Run3	regulate/STIM_019.jpg
2077.955	1.562	incorrect	regulate	Run3	regulate/STIM_019.jpg
2082.914	1.113	correct	regulate	Run3	regulate/STIM_019.jpg
2086.336	1.643	incorrect	regulate	Run3	regulate/STIM_020.jpg
2091.897	1.649	incorrect	regulate	Run3	regulate/STIM_020.jpg
2096.874	1.805	correct	regulate	Run3	regulate/STIM_020.jpg
2101.735	1.689	incorrect	regulate	Run3	regulate/STIM_020.jpg
2106.105	1.858	incorrect	regulate	Run3	regulate/STIM_021.jpg
2111.259	1.752	correct	regulate	Run3	regulate/STIM_021.jpg
2116.398	1.54	correct	regulate	Run3	regulate/STIM_021.jpg
2121.064	1.298	correct	regulate	Run3	regulate/STIM_021.jpg
2124.714	1.643	correct	regulate	Run3	regulate/STIM_022.jpg
2128.509	1.399	correct	regulate	Run3	regulate/STIM_022.jpg
2133.531	1.51	correct	regulate	Run3	regulate/STIM_022.jpg
2138.661	1.215	incorrect	regulate	Run3	regulate/STIM_022.jpg
2141.982	1.218	correct	regulate	Run3	regulate/STIM_023.jpg
2146.817	1.392	correct	regulate	Run3	regulate/STIM_023.jpg
2150.528	1.81	incorrect	regulate	Run3	regulate/STIM_023.jpg
2154.816	1.169	correct	regulate	Run3	regulate/STIM_023.jpg
2159.629	1.581	correct	regulate	Run3	regulate/STIM_024.jpg
2164.918	1.086	incorrect	regulate	Run3	regulate/STIM_024.jpg
2169.627	1.384	incorrect	regulate	Run3	regulate/STIM_024.jpg
2173.397	1.648	correct	regulate	Run3	regulate/STIM_024.jpg
2178.243	1.568	correct	regulate	Run3	regulate/STIM_025.jpg
2183.101	1.342	incorrect	regulate	Run3	regulate/STIM_025.jpg
2186.611	1.091	incorrect	regulate	Run3	regulate/STIM_025.jpg
2190.521	1.338	correct	regulate	Run3	regulate/STIM_025.jpg
2193.953	1.72	correct	regulate	Run3	regulate/STIM_026.jpg
2199.622	1.758	correct	regulate	Run3	regulate/STIM_026.jpg
2203.497	1.854	correct	regulate	Run3	regulate/STIM_026.jpg
2208.247	0.918	incorrect	regulate	Run3	regulate/STIM_026.jpg
2211.364	1.085	correct	regulate	Run3	regulate/STIM_027.jpg
2215.706	1.619	correct	regulate	Run3	regulate/STIM_027.jpg
2221.02	1.593	correct	regulate	Run3	regulate/STIM_027.jpg
2225.409	1.149	correct	regulate	Run3	regulate/STIM_027.jpg
2229.24	0.86	correct	regulate	Run3	regulate/STIM_028.jpg
2233.591	0.888	correct	regulate	Run3	regulate/STIM_028.jpg
2236.765	1.204	correct	regulate	Run3	regulate/STIM_028.jpg
2241.318	1.321	correct	regulate	Run3	regulate/STIM_028.jpg
2246.39	1.612	incorrect	regulate	Run3	regulate/STIM_029.jpg
2250.978	0.979	incorrect	regulate	Run3	regulate/STIM_029.jpg
2254.989	1.605	correct	regulate	Run3	regulate/STIM_029.jpg
2260.115	1.036	correct	regulate	Run3	regulate/STIM_029.jpg
2263.359	0.776	incorrect	observe	Run3	observe/STIM_000.jpg
2266.166	0.661	incorrect	observe	Run3	observe/STIM_000.jpg
2270.282	1.202	incorrect	observe	Run3	observe/STIM_000.jpg
2274.65	0.886	correct	observe	Run3	observe/STIM_000.jpg
2277.711	1.074	incorrect	observe	Run3	observe/STIM_001.jpg
2281.632	0.925	correct	observe	Run3	observe/STIM_001.jpg
2285.564	0.632	incorrect	observe	Run3	observe/STIM_001.jpg
2289.572	1.132	correct	observe	Run3	observe/STIM_001.jpg
2294.66	0.739	correct	observe	Run3	observe/STIM_002.jpg
2298.885	0.784	incorrect	observe	Run3	observe/STIM_002.jpg
2302.703	0.672	correct	observe	Run3	observe/STIM_002.jpg
2306.61	0.776	incorrect	observe	Run3	observe/STIM_002.jpg
2311.063	1.13	correct	observe	Run3	observe/STIM_003.jpg
2314.367	1.108	incorrect	observe	Run3	observe/STIM_003.jpg
2318.835	0.645	correct	observe	Run3	observe/STIM_003.jpg
2322.924	1.143	correct	observe	Run3	observe/STIM_003.jpg
2326.119	0.827	correct	observe	Run3	observe/STIM_004.jpg
2329.492	1.018	incorrect	observe	Run3	observe/STIM_004.jpg
2334.005	0.928	incorrect	observe	Run3	observe/STIM_004.jpg
2338.898	0.661	incorrect	observe	Run3	observe/STIM_004.jpg
2341.751	0.95	incorrect	observe	Run3	observe/STIM_005.jpg
2345.372	0.801	correct	observe	Run3	observe/STIM_005.jpg
2349.975	0.636	correct	observe	Run3	observe/STIM_005.jpg
2353.851	0.708	correct	observe	Run3	observe/STIM_005.jpg
2357.68	1.101	correct	observe	Run3	observe/STIM_006.jpg
2362.487	0.887	incorrect	observe	Run3	observe/STIM_006.jpg
2366.789	0.874	correct	observe	Run3	observe/STIM_006.jpg
2370.922	0.86	correct	observe	Run3	observe/STIM_006.jpg
2373.998	1.03	incorrect	observe	Run3	observe/STIM_007.jpg
2378.786	0.825	correct	observe	Run3	observe/STIM_007.jpg
2383.165	1.069	correct	observe	Run3	observe/STIM_007.jpg
2386.636	1.177	incorrect	observe	Run3	observe/STIM_007.jpg
2391.518	0.866	incorrect	observe	Run3	observe/STIM_008.jpg
2396.093	0.821	correct	observe	Run3	observe/STIM_008.jpg
2399.064	0.882	incorrect	observe	Run3	observe/STIM_008.jpg
2402.196	0.997	incorrect	observe	Run3	observe/STIM_008.jpg
2405.876	0.887	incorrect	observe	Run3	observe/STIM_009.jpg
2410.683	1.123	correct	observe	Run3	observe/STIM_009.jpg
2414.489	0.628	correct	observe	Run3	observe/STIM_009.jpg
2417.58	0.846	correct	observe	Run3	observe/STIM_009.jpg
2422.367	0.956	correct	observe	Run3	observe/STIM_010.jpg
2427.016	0.672	correct	observe	Run3	observe/STIM_010.jpg
2430.364	0.962	incorrect	observe	Run3	observe/STIM_010.jpg
2433.574	0.917	incorrect	observe	Run3	observe/STIM_010.jpg
2436.757	0.776	incorrect	observe	Run3	observe/STIM_011.jpg
2440.797	0.95	correct	observe	Run3	observe/STIM_011.jpg
2444.07	0.916	correct	observe	Run3	observe/STIM_011.jpg
2447.376	0.649	correct	observe	Run3	observe/STIM_011.jpg
2450.683	1.149	correct	observe	Run3	observe/STIM_012.jpg
2454.973	0.991	correct	observe	Run3	observe/STIM_012.jpg
2459.375	0.675	correct	observe	Run3	observe/STIM_012.jpg
2463.461	0.619	correct	observe	Run3	observe/STIM_012.jpg
2467.172	0.839	incorrect	observe	Run3	observe/STIM_013.jpg
2471.674	1.055	incorrect	observe	Run3	observe/STIM_013.jpg
2476.599	0.807	correct	observe	Run3	observe/STIM_013.jpg
2481.13	0.854	correct	observe	Run3	observe/STIM_013.jpg
2485.95	0.968	incorrect	observe	Run3	observe/STIM_014.jpg
2489.848	1.204	correct	observe	Run3	observe/STIM_014.jpg
2493.167	0.836	incorrect	observe	Run3	observe/STIM_014.jpg
2496.594	0.926	incorrect	observe	Run3	observe/STIM_014.jpg
2499.989	1.087	correct	observe	Run3	observe/STIM_015.jpg
2504.247	0.815	correct	observe	Run3	observe/STIM_015.jpg
2507.132	1.161	incorrect	observe	Run3	observe/STIM_015.jpg
2511.117	1.08	correct	observe	Run3	observe/STIM_015.jpg
2514.928	1.187	incorrect	observe	Run3	observe/STIM_016.jpg
2519.668	0.858	incorrect	observe	Run3	observe/STIM_016.jpg
2522.942	0.609	correct	observe	Run3	observe/STIM_016.jpg
2526.472	0.712	correct	observe	Run3	observe/STIM_016.jpg
2529.438	0.649	incorrect	observe	Run3	observe/STIM_017.jpg
2532.148	0.689	correct	observe	Run3	observe/STIM_017.jpg
2535.611	0.787	incorrect	observe	Run3	observe/STIM_017.jpg
2538.706	0.886	incorrect	observe	Run3	observe/STIM_017.jpg
2542.231	1.109	correct	observe	Run3	observe/STIM_018.jpg
2546.269	0.737	incorrect	observe	Run3	observe/STIM_018.jpg
2550.572	0.848	incorrect	observe	Run3	observe/STIM_018.jpg
2554.224	1.158	incorrect	observe	Run3	observe/STIM_018.jpg
2558.08	0.96	correct	observe	Run3	observe/STIM_019.jpg
2562.141	0.921	incorrect	observe	Run3	observe/STIM_019.jpg
2565.37	0.956	correct	observe	Run3	observe/STIM_019.jpg
2569.028	0.817	correct	observe	Run3	observe/STIM_019.jpg
