onset	duration	response_time_ms	trial_type	learning_stage	stimulus	response_port
0.0	1.287	1287.4	regulate	Run1	regulate/STIM_000.jpg	100
4.917	2.508	2508.0	regulate	Run1	regulate/STIM_000.jpg	99
10.024	2.054	2053.5	regulate	Run1	regulate/STIM_000.jpg	100
15.261	2.121	2121.1	regulate	Run1	regulate/STIM_000.jpg	99
20.049	1.932	1932.1	regulate	Run1	regulate/STIM_001.jpg	99
25.334	1.642	1642.1	regulate	Run1	regulate/STIM_001.jpg	100
30.475	1.581	1580.9	regulate	Run1	regulate/STIM_001.jpg	99
35.185	1.03	1030.2	regulate	Run1	regulate/STIM_001.jpg	99
39.693	1.257	1256.9	regulate	Run1	regulate/STIM_002.jpg	99
43.617	2.266	2265.6	regulate	Run1	regulate/STIM_002.jpg	99
48.985	1.815	1814.7	regulate	Run1	regulate/STIM_002.jpg	100
54.031	1.223	1223.4	regulate	Run1	regulate/STIM_002.jpg	99
58.219	1.942	1942.1	regulate	Run1	regulate/STIM_003.jpg	100
63.6	2.181	2180.7	regulate	Run1	regulate/STIM_003.jpg	99
68.817	2.332	2331.5	regulate	Run1	regulate/STIM_003.jpg	99
75.142	1.55	1550.3	regulate	Run1	regulate/STIM_003.jpg	100
78.88	1.328	1328.1	regulate	Run1	regulate/STIM_004.jpg	99
82.803	2.012	2012.4	regulate	Run1	regulate/STIM_004.jpg	100
87.759	1.093	1092.6	regulate	Run1	regulate/STIM_004.jpg	100
92.197	2.165	2165.1	regulate	Run1	regulate/STIM_004.jpg	100
97.572	2.06	2059.9	regulate	Run1	regulate/STIM_005.jpg	99
102.065	1.513	1513.2	regulate	Run1	regulate/STIM_005.jpg	100
106.068	2.213	2213.1	regulate	Run1	regulate/STIM_005.jpg	99
110.708	2.098	2097.8	regulate	Run1	regulate/STIM_005.jpg	99
115.295	1.448	1447.8	regulate	Run1	regulate/STIM_006.jpg	99
119.156	1.871	1870.8	regulate	Run1	regulate/STIM_006.jpg	100
123.67	1.589	1589.0	regulate	Run1	regulate/STIM_006.jpg	99
127.725	1.04	1040.4	regulate	Run1	regulate/STIM_006.jpg	99
132.751	2.049	2049.2	regulate	Run1	regulate/STIM_007.jpg	99
137.569	1.394	1394.4	regulate	Run1	regulate/STIM_007.jpg	100
142.597	2.225	2225.2	regulate	Run1	regulate/STIM_007.jpg	99
147.859	1.414	1413.6	regulate	Run1	regulate/STIM_007.jpg	100
151.453	2.326	2325.5	regulate	Run1	regulate/STIM_008.jpg	100
156.116	1.303	1302.9	regulate	Run1	regulate/STIM_008.jpg	100
161.343	1.923	1923.3	regulate	Run1	regulate/STIM_008.jpg	99
167.256	1.849	1848.9	regulate	Run1	regulate/STIM_008.jpg	100
172.05	2.247	2246.7	regulate	Run1	regulate/STIM_009.jpg	99
176.433	1.447	1447.3	regulate	Run1	regulate/STIM_009.jpg	99
180.267	2.259	2259.2	regulate	Run1	regulate/STIM_009.jpg	100
184.633	1.728	1727.9	regulate	Run1	regulate/STIM_009.jpg	99
188.89	2.34	2340.5	regulate	Run1	regulate/STIM_010.jpg	99
194.333	2.034	2034.3	regulate	Run1	regulate/STIM_010.jpg	99
199.586	1.72	1720.2	regulate	Run1	regulate/STIM_010.jpg	100
205.236	1.878	1877.5	regulate	Run1	regulate/STIM_010.jpg	100
209.655	2.283	2282.6	regulate	Run1	regulate/STIM_011.jpg	99
215.479	1.711	1711.3	regulate	Run1	regulate/STIM_011.jpg	99
219.33	1.217	1217.0	regulate	Run1	regulate/STIM_011.jpg	99
224.361	1.311	1311.0	regulate	Run1	regulate/STIM_011.jpg	100
229.094	1.853	1853.4	regulate	Run1	regulate/STIM_012.jpg	99
234.652	1.941	1940.7	regulate	Run1	regulate/STIM_012.jpg	100
238.974	1.327	1327.4	regulate	Run1	regulate/STIM_012.jpg	100
242.569	1.403	1403.4	regulate	Run1	regulate/STIM_012.jpg	100
246.697	1.718	1718.5	regulate	Run1	regulate/STIM_013.jpg	100
251.323	2.042	2042.1	regulate	Run1	regulate/STIM_013.jpg	100
256.866	1.866	1865.9	regulate	Run1	regulate/STIM_013.jpg	100
260.925	2.167	2167.1	regulate	Run1	regulate/STIM_013.jpg	99
266.237	1.895	1894.9	regulate	Run1	regulate/STIM_014.jpg	99
271.33	1.576	1576.4	regulate	Run1	regulate/STIM_014.jpg	100
275.166	1.758	1758.4	regulate	Run1	regulate/STIM_014.jpg	100
280.788	1.796	1795.8	regulate	Run1	regulate/STIM_014.jpg	99
285.487	2.612	2611.5	regulate	Run1	regulate/STIM_015.jpg	100
290.691	1.563	1563.4	regulate	Run1	regulate/STIM_015.jpg	99
294.291	2.153	2153.0	regulate	Run1	regulate/STIM_015.jpg	100
299.297	1.746	1745.5	regulate	Run1	regulate/STIM_015.jpg	99
305.015	2.095	2094.6	regulate	Run1	regulate/STIM_016.jpg	99
310.876	2.081	2081.4	regulate	Run1	regulate/STIM_016.jpg	100
316.211	2.366	2365.8	regulate	Run1	regulate/STIM_016.jpg	100
320.646	1.501	1501.1	regulate	Run1	regulate/STIM_016.jpg	99
325.537	1.849	1849.2	regulate	Run1	regulate/STIM_017.jpg	99
331.013	1.829	1829.2	regulate	Run1	regulate/STIM_017.jpg	100
335.167	2.244	2243.8	regulate	Run1	regulate/STIM_017.jpg	99
341.021	1.081	1081.2	regulate	Run1	regulate/STIM_017.jpg	99
344.328	2.628	2627.7	regulate	Run1	regulate/STIM_018.jpg	99
350.771	1.636	1635.5	regulate	Run1	regulate/STIM_018.jpg	100
355.244	1.38	1380.5	regulate	Run1	regulate/STIM_018.jpg	100
360.294	1.273	1273.0	regulate	Run1	regulate/STIM_018.jpg	99
363.923	2.563	2563.2	regulate	Run1	regulate/STIM_019.jpg	99
370.359	1.793	1792.8	regulate	Run1	regulate/STIM_019.jpg	99
374.435	1.465	1464.6	regulate	Run1	regulate/STIM_019.jpg	99
378.995	1.56	1559.6	regulate	Run1	regulate/STIM_019.jpg	99
383.959	2.145	2145.0	regulate	Run1	regulate/STIM_020.jpg	100
389.024	1.821	1821.1	regulate	Run1	regulate/STIM_020.jpg	100
394.682	1.22	1220.5	regulate	Run1	regulate/STIM_020.jpg	99
399.215	1.709	1708.7	regulate	Run1	regulate/STIM_020.jpg	100
403.001	1.878	1878.3	regulate	Run1	regulate/STIM_021.jpg	100
408.372	1.46	1460.4	regulate	Run1	regulate/STIM_021.jpg	99
413.648	1.266	1265.8	regulate	Run1	regulate/STIM_021.jpg	99
418.679	1.647	1647.1	regulate	Run1	regulate/STIM_021.jpg	100
423.614	2.411	2410.8	regulate	Run1	regulate/STIM_022.jpg	100
429.96	2.288	2288.1	regulate	Run1	regulate/STIM_022.jpg	100
435.356	2.083	2082.8	regulate	Run1	regulate/STIM_022.jpg	100
440.789	1.709	1708.7	regulate	Run1	regulate/STIM_022.jpg	99
444.629	2.622	2621.7	regulate	Run1	regulate/STIM_023.jpg	100
449.895	2.172	2172.2	regulate	Run1	regulate/STIM_023.jpg	100
454.899	1.571	1571.0	regulate	Run1	regulate/STIM_023.jpg	99
459.166	1.414	1414.4	regulate	Run1	regulate/STIM_023.jpg	100
463.537	1.961	1961.0	regulate	Run1	regulate/STIM_024.jpg	100
469.0	2.198	2198.2	regulate	Run1	regulate/STIM_024.jpg	99
474.412	1.784	1784.0	regulate	Run1	regulate/STIM_024.jpg	100
479.084	2.073	2072.8	regulate	Run1	regulate/STIM_024.jpg	99
483.184	2.165	2165.2	regulate	Run1	regulate/STIM_025.jpg	100
487.408	1.374	1373.9	regulate	Run1	regulate/STIM_025.jpg	99
492.062	1.82	1819.5	regulate	Run1	regulate/STIM_025.jpg	100
496.93	2.182	2182.0	regulate	Run1	regulate/STIM_025.jpg	99
502.868	2.582	2581.6	regulate	Run1	regulate/STIM_026.jpg	99
509.064	2.353	2353.2	regulate	Run1	regulate/STIM_026.jpg	99
515.169	1.384	1384.3	regulate	Run1	regulate/STIM_026.jpg	99
519.778	1.064	1064.5	regulate	Run1	regulate/STIM_026.jpg	99
523.628	1.926	1926.2	regulate	Run1	regulate/STIM_027.jpg	99
529.324	2.478	2478.4	regulate	Run1	regulate/STIM_027.jpg	100
533.948	1.481	1481.2	regulate	Run1	regulate/STIM_027.jpg	99
538.289	1.093	1092.8	regulate	Run1	regulate/STIM_027.jpg	99
542.132	1.793	1793.3	regulate	Run1	regulate/STIM_028.jpg	100
547.084	1.495	1495.1	regulate	Run1	regulate/STIM_028.jpg	99
551.229	2.253	2252.9	regulate	Run1	regulate/STIM_028.jpg	100
555.639	1.622	1621.7	regulate	Run1	regulate/STIM_028.jpg	100
560.997	1.653	1653.1	regulate	Run1	regulate/STIM_029.jpg	100
565.659	1.095	1095.3	regulate	Run1	regulate/STIM_029.jpg	99
568.813	1.286	1285.6	regulate	Run1	regulate/STIM_029.jpg	99
572.841	2.037	2036.9	regulate	Run1	regulate/STIM_029.jpg	100
578.536	0.924	923.5	observe	Run1	observe/STIM_000.jpg	100
582.919	0.681	680.7	observe	Run1	observe/STIM_000.jpg	99
586.993	0.701	700.7	observe	Run1	observe/STIM_000.jpg	100
590.059	0.987	987.3	observe	Run1	observe/STIM_000.jpg	99
593.765	0.637	637.1	observe	Run1	observe/STIM_001.jpg	100
597.949	0.727	726.7	observe	Run1	observe/STIM_001.jpg	100
601.072	1.043	1043.0	observe	Run1	observe/STIM_001.jpg	99
605.489	0.762	762.4	observe	Run1	observe/STIM_001.jpg	99
608.526	0.83	829.5	observe	Run1	observe/STIM_002.jpg	100
611.931	1.014	1013.8	observe	Run1	observe/STIM_002.jpg	100
616.643	0.839	838.6	observe	Run1	observe/STIM_002.jpg	99
620.805	0.837	836.7	observe	Run1	observe/STIM_002.jpg	99
625.184	1.169	1168.7	observe	Run1	observe/STIM_003.jpg	99
629.243	0.841	841.1	observe	Run1	observe/STIM_003.jpg	100
633.221	0.771	770.9	observe	Run1	observe/STIM_003.jpg	100
636.2	0.975	974.9	observe	Run1	observe/STIM_003.jpg	99
640.34	0.658	657.6	observe	Run1	observe/STIM_004.jpg	99
643.611	1.021	1020.7	observe	Run1	observe/STIM_004.jpg	99
648.057	1.153	1153.3	observe	Run1	observe/STIM_004.jpg	100
651.556	0.916	916.2	observe	Run1	observe/STIM_004.jpg	100
656.466	0.677	676.6	observe	Run1	observe/STIM_005.jpg	100
660.228	1.076	1076.5	observe	Run1	observe/STIM_005.jpg	100
663.543	1.06	1059.6	observe	Run1	observe/STIM_005.jpg	99
667.892	1.213	1213.4	observe	Run1	observe/STIM_005.jpg	99
672.46	0.705	705.1	observe	Run1	observe/STIM_006.jpg	100
675.941	1.102	1102.1	observe	Run1	observe/STIM_006.jpg	100
679.956	1.204	1204.1	observe	Run1	observe/STIM_006.jpg	100
684.007	0.926	925.8	observe	Run1	observe/STIM_006.jpg	99
688.078	1.005	1004.9	observe	Run1	observe/STIM_007.jpg	99
692.655	1.108	1108.2	observe	Run1	observe/STIM_007.jpg	100
697.281	1.138	1137.9	observe	Run1	observe/STIM_007.jpg	99
701.751	1.006	1006.3	observe	Run1	observe/STIM_007.jpg	99
706.492	0.733	733.3	observe	Run1	observe/STIM_008.jpg	99
710.098	0.703	702.6	observe	Run1	observe/STIM_008.jpg	99
714.03	1.059	1059.4	observe	Run1	observe/STIM_008.jpg	99
719.073	1.026	1026.2	observe	Run1	observe/STIM_008.jpg	100
722.117	0.91	909.8	observe	Run1	observe/STIM_009.jpg	100
726.609	0.766	765.5	observe	Run1	observe/STIM_009.jpg	99
731.047	0.888	888.0	observe	Run1	observe/STIM_009.jpg	99
734.166	1.191	1191.4	observe	Run1	observe/STIM_009.jpg	99
738.058	0.708	708.0	observe	Run1	observe/STIM_010.jpg	99
741.293	0.72	720.2	observe	Run1	observe/STIM_010.jpg	100
744.454	1.13	1130.4	observe	Run1	observe/STIM_010.jpg	100
747.672	0.736	736.3	observe	Run1	observe/STIM_010.jpg	99
751.357	0.978	977.9	observe	Run1	observe/STIM_011.jpg	100
756.111	1.096	1095.6	observe	Run1	observe/STIM_011.jpg	99
760.268	1.035	1034.6	observe	Run1	observe/STIM_011.jpg	100
764.674	0.913	913.4	observe	Run1	observe/STIM_011.jpg	99
768.898	0.93	930.4	observe	Run1	observe/STIM_012.jpg	100
773.807	0.937	937.1	observe	Run1	observe/STIM_012.jpg	99
778.06	1.009	1008.8	observe	Run1	observe/STIM_012.jpg	100
781.289	1.073	1072.9	observe	Run1	observe/STIM_012.jpg	100
785.586	0.876	876.1	observe	Run1	observe/STIM_013.jpg	100
790.122	0.635	634.9	observe	Run1	observe/STIM_013.jpg	100
793.192	1.159	1159.0	observe	Run1	observe/STIM_013.jpg	99
797.952	1.152	1151.5	observe	Run1	observe/STIM_013.jpg	99
801.354	1.128	1127.6	observe	Run1	observe/STIM_014.jpg	99
805.616	0.633	632.9	observe	Run1	observe/STIM_014.jpg	100
808.612	0.609	609.2	observe	Run1	observe/STIM_014.jpg	100
812.201	1.027	1026.8	observe	Run1	observe/STIM_014.jpg	99
816.949	0.609	608.9	observe	Run1	observe/STIM_015.jpg	99
819.824	1.18	1179.9	observe	Run1	observe/STIM_015.jpg	99
824.589	0.972	971.5	observe	Run1	observe/STIM_015.jpg	99
828.058	0.85	850.5	observe	Run1	observe/STIM_015.jpg	99
831.511	0.755	754.8	observe	Run1	observe/STIM_016.jpg	100
834.447	0.853	852.6	observe	Run1	observe/STIM_016.jpg	100
838.243	1.122	1122.3	observe	Run1	observe/STIM_016.jpg	100
842.541	0.846	846.5	observe	Run1	observe/STIM_016.jpg	100
846.325	0.786	786.4	observe	Run1	observe/STIM_017.jpg	99
850.493	1.057	1057.3	observe	Run1	observe/STIM_017.jpg	99
854.482	0.915	915.2	observe	Run1	observe/STIM_017.jpg	99
857.888	0.784	784.0	observe	Run1	observe/STIM_017.jpg	100
861.264	0.922	921.7	observe	Run1	observe/STIM_018.jpg	100
864.85	0.609	608.9	observe	Run1	observe/STIM_018.jpg	100
867.841	0.72	720.0	observe	Run1	observe/STIM_018.jpg	100
871.573	0.866	865.8	observe	Run1	observe/STIM_018.jpg	99
875.881	0.792	792.0	observe	Run1	observe/STIM_019.jpg	99
879.853	0.747	747.2	observe	Run1	observe/STIM_019.jpg	100
882.949	0.848	847.8	observe	Run1	observe/STIM_019.jpg	100
885.905	0.796	796.5	observe	Run1	observe/STIM_019.jpg	100
890.097	1.206	1205.7	regulate	Run2	regulate/STIM_000.jpg	100
893.401	1.673	1673.0	regulate	Run2	regulate/STIM_000.jpg	99
897.263	0.917	916.7	regulate	Run2	regulate/STIM_000.jpg	99
900.752	1.586	1585.9	regulate	Run2	regulate/STIM_000.jpg	99
906.044	1.216	1215.9	regulate	Run2	regulate/STIM_001.jpg	100
911.028	1.799	1799.1	regulate	Run2	regulate/STIM_001.jpg	100
916.097	1.43	1430.0	regulate	Run2	regulate/STIM_001.jpg	100
920.189	1.031	1031.3	regulate	Run2	regulate/STIM_001.jpg	99
923.43	2.054	2054.5	regulate	Run2	regulate/STIM_002.jpg	100
928.987	1.755	1754.6	regulate	Run2	regulate/STIM_002.jpg	100
933.639	1.748	1747.7	regulate	Run2	regulate/STIM_002.jpg	99
938.309	1.435	1435.2	regulate	Run2	regulate/STIM_002.jpg	99
941.799	1.142	1141.8	regulate	Run2	regulate/STIM_003.jpg	99
945.561	1.329	1328.7	regulate	Run2	regulate/STIM_003.jpg	100
950.401	1.6	1600.3	regulate	Run2	regulate/STIM_003.jpg	100
955.39	1.291	1291.3	regulate	Run2	regulate/STIM_003.jpg	100
960.484	1.764	1763.7	regulate	Run2	regulate/STIM_004.jpg	99
964.378	1.334	1334.0	regulate	Run2	regulate/STIM_004.jpg	100
967.866	0.966	966.0	regulate	Run2	regulate/STIM_004.jpg	99
971.518	1.541	1540.9	regulate	Run2	regulate/STIM_004.jpg	99
975.35	1.358	1358.3	regulate	Run2	regulate/STIM_005.jpg	100
979.24	2.03	2029.6	regulate	Run2	regulate/STIM_005.jpg	100
983.714	1.538	1538.2	regulate	Run2	regulate/STIM_005.jpg	100
987.72	1.456	1456.2	regulate	Run2	regulate/STIM_005.jpg	100
991.802	1.788	1788.5	regulate	Run2	regulate/STIM_006.jpg	100
996.909	1.858	1858.5	regulate	Run2	regulate/STIM_006.jpg	100
1001.928	0.967	966.7	regulate	Run2	regulate/STIM_006.jpg	99
1005.55	0.912	912.5	regulate	Run2	regulate/STIM_006.jpg	100
1009.147	1.964	1963.8	regulate	Run2	regulate/STIM_007.jpg	99
1013.308	1.701	1701.1	regulate	Run2	regulate/STIM_007.jpg	100
1017.231	1.132	1132.1	regulate	Run2	regulate/STIM_007.jpg	100
1022.211	1.451	1451.2	regulate	Run2	regulate/STIM_007.jpg	100
1027.004	1.354	1354.2	regulate	Run2	regulate/STIM_008.jpg	100
1030.737	1.088	1088.4	regulate	Run2	regulate/STIM_008.jpg	100
1034.242	0.958	958.1	regulate	Run2	regulate/STIM_008.jpg	100
1038.967	1.064	1064.0	regulate	Run2	regulate/STIM_008.jpg	100
1042.309	1.844	1843.5	regulate	Run2	regulate/STIM_009.jpg	99
1047.328	1.743	1743.4	regulate	Run2	regulate/STIM_009.jpg	100
1052.892	1.561	1561.1	regulate	Run2	regulate/STIM_009.jpg	100
1057.957	1.483	1483.3	regulate	Run2	regulate/STIM_009.jpg	99
1061.456	1.723	1722.9	regulate	Run2	regulate/STIM_010.jpg	99
1066.54	1.833	1833.1	regulate	Run2	regulate/STIM_010.jpg	99
1071.274	0.858	858.5	regulate	Run2	regulate/STIM_010.jpg	100
1075.945	1.121	1121.0	regulate	Run2	regulate/STIM_010.jpg	100
1080.949	2.228	2227.8	regulate	Run2	regulate/STIM_011.jpg	100
1087.156	1.63	1630.1	regulate	Run2	regulate/STIM_011.jpg	99
1092.282	1.878	1877.8	regulate	Run2	regulate/STIM_011.jpg	99
1096.286	0.916	915.6	regulate	Run2	regulate/STIM_011.jpg	100
1100.639	1.716	1716.4	regulate	Run2	regulate/STIM_012.jpg	99
1104.91	1.39	1389.9	regulate	Run2	regulate/STIM_012.jpg	100
1108.737	1.509	1508.7	regulate	Run2	regulate/STIM_012.jpg	99
1114.163	0.962	962.5	regulate	Run2	regulate/STIM_012.jpg	99
1118.752	1.575	1574.9	regulate	Run2	regulate/STIM_013.jpg	99
1123.935	1.586	1585.8	regulate	Run2	regulate/STIM_013.jpg	100
1128.538	1.553	1553.0	regulate	Run2	regulate/STIM_013.jpg	100
1132.632	1.358	1358.5	regulate	Run2	regulate/STIM_013.jpg	99
1137.353	1.891	1890.7	regulate	Run2	regulate/STIM_014.jpg	99
1143.02	1.761	1761.4	regulate	Run2	regulate/STIM_014.jpg	99
1147.204	1.662	1661.5	regulate	Run2	regulate/STIM_014.jpg	99
1152.168	1.143	1142.6	regulate	Run2	regulate/STIM_014.jpg	99
1156.013	1.207	1207.3	regulate	Run2	regulate/STIM_015.jpg	100
1159.264	1.927	1927.0	regulate	Run2	regulate/STIM_015.jpg	100
1163.784	1.058	1058.4	regulate	Run2	regulate/STIM_015.jpg	99
1168.711	1.703	1703.0	regulate	Run2	regulate/STIM_015.jpg	99
1172.639	1.155	1154.6	regulate	Run2	regulate/STIM_016.jpg	100
1177.619	1.262	1262.2	regulate	Run2	regulate/STIM_016.jpg	99
1181.075	1.89	1889.6	regulate	Run2	regulate/STIM_016.jpg	100
1185.345	1.23	1230.3	regulate	Run2	regulate/STIM_016.jpg	99
1188.59	1.726	1726.3	regulate	Run2	regulate/STIM_017.jpg	100
1192.747	1.245	1244.6	regulate	Run2	regulate/STIM_017.jpg	99
1196.86	1.855	1855.0	regulate	Run2	regulate/STIM_017.jpg	99
1200.91	1.157	1157.2	regulate	Run2	regulate/STIM_017.jpg	99
1205.721	1.734	1733.8	regulate	Run2	regulate/STIM_018.jpg	99
1209.696	1.585	1585.3	regulate	Run2	regulate/STIM_018.jpg	99
1213.8	1.461	1460.7	regulate	Run2	regulate/STIM_018.jpg	99
1218.779	1.053	1053.2	regulate	Run2	regulate/STIM_018.jpg	100
1223.44	1.448	1448.5	regulate	Run2	regulate/STIM_019.jpg	100
1227.656	1.29	1289.8	regulate	Run2	regulate/STIM_019.jpg	99
1231.304	1.836	1835.8	regulate	Run2	regulate/STIM_019.jpg	100
1237.088	1.394	1394.0	regulate	Run2	regulate/STIM_019.jpg	99
1242.347	1.474	1473.6	regulate	Run2	regulate/STIM_020.jpg	99
1247.431	1.197	1197.2	regulate	Run2	regulate/STIM_020.jpg	100
1252.295	0.866	866.1	regulate	Run2	regulate/STIM_020.jpg	99
1256.26	1.395	1395.1	regulate	Run2	regulate/STIM_020.jpg	100
1261.581	1.761	1761.0	regulate	Run2	regulate/STIM_021.jpg	99
1266.615	1.903	1902.7	regulate	Run2	regulate/STIM_021.jpg	99
1270.802	1.297	1296.9	regulate	Run2	regulate/STIM_021.jpg	100
1274.386	1.095	1095.3	regulate	Run2	regulate/STIM_021.jpg	99
1277.833	1.616	1615.9	regulate	Run2	regulate/STIM_022.jpg	100
1283.404	1.788	1787.6	regulate	Run2	regulate/STIM_022.jpg	100
1288.588	1.374	1374.5	regulate	Run2	regulate/STIM_022.jpg	100
1292.984	1.389	1389.2	regulate	Run2	regulate/STIM_022.jpg	99
1298.164	1.552	1552.3	regulate	Run2	regulate/STIM_023.jpg	100
1301.869	1.457	1457.2	regulate	Run2	regulate/STIM_023.jpg	99
1306.94	0.921	920.7	regulate	Run2	regulate/STIM_023.jpg	99
1310.191	1.661	1661.1	regulate	Run2	regulate/STIM_023.jpg	99
1315.628	2.2	2200.0	regulate	Run2	regulate/STIM_024.jpg	99
1320.757	1.5	1500.4	regulate	Run2	regulate/STIM_024.jpg	99
1326.096	1.124	1123.8	regulate	Run2	regulate/STIM_024.jpg	100
1330.882	1.776	1776.2	regulate	Run2	regulate/STIM_024.jpg	99
1334.869	1.002	1001.9	regulate	Run2	regulate/STIM_025.jpg	99
1337.996	1.461	1460.7	regulate	Run2	regulate/STIM_025.jpg	100
1342.143	1.214	1213.7	regulate	Run2	regulate/STIM_025.jpg	100
1347.026	1.805	1804.9	regulate	Run2	regulate/STIM_025.jpg	99
1352.516	1.99	1989.9	regulate	Run2	regulate/STIM_026.jpg	100
1356.571	1.132	1131.8	regulate	Run2	regulate/STIM_026.jpg	99
1359.833	1.013	1013.3	regulate	Run2	regulate/STIM_026.jpg	100
1362.863	1.66	1660.5	regulate	Run2	regulate/STIM_026.jpg	99
1367.018	1.443	1443.3	regulate	Run2	regulate/STIM_027.jpg	100
1370.991	1.266	1265.8	regulate	Run2	regulate/STIM_027.jpg	100
1376.067	1.386	1386.1	regulate	Run2	regulate/STIM_027.jpg	100
1379.657	0.883	882.8	regulate	Run2	regulate/STIM_027.jpg	100
1382.808	2.24	2240.1	regulate	Run2	regulate/STIM_028.jpg	99
1388.748	1.263	1263.1	regulate	Run2	regulate/STIM_028.jpg	99
1392.198	1.787	1787.3	regulate	Run2	regulate/STIM_028.jpg	99
1396.924	1.504	1503.6	regulate	Run2	regulate/STIM_028.jpg	99
1401.751	1.867	1867.4	regulate	Run2	regulate/STIM_029.jpg	100
1407.591	1.136	1136.4	regulate	Run2	regulate/STIM_029.jpg	99
1412.33	1.772	1772.2	regulate	Run2	regulate/STIM_029.jpg	100
1416.577	1.153	1153.1	regulate	Run2	regulate/STIM_029.jpg	100
1419.787	1.113	1112.7	observe	Run2	observe/STIM_000.jpg	100
1423.557	1.064	1063.5	observe	Run2	observe/STIM_000.jpg	100
1428.051	1.213	1212.8	observe	Run2	observe/STIM_000.jpg	99
1432.392	0.739	739.3	observe	Run2	observe/STIM_000.jpg	100
1435.987	1.083	1082.8	observe	Run2	observe/STIM_001.jpg	99
1440.5	0.722	722.3	observe	Run2	observe/STIM_001.jpg	100
1444.073	0.948	948.3	observe	Run2	observe/STIM_001.jpg	100
1447.856	1.041	1040.7	observe	Run2	observe/STIM_001.jpg	100
1452.19	0.941	940.7	observe	Run2	observe/STIM_002.jpg	99
1456.558	0.999	999.0	observe	Run2	observe/STIM_002.jpg	99
1460.227	1.016	1016.1	observe	Run2	observe/STIM_002.jpg	99
1464.04	0.663	662.6	observe	Run2	observe/STIM_002.jpg	99
1467.048	0.686	685.8	observe	Run2	observe/STIM_003.jpg	100
1470.438	1.202	1202.5	observe	Run2	observe/STIM_003.jpg	100
1474.658	1.137	1136.7	observe	Run2	observe/STIM_003.jpg	99
1478.545	1.115	1114.7	observe	Run2	observe/STIM_003.jpg	99
1481.795	0.682	681.6	observe	Run2	observe/STIM_004.jpg	99
1484.777	0.868	867.8	observe	Run2	observe/STIM_004.jpg	100
1489.192	0.827	827.3	observe	Run2	observe/STIM_004.jpg	100
1492.837	0.713	713.1	observe	Run2	observe/STIM_004.jpg	99
1496.326	1.206	1205.7	observe	Run2	observe/STIM_005.jpg	100
1500.895	0.676	675.8	observe	Run2	observe/STIM_005.jpg	99
1505.466	1.15	1150.4	observe	Run2	observe/STIM_005.jpg	99
1509.9	0.799	799.4	observe	Run2	observe/STIM_005.jpg	100
1513.003	0.798	798.2	observe	Run2	observe/STIM_006.jpg	100
1517.697	0.618	617.5	observe	Run2	observe/STIM_006.jpg	99
1522.118	1.208	1207.6	observe	Run2	observe/STIM_006.jpg	100
1525.787	0.991	991.0	observe	Run2	observe/STIM_006.jpg	100
1529.94	0.771	771.1	observe	Run2	observe/STIM_007.jpg	99
1534.576	0.741	741.0	observe	Run2	observe/STIM_007.jpg	99
1539.097	1.2	1200.2	observe	Run2	observe/STIM_007.jpg	99
1543.033	0.724	723.8	observe	Run2	observe/STIM_007.jpg	99
1546.254	1.152	1151.9	observe	Run2	observe/STIM_008.jpg	99
1550.963	0.753	753.4	observe	Run2	observe/STIM_008.jpg	99
1553.797	0.674	674.3	observe	Run2	observe/STIM_008.jpg	99
1557.403	1.092	1092.0	observe	Run2	observe/STIM_008.jpg	99
1560.784	0.932	932.5	observe	Run2	observe/STIM_009.jpg	99
1564.372	1.123	1122.7	observe	Run2	observe/STIM_009.jpg	100
1569.285	1.098	1098.3	observe	Run2	observe/STIM_009.jpg	99
1572.865	0.857	856.6	observe	Run2	observe/STIM_009.jpg	100
1576.877	0.993	992.9	observe	Run2	observe/STIM_010.jpg	99
1581.452	0.859	859.2	observe	Run2	observe/STIM_010.jpg	99
1585.436	1.109	1108.8	observe	Run2	observe/STIM_010.jpg	99
1589.045	1.016	1016.5	observe	Run2	observe/STIM_010.jpg	99
1593.799	0.857	856.9	observe	Run2	observe/STIM_011.jpg	100
1596.777	0.838	838.0	observe	Run2	observe/STIM_011.jpg	100
1601.51	0.677	676.9	observe	Run2	observe/STIM_011.jpg	99
1605.982	0.764	763.8	observe	Run2	observe/STIM_011.jpg	99
1608.856	0.976	976.3	observe	Run2	observe/STIM_012.jpg	99
1613.372	0.634	633.8	observe	Run2	observe/STIM_012.jpg	100
1617.174	0.971	970.9	observe	Run2	observe/STIM_012.jpg	100
1621.331	0.812	811.9	observe	Run2	observe/STIM_012.jpg	100
1625.838	0.708	708.1	observe	Run2	observe/STIM_013.jpg	100
1629.8	0.809	809.4	observe	Run2	observe/STIM_013.jpg	99
1634.061	1.051	1051.1	observe	Run2	observe/STIM_013.jpg	99
1638.008	0.788	788.4	observe	Run2	observe/STIM_013.jpg	100
1642.694	1.084	1084.3	observe	Run2	observe/STIM_014.jpg	100
1646.586	1.115	1114.9	observe	Run2	observe/STIM_014.jpg	99
1651.069	0.731	731.2	observe	Run2	observe/STIM_014.jpg	100
1655.427	0.849	849.0	observe	Run2	observe/STIM_014.jpg	100
1659.897	0.99	990.0	observe	Run2	observe/STIM_015.jpg	99
1664.588	0.652	652.4	observe	Run2	observe/STIM_015.jpg	100
1668.961	0.633	632.7	observe	Run2	observe/STIM_015.jpg	100
1673.087	0.763	762.9	observe	Run2	observe/STIM_015.jpg	100
1677.639	0.868	868.1	observe	Run2	observe/STIM_016.jpg	100
1681.427	0.989	989.3	observe	Run2	observe/STIM_016.jpg	100
1684.748	1.021	1021.4	observe	Run2	observe/STIM_016.jpg	100
1688.2	1.159	1159.1	observe	Run2	observe/STIM_016.jpg	99
1691.623	0.943	942.7	observe	Run2	observe/STIM_017.jpg	99
1695.66	0.822	821.9	observe	Run2	observe/STIM_017.jpg	100
1698.586	0.975	974.8	observe	Run2	observe/STIM_017.jpg	99
1701.646	0.939	939.3	observe	Run2	observe/STIM_017.jpg	100
1705.359	0.83	830.5	observe	Run2	observe/STIM_018.jpg	100
1708.899	0.976	976.5	observe	Run2	observe/STIM_018.jpg	99
1712.99	1.017	1017.0	observe	Run2	observe/STIM_018.jpg	100
1716.063	0.782	782.2	observe	Run2	observe/STIM_018.jpg	99
1720.548	1.141	1140.7	observe	Run2	observe/STIM_019.jpg	100
1725.497	1.045	1045.1	observe	Run2	observe/STIM_019.jpg	100
1728.834	0.937	937.0	observe	Run2	observe/STIM_019.jpg	100
1733.66	1.15	1150.3	observe	Run2	observe/STIM_019.jpg	99
1737.737	1.832	1831.8	regulate	Run3	regulate/STIM_000.jpg	100
1741.974	1.147	1147.3	regulate	Run3	regulate/STIM_000.jpg	100
1746.631	0.958	958.1	regulate	Run3	regulate/STIM_000.jpg	100
1751.052	0.996	996.3	regulate	Run3	regulate/STIM_000.jpg	100
1755.315	1.404	1404.0	regulate	Run3	regulate/STIM_001.jpg	99
1759.541	1.593	1592.7	regulate	Run3	regulate/STIM_001.jpg	100
1764.681	1.796	1796.3	regulate	Run3	regulate/STIM_001.jpg	100
1769.926	1.772	1772.0	regulate	Run3	regulate/STIM_001.jpg	99
1774.391	1.505	1505.1	regulate	Run3	regulate/STIM_002.jpg	100
1779.138	1.063	1063.1	regulate	Run3	regulate/STIM_002.jpg	100
1784.14	1.796	1796.0	regulate	Run3	regulate/STIM_002.jpg	99
1789.313	0.877	876.6	regulate	Run3	regulate/STIM_002.jpg	100
1792.307	1.203	1203.0	regulate	Run3	regulate/STIM_003.jpg	99
1796.124	1.832	1831.9	regulate	Run3	regulate/STIM_003.jpg	99
1801.808	0.974	973.5	regulate	Run3	regulate/STIM_003.jpg	99
1804.857	0.919	919.4	regulate	Run3	regulate/STIM_003.jpg	99
1808.11	1.436	1435.6	regulate	Run3	regulate/STIM_004.jpg	99
1811.851	1.688	1688.2	regulate	Run3	regulate/STIM_004.jpg	100
1815.694	1.747	1746.8	regulate	Run3	regulate/STIM_004.jpg	99
1820.507	1.707	1706.7	regulate	Run3	regulate/STIM_004.jpg	99
1824.375	1.601	1600.9	regulate	Run3	regulate/STIM_005.jpg	99
1828.539	1.824	1823.5	regulate	Run3	regulate/STIM_005.jpg	99
1832.805	0.862	862.0	regulate	Run3	regulate/STIM_005.jpg	99
1837.064	1.469	1469.2	regulate	Run3	regulate/STIM_005.jpg	99
1840.746	1.859	1858.6	regulate	Run3	regulate/STIM_006.jpg	99
1845.004	1.746	1745.8	regulate	Run3	regulate/STIM_006.jpg	100
1850.061	0.913	912.6	regulate	Run3	regulate/STIM_006.jpg	99
1853.96	1.539	1539.1	regulate	Run3	regulate/STIM_006.jpg	99
1859.306	1.242	1242.0	regulate	Run3	regulate/STIM_007.jpg	99
1863.924	0.869	869.1	regulate	Run3	regulate/STIM_007.jpg	99
1867.07	1.282	1282.3	regulate	Run3	regulate/STIM_007.jpg	99
1872.303	1.217	1216.6	regulate	Run3	regulate/STIM_007.jpg	100
1877.18	1.289	1288.6	regulate	Run3	regulate/STIM_008.jpg	99
1882.106	1.099	1098.6	regulate	Run3	regulate/STIM_008.jpg	100
1885.591	1.801	1801.2	regulate	Run3	regulate/STIM_008.jpg	100
1891.28	1.631	1631.3	regulate	Run3	regulate/STIM_008.jpg	99
1895.751	1.718	1717.8	regulate	Run3	regulate/STIM_009.jpg	100
1899.723	0.847	847.3	regulate	Run3	regulate/STIM_009.jpg	99
1902.708	1.067	1067.3	regulate	Run3	regulate/STIM_009.jpg	99
1906.06	1.155	1155.4	regulate	Run3	regulate/STIM_009.jpg	100
1910.506	1.473	1473.2	regulate	Run3	regulate/STIM_010.jpg	100
1914.358	1.688	1687.6	regulate	Run3	regulate/STIM_010.jpg	99
1919.514	1.774	1773.5	regulate	Run3	regulate/STIM_010.jpg	99
1924.804	1.53	1529.7	regulate	Run3	regulate/STIM_010.jpg	100
1928.569	1.634	1634.1	regulate	Run3	regulate/STIM_011.jpg	99
1932.899	1.667	1667.1	regulate	Run3	regulate/STIM_011.jpg	100
1938.189	1.425	1424.9	regulate	Run3	regulate/STIM_011.jpg	100
1942.909	1.759	1758.6	regulate	Run3	regulate/STIM_011.jpg	99
1948.185	1.759	1758.8	regulate	Run3	regulate/STIM_012.jpg	99
1953.653	1.02	1020.1	regulate	Run3	regulate/STIM_012.jpg	99
1957.038	1.16	1159.8	regulate	Run3	regulate/STIM_012.jpg	100
1961.784	1.158	1158.1	regulate	Run3	regulate/STIM_012.jpg	99
1965.923	0.798	798.3	regulate	Run3	regulate/STIM_013.jpg	99
1969.564	1.088	1088.2	regulate	Run3	regulate/STIM_013.jpg	100
1973.01	0.868	867.5	regulate	Run3	regulate/STIM_013.jpg	100
1976.023	1.157	1157.3	regulate	Run3	regulate/STIM_013.jpg	100
1979.754	1.858	1857.7	regulate	Run3	regulate/STIM_014.jpg	100
1985.343	1.287	1287.4	regulate	Run3	regulate/STIM_014.jpg	100
1989.377	1.446	1446.5	regulate	Run3	regulate/STIM_014.jpg	99
1993.011	1.368	1368.2	regulate	Run3	regulate/STIM_014.jpg	100
1997.051	0.879	879.0	regulate	Run3	regulate/STIM_015.jpg	100
2001.519	1.302	1301.5	regulate	Run3	regulate/STIM_015.jpg	100
2005.665	1.697	1697.3	regulate	Run3	regulate/STIM_015.jpg	100
2010.86	1.291	1291.0	regulate	Run3	regulate/STIM_015.jpg	99
2014.198	1.254	1253.6	regulate	Run3	regulate/STIM_016.jpg	99
2019.157	1.671	1671.1	regulate	Run3	regulate/STIM_016.jpg	99
2024.38	1.029	1029.3	regulate	Run3	regulate/STIM_016.jpg	100
2028.519	1.61	1610.4	regulate	Run3	regulate/STIM_016.jpg	99
2033.965	1.127	1126.8	regulate	Run3	regulate/STIM_017.jpg	99
2038.581	1.529	1529.3	regulate	Run3	regulate/STIM_017.jpg	100
2042.324	1.05	1049.7	regulate	Run3	regulate/STIM_017.jpg	99
2045.873	1.04	1040.5	regulate	Run3	regulate/STIM_017.jpg	100
2050.831	1.117	1116.8	regulate	Run3	regulate/STIM_018.jpg	100
2054.765	1.071	1070.8	regulate	Run3	regulate/STIM_018.jpg	99
2059.782	1.637	1636.6	regulate	Run3	regulate/STIM_018.jpg	99
2064.978	1.373	1373.2	regulate	Run3	regulate/STIM_018.jpg	99
2069.361	1.698	1698.0	regulate	Run3	regulate/STIM_019.jpg	99
2074.698	0.801	800.8	regulate	Run3	regulate/STIM_019.jpg	100
2077.955	1.562	1562.2	regulate	Run3	regulate/STIM_019.jpg	99
2082.914	1.113	1113.2	regulate	Run3	regulate/STIM_019.jpg	99
2086.336	1.643	1642.9	regulate	Run3	regulate/STIM_020.jpg	100
2091.897	1.649	1649.2	regulate	Run3	regulate/STIM_020.jpg	99
2096.874	1.805	1805.2	regulate	Run3	regulate/STIM_020.jpg	99
2101.735	1.689	1689.4	regulate	Run3	regulate/STIM_020.jpg	99
2106.105	1.858	1858.0	regulate	Run3	regulate/STIM_021.jpg	99
2111.259	1.752	1752.5	regulate	Run3	regulate/STIM_021.jpg	100
2116.398	1.54	1540.0	regulate	Run3	regulate/STIM_021.jpg	100
2121.064	1.298	1298.2	regulate	Run3	regulate/STIM_021.jpg	99
2124.714	1.643	1643.4	regulate	Run3	regulate/STIM_022.jpg	99
2128.509	1.399	1398.7	regulate	Run3	regulate/STIM_022.jpg	100
2133.531	1.51	1509.7	regulate	Run3	regulate/STIM_022.jpg	99
2138.661	1.215	1214.8	regulate	Run3	regulate/STIM_022.jpg	99
2141.982	1.218	1217.8	regulate	Run3	regulate/STIM_023.jpg	99
2146.817	1.392	1391.9	regulate	Run3	regulate/STIM_023.jpg	99
2150.528	1.81	1809.5	regulate	Run3	regulate/STIM_023.jpg	100
2154.816	1.169	1168.7	regulate	Run3	regulate/STIM_023.jpg	99
2159.629	1.581	1581.2	regulate	Run3	regulate/STIM_024.jpg	99
2164.918	1.086	1086.0	regulate	Run3	regulate/STIM_024.jpg	99
2169.627	1.384	1383.6	regulate	Run3	regulate/STIM_024.jpg	100
2173.397	1.648	1648.4	regulate	Run3	regulate/STIM_024.jpg	100
2178.243	1.568	1568.2	regulate	Run3	regulate/STIM_025.jpg	100
2183.101	1.342	1342.5	regulate	Run3	regulate/STIM_025.jpg	100
2186.611	1.091	1091.0	regulate	Run3	regulate/STIM_025.jpg	100
2190.521	1.338	1337.5	regulate	Run3	regulate/STIM_025.jpg	100
2193.953	1.72	1719.6	regulate	Run3	regulate/STIM_026.jpg	100
2199.622	1.758	1758.5	regulate	Run3	regulate/STIM_026.jpg	99
2203.497	1.854	1854.3	regulate	Run3	regulate/STIM_026.jpg	100
2208.247	0.918	918.3	regulate	Run3	regulate/STIM_026.jpg	99
2211.364	1.085	1085.3	regulate	Run3	regulate/STIM_027.jpg	100
2215.706	1.619	1619.0	regulate	Run3	regulate/STIM_027.jpg	99
2221.02	1.593	1592.9	regulate	Run3	regulate/STIM_027.jpg	100
2225.409	1.149	1149.4	regulate	Run3	regulate/STIM_027.jpg	100
2229.24	0.86	859.5	regulate	Run3	regulate/STIM_028.jpg	100
2233.591	0.888	887.7	regulate	Run3	regulate/STIM_028.jpg	100
2236.765	1.204	1203.6	regulate	Run3	regulate/STIM_028.jpg	100
2241.318	1.321	1321.1	regulate	Run3	regulate/STIM_028.jpg	99
2246.39	1.612	1612.3	regulate	Run3	regulate/STIM_029.jpg	99
2250.978	0.979	978.8	regulate	Run3	regulate/STIM_029.jpg	100
2254.989	1.605	1605.0	regulate	Run3	regulate/STIM_029.jpg	99
2260.115	1.036	1036.5	regulate	Run3	regulate/STIM_029.jpg	99
2263.359	0.776	776.5	observe	Run3	observe/STIM_000.jpg	100
2266.166	0.661	661.4	observe	Run3	observe/STIM_000.jpg	99
2270.282	1.202	1202.1	observe	Run3	observe/STIM_000.jpg	100
2274.65	0.886	886.4	observe	Run3	observe/STIM_000.jpg	99
2277.711	1.074	1074.5	observe	Run3	observe/STIM_001.jpg	99
2281.632	0.925	925.4	observe	Run3	observe/STIM_001.jpg	99
2285.564	0.632	632.5	observe	Run3	observe/STIM_001.jpg	99
2289.572	1.132	1131.5	observe	Run3	observe/STIM_001.jpg	99
2294.66	0.739	738.8	observe	Run3	observe/STIM_002.jpg	99
2298.885	0.784	784.5	observe	Run3	observe/STIM_002.jpg	99
2302.703	0.672	671.7	observe	Run3	observe/STIM_002.jpg	99
2306.61	0.776	775.7	observe	Run3	observe/STIM_002.jpg	100
2311.063	1.13	1129.8	observe	Run3	observe/STIM_003.jpg	99
2314.367	1.108	1108.4	observe	Run3	observe/STIM_003.jpg	99
2318.835	0.645	645.0	observe	Run3	observe/STIM_003.jpg	99
2322.924	1.143	1142.8	observe	Run3	observe/STIM_003.jpg	100
2326.119	0.827	826.6	observe	Run3	observe/STIM_004.jpg	100
2329.492	1.018	1017.7	observe	Run3	observe/STIM_004.jpg	100
2334.005	0.928	927.9	observe	Run3	observe/STIM_004.jpg	99
2338.898	0.661	661.1	observe	Run3	observe/STIM_004.jpg	99
2341.751	0.95	950.2	observe	Run3	observe/STIM_005.jpg	100
2345.372	0.801	800.6	observe	Run3	observe/STIM_005.jpg	99
2349.975	0.636	636.2	observe	Run3	observe/STIM_005.jpg	99
2353.851	0.708	707.6	observe	Run3	observe/STIM_005.jpg	99
2357.68	1.101	1100.6	observe	Run3	observe/STIM_006.jpg	99
2362.487	0.887	886.6	observe	Run3	observe/STIM_006.jpg	99
2366.789	0.874	874.3	observe	Run3	observe/STIM_006.jpg	100
2370.922	0.86	859.8	observe	Run3	observe/STIM_006.jpg	100
2373.998	1.03	1029.7	observe	Run3	observe/STIM_007.jpg	100
2378.786	0.825	825.1	observe	Run3	observe/STIM_007.jpg	99
2383.165	1.069	1068.6	observe	Run3	observe/STIM_007.jpg	99
2386.636	1.177	1176.7	observe	Run3	observe/STIM_007.jpg	99
2391.518	0.866	865.9	observe	Run3	observe/STIM_008.jpg	100
2396.093	0.821	821.1	observe	Run3	observe/STIM_008.jpg	100
2399.064	0.882	882.2	observe	Run3	observe/STIM_008.jpg	99
2402.196	0.997	997.0	observe	Run3	observe/STIM_008.jpg	100
2405.876	0.887	886.8	observe	Run3	observe/STIM_009.jpg	100
2410.683	1.123	1123.3	observe	Run3	observe/STIM_009.jpg	99
2414.489	0.628	627.9	observe	Run3	observe/STIM_009.jpg	99
2417.58	0.846	845.8	observe	Run3	observe/STIM_009.jpg	99
2422.367	0.956	955.5	observe	Run3	observe/STIM_010.jpg	99
2427.016	0.672	671.5	observe	Run3	observe/STIM_010.jpg	100
2430.364	0.962	961.9	observe	Run3	observe/STIM_010.jpg	99
2433.574	0.917	917.1	observe	Run3	observe/STIM_010.jpg	99
2436.757	0.776	776.4	observe	Run3	observe/STIM_011.jpg	100
2440.797	0.95	950.2	observe	Run3	observe/STIM_011.jpg	100
2444.07	0.916	915.7	observe	Run3	observe/STIM_011.jpg	99
2447.376	0.649	649.1	observe	Run3	observe/STIM_011.jpg	99
2450.683	1.149	1149.0	observe	Run3	observe/STIM_012.jpg	99
2454.973	0.991	991.3	observe	Run3	observe/STIM_012.jpg	99
2459.375	0.675	674.9	observe	Run3	observe/STIM_012.jpg	99
2463.461	0.619	619.0	observe	Run3	observe/STIM_012.jpg	99
2467.172	0.839	838.7	observe	Run3	observe/STIM_013.jpg	100
2471.674	1.055	1054.8	observe	Run3	observe/STIM_013.jpg	100
2476.599	0.807	806.9	observe	Run3	observe/STIM_013.jpg	100
2481.13	0.854	853.8	observe	Run3	observe/STIM_013.jpg	99
2485.95	0.968	968.1	observe	Run3	observe/STIM_014.jpg	100
2489.848	1.204	1203.7	observe	Run3	observe/STIM_014.jpg	99
2493.167	0.836	836.0	observe	Run3	observe/STIM_014.jpg	100
2496.594	0.926	926.1	observe	Run3	observe/STIM_014.jpg	99
2499.989	1.087	1087.0	observe	Run3	observe/STIM_015.jpg	99
2504.247	0.815	815.4	observe	Run3	observe/STIM_015.jpg	100
2507.132	1.161	1161.4	observe	Run3	observe/STIM_015.jpg	100
2511.117	1.08	1079.9	observe	Run3	observe/STIM_015.jpg	99
2514.928	1.187	1186.8	observe	Run3	observe/STIM_016.jpg	100
2519.668	0.858	857.7	observe	Run3	observe/STIM_016.jpg	99
2522.942	0.609	609.3	observe	Run3	observe/STIM_016.jpg	100
2526.472	0.712	712.1	observe	Run3	observe/STIM_016.jpg	100
2529.438	0.649	649.2	observe	Run3	observe/STIM_017.jpg	99
2532.148	0.689	689.4	observe	Run3	observe/STIM_017.jpg	99
2535.611	0.787	786.8	observe	Run3	observe/STIM_017.jpg	99
2538.706	0.886	885.5	observe	Run3	observe/STIM_017.jpg	100
2542.231	1.109	1108.8	observe	Run3	observe/STIM_018.jpg	100
2546.269	0.737	737.4	observe	Run3	observe/STIM_018.jpg	99
2550.572	0.848	847.7	observe	Run3	observe/STIM_018.jpg	100
2554.224	1.158	1158.5	observe	Run3	observe/STIM_018.jpg	100
2558.08	0.96	959.5	observe	Run3	observe/STIM_019.jpg	99
2562.141	0.921	921.0	observe	Run3	observe/STIM_019.jpg	99
2565.37	0.956	955.9	observe	Run3	observe/STIM_019.jpg	99
2569.028	0.817	817.2	observe	Run3	observe/STIM_019.jpg	99
