onset	duration	accuracy	trial_type	learning_stage	stimulus
0.0	1.636	correct	generate	Run1	generate/STIM_000.jpg
4.967	2.44	incorrect	generate	Run1	generate/STIM_000.jpg
9.874	1.788	incorrect	generate	Run1	generate/STIM_000.jpg
15.123	1.485	incorrect	generate	Run1	generate/STIM_000.jpg
20.669	1.045	incorrect	generate	Run1	generate/STIM_000.jpg
24.127	1.66	incorrect	generate	Run1	generate/STIM_001.jpg
28.197	1.223	correct	generate	Run1	generate/STIM_001.jpg
32.535	1.65	correct	generate	Run1	generate/STIM_001.jpg
38.321	2.022	correct	generate	Run1	generate/STIM_001.jpg
43.493	1.928	correct	generate	Run1	generate/STIM_001.jpg
47.742	1.785	correct	generate	Run1	generate/STIM_002.jpg
53.196	1.407	correct	generate	Run1	generate/STIM_002.jpg
58.443	1.263	correct	generate	Run1	generate/STIM_002.jpg
62.265	1.612	correct	generate	Run1	generate/STIM_002.jpg
66.992	1.938	correct	generate	Run1	generate/STIM_002.jpg
72.655	2.401	correct	generate	Run1	generate/STIM_003.jpg
77.998	1.805	correct	generate	Run1	generate/STIM_003.jpg
83.112	1.249	correct	generate	Run1	generate/STIM_003.jpg
88.024	1.355	correct	generate	Run1	generate/STIM_003.jpg
92.438	1.156	incorrect	generate	Run1	generate/STIM_003.jpg
96.007	1.56	correct	generate	Run1	generate/STIM_004.jpg
100.214	1.286	correct	generate	Run1	generate/STIM_004.jpg
104.294	1.018	correct	generate	Run1	generate/STIM_004.jpg
108.498	1.484	correct	generate	Run1	generate/STIM_004.jpg
112.804	1.291	incorrect	generate	Run1	generate/STIM_004.jpg
117.449	2.229	incorrect	generate	Run1	generate/STIM_005.jpg
122.818	2.437	correct	generate	Run1	generate/STIM_005.jpg
127.935	1.393	incorrect	generate	Run1	generate/STIM_005.jpg
133.493	1.689	correct	generate	Run1	generate/STIM_005.jpg
137.543	2.092	correct	generate	Run1	generate/STIM_005.jpg
143.857	1.214	correct	generate	Run1	generate/STIM_006.jpg
148.64	1.589	correct	generate	Run1	generate/STIM_006.jpg
153.719	1.793	incorrect	generate	Run1	generate/STIM_006.jpg
158.493	1.069	correct	generate	Run1	generate/STIM_006.jpg
163.281	1.336	correct	generate	Run1	generate/STIM_006.jpg
168.227	2.217	incorrect	generate	Run1	generate/STIM_007.jpg
173.056	1.972	correct	generate	Run1	generate/STIM_007.jpg
178.586	2.062	correct	generate	Run1	generate/STIM_007.jpg
183.216	2.057	incorrect	generate	Run1	generate/STIM_007.jpg
189.228	1.593	incorrect	generate	Run1	generate/STIM_007.jpg
194.283	1.38	incorrect	generate	Run1	generate/STIM_008.jpg
198.951	2.187	correct	generate	Run1	generate/STIM_008.jpg
205.147	1.251	correct	generate	Run1	generate/STIM_008.jpg
208.817	1.069	incorrect	generate	Run1	generate/STIM_008.jpg
212.685	1.858	correct	generate	Run1	generate/STIM_008.jpg
217.146	2.568	correct	generate	Run1	generate/STIM_009.jpg
223.146	1.182	incorrect	generate	Run1	generate/STIM_009.jpg
226.549	1.827	incorrect	generate	Run1	generate/STIM_009.jpg
232.067	1.199	correct	generate	Run1	generate/STIM_009.jpg
236.359	0.926	correct	generate	Run1	generate/STIM_009.jpg
241.047	2.47	correct	generate	Run1	generate/STIM_010.jpg
246.459	1.719	correct	generate	Run1	generate/STIM_010.jpg
251.615	1.033	correct	generate	Run1	generate/STIM_010.jpg
256.621	2.055	correct	generate	Run1	generate/STIM_010.jpg
260.999	1.062	correct	generate	Run1	generate/STIM_010.jpg
265.294	2.579	correct	generate	Run1	generate/STIM_011.jpg
270.501	1.223	incorrect	generate	Run1	generate/STIM_011.jpg
275.848	1.588	correct	generate	Run1	generate/STIM_011.jpg
280.084	1.462	correct	generate	Run1	generate/STIM_011.jpg
284.711	1.881	correct	generate	Run1	generate/STIM_011.jpg
289.414	2.459	correct	generate	Run1	generate/STIM_012.jpg
295.057	2.085	correct	generate	Run1	generate/STIM_012.jpg
300.173	1.262	correct	generate	Run1	generate/STIM_012.jpg
304.26	0.954	incorrect	generate	Run1	generate/STIM_012.jpg
309.335	1.144	incorrect	generate	Run1	generate/STIM_012.jpg
314.562	1.39	correct	generate	Run1	generate/STIM_013.jpg
319.788	1.297	incorrect	generate	Run1	generate/STIM_013.jpg
324.761	0.99	correct	generate	Run1	generate/STIM_013.jpg
329.544	1.129	correct	generate	Run1	generate/STIM_013.jpg
333.139	1.341	correct	generate	Run1	generate/STIM_013.jpg
336.753	1.189	correct	generate	Run1	generate/STIM_014.jpg
340.529	1.437	correct	generate	Run1	generate/STIM_014.jpg
344.173	1.659	correct	generate	Run1	generate/STIM_014.jpg
348.387	1.155	correct	generate	Run1	generate/STIM_014.jpg
353.392	1.65	correct	generate	Run1	generate/STIM_014.jpg
358.122	2.564	incorrect	generate	Run1	generate/STIM_015.jpg
363.94	1.552	correct	generate	Run1	generate/STIM_015.jpg
369.254	2.235	correct	generate	Run1	generate/STIM_015.jpg
375.14	1.356	incorrect	generate	Run1	generate/STIM_015.jpg
379.286	1.21	correct	generate	Run1	generate/STIM_015.jpg
383.337	2.27	correct	generate	Run1	generate/STIM_016.jpg
389.861	1.564	correct	generate	Run1	generate/STIM_016.jpg
393.841	1.897	correct	generate	Run1	generate/STIM_016.jpg
398.395	1.877	correct	generate	Run1	generate/STIM_016.jpg
403.019	1.313	correct	generate	Run1	generate/STIM_016.jpg
407.635	1.233	incorrect	generate	Run1	generate/STIM_017.jpg
411.806	2.068	incorrect	generate	Run1	generate/STIM_017.jpg
417.907	1.164	correct	generate	Run1	generate/STIM_017.jpg
422.288	1.26	correct	generate	Run1	generate/STIM_017.jpg
426.617	1.173	incorrect	generate	Run1	generate/STIM_017.jpg
430.372	1.523	incorrect	generate	Run1	generate/STIM_018.jpg
435.571	1.57	correct	generate	Run1	generate/STIM_018.jpg
440.115	1.858	correct	generate	Run1	generate/STIM_018.jpg
444.432	0.938	correct	generate	Run1	generate/STIM_018.jpg
447.577	1.339	correct	generate	Run1	generate/STIM_018.jpg
451.595	1.838	correct	generate	Run1	generate/STIM_019.jpg
457.584	2.124	correct	generate	Run1	generate/STIM_019.jpg
463.992	2.053	correct	generate	Run1	generate/STIM_019.jpg
469.62	1.295	incorrect	generate	Run1	generate/STIM_019.jpg
474.506	0.916	incorrect	generate	Run1	generate/STIM_019.jpg
478.13	1.834	incorrect	generate	Run1	generate/STIM_020.jpg
484.088	2.15	incorrect	generate	Run1	generate/STIM_020.jpg
490.004	1.164	correct	generate	Run1	generate/STIM_020.jpg
493.534	2.196	correct	generate	Run1	generate/STIM_020.jpg
499.289	1.112	correct	generate	Run1	generate/STIM_020.jpg
504.267	1.458	correct	generate	Run1	generate/STIM_021.jpg
508.255	2.055	correct	generate	Run1	generate/STIM_021.jpg
514.496	1.561	correct	generate	Run1	generate/STIM_021.jpg
519.243	1.022	correct	generate	Run1	generate/STIM_021.jpg
524.151	1.99	correct	generate	Run1	generate/STIM_021.jpg
528.802	2.399	correct	generate	Run1	generate/STIM_022.jpg
534.359	2.049	correct	generate	Run1	generate/STIM_022.jpg
540.132	1.49	correct	generate	Run1	generate/STIM_022.jpg
544.983	1.396	incorrect	generate	Run1	generate/STIM_022.jpg
550.447	1.126	correct	generate	Run1	generate/STIM_022.jpg
554.612	1.864	correct	generate	Run1	generate/STIM_023.jpg
558.772	1.121	correct	generate	Run1	generate/STIM_023.jpg
562.754	1.521	correct	generate	Run1	generate/STIM_023.jpg
567.599	1.703	correct	generate	Run1	generate/STIM_023.jpg
571.985	1.067	correct	generate	Run1	generate/STIM_023.jpg
575.411	2.43	correct	generate	Run1	generate/STIM_024.jpg
580.756	1.554	correct	generate	Run1	generate/STIM_024.jpg
585.813	1.523	correct	generate	Run1	generate/STIM_024.jpg
590.773	2.082	correct	generate	Run1	generate/STIM_024.jpg
595.23	2.031	incorrect	generate	Run1	generate/STIM_024.jpg
600.893	0.703	correct	repeat	Run1	repeat/STIM_000.jpg
604.989	0.577	correct	repeat	Run1	repeat/STIM_000.jpg
609.11	0.616	correct	repeat	Run1	repeat/STIM_000.jpg
612.966	0.698	incorrect	repeat	Run1	repeat/STIM_000.jpg
615.834	0.53	correct	repeat	Run1	repeat/STIM_000.jpg
619.266	0.811	correct	repeat	Run1	repeat/STIM_001.jpg
624.024	0.774	correct	repeat	Run1	repeat/STIM_001.jpg
627.409	0.659	correct	repeat	Run1	repeat/STIM_001.jpg
630.785	0.772	correct	repeat	Run1	repeat/STIM_001.jpg
633.687	0.756	correct	repeat	Run1	repeat/STIM_001.jpg
637.642	0.736	correct	repeat	Run1	repeat/STIM_002.jpg
640.932	0.454	correct	repeat	Run1	repeat/STIM_002.jpg
643.951	0.695	correct	repeat	Run1	repeat/STIM_002.jpg
647.065	0.477	correct	repeat	Run1	repeat/STIM_002.jpg
650.702	0.675	correct	repeat	Run1	repeat/STIM_002.jpg
655.238	0.806	correct	repeat	Run1	repeat/STIM_003.jpg
658.888	0.786	correct	repeat	Run1	repeat/STIM_003.jpg
662.282	0.78	correct	repeat	Run1	repeat/STIM_003.jpg
665.601	0.779	correct	repeat	Run1	repeat/STIM_003.jpg
669.366	0.449	correct	repeat	Run1	repeat/STIM_003.jpg
673.481	0.585	correct	repeat	Run1	repeat/STIM_004.jpg
676.227	0.631	correct	repeat	Run1	repeat/STIM_004.jpg
679.99	0.657	correct	repeat	Run1	repeat/STIM_004.jpg
683.549	0.543	correct	repeat	Run1	repeat/STIM_004.jpg
687.927	0.75	correct	repeat	Run1	repeat/STIM_004.jpg
691.533	0.676	correct	repeat	Run1	repeat/STIM_005.jpg
696.023	0.479	correct	repeat	Run1	repeat/STIM_005.jpg
699.332	0.561	correct	repeat	Run1	repeat/STIM_005.jpg
703.287	0.867	correct	repeat	Run1	repeat/STIM_005.jpg
706.602	0.707	correct	repeat	Run1	repeat/STIM_005.jpg
710.981	0.728	correct	repeat	Run1	repeat/STIM_006.jpg
713.874	0.584	correct	repeat	Run1	repeat/STIM_006.jpg
717.692	0.508	correct	repeat	Run1	repeat/STIM_006.jpg
720.397	0.697	correct	repeat	Run1	repeat/STIM_006.jpg
724.21	0.762	correct	repeat	Run1	repeat/STIM_006.jpg
728.689	0.516	correct	repeat	Run1	repeat/STIM_007.jpg
733.178	0.581	correct	repeat	Run1	repeat/STIM_007.jpg
737.84	0.502	correct	repeat	Run1	repeat/STIM_007.jpg
742.077	0.551	correct	repeat	Run1	repeat/STIM_007.jpg
745.522	0.748	correct	repeat	Run1	repeat/STIM_007.jpg
749.323	0.726	correct	repeat	Run1	repeat/STIM_008.jpg
753.067	0.644	correct	repeat	Run1	repeat/STIM_008.jpg
757.654	0.58	correct	repeat	Run1	repeat/STIM_008.jpg
761.659	0.576	correct	repeat	Run1	repeat/STIM_008.jpg
764.696	0.574	correct	repeat	Run1	repeat/STIM_008.jpg
769.234	0.553	correct	repeat	Run1	repeat/STIM_009.jpg
773.54	0.849	correct	repeat	Run1	repeat/STIM_009.jpg
777.387	0.483	correct	repeat	Run1	repeat/STIM_009.jpg
780.732	0.739	correct	repeat	Run1	repeat/STIM_009.jpg
783.768	0.458	correct	repeat	Run1	repeat/STIM_009.jpg
786.563	0.771	correct	repeat	Run1	repeat/STIM_010.jpg
790.935	0.776	correct	repeat	Run1	repeat/STIM_010.jpg
794.923	0.863	correct	repeat	Run1	repeat/STIM_010.jpg
799.662	0.787	correct	repeat	Run1	repeat/STIM_010.jpg
802.794	0.686	correct	repeat	Run1	repeat/STIM_010.jpg
805.859	0.659	correct	repeat	Run1	repeat/STIM_011.jpg
809.45	0.626	correct	repeat	Run1	repeat/STIM_011.jpg
813.972	0.527	correct	repeat	Run1	repeat/STIM_011.jpg
818.064	0.677	correct	repeat	Run1	repeat/STIM_011.jpg
822.3	0.505	correct	repeat	Run1	repeat/STIM_011.jpg
825.424	0.632	correct	repeat	Run1	repeat/STIM_012.jpg
829.571	0.704	correct	repeat	Run1	repeat/STIM_012.jpg
833.757	0.615	correct	repeat	Run1	repeat/STIM_012.jpg
836.921	0.496	correct	repeat	Run1	repeat/STIM_012.jpg
841.141	0.611	correct	repeat	Run1	repeat/STIM_012.jpg
845.348	0.794	correct	repeat	Run1	repeat/STIM_013.jpg
849.705	0.451	correct	repeat	Run1	repeat/STIM_013.jpg
853.782	0.602	correct	repeat	Run1	repeat/STIM_013.jpg
856.937	0.449	correct	repeat	Run1	repeat/STIM_013.jpg
860.951	0.592	correct	repeat	Run1	repeat/STIM_013.jpg
863.74	0.445	correct	repeat	Run1	repeat/STIM_014.jpg
867.452	0.57	correct	repeat	Run1	repeat/STIM_014.jpg
871.196	0.806	correct	repeat	Run1	repeat/STIM_014.jpg
875.635	0.468	correct	repeat	Run1	repeat/STIM_014.jpg
880.124	0.495	correct	repeat	Run1	repeat/STIM_014.jpg
883.484	2.147	incorrect	generate	Run2	generate/STIM_000.jpg
889.348	1.676	correct	generate	Run2	generate/STIM_000.jpg
893.574	0.927	incorrect	generate	Run2	generate/STIM_000.jpg
896.779	1.491	correct	generate	Run2	generate/STIM_000.jpg
901.537	1.517	correct	generate	Run2	generate/STIM_000.jpg
905.677	1.189	correct	generate	Run2	generate/STIM_001.jpg
909.943	1.506	incorrect	generate	Run2	generate/STIM_001.jpg
914.246	0.827	correct	generate	Run2	generate/STIM_001.jpg
918.861	1.088	correct	generate	Run2	generate/STIM_001.jpg
923.388	1.053	correct	generate	Run2	generate/STIM_001.jpg
927.085	1.89	incorrect	generate	Run2	generate/STIM_002.jpg
932.596	1.688	incorrect	generate	Run2	generate/STIM_002.jpg
936.647	0.82	correct	generate	Run2	generate/STIM_002.jpg
941.239	0.841	correct	generate	Run2	generate/STIM_002.jpg
945.827	0.755	correct	generate	Run2	generate/STIM_002.jpg
950.303	1.98	correct	generate	Run2	generate/STIM_003.jpg
955.968	1.749	correct	generate	Run2	generate/STIM_003.jpg
960.313	1.192	incorrect	generate	Run2	generate/STIM_003.jpg
964.0	1.048	correct	generate	Run2	generate/STIM_003.jpg
968.701	1.552	correct	generate	Run2	generate/STIM_003.jpg
973.872	1.348	correct	generate	Run2	generate/STIM_004.jpg
978.091	1.027	correct	generate	Run2	generate/STIM_004.jpg
981.531	0.995	correct	generate	Run2	generate/STIM_004.jpg
985.336	0.815	incorrect	generate	Run2	generate/STIM_004.jpg
989.366	1.054	correct	generate	Run2	generate/STIM_004.jpg
994.098	1.509	correct	generate	Run2	generate/STIM_005.jpg
998.99	1.682	correct	generate	Run2	generate/STIM_005.jpg
1003.673	1.678	correct	generate	Run2	generate/STIM_005.jpg
1008.481	0.979	incorrect	generate	Run2	generate/STIM_005.jpg
1013.363	0.866	correct	generate	Run2	generate/STIM_005.jpg
1018.35	1.401	correct	generate	Run2	generate/STIM_006.jpg
1022.94	1.758	incorrect	generate	Run2	generate/STIM_006.jpg
1027.844	1.604	incorrect	generate	Run2	generate/STIM_006.jpg
1032.151	1.03	correct	generate	Run2	generate/STIM_006.jpg
1035.378	0.956	correct	generate	Run2	generate/STIM_006.jpg
1040.287	1.691	correct	generate	Run2	generate/STIM_007.jpg
1044.311	1.989	correct	generate	Run2	generate/STIM_007.jpg
1048.759	1.369	correct	generate	Run2	generate/STIM_007.jpg
1052.956	0.736	correct	generate	Run2	generate/STIM_007.jpg
1056.792	1.656	correct	generate	Run2	generate/STIM_007.jpg
1060.957	1.381	correct	generate	Run2	generate/STIM_008.jpg
1065.052	1.508	incorrect	generate	Run2	generate/STIM_008.jpg
1069.842	1.791	correct	generate	Run2	generate/STIM_008.jpg
1074.547	0.766	correct	generate	Run2	generate/STIM_008.jpg
1078.119	1.439	correct	generate	Run2	generate/STIM_008.jpg
1082.057	1.332	correct	generate	Run2	generate/STIM_009.jpg
1086.313	1.336	correct	generate	Run2	generate/STIM_009.jpg
1089.985	1.9	incorrect	generate	Run2	generate/STIM_009.jpg
1094.486	1.27	correct	generate	Run2	generate/STIM_009.jpg
1098.425	0.807	correct	generate	Run2	generate/STIM_009.jpg
1102.991	2.2	incorrect	generate	Run2	generate/STIM_010.jpg
1107.532	2.06	correct	generate	Run2	generate/STIM_010.jpg
1112.884	0.868	correct	generate	Run2	generate/STIM_010.jpg
1116.774	0.913	correct	generate	Run2	generate/STIM_010.jpg
1120.417	1.094	correct	generate	Run2	generate/STIM_010.jpg
1123.878	1.986	incorrect	generate	Run2	generate/STIM_011.jpg
1128.839	1.307	incorrect	generate	Run2	generate/STIM_011.jpg
1133.559	1.595	incorrect	generate	Run2	generate/STIM_011.jpg
1138.176	0.753	incorrect	generate	Run2	generate/STIM_011.jpg
1141.453	1.248	correct	generate	Run2	generate/STIM_011.jpg
1146.845	2.195	correct	generate	Run2	generate/STIM_012.jpg
1151.621	1.08	incorrect	generate	Run2	generate/STIM_012.jpg
1156.164	1.368	correct	generate	Run2	generate/STIM_012.jpg
1161.581	1.237	correct	generate	Run2	generate/STIM_012.jpg
1166.526	1.533	incorrect	generate	Run2	generate/STIM_012.jpg
1171.788	1.077	correct	generate	Run2	generate/STIM_013.jpg
1176.082	1.283	correct	generate	Run2	generate/STIM_013.jpg
1179.834	1.065	correct	generate	Run2	generate/STIM_013.jpg
1183.545	1.101	correct	generate	Run2	generate/STIM_013.jpg
1187.591	1.811	correct	generate	Run2	generate/STIM_013.jpg
1193.611	1.662	correct	generate	Run2	generate/STIM_014.jpg
1198.377	0.878	correct	generate	Run2	generate/STIM_014.jpg
1202.97	1.678	correct	generate	Run2	generate/STIM_014.jpg
1208.094	0.931	incorrect	generate	Run2	generate/STIM_014.jpg
1212.162	0.74	correct	generate	Run2	generate/STIM_014.jpg
1215.36	1.964	correct	generate	Run2	generate/STIM_015.jpg
1220.954	1.447	incorrect	generate	Run2	generate/STIM_015.jpg
1226.213	1.036	correct	generate	Run2	generate/STIM_015.jpg
1230.414	1.173	correct	generate	Run2	generate/STIM_015.jpg
1235.487	1.03	incorrect	generate	Run2	generate/STIM_015.jpg
1238.807	1.001	incorrect	generate	Run2	generate/STIM_016.jpg
1243.508	1.793	correct	generate	Run2	generate/STIM_016.jpg
1248.037	0.929	correct	generate	Run2	generate/STIM_016.jpg
1252.393	1.135	correct	generate	Run2	generate/STIM_016.jpg
1256.414	1.192	correct	generate	Run2	generate/STIM_016.jpg
1260.118	1.339	correct	generate	Run2	generate/STIM_017.jpg
1265.495	1.062	correct	generate	Run2	generate/STIM_017.jpg
1268.833	1.943	correct	generate	Run2	generate/STIM_017.jpg
1274.749	1.661	correct	generate	Run2	generate/STIM_017.jpg
1280.129	1.2	correct	generate	Run2	generate/STIM_017.jpg
1284.571	2.06	correct	generate	Run2	generate/STIM_018.jpg
1290.375	2.011	incorrect	generate	Run2	generate/STIM_018.jpg
1295.93	1.269	correct	generate	Run2	generate/STIM_018.jpg
1300.335	1.03	correct	generate	Run2	generate/STIM_018.jpg
1303.69	0.968	correct	generate	Run2	generate/STIM_018.jpg
1308.128	1.911	correct	generate	Run2	generate/STIM_019.jpg
1314.164	1.9	correct	generate	Run2	generate/STIM_019.jpg
1319.415	1.429	correct	generate	Run2	generate/STIM_019.jpg
1323.423	0.87	correct	generate	Run2	generate/STIM_019.jpg
1327.033	1.571	correct	generate	Run2	generate/STIM_019.jpg
1331.496	1.615	incorrect	generate	Run2	generate/STIM_020.jpg
1336.256	1.698	correct	generate	Run2	generate/STIM_020.jpg
1341.251	1.16	correct	generate	Run2	generate/STIM_020.jpg
1345.242	1.63	correct	generate	Run2	generate/STIM_020.jpg
1350.757	1.797	correct	generate	Run2	generate/STIM_020.jpg
1355.051	0.93	correct	generate	Run2	generate/STIM_021.jpg
1358.837	1.155	correct	generate	Run2	generate/STIM_021.jpg
1362.781	1.383	correct	generate	Run2	generate/STIM_021.jpg
1366.722	0.898	correct	generate	Run2	generate/STIM_021.jpg
1371.223	1.138	correct	generate	Run2	generate/STIM_021.jpg
1375.195	1.246	correct	generate	Run2	generate/STIM_022.jpg
1379.345	1.422	incorrect	generate	Run2	generate/STIM_022.jpg
1384.068	1.458	correct	generate	Run2	generate/STIM_022.jpg
1389.665	0.848	correct	generate	Run2	generate/STIM_022.jpg
1392.978	1.726	correct	generate	Run2	generate/STIM_022.jpg
1398.215	1.739	correct	generate	Run2	generate/STIM_023.jpg
1403.59	1.134	correct	generate	Run2	generate/STIM_023.jpg
1407.427	1.783	correct	generate	Run2	generate/STIM_023.jpg
1413.253	1.836	correct	generate	Run2	generate/STIM_023.jpg
1419.069	0.826	incorrect	generate	Run2	generate/STIM_023.jpg
1423.44	1.985	correct	generate	Run2	generate/STIM_024.jpg
1428.299	1.937	correct	generate	Run2	generate/STIM_024.jpg
1433.014	0.837	correct	generate	Run2	generate/STIM_024.jpg
1436.614	1.504	incorrect	generate	Run2	generate/STIM_024.jpg
1440.736	1.246	incorrect	generate	Run2	generate/STIM_024.jpg
1446.087	0.701	correct	repeat	Run2	repeat/STIM_000.jpg
1449.857	0.836	correct	repeat	Run2	repeat/STIM_000.jpg
1454.445	0.521	correct	repeat	Run2	repeat/STIM_000.jpg
1458.964	0.621	correct	repeat	Run2	repeat/STIM_000.jpg
1463.229	0.617	correct	repeat	Run2	repeat/STIM_000.jpg
1467.0	0.547	correct	repeat	Run2	repeat/STIM_001.jpg
1471.492	0.613	correct	repeat	Run2	repeat/STIM_001.jpg
1475.437	0.461	correct	repeat	Run2	repeat/STIM_001.jpg
1479.394	0.467	correct	repeat	Run2	repeat/STIM_001.jpg
1483.709	0.752	correct	repeat	Run2	repeat/STIM_001.jpg
1487.61	0.481	incorrect	repeat	Run2	repeat/STIM_002.jpg
1490.763	0.681	correct	repeat	Run2	repeat/STIM_002.jpg
1495.111	0.823	incorrect	repeat	Run2	repeat/STIM_002.jpg
1498.895	0.653	correct	repeat	Run2	repeat/STIM_002.jpg
1502.372	0.516	correct	repeat	Run2	repeat/STIM_002.jpg
1505.201	0.743	correct	repeat	Run2	repeat/STIM_003.jpg
1508.552	0.544	correct	repeat	Run2	repeat/STIM_003.jpg
1513.124	0.862	correct	repeat	Run2	repeat/STIM_003.jpg
1517.438	0.645	correct	repeat	Run2	repeat/STIM_003.jpg
1521.279	0.564	correct	repeat	Run2	repeat/STIM_003.jpg
1524.732	0.545	correct	repeat	Run2	repeat/STIM_004.jpg
1528.261	0.763	correct	repeat	Run2	repeat/STIM_004.jpg
1532.636	0.866	correct	repeat	Run2	repeat/STIM_004.jpg
1536.581	0.539	correct	repeat	Run2	repeat/STIM_004.jpg
1540.333	0.667	correct	repeat	Run2	repeat/STIM_004.jpg
1543.202	0.681	correct	repeat	Run2	repeat/STIM_005.jpg
1546.671	0.476	correct	repeat	Run2	repeat/STIM_005.jpg
1550.09	0.532	correct	repeat	Run2	repeat/STIM_005.jpg
1553.069	0.627	correct	repeat	Run2	repeat/STIM_005.jpg
1556.079	0.505	correct	repeat	Run2	repeat/STIM_005.jpg
1558.868	0.809	correct	repeat	Run2	repeat/STIM_006.jpg
1563.067	0.794	correct	repeat	Run2	repeat/STIM_006.jpg
1566.703	0.582	correct	repeat	Run2	repeat/STIM_006.jpg
1569.737	0.552	correct	repeat	Run2	repeat/STIM_006.jpg
1572.939	0.799	correct	repeat	Run2	repeat/STIM_006.jpg
1576.461	0.779	correct	repeat	Run2	repeat/STIM_007.jpg
1580.345	0.613	correct	repeat	Run2	repeat/STIM_007.jpg
1583.116	0.757	incorrect	repeat	Run2	repeat/STIM_007.jpg
1586.905	0.759	correct	repeat	Run2	repeat/STIM_007.jpg
1590.814	0.69	correct	repeat	Run2	repeat/STIM_007.jpg
1595.44	0.498	incorrect	repeat	Run2	repeat/STIM_008.jpg
1598.736	0.677	correct	repeat	Run2	repeat/STIM_008.jpg
1602.583	0.66	correct	repeat	Run2	repeat/STIM_008.jpg
1605.453	0.479	correct	repeat	Run2	repeat/STIM_008.jpg
1608.452	0.609	correct	repeat	Run2	repeat/STIM_008.jpg
1611.225	0.54	correct	repeat	Run2	repeat/STIM_009.jpg
1614.34	0.457	correct	repeat	Run2	repeat/STIM_009.jpg
1618.644	0.508	correct	repeat	Run2	repeat/STIM_009.jpg
1622.768	0.692	correct	repeat	Run2	repeat/STIM_009.jpg
1627.37	0.701	correct	repeat	Run2	repeat/STIM_009.jpg
1630.246	0.764	correct	repeat	Run2	repeat/STIM_010.jpg
1634.363	0.485	correct	repeat	Run2	repeat/STIM_010.jpg
1637.141	0.844	correct	repeat	Run2	repeat/STIM_010.jpg
1640.745	0.438	correct	repeat	Run2	repeat/STIM_010.jpg
1644.681	0.874	correct	repeat	Run2	repeat/STIM_010.jpg
1648.544	0.781	correct	repeat	Run2	repeat/STIM_011.jpg
1653.066	0.534	correct	repeat	Run2	repeat/STIM_011.jpg
1655.872	0.823	correct	repeat	Run2	repeat/STIM_011.jpg
1659.319	0.531	correct	repeat	Run2	repeat/STIM_011.jpg
1663.741	0.489	correct	repeat	Run2	repeat/STIM_011.jpg
1666.503	0.797	correct	repeat	Run2	repeat/STIM_012.jpg
1670.566	0.864	correct	repeat	Run2	repeat/STIM_012.jpg
1675.107	0.683	incorrect	repeat	Run2	repeat/STIM_012.jpg
1679.465	0.789	correct	repeat	Run2	repeat/STIM_012.jpg
1683.974	0.68	correct	repeat	Run2	repeat/STIM_012.jpg
1686.84	0.836	correct	repeat	Run2	repeat/STIM_013.jpg
1691.339	0.681	correct	repeat	Run2	repeat/STIM_013.jpg
1695.08	0.519	correct	repeat	Run2	repeat/STIM_013.jpg
1699.611	0.872	correct	repeat	Run2	repeat/STIM_013.jpg
1702.811	0.493	correct	repeat	Run2	repeat/STIM_013.jpg
1706.924	0.485	correct	repeat	Run2	repeat/STIM_014.jpg
1710.902	0.511	correct	repeat	Run2	repeat/STIM_014.jpg
1714.876	0.518	correct	repeat	Run2	repeat/STIM_014.jpg
1719.161	0.794	correct	repeat	Run2	repeat/STIM_014.jpg
1723.28	0.654	correct	repeat	Run2	repeat/STIM_014.jpg
1726.287	1.578	correct	generate	Run3	generate/STIM_000.jpg
1730.383	1.81	correct	generate	Run3	generate/STIM_000.jpg
1736.122	1.502	incorrect	generate	Run3	generate/STIM_000.jpg
1739.871	1.105	correct	generate	Run3	generate/STIM_000.jpg
1744.356	1.112	correct	generate	Run3	generate/STIM_000.jpg
1747.905	1.238	correct	generate	Run3	generate/STIM_001.jpg
1752.274	1.81	correct	generate	Run3	generate/STIM_001.jpg
1756.568	1.318	correct	generate	Run3	generate/STIM_001.jpg
1761.933	1.493	correct	generate	Run3	generate/STIM_001.jpg
1766.703	0.846	correct	generate	Run3	generate/STIM_001.jpg
1771.437	0.983	correct	generate	Run3	generate/STIM_002.jpg
1776.38	1.391	correct	generate	Run3	generate/STIM_002.jpg
1781.108	0.893	correct	generate	Run3	generate/STIM_002.jpg
1785.558	0.859	correct	generate	Run3	generate/STIM_002.jpg
1790.106	1.015	correct	generate	Run3	generate/STIM_002.jpg
1794.388	0.912	correct	generate	Run3	generate/STIM_003.jpg
1799.374	1.486	correct	generate	Run3	generate/STIM_003.jpg
1805.055	1.651	correct	generate	Run3	generate/STIM_003.jpg
1809.173	1.08	correct	generate	Run3	generate/STIM_003.jpg
1814.017	1.141	correct	generate	Run3	generate/STIM_003.jpg
1819.148	0.995	correct	generate	Run3	generate/STIM_004.jpg
1822.35	1.122	correct	generate	Run3	generate/STIM_004.jpg
1826.281	1.393	correct	generate	Run3	generate/STIM_004.jpg
1831.413	0.765	correct	generate	Run3	generate/STIM_004.jpg
1834.583	1.636	correct	generate	Run3	generate/STIM_004.jpg
1839.998	1.618	correct	generate	Run3	generate/STIM_005.jpg
1845.481	1.662	correct	generate	Run3	generate/STIM_005.jpg
1850.474	0.855	correct	generate	Run3	generate/STIM_005.jpg
1854.771	1.311	correct	generate	Run3	generate/STIM_005.jpg
1859.54	1.065	correct	generate	Run3	generate/STIM_005.jpg
1863.988	0.983	correct	generate	Run3	generate/STIM_006.jpg
1868.496	0.819	correct	generate	Run3	generate/STIM_006.jpg
1872.317	1.081	correct	generate	Run3	generate/STIM_006.jpg
1875.672	1.333	incorrect	generate	Run3	generate/STIM_006.jpg
1881.112	1.214	correct	generate	Run3	generate/STIM_006.jpg
1885.01	1.048	incorrect	generate	Run3	generate/STIM_007.jpg
1889.209	1.465	correct	generate	Run3	generate/STIM_007.jpg
1894.187	1.732	correct	generate	Run3	generate/STIM_007.jpg
1899.627	1.643	correct	generate	Run3	generate/STIM_007.jpg
1904.748	1.405	correct	generate	Run3	generate/STIM_007.jpg
1910.114	1.307	correct	generate	Run3	generate/STIM_008.jpg
1914.726	1.036	correct	generate	Run3	generate/STIM_008.jpg
1918.938	0.857	correct	generate	Run3	generate/STIM_008.jpg
1922.087	1.424	correct	generate	Run3	generate/STIM_008.jpg
1926.63	0.829	correct	generate	Run3	generate/STIM_008.jpg
1929.867	1.374	correct	generate	Run3	generate/STIM_009.jpg
1935.28	1.413	correct	generate	Run3	generate/STIM_009.jpg
1940.293	0.864	correct	generate	Run3	generate/STIM_009.jpg
1943.29	0.835	correct	generate	Run3	generate/STIM_009.jpg
1948.233	1.476	correct	generate	Run3	generate/STIM_009.jpg
1953.555	1.133	correct	generate	Run3	generate/STIM_010.jpg
1957.462	1.24	correct	generate	Run3	generate/STIM_010.jpg
1961.667	1.378	correct	generate	Run3	generate/STIM_010.jpg
1966.649	1.434	correct	generate	Run3	generate/STIM_010.jpg
1971.504	1.197	correct	generate	Run3	generate/STIM_010.jpg
1976.363	1.605	correct	generate	Run3	generate/STIM_011.jpg
1980.722	1.503	correct	generate	Run3	generate/STIM_011.jpg
1984.762	1.275	correct	generate	Run3	generate/STIM_011.jpg
1988.984	1.055	correct	generate	Run3	generate/STIM_011.jpg
1992.42	1.227	correct	generate	Run3	generate/STIM_011.jpg
1996.019	0.807	correct	generate	Run3	generate/STIM_012.jpg
2000.571	0.891	incorrect	generate	Run3	generate/STIM_012.jpg
2003.603	1.787	incorrect	generate	Run3	generate/STIM_012.jpg
2008.205	1.212	correct	generate	Run3	generate/STIM_012.jpg
2013.064	0.844	correct	generate	Run3	generate/STIM_012.jpg
2016.211	1.8	incorrect	generate	Run3	generate/STIM_013.jpg
2022.249	1.496	correct	generate	Run3	generate/STIM_013.jpg
2027.92	1.185	correct	generate	Run3	generate/STIM_013.jpg
2031.945	1.82	correct	generate	Run3	generate/STIM_013.jpg
2036.358	1.019	correct	generate	Run3	generate/STIM_013.jpg
2041.357	0.764	correct	generate	Run3	generate/STIM_014.jpg
2045.935	1.402	correct	generate	Run3	generate/STIM_014.jpg
2050.191	1.38	correct	generate	Run3	generate/STIM_014.jpg
2054.211	0.763	correct	generate	Run3	generate/STIM_014.jpg
2058.533	0.978	correct	generate	Run3	generate/STIM_014.jpg
2062.565	1.233	correct	generate	Run3	generate/STIM_015.jpg
2067.552	0.775	correct	generate	Run3	generate/STIM_015.jpg
2071.585	1.416	correct	generate	Run3	generate/STIM_015.jpg
2076.916	1.699	correct	generate	Run3	generate/STIM_015.jpg
2081.087	0.957	correct	generate	Run3	generate/STIM_015.jpg
2085.792	1.121	correct	generate	Run3	generate/STIM_016.jpg
2090.657	0.854	correct	generate	Run3	generate/STIM_016.jpg
2094.105	1.21	correct	generate	Run3	generate/STIM_016.jpg
2098.842	1.502	correct	generate	Run3	generate/STIM_016.jpg
2102.977	1.75	correct	generate	Run3	generate/STIM_016.jpg
2107.68	0.858	correct	generate	Run3	generate/STIM_017.jpg
2110.989	1.665	correct	generate	Run3	generate/STIM_017.jpg
2115.205	1.655	correct	generate	Run3	generate/STIM_017.jpg
2119.886	1.683	correct	generate	Run3	generate/STIM_017.jpg
2125.047	1.422	correct	generate	Run3	generate/STIM_017.jpg
2130.118	1.778	correct	generate	Run3	generate/STIM_018.jpg
2134.353	1.201	correct	generate	Run3	generate/STIM_018.jpg
2138.979	0.941	correct	generate	Run3	generate/STIM_018.jpg
2143.523	0.978	correct	generate	Run3	generate/STIM_018.jpg
2146.742	1.672	correct	generate	Run3	generate/STIM_018.jpg
2152.045	0.757	correct	generate	Run3	generate/STIM_019.jpg
2156.279	1.424	correct	generate	Run3	generate/STIM_019.jpg
2161.533	1.825	correct	generate	Run3	generate/STIM_019.jpg
2165.974	1.309	correct	generate	Run3	generate/STIM_019.jpg
2169.781	1.741	correct	generate	Run3	generate/STIM_019.jpg
2175.403	1.424	correct	generate	Run3	generate/STIM_020.jpg
2180.678	1.297	correct	generate	Run3	generate/STIM_020.jpg
2185.301	1.365	correct	generate	Run3	generate/STIM_020.jpg
2190.268	1.24	correct	generate	Run3	generate/STIM_020.jpg
2195.498	1.605	correct	generate	Run3	generate/STIM_020.jpg
2201.092	1.335	correct	generate	Run3	generate/STIM_021.jpg
2204.665	1.575	correct	generate	Run3	generate/STIM_021.jpg
2209.843	1.661	incorrect	generate	Run3	generate/STIM_021.jpg
2214.989	1.416	incorrect	generate	Run3	generate/STIM_021.jpg
2219.26	1.245	correct	generate	Run3	generate/STIM_021.jpg
2223.857	1.246	correct	generate	Run3	generate/STIM_022.jpg
2228.903	1.52	correct	generate	Run3	generate/STIM_022.jpg
2234.037	1.056	correct	generate	Run3	generate/STIM_022.jpg
2238.09	1.163	correct	generate	Run3	generate/STIM_022.jpg
2242.326	0.862	correct	generate	Run3	generate/STIM_022.jpg
2245.457	1.051	correct	generate	Run3	generate/STIM_023.jpg
2249.806	1.442	correct	generate	Run3	generate/STIM_023.jpg
2253.972	1.401	correct	generate	Run3	generate/STIM_023.jpg
2258.435	0.954	correct	generate	Run3	generate/STIM_023.jpg
2262.367	1.368	correct	generate	Run3	generate/STIM_023.jpg
2267.008	1.303	correct	generate	Run3	generate/STIM_024.jpg
2270.524	1.268	correct	generate	Run3	generate/STIM_024.jpg
2275.146	1.078	correct	generate	Run3	generate/STIM_024.jpg
2279.63	0.976	correct	generate	Run3	generate/STIM_024.jpg
2283.998	1.081	correct	generate	Run3	generate/STIM_024.jpg
2288.013	0.711	correct	repeat	Run3	repeat/STIM_000.jpg
2292.633	0.777	correct	repeat	Run3	repeat/STIM_000.jpg
2296.57	0.752	correct	repeat	Run3	repeat/STIM_000.jpg
2301.088	0.702	correct	repeat	Run3	repeat/STIM_000.jpg
2304.319	0.511	correct	repeat	Run3	repeat/STIM_000.jpg
2307.086	0.775	correct	repeat	Run3	repeat/STIM_001.jpg
2310.868	0.481	correct	repeat	Run3	repeat/STIM_001.jpg
2313.887	0.85	correct	repeat	Run3	repeat/STIM_001.jpg
2317.728	0.668	correct	repeat	Run3	repeat/STIM_001.jpg
2320.961	0.791	correct	repeat	Run3	repeat/STIM_001.jpg
2324.512	0.779	incorrect	repeat	Run3	repeat/STIM_002.jpg
2329.048	0.68	correct	repeat	Run3	repeat/STIM_002.jpg
2333.074	0.834	correct	repeat	Run3	repeat/STIM_002.jpg
2336.751	0.579	correct	repeat	Run3	repeat/STIM_002.jpg
2339.59	0.53	correct	repeat	Run3	repeat/STIM_002.jpg
2344.082	0.684	correct	repeat	Run3	repeat/STIM_003.jpg
2348.572	0.666	correct	repeat	Run3	repeat/STIM_003.jpg
2351.911	0.603	correct	repeat	Run3	repeat/STIM_003.jpg
2356.334	0.593	correct	repeat	Run3	repeat/STIM_003.jpg
2360.717	0.722	correct	repeat	Run3	repeat/STIM_003.jpg
2365.157	0.771	correct	repeat	Run3	repeat/STIM_004.jpg
2368.781	0.684	correct	repeat	Run3	repeat/STIM_004.jpg
2372.024	0.481	correct	repeat	Run3	repeat/STIM_004.jpg
2376.422	0.457	correct	repeat	Run3	repeat/STIM_004.jpg
2379.519	0.822	correct	repeat	Run3	repeat/STIM_004.jpg
2382.464	0.568	correct	repeat	Run3	repeat/STIM_005.jpg
2385.618	0.695	correct	repeat	Run3	repeat/STIM_005.jpg
2389.513	0.482	correct	repeat	Run3	repeat/STIM_005.jpg
2393.909	0.646	correct	repeat	Run3	repeat/STIM_005.jpg
2397.019	0.814	correct	repeat	Run3	repeat/STIM_005.jpg
2400.186	0.656	correct	repeat	Run3	repeat/STIM_006.jpg
2404.622	0.837	correct	repeat	Run3	repeat/STIM_006.jpg
2408.505	0.838	correct	repeat	Run3	repeat/STIM_006.jpg
2413.235	0.755	correct	repeat	Run3	repeat/STIM_006.jpg
2416.468	0.754	correct	repeat	Run3	repeat/STIM_006.jpg
2419.819	0.489	correct	repeat	Run3	repeat/STIM_007.jpg
2423.644	0.726	correct	repeat	Run3	repeat/STIM_007.jpg
2427.689	0.81	correct	repeat	Run3	repeat/STIM_007.jpg
2431.372	0.681	correct	repeat	Run3	repeat/STIM_007.jpg
2435.735	0.722	correct	repeat	Run3	repeat/STIM_007.jpg
2438.607	0.793	correct	repeat	Run3	repeat/STIM_008.jpg
2441.816	0.856	correct	repeat	Run3	repeat/STIM_008.jpg
2446.74	0.612	correct	repeat	Run3	repeat/STIM_008.jpg
2450.398	0.566	correct	repeat	Run3	repeat/STIM_008.jpg
2454.981	0.514	correct	repeat	Run3	repeat/STIM_008.jpg
2457.947	0.645	correct	repeat	Run3	repeat/STIM_009.jpg
2461.589	0.575	correct	repeat	Run3	repeat/STIM_009.jpg
2465.697	0.779	correct	repeat	Run3	repeat/STIM_009.jpg
2470.023	0.847	correct	repeat	Run3	repeat/STIM_009.jpg
2473.343	0.524	correct	repeat	Run3	repeat/STIM_009.jpg
2476.207	0.561	correct	repeat	Run3	repeat/STIM_010.jpg
2479.131	0.578	correct	repeat	Run3	repeat/STIM_010.jpg
2482.028	0.652	correct	repeat	Run3	repeat/STIM_010.jpg
2486.278	0.792	correct	repeat	Run3	repeat/STIM_010.jpg
2489.963	0.611	correct	repeat	Run3	repeat/STIM_010.jpg
2493.287	0.683	correct	repeat	Run3	repeat/STIM_011.jpg
2496.142	0.446	correct	repeat	Run3	repeat/STIM_011.jpg
2499.6	0.63	correct	repeat	Run3	repeat/STIM_011.jpg
2503.355	0.729	correct	repeat	Run3	repeat/STIM_011.jpg
2507.83	0.667	correct	repeat	Run3	repeat/STIM_011.jpg
2512.372	0.857	correct	repeat	Run3	repeat/STIM_012.jpg
2517.108	0.492	correct	repeat	Run3	repeat/STIM_012.jpg
2521.096	0.476	correct	repeat	Run3	repeat/STIM_012.jpg
2525.523	0.791	correct	repeat	Run3	repeat/STIM_012.jpg
2530.375	0.8	correct	repeat	Run3	repeat/STIM_012.jpg
2534.765	0.662	correct	repeat	Run3	repeat/STIM_013.jpg
2539.226	0.856	correct	repeat	Run3	repeat/STIM_013.jpg
2543.551	0.653	correct	repeat	Run3	repeat/STIM_013.jpg
2546.345	0.574	correct	repeat	Run3	repeat/STIM_013.jpg
2549.217	0.448	correct	repeat	Run3	repeat/STIM_013.jpg
2553.264	0.835	correct	repeat	Run3	repeat/STIM_014.jpg
2556.74	0.519	correct	repeat	Run3	repeat/STIM_014.jpg
2561.28	0.822	correct	repeat	Run3	repeat/STIM_014.jpg
2565.181	0.731	correct	repeat	Run3	repeat/STIM_014.jpg
2568.262	0.828	correct	repeat	Run3	repeat/STIM_014.jpg
2572.788	1.708	incorrect	generate	Run4	generate/STIM_000.jpg
2577.718	1.374	correct	generate	Run4	generate/STIM_000.jpg
2581.478	1.818	correct	generate	Run4	generate/STIM_000.jpg
2585.914	1.724	incorrect	generate	Run4	generate/STIM_000.jpg
2591.557	0.851	correct	generate	Run4	generate/STIM_000.jpg
2595.215	1.765	correct	generate	Run4	generate/STIM_001.jpg
2599.857	1.39	correct	generate	Run4	generate/STIM_001.jpg
2603.938	0.869	correct	generate	Run4	generate/STIM_001.jpg
2607.815	1.088	correct	generate	Run4	generate/STIM_001.jpg
2611.117	1.174	correct	generate	Run4	generate/STIM_001.jpg
2616.268	1.337	correct	generate	Run4	generate/STIM_002.jpg
2620.63	0.982	correct	generate	Run4	generate/STIM_002.jpg
2624.437	0.756	correct	generate	Run4	generate/STIM_002.jpg
2628.838	0.796	correct	generate	Run4	generate/STIM_002.jpg
2632.337	1.343	correct	generate	Run4	generate/STIM_002.jpg
2637.695	1.66	correct	generate	Run4	generate/STIM_003.jpg
2642.363	1.284	correct	generate	Run4	generate/STIM_003.jpg
2646.747	1.528	correct	generate	Run4	generate/STIM_003.jpg
2651.509	0.796	correct	generate	Run4	generate/STIM_003.jpg
2656.151	1.057	correct	generate	Run4	generate/STIM_003.jpg
2660.467	1.11	correct	generate	Run4	generate/STIM_004.jpg
2665.574	0.837	correct	generate	Run4	generate/STIM_004.jpg
2669.994	0.966	correct	generate	Run4	generate/STIM_004.jpg
2674.708	0.867	correct	generate	Run4	generate/STIM_004.jpg
2678.581	1.261	correct	generate	Run4	generate/STIM_004.jpg
2683.759	1.091	correct	generate	Run4	generate/STIM_005.jpg
2688.641	1.001	correct	generate	Run4	generate/STIM_005.jpg
2693.752	1.086	correct	generate	Run4	generate/STIM_005.jpg
2697.11	1.416	correct	generate	Run4	generate/STIM_005.jpg
2702.439	1.613	correct	generate	Run4	generate/STIM_005.jpg
2707.476	1.603	correct	generate	Run4	generate/STIM_006.jpg
2712.522	1.784	correct	generate	Run4	generate/STIM_006.jpg
2718.155	0.832	correct	generate	Run4	generate/STIM_006.jpg
2721.402	1.029	correct	generate	Run4	generate/STIM_006.jpg
2726.096	0.743	correct	generate	Run4	generate/STIM_006.jpg
2730.459	1.559	correct	generate	Run4	generate/STIM_007.jpg
2735.046	1.46	correct	generate	Run4	generate/STIM_007.jpg
2738.889	1.298	correct	generate	Run4	generate/STIM_007.jpg
2743.248	1.781	correct	generate	Run4	generate/STIM_007.jpg
2748.215	1.0	correct	generate	Run4	generate/STIM_007.jpg
2751.514	1.725	correct	generate	Run4	generate/STIM_008.jpg
2755.611	1.515	incorrect	generate	Run4	generate/STIM_008.jpg
2760.048	1.318	correct	generate	Run4	generate/STIM_008.jpg
2764.319	1.103	correct	generate	Run4	generate/STIM_008.jpg
2768.95	0.968	correct	generate	Run4	generate/STIM_008.jpg
2772.095	0.843	correct	generate	Run4	generate/STIM_009.jpg
2775.147	1.254	correct	generate	Run4	generate/STIM_009.jpg
2779.626	1.547	correct	generate	Run4	generate/STIM_009.jpg
2785.052	0.817	correct	generate	Run4	generate/STIM_009.jpg
2788.405	1.77	correct	generate	Run4	generate/STIM_009.jpg
2794.141	0.762	correct	generate	Run4	generate/STIM_010.jpg
2797.427	0.856	correct	generate	Run4	generate/STIM_010.jpg
2801.746	1.697	correct	generate	Run4	generate/STIM_010.jpg
2807.029	1.725	correct	generate	Run4	generate/STIM_010.jpg
2812.995	0.924	incorrect	generate	Run4	generate/STIM_010.jpg
2816.54	0.954	correct	generate	Run4	generate/STIM_011.jpg
2821.396	1.242	correct	generate	Run4	generate/STIM_011.jpg
2826.289	1.802	correct	generate	Run4	generate/STIM_011.jpg
2831.102	0.769	correct	generate	Run4	generate/STIM_011.jpg
2835.956	1.379	correct	generate	Run4	generate/STIM_011.jpg
2841.277	0.835	correct	generate	Run4	generate/STIM_012.jpg
2845.767	1.293	correct	generate	Run4	generate/STIM_012.jpg
2849.534	1.256	correct	generate	Run4	generate/STIM_012.jpg
2853.31	1.783	correct	generate	Run4	generate/STIM_012.jpg
2858.615	1.014	correct	generate	Run4	generate/STIM_012.jpg
2863.418	0.968	correct	generate	Run4	generate/STIM_013.jpg
2867.018	1.462	correct	generate	Run4	generate/STIM_013.jpg
2872.629	1.127	correct	generate	Run4	generate/STIM_013.jpg
2877.915	1.488	correct	generate	Run4	generate/STIM_013.jpg
2882.31	1.475	correct	generate	Run4	generate/STIM_013.jpg
2887.148	1.728	correct	generate	Run4	generate/STIM_014.jpg
2892.966	1.711	correct	generate	Run4	generate/STIM_014.jpg
2897.518	1.814	correct	generate	Run4	generate/STIM_014.jpg
2903.246	1.56	correct	generate	Run4	generate/STIM_014.jpg
2907.587	1.088	correct	generate	Run4	generate/STIM_014.jpg
2910.857	0.942	incorrect	generate	Run4	generate/STIM_015.jpg
2915.512	1.451	correct	generate	Run4	generate/STIM_015.jpg
2919.743	1.703	correct	generate	Run4	generate/STIM_015.jpg
2925.514	0.997	correct	generate	Run4	generate/STIM_015.jpg
2929.126	1.118	correct	generate	Run4	generate/STIM_015.jpg
2933.437	1.307	correct	generate	Run4	generate/STIM_016.jpg
2938.356	1.0	correct	generate	Run4	generate/STIM_016.jpg
2943.112	1.162	correct	generate	Run4	generate/STIM_016.jpg
2947.882	1.636	correct	generate	Run4	generate/STIM_016.jpg
2953.52	1.827	correct	generate	Run4	generate/STIM_016.jpg
2959.101	0.812	correct	generate	Run4	generate/STIM_017.jpg
2963.946	1.534	correct	generate	Run4	generate/STIM_017.jpg
2969.578	1.12	correct	generate	Run4	generate/STIM_017.jpg
2973.506	1.416	correct	generate	Run4	generate/STIM_017.jpg
2977.822	1.203	correct	generate	Run4	generate/STIM_017.jpg
2981.258	1.683	correct	generate	Run4	generate/STIM_018.jpg
2985.538	1.245	correct	generate	Run4	generate/STIM_018.jpg
2990.415	1.154	correct	generate	Run4	generate/STIM_018.jpg
2995.432	0.764	correct	generate	Run4	generate/STIM_018.jpg
2998.896	0.928	correct	generate	Run4	generate/STIM_018.jpg
3002.659	0.796	correct	generate	Run4	generate/STIM_019.jpg
3007.178	1.555	correct	generate	Run4	generate/STIM_019.jpg
3010.965	0.815	correct	generate	Run4	generate/STIM_019.jpg
3014.978	1.439	incorrect	generate	Run4	generate/STIM_019.jpg
3019.685	0.909	correct	generate	Run4	generate/STIM_019.jpg
3022.857	1.836	correct	generate	Run4	generate/STIM_020.jpg
3028.648	1.704	correct	generate	Run4	generate/STIM_020.jpg
3032.678	1.103	correct	generate	Run4	generate/STIM_020.jpg
3037.722	1.794	correct	generate	Run4	generate/STIM_020.jpg
3041.874	1.823	correct	generate	Run4	generate/STIM_020.jpg
3046.593	1.668	correct	generate	Run4	generate/STIM_021.jpg
3050.975	1.013	correct	generate	Run4	generate/STIM_021.jpg
3056.093	1.367	correct	generate	Run4	generate/STIM_021.jpg
3061.577	0.982	correct	generate	Run4	generate/STIM_021.jpg
3064.843	1.142	correct	generate	Run4	generate/STIM_021.jpg
3068.425	1.258	correct	generate	Run4	generate/STIM_022.jpg
3072.113	1.447	correct	generate	Run4	generate/STIM_022.jpg
3076.464	1.405	correct	generate	Run4	generate/STIM_022.jpg
3080.982	0.977	correct	generate	Run4	generate/STIM_022.jpg
3085.916	1.397	correct	generate	Run4	generate/STIM_022.jpg
3091.449	0.803	correct	generate	Run4	generate/STIM_023.jpg
3096.118	1.551	correct	generate	Run4	generate/STIM_023.jpg
3101.839	1.563	correct	generate	Run4	generate/STIM_023.jpg
3105.995	1.174	correct	generate	Run4	generate/STIM_023.jpg
3109.675	1.658	correct	generate	Run4	generate/STIM_023.jpg
3114.861	1.074	correct	generate	Run4	generate/STIM_024.jpg
3119.038	1.57	correct	generate	Run4	generate/STIM_024.jpg
3123.278	1.176	correct	generate	Run4	generate/STIM_024.jpg
3128.011	1.386	correct	generate	Run4	generate/STIM_024.jpg
3133.124	1.121	correct	generate	Run4	generate/STIM_024.jpg
3138.268	0.625	correct	repeat	Run4	repeat/STIM_000.jpg
3142.755	0.631	correct	repeat	Run4	repeat/STIM_000.jpg
3147.06	0.756	correct	repeat	Run4	repeat/STIM_000.jpg
3150.258	0.604	correct	repeat	Run4	repeat/STIM_000.jpg
3154.31	0.85	incorrect	repeat	Run4	repeat/STIM_000.jpg
3157.731	0.787	correct	repeat	Run4	repeat/STIM_001.jpg
3162.083	0.588	incorrect	repeat	Run4	repeat/STIM_001.jpg
3165.508	0.625	correct	repeat	Run4	repeat/STIM_001.jpg
3170.163	0.478	correct	repeat	Run4	repeat/STIM_001.jpg
3173.042	0.826	correct	repeat	Run4	repeat/STIM_001.jpg
3177.71	0.481	correct	repeat	Run4	repeat/STIM_002.jpg
3180.298	0.521	correct	repeat	Run4	repeat/STIM_002.jpg
3182.999	0.618	correct	repeat	Run4	repeat/STIM_002.jpg
3186.343	0.455	correct	repeat	Run4	repeat/STIM_002.jpg
3190.358	0.813	incorrect	repeat	Run4	repeat/STIM_002.jpg
3194.318	0.828	correct	repeat	Run4	repeat/STIM_003.jpg
3197.781	0.636	correct	repeat	Run4	repeat/STIM_003.jpg
3201.291	0.868	correct	repeat	Run4	repeat/STIM_003.jpg
3205.233	0.443	correct	repeat	Run4	repeat/STIM_003.jpg
3207.942	0.587	correct	repeat	Run4	repeat/STIM_003.jpg
3211.64	0.638	correct	repeat	Run4	repeat/STIM_004.jpg
3214.828	0.517	correct	repeat	Run4	repeat/STIM_004.jpg
3219.076	0.649	correct	repeat	Run4	repeat/STIM_004.jpg
3222.926	0.773	correct	repeat	Run4	repeat/STIM_004.jpg
3226.907	0.655	correct	repeat	Run4	repeat/STIM_004.jpg
3230.461	0.531	correct	repeat	Run4	repeat/STIM_005.jpg
3233.818	0.83	incorrect	repeat	Run4	repeat/STIM_005.jpg
3237.736	0.68	correct	repeat	Run4	repeat/STIM_005.jpg
3242.029	0.819	correct	repeat	Run4	repeat/STIM_005.jpg
3246.017	0.524	correct	repeat	Run4	repeat/STIM_005.jpg
3248.982	0.598	correct	repeat	Run4	repeat/STIM_006.jpg
3252.404	0.698	correct	repeat	Run4	repeat/STIM_006.jpg
3256.616	0.506	correct	repeat	Run4	repeat/STIM_006.jpg
3259.612	0.825	correct	repeat	Run4	repeat/STIM_006.jpg
3264.073	0.809	correct	repeat	Run4	repeat/STIM_006.jpg
3267.111	0.571	correct	repeat	Run4	repeat/STIM_007.jpg
3270.321	0.627	correct	repeat	Run4	repeat/STIM_007.jpg
3273.343	0.697	correct	repeat	Run4	repeat/STIM_007.jpg
3277.179	0.762	correct	repeat	Run4	repeat/STIM_007.jpg
3280.26	0.805	correct	repeat	Run4	repeat/STIM_007.jpg
3283.852	0.655	correct	repeat	Run4	repeat/STIM_008.jpg
3287.333	0.814	correct	repeat	Run4	repeat/STIM_008.jpg
3291.741	0.763	correct	repeat	Run4	repeat/STIM_008.jpg
3295.067	0.522	correct	repeat	Run4	repeat/STIM_008.jpg
3298.869	0.736	correct	repeat	Run4	repeat/STIM_008.jpg
3302.38	0.527	correct	repeat	Run4	repeat/STIM_009.jpg
3306.425	0.62	correct	repeat	Run4	repeat/STIM_009.jpg
3310.151	0.768	correct	repeat	Run4	repeat/STIM_009.jpg
3313.375	0.563	correct	repeat	Run4	repeat/STIM_009.jpg
3316.243	0.447	correct	repeat	Run4	repeat/STIM_009.jpg
3320.261	0.56	correct	repeat	Run4	repeat/STIM_010.jpg
3324.444	0.679	correct	repeat	Run4	repeat/STIM_010.jpg
3327.229	0.571	correct	repeat	Run4	repeat/STIM_010.jpg
3330.325	0.754	correct	repeat	Run4	repeat/STIM_010.jpg
3334.908	0.66	correct	repeat	Run4	repeat/STIM_010.jpg
3339.571	0.654	correct	repeat	Run4	repeat/STIM_011.jpg
3343.03	0.491	correct	repeat	Run4	repeat/STIM_011.jpg
3346.171	0.797	correct	repeat	Run4	repeat/STIM_011.jpg
3350.207	0.836	correct	repeat	Run4	repeat/STIM_011.jpg
3353.924	0.709	correct	repeat	Run4	repeat/STIM_011.jpg
3357.833	0.52	incorrect	repeat	Run4	repeat/STIM_012.jpg
3361.621	0.481	incorrect	repeat	Run4	repeat/STIM_012.jpg
3365.134	0.477	incorrect	repeat	Run4	repeat/STIM_012.jpg
3368.188	0.819	correct	repeat	Run4	repeat/STIM_012.jpg
3371.385	0.504	correct	repeat	Run4	repeat/STIM_012.jpg
3374.024	0.756	correct	repeat	Run4	repeat/STIM_013.jpg
3376.922	0.631	correct	repeat	Run4	repeat/STIM_013.jpg
3380.852	0.626	correct	repeat	Run4	repeat/STIM_013.jpg
3384.668	0.873	correct	repeat	Run4	repeat/STIM_013.jpg
3389.225	0.673	correct	repeat	Run4	repeat/STIM_013.jpg
3392.405	0.609	correct	repeat	Run4	repeat/STIM_014.jpg
3395.357	0.638	correct	repeat	Run4	repeat/STIM_014.jpg
3398.348	0.617	correct	repeat	Run4	repeat/STIM_014.jpg
3402.917	0.744	correct	repeat	Run4	repeat/STIM_014.jpg
3405.944	0.768	correct	repeat	Run4	repeat/STIM_014.jpg
