onset	duration	accuracy_binary	trial_type	learning_stage	stimulus
0.0	1.636	1	generate	Run1	generate/STIM_000.jpg
4.967	2.44	0	generate	Run1	generate/STIM_000.jpg
9.874	1.788	0	generate	Run1	generate/STIM_000.jpg
15.123	1.485	0	generate	Run1	generate/STIM_000.jpg
20.669	1.045	0	generate	Run1	generate/STIM_000.jpg
24.127	1.66	0	generate	Run1	generate/STIM_001.jpg
28.197	1.223	1	generate	Run1	generate/STIM_001.jpg
32.535	1.65	1	generate	Run1	generate/STIM_001.jpg
38.321	2.022	1	generate	Run1	generate/STIM_001.jpg
43.493	1.928	1	generate	Run1	generate/STIM_001.jpg
47.742	1.785	1	generate	Run1	generate/STIM_002.jpg
53.196	1.407	1	generate	Run1	generate/STIM_002.jpg
58.443	1.263	1	generate	Run1	generate/STIM_002.jpg
62.265	1.612	1	generate	Run1	generate/STIM_002.jpg
66.992	1.938	1	generate	Run1	generate/STIM_002.jpg
72.655	2.401	1	generate	Run1	generate/STIM_003.jpg
77.998	1.805	1	generate	Run1	generate/STIM_003.jpg
83.112	1.249	1	generate	Run1	generate/STIM_003.jpg
88.024	1.355	1	generate	Run1	generate/STIM_003.jpg
92.438	1.156	0	generate	Run1	generate/STIM_003.jpg
96.007	1.56	1	generate	Run1	generate/STIM_004.jpg
100.214	1.286	1	generate	Run1	generate/STIM_004.jpg
104.294	1.018	1	generate	Run1	generate/STIM_004.jpg
108.498	1.484	1	generate	Run1	generate/STIM_004.jpg
112.804	1.291	0	generate	Run1	generate/STIM_004.jpg
117.449	2.229	0	generate	Run1	generate/STIM_005.jpg
122.818	2.437	1	generate	Run1	generate/STIM_005.jpg
127.935	1.393	0	generate	Run1	generate/STIM_005.jpg
133.493	1.689	1	generate	Run1	generate/STIM_005.jpg
137.543	2.092	1	generate	Run1	generate/STIM_005.jpg
143.857	1.214	1	generate	Run1	generate/STIM_006.jpg
148.64	1.589	1	generate	Run1	generate/STIM_006.jpg
153.719	1.793	0	generate	Run1	generate/STIM_006.jpg
158.493	1.069	1	generate	Run1	generate/STIM_006.jpg
163.281	1.336	1	generate	Run1	generate/STIM_006.jpg
168.227	2.217	0	generate	Run1	generate/STIM_007.jpg
173.056	1.972	1	generate	Run1	generate/STIM_007.jpg
178.586	2.062	1	generate	Run1	generate/STIM_007.jpg
183.216	2.057	0	generate	Run1	generate/STIM_007.jpg
189.228	1.593	0	generate	Run1	generate/STIM_007.jpg
194.283	1.38	0	generate	Run1	generate/STIM_008.jpg
198.951	2.187	1	generate	Run1	generate/STIM_008.jpg
205.147	1.251	1	generate	Run1	generate/STIM_008.jpg
208.817	1.069	0	generate	Run1	generate/STIM_008.jpg
212.685	1.858	1	generate	Run1	generate/STIM_008.jpg
217.146	2.568	1	generate	Run1	generate/STIM_009.jpg
223.146	1.182	0	generate	Run1	generate/STIM_009.jpg
226.549	1.827	0	generate	Run1	generate/STIM_009.jpg
232.067	1.199	1	generate	Run1	generate/STIM_009.jpg
236.359	0.926	1	generate	Run1	generate/STIM_009.jpg
241.047	2.47	1	generate	Run1	generate/STIM_010.jpg
246.459	1.719	1	generate	Run1	generate/STIM_010.jpg
251.615	1.033	1	generate	Run1	generate/STIM_010.jpg
256.621	2.055	1	generate	Run1	generate/STIM_010.jpg
260.999	1.062	1	generate	Run1	generate/STIM_010.jpg
265.294	2.579	1	generate	Run1	generate/STIM_011.jpg
270.501	1.223	0	generate	Run1	generate/STIM_011.jpg
275.848	1.588	1	generate	Run1	generate/STIM_011.jpg
280.084	1.462	1	generate	Run1	generate/STIM_011.jpg
284.711	1.881	1	generate	Run1	generate/STIM_011.jpg
289.414	2.459	1	generate	Run1	generate/STIM_012.jpg
295.057	2.085	1	generate	Run1	generate/STIM_012.jpg
300.173	1.262	1	generate	Run1	generate/STIM_012.jpg
304.26	0.954	0	generate	Run1	generate/STIM_012.jpg
309.335	1.144	0	generate	Run1	generate/STIM_012.jpg
314.562	1.39	1	generate	Run1	generate/STIM_013.jpg
319.788	1.297	0	generate	Run1	generate/STIM_013.jpg
324.761	0.99	1	generate	Run1	generate/STIM_013.jpg
329.544	1.129	1	generate	Run1	generate/STIM_013.jpg
333.139	1.341	1	generate	Run1	generate/STIM_013.jpg
336.753	1.189	1	generate	Run1	generate/STIM_014.jpg
340.529	1.437	1	generate	Run1	generate/STIM_014.jpg
344.173	1.659	1	generate	Run1	generate/STIM_014.jpg
348.387	1.155	1	generate	Run1	generate/STIM_014.jpg
353.392	1.65	1	generate	Run1	generate/STIM_014.jpg
358.122	2.564	0	generate	Run1	generate/STIM_015.jpg
363.94	1.552	1	generate	Run1	generate/STIM_015.jpg
369.254	2.235	1	generate	Run1	generate/STIM_015.jpg
375.14	1.356	0	generate	Run1	generate/STIM_015.jpg
379.286	1.21	1	generate	Run1	generate/STIM_015.jpg
383.337	2.27	1	generate	Run1	generate/STIM_016.jpg
389.861	1.564	1	generate	Run1	generate/STIM_016.jpg
393.841	1.897	1	generate	Run1	generate/STIM_016.jpg
398.395	1.877	1	generate	Run1	generate/STIM_016.jpg
403.019	1.313	1	generate	Run1	generate/STIM_016.jpg
407.635	1.233	0	generate	Run1	generate/STIM_017.jpg
411.806	2.068	0	generate	Run1	generate/STIM_017.jpg
417.907	1.164	1	generate	Run1	generate/STIM_017.jpg
422.288	1.26	1	generate	Run1	generate/STIM_017.jpg
426.617	1.173	0	generate	Run1	generate/STIM_017.jpg
430.372	1.523	0	generate	Run1	generate/STIM_018.jpg
435.571	1.57	1	generate	Run1	generate/STIM_018.jpg
440.115	1.858	1	generate	Run1	generate/STIM_018.jpg
444.432	0.938	1	generate	Run1	generate/STIM_018.jpg
447.577	1.339	1	generate	Run1	generate/STIM_018.jpg
451.595	1.838	1	generate	Run1	generate/STIM_019.jpg
457.584	2.124	1	generate	Run1	generate/STIM_019.jpg
463.992	2.053	1	generate	Run1	generate/STIM_019.jpg
469.62	1.295	0	generate	Run1	generate/STIM_019.jpg
474.506	0.916	0	generate	Run1	generate/STIM_019.jpg
478.13	1.834	0	generate	Run1	generate/STIM_020.jpg
484.088	2.15	0	generate	Run1	generate/STIM_020.jpg
490.004	1.164	1	generate	Run1	generate/STIM_020.jpg
493.534	2.196	1	generate	Run1	generate/STIM_020.jpg
499.289	1.112	1	generate	Run1	generate/STIM_020.jpg
504.267	1.458	1	generate	Run1	generate/STIM_021.jpg
508.255	2.055	1	generate	Run1	generate/STIM_021.jpg
514.496	1.561	1	generate	Run1	generate/STIM_021.jpg
519.243	1.022	1	generate	Run1	generate/STIM_021.jpg
524.151	1.99	1	generate	Run1	generate/STIM_021.jpg
528.802	2.399	1	generate	Run1	generate/STIM_022.jpg
534.359	2.049	1	generate	Run1	generate/STIM_022.jpg
540.132	1.49	1	generate	Run1	generate/STIM_022.jpg
544.983	1.396	0	generate	Run1	generate/STIM_022.jpg
550.447	1.126	1	generate	Run1	generate/STIM_022.jpg
554.612	1.864	1	generate	Run1	generate/STIM_023.jpg
558.772	1.121	1	generate	Run1	generate/STIM_023.jpg
562.754	1.521	1	generate	Run1	generate/STIM_023.jpg
567.599	1.703	1	generate	Run1	generate/STIM_023.jpg
571.985	1.067	1	generate	Run1	generate/STIM_023.jpg
575.411	2.43	1	generate	Run1	generate/STIM_024.jpg
580.756	1.554	1	generate	Run1	generate/STIM_024.jpg
585.813	1.523	1	generate	Run1	generate/STIM_024.jpg
590.773	2.082	1	generate	Run1	generate/STIM_024.jpg
595.23	2.031	0	generate	Run1	generate/STIM_024.jpg
600.893	0.703	1	repeat	Run1	repeat/STIM_000.jpg
604.989	0.577	1	repeat	Run1	repeat/STIM_000.jpg
609.11	0.616	1	repeat	Run1	repeat/STIM_000.jpg
612.966	0.698	0	repeat	Run1	repeat/STIM_000.jpg
615.834	0.53	1	repeat	Run1	repeat/STIM_000.jpg
619.266	0.811	1	repeat	Run1	repeat/STIM_001.jpg
624.024	0.774	1	repeat	Run1	repeat/STIM_001.jpg
627.409	0.659	1	repeat	Run1	repeat/STIM_001.jpg
630.785	0.772	1	repeat	Run1	repeat/STIM_001.jpg
633.687	0.756	1	repeat	Run1	repeat/STIM_001.jpg
637.642	0.736	1	repeat	Run1	repeat/STIM_002.jpg
640.932	0.454	1	repeat	Run1	repeat/STIM_002.jpg
643.951	0.695	1	repeat	Run1	repeat/STIM_002.jpg
647.065	0.477	1	repeat	Run1	repeat/STIM_002.jpg
650.702	0.675	1	repeat	Run1	repeat/STIM_002.jpg
655.238	0.806	1	repeat	Run1	repeat/STIM_003.jpg
658.888	0.786	1	repeat	Run1	repeat/STIM_003.jpg
662.282	0.78	1	repeat	Run1	repeat/STIM_003.jpg
665.601	0.779	1	repeat	Run1	repeat/STIM_003.jpg
669.366	0.449	1	repeat	Run1	repeat/STIM_003.jpg
673.481	0.585	1	repeat	Run1	repeat/STIM_004.jpg
676.227	0.631	1	repeat	Run1	repeat/STIM_004.jpg
679.99	0.657	1	repeat	Run1	repeat/STIM_004.jpg
683.549	0.543	1	repeat	Run1	repeat/STIM_004.jpg
687.927	0.75	1	repeat	Run1	repeat/STIM_004.jpg
691.533	0.676	1	repeat	Run1	repeat/STIM_005.jpg
696.023	0.479	1	repeat	Run1	repeat/STIM_005.jpg
699.332	0.561	1	repeat	Run1	repeat/STIM_005.jpg
703.287	0.867	1	repeat	Run1	repeat/STIM_005.jpg
706.602	0.707	1	repeat	Run1	repeat/STIM_005.jpg
710.981	0.728	1	repeat	Run1	repeat/STIM_006.jpg
713.874	0.584	1	repeat	Run1	repeat/STIM_006.jpg
717.692	0.508	1	repeat	Run1	repeat/STIM_006.jpg
720.397	0.697	1	repeat	Run1	repeat/STIM_006.jpg
724.21	0.762	1	repeat	Run1	repeat/STIM_006.jpg
728.689	0.516	1	repeat	Run1	repeat/STIM_007.jpg
733.178	0.581	1	repeat	Run1	repeat/STIM_007.jpg
737.84	0.502	1	repeat	Run1	repeat/STIM_007.jpg
742.077	0.551	1	repeat	Run1	repeat/STIM_007.jpg
745.522	0.748	1	repeat	Run1	repeat/STIM_007.jpg
749.323	0.726	1	repeat	Run1	repeat/STIM_008.jpg
753.067	0.644	1	repeat	Run1	repeat/STIM_008.jpg
757.654	0.58	1	repeat	Run1	repeat/STIM_008.jpg
761.659	0.576	1	repeat	Run1	repeat/STIM_008.jpg
764.696	0.574	1	repeat	Run1	repeat/STIM_008.jpg
769.234	0.553	1	repeat	Run1	repeat/STIM_009.jpg
773.54	0.849	1	repeat	Run1	repeat/STIM_009.jpg
777.387	0.483	1	repeat	Run1	repeat/STIM_009.jpg
780.732	0.739	1	repeat	Run1	repeat/STIM_009.jpg
783.768	0.458	1	repeat	Run1	repeat/STIM_009.jpg
786.563	0.771	1	repeat	Run1	repeat/STIM_010.jpg
790.935	0.776	1	repeat	Run1	repeat/STIM_010.jpg
794.923	0.863	1	repeat	Run1	repeat/STIM_010.jpg
799.662	0.787	1	repeat	Run1	repeat/STIM_010.jpg
802.794	0.686	1	repeat	Run1	repeat/STIM_010.jpg
805.859	0.659	1	repeat	Run1	repeat/STIM_011.jpg
809.45	0.626	1	repeat	Run1	repeat/STIM_011.jpg
813.972	0.527	1	repeat	Run1	repeat/STIM_011.jpg
818.064	0.677	1	repeat	Run1	repeat/STIM_011.jpg
822.3	0.505	1	repeat	Run1	repeat/STIM_011.jpg
825.424	0.632	1	repeat	Run1	repeat/STIM_012.jpg
829.571	0.704	1	repeat	Run1	repeat/STIM_012.jpg
833.757	0.615	1	repeat	Run1	repeat/STIM_012.jpg
836.921	0.496	1	repeat	Run1	repeat/STIM_012.jpg
841.141	0.611	1	repeat	Run1	repeat/STIM_012.jpg
845.348	0.794	1	repeat	Run1	repeat/STIM_013.jpg
849.705	0.451	1	repeat	Run1	repeat/STIM_013.jpg
853.782	0.602	1	repeat	Run1	repeat/STIM_013.jpg
856.937	0.449	1	repeat	Run1	repeat/STIM_013.jpg
860.951	0.592	1	repeat	Run1	repeat/STIM_013.jpg
863.74	0.445	1	repeat	Run1	repeat/STIM_014.jpg
867.452	0.57	1	repeat	Run1	repeat/STIM_014.jpg
871.196	0.806	1	repeat	Run1	repeat/STIM_014.jpg
875.635	0.468	1	repeat	Run1	repeat/STIM_014.jpg
880.124	0.495	1	repeat	Run1	repeat/STIM_014.jpg
883.484	2.147	0	generate	Run2	generate/STIM_000.jpg
889.348	1.676	1	generate	Run2	generate/STIM_000.jpg
893.574	0.927	0	generate	Run2	generate/STIM_000.jpg
896.779	1.491	1	generate	Run2	generate/STIM_000.jpg
901.537	1.517	1	generate	Run2	generate/STIM_000.jpg
905.677	1.189	1	generate	Run2	generate/STIM_001.jpg
909.943	1.506	0	generate	Run2	generate/STIM_001.jpg
914.246	0.827	1	generate	Run2	generate/STIM_001.jpg
918.861	1.088	1	generate	Run2	generate/STIM_001.jpg
923.388	1.053	1	generate	Run2	generate/STIM_001.jpg
927.085	1.89	0	generate	Run2	generate/STIM_002.jpg
932.596	1.688	0	generate	Run2	generate/STIM_002.jpg
936.647	0.82	1	generate	Run2	generate/STIM_002.jpg
941.239	0.841	1	generate	Run2	generate/STIM_002.jpg
945.827	0.755	1	generate	Run2	generate/STIM_002.jpg
950.303	1.98	1	generate	Run2	generate/STIM_003.jpg
955.968	1.749	1	generate	Run2	generate/STIM_003.jpg
960.313	1.192	0	generate	Run2	generate/STIM_003.jpg
964.0	1.048	1	generate	Run2	generate/STIM_003.jpg
968.701	1.552	1	generate	Run2	generate/STIM_003.jpg
973.872	1.348	1	generate	Run2	generate/STIM_004.jpg
978.091	1.027	1	generate	Run2	generate/STIM_004.jpg
981.531	0.995	1	generate	Run2	generate/STIM_004.jpg
985.336	0.815	0	generate	Run2	generate/STIM_004.jpg
989.366	1.054	1	generate	Run2	generate/STIM_004.jpg
994.098	1.509	1	generate	Run2	generate/STIM_005.jpg
998.99	1.682	1	generate	Run2	generate/STIM_005.jpg
1003.673	1.678	1	generate	Run2	generate/STIM_005.jpg
1008.481	0.979	0	generate	Run2	generate/STIM_005.jpg
1013.363	0.866	1	generate	Run2	generate/STIM_005.jpg
1018.35	1.401	1	generate	Run2	generate/STIM_006.jpg
1022.94	1.758	0	generate	Run2	generate/STIM_006.jpg
1027.844	1.604	0	generate	Run2	generate/STIM_006.jpg
1032.151	1.03	1	generate	Run2	generate/STIM_006.jpg
1035.378	0.956	1	generate	Run2	generate/STIM_006.jpg
1040.287	1.691	1	generate	Run2	generate/STIM_007.jpg
1044.311	1.989	1	generate	Run2	generate/STIM_007.jpg
1048.759	1.369	1	generate	Run2	generate/STIM_007.jpg
1052.956	0.736	1	generate	Run2	generate/STIM_007.jpg
1056.792	1.656	1	generate	Run2	generate/STIM_007.jpg
1060.957	1.381	1	generate	Run2	generate/STIM_008.jpg
1065.052	1.508	0	generate	Run2	generate/STIM_008.jpg
1069.842	1.791	1	generate	Run2	generate/STIM_008.jpg
1074.547	0.766	1	generate	Run2	generate/STIM_008.jpg
1078.119	1.439	1	generate	Run2	generate/STIM_008.jpg
1082.057	1.332	1	generate	Run2	generate/STIM_009.jpg
1086.313	1.336	1	generate	Run2	generate/STIM_009.jpg
1089.985	1.9	0	generate	Run2	generate/STIM_009.jpg
1094.486	1.27	1	generate	Run2	generate/STIM_009.jpg
1098.425	0.807	1	generate	Run2	generate/STIM_009.jpg
1102.991	2.2	0	generate	Run2	generate/STIM_010.jpg
1107.532	2.06	1	generate	Run2	generate/STIM_010.jpg
1112.884	0.868	1	generate	Run2	generate/STIM_010.jpg
1116.774	0.913	1	generate	Run2	generate/STIM_010.jpg
1120.417	1.094	1	generate	Run2	generate/STIM_010.jpg
1123.878	1.986	0	generate	Run2	generate/STIM_011.jpg
1128.839	1.307	0	generate	Run2	generate/STIM_011.jpg
1133.559	1.595	0	generate	Run2	generate/STIM_011.jpg
1138.176	0.753	0	generate	Run2	generate/STIM_011.jpg
1141.453	1.248	1	generate	Run2	generate/STIM_011.jpg
1146.845	2.195	1	generate	Run2	generate/STIM_012.jpg
1151.621	1.08	0	generate	Run2	generate/STIM_012.jpg
1156.164	1.368	1	generate	Run2	generate/STIM_012.jpg
1161.581	1.237	1	generate	Run2	generate/STIM_012.jpg
1166.526	1.533	0	generate	Run2	generate/STIM_012.jpg
1171.788	1.077	1	generate	Run2	generate/STIM_013.jpg
1176.082	1.283	1	generate	Run2	generate/STIM_013.jpg
1179.834	1.065	1	generate	Run2	generate/STIM_013.jpg
1183.545	1.101	1	generate	Run2	generate/STIM_013.jpg
1187.591	1.811	1	generate	Run2	generate/STIM_013.jpg
1193.611	1.662	1	generate	Run2	generate/STIM_014.jpg
1198.377	0.878	1	generate	Run2	generate/STIM_014.jpg
1202.97	1.678	1	generate	Run2	generate/STIM_014.jpg
1208.094	0.931	0	generate	Run2	generate/STIM_014.jpg
1212.162	0.74	1	generate	Run2	generate/STIM_014.jpg
1215.36	1.964	1	generate	Run2	generate/STIM_015.jpg
1220.954	1.447	0	generate	Run2	generate/STIM_015.jpg
1226.213	1.036	1	generate	Run2	generate/STIM_015.jpg
1230.414	1.173	1	generate	Run2	generate/STIM_015.jpg
1235.487	1.03	0	generate	Run2	generate/STIM_015.jpg
1238.807	1.001	0	generate	Run2	generate/STIM_016.jpg
1243.508	1.793	1	generate	Run2	generate/STIM_016.jpg
1248.037	0.929	1	generate	Run2	generate/STIM_016.jpg
1252.393	1.135	1	generate	Run2	generate/STIM_016.jpg
1256.414	1.192	1	generate	Run2	generate/STIM_016.jpg
1260.118	1.339	1	generate	Run2	generate/STIM_017.jpg
1265.495	1.062	1	generate	Run2	generate/STIM_017.jpg
1268.833	1.943	1	generate	Run2	generate/STIM_017.jpg
1274.749	1.661	1	generate	Run2	generate/STIM_017.jpg
1280.129	1.2	1	generate	Run2	generate/STIM_017.jpg
1284.571	2.06	1	generate	Run2	generate/STIM_018.jpg
1290.375	2.011	0	generate	Run2	generate/STIM_018.jpg
1295.93	1.269	1	generate	Run2	generate/STIM_018.jpg
1300.335	1.03	1	generate	Run2	generate/STIM_018.jpg
1303.69	0.968	1	generate	Run2	generate/STIM_018.jpg
1308.128	1.911	1	generate	Run2	generate/STIM_019.jpg
1314.164	1.9	1	generate	Run2	generate/STIM_019.jpg
1319.415	1.429	1	generate	Run2	generate/STIM_019.jpg
1323.423	0.87	1	generate	Run2	generate/STIM_019.jpg
1327.033	1.571	1	generate	Run2	generate/STIM_019.jpg
1331.496	1.615	0	generate	Run2	generate/STIM_020.jpg
1336.256	1.698	1	generate	Run2	generate/STIM_020.jpg
1341.251	1.16	1	generate	Run2	generate/STIM_020.jpg
1345.242	1.63	1	generate	Run2	generate/STIM_020.jpg
1350.757	1.797	1	generate	Run2	generate/STIM_020.jpg
1355.051	0.93	1	generate	Run2	generate/STIM_021.jpg
1358.837	1.155	1	generate	Run2	generate/STIM_021.jpg
1362.781	1.383	1	generate	Run2	generate/STIM_021.jpg
1366.722	0.898	1	generate	Run2	generate/STIM_021.jpg
1371.223	1.138	1	generate	Run2	generate/STIM_021.jpg
1375.195	1.246	1	generate	Run2	generate/STIM_022.jpg
1379.345	1.422	0	generate	Run2	generate/STIM_022.jpg
1384.068	1.458	1	generate	Run2	generate/STIM_022.jpg
1389.665	0.848	1	generate	Run2	generate/STIM_022.jpg
1392.978	1.726	1	generate	Run2	generate/STIM_022.jpg
1398.215	1.739	1	generate	Run2	generate/STIM_023.jpg
1403.59	1.134	1	generate	Run2	generate/STIM_023.jpg
1407.427	1.783	1	generate	Run2	generate/STIM_023.jpg
1413.253	1.836	1	generate	Run2	generate/STIM_023.jpg
1419.069	0.826	0	generate	Run2	generate/STIM_023.jpg
1423.44	1.985	1	generate	Run2	generate/STIM_024.jpg
1428.299	1.937	1	generate	Run2	generate/STIM_024.jpg
1433.014	0.837	1	generate	Run2	generate/STIM_024.jpg
1436.614	1.504	0	generate	Run2	generate/STIM_024.jpg
1440.736	1.246	0	generate	Run2	generate/STIM_024.jpg
1446.087	0.701	1	repeat	Run2	repeat/STIM_000.jpg
1449.857	0.836	1	repeat	Run2	repeat/STIM_000.jpg
1454.445	0.521	1	repeat	Run2	repeat/STIM_000.jpg
1458.964	0.621	1	repeat	Run2	repeat/STIM_000.jpg
1463.229	0.617	1	repeat	Run2	repeat/STIM_000.jpg
1467.0	0.547	1	repeat	Run2	repeat/STIM_001.jpg
1471.492	0.613	1	repeat	Run2	repeat/STIM_001.jpg
1475.437	0.461	1	repeat	Run2	repeat/STIM_001.jpg
1479.394	0.467	1	repeat	Run2	repeat/STIM_001.jpg
1483.709	0.752	1	repeat	Run2	repeat/STIM_001.jpg
1487.61	0.481	0	repeat	Run2	repeat/STIM_002.jpg
1490.763	0.681	1	repeat	Run2	repeat/STIM_002.jpg
1495.111	0.823	0	repeat	Run2	repeat/STIM_002.jpg
1498.895	0.653	1	repeat	Run2	repeat/STIM_002.jpg
1502.372	0.516	1	repeat	Run2	repeat/STIM_002.jpg
1505.201	0.743	1	repeat	Run2	repeat/STIM_003.jpg
1508.552	0.544	1	repeat	Run2	repeat/STIM_003.jpg
1513.124	0.862	1	repeat	Run2	repeat/STIM_003.jpg
1517.438	0.645	1	repeat	Run2	repeat/STIM_003.jpg
1521.279	0.564	1	repeat	Run2	repeat/STIM_003.jpg
1524.732	0.545	1	repeat	Run2	repeat/STIM_004.jpg
1528.261	0.763	1	repeat	Run2	repeat/STIM_004.jpg
1532.636	0.866	1	repeat	Run2	repeat/STIM_004.jpg
1536.581	0.539	1	repeat	Run2	repeat/STIM_004.jpg
1540.333	0.667	1	repeat	Run2	repeat/STIM_004.jpg
1543.202	0.681	1	repeat	Run2	repeat/STIM_005.jpg
1546.671	0.476	1	repeat	Run2	repeat/STIM_005.jpg
1550.09	0.532	1	repeat	Run2	repeat/STIM_005.jpg
1553.069	0.627	1	repeat	Run2	repeat/STIM_005.jpg
1556.079	0.505	1	repeat	Run2	repeat/STIM_005.jpg
1558.868	0.809	1	repeat	Run2	repeat/STIM_006.jpg
1563.067	0.794	1	repeat	Run2	repeat/STIM_006.jpg
1566.703	0.582	1	repeat	Run2	repeat/STIM_006.jpg
1569.737	0.552	1	repeat	Run2	repeat/STIM_006.jpg
1572.939	0.799	1	repeat	Run2	repeat/STIM_006.jpg
1576.461	0.779	1	repeat	Run2	repeat/STIM_007.jpg
1580.345	0.613	1	repeat	Run2	repeat/STIM_007.jpg
1583.116	0.757	0	repeat	Run2	repeat/STIM_007.jpg
1586.905	0.759	1	repeat	Run2	repeat/STIM_007.jpg
1590.814	0.69	1	repeat	Run2	repeat/STIM_007.jpg
1595.44	0.498	0	repeat	Run2	repeat/STIM_008.jpg
1598.736	0.677	1	repeat	Run2	repeat/STIM_008.jpg
1602.583	0.66	1	repeat	Run2	repeat/STIM_008.jpg
1605.453	0.479	1	repeat	Run2	repeat/STIM_008.jpg
1608.452	0.609	1	repeat	Run2	repeat/STIM_008.jpg
1611.225	0.54	1	repeat	Run2	repeat/STIM_009.jpg
1614.34	0.457	1	repeat	Run2	repeat/STIM_009.jpg
1618.644	0.508	1	repeat	Run2	repeat/STIM_009.jpg
1622.768	0.692	1	repeat	Run2	repeat/STIM_009.jpg
1627.37	0.701	1	repeat	Run2	repeat/STIM_009.jpg
1630.246	0.764	1	repeat	Run2	repeat/STIM_010.jpg
1634.363	0.485	1	repeat	Run2	repeat/STIM_010.jpg
1637.141	0.844	1	repeat	Run2	repeat/STIM_010.jpg
1640.745	0.438	1	repeat	Run2	repeat/STIM_010.jpg
1644.681	0.874	1	repeat	Run2	repeat/STIM_010.jpg
1648.544	0.781	1	repeat	Run2	repeat/STIM_011.jpg
1653.066	0.534	1	repeat	Run2	repeat/STIM_011.jpg
1655.872	0.823	1	repeat	Run2	repeat/STIM_011.jpg
1659.319	0.531	1	repeat	Run2	repeat/STIM_011.jpg
1663.741	0.489	1	repeat	Run2	repeat/STIM_011.jpg
1666.503	0.797	1	repeat	Run2	repeat/STIM_012.jpg
1670.566	0.864	1	repeat	Run2	repeat/STIM_012.jpg
1675.107	0.683	0	repeat	Run2	repeat/STIM_012.jpg
1679.465	0.789	1	repeat	Run2	repeat/STIM_012.jpg
1683.974	0.68	1	repeat	Run2	repeat/STIM_012.jpg
1686.84	0.836	1	repeat	Run2	repeat/STIM_013.jpg
1691.339	0.681	1	repeat	Run2	repeat/STIM_013.jpg
1695.08	0.519	1	repeat	Run2	repeat/STIM_013.jpg
1699.611	0.872	1	repeat	Run2	repeat/STIM_013.jpg
1702.811	0.493	1	repeat	Run2	repeat/STIM_013.jpg
1706.924	0.485	1	repeat	Run2	repeat/STIM_014.jpg
1710.902	0.511	1	repeat	Run2	repeat/STIM_014.jpg
1714.876	0.518	1	repeat	Run2	repeat/STIM_014.jpg
1719.161	0.794	1	repeat	Run2	repeat/STIM_014.jpg
1723.28	0.654	1	repeat	Run2	repeat/STIM_014.jpg
1726.287	1.578	1	generate	Run3	generate/STIM_000.jpg
1730.383	1.81	1	generate	Run3	generate/STIM_000.jpg
1736.122	1.502	0	generate	Run3	generate/STIM_000.jpg
1739.871	1.105	1	generate	Run3	generate/STIM_000.jpg
1744.356	1.112	1	generate	Run3	generate/STIM_000.jpg
1747.905	1.238	1	generate	Run3	generate/STIM_001.jpg
1752.274	1.81	1	generate	Run3	generate/STIM_001.jpg
1756.568	1.318	1	generate	Run3	generate/STIM_001.jpg
1761.933	1.493	1	generate	Run3	generate/STIM_001.jpg
1766.703	0.846	1	generate	Run3	generate/STIM_001.jpg
1771.437	0.983	1	generate	Run3	generate/STIM_002.jpg
1776.38	1.391	1	generate	Run3	generate/STIM_002.jpg
1781.108	0.893	1	generate	Run3	generate/STIM_002.jpg
1785.558	0.859	1	generate	Run3	generate/STIM_002.jpg
1790.106	1.015	1	generate	Run3	generate/STIM_002.jpg
1794.388	0.912	1	generate	Run3	generate/STIM_003.jpg
1799.374	1.486	1	generate	Run3	generate/STIM_003.jpg
1805.055	1.651	1	generate	Run3	generate/STIM_003.jpg
1809.173	1.08	1	generate	Run3	generate/STIM_003.jpg
1814.017	1.141	1	generate	Run3	generate/STIM_003.jpg
1819.148	0.995	1	generate	Run3	generate/STIM_004.jpg
1822.35	1.122	1	generate	Run3	generate/STIM_004.jpg
1826.281	1.393	1	generate	Run3	generate/STIM_004.jpg
1831.413	0.765	1	generate	Run3	generate/STIM_004.jpg
1834.583	1.636	1	generate	Run3	generate/STIM_004.jpg
1839.998	1.618	1	generate	Run3	generate/STIM_005.jpg
1845.481	1.662	1	generate	Run3	generate/STIM_005.jpg
1850.474	0.855	1	generate	Run3	generate/STIM_005.jpg
1854.771	1.311	1	generate	Run3	generate/STIM_005.jpg
1859.54	1.065	1	generate	Run3	generate/STIM_005.jpg
1863.988	0.983	1	generate	Run3	generate/STIM_006.jpg
1868.496	0.819	1	generate	Run3	generate/STIM_006.jpg
1872.317	1.081	1	generate	Run3	generate/STIM_006.jpg
1875.672	1.333	0	generate	Run3	generate/STIM_006.jpg
1881.112	1.214	1	generate	Run3	generate/STIM_006.jpg
1885.01	1.048	0	generate	Run3	generate/STIM_007.jpg
1889.209	1.465	1	generate	Run3	generate/STIM_007.jpg
1894.187	1.732	1	generate	Run3	generate/STIM_007.jpg
1899.627	1.643	1	generate	Run3	generate/STIM_007.jpg
1904.748	1.405	1	generate	Run3	generate/STIM_007.jpg
1910.114	1.307	1	generate	Run3	generate/STIM_008.jpg
1914.726	1.036	1	generate	Run3	generate/STIM_008.jpg
1918.938	0.857	1	generate	Run3	generate/STIM_008.jpg
1922.087	1.424	1	generate	Run3	generate/STIM_008.jpg
1926.63	0.829	1	generate	Run3	generate/STIM_008.jpg
1929.867	1.374	1	generate	Run3	generate/STIM_009.jpg
1935.28	1.413	1	generate	Run3	generate/STIM_009.jpg
1940.293	0.864	1	generate	Run3	generate/STIM_009.jpg
1943.29	0.835	1	generate	Run3	generate/STIM_009.jpg
1948.233	1.476	1	generate	Run3	generate/STIM_009.jpg
1953.555	1.133	1	generate	Run3	generate/STIM_010.jpg
1957.462	1.24	1	generate	Run3	generate/STIM_010.jpg
1961.667	1.378	1	generate	Run3	generate/STIM_010.jpg
1966.649	1.434	1	generate	Run3	generate/STIM_010.jpg
1971.504	1.197	1	generate	Run3	generate/STIM_010.jpg
1976.363	1.605	1	generate	Run3	generate/STIM_011.jpg
1980.722	1.503	1	generate	Run3	generate/STIM_011.jpg
1984.762	1.275	1	generate	Run3	generate/STIM_011.jpg
1988.984	1.055	1	generate	Run3	generate/STIM_011.jpg
1992.42	1.227	1	generate	Run3	generate/STIM_011.jpg
1996.019	0.807	1	generate	Run3	generate/STIM_012.jpg
2000.571	0.891	0	generate	Run3	generate/STIM_012.jpg
2003.603	1.787	0	generate	Run3	generate/STIM_012.jpg
2008.205	1.212	1	generate	Run3	generate/STIM_012.jpg
2013.064	0.844	1	generate	Run3	generate/STIM_012.jpg
2016.211	1.8	0	generate	Run3	generate/STIM_013.jpg
2022.249	1.496	1	generate	Run3	generate/STIM_013.jpg
2027.92	1.185	1	generate	Run3	generate/STIM_013.jpg
2031.945	1.82	1	generate	Run3	generate/STIM_013.jpg
2036.358	1.019	1	generate	Run3	generate/STIM_013.jpg
2041.357	0.764	1	generate	Run3	generate/STIM_014.jpg
2045.935	1.402	1	generate	Run3	generate/STIM_014.jpg
2050.191	1.38	1	generate	Run3	generate/STIM_014.jpg
2054.211	0.763	1	generate	Run3	generate/STIM_014.jpg
2058.533	0.978	1	generate	Run3	generate/STIM_014.jpg
2062.565	1.233	1	generate	Run3	generate/STIM_015.jpg
2067.552	0.775	1	generate	Run3	generate/STIM_015.jpg
2071.585	1.416	1	generate	Run3	generate/STIM_015.jpg
2076.916	1.699	1	generate	Run3	generate/STIM_015.jpg
2081.087	0.957	1	generate	Run3	generate/STIM_015.jpg
2085.792	1.121	1	generate	Run3	generate/STIM_016.jpg
2090.657	0.854	1	generate	Run3	generate/STIM_016.jpg
2094.105	1.21	1	generate	Run3	generate/STIM_016.jpg
2098.842	1.502	1	generate	Run3	generate/STIM_016.jpg
2102.977	1.75	1	generate	Run3	generate/STIM_016.jpg
2107.68	0.858	1	generate	Run3	generate/STIM_017.jpg
2110.989	1.665	1	generate	Run3	generate/STIM_017.jpg
2115.205	1.655	1	generate	Run3	generate/STIM_017.jpg
2119.886	1.683	1	generate	Run3	generate/STIM_017.jpg
2125.047	1.422	1	generate	Run3	generate/STIM_017.jpg
2130.118	1.778	1	generate	Run3	generate/STIM_018.jpg
2134.353	1.201	1	generate	Run3	generate/STIM_018.jpg
2138.979	0.941	1	generate	Run3	generate/STIM_018.jpg
2143.523	0.978	1	generate	Run3	generate/STIM_018.jpg
2146.742	1.672	1	generate	Run3	generate/STIM_018.jpg
2152.045	0.757	1	generate	Run3	generate/STIM_019.jpg
2156.279	1.424	1	generate	Run3	generate/STIM_019.jpg
2161.533	1.825	1	generate	Run3	generate/STIM_019.jpg
2165.974	1.309	1	generate	Run3	generate/STIM_019.jpg
2169.781	1.741	1	generate	Run3	generate/STIM_019.jpg
2175.403	1.424	1	generate	Run3	generate/STIM_020.jpg
2180.678	1.297	1	generate	Run3	generate/STIM_020.jpg
2185.301	1.365	1	generate	Run3	generate/STIM_020.jpg
2190.268	1.24	1	generate	Run3	generate/STIM_020.jpg
2195.498	1.605	1	generate	Run3	generate/STIM_020.jpg
2201.092	1.335	1	generate	Run3	generate/STIM_021.jpg
2204.665	1.575	1	generate	Run3	generate/STIM_021.jpg
2209.843	1.661	0	generate	Run3	generate/STIM_021.jpg
2214.989	1.416	0	generate	Run3	generate/STIM_021.jpg
2219.26	1.245	1	generate	Run3	generate/STIM_021.jpg
2223.857	1.246	1	generate	Run3	generate/STIM_022.jpg
2228.903	1.52	1	generate	Run3	generate/STIM_022.jpg
2234.037	1.056	1	generate	Run3	generate/STIM_022.jpg
2238.09	1.163	1	generate	Run3	generate/STIM_022.jpg
2242.326	0.862	1	generate	Run3	generate/STIM_022.jpg
2245.457	1.051	1	generate	Run3	generate/STIM_023.jpg
2249.806	1.442	1	generate	Run3	generate/STIM_023.jpg
2253.972	1.401	1	generate	Run3	generate/STIM_023.jpg
2258.435	0.954	1	generate	Run3	generate/STIM_023.jpg
2262.367	1.368	1	generate	Run3	generate/STIM_023.jpg
2267.008	1.303	1	generate	Run3	generate/STIM_024.jpg
2270.524	1.268	1	generate	Run3	generate/STIM_024.jpg
2275.146	1.078	1	generate	Run3	generate/STIM_024.jpg
2279.63	0.976	1	generate	Run3	generate/STIM_024.jpg
2283.998	1.081	1	generate	Run3	generate/STIM_024.jpg
2288.013	0.711	1	repeat	Run3	repeat/STIM_000.jpg
2292.633	0.777	1	repeat	Run3	repeat/STIM_000.jpg
2296.57	0.752	1	repeat	Run3	repeat/STIM_000.jpg
2301.088	0.702	1	repeat	Run3	repeat/STIM_000.jpg
2304.319	0.511	1	repeat	Run3	repeat/STIM_000.jpg
2307.086	0.775	1	repeat	Run3	repeat/STIM_001.jpg
2310.868	0.481	1	repeat	Run3	repeat/STIM_001.jpg
2313.887	0.85	1	repeat	Run3	repeat/STIM_001.jpg
2317.728	0.668	1	repeat	Run3	repeat/STIM_001.jpg
2320.961	0.791	1	repeat	Run3	repeat/STIM_001.jpg
2324.512	0.779	0	repeat	Run3	repeat/STIM_002.jpg
2329.048	0.68	1	repeat	Run3	repeat/STIM_002.jpg
2333.074	0.834	1	repeat	Run3	repeat/STIM_002.jpg
2336.751	0.579	1	repeat	Run3	repeat/STIM_002.jpg
2339.59	0.53	1	repeat	Run3	repeat/STIM_002.jpg
2344.082	0.684	1	repeat	Run3	repeat/STIM_003.jpg
2348.572	0.666	1	repeat	Run3	repeat/STIM_003.jpg
2351.911	0.603	1	repeat	Run3	repeat/STIM_003.jpg
2356.334	0.593	1	repeat	Run3	repeat/STIM_003.jpg
2360.717	0.722	1	repeat	Run3	repeat/STIM_003.jpg
2365.157	0.771	1	repeat	Run3	repeat/STIM_004.jpg
2368.781	0.684	1	repeat	Run3	repeat/STIM_004.jpg
2372.024	0.481	1	repeat	Run3	repeat/STIM_004.jpg
2376.422	0.457	1	repeat	Run3	repeat/STIM_004.jpg
2379.519	0.822	1	repeat	Run3	repeat/STIM_004.jpg
2382.464	0.568	1	repeat	Run3	repeat/STIM_005.jpg
2385.618	0.695	1	repeat	Run3	repeat/STIM_005.jpg
2389.513	0.482	1	repeat	Run3	repeat/STIM_005.jpg
2393.909	0.646	1	repeat	Run3	repeat/STIM_005.jpg
2397.019	0.814	1	repeat	Run3	repeat/STIM_005.jpg
2400.186	0.656	1	repeat	Run3	repeat/STIM_006.jpg
2404.622	0.837	1	repeat	Run3	repeat/STIM_006.jpg
2408.505	0.838	1	repeat	Run3	repeat/STIM_006.jpg
2413.235	0.755	1	repeat	Run3	repeat/STIM_006.jpg
2416.468	0.754	1	repeat	Run3	repeat/STIM_006.jpg
2419.819	0.489	1	repeat	Run3	repeat/STIM_007.jpg
2423.644	0.726	1	repeat	Run3	repeat/STIM_007.jpg
2427.689	0.81	1	repeat	Run3	repeat/STIM_007.jpg
2431.372	0.681	1	repeat	Run3	repeat/STIM_007.jpg
2435.735	0.722	1	repeat	Run3	repeat/STIM_007.jpg
2438.607	0.793	1	repeat	Run3	repeat/STIM_008.jpg
2441.816	0.856	1	repeat	Run3	repeat/STIM_008.jpg
2446.74	0.612	1	repeat	Run3	repeat/STIM_008.jpg
2450.398	0.566	1	repeat	Run3	repeat/STIM_008.jpg
2454.981	0.514	1	repeat	Run3	repeat/STIM_008.jpg
2457.947	0.645	1	repeat	Run3	repeat/STIM_009.jpg
2461.589	0.575	1	repeat	Run3	repeat/STIM_009.jpg
2465.697	0.779	1	repeat	Run3	repeat/STIM_009.jpg
2470.023	0.847	1	repeat	Run3	repeat/STIM_009.jpg
2473.343	0.524	1	repeat	Run3	repeat/STIM_009.jpg
2476.207	0.561	1	repeat	Run3	repeat/STIM_010.jpg
2479.131	0.578	1	repeat	Run3	repeat/STIM_010.jpg
2482.028	0.652	1	repeat	Run3	repeat/STIM_010.jpg
2486.278	0.792	1	repeat	Run3	repeat/STIM_010.jpg
2489.963	0.611	1	repeat	Run3	repeat/STIM_010.jpg
2493.287	0.683	1	repeat	Run3	repeat/STIM_011.jpg
2496.142	0.446	1	repeat	Run3	repeat/STIM_011.jpg
2499.6	0.63	1	repeat	Run3	repeat/STIM_011.jpg
2503.355	0.729	1	repeat	Run3	repeat/STIM_011.jpg
2507.83	0.667	1	repeat	Run3	repeat/STIM_011.jpg
2512.372	0.857	1	repeat	Run3	repeat/STIM_012.jpg
2517.108	0.492	1	repeat	Run3	repeat/STIM_012.jpg
2521.096	0.476	1	repeat	Run3	repeat/STIM_012.jpg
2525.523	0.791	1	repeat	Run3	repeat/STIM_012.jpg
2530.375	0.8	1	repeat	Run3	repeat/STIM_012.jpg
2534.765	0.662	1	repeat	Run3	repeat/STIM_013.jpg
2539.226	0.856	1	repeat	Run3	repeat/STIM_013.jpg
2543.551	0.653	1	repeat	Run3	repeat/STIM_013.jpg
2546.345	0.574	1	repeat	Run3	repeat/STIM_013.jpg
2549.217	0.448	1	repeat	Run3	repeat/STIM_013.jpg
2553.264	0.835	1	repeat	Run3	repeat/STIM_014.jpg
2556.74	0.519	1	repeat	Run3	repeat/STIM_014.jpg
2561.28	0.822	1	repeat	Run3	repeat/STIM_014.jpg
2565.181	0.731	1	repeat	Run3	repeat/STIM_014.jpg
2568.262	0.828	1	repeat	Run3	repeat/STIM_014.jpg
2572.788	1.708	0	generate	Run4	generate/STIM_000.jpg
2577.718	1.374	1	generate	Run4	generate/STIM_000.jpg
2581.478	1.818	1	generate	Run4	generate/STIM_000.jpg
2585.914	1.724	0	generate	Run4	generate/STIM_000.jpg
2591.557	0.851	1	generate	Run4	generate/STIM_000.jpg
2595.215	1.765	1	generate	Run4	generate/STIM_001.jpg
2599.857	1.39	1	generate	Run4	generate/STIM_001.jpg
2603.938	0.869	1	generate	Run4	generate/STIM_001.jpg
2607.815	1.088	1	generate	Run4	generate/STIM_001.jpg
2611.117	1.174	1	generate	Run4	generate/STIM_001.jpg
2616.268	1.337	1	generate	Run4	generate/STIM_002.jpg
2620.63	0.982	1	generate	Run4	generate/STIM_002.jpg
2624.437	0.756	1	generate	Run4	generate/STIM_002.jpg
2628.838	0.796	1	generate	Run4	generate/STIM_002.jpg
2632.337	1.343	1	generate	Run4	generate/STIM_002.jpg
2637.695	1.66	1	generate	Run4	generate/STIM_003.jpg
2642.363	1.284	1	generate	Run4	generate/STIM_003.jpg
2646.747	1.528	1	generate	Run4	generate/STIM_003.jpg
2651.509	0.796	1	generate	Run4	generate/STIM_003.jpg
2656.151	1.057	1	generate	Run4	generate/STIM_003.jpg
2660.467	1.11	1	generate	Run4	generate/STIM_004.jpg
2665.574	0.837	1	generate	Run4	generate/STIM_004.jpg
2669.994	0.966	1	generate	Run4	generate/STIM_004.jpg
2674.708	0.867	1	generate	Run4	generate/STIM_004.jpg
2678.581	1.261	1	generate	Run4	generate/STIM_004.jpg
2683.759	1.091	1	generate	Run4	generate/STIM_005.jpg
2688.641	1.001	1	generate	Run4	generate/STIM_005.jpg
2693.752	1.086	1	generate	Run4	generate/STIM_005.jpg
2697.11	1.416	1	generate	Run4	generate/STIM_005.jpg
2702.439	1.613	1	generate	Run4	generate/STIM_005.jpg
2707.476	1.603	1	generate	Run4	generate/STIM_006.jpg
2712.522	1.784	1	generate	Run4	generate/STIM_006.jpg
2718.155	0.832	1	generate	Run4	generate/STIM_006.jpg
2721.402	1.029	1	generate	Run4	generate/STIM_006.jpg
2726.096	0.743	1	generate	Run4	generate/STIM_006.jpg
2730.459	1.559	1	generate	Run4	generate/STIM_007.jpg
2735.046	1.46	1	generate	Run4	generate/STIM_007.jpg
2738.889	1.298	1	generate	Run4	generate/STIM_007.jpg
2743.248	1.781	1	generate	Run4	generate/STIM_007.jpg
2748.215	1.0	1	generate	Run4	generate/STIM_007.jpg
2751.514	1.725	1	generate	Run4	generate/STIM_008.jpg
2755.611	1.515	0	generate	Run4	generate/STIM_008.jpg
2760.048	1.318	1	generate	Run4	generate/STIM_008.jpg
2764.319	1.103	1	generate	Run4	generate/STIM_008.jpg
2768.95	0.968	1	generate	Run4	generate/STIM_008.jpg
2772.095	0.843	1	generate	Run4	generate/STIM_009.jpg
2775.147	1.254	1	generate	Run4	generate/STIM_009.jpg
2779.626	1.547	1	generate	Run4	generate/STIM_009.jpg
2785.052	0.817	1	generate	Run4	generate/STIM_009.jpg
2788.405	1.77	1	generate	Run4	generate/STIM_009.jpg
2794.141	0.762	1	generate	Run4	generate/STIM_010.jpg
2797.427	0.856	1	generate	Run4	generate/STIM_010.jpg
2801.746	1.697	1	generate	Run4	generate/STIM_010.jpg
2807.029	1.725	1	generate	Run4	generate/STIM_010.jpg
2812.995	0.924	0	generate	Run4	generate/STIM_010.jpg
2816.54	0.954	1	generate	Run4	generate/STIM_011.jpg
2821.396	1.242	1	generate	Run4	generate/STIM_011.jpg
2826.289	1.802	1	generate	Run4	generate/STIM_011.jpg
2831.102	0.769	1	generate	Run4	generate/STIM_011.jpg
2835.956	1.379	1	generate	Run4	generate/STIM_011.jpg
2841.277	0.835	1	generate	Run4	generate/STIM_012.jpg
2845.767	1.293	1	generate	Run4	generate/STIM_012.jpg
2849.534	1.256	1	generate	Run4	generate/STIM_012.jpg
2853.31	1.783	1	generate	Run4	generate/STIM_012.jpg
2858.615	1.014	1	generate	Run4	generate/STIM_012.jpg
2863.418	0.968	1	generate	Run4	generate/STIM_013.jpg
2867.018	1.462	1	generate	Run4	generate/STIM_013.jpg
2872.629	1.127	1	generate	Run4	generate/STIM_013.jpg
2877.915	1.488	1	generate	Run4	generate/STIM_013.jpg
2882.31	1.475	1	generate	Run4	generate/STIM_013.jpg
2887.148	1.728	1	generate	Run4	generate/STIM_014.jpg
2892.966	1.711	1	generate	Run4	generate/STIM_014.jpg
2897.518	1.814	1	generate	Run4	generate/STIM_014.jpg
2903.246	1.56	1	generate	Run4	generate/STIM_014.jpg
2907.587	1.088	1	generate	Run4	generate/STIM_014.jpg
2910.857	0.942	0	generate	Run4	generate/STIM_015.jpg
2915.512	1.451	1	generate	Run4	generate/STIM_015.jpg
2919.743	1.703	1	generate	Run4	generate/STIM_015.jpg
2925.514	0.997	1	generate	Run4	generate/STIM_015.jpg
2929.126	1.118	1	generate	Run4	generate/STIM_015.jpg
2933.437	1.307	1	generate	Run4	generate/STIM_016.jpg
2938.356	1.0	1	generate	Run4	generate/STIM_016.jpg
2943.112	1.162	1	generate	Run4	generate/STIM_016.jpg
2947.882	1.636	1	generate	Run4	generate/STIM_016.jpg
2953.52	1.827	1	generate	Run4	generate/STIM_016.jpg
2959.101	0.812	1	generate	Run4	generate/STIM_017.jpg
2963.946	1.534	1	generate	Run4	generate/STIM_017.jpg
2969.578	1.12	1	generate	Run4	generate/STIM_017.jpg
2973.506	1.416	1	generate	Run4	generate/STIM_017.jpg
2977.822	1.203	1	generate	Run4	generate/STIM_017.jpg
2981.258	1.683	1	generate	Run4	generate/STIM_018.jpg
2985.538	1.245	1	generate	Run4	generate/STIM_018.jpg
2990.415	1.154	1	generate	Run4	generate/STIM_018.jpg
2995.432	0.764	1	generate	Run4	generate/STIM_018.jpg
2998.896	0.928	1	generate	Run4	generate/STIM_018.jpg
3002.659	0.796	1	generate	Run4	generate/STIM_019.jpg
3007.178	1.555	1	generate	Run4	generate/STIM_019.jpg
3010.965	0.815	1	generate	Run4	generate/STIM_019.jpg
3014.978	1.439	0	generate	Run4	generate/STIM_019.jpg
3019.685	0.909	1	generate	Run4	generate/STIM_019.jpg
3022.857	1.836	1	generate	Run4	generate/STIM_020.jpg
3028.648	1.704	1	generate	Run4	generate/STIM_020.jpg
3032.678	1.103	1	generate	Run4	generate/STIM_020.jpg
3037.722	1.794	1	generate	Run4	generate/STIM_020.jpg
3041.874	1.823	1	generate	Run4	generate/STIM_020.jpg
3046.593	1.668	1	generate	Run4	generate/STIM_021.jpg
3050.975	1.013	1	generate	Run4	generate/STIM_021.jpg
3056.093	1.367	1	generate	Run4	generate/STIM_021.jpg
3061.577	0.982	1	generate	Run4	generate/STIM_021.jpg
3064.843	1.142	1	generate	Run4	generate/STIM_021.jpg
3068.425	1.258	1	generate	Run4	generate/STIM_022.jpg
3072.113	1.447	1	generate	Run4	generate/STIM_022.jpg
3076.464	1.405	1	generate	Run4	generate/STIM_022.jpg
3080.982	0.977	1	generate	Run4	generate/STIM_022.jpg
3085.916	1.397	1	generate	Run4	generate/STIM_022.jpg
3091.449	0.803	1	generate	Run4	generate/STIM_023.jpg
3096.118	1.551	1	generate	Run4	generate/STIM_023.jpg
3101.839	1.563	1	generate	Run4	generate/STIM_023.jpg
3105.995	1.174	1	generate	Run4	generate/STIM_023.jpg
3109.675	1.658	1	generate	Run4	generate/STIM_023.jpg
3114.861	1.074	1	generate	Run4	generate/STIM_024.jpg
3119.038	1.57	1	generate	Run4	generate/STIM_024.jpg
3123.278	1.176	1	generate	Run4	generate/STIM_024.jpg
3128.011	1.386	1	generate	Run4	generate/STIM_024.jpg
3133.124	1.121	1	generate	Run4	generate/STIM_024.jpg
3138.268	0.625	1	repeat	Run4	repeat/STIM_000.jpg
3142.755	0.631	1	repeat	Run4	repeat/STIM_000.jpg
3147.06	0.756	1	repeat	Run4	repeat/STIM_000.jpg
3150.258	0.604	1	repeat	Run4	repeat/STIM_000.jpg
3154.31	0.85	0	repeat	Run4	repeat/STIM_000.jpg
3157.731	0.787	1	repeat	Run4	repeat/STIM_001.jpg
3162.083	0.588	0	repeat	Run4	repeat/STIM_001.jpg
3165.508	0.625	1	repeat	Run4	repeat/STIM_001.jpg
3170.163	0.478	1	repeat	Run4	repeat/STIM_001.jpg
3173.042	0.826	1	repeat	Run4	repeat/STIM_001.jpg
3177.71	0.481	1	repeat	Run4	repeat/STIM_002.jpg
3180.298	0.521	1	repeat	Run4	repeat/STIM_002.jpg
3182.999	0.618	1	repeat	Run4	repeat/STIM_002.jpg
3186.343	0.455	1	repeat	Run4	repeat/STIM_002.jpg
3190.358	0.813	0	repeat	Run4	repeat/STIM_002.jpg
3194.318	0.828	1	repeat	Run4	repeat/STIM_003.jpg
3197.781	0.636	1	repeat	Run4	repeat/STIM_003.jpg
3201.291	0.868	1	repeat	Run4	repeat/STIM_003.jpg
3205.233	0.443	1	repeat	Run4	repeat/STIM_003.jpg
3207.942	0.587	1	repeat	Run4	repeat/STIM_003.jpg
3211.64	0.638	1	repeat	Run4	repeat/STIM_004.jpg
3214.828	0.517	1	repeat	Run4	repeat/STIM_004.jpg
3219.076	0.649	1	repeat	Run4	repeat/STIM_004.jpg
3222.926	0.773	1	repeat	Run4	repeat/STIM_004.jpg
3226.907	0.655	1	repeat	Run4	repeat/STIM_004.jpg
3230.461	0.531	1	repeat	Run4	repeat/STIM_005.jpg
3233.818	0.83	0	repeat	Run4	repeat/STIM_005.jpg
3237.736	0.68	1	repeat	Run4	repeat/STIM_005.jpg
3242.029	0.819	1	repeat	Run4	repeat/STIM_005.jpg
3246.017	0.524	1	repeat	Run4	repeat/STIM_005.jpg
3248.982	0.598	1	repeat	Run4	repeat/STIM_006.jpg
3252.404	0.698	1	repeat	Run4	repeat/STIM_006.jpg
3256.616	0.506	1	repeat	Run4	repeat/STIM_006.jpg
3259.612	0.825	1	repeat	Run4	repeat/STIM_006.jpg
3264.073	0.809	1	repeat	Run4	repeat/STIM_006.jpg
3267.111	0.571	1	repeat	Run4	repeat/STIM_007.jpg
3270.321	0.627	1	repeat	Run4	repeat/STIM_007.jpg
3273.343	0.697	1	repeat	Run4	repeat/STIM_007.jpg
3277.179	0.762	1	repeat	Run4	repeat/STIM_007.jpg
3280.26	0.805	1	repeat	Run4	repeat/STIM_007.jpg
3283.852	0.655	1	repeat	Run4	repeat/STIM_008.jpg
3287.333	0.814	1	repeat	Run4	repeat/STIM_008.jpg
3291.741	0.763	1	repeat	Run4	repeat/STIM_008.jpg
3295.067	0.522	1	repeat	Run4	repeat/STIM_008.jpg
3298.869	0.736	1	repeat	Run4	repeat/STIM_008.jpg
3302.38	0.527	1	repeat	Run4	repeat/STIM_009.jpg
3306.425	0.62	1	repeat	Run4	repeat/STIM_009.jpg
3310.151	0.768	1	repeat	Run4	repeat/STIM_009.jpg
3313.375	0.563	1	repeat	Run4	repeat/STIM_009.jpg
3316.243	0.447	1	repeat	Run4	repeat/STIM_009.jpg
3320.261	0.56	1	repeat	Run4	repeat/STIM_010.jpg
3324.444	0.679	1	repeat	Run4	repeat/STIM_010.jpg
3327.229	0.571	1	repeat	Run4	repeat/STIM_010.jpg
3330.325	0.754	1	repeat	Run4	repeat/STIM_010.jpg
3334.908	0.66	1	repeat	Run4	repeat/STIM_010.jpg
3339.571	0.654	1	repeat	Run4	repeat/STIM_011.jpg
3343.03	0.491	1	repeat	Run4	repeat/STIM_011.jpg
3346.171	0.797	1	repeat	Run4	repeat/STIM_011.jpg
3350.207	0.836	1	repeat	Run4	repeat/STIM_011.jpg
3353.924	0.709	1	repeat	Run4	repeat/STIM_011.jpg
3357.833	0.52	0	repeat	Run4	repeat/STIM_012.jpg
3361.621	0.481	0	repeat	Run4	repeat/STIM_012.jpg
3365.134	0.477	0	repeat	Run4	repeat/STIM_012.jpg
3368.188	0.819	1	repeat	Run4	repeat/STIM_012.jpg
3371.385	0.504	1	repeat	Run4	repeat/STIM_012.jpg
3374.024	0.756	1	repeat	Run4	repeat/STIM_013.jpg
3376.922	0.631	1	repeat	Run4	repeat/STIM_013.jpg
3380.852	0.626	1	repeat	Run4	repeat/STIM_013.jpg
3384.668	0.873	1	repeat	Run4	repeat/STIM_013.jpg
3389.225	0.673	1	repeat	Run4	repeat/STIM_013.jpg
3392.405	0.609	1	repeat	Run4	repeat/STIM_014.jpg
3395.357	0.638	1	repeat	Run4	repeat/STIM_014.jpg
3398.348	0.617	1	repeat	Run4	repeat/STIM_014.jpg
3402.917	0.744	1	repeat	Run4	repeat/STIM_014.jpg
3405.944	0.768	1	repeat	Run4	repeat/STIM_014.jpg
