onset	duration	response_time_ms	trial_type	learning_stage	stimulus	response_port
0.0	0.864	864.5	2back	Block1	2back/STIM_000.jpg	100
4.445	0.875	875.0	2back	Block1	2back/STIM_000.jpg	100
7.485	1.548	1547.7	2back	Block1	2back/STIM_000.jpg	100
12.63	0.95	950.1	2back	Block1	2back/STIM_001.jpg	100
16.478	1.604	1603.5	2back	Block1	2back/STIM_001.jpg	100
21.937	1.297	1296.6	2back	Block1	2back/STIM_001.jpg	100
25.8	1.128	1128.5	2back	Block1	2back/STIM_002.jpg	100
30.677	1.581	1580.7	2back	Block1	2back/STIM_002.jpg	99
35.299	0.973	973.4	2back	Block1	2back/STIM_002.jpg	99
39.261	1.439	1438.9	2back	Block1	2back/STIM_003.jpg	100
43.516	0.989	989.3	2back	Block1	2back/STIM_003.jpg	99
46.938	1.215	1215.2	2back	Block1	2back/STIM_003.jpg	100
50.644	0.744	744.3	2back	Block1	2back/STIM_004.jpg	99
55.351	1.512	1512.0	2back	Block1	2back/STIM_004.jpg	100
60.324	1.196	1195.9	2back	Block1	2back/STIM_004.jpg	100
63.555	1.01	1009.7	2back	Block1	2back/STIM_005.jpg	100
66.71	0.96	959.5	2back	Block1	2back/STIM_005.jpg	99
70.079	1.472	1471.5	2back	Block1	2back/STIM_005.jpg	99
73.825	1.231	1231.4	2back	Block1	2back/STIM_006.jpg	100
77.65	1.448	1448.1	2back	Block1	2back/STIM_006.jpg	99
81.913	0.759	759.3	2back	Block1	2back/STIM_006.jpg	99
86.294	1.383	1382.9	2back	Block1	2back/STIM_007.jpg	100
89.796	1.545	1545.2	2back	Block1	2back/STIM_007.jpg	100
94.213	0.866	866.3	2back	Block1	2back/STIM_007.jpg	99
99.059	0.972	971.7	2back	Block1	2back/STIM_008.jpg	99
103.885	1.599	1598.6	2back	Block1	2back/STIM_008.jpg	100
108.628	1.53	1530.1	2back	Block1	2back/STIM_008.jpg	99
112.323	0.925	925.2	2back	Block1	2back/STIM_009.jpg	99
117.072	1.023	1023.3	2back	Block1	2back/STIM_009.jpg	99
121.558	1.091	1090.9	2back	Block1	2back/STIM_009.jpg	99
125.974	1.305	1305.4	2back	Block1	2back/STIM_010.jpg	99
130.52	0.812	811.8	2back	Block1	2back/STIM_010.jpg	99
133.45	1.042	1042.1	2back	Block1	2back/STIM_010.jpg	99
136.511	1.677	1676.7	2back	Block1	2back/STIM_011.jpg	100
141.119	1.544	1544.4	2back	Block1	2back/STIM_011.jpg	100
146.203	1.463	1462.9	2back	Block1	2back/STIM_011.jpg	99
150.55	1.204	1203.5	2back	Block1	2back/STIM_012.jpg	100
154.117	1.297	1296.6	2back	Block1	2back/STIM_012.jpg	100
159.4	1.455	1455.3	2back	Block1	2back/STIM_012.jpg	100
162.962	0.816	815.9	2back	Block1	2back/STIM_013.jpg	100
166.52	1.427	1427.1	2back	Block1	2back/STIM_013.jpg	100
170.405	0.886	886.1	2back	Block1	2back/STIM_013.jpg	99
174.11	1.651	1651.1	2back	Block1	2back/STIM_014.jpg	100
179.456	1.276	1276.5	2back	Block1	2back/STIM_014.jpg	99
184.603	1.19	1189.6	2back	Block1	2back/STIM_014.jpg	100
188.727	1.293	1293.0	2back	Block1	2back/STIM_015.jpg	100
192.748	1.626	1626.4	2back	Block1	2back/STIM_015.jpg	100
197.116	1.03	1030.1	2back	Block1	2back/STIM_015.jpg	99
200.166	0.976	975.5	2back	Block1	2back/STIM_016.jpg	99
204.48	0.756	756.1	2back	Block1	2back/STIM_016.jpg	100
208.993	0.913	913.1	2back	Block1	2back/STIM_016.jpg	99
213.589	1.031	1030.7	2back	Block1	2back/STIM_017.jpg	99
217.827	1.368	1368.1	2back	Block1	2back/STIM_017.jpg	99
222.992	1.244	1244.1	2back	Block1	2back/STIM_017.jpg	100
228.147	1.054	1054.0	2back	Block1	2back/STIM_018.jpg	100
231.901	1.164	1163.6	2back	Block1	2back/STIM_018.jpg	99
235.433	1.436	1435.5	2back	Block1	2back/STIM_018.jpg	100
240.78	0.786	785.6	2back	Block1	2back/STIM_019.jpg	100
243.661	0.805	805.0	2back	Block1	2back/STIM_019.jpg	100
248.45	0.876	875.5	2back	Block1	2back/STIM_019.jpg	99
251.356	1.672	1671.7	2back	Block1	2back/STIM_020.jpg	100
255.727	1.051	1050.9	2back	Block1	2back/STIM_020.jpg	100
258.954	1.03	1029.6	2back	Block1	2back/STIM_020.jpg	99
262.359	0.877	876.9	2back	Block1	2back/STIM_021.jpg	100
266.954	1.318	1317.8	2back	Block1	2back/STIM_021.jpg	99
271.476	1.025	1025.0	2back	Block1	2back/STIM_021.jpg	100
276.224	1.139	1139.4	2back	Block1	2back/STIM_022.jpg	100
279.431	1.526	1525.9	2back	Block1	2back/STIM_022.jpg	100
283.994	1.436	1436.2	2back	Block1	2back/STIM_022.jpg	100
289.311	0.823	822.6	2back	Block1	2back/STIM_023.jpg	99
292.563	1.343	1343.1	2back	Block1	2back/STIM_023.jpg	100
296.365	0.731	730.9	2back	Block1	2back/STIM_023.jpg	99
300.945	1.487	1486.9	2back	Block1	2back/STIM_024.jpg	99
305.367	1.207	1206.9	2back	Block1	2back/STIM_024.jpg	99
309.604	0.699	699.4	2back	Block1	2back/STIM_024.jpg	99
314.097	1.636	1635.8	2back	Block1	2back/STIM_025.jpg	99
319.121	1.015	1014.7	2back	Block1	2back/STIM_025.jpg	100
322.438	1.013	1012.6	2back	Block1	2back/STIM_025.jpg	99
326.297	0.891	890.6	2back	Block1	2back/STIM_026.jpg	99
330.215	0.869	868.6	2back	Block1	2back/STIM_026.jpg	99
334.316	1.547	1546.6	2back	Block1	2back/STIM_026.jpg	100
339.064	0.999	999.1	2back	Block1	2back/STIM_027.jpg	100
343.0	1.026	1026.0	2back	Block1	2back/STIM_027.jpg	100
346.363	1.364	1364.0	2back	Block1	2back/STIM_027.jpg	99
350.62	1.605	1605.1	2back	Block1	2back/STIM_028.jpg	99
355.857	1.109	1109.1	2back	Block1	2back/STIM_028.jpg	100
360.309	1.389	1388.6	2back	Block1	2back/STIM_028.jpg	100
365.401	1.206	1206.1	2back	Block1	2back/STIM_029.jpg	99
369.061	1.444	1443.9	2back	Block1	2back/STIM_029.jpg	99
372.635	0.944	943.9	2back	Block1	2back/STIM_029.jpg	99
376.684	1.236	1236.5	2back	Block1	2back/STIM_030.jpg	100
380.023	1.308	1307.7	2back	Block1	2back/STIM_030.jpg	100
385.1	0.894	893.9	2back	Block1	2back/STIM_030.jpg	99
388.215	0.854	854.5	2back	Block1	2back/STIM_031.jpg	100
392.65	0.912	911.5	2back	Block1	2back/STIM_031.jpg	99
397.159	1.123	1122.9	2back	Block1	2back/STIM_031.jpg	99
401.543	1.074	1074.3	2back	Block1	2back/STIM_032.jpg	99
405.918	0.933	933.1	2back	Block1	2back/STIM_032.jpg	99
410.091	1.31	1309.7	2back	Block1	2back/STIM_032.jpg	99
413.504	1.065	1064.6	2back	Block1	2back/STIM_033.jpg	100
417.815	1.249	1249.2	2back	Block1	2back/STIM_033.jpg	100
422.116	0.955	954.6	2back	Block1	2back/STIM_033.jpg	99
425.641	1.492	1492.4	2back	Block1	2back/STIM_034.jpg	99
429.729	1.284	1284.1	2back	Block1	2back/STIM_034.jpg	99
433.431	1.009	1009.3	2back	Block1	2back/STIM_034.jpg	100
437.242	1.277	1277.1	2back	Block1	2back/STIM_035.jpg	99
441.038	1.438	1438.2	2back	Block1	2back/STIM_035.jpg	99
445.419	1.052	1052.0	2back	Block1	2back/STIM_035.jpg	100
448.678	0.795	794.9	2back	Block1	2back/STIM_036.jpg	99
452.423	1.581	1581.3	2back	Block1	2back/STIM_036.jpg	99
457.838	1.47	1469.6	2back	Block1	2back/STIM_036.jpg	100
461.87	0.925	925.0	2back	Block1	2back/STIM_037.jpg	100
464.898	1.257	1257.4	2back	Block1	2back/STIM_037.jpg	99
468.173	0.699	699.3	2back	Block1	2back/STIM_037.jpg	99
471.363	0.978	977.8	2back	Block1	2back/STIM_038.jpg	100
475.088	0.97	969.7	2back	Block1	2back/STIM_038.jpg	100
479.4	1.126	1125.7	2back	Block1	2back/STIM_038.jpg	100
483.819	1.532	1531.9	2back	Block1	2back/STIM_039.jpg	99
489.173	1.198	1197.6	2back	Block1	2back/STIM_039.jpg	99
493.738	1.366	1366.2	2back	Block1	2back/STIM_039.jpg	99
498.791	0.847	846.8	0back	Block1	0back/STIM_000.jpg	100
503.048	0.892	891.7	0back	Block1	0back/STIM_000.jpg	100
506.995	0.919	919.2	0back	Block1	0back/STIM_000.jpg	99
510.013	0.687	687.1	0back	Block1	0back/STIM_001.jpg	100
513.354	0.569	568.9	0back	Block1	0back/STIM_001.jpg	99
517.736	0.762	762.5	0back	Block1	0back/STIM_001.jpg	100
520.88	0.702	702.0	0back	Block1	0back/STIM_002.jpg	100
525.449	0.719	719.3	0back	Block1	0back/STIM_002.jpg	99
528.366	0.796	796.0	0back	Block1	0back/STIM_002.jpg	100
533.014	0.667	667.2	0back	Block1	0back/STIM_003.jpg	99
536.403	0.818	817.8	0back	Block1	0back/STIM_003.jpg	100
540.526	0.957	956.9	0back	Block1	0back/STIM_003.jpg	100
544.562	0.892	891.5	0back	Block1	0back/STIM_004.jpg	100
548.351	0.792	791.6	0back	Block1	0back/STIM_004.jpg	100
552.915	0.586	586.3	0back	Block1	0back/STIM_004.jpg	99
555.643	0.534	533.5	0back	Block1	0back/STIM_005.jpg	100
558.48	0.531	530.8	0back	Block1	0back/STIM_005.jpg	100
561.969	0.739	739.4	0back	Block1	0back/STIM_005.jpg	100
566.598	0.912	911.8	0back	Block1	0back/STIM_006.jpg	99
570.335	0.977	977.2	0back	Block1	0back/STIM_006.jpg	99
573.611	0.87	870.0	0back	Block1	0back/STIM_006.jpg	100
578.067	0.752	751.5	0back	Block1	0back/STIM_007.jpg	99
582.629	0.923	923.2	0back	Block1	0back/STIM_007.jpg	100
586.542	0.686	685.5	0back	Block1	0back/STIM_007.jpg	100
589.319	0.78	780.2	0back	Block1	0back/STIM_008.jpg	99
593.495	0.564	564.3	0back	Block1	0back/STIM_008.jpg	99
597.458	0.596	596.5	0back	Block1	0back/STIM_008.jpg	100
600.559	0.754	753.8	0back	Block1	0back/STIM_009.jpg	99
605.124	0.915	915.3	0back	Block1	0back/STIM_009.jpg	99
608.66	0.809	809.3	0back	Block1	0back/STIM_009.jpg	99
612.818	0.703	703.3	0back	Block1	0back/STIM_010.jpg	100
617.233	0.583	582.6	0back	Block1	0back/STIM_010.jpg	100
620.589	0.662	661.7	0back	Block1	0back/STIM_010.jpg	100
623.791	0.678	678.2	0back	Block1	0back/STIM_011.jpg	99
627.882	0.57	570.0	0back	Block1	0back/STIM_011.jpg	99
632.182	0.982	981.9	0back	Block1	0back/STIM_011.jpg	99
636.592	0.579	579.3	0back	Block1	0back/STIM_012.jpg	99
641.134	0.84	839.5	0back	Block1	0back/STIM_012.jpg	100
644.466	0.978	977.8	0back	Block1	0back/STIM_012.jpg	99
648.698	0.521	520.8	0back	Block1	0back/STIM_013.jpg	99
651.893	0.698	697.6	0back	Block1	0back/STIM_013.jpg	99
656.028	0.522	521.9	0back	Block1	0back/STIM_013.jpg	99
659.211	0.604	604.3	0back	Block1	0back/STIM_014.jpg	99
662.862	0.885	885.4	0back	Block1	0back/STIM_014.jpg	99
667.256	0.988	987.7	0back	Block1	0back/STIM_014.jpg	100
670.504	0.76	759.9	0back	Block1	0back/STIM_015.jpg	100
673.264	0.928	928.3	0back	Block1	0back/STIM_015.jpg	99
676.368	0.563	563.4	0back	Block1	0back/STIM_015.jpg	100
680.799	0.609	608.9	0back	Block1	0back/STIM_016.jpg	100
684.346	0.929	928.9	0back	Block1	0back/STIM_016.jpg	99
689.134	0.716	715.5	0back	Block1	0back/STIM_016.jpg	99
691.934	0.498	497.5	0back	Block1	0back/STIM_017.jpg	99
695.426	0.876	875.5	0back	Block1	0back/STIM_017.jpg	100
699.78	0.922	921.7	0back	Block1	0back/STIM_017.jpg	99
704.218	0.53	530.3	0back	Block1	0back/STIM_018.jpg	100
708.197	0.734	733.8	0back	Block1	0back/STIM_018.jpg	100
710.947	0.648	648.5	0back	Block1	0back/STIM_018.jpg	100
715.264	0.759	759.0	0back	Block1	0back/STIM_019.jpg	100
718.745	0.577	576.8	0back	Block1	0back/STIM_019.jpg	100
722.498	0.592	592.4	0back	Block1	0back/STIM_019.jpg	99
726.822	0.955	955.1	2back	Block2	2back/STIM_000.jpg	100
731.032	0.718	717.7	2back	Block2	2back/STIM_000.jpg	99
735.513	0.826	825.5	2back	Block2	2back/STIM_000.jpg	99
739.768	1.41	1410.0	2back	Block2	2back/STIM_001.jpg	99
745.031	1.308	1308.4	2back	Block2	2back/STIM_001.jpg	100
749.509	0.696	696.1	2back	Block2	2back/STIM_001.jpg	100
753.294	1.094	1093.7	2back	Block2	2back/STIM_002.jpg	100
756.643	0.759	758.8	2back	Block2	2back/STIM_002.jpg	99
759.791	0.957	956.9	2back	Block2	2back/STIM_002.jpg	100
764.107	1.137	1137.4	2back	Block2	2back/STIM_003.jpg	100
768.641	0.768	767.9	2back	Block2	2back/STIM_003.jpg	99
771.775	0.965	964.6	2back	Block2	2back/STIM_003.jpg	99
775.336	1.103	1103.3	2back	Block2	2back/STIM_004.jpg	99
780.106	0.68	679.8	2back	Block2	2back/STIM_004.jpg	99
783.224	1.283	1283.3	2back	Block2	2back/STIM_004.jpg	99
787.956	0.846	845.7	2back	Block2	2back/STIM_005.jpg	99
790.856	1.036	1036.2	2back	Block2	2back/STIM_005.jpg	100
795.085	0.762	761.5	2back	Block2	2back/STIM_005.jpg	99
799.709	0.641	640.8	2back	Block2	2back/STIM_006.jpg	100
802.915	1.204	1203.9	2back	Block2	2back/STIM_006.jpg	100
806.757	0.635	634.7	2back	Block2	2back/STIM_006.jpg	99
810.555	0.922	922.0	2back	Block2	2back/STIM_007.jpg	100
814.3	0.779	779.0	2back	Block2	2back/STIM_007.jpg	99
817.313	1.23	1230.0	2back	Block2	2back/STIM_007.jpg	100
821.058	1.385	1384.6	2back	Block2	2back/STIM_008.jpg	99
825.609	1.314	1313.9	2back	Block2	2back/STIM_008.jpg	100
829.834	0.95	950.1	2back	Block2	2back/STIM_008.jpg	99
833.312	1.053	1053.0	2back	Block2	2back/STIM_009.jpg	100
836.764	0.596	595.5	2back	Block2	2back/STIM_009.jpg	100
841.108	0.611	610.6	2back	Block2	2back/STIM_009.jpg	100
844.605	0.853	852.6	2back	Block2	2back/STIM_010.jpg	100
847.717	1.175	1175.1	2back	Block2	2back/STIM_010.jpg	100
852.264	0.708	708.4	2back	Block2	2back/STIM_010.jpg	99
854.979	0.852	852.4	2back	Block2	2back/STIM_011.jpg	99
859.767	0.646	645.9	2back	Block2	2back/STIM_011.jpg	99
862.446	1.285	1284.9	2back	Block2	2back/STIM_011.jpg	99
866.187	0.763	762.8	2back	Block2	2back/STIM_012.jpg	99
870.524	1.308	1307.5	2back	Block2	2back/STIM_012.jpg	100
875.451	0.618	618.1	2back	Block2	2back/STIM_012.jpg	100
879.847	1.227	1226.9	2back	Block2	2back/STIM_013.jpg	100
883.192	0.938	938.5	2back	Block2	2back/STIM_013.jpg	99
887.161	0.775	775.2	2back	Block2	2back/STIM_013.jpg	99
890.189	1.296	1296.3	2back	Block2	2back/STIM_014.jpg	100
894.143	1.203	1203.1	2back	Block2	2back/STIM_014.jpg	99
899.188	0.895	894.8	2back	Block2	2back/STIM_014.jpg	99
903.984	0.826	826.4	2back	Block2	2back/STIM_015.jpg	99
907.614	0.612	612.4	2back	Block2	2back/STIM_015.jpg	99
911.817	1.22	1220.4	2back	Block2	2back/STIM_015.jpg	100
915.435	1.216	1216.4	2back	Block2	2back/STIM_016.jpg	100
919.248	1.06	1060.4	2back	Block2	2back/STIM_016.jpg	100
922.878	0.925	925.0	2back	Block2	2back/STIM_016.jpg	100
925.835	1.226	1226.0	2back	Block2	2back/STIM_017.jpg	100
930.017	0.803	802.8	2back	Block2	2back/STIM_017.jpg	99
934.057	1.282	1281.6	2back	Block2	2back/STIM_017.jpg	99
938.551	1.267	1267.1	2back	Block2	2back/STIM_018.jpg	99
943.569	0.701	701.4	2back	Block2	2back/STIM_018.jpg	100
947.347	1.045	1044.9	2back	Block2	2back/STIM_018.jpg	100
950.803	1.11	1109.5	2back	Block2	2back/STIM_019.jpg	99
954.89	1.338	1338.1	2back	Block2	2back/STIM_019.jpg	100
958.947	1.027	1027.3	2back	Block2	2back/STIM_019.jpg	99
962.217	1.266	1266.3	2back	Block2	2back/STIM_020.jpg	99
966.001	1.118	1117.7	2back	Block2	2back/STIM_020.jpg	99
970.708	0.657	656.8	2back	Block2	2back/STIM_020.jpg	100
973.892	0.849	849.1	2back	Block2	2back/STIM_021.jpg	100
977.436	0.995	995.2	2back	Block2	2back/STIM_021.jpg	99
980.526	0.78	780.3	2back	Block2	2back/STIM_021.jpg	100
984.848	0.854	854.5	2back	Block2	2back/STIM_022.jpg	99
987.763	0.801	801.2	2back	Block2	2back/STIM_022.jpg	100
992.403	0.661	661.1	2back	Block2	2back/STIM_022.jpg	99
995.417	1.178	1178.0	2back	Block2	2back/STIM_023.jpg	100
1000.575	1.265	1265.2	2back	Block2	2back/STIM_023.jpg	99
1005.378	0.887	886.6	2back	Block2	2back/STIM_023.jpg	99
1010.107	0.825	824.7	2back	Block2	2back/STIM_024.jpg	99
1014.343	1.093	1092.6	2back	Block2	2back/STIM_024.jpg	99
1018.996	1.254	1254.2	2back	Block2	2back/STIM_024.jpg	99
1022.978	0.796	796.0	2back	Block2	2back/STIM_025.jpg	99
1025.896	0.637	637.0	2back	Block2	2back/STIM_025.jpg	100
1030.293	0.877	877.2	2back	Block2	2back/STIM_025.jpg	99
1033.466	1.132	1132.5	2back	Block2	2back/STIM_026.jpg	100
1038.427	0.624	624.0	2back	Block2	2back/STIM_026.jpg	99
1042.447	1.144	1143.6	2back	Block2	2back/STIM_026.jpg	99
1046.035	1.321	1321.3	2back	Block2	2back/STIM_027.jpg	100
1049.824	0.782	782.5	2back	Block2	2back/STIM_027.jpg	99
1053.079	1.101	1101.4	2back	Block2	2back/STIM_027.jpg	99
1057.778	1.386	1385.5	2back	Block2	2back/STIM_028.jpg	100
1062.456	1.03	1029.5	2back	Block2	2back/STIM_028.jpg	99
1065.995	0.743	742.8	2back	Block2	2back/STIM_028.jpg	99
1068.99	0.954	953.5	2back	Block2	2back/STIM_029.jpg	100
1072.637	0.995	995.4	2back	Block2	2back/STIM_029.jpg	100
1076.446	0.705	704.8	2back	Block2	2back/STIM_029.jpg	99
1081.095	1.348	1348.5	2back	Block2	2back/STIM_030.jpg	100
1085.141	0.978	978.5	2back	Block2	2back/STIM_030.jpg	100
1089.376	0.803	803.1	2back	Block2	2back/STIM_030.jpg	100
1092.181	1.256	1255.7	2back	Block2	2back/STIM_031.jpg	100
1096.694	0.759	759.0	2back	Block2	2back/STIM_031.jpg	100
1101.192	0.968	967.6	2back	Block2	2back/STIM_031.jpg	99
1106.037	0.683	683.1	2back	Block2	2back/STIM_032.jpg	99
1109.093	0.912	911.6	2back	Block2	2back/STIM_032.jpg	99
1112.849	1.22	1220.5	2back	Block2	2back/STIM_032.jpg	100
1117.446	1.124	1123.6	2back	Block2	2back/STIM_033.jpg	99
1122.559	1.123	1123.1	2back	Block2	2back/STIM_033.jpg	100
1126.409	1.095	1095.0	2back	Block2	2back/STIM_033.jpg	99
1129.982	1.363	1362.6	2back	Block2	2back/STIM_034.jpg	99
1134.965	1.299	1299.1	2back	Block2	2back/STIM_034.jpg	100
1138.531	0.866	866.1	2back	Block2	2back/STIM_034.jpg	99
1142.813	1.224	1224.4	2back	Block2	2back/STIM_035.jpg	99
1146.682	1.36	1360.4	2back	Block2	2back/STIM_035.jpg	100
1150.981	1.103	1102.6	2back	Block2	2back/STIM_035.jpg	100
1154.374	1.32	1319.5	2back	Block2	2back/STIM_036.jpg	100
1158.484	1.352	1352.3	2back	Block2	2back/STIM_036.jpg	100
1163.653	1.249	1249.3	2back	Block2	2back/STIM_036.jpg	100
1167.311	1.093	1092.6	2back	Block2	2back/STIM_037.jpg	100
1172.041	1.043	1043.4	2back	Block2	2back/STIM_037.jpg	99
1175.999	1.047	1047.2	2back	Block2	2back/STIM_037.jpg	100
1180.82	1.231	1230.6	2back	Block2	2back/STIM_038.jpg	99
1185.416	1.372	1371.5	2back	Block2	2back/STIM_038.jpg	100
1188.912	1.201	1201.4	2back	Block2	2back/STIM_038.jpg	99
1192.758	0.759	759.4	2back	Block2	2back/STIM_039.jpg	99
1196.074	1.061	1061.2	2back	Block2	2back/STIM_039.jpg	100
1199.433	0.684	684.4	2back	Block2	2back/STIM_039.jpg	100
1203.148	0.726	725.9	0back	Block2	0back/STIM_000.jpg	99
1207.363	0.511	510.8	0back	Block2	0back/STIM_000.jpg	99
1211.201	0.557	556.6	0back	Block2	0back/STIM_000.jpg	100
1215.28	0.845	845.2	0back	Block2	0back/STIM_001.jpg	100
1218.41	0.848	848.3	0back	Block2	0back/STIM_001.jpg	100
1221.368	0.613	612.8	0back	Block2	0back/STIM_001.jpg	99
1225.7	0.64	639.9	0back	Block2	0back/STIM_002.jpg	100
1229.106	0.72	719.6	0back	Block2	0back/STIM_002.jpg	100
1233.291	0.868	868.1	0back	Block2	0back/STIM_002.jpg	100
1237.205	0.851	851.2	0back	Block2	0back/STIM_003.jpg	100
1240.467	0.646	645.6	0back	Block2	0back/STIM_003.jpg	99
1243.678	0.852	852.0	0back	Block2	0back/STIM_003.jpg	99
1248.04	0.793	792.8	0back	Block2	0back/STIM_004.jpg	100
1252.526	0.923	922.7	0back	Block2	0back/STIM_004.jpg	100
1256.05	0.964	963.7	0back	Block2	0back/STIM_004.jpg	99
1260.506	0.708	708.1	0back	Block2	0back/STIM_005.jpg	99
1264.089	0.905	904.8	0back	Block2	0back/STIM_005.jpg	99
1267.154	0.559	559.2	0back	Block2	0back/STIM_005.jpg	99
1269.869	0.834	833.6	0back	Block2	0back/STIM_006.jpg	100
1273.601	0.798	797.6	0back	Block2	0back/STIM_006.jpg	99
1278.242	0.662	661.5	0back	Block2	0back/STIM_006.jpg	100
1281.367	0.876	876.5	0back	Block2	0back/STIM_007.jpg	99
1285.45	0.73	729.8	0back	Block2	0back/STIM_007.jpg	100
1289.223	0.701	700.7	0back	Block2	0back/STIM_007.jpg	99
1293.412	0.733	733.4	0back	Block2	0back/STIM_008.jpg	99
1296.988	0.87	869.6	0back	Block2	0back/STIM_008.jpg	99
1300.301	0.622	621.6	0back	Block2	0back/STIM_008.jpg	100
1304.465	0.622	622.2	0back	Block2	0back/STIM_009.jpg	99
1308.29	0.942	941.6	0back	Block2	0back/STIM_009.jpg	100
1311.388	0.634	634.4	0back	Block2	0back/STIM_009.jpg	99
1315.797	0.694	694.0	0back	Block2	0back/STIM_010.jpg	100
1319.546	0.692	691.9	0back	Block2	0back/STIM_010.jpg	99
1323.952	0.866	866.5	0back	Block2	0back/STIM_010.jpg	99
1328.379	0.833	833.1	0back	Block2	0back/STIM_011.jpg	99
1332.204	0.763	763.2	0back	Block2	0back/STIM_011.jpg	99
1336.034	0.786	785.6	0back	Block2	0back/STIM_011.jpg	100
1340.643	0.563	562.7	0back	Block2	0back/STIM_012.jpg	99
1344.295	0.659	658.7	0back	Block2	0back/STIM_012.jpg	100
1347.199	0.593	592.6	0back	Block2	0back/STIM_012.jpg	100
1351.687	0.797	796.9	0back	Block2	0back/STIM_013.jpg	100
1356.422	0.651	650.7	0back	Block2	0back/STIM_013.jpg	100
1360.851	0.692	691.7	0back	Block2	0back/STIM_013.jpg	99
1365.395	0.902	901.6	0back	Block2	0back/STIM_014.jpg	100
1369.888	0.732	731.7	0back	Block2	0back/STIM_014.jpg	100
1373.573	0.748	747.7	0back	Block2	0back/STIM_014.jpg	99
1376.346	0.937	937.2	0back	Block2	0back/STIM_015.jpg	99
1380.551	0.786	785.5	0back	Block2	0back/STIM_015.jpg	100
1384.212	0.9	899.5	0back	Block2	0back/STIM_015.jpg	99
1388.434	0.817	816.6	0back	Block2	0back/STIM_016.jpg	100
1393.003	0.809	809.0	0back	Block2	0back/STIM_016.jpg	100
1397.375	0.647	646.7	0back	Block2	0back/STIM_016.jpg	99
1400.393	0.498	497.7	0back	Block2	0back/STIM_017.jpg	100
1403.063	0.501	501.0	0back	Block2	0back/STIM_017.jpg	99
1406.351	0.738	737.8	0back	Block2	0back/STIM_017.jpg	100
1409.57	0.606	605.5	0back	Block2	0back/STIM_018.jpg	99
1412.591	0.777	777.2	0back	Block2	0back/STIM_018.jpg	100
1415.484	0.952	951.6	0back	Block2	0back/STIM_018.jpg	100
1419.297	0.612	612.2	0back	Block2	0back/STIM_019.jpg	100
1422.748	0.888	888.2	0back	Block2	0back/STIM_019.jpg	99
1426.397	0.739	739.2	0back	Block2	0back/STIM_019.jpg	100
1429.81	1.061	1061.1	2back	Block3	2back/STIM_000.jpg	99
1434.427	1.062	1061.6	2back	Block3	2back/STIM_000.jpg	100
1437.927	1.016	1015.7	2back	Block3	2back/STIM_000.jpg	99
1441.197	0.806	806.2	2back	Block3	2back/STIM_001.jpg	100
1444.159	0.986	985.5	2back	Block3	2back/STIM_001.jpg	99
1447.406	0.766	765.6	2back	Block3	2back/STIM_001.jpg	100
1450.219	1.028	1027.6	2back	Block3	2back/STIM_002.jpg	100
1453.369	1.093	1092.8	2back	Block3	2back/STIM_002.jpg	99
1456.64	0.828	827.6	2back	Block3	2back/STIM_002.jpg	100
1460.707	1.15	1150.3	2back	Block3	2back/STIM_003.jpg	99
1464.998	0.694	694.4	2back	Block3	2back/STIM_003.jpg	100
1468.536	0.639	639.1	2back	Block3	2back/STIM_003.jpg	99
1471.728	1.091	1091.0	2back	Block3	2back/STIM_004.jpg	99
1476.311	0.891	890.6	2back	Block3	2back/STIM_004.jpg	100
1479.227	0.84	840.4	2back	Block3	2back/STIM_004.jpg	99
1482.183	0.81	810.4	2back	Block3	2back/STIM_005.jpg	99
1485.04	0.837	836.6	2back	Block3	2back/STIM_005.jpg	99
1489.243	0.904	904.0	2back	Block3	2back/STIM_005.jpg	100
1493.494	0.588	587.5	2back	Block3	2back/STIM_006.jpg	99
1496.81	0.699	698.8	2back	Block3	2back/STIM_006.jpg	99
1499.551	0.978	977.8	2back	Block3	2back/STIM_006.jpg	99
1502.697	1.104	1103.9	2back	Block3	2back/STIM_007.jpg	99
1507.056	0.74	740.5	2back	Block3	2back/STIM_007.jpg	99
1510.821	1.0	1000.2	2back	Block3	2back/STIM_007.jpg	99
1514.186	1.148	1147.5	2back	Block3	2back/STIM_008.jpg	99
1517.971	0.524	524.2	2back	Block3	2back/STIM_008.jpg	99
1521.217	0.52	520.3	2back	Block3	2back/STIM_008.jpg	99
1524.628	0.82	819.7	2back	Block3	2back/STIM_009.jpg	100
1529.396	0.737	736.7	2back	Block3	2back/STIM_009.jpg	99
1533.426	0.857	857.1	2back	Block3	2back/STIM_009.jpg	100
1538.154	0.78	780.0	2back	Block3	2back/STIM_010.jpg	99
1542.057	0.863	863.4	2back	Block3	2back/STIM_010.jpg	100
1546.557	0.88	880.3	2back	Block3	2back/STIM_010.jpg	99
1550.721	0.999	999.1	2back	Block3	2back/STIM_011.jpg	100
1554.15	0.917	917.3	2back	Block3	2back/STIM_011.jpg	99
1557.237	1.122	1121.5	2back	Block3	2back/STIM_011.jpg	99
1561.085	1.139	1138.6	2back	Block3	2back/STIM_012.jpg	99
1565.644	1.028	1028.1	2back	Block3	2back/STIM_012.jpg	100
1570.304	0.643	643.2	2back	Block3	2back/STIM_012.jpg	99
1574.85	0.536	535.7	2back	Block3	2back/STIM_013.jpg	99
1578.959	1.171	1170.8	2back	Block3	2back/STIM_013.jpg	99
1583.591	0.792	792.5	2back	Block3	2back/STIM_013.jpg	99
1587.111	1.072	1071.5	2back	Block3	2back/STIM_014.jpg	99
1591.304	0.959	958.6	2back	Block3	2back/STIM_014.jpg	99
1594.39	0.939	938.7	2back	Block3	2back/STIM_014.jpg	100
1598.298	1.114	1113.5	2back	Block3	2back/STIM_015.jpg	100
1603.256	0.962	961.7	2back	Block3	2back/STIM_015.jpg	100
1606.42	0.873	873.0	2back	Block3	2back/STIM_015.jpg	100
1609.464	0.934	933.8	2back	Block3	2back/STIM_016.jpg	99
1613.212	0.607	606.7	2back	Block3	2back/STIM_016.jpg	99
1617.817	0.74	739.5	2back	Block3	2back/STIM_016.jpg	100
1621.309	1.116	1115.5	2back	Block3	2back/STIM_017.jpg	100
1625.921	1.138	1138.1	2back	Block3	2back/STIM_017.jpg	100
1629.317	0.746	746.5	2back	Block3	2back/STIM_017.jpg	100
1632.233	1.051	1051.1	2back	Block3	2back/STIM_018.jpg	100
1636.043	0.95	950.1	2back	Block3	2back/STIM_018.jpg	100
1640.048	0.574	573.9	2back	Block3	2back/STIM_018.jpg	100
1642.7	1.2	1200.3	2back	Block3	2back/STIM_019.jpg	99
1647.136	0.955	954.6	2back	Block3	2back/STIM_019.jpg	99
1652.02	0.576	576.2	2back	Block3	2back/STIM_019.jpg	100
1655.978	0.701	700.8	2back	Block3	2back/STIM_020.jpg	99
1659.102	1.199	1198.6	2back	Block3	2back/STIM_020.jpg	100
1663.108	1.109	1108.8	2back	Block3	2back/STIM_020.jpg	100
1666.824	0.806	806.2	2back	Block3	2back/STIM_021.jpg	100
1671.406	1.189	1188.7	2back	Block3	2back/STIM_021.jpg	100
1674.7	0.7	699.8	2back	Block3	2back/STIM_021.jpg	99
1677.634	0.656	655.9	2back	Block3	2back/STIM_022.jpg	100
1681.156	0.813	813.3	2back	Block3	2back/STIM_022.jpg	100
1685.825	0.778	778.2	2back	Block3	2back/STIM_022.jpg	100
1689.301	0.782	781.8	2back	Block3	2back/STIM_023.jpg	100
1693.263	0.946	946.4	2back	Block3	2back/STIM_023.jpg	99
1698.016	0.625	624.6	2back	Block3	2back/STIM_023.jpg	99
1701.175	1.035	1034.6	2back	Block3	2back/STIM_024.jpg	100
1705.407	0.634	633.6	2back	Block3	2back/STIM_024.jpg	99
1709.364	0.995	994.7	2back	Block3	2back/STIM_024.jpg	99
1712.659	0.808	807.5	2back	Block3	2back/STIM_025.jpg	99
1716.811	1.194	1193.7	2back	Block3	2back/STIM_025.jpg	99
1721.372	1.137	1137.0	2back	Block3	2back/STIM_025.jpg	100
1726.183	0.809	808.6	2back	Block3	2back/STIM_026.jpg	100
1729.469	1.005	1004.6	2back	Block3	2back/STIM_026.jpg	99
1733.766	0.637	637.1	2back	Block3	2back/STIM_026.jpg	100
1738.332	0.944	943.5	2back	Block3	2back/STIM_027.jpg	99
1741.935	1.097	1097.4	2back	Block3	2back/STIM_027.jpg	99
1746.802	0.968	967.5	2back	Block3	2back/STIM_027.jpg	100
1750.286	0.681	680.8	2back	Block3	2back/STIM_028.jpg	99
1753.875	0.717	716.7	2back	Block3	2back/STIM_028.jpg	99
1757.086	1.118	1117.9	2back	Block3	2back/STIM_028.jpg	99
1761.837	0.983	983.4	2back	Block3	2back/STIM_029.jpg	100
1765.357	0.567	567.3	2back	Block3	2back/STIM_029.jpg	99
1769.091	0.716	716.2	2back	Block3	2back/STIM_029.jpg	100
1773.631	1.158	1157.7	2back	Block3	2back/STIM_030.jpg	99
1778.371	0.866	866.5	2back	Block3	2back/STIM_030.jpg	100
1782.647	0.737	736.9	2back	Block3	2back/STIM_030.jpg	100
1787.154	1.012	1012.2	2back	Block3	2back/STIM_031.jpg	99
1791.675	0.914	914.3	2back	Block3	2back/STIM_031.jpg	100
1795.242	0.92	920.4	2back	Block3	2back/STIM_031.jpg	100
1799.521	1.116	1116.5	2back	Block3	2back/STIM_032.jpg	99
1802.773	0.574	574.4	2back	Block3	2back/STIM_032.jpg	100
1806.032	0.917	916.7	2back	Block3	2back/STIM_032.jpg	99
1810.604	0.971	970.9	2back	Block3	2back/STIM_033.jpg	99
1815.543	0.914	913.7	2back	Block3	2back/STIM_033.jpg	100
1819.71	0.905	905.0	2back	Block3	2back/STIM_033.jpg	100
1823.582	0.925	925.2	2back	Block3	2back/STIM_034.jpg	99
1828.332	0.922	921.7	2back	Block3	2back/STIM_034.jpg	100
1833.01	0.612	611.9	2back	Block3	2back/STIM_034.jpg	99
1837.027	0.744	743.5	2back	Block3	2back/STIM_035.jpg	100
1840.096	1.148	1148.5	2back	Block3	2back/STIM_035.jpg	100
1843.632	0.896	896.2	2back	Block3	2back/STIM_035.jpg	99
1846.988	1.066	1066.2	2back	Block3	2back/STIM_036.jpg	100
1850.413	0.66	660.5	2back	Block3	2back/STIM_036.jpg	99
1853.305	0.756	756.0	2back	Block3	2back/STIM_036.jpg	100
1857.541	0.749	749.0	2back	Block3	2back/STIM_037.jpg	100
1861.323	1.207	1206.8	2back	Block3	2back/STIM_037.jpg	99
1865.645	1.06	1060.5	2back	Block3	2back/STIM_037.jpg	99
1869.864	0.683	682.8	2back	Block3	2back/STIM_038.jpg	99
1874.214	0.907	906.6	2back	Block3	2back/STIM_038.jpg	100
1878.724	0.928	928.1	2back	Block3	2back/STIM_038.jpg	99
1883.598	1.035	1034.9	2back	Block3	2back/STIM_039.jpg	100
1888.019	0.591	591.1	2back	Block3	2back/STIM_039.jpg	100
1891.568	0.547	547.0	2back	Block3	2back/STIM_039.jpg	100
1895.427	0.606	605.8	0back	Block3	0back/STIM_000.jpg	100
1898.147	0.732	732.4	0back	Block3	0back/STIM_000.jpg	99
1901.296	0.505	504.8	0back	Block3	0back/STIM_000.jpg	100
1905.543	0.533	532.9	0back	Block3	0back/STIM_001.jpg	100
1908.701	0.813	812.6	0back	Block3	0back/STIM_001.jpg	100
1912.146	0.777	776.7	0back	Block3	0back/STIM_001.jpg	99
1914.962	0.693	693.0	0back	Block3	0back/STIM_002.jpg	99
1918.839	0.547	547.1	0back	Block3	0back/STIM_002.jpg	100
1923.156	0.859	859.0	0back	Block3	0back/STIM_002.jpg	99
1927.078	0.833	832.8	0back	Block3	0back/STIM_003.jpg	99
1931.345	0.652	652.3	0back	Block3	0back/STIM_003.jpg	100
1935.602	0.497	496.7	0back	Block3	0back/STIM_003.jpg	99
1939.812	0.78	779.6	0back	Block3	0back/STIM_004.jpg	99
1944.416	0.921	921.2	0back	Block3	0back/STIM_004.jpg	99
1949.086	0.916	915.8	0back	Block3	0back/STIM_004.jpg	100
1952.956	0.66	660.0	0back	Block3	0back/STIM_005.jpg	99
1955.857	0.899	898.7	0back	Block3	0back/STIM_005.jpg	99
1958.821	0.526	525.5	0back	Block3	0back/STIM_005.jpg	100
1962.65	0.515	515.0	0back	Block3	0back/STIM_006.jpg	100
1965.614	0.986	986.2	0back	Block3	0back/STIM_006.jpg	100
1968.82	0.516	516.0	0back	Block3	0back/STIM_006.jpg	99
1972.401	0.697	697.3	0back	Block3	0back/STIM_007.jpg	99
1975.474	0.848	848.5	0back	Block3	0back/STIM_007.jpg	100
1978.478	0.663	662.6	0back	Block3	0back/STIM_007.jpg	100
1982.879	0.604	604.3	0back	Block3	0back/STIM_008.jpg	99
1986.88	0.646	645.8	0back	Block3	0back/STIM_008.jpg	100
1990.543	0.593	592.8	0back	Block3	0back/STIM_008.jpg	99
1994.34	0.547	547.3	0back	Block3	0back/STIM_009.jpg	100
1998.097	0.514	513.9	0back	Block3	0back/STIM_009.jpg	99
2000.842	0.974	973.8	0back	Block3	0back/STIM_009.jpg	100
2005.356	0.617	617.4	0back	Block3	0back/STIM_010.jpg	100
2008.02	0.678	678.5	0back	Block3	0back/STIM_010.jpg	100
2011.065	0.963	962.7	0back	Block3	0back/STIM_010.jpg	100
2014.098	0.974	974.2	0back	Block3	0back/STIM_011.jpg	99
2017.495	0.618	618.3	0back	Block3	0back/STIM_011.jpg	100
2021.208	0.673	673.1	0back	Block3	0back/STIM_011.jpg	100
2025.125	0.937	936.8	0back	Block3	0back/STIM_012.jpg	100
2029.553	0.655	655.0	0back	Block3	0back/STIM_012.jpg	99
2034.111	0.608	608.1	0back	Block3	0back/STIM_012.jpg	99
2037.079	0.657	656.8	0back	Block3	0back/STIM_013.jpg	99
2041.009	0.751	751.3	0back	Block3	0back/STIM_013.jpg	99
2044.38	0.928	927.6	0back	Block3	0back/STIM_013.jpg	100
2048.19	0.942	942.3	0back	Block3	0back/STIM_014.jpg	100
2052.398	0.638	638.5	0back	Block3	0back/STIM_014.jpg	100
2055.853	0.523	523.3	0back	Block3	0back/STIM_014.jpg	99
2059.471	0.594	594.0	0back	Block3	0back/STIM_015.jpg	100
2062.773	0.585	585.3	0back	Block3	0back/STIM_015.jpg	99
2065.684	0.775	775.4	0back	Block3	0back/STIM_015.jpg	100
2069.128	0.915	915.0	0back	Block3	0back/STIM_016.jpg	100
2072.82	0.68	679.5	0back	Block3	0back/STIM_016.jpg	100
2076.047	0.838	837.9	0back	Block3	0back/STIM_016.jpg	99
2080.041	0.829	828.9	0back	Block3	0back/STIM_017.jpg	99
2084.79	0.525	524.9	0back	Block3	0back/STIM_017.jpg	100
2087.377	0.648	647.7	0back	Block3	0back/STIM_017.jpg	99
2090.871	0.673	673.0	0back	Block3	0back/STIM_018.jpg	100
2094.822	0.736	735.8	0back	Block3	0back/STIM_018.jpg	100
2098.695	0.595	594.6	0back	Block3	0back/STIM_018.jpg	100
2102.996	0.691	691.1	0back	Block3	0back/STIM_019.jpg	99
2106.204	0.657	657.2	0back	Block3	0back/STIM_019.jpg	99
2109.085	0.703	703.0	0back	Block3	0back/STIM_019.jpg	100
2113.418	1.157	1157.4	2back	Block4	2back/STIM_000.jpg	100
2118.145	0.663	663.3	2back	Block4	2back/STIM_000.jpg	99
2121.082	0.656	655.5	2back	Block4	2back/STIM_000.jpg	100
2125.253	1.181	1181.4	2back	Block4	2back/STIM_001.jpg	100
2128.611	0.542	542.3	2back	Block4	2back/STIM_001.jpg	99
2132.791	0.664	663.8	2back	Block4	2back/STIM_001.jpg	100
2135.69	1.061	1061.3	2back	Block4	2back/STIM_002.jpg	100
2139.04	1.136	1136.3	2back	Block4	2back/STIM_002.jpg	99
2142.272	0.652	651.8	2back	Block4	2back/STIM_002.jpg	100
2146.401	0.563	563.2	2back	Block4	2back/STIM_003.jpg	100
2150.791	1.034	1033.8	2back	Block4	2back/STIM_003.jpg	99
2154.973	0.906	905.6	2back	Block4	2back/STIM_003.jpg	100
2159.742	0.719	718.8	2back	Block4	2back/STIM_004.jpg	99
2163.062	0.934	934.5	2back	Block4	2back/STIM_004.jpg	99
2167.766	0.952	951.5	2back	Block4	2back/STIM_004.jpg	100
2172.691	0.718	717.9	2back	Block4	2back/STIM_005.jpg	100
2176.259	1.158	1158.0	2back	Block4	2back/STIM_005.jpg	99
2179.955	0.536	535.7	2back	Block4	2back/STIM_005.jpg	99
2184.222	0.814	813.7	2back	Block4	2back/STIM_006.jpg	99
2187.132	0.716	715.7	2back	Block4	2back/STIM_006.jpg	99
2190.769	0.82	819.8	2back	Block4	2back/STIM_006.jpg	99
2195.246	0.86	860.1	2back	Block4	2back/STIM_007.jpg	99
2198.798	1.177	1177.4	2back	Block4	2back/STIM_007.jpg	100
2202.615	0.857	857.2	2back	Block4	2back/STIM_007.jpg	100
2206.506	0.611	611.2	2back	Block4	2back/STIM_008.jpg	99
2210.454	0.828	828.4	2back	Block4	2back/STIM_008.jpg	100
2214.769	0.936	936.2	2back	Block4	2back/STIM_008.jpg	99
2219.597	0.622	622.5	2back	Block4	2back/STIM_009.jpg	100
2222.486	1.125	1125.3	2back	Block4	2back/STIM_009.jpg	100
2226.967	0.675	674.6	2back	Block4	2back/STIM_009.jpg	99
2231.518	0.972	972.4	2back	Block4	2back/STIM_010.jpg	100
2234.759	1.086	1086.3	2back	Block4	2back/STIM_010.jpg	100
2238.443	1.051	1051.4	2back	Block4	2back/STIM_010.jpg	99
2241.632	0.717	716.6	2back	Block4	2back/STIM_011.jpg	99
2246.328	0.792	791.9	2back	Block4	2back/STIM_011.jpg	100
2251.109	0.913	912.8	2back	Block4	2back/STIM_011.jpg	99
2255.266	1.145	1145.2	2back	Block4	2back/STIM_012.jpg	100
2258.669	0.52	519.5	2back	Block4	2back/STIM_012.jpg	100
2262.769	0.895	895.0	2back	Block4	2back/STIM_012.jpg	99
2266.525	0.719	718.9	2back	Block4	2back/STIM_013.jpg	99
2269.971	0.731	730.6	2back	Block4	2back/STIM_013.jpg	99
2274.546	0.959	958.8	2back	Block4	2back/STIM_013.jpg	99
2277.692	1.114	1114.0	2back	Block4	2back/STIM_014.jpg	99
2281.192	1.138	1137.5	2back	Block4	2back/STIM_014.jpg	99
2284.638	0.823	822.7	2back	Block4	2back/STIM_014.jpg	100
2288.159	0.803	802.9	2back	Block4	2back/STIM_015.jpg	99
2292.115	0.584	584.2	2back	Block4	2back/STIM_015.jpg	99
2296.172	0.73	730.5	2back	Block4	2back/STIM_015.jpg	100
2299.026	0.67	670.5	2back	Block4	2back/STIM_016.jpg	99
2302.257	1.094	1093.5	2back	Block4	2back/STIM_016.jpg	100
2306.807	1.162	1161.8	2back	Block4	2back/STIM_016.jpg	99
2310.673	0.799	798.6	2back	Block4	2back/STIM_017.jpg	99
2314.115	1.187	1187.0	2back	Block4	2back/STIM_017.jpg	100
2318.831	1.196	1195.8	2back	Block4	2back/STIM_017.jpg	99
2322.29	1.115	1114.6	2back	Block4	2back/STIM_018.jpg	100
2326.38	1.165	1165.3	2back	Block4	2back/STIM_018.jpg	100
2330.285	0.731	731.4	2back	Block4	2back/STIM_018.jpg	100
2333.921	0.754	753.5	2back	Block4	2back/STIM_019.jpg	100
2336.766	0.695	695.1	2back	Block4	2back/STIM_019.jpg	100
2339.977	1.045	1045.0	2back	Block4	2back/STIM_019.jpg	100
2343.802	0.954	953.8	2back	Block4	2back/STIM_020.jpg	99
2348.464	0.667	666.9	2back	Block4	2back/STIM_020.jpg	99
2353.079	0.807	806.7	2back	Block4	2back/STIM_020.jpg	100
2357.024	1.136	1136.2	2back	Block4	2back/STIM_021.jpg	99
2360.337	0.623	623.3	2back	Block4	2back/STIM_021.jpg	99
2363.158	1.117	1117.2	2back	Block4	2back/STIM_021.jpg	100
2366.483	0.601	601.0	2back	Block4	2back/STIM_022.jpg	99
2370.194	0.731	730.8	2back	Block4	2back/STIM_022.jpg	100
2373.671	0.557	557.2	2back	Block4	2back/STIM_022.jpg	100
2376.771	0.59	590.2	2back	Block4	2back/STIM_023.jpg	100
2379.703	1.068	1068.2	2back	Block4	2back/STIM_023.jpg	99
2383.056	0.655	654.6	2back	Block4	2back/STIM_023.jpg	100
2386.165	1.129	1128.9	2back	Block4	2back/STIM_024.jpg	100
2391.006	0.74	739.8	2back	Block4	2back/STIM_024.jpg	99
2395.259	0.917	917.1	2back	Block4	2back/STIM_024.jpg	100
2399.698	1.005	1004.8	2back	Block4	2back/STIM_025.jpg	100
2403.564	0.938	938.5	2back	Block4	2back/STIM_025.jpg	100
2407.906	1.156	1155.9	2back	Block4	2back/STIM_025.jpg	100
2412.379	0.617	616.7	2back	Block4	2back/STIM_026.jpg	99
2415.68	0.94	939.5	2back	Block4	2back/STIM_026.jpg	100
2420.432	0.714	713.5	2back	Block4	2back/STIM_026.jpg	99
2424.963	1.067	1066.9	2back	Block4	2back/STIM_027.jpg	99
2428.544	0.966	965.8	2back	Block4	2back/STIM_027.jpg	100
2432.07	0.897	897.4	2back	Block4	2back/STIM_027.jpg	100
2435.734	0.87	870.2	2back	Block4	2back/STIM_028.jpg	100
2439.119	1.028	1028.5	2back	Block4	2back/STIM_028.jpg	99
2442.968	0.985	984.6	2back	Block4	2back/STIM_028.jpg	99
2446.44	1.041	1040.7	2back	Block4	2back/STIM_029.jpg	99
2450.266	0.735	735.1	2back	Block4	2back/STIM_029.jpg	99
2453.004	1.177	1176.7	2back	Block4	2back/STIM_029.jpg	99
2456.214	0.93	930.0	2back	Block4	2back/STIM_030.jpg	100
2459.217	0.617	617.2	2back	Block4	2back/STIM_030.jpg	100
2461.846	0.588	587.8	2back	Block4	2back/STIM_030.jpg	99
2466.39	0.965	965.2	2back	Block4	2back/STIM_031.jpg	100
2471.164	0.701	701.0	2back	Block4	2back/STIM_031.jpg	100
2474.098	0.794	793.9	2back	Block4	2back/STIM_031.jpg	100
2478.258	0.954	953.8	2back	Block4	2back/STIM_032.jpg	99
2482.858	0.935	934.6	2back	Block4	2back/STIM_032.jpg	100
2487.439	0.641	641.0	2back	Block4	2back/STIM_032.jpg	99
2491.842	1.117	1116.7	2back	Block4	2back/STIM_033.jpg	99
2496.219	0.954	954.4	2back	Block4	2back/STIM_033.jpg	99
2501.106	0.844	844.5	2back	Block4	2back/STIM_033.jpg	100
2504.864	0.718	718.5	2back	Block4	2back/STIM_034.jpg	99
2508.057	0.866	865.5	2back	Block4	2back/STIM_034.jpg	100
2512.43	1.056	1055.7	2back	Block4	2back/STIM_034.jpg	99
2515.512	1.076	1076.3	2back	Block4	2back/STIM_035.jpg	100
2519.76	0.536	535.9	2back	Block4	2back/STIM_035.jpg	99
2523.806	0.925	924.9	2back	Block4	2back/STIM_035.jpg	99
2527.534	0.56	560.3	2back	Block4	2back/STIM_036.jpg	99
2530.568	1.173	1173.3	2back	Block4	2back/STIM_036.jpg	100
2534.987	0.521	520.7	2back	Block4	2back/STIM_036.jpg	99
2538.461	1.091	1091.1	2back	Block4	2back/STIM_037.jpg	100
2542.303	0.691	691.4	2back	Block4	2back/STIM_037.jpg	100
2545.642	0.57	569.5	2back	Block4	2back/STIM_037.jpg	100
2549.336	1.163	1163.3	2back	Block4	2back/STIM_038.jpg	99
2553.92	0.772	772.5	2back	Block4	2back/STIM_038.jpg	100
2556.712	0.873	873.3	2back	Block4	2back/STIM_038.jpg	99
2560.105	0.523	522.6	2back	Block4	2back/STIM_039.jpg	99
2564.519	0.687	687.3	2back	Block4	2back/STIM_039.jpg	100
2567.634	0.726	726.1	2back	Block4	2back/STIM_039.jpg	99
2571.689	0.762	762.4	0back	Block4	0back/STIM_000.jpg	100
2575.25	0.735	735.1	0back	Block4	0back/STIM_000.jpg	99
2579.089	0.896	896.1	0back	Block4	0back/STIM_000.jpg	100
2583.558	0.907	907.1	0back	Block4	0back/STIM_001.jpg	100
2586.788	0.805	805.0	0back	Block4	0back/STIM_001.jpg	99
2589.658	0.769	768.7	0back	Block4	0back/STIM_001.jpg	99
2593.615	0.753	752.6	0back	Block4	0back/STIM_002.jpg	100
2596.377	0.816	815.9	0back	Block4	0back/STIM_002.jpg	99
2601.061	0.598	597.6	0back	Block4	0back/STIM_002.jpg	100
2605.06	0.718	718.5	0back	Block4	0back/STIM_003.jpg	100
2609.473	0.711	711.3	0back	Block4	0back/STIM_003.jpg	100
2612.446	0.65	650.4	0back	Block4	0back/STIM_003.jpg	99
2615.697	0.531	530.8	0back	Block4	0back/STIM_004.jpg	100
2619.56	0.755	755.2	0back	Block4	0back/STIM_004.jpg	99
2623.858	0.746	745.9	0back	Block4	0back/STIM_004.jpg	100
2627.972	0.729	729.0	0back	Block4	0back/STIM_005.jpg	99
2632.542	0.67	670.0	0back	Block4	0back/STIM_005.jpg	99
2636.525	0.861	861.4	0back	Block4	0back/STIM_005.jpg	100
2640.161	0.943	942.9	0back	Block4	0back/STIM_006.jpg	99
2645.006	0.732	732.4	0back	Block4	0back/STIM_006.jpg	99
2649.455	0.909	909.0	0back	Block4	0back/STIM_006.jpg	100
2653.798	0.737	737.4	0back	Block4	0back/STIM_007.jpg	100
2657.977	0.58	580.4	0back	Block4	0back/STIM_007.jpg	99
2661.746	0.562	561.6	0back	Block4	0back/STIM_007.jpg	99
2665.961	0.686	685.5	0back	Block4	0back/STIM_008.jpg	100
2668.758	0.855	855.4	0back	Block4	0back/STIM_008.jpg	99
2673.114	0.568	567.6	0back	Block4	0back/STIM_008.jpg	100
2676.805	0.527	526.8	0back	Block4	0back/STIM_009.jpg	99
2680.191	0.59	590.2	0back	Block4	0back/STIM_009.jpg	99
2682.976	0.899	898.6	0back	Block4	0back/STIM_009.jpg	100
2687.786	0.504	504.2	0back	Block4	0back/STIM_010.jpg	100
2691.851	0.677	676.8	0back	Block4	0back/STIM_010.jpg	100
2696.464	0.632	632.5	0back	Block4	0back/STIM_010.jpg	100
2699.839	0.642	641.9	0back	Block4	0back/STIM_011.jpg	100
2704.355	0.862	861.5	0back	Block4	0back/STIM_011.jpg	99
2707.541	0.62	619.5	0back	Block4	0back/STIM_011.jpg	99
2712.096	0.596	595.5	0back	Block4	0back/STIM_012.jpg	100
2715.399	0.75	750.2	0back	Block4	0back/STIM_012.jpg	99
2719.259	0.945	945.3	0back	Block4	0back/STIM_012.jpg	100
2722.542	0.784	784.3	0back	Block4	0back/STIM_013.jpg	100
2726.684	0.923	923.2	0back	Block4	0back/STIM_013.jpg	99
2730.991	0.559	558.7	0back	Block4	0back/STIM_013.jpg	99
2734.582	0.849	849.0	0back	Block4	0back/STIM_014.jpg	99
2738.035	0.977	977.4	0back	Block4	0back/STIM_014.jpg	100
2741.981	0.617	616.6	0back	Block4	0back/STIM_014.jpg	99
2745.14	0.966	966.0	0back	Block4	0back/STIM_015.jpg	100
2749.908	0.812	812.3	0back	Block4	0back/STIM_015.jpg	100
2753.411	0.839	839.2	0back	Block4	0back/STIM_015.jpg	99
2757.438	0.556	555.7	0back	Block4	0back/STIM_016.jpg	99
2760.093	0.517	516.6	0back	Block4	0back/STIM_016.jpg	100
2763.436	0.896	896.0	0back	Block4	0back/STIM_016.jpg	100
2767.333	0.679	678.8	0back	Block4	0back/STIM_017.jpg	99
2771.639	0.694	694.2	0back	Block4	0back/STIM_017.jpg	99
2774.921	0.682	681.8	0back	Block4	0back/STIM_017.jpg	99
2779.31	0.572	572.2	0back	Block4	0back/STIM_018.jpg	99
2783.261	0.793	793.2	0back	Block4	0back/STIM_018.jpg	99
2786.961	0.657	656.9	0back	Block4	0back/STIM_018.jpg	99
2790.17	0.8	799.6	0back	Block4	0back/STIM_019.jpg	99
2794.41	0.65	650.5	0back	Block4	0back/STIM_019.jpg	99
2797.232	0.617	617.1	0back	Block4	0back/STIM_019.jpg	99
