onset	duration	accuracy_binary	trial_type	learning_stage	stimulus
0.0	0.896	0	2back	Block1	2back/STIM_000.jpg
3.977	0.916	1	2back	Block1	2back/STIM_000.jpg
7.424	0.986	0	2back	Block1	2back/STIM_000.jpg
12.455	1.028	1	2back	Block1	2back/STIM_001.jpg
17.169	0.515	1	2back	Block1	2back/STIM_001.jpg
20.516	0.633	1	2back	Block1	2back/STIM_001.jpg
24.257	0.825	1	2back	Block1	2back/STIM_002.jpg
27.186	1.079	0	2back	Block1	2back/STIM_002.jpg
31.926	0.839	1	2back	Block1	2back/STIM_002.jpg
35.948	0.878	0	2back	Block1	2back/STIM_003.jpg
39.423	0.84	1	2back	Block1	2back/STIM_003.jpg
43.069	0.687	0	2back	Block1	2back/STIM_003.jpg
46.962	0.599	1	2back	Block1	2back/STIM_004.jpg
49.757	0.857	1	2back	Block1	2back/STIM_004.jpg
54.203	0.699	1	2back	Block1	2back/STIM_004.jpg
57.645	0.814	1	2back	Block1	2back/STIM_005.jpg
60.467	1.022	1	2back	Block1	2back/STIM_005.jpg
65.188	0.719	1	2back	Block1	2back/STIM_005.jpg
68.149	0.987	1	2back	Block1	2back/STIM_006.jpg
72.432	0.749	1	2back	Block1	2back/STIM_006.jpg
77.031	0.941	0	2back	Block1	2back/STIM_006.jpg
80.026	0.686	1	2back	Block1	2back/STIM_007.jpg
84.461	0.904	1	2back	Block1	2back/STIM_007.jpg
88.784	0.879	1	2back	Block1	2back/STIM_007.jpg
93.026	0.84	1	2back	Block1	2back/STIM_008.jpg
97.69	0.833	1	2back	Block1	2back/STIM_008.jpg
100.867	1.028	1	2back	Block1	2back/STIM_008.jpg
105.921	0.73	1	2back	Block1	2back/STIM_009.jpg
110.604	1.058	1	2back	Block1	2back/STIM_009.jpg
114.842	0.865	0	2back	Block1	2back/STIM_009.jpg
119.312	0.746	1	2back	Block1	2back/STIM_010.jpg
122.341	0.985	1	2back	Block1	2back/STIM_010.jpg
126.751	0.868	1	2back	Block1	2back/STIM_010.jpg
130.179	1.137	1	2back	Block1	2back/STIM_011.jpg
133.5	1.042	1	2back	Block1	2back/STIM_011.jpg
137.071	0.736	1	2back	Block1	2back/STIM_011.jpg
140.424	0.858	1	2back	Block1	2back/STIM_012.jpg
144.46	0.626	1	2back	Block1	2back/STIM_012.jpg
147.337	0.708	0	2back	Block1	2back/STIM_012.jpg
152.129	1.129	0	2back	Block1	2back/STIM_013.jpg
156.425	0.834	1	2back	Block1	2back/STIM_013.jpg
159.801	1.036	1	2back	Block1	2back/STIM_013.jpg
164.668	0.738	1	2back	Block1	2back/STIM_014.jpg
168.655	0.728	0	2back	Block1	2back/STIM_014.jpg
172.017	0.669	1	2back	Block1	2back/STIM_014.jpg
176.601	0.599	0	2back	Block1	2back/STIM_015.jpg
179.218	0.812	0	2back	Block1	2back/STIM_015.jpg
182.871	0.868	1	2back	Block1	2back/STIM_015.jpg
186.485	0.87	1	2back	Block1	2back/STIM_016.jpg
190.914	0.576	0	2back	Block1	2back/STIM_016.jpg
194.691	0.861	1	2back	Block1	2back/STIM_016.jpg
198.311	0.709	1	2back	Block1	2back/STIM_017.jpg
202.154	0.931	1	2back	Block1	2back/STIM_017.jpg
205.975	0.723	1	2back	Block1	2back/STIM_017.jpg
210.403	1.079	1	2back	Block1	2back/STIM_018.jpg
214.455	1.035	1	2back	Block1	2back/STIM_018.jpg
219.051	1.118	1	2back	Block1	2back/STIM_018.jpg
223.14	1.102	1	2back	Block1	2back/STIM_019.jpg
227.3	0.974	1	2back	Block1	2back/STIM_019.jpg
231.744	0.472	0	2back	Block1	2back/STIM_019.jpg
235.413	1.155	1	2back	Block1	2back/STIM_020.jpg
239.546	1.116	1	2back	Block1	2back/STIM_020.jpg
244.329	0.895	1	2back	Block1	2back/STIM_020.jpg
247.405	0.942	1	2back	Block1	2back/STIM_021.jpg
250.482	1.127	0	2back	Block1	2back/STIM_021.jpg
255.425	0.57	1	2back	Block1	2back/STIM_021.jpg
258.183	1.172	0	2back	Block1	2back/STIM_022.jpg
262.886	0.677	1	2back	Block1	2back/STIM_022.jpg
266.331	0.638	0	2back	Block1	2back/STIM_022.jpg
270.798	0.757	1	2back	Block1	2back/STIM_023.jpg
275.556	0.774	1	2back	Block1	2back/STIM_023.jpg
278.527	0.525	1	2back	Block1	2back/STIM_023.jpg
283.052	0.728	1	2back	Block1	2back/STIM_024.jpg
285.82	1.221	1	2back	Block1	2back/STIM_024.jpg
290.903	0.983	1	2back	Block1	2back/STIM_024.jpg
295.003	1.038	1	2back	Block1	2back/STIM_025.jpg
298.668	0.625	1	2back	Block1	2back/STIM_025.jpg
301.475	0.868	1	2back	Block1	2back/STIM_025.jpg
306.097	0.648	1	2back	Block1	2back/STIM_026.jpg
309.918	1.169	0	2back	Block1	2back/STIM_026.jpg
314.818	0.615	0	2back	Block1	2back/STIM_026.jpg
319.241	1.128	1	2back	Block1	2back/STIM_027.jpg
323.347	1.022	0	2back	Block1	2back/STIM_027.jpg
326.394	0.69	1	2back	Block1	2back/STIM_027.jpg
329.962	0.554	1	2back	Block1	2back/STIM_028.jpg
333.737	0.782	1	2back	Block1	2back/STIM_028.jpg
336.797	0.844	1	2back	Block1	2back/STIM_028.jpg
340.697	0.947	1	2back	Block1	2back/STIM_029.jpg
344.213	1.099	1	2back	Block1	2back/STIM_029.jpg
348.124	0.616	1	2back	Block1	2back/STIM_029.jpg
351.497	0.828	1	2back	Block1	2back/STIM_030.jpg
354.938	0.818	1	2back	Block1	2back/STIM_030.jpg
359.718	1.046	1	2back	Block1	2back/STIM_030.jpg
363.534	1.058	1	2back	Block1	2back/STIM_031.jpg
367.301	1.212	1	2back	Block1	2back/STIM_031.jpg
371.75	1.074	1	2back	Block1	2back/STIM_031.jpg
375.193	0.854	1	2back	Block1	2back/STIM_032.jpg
379.335	0.557	0	2back	Block1	2back/STIM_032.jpg
383.041	0.812	1	2back	Block1	2back/STIM_032.jpg
387.375	0.638	1	2back	Block1	2back/STIM_033.jpg
390.358	0.869	1	2back	Block1	2back/STIM_033.jpg
393.678	0.595	1	2back	Block1	2back/STIM_033.jpg
398.189	1.31	1	2back	Block1	2back/STIM_034.jpg
401.504	0.973	1	2back	Block1	2back/STIM_034.jpg
406.142	0.674	1	2back	Block1	2back/STIM_034.jpg
409.312	0.996	0	2back	Block1	2back/STIM_035.jpg
413.555	1.268	1	2back	Block1	2back/STIM_035.jpg
418.217	0.965	0	2back	Block1	2back/STIM_035.jpg
423.145	1.19	1	2back	Block1	2back/STIM_036.jpg
426.483	1.114	1	2back	Block1	2back/STIM_036.jpg
430.521	0.94	0	2back	Block1	2back/STIM_036.jpg
434.306	1.236	0	2back	Block1	2back/STIM_037.jpg
439.416	0.889	1	2back	Block1	2back/STIM_037.jpg
442.998	0.557	1	2back	Block1	2back/STIM_037.jpg
447.248	1.142	1	2back	Block1	2back/STIM_038.jpg
450.552	1.097	1	2back	Block1	2back/STIM_038.jpg
455.263	0.975	1	2back	Block1	2back/STIM_038.jpg
459.661	1.029	1	2back	Block1	2back/STIM_039.jpg
464.643	0.915	1	2back	Block1	2back/STIM_039.jpg
467.916	0.853	0	2back	Block1	2back/STIM_039.jpg
472.658	0.806	1	0back	Block1	0back/STIM_000.jpg
475.771	0.45	1	0back	Block1	0back/STIM_000.jpg
480.086	0.43	1	0back	Block1	0back/STIM_000.jpg
483.969	0.428	1	0back	Block1	0back/STIM_001.jpg
487.407	0.588	1	0back	Block1	0back/STIM_001.jpg
491.619	0.611	1	0back	Block1	0back/STIM_001.jpg
494.964	0.38	1	0back	Block1	0back/STIM_002.jpg
499.343	0.586	1	0back	Block1	0back/STIM_002.jpg
502.805	0.396	1	0back	Block1	0back/STIM_002.jpg
506.215	0.571	1	0back	Block1	0back/STIM_003.jpg
509.694	0.752	1	0back	Block1	0back/STIM_003.jpg
512.688	0.57	1	0back	Block1	0back/STIM_003.jpg
516.335	0.393	1	0back	Block1	0back/STIM_004.jpg
518.877	0.699	1	0back	Block1	0back/STIM_004.jpg
521.804	0.646	1	0back	Block1	0back/STIM_004.jpg
526.192	0.66	1	0back	Block1	0back/STIM_005.jpg
528.993	0.545	0	0back	Block1	0back/STIM_005.jpg
533.09	0.646	1	0back	Block1	0back/STIM_005.jpg
537.574	0.728	1	0back	Block1	0back/STIM_006.jpg
541.75	0.5	1	0back	Block1	0back/STIM_006.jpg
544.307	0.483	1	0back	Block1	0back/STIM_006.jpg
548.811	0.766	1	0back	Block1	0back/STIM_007.jpg
552.25	0.471	1	0back	Block1	0back/STIM_007.jpg
556.064	0.508	1	0back	Block1	0back/STIM_007.jpg
559.958	0.459	1	0back	Block1	0back/STIM_008.jpg
563.322	0.403	1	0back	Block1	0back/STIM_008.jpg
566.004	0.416	1	0back	Block1	0back/STIM_008.jpg
569.23	0.575	1	0back	Block1	0back/STIM_009.jpg
572.102	0.392	1	0back	Block1	0back/STIM_009.jpg
575.1	0.614	1	0back	Block1	0back/STIM_009.jpg
578.077	0.557	1	0back	Block1	0back/STIM_010.jpg
582.034	0.813	1	0back	Block1	0back/STIM_010.jpg
585.445	0.634	1	0back	Block1	0back/STIM_010.jpg
589.254	0.39	1	0back	Block1	0back/STIM_011.jpg
592.662	0.623	1	0back	Block1	0back/STIM_011.jpg
596.508	0.514	0	0back	Block1	0back/STIM_011.jpg
600.32	0.551	1	0back	Block1	0back/STIM_012.jpg
604.736	0.518	1	0back	Block1	0back/STIM_012.jpg
608.333	0.402	1	0back	Block1	0back/STIM_012.jpg
611.277	0.56	1	0back	Block1	0back/STIM_013.jpg
614.637	0.686	1	0back	Block1	0back/STIM_013.jpg
618.224	0.536	1	0back	Block1	0back/STIM_013.jpg
621.633	0.635	1	0back	Block1	0back/STIM_014.jpg
625.086	0.496	1	0back	Block1	0back/STIM_014.jpg
629.039	0.695	1	0back	Block1	0back/STIM_014.jpg
631.779	0.644	1	0back	Block1	0back/STIM_015.jpg
636.137	0.476	1	0back	Block1	0back/STIM_015.jpg
638.748	0.486	1	0back	Block1	0back/STIM_015.jpg
643.176	0.708	1	0back	Block1	0back/STIM_016.jpg
646.882	0.602	1	0back	Block1	0back/STIM_016.jpg
649.522	0.394	0	0back	Block1	0back/STIM_016.jpg
653.868	0.664	1	0back	Block1	0back/STIM_017.jpg
658.257	0.515	1	0back	Block1	0back/STIM_017.jpg
661.342	0.357	1	0back	Block1	0back/STIM_017.jpg
663.84	0.662	1	0back	Block1	0back/STIM_018.jpg
668.27	0.641	1	0back	Block1	0back/STIM_018.jpg
672.568	0.551	1	0back	Block1	0back/STIM_018.jpg
677.153	0.713	1	0back	Block1	0back/STIM_019.jpg
680.822	0.661	1	0back	Block1	0back/STIM_019.jpg
685.311	0.614	1	0back	Block1	0back/STIM_019.jpg
689.495	1.064	1	2back	Block2	2back/STIM_000.jpg
694.425	0.567	1	2back	Block2	2back/STIM_000.jpg
697.103	0.593	1	2back	Block2	2back/STIM_000.jpg
701.047	1.12	1	2back	Block2	2back/STIM_001.jpg
704.351	0.542	1	2back	Block2	2back/STIM_001.jpg
707.577	0.729	1	2back	Block2	2back/STIM_001.jpg
711.57	1.139	1	2back	Block2	2back/STIM_002.jpg
715.431	0.561	1	2back	Block2	2back/STIM_002.jpg
718.388	0.833	1	2back	Block2	2back/STIM_002.jpg
722.641	0.78	1	2back	Block2	2back/STIM_003.jpg
726.428	1.0	1	2back	Block2	2back/STIM_003.jpg
729.744	0.478	1	2back	Block2	2back/STIM_003.jpg
734.058	0.975	1	2back	Block2	2back/STIM_004.jpg
738.668	0.475	1	2back	Block2	2back/STIM_004.jpg
742.138	0.644	1	2back	Block2	2back/STIM_004.jpg
745.955	0.608	1	2back	Block2	2back/STIM_005.jpg
748.925	0.877	1	2back	Block2	2back/STIM_005.jpg
752.902	0.544	1	2back	Block2	2back/STIM_005.jpg
755.987	0.779	1	2back	Block2	2back/STIM_006.jpg
759.366	0.84	1	2back	Block2	2back/STIM_006.jpg
763.008	0.712	0	2back	Block2	2back/STIM_006.jpg
766.959	1.097	1	2back	Block2	2back/STIM_007.jpg
770.917	0.855	1	2back	Block2	2back/STIM_007.jpg
775.271	0.762	1	2back	Block2	2back/STIM_007.jpg
778.642	0.862	1	2back	Block2	2back/STIM_008.jpg
781.838	1.073	1	2back	Block2	2back/STIM_008.jpg
786.598	0.749	1	2back	Block2	2back/STIM_008.jpg
790.268	0.599	1	2back	Block2	2back/STIM_009.jpg
792.818	0.858	1	2back	Block2	2back/STIM_009.jpg
796.845	0.622	1	2back	Block2	2back/STIM_009.jpg
800.109	1.091	1	2back	Block2	2back/STIM_010.jpg
804.563	0.384	1	2back	Block2	2back/STIM_010.jpg
808.732	0.854	1	2back	Block2	2back/STIM_010.jpg
812.592	0.79	1	2back	Block2	2back/STIM_011.jpg
815.758	0.58	1	2back	Block2	2back/STIM_011.jpg
820.206	0.424	1	2back	Block2	2back/STIM_011.jpg
823.622	1.035	0	2back	Block2	2back/STIM_012.jpg
828.448	0.705	0	2back	Block2	2back/STIM_012.jpg
832.49	0.942	0	2back	Block2	2back/STIM_012.jpg
835.905	0.965	1	2back	Block2	2back/STIM_013.jpg
839.804	0.602	1	2back	Block2	2back/STIM_013.jpg
844.253	0.555	1	2back	Block2	2back/STIM_013.jpg
848.635	0.668	1	2back	Block2	2back/STIM_014.jpg
851.406	0.987	1	2back	Block2	2back/STIM_014.jpg
855.753	0.858	1	2back	Block2	2back/STIM_014.jpg
859.85	1.096	0	2back	Block2	2back/STIM_015.jpg
863.985	0.947	1	2back	Block2	2back/STIM_015.jpg
868.7	0.623	0	2back	Block2	2back/STIM_015.jpg
872.551	0.616	1	2back	Block2	2back/STIM_016.jpg
877.203	0.888	1	2back	Block2	2back/STIM_016.jpg
880.502	0.475	1	2back	Block2	2back/STIM_016.jpg
883.977	0.625	1	2back	Block2	2back/STIM_017.jpg
886.974	0.616	1	2back	Block2	2back/STIM_017.jpg
890.829	0.768	0	2back	Block2	2back/STIM_017.jpg
895.283	0.674	1	2back	Block2	2back/STIM_018.jpg
899.744	0.714	1	2back	Block2	2back/STIM_018.jpg
903.174	0.436	1	2back	Block2	2back/STIM_018.jpg
907.296	1.0	1	2back	Block2	2back/STIM_019.jpg
910.926	0.412	1	2back	Block2	2back/STIM_019.jpg
915.226	0.732	1	2back	Block2	2back/STIM_019.jpg
919.138	0.702	1	2back	Block2	2back/STIM_020.jpg
922.955	0.565	1	2back	Block2	2back/STIM_020.jpg
927.422	0.562	1	2back	Block2	2back/STIM_020.jpg
930.872	0.865	1	2back	Block2	2back/STIM_021.jpg
934.875	0.962	1	2back	Block2	2back/STIM_021.jpg
939.312	0.878	1	2back	Block2	2back/STIM_021.jpg
943.639	0.868	1	2back	Block2	2back/STIM_022.jpg
948.416	0.817	0	2back	Block2	2back/STIM_022.jpg
953.115	0.523	1	2back	Block2	2back/STIM_022.jpg
957.618	0.933	1	2back	Block2	2back/STIM_023.jpg
961.292	0.805	1	2back	Block2	2back/STIM_023.jpg
964.455	0.649	1	2back	Block2	2back/STIM_023.jpg
968.411	0.933	1	2back	Block2	2back/STIM_024.jpg
972.073	0.892	1	2back	Block2	2back/STIM_024.jpg
976.256	0.908	1	2back	Block2	2back/STIM_024.jpg
980.646	0.715	0	2back	Block2	2back/STIM_025.jpg
984.06	0.607	1	2back	Block2	2back/STIM_025.jpg
988.677	0.587	1	2back	Block2	2back/STIM_025.jpg
992.866	0.791	1	2back	Block2	2back/STIM_026.jpg
997.114	0.578	1	2back	Block2	2back/STIM_026.jpg
1000.928	0.757	1	2back	Block2	2back/STIM_026.jpg
1003.784	0.497	1	2back	Block2	2back/STIM_027.jpg
1008.025	0.744	1	2back	Block2	2back/STIM_027.jpg
1012.431	0.684	0	2back	Block2	2back/STIM_027.jpg
1016.346	0.635	1	2back	Block2	2back/STIM_028.jpg
1020.321	0.734	1	2back	Block2	2back/STIM_028.jpg
1024.827	0.717	1	2back	Block2	2back/STIM_028.jpg
1029.379	0.997	1	2back	Block2	2back/STIM_029.jpg
1034.206	0.791	1	2back	Block2	2back/STIM_029.jpg
1037.835	0.942	1	2back	Block2	2back/STIM_029.jpg
1041.071	0.93	1	2back	Block2	2back/STIM_030.jpg
1045.125	0.789	1	2back	Block2	2back/STIM_030.jpg
1049.636	0.611	1	2back	Block2	2back/STIM_030.jpg
1052.436	1.03	1	2back	Block2	2back/STIM_031.jpg
1056.25	0.737	1	2back	Block2	2back/STIM_031.jpg
1060.195	0.567	1	2back	Block2	2back/STIM_031.jpg
1063.93	0.553	1	2back	Block2	2back/STIM_032.jpg
1067.768	0.847	1	2back	Block2	2back/STIM_032.jpg
1072.266	0.501	1	2back	Block2	2back/STIM_032.jpg
1075.683	0.606	1	2back	Block2	2back/STIM_033.jpg
1079.544	0.936	1	2back	Block2	2back/STIM_033.jpg
1082.844	0.591	1	2back	Block2	2back/STIM_033.jpg
1086.761	0.8	0	2back	Block2	2back/STIM_034.jpg
1090.55	0.608	1	2back	Block2	2back/STIM_034.jpg
1095.016	0.811	1	2back	Block2	2back/STIM_034.jpg
1099.09	0.978	1	2back	Block2	2back/STIM_035.jpg
1103.846	0.785	1	2back	Block2	2back/STIM_035.jpg
1108.493	0.643	1	2back	Block2	2back/STIM_035.jpg
1112.791	0.927	1	2back	Block2	2back/STIM_036.jpg
1117.586	0.461	1	2back	Block2	2back/STIM_036.jpg
1121.695	0.605	1	2back	Block2	2back/STIM_036.jpg
1124.984	1.05	1	2back	Block2	2back/STIM_037.jpg
1128.58	0.594	1	2back	Block2	2back/STIM_037.jpg
1131.757	0.7	0	2back	Block2	2back/STIM_037.jpg
1136.523	0.594	1	2back	Block2	2back/STIM_038.jpg
1139.9	0.668	1	2back	Block2	2back/STIM_038.jpg
1143.548	0.415	1	2back	Block2	2back/STIM_038.jpg
1146.182	0.918	1	2back	Block2	2back/STIM_039.jpg
1149.894	0.536	1	2back	Block2	2back/STIM_039.jpg
1152.997	0.589	1	2back	Block2	2back/STIM_039.jpg
1156.135	0.585	1	0back	Block2	0back/STIM_000.jpg
1158.925	0.592	1	0back	Block2	0back/STIM_000.jpg
1163.053	0.242	1	0back	Block2	0back/STIM_000.jpg
1166.749	0.47	1	0back	Block2	0back/STIM_001.jpg
1170.107	0.744	1	0back	Block2	0back/STIM_001.jpg
1174.19	0.54	1	0back	Block2	0back/STIM_001.jpg
1177.696	0.558	1	0back	Block2	0back/STIM_002.jpg
1181.567	0.518	1	0back	Block2	0back/STIM_002.jpg
1184.176	0.626	1	0back	Block2	0back/STIM_002.jpg
1188.241	0.572	1	0back	Block2	0back/STIM_003.jpg
1192.117	0.55	1	0back	Block2	0back/STIM_003.jpg
1195.899	0.41	0	0back	Block2	0back/STIM_003.jpg
1198.47	0.517	1	0back	Block2	0back/STIM_004.jpg
1201.205	0.562	1	0back	Block2	0back/STIM_004.jpg
1205.688	0.421	1	0back	Block2	0back/STIM_004.jpg
1209.149	0.501	0	0back	Block2	0back/STIM_005.jpg
1212.339	0.595	1	0back	Block2	0back/STIM_005.jpg
1216.28	0.691	1	0back	Block2	0back/STIM_005.jpg
1220.78	0.436	1	0back	Block2	0back/STIM_006.jpg
1225.165	0.643	1	0back	Block2	0back/STIM_006.jpg
1228.742	0.631	1	0back	Block2	0back/STIM_006.jpg
1231.48	0.569	1	0back	Block2	0back/STIM_007.jpg
1234.474	0.373	1	0back	Block2	0back/STIM_007.jpg
1237.758	0.528	1	0back	Block2	0back/STIM_007.jpg
1242.147	0.728	1	0back	Block2	0back/STIM_008.jpg
1245.469	0.413	1	0back	Block2	0back/STIM_008.jpg
1248.208	0.622	1	0back	Block2	0back/STIM_008.jpg
1251.545	0.702	1	0back	Block2	0back/STIM_009.jpg
1254.651	0.587	1	0back	Block2	0back/STIM_009.jpg
1257.704	0.628	1	0back	Block2	0back/STIM_009.jpg
1261.127	0.716	0	0back	Block2	0back/STIM_010.jpg
1264.181	0.715	1	0back	Block2	0back/STIM_010.jpg
1267.385	0.503	1	0back	Block2	0back/STIM_010.jpg
1271.047	0.786	1	0back	Block2	0back/STIM_011.jpg
1275.602	0.584	1	0back	Block2	0back/STIM_011.jpg
1279.936	0.372	1	0back	Block2	0back/STIM_011.jpg
1284.189	0.554	1	0back	Block2	0back/STIM_012.jpg
1287.854	0.486	1	0back	Block2	0back/STIM_012.jpg
1291.968	0.571	1	0back	Block2	0back/STIM_012.jpg
1294.619	0.658	1	0back	Block2	0back/STIM_013.jpg
1297.53	0.61	1	0back	Block2	0back/STIM_013.jpg
1300.627	0.39	1	0back	Block2	0back/STIM_013.jpg
1303.939	0.563	1	0back	Block2	0back/STIM_014.jpg
1308.458	0.54	1	0back	Block2	0back/STIM_014.jpg
1312.055	0.371	1	0back	Block2	0back/STIM_014.jpg
1315.871	0.626	1	0back	Block2	0back/STIM_015.jpg
1320.512	0.5	1	0back	Block2	0back/STIM_015.jpg
1323.778	0.652	1	0back	Block2	0back/STIM_015.jpg
1327.748	0.35	1	0back	Block2	0back/STIM_016.jpg
1331.808	0.487	1	0back	Block2	0back/STIM_016.jpg
1334.555	0.704	1	0back	Block2	0back/STIM_016.jpg
1338.033	0.634	1	0back	Block2	0back/STIM_017.jpg
1342.666	0.418	1	0back	Block2	0back/STIM_017.jpg
1345.512	0.385	1	0back	Block2	0back/STIM_017.jpg
1349.112	0.536	1	0back	Block2	0back/STIM_018.jpg
1353.154	0.554	0	0back	Block2	0back/STIM_018.jpg
1357.184	0.507	1	0back	Block2	0back/STIM_018.jpg
1361.257	0.598	1	0back	Block2	0back/STIM_019.jpg
1364.989	0.377	1	0back	Block2	0back/STIM_019.jpg
1368.107	0.586	1	0back	Block2	0back/STIM_019.jpg
1371.835	0.579	1	2back	Block3	2back/STIM_000.jpg
1375.208	0.773	1	2back	Block3	2back/STIM_000.jpg
1379.819	0.75	1	2back	Block3	2back/STIM_000.jpg
1383.46	0.761	1	2back	Block3	2back/STIM_001.jpg
1386.786	0.794	1	2back	Block3	2back/STIM_001.jpg
1390.719	0.409	1	2back	Block3	2back/STIM_001.jpg
1393.584	0.611	1	2back	Block3	2back/STIM_002.jpg
1397.204	0.567	1	2back	Block3	2back/STIM_002.jpg
1400.801	0.785	1	2back	Block3	2back/STIM_002.jpg
1403.816	0.47	0	2back	Block3	2back/STIM_003.jpg
1407.601	0.685	1	2back	Block3	2back/STIM_003.jpg
1410.403	0.869	1	2back	Block3	2back/STIM_003.jpg
1415.106	0.748	1	2back	Block3	2back/STIM_004.jpg
1419.005	0.758	1	2back	Block3	2back/STIM_004.jpg
1422.314	0.404	1	2back	Block3	2back/STIM_004.jpg
1425.639	0.504	1	2back	Block3	2back/STIM_005.jpg
1429.61	0.701	1	2back	Block3	2back/STIM_005.jpg
1434.051	0.884	1	2back	Block3	2back/STIM_005.jpg
1438.838	0.599	0	2back	Block3	2back/STIM_006.jpg
1441.996	0.71	1	2back	Block3	2back/STIM_006.jpg
1445.753	0.482	1	2back	Block3	2back/STIM_006.jpg
1449.007	0.509	1	2back	Block3	2back/STIM_007.jpg
1452.769	0.447	1	2back	Block3	2back/STIM_007.jpg
1455.738	0.592	1	2back	Block3	2back/STIM_007.jpg
1458.624	0.573	1	2back	Block3	2back/STIM_008.jpg
1461.624	0.415	1	2back	Block3	2back/STIM_008.jpg
1466.001	0.883	1	2back	Block3	2back/STIM_008.jpg
1469.742	0.815	1	2back	Block3	2back/STIM_009.jpg
1473.507	0.443	1	2back	Block3	2back/STIM_009.jpg
1476.682	0.37	1	2back	Block3	2back/STIM_009.jpg
1481.037	0.636	1	2back	Block3	2back/STIM_010.jpg
1484.177	0.593	1	2back	Block3	2back/STIM_010.jpg
1488.757	0.624	1	2back	Block3	2back/STIM_010.jpg
1492.583	0.919	1	2back	Block3	2back/STIM_011.jpg
1497.147	0.431	1	2back	Block3	2back/STIM_011.jpg
1500.366	0.47	1	2back	Block3	2back/STIM_011.jpg
1504.17	0.576	1	2back	Block3	2back/STIM_012.jpg
1508.075	0.801	1	2back	Block3	2back/STIM_012.jpg
1511.822	0.571	1	2back	Block3	2back/STIM_012.jpg
1516.375	0.436	1	2back	Block3	2back/STIM_013.jpg
1519.849	0.791	1	2back	Block3	2back/STIM_013.jpg
1523.462	0.749	1	2back	Block3	2back/STIM_013.jpg
1528.177	0.751	1	2back	Block3	2back/STIM_014.jpg
1532.441	0.568	1	2back	Block3	2back/STIM_014.jpg
1536.14	0.546	1	2back	Block3	2back/STIM_014.jpg
1539.72	0.95	1	2back	Block3	2back/STIM_015.jpg
1542.949	0.646	1	2back	Block3	2back/STIM_015.jpg
1546.299	0.566	1	2back	Block3	2back/STIM_015.jpg
1549.789	0.741	1	2back	Block3	2back/STIM_016.jpg
1554.095	0.875	1	2back	Block3	2back/STIM_016.jpg
1557.912	0.47	1	2back	Block3	2back/STIM_016.jpg
1561.712	0.75	1	2back	Block3	2back/STIM_017.jpg
1565.984	0.848	1	2back	Block3	2back/STIM_017.jpg
1570.812	0.742	1	2back	Block3	2back/STIM_017.jpg
1574.662	0.742	1	2back	Block3	2back/STIM_018.jpg
1579.279	0.652	1	2back	Block3	2back/STIM_018.jpg
1582.778	0.583	1	2back	Block3	2back/STIM_018.jpg
1586.731	0.485	1	2back	Block3	2back/STIM_019.jpg
1590.773	0.609	1	2back	Block3	2back/STIM_019.jpg
1595.073	0.458	1	2back	Block3	2back/STIM_019.jpg
1597.704	0.698	1	2back	Block3	2back/STIM_020.jpg
1600.754	0.369	1	2back	Block3	2back/STIM_020.jpg
1603.72	0.402	1	2back	Block3	2back/STIM_020.jpg
1606.315	0.83	1	2back	Block3	2back/STIM_021.jpg
1610.62	0.575	1	2back	Block3	2back/STIM_021.jpg
1614.841	0.838	1	2back	Block3	2back/STIM_021.jpg
1618.915	0.426	1	2back	Block3	2back/STIM_022.jpg
1622.593	0.712	1	2back	Block3	2back/STIM_022.jpg
1625.597	0.546	1	2back	Block3	2back/STIM_022.jpg
1630.096	0.469	1	2back	Block3	2back/STIM_023.jpg
1633.717	0.663	1	2back	Block3	2back/STIM_023.jpg
1637.951	0.684	1	2back	Block3	2back/STIM_023.jpg
1640.846	0.67	1	2back	Block3	2back/STIM_024.jpg
1645.344	0.881	1	2back	Block3	2back/STIM_024.jpg
1649.016	0.482	1	2back	Block3	2back/STIM_024.jpg
1652.194	0.368	1	2back	Block3	2back/STIM_025.jpg
1655.51	0.49	1	2back	Block3	2back/STIM_025.jpg
1658.575	0.853	1	2back	Block3	2back/STIM_025.jpg
1662.735	0.447	1	2back	Block3	2back/STIM_026.jpg
1667.221	0.737	1	2back	Block3	2back/STIM_026.jpg
1671.807	0.681	1	2back	Block3	2back/STIM_026.jpg
1675.096	0.692	1	2back	Block3	2back/STIM_027.jpg
1679.389	0.861	1	2back	Block3	2back/STIM_027.jpg
1683.544	0.585	1	2back	Block3	2back/STIM_027.jpg
1687.12	0.871	1	2back	Block3	2back/STIM_028.jpg
1690.583	0.768	1	2back	Block3	2back/STIM_028.jpg
1694.397	0.492	1	2back	Block3	2back/STIM_028.jpg
1697.7	0.494	1	2back	Block3	2back/STIM_029.jpg
1701.07	0.782	1	2back	Block3	2back/STIM_029.jpg
1704.915	0.443	1	2back	Block3	2back/STIM_029.jpg
1709.216	0.454	0	2back	Block3	2back/STIM_030.jpg
1712.472	0.503	1	2back	Block3	2back/STIM_030.jpg
1716.38	0.61	1	2back	Block3	2back/STIM_030.jpg
1720.681	0.76	1	2back	Block3	2back/STIM_031.jpg
1723.631	0.742	1	2back	Block3	2back/STIM_031.jpg
1727.966	0.664	1	2back	Block3	2back/STIM_031.jpg
1730.816	0.722	1	2back	Block3	2back/STIM_032.jpg
1734.961	0.514	1	2back	Block3	2back/STIM_032.jpg
1739.29	0.866	1	2back	Block3	2back/STIM_032.jpg
1742.85	0.945	1	2back	Block3	2back/STIM_033.jpg
1746.51	0.451	1	2back	Block3	2back/STIM_033.jpg
1750.262	0.781	1	2back	Block3	2back/STIM_033.jpg
1753.599	0.49	1	2back	Block3	2back/STIM_034.jpg
1757.516	0.396	1	2back	Block3	2back/STIM_034.jpg
1760.296	0.646	1	2back	Block3	2back/STIM_034.jpg
1763.755	0.767	1	2back	Block3	2back/STIM_035.jpg
1766.896	0.558	1	2back	Block3	2back/STIM_035.jpg
1770.688	0.576	1	2back	Block3	2back/STIM_035.jpg
1774.711	0.624	1	2back	Block3	2back/STIM_036.jpg
1777.579	0.752	1	2back	Block3	2back/STIM_036.jpg
1781.519	0.555	1	2back	Block3	2back/STIM_036.jpg
1784.9	0.705	0	2back	Block3	2back/STIM_037.jpg
1789.268	0.853	1	2back	Block3	2back/STIM_037.jpg
1793.859	0.494	1	2back	Block3	2back/STIM_037.jpg
1797.251	0.691	1	2back	Block3	2back/STIM_038.jpg
1801.287	0.676	1	2back	Block3	2back/STIM_038.jpg
1804.805	0.438	1	2back	Block3	2back/STIM_038.jpg
1809.098	0.676	1	2back	Block3	2back/STIM_039.jpg
1813.644	0.705	1	2back	Block3	2back/STIM_039.jpg
1816.59	0.643	1	2back	Block3	2back/STIM_039.jpg
1821.182	0.724	1	0back	Block3	0back/STIM_000.jpg
1825.847	0.402	1	0back	Block3	0back/STIM_000.jpg
1829.961	0.422	1	0back	Block3	0back/STIM_000.jpg
1833.419	0.418	1	0back	Block3	0back/STIM_001.jpg
1836.342	0.365	1	0back	Block3	0back/STIM_001.jpg
1839.883	0.546	1	0back	Block3	0back/STIM_001.jpg
1843.354	0.516	1	0back	Block3	0back/STIM_002.jpg
1847.409	0.638	1	0back	Block3	0back/STIM_002.jpg
1851.654	0.526	1	0back	Block3	0back/STIM_002.jpg
1854.576	0.476	1	0back	Block3	0back/STIM_003.jpg
1858.54	0.45	1	0back	Block3	0back/STIM_003.jpg
1862.852	0.724	1	0back	Block3	0back/STIM_003.jpg
1866.42	0.56	1	0back	Block3	0back/STIM_004.jpg
1870.643	0.459	1	0back	Block3	0back/STIM_004.jpg
1873.443	0.634	1	0back	Block3	0back/STIM_004.jpg
1878.003	0.632	1	0back	Block3	0back/STIM_005.jpg
1881.635	0.508	1	0back	Block3	0back/STIM_005.jpg
1885.825	0.509	1	0back	Block3	0back/STIM_005.jpg
1889.15	0.411	1	0back	Block3	0back/STIM_006.jpg
1893.476	0.491	1	0back	Block3	0back/STIM_006.jpg
1896.851	0.668	1	0back	Block3	0back/STIM_006.jpg
1901.081	0.378	1	0back	Block3	0back/STIM_007.jpg
1903.9	0.499	1	0back	Block3	0back/STIM_007.jpg
1907.338	0.433	1	0back	Block3	0back/STIM_007.jpg
1910.411	0.6	1	0back	Block3	0back/STIM_008.jpg
1913.103	0.626	1	0back	Block3	0back/STIM_008.jpg
1917.089	0.589	1	0back	Block3	0back/STIM_008.jpg
1920.514	0.368	1	0back	Block3	0back/STIM_009.jpg
1924.069	0.666	1	0back	Block3	0back/STIM_009.jpg
1927.545	0.365	1	0back	Block3	0back/STIM_009.jpg
1931.448	0.525	1	0back	Block3	0back/STIM_010.jpg
1935.452	0.589	1	0back	Block3	0back/STIM_010.jpg
1939.333	0.408	1	0back	Block3	0back/STIM_010.jpg
1942.819	0.456	1	0back	Block3	0back/STIM_011.jpg
1946.804	0.807	1	0back	Block3	0back/STIM_011.jpg
1950.935	0.562	1	0back	Block3	0back/STIM_011.jpg
1954.728	0.759	1	0back	Block3	0back/STIM_012.jpg
1959.131	0.526	1	0back	Block3	0back/STIM_012.jpg
1962.469	0.541	1	0back	Block3	0back/STIM_012.jpg
1966.906	0.649	1	0back	Block3	0back/STIM_013.jpg
1971.273	0.666	1	0back	Block3	0back/STIM_013.jpg
1975.303	0.6	1	0back	Block3	0back/STIM_013.jpg
1978.463	0.77	1	0back	Block3	0back/STIM_014.jpg
1982.837	0.562	1	0back	Block3	0back/STIM_014.jpg
1987.418	0.298	1	0back	Block3	0back/STIM_014.jpg
1991.229	0.547	1	0back	Block3	0back/STIM_015.jpg
1993.932	0.471	1	0back	Block3	0back/STIM_015.jpg
1998.132	0.418	0	0back	Block3	0back/STIM_015.jpg
2000.597	0.559	1	0back	Block3	0back/STIM_016.jpg
2004.526	0.641	0	0back	Block3	0back/STIM_016.jpg
2007.869	0.611	1	0back	Block3	0back/STIM_016.jpg
2011.387	0.287	1	0back	Block3	0back/STIM_017.jpg
2014.262	0.617	1	0back	Block3	0back/STIM_017.jpg
2018.536	0.368	1	0back	Block3	0back/STIM_017.jpg
2021.882	0.546	1	0back	Block3	0back/STIM_018.jpg
2025.132	0.575	1	0back	Block3	0back/STIM_018.jpg
2028.172	0.357	1	0back	Block3	0back/STIM_018.jpg
2030.746	0.281	1	0back	Block3	0back/STIM_019.jpg
2033.823	0.437	1	0back	Block3	0back/STIM_019.jpg
2037.015	0.422	1	0back	Block3	0back/STIM_019.jpg
2040.897	0.829	1	2back	Block4	2back/STIM_000.jpg
2045.519	0.739	1	2back	Block4	2back/STIM_000.jpg
2048.497	0.644	1	2back	Block4	2back/STIM_000.jpg
2052.113	0.429	1	2back	Block4	2back/STIM_001.jpg
2055.666	0.644	1	2back	Block4	2back/STIM_001.jpg
2059.096	0.905	1	2back	Block4	2back/STIM_001.jpg
2062.511	0.43	1	2back	Block4	2back/STIM_002.jpg
2066.052	0.74	1	2back	Block4	2back/STIM_002.jpg
2068.91	0.568	1	2back	Block4	2back/STIM_002.jpg
2072.279	0.55	1	2back	Block4	2back/STIM_003.jpg
2076.14	0.843	1	2back	Block4	2back/STIM_003.jpg
2080.865	0.698	1	2back	Block4	2back/STIM_003.jpg
2085.335	0.548	0	2back	Block4	2back/STIM_004.jpg
2087.899	0.747	1	2back	Block4	2back/STIM_004.jpg
2092.018	0.802	1	2back	Block4	2back/STIM_004.jpg
2095.302	0.722	0	2back	Block4	2back/STIM_005.jpg
2099.776	0.695	1	2back	Block4	2back/STIM_005.jpg
2102.965	0.668	1	2back	Block4	2back/STIM_005.jpg
2106.174	0.783	1	2back	Block4	2back/STIM_006.jpg
2109.928	0.529	1	2back	Block4	2back/STIM_006.jpg
2112.891	0.509	1	2back	Block4	2back/STIM_006.jpg
2116.374	0.607	1	2back	Block4	2back/STIM_007.jpg
2119.706	0.566	1	2back	Block4	2back/STIM_007.jpg
2124.267	0.328	1	2back	Block4	2back/STIM_007.jpg
2128.504	0.763	1	2back	Block4	2back/STIM_008.jpg
2131.395	0.842	1	2back	Block4	2back/STIM_008.jpg
2134.621	0.775	1	2back	Block4	2back/STIM_008.jpg
2137.994	0.872	1	2back	Block4	2back/STIM_009.jpg
2141.333	0.85	1	2back	Block4	2back/STIM_009.jpg
2144.841	0.684	1	2back	Block4	2back/STIM_009.jpg
2148.99	0.643	1	2back	Block4	2back/STIM_010.jpg
2152.45	0.756	1	2back	Block4	2back/STIM_010.jpg
2155.67	0.375	1	2back	Block4	2back/STIM_010.jpg
2158.199	0.87	1	2back	Block4	2back/STIM_011.jpg
2162.357	0.476	1	2back	Block4	2back/STIM_011.jpg
2166.445	0.694	1	2back	Block4	2back/STIM_011.jpg
2170.183	0.78	1	2back	Block4	2back/STIM_012.jpg
2173.469	0.73	1	2back	Block4	2back/STIM_012.jpg
2177.992	0.648	1	2back	Block4	2back/STIM_012.jpg
2181.953	0.474	1	2back	Block4	2back/STIM_013.jpg
2185.655	0.694	1	2back	Block4	2back/STIM_013.jpg
2188.84	0.73	1	2back	Block4	2back/STIM_013.jpg
2192.014	0.894	1	2back	Block4	2back/STIM_014.jpg
2194.972	0.743	1	2back	Block4	2back/STIM_014.jpg
2198.511	0.876	1	2back	Block4	2back/STIM_014.jpg
2203.107	0.492	1	2back	Block4	2back/STIM_015.jpg
2205.845	0.718	1	2back	Block4	2back/STIM_015.jpg
2210.525	0.762	1	2back	Block4	2back/STIM_015.jpg
2214.326	0.301	1	2back	Block4	2back/STIM_016.jpg
2217.993	0.564	1	2back	Block4	2back/STIM_016.jpg
2221.184	0.667	1	2back	Block4	2back/STIM_016.jpg
2224.504	0.61	1	2back	Block4	2back/STIM_017.jpg
2227.863	0.789	1	2back	Block4	2back/STIM_017.jpg
2231.003	0.564	1	2back	Block4	2back/STIM_017.jpg
2235.318	0.519	1	2back	Block4	2back/STIM_018.jpg
2239.532	0.555	1	2back	Block4	2back/STIM_018.jpg
2243.427	0.885	1	2back	Block4	2back/STIM_018.jpg
2247.9	0.847	1	2back	Block4	2back/STIM_019.jpg
2252.49	0.826	1	2back	Block4	2back/STIM_019.jpg
2255.58	0.369	1	2back	Block4	2back/STIM_019.jpg
2258.098	0.392	1	2back	Block4	2back/STIM_020.jpg
2262.442	0.679	1	2back	Block4	2back/STIM_020.jpg
2265.76	0.534	1	2back	Block4	2back/STIM_020.jpg
2268.872	0.381	0	2back	Block4	2back/STIM_021.jpg
2271.985	0.61	1	2back	Block4	2back/STIM_021.jpg
2275.992	0.513	1	2back	Block4	2back/STIM_021.jpg
2280.586	0.366	1	2back	Block4	2back/STIM_022.jpg
2284.511	0.483	1	2back	Block4	2back/STIM_022.jpg
2288.496	0.753	1	2back	Block4	2back/STIM_022.jpg
2292.113	0.71	1	2back	Block4	2back/STIM_023.jpg
2296.162	0.71	1	2back	Block4	2back/STIM_023.jpg
2300.501	0.428	1	2back	Block4	2back/STIM_023.jpg
2303.513	0.666	1	2back	Block4	2back/STIM_024.jpg
2306.458	0.538	1	2back	Block4	2back/STIM_024.jpg
2309.371	0.964	1	2back	Block4	2back/STIM_024.jpg
2313.039	0.942	1	2back	Block4	2back/STIM_025.jpg
2317.099	0.566	1	2back	Block4	2back/STIM_025.jpg
2320.577	0.791	1	2back	Block4	2back/STIM_025.jpg
2324.24	0.682	0	2back	Block4	2back/STIM_026.jpg
2327.67	0.891	1	2back	Block4	2back/STIM_026.jpg
2332.258	0.463	1	2back	Block4	2back/STIM_026.jpg
2335.852	0.928	1	2back	Block4	2back/STIM_027.jpg
2339.635	0.661	1	2back	Block4	2back/STIM_027.jpg
2344.226	0.468	1	2back	Block4	2back/STIM_027.jpg
2347.27	0.43	1	2back	Block4	2back/STIM_028.jpg
2351.217	0.868	1	2back	Block4	2back/STIM_028.jpg
2354.558	0.808	1	2back	Block4	2back/STIM_028.jpg
2359.204	0.484	1	2back	Block4	2back/STIM_029.jpg
2361.96	0.83	1	2back	Block4	2back/STIM_029.jpg
2366.591	0.6	1	2back	Block4	2back/STIM_029.jpg
2369.451	0.723	1	2back	Block4	2back/STIM_030.jpg
2372.754	0.863	1	2back	Block4	2back/STIM_030.jpg
2375.851	0.663	1	2back	Block4	2back/STIM_030.jpg
2378.729	0.933	1	2back	Block4	2back/STIM_031.jpg
2382.885	0.685	1	2back	Block4	2back/STIM_031.jpg
2387.132	0.788	1	2back	Block4	2back/STIM_031.jpg
2391.857	0.832	1	2back	Block4	2back/STIM_032.jpg
2395.0	0.745	1	2back	Block4	2back/STIM_032.jpg
2399.687	0.73	1	2back	Block4	2back/STIM_032.jpg
2404.057	0.6	1	2back	Block4	2back/STIM_033.jpg
2406.816	0.841	1	2back	Block4	2back/STIM_033.jpg
2411.432	0.418	1	2back	Block4	2back/STIM_033.jpg
2415.452	0.893	1	2back	Block4	2back/STIM_034.jpg
2420.282	0.424	1	2back	Block4	2back/STIM_034.jpg
2423.609	0.613	0	2back	Block4	2back/STIM_034.jpg
2427.448	0.563	1	2back	Block4	2back/STIM_035.jpg
2430.657	0.399	1	2back	Block4	2back/STIM_035.jpg
2434.618	0.451	1	2back	Block4	2back/STIM_035.jpg
2438.325	0.622	1	2back	Block4	2back/STIM_036.jpg
2441.382	0.501	1	2back	Block4	2back/STIM_036.jpg
2445.54	0.535	1	2back	Block4	2back/STIM_036.jpg
2450.022	0.857	1	2back	Block4	2back/STIM_037.jpg
2454.735	0.588	1	2back	Block4	2back/STIM_037.jpg
2458.824	0.57	1	2back	Block4	2back/STIM_037.jpg
2462.13	0.75	1	2back	Block4	2back/STIM_038.jpg
2466.016	0.448	1	2back	Block4	2back/STIM_038.jpg
2469.051	0.916	1	2back	Block4	2back/STIM_038.jpg
2473.204	0.608	1	2back	Block4	2back/STIM_039.jpg
2477.177	0.553	1	2back	Block4	2back/STIM_039.jpg
2481.361	0.533	1	2back	Block4	2back/STIM_039.jpg
2484.204	0.625	1	0back	Block4	0back/STIM_000.jpg
2488.327	0.426	1	0back	Block4	0back/STIM_000.jpg
2490.98	0.679	1	0back	Block4	0back/STIM_000.jpg
2493.908	0.407	1	0back	Block4	0back/STIM_001.jpg
2498.086	0.418	1	0back	Block4	0back/STIM_001.jpg
2502.14	0.463	1	0back	Block4	0back/STIM_001.jpg
2505.788	0.396	1	0back	Block4	0back/STIM_002.jpg
2508.441	0.684	0	0back	Block4	0back/STIM_002.jpg
2512.779	0.582	1	0back	Block4	0back/STIM_002.jpg
2515.656	0.493	1	0back	Block4	0back/STIM_003.jpg
2519.748	0.513	1	0back	Block4	0back/STIM_003.jpg
2524.274	0.691	1	0back	Block4	0back/STIM_003.jpg
2527.045	0.64	1	0back	Block4	0back/STIM_004.jpg
2530.531	0.642	1	0back	Block4	0back/STIM_004.jpg
2534.79	0.414	1	0back	Block4	0back/STIM_004.jpg
2538.576	0.671	1	0back	Block4	0back/STIM_005.jpg
2541.747	0.68	0	0back	Block4	0back/STIM_005.jpg
2544.929	0.698	1	0back	Block4	0back/STIM_005.jpg
2547.863	0.498	1	0back	Block4	0back/STIM_006.jpg
2551.825	0.543	1	0back	Block4	0back/STIM_006.jpg
2555.632	0.621	1	0back	Block4	0back/STIM_006.jpg
2558.917	0.48	1	0back	Block4	0back/STIM_007.jpg
2563.431	0.374	1	0back	Block4	0back/STIM_007.jpg
2566.173	0.453	1	0back	Block4	0back/STIM_007.jpg
2568.844	0.677	1	0back	Block4	0back/STIM_008.jpg
2573.232	0.748	1	0back	Block4	0back/STIM_008.jpg
2577.857	0.65	1	0back	Block4	0back/STIM_008.jpg
2582.075	0.698	1	0back	Block4	0back/STIM_009.jpg
2585.977	0.421	1	0back	Block4	0back/STIM_009.jpg
2589.242	0.361	1	0back	Block4	0back/STIM_009.jpg
2593.588	0.407	1	0back	Block4	0back/STIM_010.jpg
2596.518	0.588	1	0back	Block4	0back/STIM_010.jpg
2599.709	0.471	1	0back	Block4	0back/STIM_010.jpg
2602.853	0.59	1	0back	Block4	0back/STIM_011.jpg
2606.677	0.579	1	0back	Block4	0back/STIM_011.jpg
2609.815	0.69	1	0back	Block4	0back/STIM_011.jpg
2614.517	0.651	1	0back	Block4	0back/STIM_012.jpg
2617.262	0.388	1	0back	Block4	0back/STIM_012.jpg
2619.769	0.359	1	0back	Block4	0back/STIM_012.jpg
2623.651	0.512	0	0back	Block4	0back/STIM_013.jpg
2628.094	0.615	1	0back	Block4	0back/STIM_013.jpg
2631.855	0.536	1	0back	Block4	0back/STIM_013.jpg
2635.013	0.506	1	0back	Block4	0back/STIM_014.jpg
2638.785	0.364	1	0back	Block4	0back/STIM_014.jpg
2641.965	0.316	1	0back	Block4	0back/STIM_014.jpg
2645.748	0.517	1	0back	Block4	0back/STIM_015.jpg
2649.966	0.41	1	0back	Block4	0back/STIM_015.jpg
2654.311	0.395	1	0back	Block4	0back/STIM_015.jpg
2657.657	0.756	1	0back	Block4	0back/STIM_016.jpg
2661.015	0.414	1	0back	Block4	0back/STIM_016.jpg
2665.265	0.611	1	0back	Block4	0back/STIM_016.jpg
2668.562	0.729	1	0back	Block4	0back/STIM_017.jpg
2671.894	0.455	1	0back	Block4	0back/STIM_017.jpg
2674.982	0.457	1	0back	Block4	0back/STIM_017.jpg
2678.111	0.773	1	0back	Block4	0back/STIM_018.jpg
2682.408	0.65	1	0back	Block4	0back/STIM_018.jpg
2685.847	0.586	1	0back	Block4	0back/STIM_018.jpg
2690.278	0.499	1	0back	Block4	0back/STIM_019.jpg
2694.716	0.642	1	0back	Block4	0back/STIM_019.jpg
2699.276	0.406	1	0back	Block4	0back/STIM_019.jpg
