onset	duration	accuracy_binary	trial_type	learning_stage	stimulus
0.0	0.864	0	2back	Block1	2back/STIM_000.jpg
4.445	0.875	1	2back	Block1	2back/STIM_000.jpg
7.485	1.548	0	2back	Block1	2back/STIM_000.jpg
12.63	0.95	0	2back	Block1	2back/STIM_001.jpg
16.478	1.604	1	2back	Block1	2back/STIM_001.jpg
21.937	1.297	1	2back	Block1	2back/STIM_001.jpg
25.8	1.128	1	2back	Block1	2back/STIM_002.jpg
30.677	1.581	1	2back	Block1	2back/STIM_002.jpg
35.299	0.973	1	2back	Block1	2back/STIM_002.jpg
39.261	1.439	1	2back	Block1	2back/STIM_003.jpg
43.516	0.989	1	2back	Block1	2back/STIM_003.jpg
46.938	1.215	0	2back	Block1	2back/STIM_003.jpg
50.644	0.744	1	2back	Block1	2back/STIM_004.jpg
55.351	1.512	1	2back	Block1	2back/STIM_004.jpg
60.324	1.196	1	2back	Block1	2back/STIM_004.jpg
63.555	1.01	1	2back	Block1	2back/STIM_005.jpg
66.71	0.96	1	2back	Block1	2back/STIM_005.jpg
70.079	1.472	1	2back	Block1	2back/STIM_005.jpg
73.825	1.231	1	2back	Block1	2back/STIM_006.jpg
77.65	1.448	1	2back	Block1	2back/STIM_006.jpg
81.913	0.759	0	2back	Block1	2back/STIM_006.jpg
86.294	1.383	1	2back	Block1	2back/STIM_007.jpg
89.796	1.545	1	2back	Block1	2back/STIM_007.jpg
94.213	0.866	1	2back	Block1	2back/STIM_007.jpg
99.059	0.972	1	2back	Block1	2back/STIM_008.jpg
103.885	1.599	1	2back	Block1	2back/STIM_008.jpg
108.628	1.53	1	2back	Block1	2back/STIM_008.jpg
112.323	0.925	1	2back	Block1	2back/STIM_009.jpg
117.072	1.023	1	2back	Block1	2back/STIM_009.jpg
121.558	1.091	0	2back	Block1	2back/STIM_009.jpg
125.974	1.305	1	2back	Block1	2back/STIM_010.jpg
130.52	0.812	1	2back	Block1	2back/STIM_010.jpg
133.45	1.042	1	2back	Block1	2back/STIM_010.jpg
136.511	1.677	1	2back	Block1	2back/STIM_011.jpg
141.119	1.544	1	2back	Block1	2back/STIM_011.jpg
146.203	1.463	1	2back	Block1	2back/STIM_011.jpg
150.55	1.204	1	2back	Block1	2back/STIM_012.jpg
154.117	1.297	1	2back	Block1	2back/STIM_012.jpg
159.4	1.455	1	2back	Block1	2back/STIM_012.jpg
162.962	0.816	0	2back	Block1	2back/STIM_013.jpg
166.52	1.427	1	2back	Block1	2back/STIM_013.jpg
170.405	0.886	1	2back	Block1	2back/STIM_013.jpg
174.11	1.651	1	2back	Block1	2back/STIM_014.jpg
179.456	1.276	0	2back	Block1	2back/STIM_014.jpg
184.603	1.19	1	2back	Block1	2back/STIM_014.jpg
188.727	1.293	0	2back	Block1	2back/STIM_015.jpg
192.748	1.626	1	2back	Block1	2back/STIM_015.jpg
197.116	1.03	1	2back	Block1	2back/STIM_015.jpg
200.166	0.976	1	2back	Block1	2back/STIM_016.jpg
204.48	0.756	1	2back	Block1	2back/STIM_016.jpg
208.993	0.913	1	2back	Block1	2back/STIM_016.jpg
213.589	1.031	1	2back	Block1	2back/STIM_017.jpg
217.827	1.368	1	2back	Block1	2back/STIM_017.jpg
222.992	1.244	1	2back	Block1	2back/STIM_017.jpg
228.147	1.054	1	2back	Block1	2back/STIM_018.jpg
231.901	1.164	1	2back	Block1	2back/STIM_018.jpg
235.433	1.436	1	2back	Block1	2back/STIM_018.jpg
240.78	0.786	1	2back	Block1	2back/STIM_019.jpg
243.661	0.805	1	2back	Block1	2back/STIM_019.jpg
248.45	0.876	0	2back	Block1	2back/STIM_019.jpg
251.356	1.672	1	2back	Block1	2back/STIM_020.jpg
255.727	1.051	1	2back	Block1	2back/STIM_020.jpg
258.954	1.03	1	2back	Block1	2back/STIM_020.jpg
262.359	0.877	1	2back	Block1	2back/STIM_021.jpg
266.954	1.318	1	2back	Block1	2back/STIM_021.jpg
271.476	1.025	1	2back	Block1	2back/STIM_021.jpg
276.224	1.139	1	2back	Block1	2back/STIM_022.jpg
279.431	1.526	1	2back	Block1	2back/STIM_022.jpg
283.994	1.436	1	2back	Block1	2back/STIM_022.jpg
289.311	0.823	1	2back	Block1	2back/STIM_023.jpg
292.563	1.343	1	2back	Block1	2back/STIM_023.jpg
296.365	0.731	1	2back	Block1	2back/STIM_023.jpg
300.945	1.487	1	2back	Block1	2back/STIM_024.jpg
305.367	1.207	1	2back	Block1	2back/STIM_024.jpg
309.604	0.699	1	2back	Block1	2back/STIM_024.jpg
314.097	1.636	1	2back	Block1	2back/STIM_025.jpg
319.121	1.015	1	2back	Block1	2back/STIM_025.jpg
322.438	1.013	1	2back	Block1	2back/STIM_025.jpg
326.297	0.891	1	2back	Block1	2back/STIM_026.jpg
330.215	0.869	1	2back	Block1	2back/STIM_026.jpg
334.316	1.547	0	2back	Block1	2back/STIM_026.jpg
339.064	0.999	1	2back	Block1	2back/STIM_027.jpg
343.0	1.026	1	2back	Block1	2back/STIM_027.jpg
346.363	1.364	1	2back	Block1	2back/STIM_027.jpg
350.62	1.605	1	2back	Block1	2back/STIM_028.jpg
355.857	1.109	1	2back	Block1	2back/STIM_028.jpg
360.309	1.389	1	2back	Block1	2back/STIM_028.jpg
365.401	1.206	1	2back	Block1	2back/STIM_029.jpg
369.061	1.444	1	2back	Block1	2back/STIM_029.jpg
372.635	0.944	1	2back	Block1	2back/STIM_029.jpg
376.684	1.236	1	2back	Block1	2back/STIM_030.jpg
380.023	1.308	0	2back	Block1	2back/STIM_030.jpg
385.1	0.894	1	2back	Block1	2back/STIM_030.jpg
388.215	0.854	1	2back	Block1	2back/STIM_031.jpg
392.65	0.912	1	2back	Block1	2back/STIM_031.jpg
397.159	1.123	1	2back	Block1	2back/STIM_031.jpg
401.543	1.074	1	2back	Block1	2back/STIM_032.jpg
405.918	0.933	0	2back	Block1	2back/STIM_032.jpg
410.091	1.31	1	2back	Block1	2back/STIM_032.jpg
413.504	1.065	1	2back	Block1	2back/STIM_033.jpg
417.815	1.249	1	2back	Block1	2back/STIM_033.jpg
422.116	0.955	1	2back	Block1	2back/STIM_033.jpg
425.641	1.492	1	2back	Block1	2back/STIM_034.jpg
429.729	1.284	1	2back	Block1	2back/STIM_034.jpg
433.431	1.009	1	2back	Block1	2back/STIM_034.jpg
437.242	1.277	0	2back	Block1	2back/STIM_035.jpg
441.038	1.438	1	2back	Block1	2back/STIM_035.jpg
445.419	1.052	0	2back	Block1	2back/STIM_035.jpg
448.678	0.795	1	2back	Block1	2back/STIM_036.jpg
452.423	1.581	1	2back	Block1	2back/STIM_036.jpg
457.838	1.47	0	2back	Block1	2back/STIM_036.jpg
461.87	0.925	0	2back	Block1	2back/STIM_037.jpg
464.898	1.257	1	2back	Block1	2back/STIM_037.jpg
468.173	0.699	1	2back	Block1	2back/STIM_037.jpg
471.363	0.978	1	2back	Block1	2back/STIM_038.jpg
475.088	0.97	1	2back	Block1	2back/STIM_038.jpg
479.4	1.126	1	2back	Block1	2back/STIM_038.jpg
483.819	1.532	1	2back	Block1	2back/STIM_039.jpg
489.173	1.198	1	2back	Block1	2back/STIM_039.jpg
493.738	1.366	1	2back	Block1	2back/STIM_039.jpg
498.791	0.847	1	0back	Block1	0back/STIM_000.jpg
503.048	0.892	1	0back	Block1	0back/STIM_000.jpg
506.995	0.919	1	0back	Block1	0back/STIM_000.jpg
510.013	0.687	1	0back	Block1	0back/STIM_001.jpg
513.354	0.569	1	0back	Block1	0back/STIM_001.jpg
517.736	0.762	1	0back	Block1	0back/STIM_001.jpg
520.88	0.702	1	0back	Block1	0back/STIM_002.jpg
525.449	0.719	1	0back	Block1	0back/STIM_002.jpg
528.366	0.796	1	0back	Block1	0back/STIM_002.jpg
533.014	0.667	1	0back	Block1	0back/STIM_003.jpg
536.403	0.818	1	0back	Block1	0back/STIM_003.jpg
540.526	0.957	1	0back	Block1	0back/STIM_003.jpg
544.562	0.892	1	0back	Block1	0back/STIM_004.jpg
548.351	0.792	1	0back	Block1	0back/STIM_004.jpg
552.915	0.586	1	0back	Block1	0back/STIM_004.jpg
555.643	0.534	1	0back	Block1	0back/STIM_005.jpg
558.48	0.531	0	0back	Block1	0back/STIM_005.jpg
561.969	0.739	1	0back	Block1	0back/STIM_005.jpg
566.598	0.912	1	0back	Block1	0back/STIM_006.jpg
570.335	0.977	1	0back	Block1	0back/STIM_006.jpg
573.611	0.87	1	0back	Block1	0back/STIM_006.jpg
578.067	0.752	1	0back	Block1	0back/STIM_007.jpg
582.629	0.923	1	0back	Block1	0back/STIM_007.jpg
586.542	0.686	1	0back	Block1	0back/STIM_007.jpg
589.319	0.78	1	0back	Block1	0back/STIM_008.jpg
593.495	0.564	1	0back	Block1	0back/STIM_008.jpg
597.458	0.596	1	0back	Block1	0back/STIM_008.jpg
600.559	0.754	1	0back	Block1	0back/STIM_009.jpg
605.124	0.915	1	0back	Block1	0back/STIM_009.jpg
608.66	0.809	1	0back	Block1	0back/STIM_009.jpg
612.818	0.703	1	0back	Block1	0back/STIM_010.jpg
617.233	0.583	1	0back	Block1	0back/STIM_010.jpg
620.589	0.662	1	0back	Block1	0back/STIM_010.jpg
623.791	0.678	1	0back	Block1	0back/STIM_011.jpg
627.882	0.57	1	0back	Block1	0back/STIM_011.jpg
632.182	0.982	0	0back	Block1	0back/STIM_011.jpg
636.592	0.579	1	0back	Block1	0back/STIM_012.jpg
641.134	0.84	1	0back	Block1	0back/STIM_012.jpg
644.466	0.978	1	0back	Block1	0back/STIM_012.jpg
648.698	0.521	1	0back	Block1	0back/STIM_013.jpg
651.893	0.698	1	0back	Block1	0back/STIM_013.jpg
656.028	0.522	1	0back	Block1	0back/STIM_013.jpg
659.211	0.604	1	0back	Block1	0back/STIM_014.jpg
662.862	0.885	1	0back	Block1	0back/STIM_014.jpg
667.256	0.988	1	0back	Block1	0back/STIM_014.jpg
670.504	0.76	1	0back	Block1	0back/STIM_015.jpg
673.264	0.928	1	0back	Block1	0back/STIM_015.jpg
676.368	0.563	1	0back	Block1	0back/STIM_015.jpg
680.799	0.609	1	0back	Block1	0back/STIM_016.jpg
684.346	0.929	1	0back	Block1	0back/STIM_016.jpg
689.134	0.716	0	0back	Block1	0back/STIM_016.jpg
691.934	0.498	1	0back	Block1	0back/STIM_017.jpg
695.426	0.876	1	0back	Block1	0back/STIM_017.jpg
699.78	0.922	1	0back	Block1	0back/STIM_017.jpg
704.218	0.53	1	0back	Block1	0back/STIM_018.jpg
708.197	0.734	1	0back	Block1	0back/STIM_018.jpg
710.947	0.648	1	0back	Block1	0back/STIM_018.jpg
715.264	0.759	1	0back	Block1	0back/STIM_019.jpg
718.745	0.577	1	0back	Block1	0back/STIM_019.jpg
722.498	0.592	1	0back	Block1	0back/STIM_019.jpg
726.822	0.955	1	2back	Block2	2back/STIM_000.jpg
731.032	0.718	1	2back	Block2	2back/STIM_000.jpg
735.513	0.826	1	2back	Block2	2back/STIM_000.jpg
739.768	1.41	1	2back	Block2	2back/STIM_001.jpg
745.031	1.308	1	2back	Block2	2back/STIM_001.jpg
749.509	0.696	1	2back	Block2	2back/STIM_001.jpg
753.294	1.094	1	2back	Block2	2back/STIM_002.jpg
756.643	0.759	1	2back	Block2	2back/STIM_002.jpg
759.791	0.957	1	2back	Block2	2back/STIM_002.jpg
764.107	1.137	1	2back	Block2	2back/STIM_003.jpg
768.641	0.768	1	2back	Block2	2back/STIM_003.jpg
771.775	0.965	1	2back	Block2	2back/STIM_003.jpg
775.336	1.103	1	2back	Block2	2back/STIM_004.jpg
780.106	0.68	1	2back	Block2	2back/STIM_004.jpg
783.224	1.283	1	2back	Block2	2back/STIM_004.jpg
787.956	0.846	1	2back	Block2	2back/STIM_005.jpg
790.856	1.036	1	2back	Block2	2back/STIM_005.jpg
795.085	0.762	1	2back	Block2	2back/STIM_005.jpg
799.709	0.641	1	2back	Block2	2back/STIM_006.jpg
802.915	1.204	1	2back	Block2	2back/STIM_006.jpg
806.757	0.635	0	2back	Block2	2back/STIM_006.jpg
810.555	0.922	1	2back	Block2	2back/STIM_007.jpg
814.3	0.779	1	2back	Block2	2back/STIM_007.jpg
817.313	1.23	1	2back	Block2	2back/STIM_007.jpg
821.058	1.385	0	2back	Block2	2back/STIM_008.jpg
825.609	1.314	1	2back	Block2	2back/STIM_008.jpg
829.834	0.95	1	2back	Block2	2back/STIM_008.jpg
833.312	1.053	1	2back	Block2	2back/STIM_009.jpg
836.764	0.596	1	2back	Block2	2back/STIM_009.jpg
841.108	0.611	1	2back	Block2	2back/STIM_009.jpg
844.605	0.853	1	2back	Block2	2back/STIM_010.jpg
847.717	1.175	1	2back	Block2	2back/STIM_010.jpg
852.264	0.708	1	2back	Block2	2back/STIM_010.jpg
854.979	0.852	1	2back	Block2	2back/STIM_011.jpg
859.767	0.646	1	2back	Block2	2back/STIM_011.jpg
862.446	1.285	1	2back	Block2	2back/STIM_011.jpg
866.187	0.763	0	2back	Block2	2back/STIM_012.jpg
870.524	1.308	1	2back	Block2	2back/STIM_012.jpg
875.451	0.618	1	2back	Block2	2back/STIM_012.jpg
879.847	1.227	1	2back	Block2	2back/STIM_013.jpg
883.192	0.938	1	2back	Block2	2back/STIM_013.jpg
887.161	0.775	1	2back	Block2	2back/STIM_013.jpg
890.189	1.296	1	2back	Block2	2back/STIM_014.jpg
894.143	1.203	1	2back	Block2	2back/STIM_014.jpg
899.188	0.895	1	2back	Block2	2back/STIM_014.jpg
903.984	0.826	0	2back	Block2	2back/STIM_015.jpg
907.614	0.612	1	2back	Block2	2back/STIM_015.jpg
911.817	1.22	0	2back	Block2	2back/STIM_015.jpg
915.435	1.216	1	2back	Block2	2back/STIM_016.jpg
919.248	1.06	1	2back	Block2	2back/STIM_016.jpg
922.878	0.925	1	2back	Block2	2back/STIM_016.jpg
925.835	1.226	1	2back	Block2	2back/STIM_017.jpg
930.017	0.803	1	2back	Block2	2back/STIM_017.jpg
934.057	1.282	0	2back	Block2	2back/STIM_017.jpg
938.551	1.267	1	2back	Block2	2back/STIM_018.jpg
943.569	0.701	1	2back	Block2	2back/STIM_018.jpg
947.347	1.045	1	2back	Block2	2back/STIM_018.jpg
950.803	1.11	1	2back	Block2	2back/STIM_019.jpg
954.89	1.338	1	2back	Block2	2back/STIM_019.jpg
958.947	1.027	1	2back	Block2	2back/STIM_019.jpg
962.217	1.266	1	2back	Block2	2back/STIM_020.jpg
966.001	1.118	1	2back	Block2	2back/STIM_020.jpg
970.708	0.657	1	2back	Block2	2back/STIM_020.jpg
973.892	0.849	1	2back	Block2	2back/STIM_021.jpg
977.436	0.995	1	2back	Block2	2back/STIM_021.jpg
980.526	0.78	1	2back	Block2	2back/STIM_021.jpg
984.848	0.854	1	2back	Block2	2back/STIM_022.jpg
987.763	0.801	1	2back	Block2	2back/STIM_022.jpg
992.403	0.661	1	2back	Block2	2back/STIM_022.jpg
995.417	1.178	1	2back	Block2	2back/STIM_023.jpg
1000.575	1.265	1	2back	Block2	2back/STIM_023.jpg
1005.378	0.887	1	2back	Block2	2back/STIM_023.jpg
1010.107	0.825	1	2back	Block2	2back/STIM_024.jpg
1014.343	1.093	1	2back	Block2	2back/STIM_024.jpg
1018.996	1.254	1	2back	Block2	2back/STIM_024.jpg
1022.978	0.796	1	2back	Block2	2back/STIM_025.jpg
1025.896	0.637	1	2back	Block2	2back/STIM_025.jpg
1030.293	0.877	1	2back	Block2	2back/STIM_025.jpg
1033.466	1.132	1	2back	Block2	2back/STIM_026.jpg
1038.427	0.624	1	2back	Block2	2back/STIM_026.jpg
1042.447	1.144	1	2back	Block2	2back/STIM_026.jpg
1046.035	1.321	1	2back	Block2	2back/STIM_027.jpg
1049.824	0.782	1	2back	Block2	2back/STIM_027.jpg
1053.079	1.101	0	2back	Block2	2back/STIM_027.jpg
1057.778	1.386	1	2back	Block2	2back/STIM_028.jpg
1062.456	1.03	1	2back	Block2	2back/STIM_028.jpg
1065.995	0.743	1	2back	Block2	2back/STIM_028.jpg
1068.99	0.954	1	2back	Block2	2back/STIM_029.jpg
1072.637	0.995	1	2back	Block2	2back/STIM_029.jpg
1076.446	0.705	1	2back	Block2	2back/STIM_029.jpg
1081.095	1.348	1	2back	Block2	2back/STIM_030.jpg
1085.141	0.978	1	2back	Block2	2back/STIM_030.jpg
1089.376	0.803	1	2back	Block2	2back/STIM_030.jpg
1092.181	1.256	1	2back	Block2	2back/STIM_031.jpg
1096.694	0.759	1	2back	Block2	2back/STIM_031.jpg
1101.192	0.968	1	2back	Block2	2back/STIM_031.jpg
1106.037	0.683	1	2back	Block2	2back/STIM_032.jpg
1109.093	0.912	1	2back	Block2	2back/STIM_032.jpg
1112.849	1.22	1	2back	Block2	2back/STIM_032.jpg
1117.446	1.124	1	2back	Block2	2back/STIM_033.jpg
1122.559	1.123	1	2back	Block2	2back/STIM_033.jpg
1126.409	1.095	1	2back	Block2	2back/STIM_033.jpg
1129.982	1.363	1	2back	Block2	2back/STIM_034.jpg
1134.965	1.299	1	2back	Block2	2back/STIM_034.jpg
1138.531	0.866	1	2back	Block2	2back/STIM_034.jpg
1142.813	1.224	1	2back	Block2	2back/STIM_035.jpg
1146.682	1.36	1	2back	Block2	2back/STIM_035.jpg
1150.981	1.103	1	2back	Block2	2back/STIM_035.jpg
1154.374	1.32	1	2back	Block2	2back/STIM_036.jpg
1158.484	1.352	1	2back	Block2	2back/STIM_036.jpg
1163.653	1.249	1	2back	Block2	2back/STIM_036.jpg
1167.311	1.093	1	2back	Block2	2back/STIM_037.jpg
1172.041	1.043	1	2back	Block2	2back/STIM_037.jpg
1175.999	1.047	0	2back	Block2	2back/STIM_037.jpg
1180.82	1.231	1	2back	Block2	2back/STIM_038.jpg
1185.416	1.372	1	2back	Block2	2back/STIM_038.jpg
1188.912	1.201	1	2back	Block2	2back/STIM_038.jpg
1192.758	0.759	1	2back	Block2	2back/STIM_039.jpg
1196.074	1.061	1	2back	Block2	2back/STIM_039.jpg
1199.433	0.684	1	2back	Block2	2back/STIM_039.jpg
1203.148	0.726	1	0back	Block2	0back/STIM_000.jpg
1207.363	0.511	1	0back	Block2	0back/STIM_000.jpg
1211.201	0.557	1	0back	Block2	0back/STIM_000.jpg
1215.28	0.845	1	0back	Block2	0back/STIM_001.jpg
1218.41	0.848	1	0back	Block2	0back/STIM_001.jpg
1221.368	0.613	1	0back	Block2	0back/STIM_001.jpg
1225.7	0.64	1	0back	Block2	0back/STIM_002.jpg
1229.106	0.72	1	0back	Block2	0back/STIM_002.jpg
1233.291	0.868	1	0back	Block2	0back/STIM_002.jpg
1237.205	0.851	1	0back	Block2	0back/STIM_003.jpg
1240.467	0.646	1	0back	Block2	0back/STIM_003.jpg
1243.678	0.852	0	0back	Block2	0back/STIM_003.jpg
1248.04	0.793	1	0back	Block2	0back/STIM_004.jpg
1252.526	0.923	1	0back	Block2	0back/STIM_004.jpg
1256.05	0.964	1	0back	Block2	0back/STIM_004.jpg
1260.506	0.708	0	0back	Block2	0back/STIM_005.jpg
1264.089	0.905	1	0back	Block2	0back/STIM_005.jpg
1267.154	0.559	1	0back	Block2	0back/STIM_005.jpg
1269.869	0.834	1	0back	Block2	0back/STIM_006.jpg
1273.601	0.798	1	0back	Block2	0back/STIM_006.jpg
1278.242	0.662	1	0back	Block2	0back/STIM_006.jpg
1281.367	0.876	1	0back	Block2	0back/STIM_007.jpg
1285.45	0.73	1	0back	Block2	0back/STIM_007.jpg
1289.223	0.701	1	0back	Block2	0back/STIM_007.jpg
1293.412	0.733	1	0back	Block2	0back/STIM_008.jpg
1296.988	0.87	1	0back	Block2	0back/STIM_008.jpg
1300.301	0.622	1	0back	Block2	0back/STIM_008.jpg
1304.465	0.622	1	0back	Block2	0back/STIM_009.jpg
1308.29	0.942	1	0back	Block2	0back/STIM_009.jpg
1311.388	0.634	1	0back	Block2	0back/STIM_009.jpg
1315.797	0.694	1	0back	Block2	0back/STIM_010.jpg
1319.546	0.692	1	0back	Block2	0back/STIM_010.jpg
1323.952	0.866	1	0back	Block2	0back/STIM_010.jpg
1328.379	0.833	1	0back	Block2	0back/STIM_011.jpg
1332.204	0.763	1	0back	Block2	0back/STIM_011.jpg
1336.034	0.786	1	0back	Block2	0back/STIM_011.jpg
1340.643	0.563	1	0back	Block2	0back/STIM_012.jpg
1344.295	0.659	1	0back	Block2	0back/STIM_012.jpg
1347.199	0.593	1	0back	Block2	0back/STIM_012.jpg
1351.687	0.797	1	0back	Block2	0back/STIM_013.jpg
1356.422	0.651	1	0back	Block2	0back/STIM_013.jpg
1360.851	0.692	1	0back	Block2	0back/STIM_013.jpg
1365.395	0.902	1	0back	Block2	0back/STIM_014.jpg
1369.888	0.732	1	0back	Block2	0back/STIM_014.jpg
1373.573	0.748	1	0back	Block2	0back/STIM_014.jpg
1376.346	0.937	1	0back	Block2	0back/STIM_015.jpg
1380.551	0.786	1	0back	Block2	0back/STIM_015.jpg
1384.212	0.9	1	0back	Block2	0back/STIM_015.jpg
1388.434	0.817	1	0back	Block2	0back/STIM_016.jpg
1393.003	0.809	1	0back	Block2	0back/STIM_016.jpg
1397.375	0.647	1	0back	Block2	0back/STIM_016.jpg
1400.393	0.498	1	0back	Block2	0back/STIM_017.jpg
1403.063	0.501	1	0back	Block2	0back/STIM_017.jpg
1406.351	0.738	1	0back	Block2	0back/STIM_017.jpg
1409.57	0.606	1	0back	Block2	0back/STIM_018.jpg
1412.591	0.777	1	0back	Block2	0back/STIM_018.jpg
1415.484	0.952	1	0back	Block2	0back/STIM_018.jpg
1419.297	0.612	1	0back	Block2	0back/STIM_019.jpg
1422.748	0.888	1	0back	Block2	0back/STIM_019.jpg
1426.397	0.739	1	0back	Block2	0back/STIM_019.jpg
1429.81	1.061	1	2back	Block3	2back/STIM_000.jpg
1434.427	1.062	1	2back	Block3	2back/STIM_000.jpg
1437.927	1.016	1	2back	Block3	2back/STIM_000.jpg
1441.197	0.806	1	2back	Block3	2back/STIM_001.jpg
1444.159	0.986	1	2back	Block3	2back/STIM_001.jpg
1447.406	0.766	1	2back	Block3	2back/STIM_001.jpg
1450.219	1.028	1	2back	Block3	2back/STIM_002.jpg
1453.369	1.093	1	2back	Block3	2back/STIM_002.jpg
1456.64	0.828	1	2back	Block3	2back/STIM_002.jpg
1460.707	1.15	0	2back	Block3	2back/STIM_003.jpg
1464.998	0.694	1	2back	Block3	2back/STIM_003.jpg
1468.536	0.639	1	2back	Block3	2back/STIM_003.jpg
1471.728	1.091	1	2back	Block3	2back/STIM_004.jpg
1476.311	0.891	1	2back	Block3	2back/STIM_004.jpg
1479.227	0.84	1	2back	Block3	2back/STIM_004.jpg
1482.183	0.81	1	2back	Block3	2back/STIM_005.jpg
1485.04	0.837	1	2back	Block3	2back/STIM_005.jpg
1489.243	0.904	1	2back	Block3	2back/STIM_005.jpg
1493.494	0.588	1	2back	Block3	2back/STIM_006.jpg
1496.81	0.699	1	2back	Block3	2back/STIM_006.jpg
1499.551	0.978	1	2back	Block3	2back/STIM_006.jpg
1502.697	1.104	1	2back	Block3	2back/STIM_007.jpg
1507.056	0.74	1	2back	Block3	2back/STIM_007.jpg
1510.821	1.0	1	2back	Block3	2back/STIM_007.jpg
1514.186	1.148	1	2back	Block3	2back/STIM_008.jpg
1517.971	0.524	1	2back	Block3	2back/STIM_008.jpg
1521.217	0.52	1	2back	Block3	2back/STIM_008.jpg
1524.628	0.82	1	2back	Block3	2back/STIM_009.jpg
1529.396	0.737	1	2back	Block3	2back/STIM_009.jpg
1533.426	0.857	1	2back	Block3	2back/STIM_009.jpg
1538.154	0.78	1	2back	Block3	2back/STIM_010.jpg
1542.057	0.863	1	2back	Block3	2back/STIM_010.jpg
1546.557	0.88	1	2back	Block3	2back/STIM_010.jpg
1550.721	0.999	1	2back	Block3	2back/STIM_011.jpg
1554.15	0.917	1	2back	Block3	2back/STIM_011.jpg
1557.237	1.122	1	2back	Block3	2back/STIM_011.jpg
1561.085	1.139	1	2back	Block3	2back/STIM_012.jpg
1565.644	1.028	1	2back	Block3	2back/STIM_012.jpg
1570.304	0.643	1	2back	Block3	2back/STIM_012.jpg
1574.85	0.536	1	2back	Block3	2back/STIM_013.jpg
1578.959	1.171	1	2back	Block3	2back/STIM_013.jpg
1583.591	0.792	1	2back	Block3	2back/STIM_013.jpg
1587.111	1.072	1	2back	Block3	2back/STIM_014.jpg
1591.304	0.959	1	2back	Block3	2back/STIM_014.jpg
1594.39	0.939	1	2back	Block3	2back/STIM_014.jpg
1598.298	1.114	1	2back	Block3	2back/STIM_015.jpg
1603.256	0.962	1	2back	Block3	2back/STIM_015.jpg
1606.42	0.873	1	2back	Block3	2back/STIM_015.jpg
1609.464	0.934	1	2back	Block3	2back/STIM_016.jpg
1613.212	0.607	1	2back	Block3	2back/STIM_016.jpg
1617.817	0.74	1	2back	Block3	2back/STIM_016.jpg
1621.309	1.116	1	2back	Block3	2back/STIM_017.jpg
1625.921	1.138	1	2back	Block3	2back/STIM_017.jpg
1629.317	0.746	1	2back	Block3	2back/STIM_017.jpg
1632.233	1.051	1	2back	Block3	2back/STIM_018.jpg
1636.043	0.95	1	2back	Block3	2back/STIM_018.jpg
1640.048	0.574	1	2back	Block3	2back/STIM_018.jpg
1642.7	1.2	1	2back	Block3	2back/STIM_019.jpg
1647.136	0.955	1	2back	Block3	2back/STIM_019.jpg
1652.02	0.576	1	2back	Block3	2back/STIM_019.jpg
1655.978	0.701	1	2back	Block3	2back/STIM_020.jpg
1659.102	1.199	1	2back	Block3	2back/STIM_020.jpg
1663.108	1.109	1	2back	Block3	2back/STIM_020.jpg
1666.824	0.806	1	2back	Block3	2back/STIM_021.jpg
1671.406	1.189	1	2back	Block3	2back/STIM_021.jpg
1674.7	0.7	1	2back	Block3	2back/STIM_021.jpg
1677.634	0.656	1	2back	Block3	2back/STIM_022.jpg
1681.156	0.813	1	2back	Block3	2back/STIM_022.jpg
1685.825	0.778	1	2back	Block3	2back/STIM_022.jpg
1689.301	0.782	1	2back	Block3	2back/STIM_023.jpg
1693.263	0.946	1	2back	Block3	2back/STIM_023.jpg
1698.016	0.625	1	2back	Block3	2back/STIM_023.jpg
1701.175	1.035	1	2back	Block3	2back/STIM_024.jpg
1705.407	0.634	1	2back	Block3	2back/STIM_024.jpg
1709.364	0.995	1	2back	Block3	2back/STIM_024.jpg
1712.659	0.808	1	2back	Block3	2back/STIM_025.jpg
1716.811	1.194	1	2back	Block3	2back/STIM_025.jpg
1721.372	1.137	1	2back	Block3	2back/STIM_025.jpg
1726.183	0.809	1	2back	Block3	2back/STIM_026.jpg
1729.469	1.005	1	2back	Block3	2back/STIM_026.jpg
1733.766	0.637	1	2back	Block3	2back/STIM_026.jpg
1738.332	0.944	1	2back	Block3	2back/STIM_027.jpg
1741.935	1.097	1	2back	Block3	2back/STIM_027.jpg
1746.802	0.968	1	2back	Block3	2back/STIM_027.jpg
1750.286	0.681	1	2back	Block3	2back/STIM_028.jpg
1753.875	0.717	1	2back	Block3	2back/STIM_028.jpg
1757.086	1.118	1	2back	Block3	2back/STIM_028.jpg
1761.837	0.983	1	2back	Block3	2back/STIM_029.jpg
1765.357	0.567	1	2back	Block3	2back/STIM_029.jpg
1769.091	0.716	1	2back	Block3	2back/STIM_029.jpg
1773.631	1.158	1	2back	Block3	2back/STIM_030.jpg
1778.371	0.866	1	2back	Block3	2back/STIM_030.jpg
1782.647	0.737	1	2back	Block3	2back/STIM_030.jpg
1787.154	1.012	1	2back	Block3	2back/STIM_031.jpg
1791.675	0.914	1	2back	Block3	2back/STIM_031.jpg
1795.242	0.92	1	2back	Block3	2back/STIM_031.jpg
1799.521	1.116	1	2back	Block3	2back/STIM_032.jpg
1802.773	0.574	1	2back	Block3	2back/STIM_032.jpg
1806.032	0.917	1	2back	Block3	2back/STIM_032.jpg
1810.604	0.971	1	2back	Block3	2back/STIM_033.jpg
1815.543	0.914	1	2back	Block3	2back/STIM_033.jpg
1819.71	0.905	1	2back	Block3	2back/STIM_033.jpg
1823.582	0.925	1	2back	Block3	2back/STIM_034.jpg
1828.332	0.922	1	2back	Block3	2back/STIM_034.jpg
1833.01	0.612	1	2back	Block3	2back/STIM_034.jpg
1837.027	0.744	1	2back	Block3	2back/STIM_035.jpg
1840.096	1.148	1	2back	Block3	2back/STIM_035.jpg
1843.632	0.896	1	2back	Block3	2back/STIM_035.jpg
1846.988	1.066	1	2back	Block3	2back/STIM_036.jpg
1850.413	0.66	1	2back	Block3	2back/STIM_036.jpg
1853.305	0.756	1	2back	Block3	2back/STIM_036.jpg
1857.541	0.749	1	2back	Block3	2back/STIM_037.jpg
1861.323	1.207	1	2back	Block3	2back/STIM_037.jpg
1865.645	1.06	1	2back	Block3	2back/STIM_037.jpg
1869.864	0.683	1	2back	Block3	2back/STIM_038.jpg
1874.214	0.907	1	2back	Block3	2back/STIM_038.jpg
1878.724	0.928	1	2back	Block3	2back/STIM_038.jpg
1883.598	1.035	1	2back	Block3	2back/STIM_039.jpg
1888.019	0.591	1	2back	Block3	2back/STIM_039.jpg
1891.568	0.547	1	2back	Block3	2back/STIM_039.jpg
1895.427	0.606	1	0back	Block3	0back/STIM_000.jpg
1898.147	0.732	1	0back	Block3	0back/STIM_000.jpg
1901.296	0.505	1	0back	Block3	0back/STIM_000.jpg
1905.543	0.533	1	0back	Block3	0back/STIM_001.jpg
1908.701	0.813	1	0back	Block3	0back/STIM_001.jpg
1912.146	0.777	1	0back	Block3	0back/STIM_001.jpg
1914.962	0.693	1	0back	Block3	0back/STIM_002.jpg
1918.839	0.547	1	0back	Block3	0back/STIM_002.jpg
1923.156	0.859	1	0back	Block3	0back/STIM_002.jpg
1927.078	0.833	1	0back	Block3	0back/STIM_003.jpg
1931.345	0.652	1	0back	Block3	0back/STIM_003.jpg
1935.602	0.497	1	0back	Block3	0back/STIM_003.jpg
1939.812	0.78	1	0back	Block3	0back/STIM_004.jpg
1944.416	0.921	1	0back	Block3	0back/STIM_004.jpg
1949.086	0.916	1	0back	Block3	0back/STIM_004.jpg
1952.956	0.66	1	0back	Block3	0back/STIM_005.jpg
1955.857	0.899	1	0back	Block3	0back/STIM_005.jpg
1958.821	0.526	1	0back	Block3	0back/STIM_005.jpg
1962.65	0.515	1	0back	Block3	0back/STIM_006.jpg
1965.614	0.986	1	0back	Block3	0back/STIM_006.jpg
1968.82	0.516	1	0back	Block3	0back/STIM_006.jpg
1972.401	0.697	1	0back	Block3	0back/STIM_007.jpg
1975.474	0.848	1	0back	Block3	0back/STIM_007.jpg
1978.478	0.663	1	0back	Block3	0back/STIM_007.jpg
1982.879	0.604	1	0back	Block3	0back/STIM_008.jpg
1986.88	0.646	1	0back	Block3	0back/STIM_008.jpg
1990.543	0.593	1	0back	Block3	0back/STIM_008.jpg
1994.34	0.547	1	0back	Block3	0back/STIM_009.jpg
1998.097	0.514	1	0back	Block3	0back/STIM_009.jpg
2000.842	0.974	1	0back	Block3	0back/STIM_009.jpg
2005.356	0.617	1	0back	Block3	0back/STIM_010.jpg
2008.02	0.678	1	0back	Block3	0back/STIM_010.jpg
2011.065	0.963	1	0back	Block3	0back/STIM_010.jpg
2014.098	0.974	1	0back	Block3	0back/STIM_011.jpg
2017.495	0.618	1	0back	Block3	0back/STIM_011.jpg
2021.208	0.673	1	0back	Block3	0back/STIM_011.jpg
2025.125	0.937	1	0back	Block3	0back/STIM_012.jpg
2029.553	0.655	1	0back	Block3	0back/STIM_012.jpg
2034.111	0.608	1	0back	Block3	0back/STIM_012.jpg
2037.079	0.657	1	0back	Block3	0back/STIM_013.jpg
2041.009	0.751	1	0back	Block3	0back/STIM_013.jpg
2044.38	0.928	1	0back	Block3	0back/STIM_013.jpg
2048.19	0.942	1	0back	Block3	0back/STIM_014.jpg
2052.398	0.638	1	0back	Block3	0back/STIM_014.jpg
2055.853	0.523	1	0back	Block3	0back/STIM_014.jpg
2059.471	0.594	1	0back	Block3	0back/STIM_015.jpg
2062.773	0.585	1	0back	Block3	0back/STIM_015.jpg
2065.684	0.775	0	0back	Block3	0back/STIM_015.jpg
2069.128	0.915	1	0back	Block3	0back/STIM_016.jpg
2072.82	0.68	0	0back	Block3	0back/STIM_016.jpg
2076.047	0.838	1	0back	Block3	0back/STIM_016.jpg
2080.041	0.829	1	0back	Block3	0back/STIM_017.jpg
2084.79	0.525	1	0back	Block3	0back/STIM_017.jpg
2087.377	0.648	1	0back	Block3	0back/STIM_017.jpg
2090.871	0.673	1	0back	Block3	0back/STIM_018.jpg
2094.822	0.736	1	0back	Block3	0back/STIM_018.jpg
2098.695	0.595	1	0back	Block3	0back/STIM_018.jpg
2102.996	0.691	1	0back	Block3	0back/STIM_019.jpg
2106.204	0.657	1	0back	Block3	0back/STIM_019.jpg
2109.085	0.703	1	0back	Block3	0back/STIM_019.jpg
2113.418	1.157	1	2back	Block4	2back/STIM_000.jpg
2118.145	0.663	1	2back	Block4	2back/STIM_000.jpg
2121.082	0.656	1	2back	Block4	2back/STIM_000.jpg
2125.253	1.181	1	2back	Block4	2back/STIM_001.jpg
2128.611	0.542	1	2back	Block4	2back/STIM_001.jpg
2132.791	0.664	1	2back	Block4	2back/STIM_001.jpg
2135.69	1.061	1	2back	Block4	2back/STIM_002.jpg
2139.04	1.136	1	2back	Block4	2back/STIM_002.jpg
2142.272	0.652	1	2back	Block4	2back/STIM_002.jpg
2146.401	0.563	1	2back	Block4	2back/STIM_003.jpg
2150.791	1.034	1	2back	Block4	2back/STIM_003.jpg
2154.973	0.906	1	2back	Block4	2back/STIM_003.jpg
2159.742	0.719	1	2back	Block4	2back/STIM_004.jpg
2163.062	0.934	1	2back	Block4	2back/STIM_004.jpg
2167.766	0.952	1	2back	Block4	2back/STIM_004.jpg
2172.691	0.718	0	2back	Block4	2back/STIM_005.jpg
2176.259	1.158	1	2back	Block4	2back/STIM_005.jpg
2179.955	0.536	1	2back	Block4	2back/STIM_005.jpg
2184.222	0.814	1	2back	Block4	2back/STIM_006.jpg
2187.132	0.716	1	2back	Block4	2back/STIM_006.jpg
2190.769	0.82	1	2back	Block4	2back/STIM_006.jpg
2195.246	0.86	1	2back	Block4	2back/STIM_007.jpg
2198.798	1.177	1	2back	Block4	2back/STIM_007.jpg
2202.615	0.857	1	2back	Block4	2back/STIM_007.jpg
2206.506	0.611	1	2back	Block4	2back/STIM_008.jpg
2210.454	0.828	1	2back	Block4	2back/STIM_008.jpg
2214.769	0.936	1	2back	Block4	2back/STIM_008.jpg
2219.597	0.622	1	2back	Block4	2back/STIM_009.jpg
2222.486	1.125	1	2back	Block4	2back/STIM_009.jpg
2226.967	0.675	1	2back	Block4	2back/STIM_009.jpg
2231.518	0.972	1	2back	Block4	2back/STIM_010.jpg
2234.759	1.086	1	2back	Block4	2back/STIM_010.jpg
2238.443	1.051	1	2back	Block4	2back/STIM_010.jpg
2241.632	0.717	1	2back	Block4	2back/STIM_011.jpg
2246.328	0.792	1	2back	Block4	2back/STIM_011.jpg
2251.109	0.913	1	2back	Block4	2back/STIM_011.jpg
2255.266	1.145	1	2back	Block4	2back/STIM_012.jpg
2258.669	0.52	1	2back	Block4	2back/STIM_012.jpg
2262.769	0.895	1	2back	Block4	2back/STIM_012.jpg
2266.525	0.719	1	2back	Block4	2back/STIM_013.jpg
2269.971	0.731	1	2back	Block4	2back/STIM_013.jpg
2274.546	0.959	1	2back	Block4	2back/STIM_013.jpg
2277.692	1.114	1	2back	Block4	2back/STIM_014.jpg
2281.192	1.138	1	2back	Block4	2back/STIM_014.jpg
2284.638	0.823	1	2back	Block4	2back/STIM_014.jpg
2288.159	0.803	1	2back	Block4	2back/STIM_015.jpg
2292.115	0.584	1	2back	Block4	2back/STIM_015.jpg
2296.172	0.73	1	2back	Block4	2back/STIM_015.jpg
2299.026	0.67	1	2back	Block4	2back/STIM_016.jpg
2302.257	1.094	1	2back	Block4	2back/STIM_016.jpg
2306.807	1.162	1	2back	Block4	2back/STIM_016.jpg
2310.673	0.799	1	2back	Block4	2back/STIM_017.jpg
2314.115	1.187	1	2back	Block4	2back/STIM_017.jpg
2318.831	1.196	1	2back	Block4	2back/STIM_017.jpg
2322.29	1.115	1	2back	Block4	2back/STIM_018.jpg
2326.38	1.165	1	2back	Block4	2back/STIM_018.jpg
2330.285	0.731	1	2back	Block4	2back/STIM_018.jpg
2333.921	0.754	1	2back	Block4	2back/STIM_019.jpg
2336.766	0.695	1	2back	Block4	2back/STIM_019.jpg
2339.977	1.045	1	2back	Block4	2back/STIM_019.jpg
2343.802	0.954	1	2back	Block4	2back/STIM_020.jpg
2348.464	0.667	1	2back	Block4	2back/STIM_020.jpg
2353.079	0.807	1	2back	Block4	2back/STIM_020.jpg
2357.024	1.136	0	2back	Block4	2back/STIM_021.jpg
2360.337	0.623	1	2back	Block4	2back/STIM_021.jpg
2363.158	1.117	1	2back	Block4	2back/STIM_021.jpg
2366.483	0.601	1	2back	Block4	2back/STIM_022.jpg
2370.194	0.731	1	2back	Block4	2back/STIM_022.jpg
2373.671	0.557	1	2back	Block4	2back/STIM_022.jpg
2376.771	0.59	1	2back	Block4	2back/STIM_023.jpg
2379.703	1.068	1	2back	Block4	2back/STIM_023.jpg
2383.056	0.655	1	2back	Block4	2back/STIM_023.jpg
2386.165	1.129	1	2back	Block4	2back/STIM_024.jpg
2391.006	0.74	1	2back	Block4	2back/STIM_024.jpg
2395.259	0.917	1	2back	Block4	2back/STIM_024.jpg
2399.698	1.005	1	2back	Block4	2back/STIM_025.jpg
2403.564	0.938	1	2back	Block4	2back/STIM_025.jpg
2407.906	1.156	1	2back	Block4	2back/STIM_025.jpg
2412.379	0.617	0	2back	Block4	2back/STIM_026.jpg
2415.68	0.94	1	2back	Block4	2back/STIM_026.jpg
2420.432	0.714	1	2back	Block4	2back/STIM_026.jpg
2424.963	1.067	1	2back	Block4	2back/STIM_027.jpg
2428.544	0.966	1	2back	Block4	2back/STIM_027.jpg
2432.07	0.897	1	2back	Block4	2back/STIM_027.jpg
2435.734	0.87	1	2back	Block4	2back/STIM_028.jpg
2439.119	1.028	1	2back	Block4	2back/STIM_028.jpg
2442.968	0.985	1	2back	Block4	2back/STIM_028.jpg
2446.44	1.041	1	2back	Block4	2back/STIM_029.jpg
2450.266	0.735	1	2back	Block4	2back/STIM_029.jpg
2453.004	1.177	1	2back	Block4	2back/STIM_029.jpg
2456.214	0.93	1	2back	Block4	2back/STIM_030.jpg
2459.217	0.617	1	2back	Block4	2back/STIM_030.jpg
2461.846	0.588	1	2back	Block4	2back/STIM_030.jpg
2466.39	0.965	1	2back	Block4	2back/STIM_031.jpg
2471.164	0.701	1	2back	Block4	2back/STIM_031.jpg
2474.098	0.794	1	2back	Block4	2back/STIM_031.jpg
2478.258	0.954	1	2back	Block4	2back/STIM_032.jpg
2482.858	0.935	1	2back	Block4	2back/STIM_032.jpg
2487.439	0.641	1	2back	Block4	2back/STIM_032.jpg
2491.842	1.117	1	2back	Block4	2back/STIM_033.jpg
2496.219	0.954	1	2back	Block4	2back/STIM_033.jpg
2501.106	0.844	1	2back	Block4	2back/STIM_033.jpg
2504.864	0.718	1	2back	Block4	2back/STIM_034.jpg
2508.057	0.866	1	2back	Block4	2back/STIM_034.jpg
2512.43	1.056	0	2back	Block4	2back/STIM_034.jpg
2515.512	1.076	1	2back	Block4	2back/STIM_035.jpg
2519.76	0.536	1	2back	Block4	2back/STIM_035.jpg
2523.806	0.925	1	2back	Block4	2back/STIM_035.jpg
2527.534	0.56	1	2back	Block4	2back/STIM_036.jpg
2530.568	1.173	1	2back	Block4	2back/STIM_036.jpg
2534.987	0.521	1	2back	Block4	2back/STIM_036.jpg
2538.461	1.091	1	2back	Block4	2back/STIM_037.jpg
2542.303	0.691	1	2back	Block4	2back/STIM_037.jpg
2545.642	0.57	1	2back	Block4	2back/STIM_037.jpg
2549.336	1.163	1	2back	Block4	2back/STIM_038.jpg
2553.92	0.772	1	2back	Block4	2back/STIM_038.jpg
2556.712	0.873	1	2back	Block4	2back/STIM_038.jpg
2560.105	0.523	1	2back	Block4	2back/STIM_039.jpg
2564.519	0.687	1	2back	Block4	2back/STIM_039.jpg
2567.634	0.726	1	2back	Block4	2back/STIM_039.jpg
2571.689	0.762	1	0back	Block4	0back/STIM_000.jpg
2575.25	0.735	1	0back	Block4	0back/STIM_000.jpg
2579.089	0.896	1	0back	Block4	0back/STIM_000.jpg
2583.558	0.907	1	0back	Block4	0back/STIM_001.jpg
2586.788	0.805	1	0back	Block4	0back/STIM_001.jpg
2589.658	0.769	1	0back	Block4	0back/STIM_001.jpg
2593.615	0.753	1	0back	Block4	0back/STIM_002.jpg
2596.377	0.816	1	0back	Block4	0back/STIM_002.jpg
2601.061	0.598	1	0back	Block4	0back/STIM_002.jpg
2605.06	0.718	1	0back	Block4	0back/STIM_003.jpg
2609.473	0.711	1	0back	Block4	0back/STIM_003.jpg
2612.446	0.65	1	0back	Block4	0back/STIM_003.jpg
2615.697	0.531	1	0back	Block4	0back/STIM_004.jpg
2619.56	0.755	1	0back	Block4	0back/STIM_004.jpg
2623.858	0.746	1	0back	Block4	0back/STIM_004.jpg
2627.972	0.729	1	0back	Block4	0back/STIM_005.jpg
2632.542	0.67	1	0back	Block4	0back/STIM_005.jpg
2636.525	0.861	1	0back	Block4	0back/STIM_005.jpg
2640.161	0.943	1	0back	Block4	0back/STIM_006.jpg
2645.006	0.732	1	0back	Block4	0back/STIM_006.jpg
2649.455	0.909	1	0back	Block4	0back/STIM_006.jpg
2653.798	0.737	1	0back	Block4	0back/STIM_007.jpg
2657.977	0.58	1	0back	Block4	0back/STIM_007.jpg
2661.746	0.562	1	0back	Block4	0back/STIM_007.jpg
2665.961	0.686	1	0back	Block4	0back/STIM_008.jpg
2668.758	0.855	1	0back	Block4	0back/STIM_008.jpg
2673.114	0.568	1	0back	Block4	0back/STIM_008.jpg
2676.805	0.527	0	0back	Block4	0back/STIM_009.jpg
2680.191	0.59	1	0back	Block4	0back/STIM_009.jpg
2682.976	0.899	1	0back	Block4	0back/STIM_009.jpg
2687.786	0.504	1	0back	Block4	0back/STIM_010.jpg
2691.851	0.677	1	0back	Block4	0back/STIM_010.jpg
2696.464	0.632	1	0back	Block4	0back/STIM_010.jpg
2699.839	0.642	1	0back	Block4	0back/STIM_011.jpg
2704.355	0.862	1	0back	Block4	0back/STIM_011.jpg
2707.541	0.62	1	0back	Block4	0back/STIM_011.jpg
2712.096	0.596	1	0back	Block4	0back/STIM_012.jpg
2715.399	0.75	1	0back	Block4	0back/STIM_012.jpg
2719.259	0.945	1	0back	Block4	0back/STIM_012.jpg
2722.542	0.784	0	0back	Block4	0back/STIM_013.jpg
2726.684	0.923	1	0back	Block4	0back/STIM_013.jpg
2730.991	0.559	1	0back	Block4	0back/STIM_013.jpg
2734.582	0.849	1	0back	Block4	0back/STIM_014.jpg
2738.035	0.977	1	0back	Block4	0back/STIM_014.jpg
2741.981	0.617	1	0back	Block4	0back/STIM_014.jpg
2745.14	0.966	1	0back	Block4	0back/STIM_015.jpg
2749.908	0.812	1	0back	Block4	0back/STIM_015.jpg
2753.411	0.839	1	0back	Block4	0back/STIM_015.jpg
2757.438	0.556	1	0back	Block4	0back/STIM_016.jpg
2760.093	0.517	1	0back	Block4	0back/STIM_016.jpg
2763.436	0.896	1	0back	Block4	0back/STIM_016.jpg
2767.333	0.679	1	0back	Block4	0back/STIM_017.jpg
2771.639	0.694	1	0back	Block4	0back/STIM_017.jpg
2774.921	0.682	1	0back	Block4	0back/STIM_017.jpg
2779.31	0.572	1	0back	Block4	0back/STIM_018.jpg
2783.261	0.793	1	0back	Block4	0back/STIM_018.jpg
2786.961	0.657	1	0back	Block4	0back/STIM_018.jpg
2790.17	0.8	1	0back	Block4	0back/STIM_019.jpg
2794.41	0.65	1	0back	Block4	0back/STIM_019.jpg
2797.232	0.617	1	0back	Block4	0back/STIM_019.jpg
