onset	duration	response_time_ms	trial_type	learning_stage	stimulus	response_port
0.0	0.896	895.7	2back	Block1	2back/STIM_000.jpg	100
3.977	0.916	916.2	2back	Block1	2back/STIM_000.jpg	100
7.424	0.986	985.8	2back	Block1	2back/STIM_000.jpg	100
12.455	1.028	1028.1	2back	Block1	2back/STIM_001.jpg	100
17.169	0.515	514.7	2back	Block1	2back/STIM_001.jpg	100
20.516	0.633	633.3	2back	Block1	2back/STIM_001.jpg	100
24.257	0.825	824.6	2back	Block1	2back/STIM_002.jpg	100
27.186	1.079	1079.1	2back	Block1	2back/STIM_002.jpg	99
31.926	0.839	838.9	2back	Block1	2back/STIM_002.jpg	99
35.948	0.878	877.5	2back	Block1	2back/STIM_003.jpg	100
39.423	0.84	839.9	2back	Block1	2back/STIM_003.jpg	99
43.069	0.687	686.7	2back	Block1	2back/STIM_003.jpg	100
46.962	0.599	599.0	2back	Block1	2back/STIM_004.jpg	99
49.757	0.857	857.4	2back	Block1	2back/STIM_004.jpg	100
54.203	0.699	698.9	2back	Block1	2back/STIM_004.jpg	100
57.645	0.814	813.5	2back	Block1	2back/STIM_005.jpg	100
60.467	1.022	1021.6	2back	Block1	2back/STIM_005.jpg	99
65.188	0.719	719.0	2back	Block1	2back/STIM_005.jpg	99
68.149	0.987	986.8	2back	Block1	2back/STIM_006.jpg	100
72.432	0.749	749.0	2back	Block1	2back/STIM_006.jpg	99
77.031	0.941	940.9	2back	Block1	2back/STIM_006.jpg	99
80.026	0.686	685.5	2back	Block1	2back/STIM_007.jpg	100
84.461	0.904	903.9	2back	Block1	2back/STIM_007.jpg	100
88.784	0.879	879.3	2back	Block1	2back/STIM_007.jpg	99
93.026	0.84	839.5	2back	Block1	2back/STIM_008.jpg	99
97.69	0.833	832.8	2back	Block1	2back/STIM_008.jpg	100
100.867	1.028	1028.4	2back	Block1	2back/STIM_008.jpg	99
105.921	0.73	730.4	2back	Block1	2back/STIM_009.jpg	99
110.604	1.058	1057.7	2back	Block1	2back/STIM_009.jpg	99
114.842	0.865	865.2	2back	Block1	2back/STIM_009.jpg	99
119.312	0.746	746.3	2back	Block1	2back/STIM_010.jpg	99
122.341	0.985	984.7	2back	Block1	2back/STIM_010.jpg	99
126.751	0.868	867.9	2back	Block1	2back/STIM_010.jpg	99
130.179	1.137	1136.7	2back	Block1	2back/STIM_011.jpg	100
133.5	1.042	1042.1	2back	Block1	2back/STIM_011.jpg	100
137.071	0.736	736.4	2back	Block1	2back/STIM_011.jpg	99
140.424	0.858	857.5	2back	Block1	2back/STIM_012.jpg	100
144.46	0.626	625.6	2back	Block1	2back/STIM_012.jpg	100
147.337	0.708	708.5	2back	Block1	2back/STIM_012.jpg	100
152.129	1.129	1129.1	2back	Block1	2back/STIM_013.jpg	100
156.425	0.834	834.5	2back	Block1	2back/STIM_013.jpg	100
159.801	1.036	1036.3	2back	Block1	2back/STIM_013.jpg	99
164.668	0.738	738.5	2back	Block1	2back/STIM_014.jpg	100
168.655	0.728	727.6	2back	Block1	2back/STIM_014.jpg	99
172.017	0.669	669.1	2back	Block1	2back/STIM_014.jpg	100
176.601	0.599	598.8	2back	Block1	2back/STIM_015.jpg	100
179.218	0.812	811.9	2back	Block1	2back/STIM_015.jpg	100
182.871	0.868	867.9	2back	Block1	2back/STIM_015.jpg	99
186.485	0.87	870.3	2back	Block1	2back/STIM_016.jpg	99
190.914	0.576	576.0	2back	Block1	2back/STIM_016.jpg	100
194.691	0.861	861.0	2back	Block1	2back/STIM_016.jpg	99
198.311	0.709	708.8	2back	Block1	2back/STIM_017.jpg	99
202.154	0.931	931.3	2back	Block1	2back/STIM_017.jpg	99
205.975	0.723	722.9	2back	Block1	2back/STIM_017.jpg	100
210.403	1.079	1078.9	2back	Block1	2back/STIM_018.jpg	100
214.455	1.035	1035.2	2back	Block1	2back/STIM_018.jpg	99
219.051	1.118	1118.5	2back	Block1	2back/STIM_018.jpg	100
223.14	1.102	1101.5	2back	Block1	2back/STIM_019.jpg	100
227.3	0.974	974.3	2back	Block1	2back/STIM_019.jpg	100
231.744	0.472	471.8	2back	Block1	2back/STIM_019.jpg	99
235.413	1.155	1155.2	2back	Block1	2back/STIM_020.jpg	100
239.546	1.116	1115.6	2back	Block1	2back/STIM_020.jpg	100
244.329	0.895	894.8	2back	Block1	2back/STIM_020.jpg	99
247.405	0.942	942.5	2back	Block1	2back/STIM_021.jpg	100
250.482	1.127	1127.4	2back	Block1	2back/STIM_021.jpg	99
255.425	0.57	569.9	2back	Block1	2back/STIM_021.jpg	100
258.183	1.172	1171.6	2back	Block1	2back/STIM_022.jpg	100
262.886	0.677	677.3	2back	Block1	2back/STIM_022.jpg	100
266.331	0.638	638.5	2back	Block1	2back/STIM_022.jpg	100
270.798	0.757	757.3	2back	Block1	2back/STIM_023.jpg	99
275.556	0.774	773.9	2back	Block1	2back/STIM_023.jpg	100
278.527	0.525	524.8	2back	Block1	2back/STIM_023.jpg	99
283.052	0.728	727.9	2back	Block1	2back/STIM_024.jpg	99
285.82	1.221	1221.1	2back	Block1	2back/STIM_024.jpg	99
290.903	0.983	982.7	2back	Block1	2back/STIM_024.jpg	99
295.003	1.038	1038.0	2back	Block1	2back/STIM_025.jpg	99
298.668	0.625	625.1	2back	Block1	2back/STIM_025.jpg	100
301.475	0.868	868.4	2back	Block1	2back/STIM_025.jpg	99
306.097	0.648	648.5	2back	Block1	2back/STIM_026.jpg	99
309.918	1.169	1168.6	2back	Block1	2back/STIM_026.jpg	99
314.818	0.615	615.4	2back	Block1	2back/STIM_026.jpg	100
319.241	1.128	1127.8	2back	Block1	2back/STIM_027.jpg	100
323.347	1.022	1022.5	2back	Block1	2back/STIM_027.jpg	100
326.394	0.69	689.8	2back	Block1	2back/STIM_027.jpg	99
329.962	0.554	553.9	2back	Block1	2back/STIM_028.jpg	99
333.737	0.782	781.7	2back	Block1	2back/STIM_028.jpg	100
336.797	0.844	843.6	2back	Block1	2back/STIM_028.jpg	100
340.697	0.947	947.1	2back	Block1	2back/STIM_029.jpg	99
344.213	1.099	1099.4	2back	Block1	2back/STIM_029.jpg	99
348.124	0.616	616.3	2back	Block1	2back/STIM_029.jpg	99
351.497	0.828	827.6	2back	Block1	2back/STIM_030.jpg	100
354.938	0.818	818.3	2back	Block1	2back/STIM_030.jpg	100
359.718	1.046	1046.2	2back	Block1	2back/STIM_030.jpg	99
363.534	1.058	1057.7	2back	Block1	2back/STIM_031.jpg	100
367.301	1.212	1211.6	2back	Block1	2back/STIM_031.jpg	99
371.75	1.074	1074.0	2back	Block1	2back/STIM_031.jpg	99
375.193	0.854	853.9	2back	Block1	2back/STIM_032.jpg	99
379.335	0.557	557.0	2back	Block1	2back/STIM_032.jpg	99
383.041	0.812	812.0	2back	Block1	2back/STIM_032.jpg	99
387.375	0.638	638.3	2back	Block1	2back/STIM_033.jpg	100
390.358	0.869	869.3	2back	Block1	2back/STIM_033.jpg	100
393.678	0.595	595.2	2back	Block1	2back/STIM_033.jpg	99
398.189	1.31	1309.7	2back	Block1	2back/STIM_034.jpg	99
401.504	0.973	973.0	2back	Block1	2back/STIM_034.jpg	99
406.142	0.674	674.3	2back	Block1	2back/STIM_034.jpg	100
409.312	0.996	995.9	2back	Block1	2back/STIM_035.jpg	99
413.555	1.268	1267.9	2back	Block1	2back/STIM_035.jpg	99
418.217	0.965	964.9	2back	Block1	2back/STIM_035.jpg	100
423.145	1.19	1190.2	2back	Block1	2back/STIM_036.jpg	99
426.483	1.114	1114.5	2back	Block1	2back/STIM_036.jpg	99
430.521	0.94	940.3	2back	Block1	2back/STIM_036.jpg	100
434.306	1.236	1236.4	2back	Block1	2back/STIM_037.jpg	100
439.416	0.889	888.7	2back	Block1	2back/STIM_037.jpg	99
442.998	0.557	557.2	2back	Block1	2back/STIM_037.jpg	99
447.248	1.142	1142.4	2back	Block1	2back/STIM_038.jpg	100
450.552	1.097	1097.3	2back	Block1	2back/STIM_038.jpg	100
455.263	0.975	975.2	2back	Block1	2back/STIM_038.jpg	100
459.661	1.029	1028.8	2back	Block1	2back/STIM_039.jpg	99
464.643	0.915	914.6	2back	Block1	2back/STIM_039.jpg	99
467.916	0.853	852.8	2back	Block1	2back/STIM_039.jpg	99
472.658	0.806	805.5	0back	Block1	0back/STIM_000.jpg	100
475.771	0.45	449.6	0back	Block1	0back/STIM_000.jpg	100
480.086	0.43	430.1	0back	Block1	0back/STIM_000.jpg	99
483.969	0.428	428.0	0back	Block1	0back/STIM_001.jpg	100
487.407	0.588	587.5	0back	Block1	0back/STIM_001.jpg	99
491.619	0.611	611.2	0back	Block1	0back/STIM_001.jpg	100
494.964	0.38	380.0	0back	Block1	0back/STIM_002.jpg	100
499.343	0.586	586.2	0back	Block1	0back/STIM_002.jpg	99
502.805	0.396	396.0	0back	Block1	0back/STIM_002.jpg	100
506.215	0.571	571.0	0back	Block1	0back/STIM_003.jpg	99
509.694	0.752	752.4	0back	Block1	0back/STIM_003.jpg	100
512.688	0.57	569.8	0back	Block1	0back/STIM_003.jpg	100
516.335	0.393	393.0	0back	Block1	0back/STIM_004.jpg	100
518.877	0.699	699.1	0back	Block1	0back/STIM_004.jpg	100
521.804	0.646	646.5	0back	Block1	0back/STIM_004.jpg	99
526.192	0.66	660.3	0back	Block1	0back/STIM_005.jpg	100
528.993	0.545	544.8	0back	Block1	0back/STIM_005.jpg	100
533.09	0.646	645.8	0back	Block1	0back/STIM_005.jpg	100
537.574	0.728	727.9	0back	Block1	0back/STIM_006.jpg	99
541.75	0.5	499.6	0back	Block1	0back/STIM_006.jpg	99
544.307	0.483	483.0	0back	Block1	0back/STIM_006.jpg	100
548.811	0.766	765.5	0back	Block1	0back/STIM_007.jpg	99
552.25	0.471	471.0	0back	Block1	0back/STIM_007.jpg	100
556.064	0.508	507.8	0back	Block1	0back/STIM_007.jpg	100
559.958	0.459	459.1	0back	Block1	0back/STIM_008.jpg	99
563.322	0.403	403.4	0back	Block1	0back/STIM_008.jpg	99
566.004	0.416	415.5	0back	Block1	0back/STIM_008.jpg	100
569.23	0.575	575.3	0back	Block1	0back/STIM_009.jpg	99
572.102	0.392	391.7	0back	Block1	0back/STIM_009.jpg	99
575.1	0.614	614.1	0back	Block1	0back/STIM_009.jpg	99
578.077	0.557	557.1	0back	Block1	0back/STIM_010.jpg	100
582.034	0.813	812.7	0back	Block1	0back/STIM_010.jpg	100
585.445	0.634	633.5	0back	Block1	0back/STIM_010.jpg	100
589.254	0.39	390.0	0back	Block1	0back/STIM_011.jpg	99
592.662	0.623	623.1	0back	Block1	0back/STIM_011.jpg	99
596.508	0.514	514.3	0back	Block1	0back/STIM_011.jpg	99
600.32	0.551	550.9	0back	Block1	0back/STIM_012.jpg	99
604.736	0.518	517.7	0back	Block1	0back/STIM_012.jpg	100
608.333	0.402	402.4	0back	Block1	0back/STIM_012.jpg	99
611.277	0.56	560.2	0back	Block1	0back/STIM_013.jpg	99
614.637	0.686	686.1	0back	Block1	0back/STIM_013.jpg	99
618.224	0.536	535.9	0back	Block1	0back/STIM_013.jpg	99
621.633	0.635	634.9	0back	Block1	0back/STIM_014.jpg	99
625.086	0.496	496.0	0back	Block1	0back/STIM_014.jpg	99
629.039	0.695	695.4	0back	Block1	0back/STIM_014.jpg	100
631.779	0.644	644.0	0back	Block1	0back/STIM_015.jpg	100
636.137	0.476	475.8	0back	Block1	0back/STIM_015.jpg	99
638.748	0.486	485.7	0back	Block1	0back/STIM_015.jpg	100
643.176	0.708	708.3	0back	Block1	0back/STIM_016.jpg	100
646.882	0.602	601.6	0back	Block1	0back/STIM_016.jpg	99
649.522	0.394	393.9	0back	Block1	0back/STIM_016.jpg	99
653.868	0.664	663.6	0back	Block1	0back/STIM_017.jpg	99
658.257	0.515	515.0	0back	Block1	0back/STIM_017.jpg	100
661.342	0.357	356.7	0back	Block1	0back/STIM_017.jpg	99
663.84	0.662	662.5	0back	Block1	0back/STIM_018.jpg	100
668.27	0.641	640.6	0back	Block1	0back/STIM_018.jpg	100
672.568	0.551	551.0	0back	Block1	0back/STIM_018.jpg	100
677.153	0.713	712.6	0back	Block1	0back/STIM_019.jpg	100
680.822	0.661	660.6	0back	Block1	0back/STIM_019.jpg	100
685.311	0.614	613.7	0back	Block1	0back/STIM_019.jpg	99
689.495	1.064	1063.5	2back	Block2	2back/STIM_000.jpg	100
694.425	0.567	566.9	2back	Block2	2back/STIM_000.jpg	99
697.103	0.593	593.3	2back	Block2	2back/STIM_000.jpg	99
701.047	1.12	1120.1	2back	Block2	2back/STIM_001.jpg	99
704.351	0.542	542.4	2back	Block2	2back/STIM_001.jpg	100
707.577	0.729	728.7	2back	Block2	2back/STIM_001.jpg	100
711.57	1.139	1139.3	2back	Block2	2back/STIM_002.jpg	100
715.431	0.561	560.6	2back	Block2	2back/STIM_002.jpg	99
718.388	0.833	832.7	2back	Block2	2back/STIM_002.jpg	100
722.641	0.78	779.5	2back	Block2	2back/STIM_003.jpg	100
726.428	1.0	999.8	2back	Block2	2back/STIM_003.jpg	99
729.744	0.478	478.1	2back	Block2	2back/STIM_003.jpg	99
734.058	0.975	975.4	2back	Block2	2back/STIM_004.jpg	99
738.668	0.475	474.9	2back	Block2	2back/STIM_004.jpg	99
742.138	0.644	643.6	2back	Block2	2back/STIM_004.jpg	99
745.955	0.608	607.7	2back	Block2	2back/STIM_005.jpg	99
748.925	0.877	876.8	2back	Block2	2back/STIM_005.jpg	100
752.902	0.544	543.5	2back	Block2	2back/STIM_005.jpg	99
755.987	0.779	778.8	2back	Block2	2back/STIM_006.jpg	100
759.366	0.84	839.7	2back	Block2	2back/STIM_006.jpg	100
763.008	0.712	712.5	2back	Block2	2back/STIM_006.jpg	99
766.959	1.097	1096.7	2back	Block2	2back/STIM_007.jpg	100
770.917	0.855	855.4	2back	Block2	2back/STIM_007.jpg	99
775.271	0.762	762.0	2back	Block2	2back/STIM_007.jpg	100
778.642	0.862	862.4	2back	Block2	2back/STIM_008.jpg	99
781.838	1.073	1073.1	2back	Block2	2back/STIM_008.jpg	100
786.598	0.749	749.2	2back	Block2	2back/STIM_008.jpg	99
790.268	0.599	598.9	2back	Block2	2back/STIM_009.jpg	100
792.818	0.858	858.2	2back	Block2	2back/STIM_009.jpg	100
796.845	0.622	621.6	2back	Block2	2back/STIM_009.jpg	100
800.109	1.091	1091.1	2back	Block2	2back/STIM_010.jpg	100
804.563	0.384	383.7	2back	Block2	2back/STIM_010.jpg	100
808.732	0.854	853.8	2back	Block2	2back/STIM_010.jpg	99
812.592	0.79	789.7	2back	Block2	2back/STIM_011.jpg	99
815.758	0.58	579.7	2back	Block2	2back/STIM_011.jpg	99
820.206	0.424	424.5	2back	Block2	2back/STIM_011.jpg	99
823.622	1.035	1035.3	2back	Block2	2back/STIM_012.jpg	99
828.448	0.705	704.7	2back	Block2	2back/STIM_012.jpg	100
832.49	0.942	942.4	2back	Block2	2back/STIM_012.jpg	100
835.905	0.965	965.2	2back	Block2	2back/STIM_013.jpg	100
839.804	0.602	602.5	2back	Block2	2back/STIM_013.jpg	99
844.253	0.555	555.3	2back	Block2	2back/STIM_013.jpg	99
848.635	0.668	667.5	2back	Block2	2back/STIM_014.jpg	100
851.406	0.987	986.6	2back	Block2	2back/STIM_014.jpg	99
855.753	0.858	857.8	2back	Block2	2back/STIM_014.jpg	99
859.85	1.096	1095.9	2back	Block2	2back/STIM_015.jpg	99
863.985	0.947	947.2	2back	Block2	2back/STIM_015.jpg	99
868.7	0.623	623.4	2back	Block2	2back/STIM_015.jpg	100
872.551	0.616	616.5	2back	Block2	2back/STIM_016.jpg	100
877.203	0.888	888.1	2back	Block2	2back/STIM_016.jpg	100
880.502	0.475	474.9	2back	Block2	2back/STIM_016.jpg	100
883.977	0.625	625.0	2back	Block2	2back/STIM_017.jpg	100
886.974	0.616	616.1	2back	Block2	2back/STIM_017.jpg	99
890.829	0.768	767.5	2back	Block2	2back/STIM_017.jpg	99
895.283	0.674	674.3	2back	Block2	2back/STIM_018.jpg	99
899.744	0.714	713.7	2back	Block2	2back/STIM_018.jpg	100
903.174	0.436	435.9	2back	Block2	2back/STIM_018.jpg	100
907.296	1.0	1000.5	2back	Block2	2back/STIM_019.jpg	99
910.926	0.412	411.6	2back	Block2	2back/STIM_019.jpg	100
915.226	0.732	731.7	2back	Block2	2back/STIM_019.jpg	99
919.138	0.702	701.5	2back	Block2	2back/STIM_020.jpg	99
922.955	0.565	565.4	2back	Block2	2back/STIM_020.jpg	99
927.422	0.562	562.5	2back	Block2	2back/STIM_020.jpg	100
930.872	0.865	865.4	2back	Block2	2back/STIM_021.jpg	100
934.875	0.962	962.2	2back	Block2	2back/STIM_021.jpg	99
939.312	0.878	877.5	2back	Block2	2back/STIM_021.jpg	100
943.639	0.868	868.0	2back	Block2	2back/STIM_022.jpg	99
948.416	0.817	816.6	2back	Block2	2back/STIM_022.jpg	100
953.115	0.523	523.3	2back	Block2	2back/STIM_022.jpg	99
957.618	0.933	932.7	2back	Block2	2back/STIM_023.jpg	100
961.292	0.805	804.7	2back	Block2	2back/STIM_023.jpg	99
964.455	0.649	649.2	2back	Block2	2back/STIM_023.jpg	99
968.411	0.933	933.4	2back	Block2	2back/STIM_024.jpg	99
972.073	0.892	891.5	2back	Block2	2back/STIM_024.jpg	99
976.256	0.908	907.8	2back	Block2	2back/STIM_024.jpg	99
980.646	0.715	715.3	2back	Block2	2back/STIM_025.jpg	99
984.06	0.607	607.3	2back	Block2	2back/STIM_025.jpg	100
988.677	0.587	586.9	2back	Block2	2back/STIM_025.jpg	99
992.866	0.791	791.4	2back	Block2	2back/STIM_026.jpg	100
997.114	0.578	577.8	2back	Block2	2back/STIM_026.jpg	99
1000.928	0.757	757.0	2back	Block2	2back/STIM_026.jpg	99
1003.784	0.497	497.3	2back	Block2	2back/STIM_027.jpg	100
1008.025	0.744	744.1	2back	Block2	2back/STIM_027.jpg	99
1012.431	0.684	684.1	2back	Block2	2back/STIM_027.jpg	99
1016.346	0.635	635.1	2back	Block2	2back/STIM_028.jpg	100
1020.321	0.734	734.3	2back	Block2	2back/STIM_028.jpg	99
1024.827	0.717	717.0	2back	Block2	2back/STIM_028.jpg	99
1029.379	0.997	996.9	2back	Block2	2back/STIM_029.jpg	100
1034.206	0.791	791.3	2back	Block2	2back/STIM_029.jpg	100
1037.835	0.942	941.9	2back	Block2	2back/STIM_029.jpg	99
1041.071	0.93	930.0	2back	Block2	2back/STIM_030.jpg	100
1045.125	0.789	788.6	2back	Block2	2back/STIM_030.jpg	100
1049.636	0.611	611.2	2back	Block2	2back/STIM_030.jpg	100
1052.436	1.03	1030.2	2back	Block2	2back/STIM_031.jpg	100
1056.25	0.737	736.6	2back	Block2	2back/STIM_031.jpg	100
1060.195	0.567	567.4	2back	Block2	2back/STIM_031.jpg	99
1063.93	0.553	553.1	2back	Block2	2back/STIM_032.jpg	99
1067.768	0.847	847.0	2back	Block2	2back/STIM_032.jpg	99
1072.266	0.501	500.7	2back	Block2	2back/STIM_032.jpg	100
1075.683	0.606	605.6	2back	Block2	2back/STIM_033.jpg	99
1079.544	0.936	935.7	2back	Block2	2back/STIM_033.jpg	100
1082.844	0.591	591.2	2back	Block2	2back/STIM_033.jpg	99
1086.761	0.8	800.1	2back	Block2	2back/STIM_034.jpg	99
1090.55	0.608	608.2	2back	Block2	2back/STIM_034.jpg	100
1095.016	0.811	810.9	2back	Block2	2back/STIM_034.jpg	99
1099.09	0.978	977.5	2back	Block2	2back/STIM_035.jpg	99
1103.846	0.785	785.1	2back	Block2	2back/STIM_035.jpg	100
1108.493	0.643	642.6	2back	Block2	2back/STIM_035.jpg	100
1112.791	0.927	926.8	2back	Block2	2back/STIM_036.jpg	100
1117.586	0.461	460.9	2back	Block2	2back/STIM_036.jpg	100
1121.695	0.605	604.7	2back	Block2	2back/STIM_036.jpg	100
1124.984	1.05	1050.5	2back	Block2	2back/STIM_037.jpg	100
1128.58	0.594	594.4	2back	Block2	2back/STIM_037.jpg	99
1131.757	0.7	699.9	2back	Block2	2back/STIM_037.jpg	100
1136.523	0.594	593.9	2back	Block2	2back/STIM_038.jpg	99
1139.9	0.668	667.8	2back	Block2	2back/STIM_038.jpg	100
1143.548	0.415	414.8	2back	Block2	2back/STIM_038.jpg	99
1146.182	0.918	918.0	2back	Block2	2back/STIM_039.jpg	99
1149.894	0.536	535.8	2back	Block2	2back/STIM_039.jpg	100
1152.997	0.589	589.4	2back	Block2	2back/STIM_039.jpg	100
1156.135	0.585	584.8	0back	Block2	0back/STIM_000.jpg	99
1158.925	0.592	591.5	0back	Block2	0back/STIM_000.jpg	99
1163.053	0.242	242.1	0back	Block2	0back/STIM_000.jpg	100
1166.749	0.47	470.1	0back	Block2	0back/STIM_001.jpg	100
1170.107	0.744	744.1	0back	Block2	0back/STIM_001.jpg	100
1174.19	0.54	540.3	0back	Block2	0back/STIM_001.jpg	99
1177.696	0.558	558.2	0back	Block2	0back/STIM_002.jpg	100
1181.567	0.518	518.3	0back	Block2	0back/STIM_002.jpg	100
1184.176	0.626	626.2	0back	Block2	0back/STIM_002.jpg	100
1188.241	0.572	571.9	0back	Block2	0back/STIM_003.jpg	100
1192.117	0.55	550.0	0back	Block2	0back/STIM_003.jpg	99
1195.899	0.41	410.0	0back	Block2	0back/STIM_003.jpg	99
1198.47	0.517	517.3	0back	Block2	0back/STIM_004.jpg	100
1201.205	0.562	562.1	0back	Block2	0back/STIM_004.jpg	100
1205.688	0.421	420.6	0back	Block2	0back/STIM_004.jpg	99
1209.149	0.501	501.4	0back	Block2	0back/STIM_005.jpg	99
1212.339	0.595	594.6	0back	Block2	0back/STIM_005.jpg	99
1216.28	0.691	691.2	0back	Block2	0back/STIM_005.jpg	99
1220.78	0.436	435.9	0back	Block2	0back/STIM_006.jpg	100
1225.165	0.643	643.1	0back	Block2	0back/STIM_006.jpg	99
1228.742	0.631	630.9	0back	Block2	0back/STIM_006.jpg	100
1231.48	0.569	569.3	0back	Block2	0back/STIM_007.jpg	99
1234.474	0.373	372.8	0back	Block2	0back/STIM_007.jpg	100
1237.758	0.528	527.9	0back	Block2	0back/STIM_007.jpg	99
1242.147	0.728	727.5	0back	Block2	0back/STIM_008.jpg	99
1245.469	0.413	413.3	0back	Block2	0back/STIM_008.jpg	99
1248.208	0.622	622.3	0back	Block2	0back/STIM_008.jpg	100
1251.545	0.702	701.7	0back	Block2	0back/STIM_009.jpg	99
1254.651	0.587	586.9	0back	Block2	0back/STIM_009.jpg	100
1257.704	0.628	628.1	0back	Block2	0back/STIM_009.jpg	99
1261.127	0.716	716.0	0back	Block2	0back/STIM_010.jpg	100
1264.181	0.715	714.6	0back	Block2	0back/STIM_010.jpg	99
1267.385	0.503	503.0	0back	Block2	0back/STIM_010.jpg	99
1271.047	0.786	786.1	0back	Block2	0back/STIM_011.jpg	99
1275.602	0.584	583.9	0back	Block2	0back/STIM_011.jpg	99
1279.936	0.372	372.0	0back	Block2	0back/STIM_011.jpg	100
1284.189	0.554	553.7	0back	Block2	0back/STIM_012.jpg	99
1287.854	0.486	486.5	0back	Block2	0back/STIM_012.jpg	100
1291.968	0.571	570.6	0back	Block2	0back/STIM_012.jpg	100
1294.619	0.658	657.7	0back	Block2	0back/STIM_013.jpg	100
1297.53	0.61	610.2	0back	Block2	0back/STIM_013.jpg	100
1300.627	0.39	390.1	0back	Block2	0back/STIM_013.jpg	99
1303.939	0.563	563.2	0back	Block2	0back/STIM_014.jpg	100
1308.458	0.54	540.5	0back	Block2	0back/STIM_014.jpg	100
1312.055	0.371	371.0	0back	Block2	0back/STIM_014.jpg	99
1315.871	0.626	625.7	0back	Block2	0back/STIM_015.jpg	99
1320.512	0.5	500.3	0back	Block2	0back/STIM_015.jpg	100
1323.778	0.652	652.0	0back	Block2	0back/STIM_015.jpg	99
1327.748	0.35	349.5	0back	Block2	0back/STIM_016.jpg	100
1331.808	0.487	486.6	0back	Block2	0back/STIM_016.jpg	100
1334.555	0.704	703.9	0back	Block2	0back/STIM_016.jpg	99
1338.033	0.634	634.3	0back	Block2	0back/STIM_017.jpg	100
1342.666	0.418	418.0	0back	Block2	0back/STIM_017.jpg	99
1345.512	0.385	385.4	0back	Block2	0back/STIM_017.jpg	100
1349.112	0.536	535.8	0back	Block2	0back/STIM_018.jpg	99
1353.154	0.554	553.9	0back	Block2	0back/STIM_018.jpg	100
1357.184	0.507	506.7	0back	Block2	0back/STIM_018.jpg	100
1361.257	0.598	598.0	0back	Block2	0back/STIM_019.jpg	100
1364.989	0.377	377.1	0back	Block2	0back/STIM_019.jpg	99
1368.107	0.586	586.0	0back	Block2	0back/STIM_019.jpg	100
1371.835	0.579	578.7	2back	Block3	2back/STIM_000.jpg	99
1375.208	0.773	773.3	2back	Block3	2back/STIM_000.jpg	100
1379.819	0.75	749.5	2back	Block3	2back/STIM_000.jpg	99
1383.46	0.761	760.8	2back	Block3	2back/STIM_001.jpg	100
1386.786	0.794	794.1	2back	Block3	2back/STIM_001.jpg	99
1390.719	0.409	409.0	2back	Block3	2back/STIM_001.jpg	100
1393.584	0.611	611.4	2back	Block3	2back/STIM_002.jpg	100
1397.204	0.567	566.7	2back	Block3	2back/STIM_002.jpg	99
1400.801	0.785	785.3	2back	Block3	2back/STIM_002.jpg	100
1403.816	0.47	469.6	2back	Block3	2back/STIM_003.jpg	99
1407.601	0.685	684.8	2back	Block3	2back/STIM_003.jpg	100
1410.403	0.869	868.6	2back	Block3	2back/STIM_003.jpg	99
1415.106	0.748	748.2	2back	Block3	2back/STIM_004.jpg	99
1419.005	0.758	758.2	2back	Block3	2back/STIM_004.jpg	100
1422.314	0.404	403.9	2back	Block3	2back/STIM_004.jpg	99
1425.639	0.504	503.8	2back	Block3	2back/STIM_005.jpg	99
1429.61	0.701	700.6	2back	Block3	2back/STIM_005.jpg	99
1434.051	0.884	883.7	2back	Block3	2back/STIM_005.jpg	100
1438.838	0.599	598.6	2back	Block3	2back/STIM_006.jpg	99
1441.996	0.71	710.3	2back	Block3	2back/STIM_006.jpg	99
1445.753	0.482	482.2	2back	Block3	2back/STIM_006.jpg	99
1449.007	0.509	509.5	2back	Block3	2back/STIM_007.jpg	99
1452.769	0.447	447.3	2back	Block3	2back/STIM_007.jpg	99
1455.738	0.592	591.8	2back	Block3	2back/STIM_007.jpg	99
1458.624	0.573	572.9	2back	Block3	2back/STIM_008.jpg	99
1461.624	0.415	414.9	2back	Block3	2back/STIM_008.jpg	99
1466.001	0.883	883.0	2back	Block3	2back/STIM_008.jpg	99
1469.742	0.815	814.9	2back	Block3	2back/STIM_009.jpg	100
1473.507	0.443	443.2	2back	Block3	2back/STIM_009.jpg	99
1476.682	0.37	370.2	2back	Block3	2back/STIM_009.jpg	100
1481.037	0.636	635.5	2back	Block3	2back/STIM_010.jpg	99
1484.177	0.593	593.4	2back	Block3	2back/STIM_010.jpg	100
1488.757	0.624	624.0	2back	Block3	2back/STIM_010.jpg	99
1492.583	0.919	919.1	2back	Block3	2back/STIM_011.jpg	100
1497.147	0.431	430.8	2back	Block3	2back/STIM_011.jpg	99
1500.366	0.47	470.2	2back	Block3	2back/STIM_011.jpg	99
1504.17	0.576	576.3	2back	Block3	2back/STIM_012.jpg	99
1508.075	0.801	801.0	2back	Block3	2back/STIM_012.jpg	100
1511.822	0.571	570.8	2back	Block3	2back/STIM_012.jpg	99
1516.375	0.436	435.7	2back	Block3	2back/STIM_013.jpg	99
1519.849	0.791	790.6	2back	Block3	2back/STIM_013.jpg	99
1523.462	0.749	748.9	2back	Block3	2back/STIM_013.jpg	99
1528.177	0.751	751.4	2back	Block3	2back/STIM_014.jpg	99
1532.441	0.568	568.1	2back	Block3	2back/STIM_014.jpg	99
1536.14	0.546	546.2	2back	Block3	2back/STIM_014.jpg	100
1539.72	0.95	950.0	2back	Block3	2back/STIM_015.jpg	100
1542.949	0.646	646.2	2back	Block3	2back/STIM_015.jpg	100
1546.299	0.566	566.1	2back	Block3	2back/STIM_015.jpg	100
1549.789	0.741	741.3	2back	Block3	2back/STIM_016.jpg	99
1554.095	0.875	875.1	2back	Block3	2back/STIM_016.jpg	99
1557.912	0.47	469.7	2back	Block3	2back/STIM_016.jpg	100
1561.712	0.75	750.4	2back	Block3	2back/STIM_017.jpg	100
1565.984	0.848	848.3	2back	Block3	2back/STIM_017.jpg	100
1570.812	0.742	741.5	2back	Block3	2back/STIM_017.jpg	100
1574.662	0.742	741.7	2back	Block3	2back/STIM_018.jpg	100
1579.279	0.652	652.3	2back	Block3	2back/STIM_018.jpg	100
1582.778	0.583	583.3	2back	Block3	2back/STIM_018.jpg	100
1586.731	0.485	485.4	2back	Block3	2back/STIM_019.jpg	99
1590.773	0.609	609.1	2back	Block3	2back/STIM_019.jpg	99
1595.073	0.458	457.5	2back	Block3	2back/STIM_019.jpg	100
1597.704	0.698	698.5	2back	Block3	2back/STIM_020.jpg	99
1600.754	0.369	368.8	2back	Block3	2back/STIM_020.jpg	100
1603.72	0.402	402.4	2back	Block3	2back/STIM_020.jpg	100
1606.315	0.83	829.6	2back	Block3	2back/STIM_021.jpg	100
1610.62	0.575	574.7	2back	Block3	2back/STIM_021.jpg	100
1614.841	0.838	838.4	2back	Block3	2back/STIM_021.jpg	99
1618.915	0.426	426.4	2back	Block3	2back/STIM_022.jpg	100
1622.593	0.712	712.5	2back	Block3	2back/STIM_022.jpg	100
1625.597	0.546	546.4	2back	Block3	2back/STIM_022.jpg	100
1630.096	0.469	468.6	2back	Block3	2back/STIM_023.jpg	100
1633.717	0.663	662.9	2back	Block3	2back/STIM_023.jpg	99
1637.951	0.684	683.6	2back	Block3	2back/STIM_023.jpg	99
1640.846	0.67	669.7	2back	Block3	2back/STIM_024.jpg	100
1645.344	0.881	881.0	2back	Block3	2back/STIM_024.jpg	99
1649.016	0.482	482.4	2back	Block3	2back/STIM_024.jpg	99
1652.194	0.368	368.1	2back	Block3	2back/STIM_025.jpg	99
1655.51	0.49	490.0	2back	Block3	2back/STIM_025.jpg	99
1658.575	0.853	852.7	2back	Block3	2back/STIM_025.jpg	100
1662.735	0.447	447.0	2back	Block3	2back/STIM_026.jpg	100
1667.221	0.737	737.0	2back	Block3	2back/STIM_026.jpg	99
1671.807	0.681	680.6	2back	Block3	2back/STIM_026.jpg	100
1675.096	0.692	691.5	2back	Block3	2back/STIM_027.jpg	99
1679.389	0.861	861.3	2back	Block3	2back/STIM_027.jpg	99
1683.544	0.585	584.9	2back	Block3	2back/STIM_027.jpg	100
1687.12	0.871	870.9	2back	Block3	2back/STIM_028.jpg	99
1690.583	0.768	767.8	2back	Block3	2back/STIM_028.jpg	99
1694.397	0.492	491.5	2back	Block3	2back/STIM_028.jpg	99
1697.7	0.494	493.5	2back	Block3	2back/STIM_029.jpg	100
1701.07	0.782	782.1	2back	Block3	2back/STIM_029.jpg	99
1704.915	0.443	443.1	2back	Block3	2back/STIM_029.jpg	100
1709.216	0.454	453.6	2back	Block3	2back/STIM_030.jpg	99
1712.472	0.503	503.2	2back	Block3	2back/STIM_030.jpg	100
1716.38	0.61	610.5	2back	Block3	2back/STIM_030.jpg	100
1720.681	0.76	760.2	2back	Block3	2back/STIM_031.jpg	99
1723.631	0.742	742.5	2back	Block3	2back/STIM_031.jpg	100
1727.966	0.664	664.5	2back	Block3	2back/STIM_031.jpg	100
1730.816	0.722	722.2	2back	Block3	2back/STIM_032.jpg	99
1734.961	0.514	514.5	2back	Block3	2back/STIM_032.jpg	100
1739.29	0.866	866.1	2back	Block3	2back/STIM_032.jpg	99
1742.85	0.945	945.1	2back	Block3	2back/STIM_033.jpg	99
1746.51	0.451	451.0	2back	Block3	2back/STIM_033.jpg	100
1750.262	0.781	780.9	2back	Block3	2back/STIM_033.jpg	100
1753.599	0.49	489.9	2back	Block3	2back/STIM_034.jpg	99
1757.516	0.396	396.5	2back	Block3	2back/STIM_034.jpg	100
1760.296	0.646	645.5	2back	Block3	2back/STIM_034.jpg	99
1763.755	0.767	767.3	2back	Block3	2back/STIM_035.jpg	100
1766.896	0.558	557.9	2back	Block3	2back/STIM_035.jpg	100
1770.688	0.576	576.2	2back	Block3	2back/STIM_035.jpg	99
1774.711	0.624	623.9	2back	Block3	2back/STIM_036.jpg	100
1777.579	0.752	752.3	2back	Block3	2back/STIM_036.jpg	99
1781.519	0.555	555.2	2back	Block3	2back/STIM_036.jpg	100
1784.9	0.705	705.3	2back	Block3	2back/STIM_037.jpg	100
1789.268	0.853	852.7	2back	Block3	2back/STIM_037.jpg	99
1793.859	0.494	493.7	2back	Block3	2back/STIM_037.jpg	99
1797.251	0.691	691.1	2back	Block3	2back/STIM_038.jpg	99
1801.287	0.676	675.6	2back	Block3	2back/STIM_038.jpg	100
1804.805	0.438	438.1	2back	Block3	2back/STIM_038.jpg	99
1809.098	0.676	675.5	2back	Block3	2back/STIM_039.jpg	100
1813.644	0.705	704.8	2back	Block3	2back/STIM_039.jpg	100
1816.59	0.643	642.7	2back	Block3	2back/STIM_039.jpg	100
1821.182	0.724	724.0	0back	Block3	0back/STIM_000.jpg	100
1825.847	0.402	401.6	0back	Block3	0back/STIM_000.jpg	99
1829.961	0.422	421.5	0back	Block3	0back/STIM_000.jpg	100
1833.419	0.418	418.2	0back	Block3	0back/STIM_001.jpg	100
1836.342	0.365	364.6	0back	Block3	0back/STIM_001.jpg	100
1839.883	0.546	546.0	0back	Block3	0back/STIM_001.jpg	99
1843.354	0.516	515.9	0back	Block3	0back/STIM_002.jpg	99
1847.409	0.638	637.9	0back	Block3	0back/STIM_002.jpg	100
1851.654	0.526	525.9	0back	Block3	0back/STIM_002.jpg	99
1854.576	0.476	475.9	0back	Block3	0back/STIM_003.jpg	99
1858.54	0.45	449.7	0back	Block3	0back/STIM_003.jpg	100
1862.852	0.724	724.5	0back	Block3	0back/STIM_003.jpg	99
1866.42	0.56	560.2	0back	Block3	0back/STIM_004.jpg	99
1870.643	0.459	459.4	0back	Block3	0back/STIM_004.jpg	99
1873.443	0.634	634.1	0back	Block3	0back/STIM_004.jpg	100
1878.003	0.632	632.0	0back	Block3	0back/STIM_005.jpg	99
1881.635	0.508	507.7	0back	Block3	0back/STIM_005.jpg	99
1885.825	0.509	508.8	0back	Block3	0back/STIM_005.jpg	100
1889.15	0.411	411.4	0back	Block3	0back/STIM_006.jpg	100
1893.476	0.491	491.3	0back	Block3	0back/STIM_006.jpg	100
1896.851	0.668	668.2	0back	Block3	0back/STIM_006.jpg	99
1901.081	0.378	378.3	0back	Block3	0back/STIM_007.jpg	99
1903.9	0.499	499.2	0back	Block3	0back/STIM_007.jpg	100
1907.338	0.433	432.6	0back	Block3	0back/STIM_007.jpg	100
1910.411	0.6	599.5	0back	Block3	0back/STIM_008.jpg	99
1913.103	0.626	625.6	0back	Block3	0back/STIM_008.jpg	100
1917.089	0.589	589.3	0back	Block3	0back/STIM_008.jpg	99
1920.514	0.368	368.1	0back	Block3	0back/STIM_009.jpg	100
1924.069	0.666	665.9	0back	Block3	0back/STIM_009.jpg	99
1927.545	0.365	364.6	0back	Block3	0back/STIM_009.jpg	100
1931.448	0.525	524.8	0back	Block3	0back/STIM_010.jpg	100
1935.452	0.589	588.8	0back	Block3	0back/STIM_010.jpg	100
1939.333	0.408	408.0	0back	Block3	0back/STIM_010.jpg	100
1942.819	0.456	456.3	0back	Block3	0back/STIM_011.jpg	99
1946.804	0.807	806.9	0back	Block3	0back/STIM_011.jpg	100
1950.935	0.562	562.2	0back	Block3	0back/STIM_011.jpg	100
1954.728	0.759	759.2	0back	Block3	0back/STIM_012.jpg	100
1959.131	0.526	526.1	0back	Block3	0back/STIM_012.jpg	99
1962.469	0.541	540.7	0back	Block3	0back/STIM_012.jpg	99
1966.906	0.649	649.1	0back	Block3	0back/STIM_013.jpg	99
1971.273	0.666	666.0	0back	Block3	0back/STIM_013.jpg	99
1975.303	0.6	599.6	0back	Block3	0back/STIM_013.jpg	100
1978.463	0.77	769.9	0back	Block3	0back/STIM_014.jpg	100
1982.837	0.562	561.8	0back	Block3	0back/STIM_014.jpg	100
1987.418	0.298	298.4	0back	Block3	0back/STIM_014.jpg	99
1991.229	0.547	546.8	0back	Block3	0back/STIM_015.jpg	100
1993.932	0.471	470.8	0back	Block3	0back/STIM_015.jpg	99
1998.132	0.418	417.6	0back	Block3	0back/STIM_015.jpg	100
2000.597	0.559	558.8	0back	Block3	0back/STIM_016.jpg	100
2004.526	0.641	641.3	0back	Block3	0back/STIM_016.jpg	100
2007.869	0.611	611.2	0back	Block3	0back/STIM_016.jpg	99
2011.387	0.287	286.6	0back	Block3	0back/STIM_017.jpg	99
2014.262	0.617	617.4	0back	Block3	0back/STIM_017.jpg	100
2018.536	0.368	368.5	0back	Block3	0back/STIM_017.jpg	99
2021.882	0.546	546.4	0back	Block3	0back/STIM_018.jpg	100
2025.132	0.575	574.9	0back	Block3	0back/STIM_018.jpg	100
2028.172	0.357	357.2	0back	Block3	0back/STIM_018.jpg	100
2030.746	0.281	281.4	0back	Block3	0back/STIM_019.jpg	99
2033.823	0.437	437.4	0back	Block3	0back/STIM_019.jpg	99
2037.015	0.422	422.4	0back	Block3	0back/STIM_019.jpg	100
2040.897	0.829	829.3	2back	Block4	2back/STIM_000.jpg	100
2045.519	0.739	738.6	2back	Block4	2back/STIM_000.jpg	99
2048.497	0.644	644.2	2back	Block4	2back/STIM_000.jpg	100
2052.113	0.429	429.3	2back	Block4	2back/STIM_001.jpg	100
2055.666	0.644	643.6	2back	Block4	2back/STIM_001.jpg	99
2059.096	0.905	904.6	2back	Block4	2back/STIM_001.jpg	100
2062.511	0.43	430.4	2back	Block4	2back/STIM_002.jpg	100
2066.052	0.74	739.9	2back	Block4	2back/STIM_002.jpg	99
2068.91	0.568	568.2	2back	Block4	2back/STIM_002.jpg	100
2072.279	0.55	550.5	2back	Block4	2back/STIM_003.jpg	100
2076.14	0.843	842.6	2back	Block4	2back/STIM_003.jpg	99
2080.865	0.698	698.4	2back	Block4	2back/STIM_003.jpg	100
2085.335	0.548	547.5	2back	Block4	2back/STIM_004.jpg	99
2087.899	0.747	747.3	2back	Block4	2back/STIM_004.jpg	99
2092.018	0.802	802.2	2back	Block4	2back/STIM_004.jpg	100
2095.302	0.722	721.6	2back	Block4	2back/STIM_005.jpg	100
2099.776	0.695	694.9	2back	Block4	2back/STIM_005.jpg	99
2102.965	0.668	667.6	2back	Block4	2back/STIM_005.jpg	99
2106.174	0.783	783.3	2back	Block4	2back/STIM_006.jpg	99
2109.928	0.529	528.9	2back	Block4	2back/STIM_006.jpg	99
2112.891	0.509	509.0	2back	Block4	2back/STIM_006.jpg	99
2116.374	0.607	606.7	2back	Block4	2back/STIM_007.jpg	99
2119.706	0.566	566.1	2back	Block4	2back/STIM_007.jpg	100
2124.267	0.328	327.6	2back	Block4	2back/STIM_007.jpg	100
2128.504	0.763	762.8	2back	Block4	2back/STIM_008.jpg	99
2131.395	0.842	841.7	2back	Block4	2back/STIM_008.jpg	100
2134.621	0.775	775.4	2back	Block4	2back/STIM_008.jpg	99
2137.994	0.872	872.0	2back	Block4	2back/STIM_009.jpg	100
2141.333	0.85	850.4	2back	Block4	2back/STIM_009.jpg	100
2144.841	0.684	684.0	2back	Block4	2back/STIM_009.jpg	99
2148.99	0.643	642.9	2back	Block4	2back/STIM_010.jpg	100
2152.45	0.756	755.9	2back	Block4	2back/STIM_010.jpg	100
2155.67	0.375	374.8	2back	Block4	2back/STIM_010.jpg	99
2158.199	0.87	870.1	2back	Block4	2back/STIM_011.jpg	99
2162.357	0.476	476.2	2back	Block4	2back/STIM_011.jpg	100
2166.445	0.694	694.4	2back	Block4	2back/STIM_011.jpg	99
2170.183	0.78	780.1	2back	Block4	2back/STIM_012.jpg	100
2173.469	0.73	729.8	2back	Block4	2back/STIM_012.jpg	100
2177.992	0.648	647.9	2back	Block4	2back/STIM_012.jpg	99
2181.953	0.474	474.2	2back	Block4	2back/STIM_013.jpg	99
2185.655	0.694	693.7	2back	Block4	2back/STIM_013.jpg	99
2188.84	0.73	730.5	2back	Block4	2back/STIM_013.jpg	99
2192.014	0.894	893.8	2back	Block4	2back/STIM_014.jpg	99
2194.972	0.743	743.3	2back	Block4	2back/STIM_014.jpg	99
2198.511	0.876	876.3	2back	Block4	2back/STIM_014.jpg	100
2203.107	0.492	491.6	2back	Block4	2back/STIM_015.jpg	99
2205.845	0.718	718.4	2back	Block4	2back/STIM_015.jpg	99
2210.525	0.762	761.6	2back	Block4	2back/STIM_015.jpg	100
2214.326	0.301	301.1	2back	Block4	2back/STIM_016.jpg	99
2217.993	0.564	564.4	2back	Block4	2back/STIM_016.jpg	100
2221.184	0.667	667.3	2back	Block4	2back/STIM_016.jpg	99
2224.504	0.61	609.7	2back	Block4	2back/STIM_017.jpg	99
2227.863	0.789	788.8	2back	Block4	2back/STIM_017.jpg	100
2231.003	0.564	564.1	2back	Block4	2back/STIM_017.jpg	99
2235.318	0.519	518.6	2back	Block4	2back/STIM_018.jpg	100
2239.532	0.555	555.4	2back	Block4	2back/STIM_018.jpg	100
2243.427	0.885	885.2	2back	Block4	2back/STIM_018.jpg	100
2247.9	0.847	847.1	2back	Block4	2back/STIM_019.jpg	100
2252.49	0.826	826.2	2back	Block4	2back/STIM_019.jpg	100
2255.58	0.369	369.1	2back	Block4	2back/STIM_019.jpg	100
2258.098	0.392	391.7	2back	Block4	2back/STIM_020.jpg	99
2262.442	0.679	679.1	2back	Block4	2back/STIM_020.jpg	99
2265.76	0.534	533.7	2back	Block4	2back/STIM_020.jpg	100
2268.872	0.381	380.8	2back	Block4	2back/STIM_021.jpg	99
2271.985	0.61	610.4	2back	Block4	2back/STIM_021.jpg	99
2275.992	0.513	512.6	2back	Block4	2back/STIM_021.jpg	100
2280.586	0.366	365.7	2back	Block4	2back/STIM_022.jpg	99
2284.511	0.483	483.4	2back	Block4	2back/STIM_022.jpg	100
2288.496	0.753	753.3	2back	Block4	2back/STIM_022.jpg	100
2292.113	0.71	709.5	2back	Block4	2back/STIM_023.jpg	100
2296.162	0.71	709.8	2back	Block4	2back/STIM_023.jpg	99
2300.501	0.428	428.4	2back	Block4	2back/STIM_023.jpg	100
2303.513	0.666	666.1	2back	Block4	2back/STIM_024.jpg	100
2306.458	0.538	538.3	2back	Block4	2back/STIM_024.jpg	99
2309.371	0.964	963.6	2back	Block4	2back/STIM_024.jpg	100
2313.039	0.942	941.8	2back	Block4	2back/STIM_025.jpg	100
2317.099	0.566	566.3	2back	Block4	2back/STIM_025.jpg	100
2320.577	0.791	791.4	2back	Block4	2back/STIM_025.jpg	100
2324.24	0.682	682.5	2back	Block4	2back/STIM_026.jpg	99
2327.67	0.891	890.7	2back	Block4	2back/STIM_026.jpg	100
2332.258	0.463	463.3	2back	Block4	2back/STIM_026.jpg	99
2335.852	0.928	927.8	2back	Block4	2back/STIM_027.jpg	99
2339.635	0.661	660.8	2back	Block4	2back/STIM_027.jpg	100
2344.226	0.468	468.3	2back	Block4	2back/STIM_027.jpg	100
2347.27	0.43	430.5	2back	Block4	2back/STIM_028.jpg	100
2351.217	0.868	867.7	2back	Block4	2back/STIM_028.jpg	99
2354.558	0.808	807.6	2back	Block4	2back/STIM_028.jpg	99
2359.204	0.484	483.7	2back	Block4	2back/STIM_029.jpg	99
2361.96	0.83	829.7	2back	Block4	2back/STIM_029.jpg	99
2366.591	0.6	599.6	2back	Block4	2back/STIM_029.jpg	99
2369.451	0.723	722.6	2back	Block4	2back/STIM_030.jpg	100
2372.754	0.863	863.2	2back	Block4	2back/STIM_030.jpg	100
2375.851	0.663	663.3	2back	Block4	2back/STIM_030.jpg	99
2378.729	0.933	933.3	2back	Block4	2back/STIM_031.jpg	100
2382.885	0.685	685.4	2back	Block4	2back/STIM_031.jpg	100
2387.132	0.788	787.7	2back	Block4	2back/STIM_031.jpg	100
2391.857	0.832	832.0	2back	Block4	2back/STIM_032.jpg	99
2395.0	0.745	745.1	2back	Block4	2back/STIM_032.jpg	100
2399.687	0.73	730.4	2back	Block4	2back/STIM_032.jpg	99
2404.057	0.6	600.3	2back	Block4	2back/STIM_033.jpg	99
2406.816	0.841	840.8	2back	Block4	2back/STIM_033.jpg	99
2411.432	0.418	417.8	2back	Block4	2back/STIM_033.jpg	100
2415.452	0.893	893.0	2back	Block4	2back/STIM_034.jpg	99
2420.282	0.424	423.5	2back	Block4	2back/STIM_034.jpg	100
2423.609	0.613	613.4	2back	Block4	2back/STIM_034.jpg	99
2427.448	0.563	562.9	2back	Block4	2back/STIM_035.jpg	100
2430.657	0.399	398.7	2back	Block4	2back/STIM_035.jpg	99
2434.618	0.451	450.8	2back	Block4	2back/STIM_035.jpg	99
2438.325	0.622	621.5	2back	Block4	2back/STIM_036.jpg	99
2441.382	0.501	500.8	2back	Block4	2back/STIM_036.jpg	100
2445.54	0.535	535.0	2back	Block4	2back/STIM_036.jpg	99
2450.022	0.857	857.2	2back	Block4	2back/STIM_037.jpg	100
2454.735	0.588	588.4	2back	Block4	2back/STIM_037.jpg	100
2458.824	0.57	569.6	2back	Block4	2back/STIM_037.jpg	100
2462.13	0.75	750.3	2back	Block4	2back/STIM_038.jpg	99
2466.016	0.448	447.7	2back	Block4	2back/STIM_038.jpg	100
2469.051	0.916	915.6	2back	Block4	2back/STIM_038.jpg	99
2473.204	0.608	607.7	2back	Block4	2back/STIM_039.jpg	99
2477.177	0.553	552.7	2back	Block4	2back/STIM_039.jpg	100
2481.361	0.533	532.9	2back	Block4	2back/STIM_039.jpg	99
2484.204	0.625	624.7	0back	Block4	0back/STIM_000.jpg	100
2488.327	0.426	426.1	0back	Block4	0back/STIM_000.jpg	99
2490.98	0.679	678.9	0back	Block4	0back/STIM_000.jpg	100
2493.908	0.407	406.8	0back	Block4	0back/STIM_001.jpg	100
2498.086	0.418	417.9	0back	Block4	0back/STIM_001.jpg	99
2502.14	0.463	463.2	0back	Block4	0back/STIM_001.jpg	99
2505.788	0.396	396.5	0back	Block4	0back/STIM_002.jpg	100
2508.441	0.684	684.1	0back	Block4	0back/STIM_002.jpg	99
2512.779	0.582	581.8	0back	Block4	0back/STIM_002.jpg	100
2515.656	0.493	493.0	0back	Block4	0back/STIM_003.jpg	100
2519.748	0.513	512.9	0back	Block4	0back/STIM_003.jpg	100
2524.274	0.691	691.4	0back	Block4	0back/STIM_003.jpg	99
2527.045	0.64	640.3	0back	Block4	0back/STIM_004.jpg	100
2530.531	0.642	642.0	0back	Block4	0back/STIM_004.jpg	99
2534.79	0.414	414.3	0back	Block4	0back/STIM_004.jpg	100
2538.576	0.671	671.4	0back	Block4	0back/STIM_005.jpg	99
2541.747	0.68	679.6	0back	Block4	0back/STIM_005.jpg	99
2544.929	0.698	698.1	0back	Block4	0back/STIM_005.jpg	100
2547.863	0.498	498.5	0back	Block4	0back/STIM_006.jpg	99
2551.825	0.543	543.4	0back	Block4	0back/STIM_006.jpg	99
2555.632	0.621	621.3	0back	Block4	0back/STIM_006.jpg	100
2558.917	0.48	480.5	0back	Block4	0back/STIM_007.jpg	100
2563.431	0.374	373.8	0back	Block4	0back/STIM_007.jpg	99
2566.173	0.453	452.6	0back	Block4	0back/STIM_007.jpg	99
2568.844	0.677	676.7	0back	Block4	0back/STIM_008.jpg	100
2573.232	0.748	747.5	0back	Block4	0back/STIM_008.jpg	99
2577.857	0.65	649.8	0back	Block4	0back/STIM_008.jpg	100
2582.075	0.698	698.2	0back	Block4	0back/STIM_009.jpg	99
2585.977	0.421	421.4	0back	Block4	0back/STIM_009.jpg	99
2589.242	0.361	361.3	0back	Block4	0back/STIM_009.jpg	100
2593.588	0.407	406.9	0back	Block4	0back/STIM_010.jpg	100
2596.518	0.588	588.3	0back	Block4	0back/STIM_010.jpg	100
2599.709	0.471	470.6	0back	Block4	0back/STIM_010.jpg	100
2602.853	0.59	589.8	0back	Block4	0back/STIM_011.jpg	100
2606.677	0.579	579.1	0back	Block4	0back/STIM_011.jpg	99
2609.815	0.69	689.9	0back	Block4	0back/STIM_011.jpg	99
2614.517	0.651	651.2	0back	Block4	0back/STIM_012.jpg	100
2617.262	0.388	388.5	0back	Block4	0back/STIM_012.jpg	99
2619.769	0.359	358.7	0back	Block4	0back/STIM_012.jpg	100
2623.651	0.512	511.7	0back	Block4	0back/STIM_013.jpg	100
2628.094	0.615	615.4	0back	Block4	0back/STIM_013.jpg	99
2631.855	0.536	535.6	0back	Block4	0back/STIM_013.jpg	99
2635.013	0.506	506.4	0back	Block4	0back/STIM_014.jpg	99
2638.785	0.364	363.8	0back	Block4	0back/STIM_014.jpg	100
2641.965	0.316	316.2	0back	Block4	0back/STIM_014.jpg	99
2645.748	0.517	516.7	0back	Block4	0back/STIM_015.jpg	100
2649.966	0.41	409.6	0back	Block4	0back/STIM_015.jpg	100
2654.311	0.395	394.6	0back	Block4	0back/STIM_015.jpg	99
2657.657	0.756	756.5	0back	Block4	0back/STIM_016.jpg	99
2661.015	0.414	414.0	0back	Block4	0back/STIM_016.jpg	100
2665.265	0.611	610.7	0back	Block4	0back/STIM_016.jpg	100
2668.562	0.729	729.4	0back	Block4	0back/STIM_017.jpg	99
2671.894	0.455	455.3	0back	Block4	0back/STIM_017.jpg	99
2674.982	0.457	457.2	0back	Block4	0back/STIM_017.jpg	99
2678.111	0.773	773.2	0back	Block4	0back/STIM_018.jpg	99
2682.408	0.65	649.9	0back	Block4	0back/STIM_018.jpg	99
2685.847	0.586	585.6	0back	Block4	0back/STIM_018.jpg	99
2690.278	0.499	498.7	0back	Block4	0back/STIM_019.jpg	99
2694.716	0.642	641.6	0back	Block4	0back/STIM_019.jpg	99
2699.276	0.406	406.0	0back	Block4	0back/STIM_019.jpg	99
