onset	duration	response_time_ms	trial_type	learning_stage	stimulus	response_port
0.0	1.51	1510.3	study	Phase1	study/STIM_000.jpg	100
4.947	1.413	1413.0	study	Phase1	study/STIM_000.jpg	100
9.667	1.351	1350.6	study	Phase1	study/STIM_000.jpg	99
13.775	1.808	1807.8	study	Phase1	study/STIM_001.jpg	99
19.038	0.93	930.0	study	Phase1	study/STIM_001.jpg	100
22.307	1.39	1390.1	study	Phase1	study/STIM_001.jpg	100
27.381	1.718	1718.5	study	Phase1	study/STIM_002.jpg	100
31.293	1.658	1658.4	study	Phase1	study/STIM_002.jpg	99
35.838	1.18	1180.3	study	Phase1	study/STIM_002.jpg	100
40.138	1.18	1180.5	study	Phase1	study/STIM_003.jpg	99
44.432	0.956	955.9	study	Phase1	study/STIM_003.jpg	100
47.954	1.248	1248.2	study	Phase1	study/STIM_003.jpg	100
52.074	1.022	1022.3	study	Phase1	study/STIM_004.jpg	99
55.298	1.168	1168.2	study	Phase1	study/STIM_004.jpg	99
58.674	1.59	1590.3	study	Phase1	study/STIM_004.jpg	100
62.564	1.858	1858.2	study	Phase1	study/STIM_005.jpg	100
66.785	0.983	983.4	study	Phase1	study/STIM_005.jpg	100
70.813	0.834	834.3	study	Phase1	study/STIM_005.jpg	99
74.651	1.546	1546.1	study	Phase1	study/STIM_006.jpg	99
79.059	1.408	1408.3	study	Phase1	study/STIM_006.jpg	100
83.688	1.02	1019.5	study	Phase1	study/STIM_006.jpg	100
88.02	1.636	1636.2	study	Phase1	study/STIM_007.jpg	99
92.578	1.172	1171.5	study	Phase1	study/STIM_007.jpg	99
96.206	1.061	1061.1	study	Phase1	study/STIM_007.jpg	100
99.921	1.298	1297.5	study	Phase1	study/STIM_008.jpg	99
104.438	0.834	834.5	study	Phase1	study/STIM_008.jpg	100
108.223	1.407	1407.4	study	Phase1	study/STIM_008.jpg	100
111.632	1.338	1338.3	study	Phase1	study/STIM_009.jpg	99
116.36	1.011	1011.2	study	Phase1	study/STIM_009.jpg	99
120.594	1.455	1455.4	study	Phase1	study/STIM_009.jpg	99
125.841	1.352	1351.8	study	Phase1	study/STIM_010.jpg	100
129.541	0.897	897.1	study	Phase1	study/STIM_010.jpg	99
134.291	1.533	1533.4	study	Phase1	study/STIM_010.jpg	100
138.987	0.847	847.3	study	Phase1	study/STIM_011.jpg	99
142.301	0.798	798.2	study	Phase1	study/STIM_011.jpg	100
146.553	1.186	1186.0	study	Phase1	study/STIM_011.jpg	99
150.588	1.543	1542.6	study	Phase1	study/STIM_012.jpg	99
155.889	0.754	754.1	study	Phase1	study/STIM_012.jpg	100
159.066	1.184	1184.0	study	Phase1	study/STIM_012.jpg	99
162.464	1.925	1925.4	study	Phase1	study/STIM_013.jpg	99
167.019	1.317	1317.0	study	Phase1	study/STIM_013.jpg	99
171.498	1.492	1492.5	study	Phase1	study/STIM_013.jpg	99
176.359	0.875	875.0	study	Phase1	study/STIM_014.jpg	99
180.538	0.817	816.9	study	Phase1	study/STIM_014.jpg	99
183.492	1.105	1105.2	study	Phase1	study/STIM_014.jpg	100
188.542	1.09	1089.8	study	Phase1	study/STIM_015.jpg	99
192.425	0.903	902.7	study	Phase1	study/STIM_015.jpg	100
196.452	1.624	1623.6	study	Phase1	study/STIM_015.jpg	99
200.165	1.013	1013.3	study	Phase1	study/STIM_016.jpg	99
203.848	1.506	1505.5	study	Phase1	study/STIM_016.jpg	100
207.316	1.023	1023.0	study	Phase1	study/STIM_016.jpg	99
211.315	1.635	1634.9	study	Phase1	study/STIM_017.jpg	99
216.267	0.912	911.6	study	Phase1	study/STIM_017.jpg	99
220.761	0.85	850.4	study	Phase1	study/STIM_017.jpg	100
224.488	1.5	1500.5	study	Phase1	study/STIM_018.jpg	99
229.262	1.509	1509.0	study	Phase1	study/STIM_018.jpg	100
233.85	0.671	670.6	study	Phase1	study/STIM_018.jpg	99
237.575	1.608	1607.6	study	Phase1	study/STIM_019.jpg	99
242.578	1.242	1242.3	study	Phase1	study/STIM_019.jpg	100
246.69	0.706	705.7	study	Phase1	study/STIM_019.jpg	99
249.567	1.009	1009.3	study	Phase1	study/STIM_020.jpg	100
252.539	1.352	1351.8	study	Phase1	study/STIM_020.jpg	100
257.421	0.922	921.6	study	Phase1	study/STIM_020.jpg	100
261.736	1.146	1146.0	study	Phase1	study/STIM_021.jpg	100
265.196	1.34	1339.6	study	Phase1	study/STIM_021.jpg	99
269.317	1.553	1552.6	study	Phase1	study/STIM_021.jpg	100
274.21	0.997	997.3	study	Phase1	study/STIM_022.jpg	99
278.483	0.947	947.2	study	Phase1	study/STIM_022.jpg	99
281.376	0.804	804.1	study	Phase1	study/STIM_022.jpg	99
284.858	1.147	1146.8	study	Phase1	study/STIM_023.jpg	99
288.776	0.962	962.1	study	Phase1	study/STIM_023.jpg	100
291.98	1.335	1335.0	study	Phase1	study/STIM_023.jpg	100
297.044	1.254	1253.7	study	Phase1	study/STIM_024.jpg	100
302.164	1.245	1244.9	study	Phase1	study/STIM_024.jpg	100
306.127	1.405	1405.3	study	Phase1	study/STIM_024.jpg	99
310.663	1.255	1254.7	study	Phase1	study/STIM_025.jpg	99
315.564	1.147	1147.0	study	Phase1	study/STIM_025.jpg	99
319.858	1.607	1606.8	study	Phase1	study/STIM_025.jpg	100
324.039	1.865	1864.8	study	Phase1	study/STIM_026.jpg	100
329.768	1.015	1014.6	study	Phase1	study/STIM_026.jpg	99
332.862	1.437	1437.0	study	Phase1	study/STIM_026.jpg	99
337.583	1.648	1647.8	study	Phase1	study/STIM_027.jpg	99
341.269	1.108	1108.1	study	Phase1	study/STIM_027.jpg	99
345.662	0.978	977.8	study	Phase1	study/STIM_027.jpg	100
349.531	1.486	1486.3	study	Phase1	study/STIM_028.jpg	100
353.232	1.709	1708.7	study	Phase1	study/STIM_028.jpg	100
356.887	1.252	1252.1	study	Phase1	study/STIM_028.jpg	99
361.171	1.452	1452.5	study	Phase1	study/STIM_029.jpg	99
365.174	0.84	839.6	study	Phase1	study/STIM_029.jpg	100
369.505	0.962	962.4	study	Phase1	study/STIM_029.jpg	100
373.249	0.878	878.1	test	Phase1	test/STIM_000.jpg	99
376.568	0.78	779.7	test	Phase1	test/STIM_000.jpg	100
380.382	0.802	802.1	test	Phase1	test/STIM_000.jpg	100
384.839	1.072	1071.9	test	Phase1	test/STIM_001.jpg	100
389.632	0.957	956.6	test	Phase1	test/STIM_001.jpg	100
393.107	1.036	1036.5	test	Phase1	test/STIM_001.jpg	100
396.956	0.788	788.5	test	Phase1	test/STIM_002.jpg	100
400.22	0.782	782.5	test	Phase1	test/STIM_002.jpg	99
403.095	0.898	898.5	test	Phase1	test/STIM_002.jpg	99
407.364	1.175	1175.0	test	Phase1	test/STIM_003.jpg	100
412.403	1.208	1208.1	test	Phase1	test/STIM_003.jpg	99
416.597	1.012	1012.3	test	Phase1	test/STIM_003.jpg	100
420.21	0.847	846.7	test	Phase1	test/STIM_004.jpg	99
423.711	1.058	1057.9	test	Phase1	test/STIM_004.jpg	100
427.717	1.272	1271.7	test	Phase1	test/STIM_004.jpg	100
431.404	0.943	943.4	test	Phase1	test/STIM_005.jpg	100
436.13	1.323	1322.9	test	Phase1	test/STIM_005.jpg	100
440.126	1.311	1310.7	test	Phase1	test/STIM_005.jpg	100
443.685	0.802	802.3	test	Phase1	test/STIM_006.jpg	100
447.314	1.273	1272.7	test	Phase1	test/STIM_006.jpg	100
452.1	0.691	691.4	test	Phase1	test/STIM_006.jpg	100
455.997	0.872	871.7	test	Phase1	test/STIM_007.jpg	100
460.848	0.588	587.5	test	Phase1	test/STIM_007.jpg	100
464.765	1.15	1149.7	test	Phase1	test/STIM_007.jpg	100
468.924	1.153	1153.4	test	Phase1	test/STIM_008.jpg	99
472.073	1.13	1130.0	test	Phase1	test/STIM_008.jpg	99
475.939	0.928	928.1	test	Phase1	test/STIM_008.jpg	99
479.966	1.245	1245.3	test	Phase1	test/STIM_009.jpg	100
483.2	1.183	1183.0	test	Phase1	test/STIM_009.jpg	100
487.821	1.259	1259.0	test	Phase1	test/STIM_009.jpg	99
492.057	1.114	1114.2	test	Phase1	test/STIM_010.jpg	99
496.771	1.076	1075.6	test	Phase1	test/STIM_010.jpg	100
501.476	0.706	706.1	test	Phase1	test/STIM_010.jpg	100
505.804	1.198	1197.6	test	Phase1	test/STIM_011.jpg	99
510.002	0.655	654.8	test	Phase1	test/STIM_011.jpg	99
513.738	0.934	934.2	test	Phase1	test/STIM_011.jpg	100
517.957	0.66	660.0	test	Phase1	test/STIM_012.jpg	99
522.314	0.698	698.1	test	Phase1	test/STIM_012.jpg	99
526.255	1.192	1192.0	test	Phase1	test/STIM_012.jpg	100
531.404	0.852	852.1	test	Phase1	test/STIM_013.jpg	99
535.397	1.114	1114.1	test	Phase1	test/STIM_013.jpg	99
539.004	1.24	1240.0	test	Phase1	test/STIM_013.jpg	100
542.572	1.23	1229.6	test	Phase1	test/STIM_014.jpg	100
545.999	0.873	873.1	test	Phase1	test/STIM_014.jpg	99
550.236	0.931	931.1	test	Phase1	test/STIM_014.jpg	99
554.539	1.064	1063.5	test	Phase1	test/STIM_015.jpg	99
559.09	0.698	698.4	test	Phase1	test/STIM_015.jpg	100
562.276	1.269	1269.2	test	Phase1	test/STIM_015.jpg	100
566.026	0.921	921.3	test	Phase1	test/STIM_016.jpg	99
569.664	0.984	983.6	test	Phase1	test/STIM_016.jpg	100
573.533	1.203	1202.6	test	Phase1	test/STIM_016.jpg	100
578.63	0.764	763.6	test	Phase1	test/STIM_017.jpg	100
582.647	0.815	814.9	test	Phase1	test/STIM_017.jpg	99
587.247	1.038	1037.8	test	Phase1	test/STIM_017.jpg	100
591.777	0.619	619.1	test	Phase1	test/STIM_018.jpg	100
594.626	0.688	687.8	test	Phase1	test/STIM_018.jpg	100
599.153	0.736	736.1	test	Phase1	test/STIM_018.jpg	99
602.237	0.886	886.3	test	Phase1	test/STIM_019.jpg	100
606.006	1.202	1202.1	test	Phase1	test/STIM_019.jpg	99
609.73	0.565	564.6	test	Phase1	test/STIM_019.jpg	100
614.305	0.915	915.4	test	Phase1	test/STIM_020.jpg	100
617.496	1.025	1025.2	test	Phase1	test/STIM_020.jpg	100
622.418	0.672	672.4	test	Phase1	test/STIM_020.jpg	99
626.38	0.98	979.9	test	Phase1	test/STIM_021.jpg	99
631.169	0.994	993.5	test	Phase1	test/STIM_021.jpg	100
634.211	0.663	662.9	test	Phase1	test/STIM_021.jpg	99
637.152	1.166	1165.7	test	Phase1	test/STIM_022.jpg	100
641.081	1.148	1147.9	test	Phase1	test/STIM_022.jpg	99
646.007	0.761	761.2	test	Phase1	test/STIM_022.jpg	100
649.471	1.1	1100.3	test	Phase1	test/STIM_023.jpg	100
653.488	0.762	762.2	test	Phase1	test/STIM_023.jpg	100
657.648	0.809	808.7	test	Phase1	test/STIM_023.jpg	99
661.403	0.674	673.8	test	Phase1	test/STIM_024.jpg	100
665.806	1.35	1350.2	test	Phase1	test/STIM_024.jpg	100
669.208	0.754	753.9	test	Phase1	test/STIM_024.jpg	100
673.211	0.832	831.5	test	Phase1	test/STIM_025.jpg	99
677.633	0.88	880.5	test	Phase1	test/STIM_025.jpg	100
681.113	1.139	1138.6	test	Phase1	test/STIM_025.jpg	100
685.311	1.137	1136.6	test	Phase1	test/STIM_026.jpg	99
689.262	0.826	825.6	test	Phase1	test/STIM_026.jpg	100
693.86	1.059	1059.4	test	Phase1	test/STIM_026.jpg	99
697.166	1.207	1207.0	test	Phase1	test/STIM_027.jpg	99
700.686	1.16	1159.7	test	Phase1	test/STIM_027.jpg	99
704.407	0.971	971.4	test	Phase1	test/STIM_027.jpg	100
707.515	0.828	828.5	test	Phase1	test/STIM_028.jpg	99
712.052	1.092	1092.3	test	Phase1	test/STIM_028.jpg	99
716.466	1.273	1273.4	test	Phase1	test/STIM_028.jpg	100
720.024	0.888	887.5	test	Phase1	test/STIM_029.jpg	99
723.653	1.273	1273.3	test	Phase1	test/STIM_029.jpg	99
727.796	0.681	680.6	test	Phase1	test/STIM_029.jpg	99
731.009	1.136	1135.7	study	Phase2	study/STIM_000.jpg	100
736.033	0.891	891.1	study	Phase2	study/STIM_000.jpg	100
740.672	0.723	722.8	study	Phase2	study/STIM_000.jpg	99
744.589	0.92	920.5	study	Phase2	study/STIM_001.jpg	99
748.014	1.081	1080.8	study	Phase2	study/STIM_001.jpg	100
751.696	1.237	1237.4	study	Phase2	study/STIM_001.jpg	100
754.958	1.006	1006.0	study	Phase2	study/STIM_002.jpg	99
758.499	0.852	851.7	study	Phase2	study/STIM_002.jpg	99
761.895	1.067	1066.6	study	Phase2	study/STIM_002.jpg	99
766.141	0.985	984.7	study	Phase2	study/STIM_003.jpg	100
769.218	0.583	583.3	study	Phase2	study/STIM_003.jpg	99
772.841	0.622	621.5	study	Phase2	study/STIM_003.jpg	100
776.179	1.426	1426.3	study	Phase2	study/STIM_004.jpg	100
781.103	1.19	1189.8	study	Phase2	study/STIM_004.jpg	100
786.188	0.654	654.5	study	Phase2	study/STIM_004.jpg	99
790.542	0.935	935.4	study	Phase2	study/STIM_005.jpg	99
795.114	1.223	1223.2	study	Phase2	study/STIM_005.jpg	100
799.552	1.254	1254.3	study	Phase2	study/STIM_005.jpg	99
803.904	1.572	1572.2	study	Phase2	study/STIM_006.jpg	100
808.442	0.772	771.5	study	Phase2	study/STIM_006.jpg	100
811.696	1.25	1250.5	study	Phase2	study/STIM_006.jpg	100
816.236	1.065	1065.1	study	Phase2	study/STIM_007.jpg	99
819.501	0.73	729.7	study	Phase2	study/STIM_007.jpg	100
822.999	0.915	915.4	study	Phase2	study/STIM_007.jpg	99
827.128	1.285	1285.4	study	Phase2	study/STIM_008.jpg	100
831.71	1.017	1017.1	study	Phase2	study/STIM_008.jpg	100
836.277	1.016	1015.9	study	Phase2	study/STIM_008.jpg	99
840.863	1.311	1311.0	study	Phase2	study/STIM_009.jpg	99
844.987	0.73	729.9	study	Phase2	study/STIM_009.jpg	100
847.763	1.308	1308.1	study	Phase2	study/STIM_009.jpg	100
852.484	1.263	1263.1	study	Phase2	study/STIM_010.jpg	99
856.827	0.886	885.7	study	Phase2	study/STIM_010.jpg	99
861.547	1.009	1008.8	study	Phase2	study/STIM_010.jpg	99
864.751	0.765	764.9	study	Phase2	study/STIM_011.jpg	99
869.209	0.915	915.4	study	Phase2	study/STIM_011.jpg	100
872.121	1.407	1406.6	study	Phase2	study/STIM_011.jpg	100
876.184	1.582	1581.6	study	Phase2	study/STIM_012.jpg	100
880.628	0.643	642.6	study	Phase2	study/STIM_012.jpg	99
883.754	0.868	867.9	study	Phase2	study/STIM_012.jpg	99
887.446	0.957	957.2	study	Phase2	study/STIM_013.jpg	100
891.769	1.451	1450.6	study	Phase2	study/STIM_013.jpg	99
896.701	0.862	862.5	study	Phase2	study/STIM_013.jpg	100
900.447	1.064	1063.7	study	Phase2	study/STIM_014.jpg	99
904.874	1.15	1149.5	study	Phase2	study/STIM_014.jpg	100
909.804	1.114	1114.2	study	Phase2	study/STIM_014.jpg	99
913.612	0.961	961.0	study	Phase2	study/STIM_015.jpg	99
916.675	1.0	999.6	study	Phase2	study/STIM_015.jpg	100
921.096	0.752	751.8	study	Phase2	study/STIM_015.jpg	99
924.591	1.509	1509.2	study	Phase2	study/STIM_016.jpg	99
929.593	1.218	1217.5	study	Phase2	study/STIM_016.jpg	99
934.597	1.21	1210.5	study	Phase2	study/STIM_016.jpg	99
938.717	0.723	723.4	study	Phase2	study/STIM_017.jpg	99
941.705	1.253	1252.8	study	Phase2	study/STIM_017.jpg	100
945.516	1.288	1288.0	study	Phase2	study/STIM_017.jpg	99
949.821	1.513	1512.8	study	Phase2	study/STIM_018.jpg	100
954.666	0.71	710.3	study	Phase2	study/STIM_018.jpg	99
959.157	1.036	1036.2	study	Phase2	study/STIM_018.jpg	99
964.124	0.752	751.5	study	Phase2	study/STIM_019.jpg	99
968.604	0.656	656.3	study	Phase2	study/STIM_019.jpg	100
973.123	1.057	1057.2	study	Phase2	study/STIM_019.jpg	100
977.555	0.942	941.6	study	Phase2	study/STIM_020.jpg	100
981.765	0.869	868.9	study	Phase2	study/STIM_020.jpg	99
985.293	0.61	609.5	study	Phase2	study/STIM_020.jpg	99
988.764	1.522	1521.6	study	Phase2	study/STIM_021.jpg	99
992.395	0.743	743.1	study	Phase2	study/STIM_021.jpg	99
995.547	0.638	637.5	study	Phase2	study/STIM_021.jpg	99
999.764	1.451	1450.6	study	Phase2	study/STIM_022.jpg	100
1003.926	1.246	1246.2	study	Phase2	study/STIM_022.jpg	100
1007.2	0.907	907.2	study	Phase2	study/STIM_022.jpg	100
1010.268	0.713	712.7	study	Phase2	study/STIM_023.jpg	99
1014.684	0.959	959.3	study	Phase2	study/STIM_023.jpg	99
1017.82	0.918	918.5	study	Phase2	study/STIM_023.jpg	99
1022.338	0.778	777.8	study	Phase2	study/STIM_024.jpg	99
1027.015	0.736	736.3	study	Phase2	study/STIM_024.jpg	99
1030.302	0.729	729.2	study	Phase2	study/STIM_024.jpg	99
1034.397	1.116	1115.7	study	Phase2	study/STIM_025.jpg	99
1039.082	0.763	763.3	study	Phase2	study/STIM_025.jpg	99
1043.608	1.184	1184.4	study	Phase2	study/STIM_025.jpg	99
1048.069	0.978	978.0	study	Phase2	study/STIM_026.jpg	100
1051.981	0.942	942.1	study	Phase2	study/STIM_026.jpg	99
1054.879	0.785	785.3	study	Phase2	study/STIM_026.jpg	99
1057.942	0.649	648.6	study	Phase2	study/STIM_027.jpg	100
1060.856	0.674	673.8	study	Phase2	study/STIM_027.jpg	100
1063.937	0.948	948.0	study	Phase2	study/STIM_027.jpg	99
1067.493	0.853	853.0	study	Phase2	study/STIM_028.jpg	100
1071.323	1.243	1243.4	study	Phase2	study/STIM_028.jpg	100
1075.126	0.948	947.8	study	Phase2	study/STIM_028.jpg	99
1078.85	1.223	1222.8	study	Phase2	study/STIM_029.jpg	100
1082.828	0.689	688.9	study	Phase2	study/STIM_029.jpg	99
1085.714	0.837	837.1	study	Phase2	study/STIM_029.jpg	99
1088.846	1.29	1289.8	test	Phase2	test/STIM_000.jpg	99
1093.137	0.69	690.1	test	Phase2	test/STIM_000.jpg	99
1097.321	0.845	845.4	test	Phase2	test/STIM_000.jpg	100
1101.845	0.803	803.1	test	Phase2	test/STIM_001.jpg	99
1106.605	0.512	511.7	test	Phase2	test/STIM_001.jpg	99
1111.114	0.682	682.0	test	Phase2	test/STIM_001.jpg	100
1114.591	1.205	1205.3	test	Phase2	test/STIM_002.jpg	99
1119.771	1.114	1113.6	test	Phase2	test/STIM_002.jpg	100
1124.436	0.907	906.9	test	Phase2	test/STIM_002.jpg	100
1127.867	0.957	956.7	test	Phase2	test/STIM_003.jpg	99
1132.376	1.067	1067.1	test	Phase2	test/STIM_003.jpg	100
1136.913	0.711	711.0	test	Phase2	test/STIM_003.jpg	100
1139.927	0.729	728.7	test	Phase2	test/STIM_004.jpg	100
1142.772	0.692	691.9	test	Phase2	test/STIM_004.jpg	100
1146.357	1.054	1054.1	test	Phase2	test/STIM_004.jpg	99
1150.614	0.976	975.9	test	Phase2	test/STIM_005.jpg	99
1154.889	0.699	698.9	test	Phase2	test/STIM_005.jpg	100
1157.636	0.828	827.6	test	Phase2	test/STIM_005.jpg	100
1161.726	0.824	824.0	test	Phase2	test/STIM_006.jpg	99
1165.592	1.155	1155.2	test	Phase2	test/STIM_006.jpg	100
1169.617	0.636	635.9	test	Phase2	test/STIM_006.jpg	99
1173.267	0.711	711.0	test	Phase2	test/STIM_007.jpg	99
1177.772	1.11	1110.5	test	Phase2	test/STIM_007.jpg	100
1182.012	1.302	1302.5	test	Phase2	test/STIM_007.jpg	99
1186.139	1.044	1044.0	test	Phase2	test/STIM_008.jpg	99
1189.773	0.649	648.9	test	Phase2	test/STIM_008.jpg	100
1192.426	0.659	658.9	test	Phase2	test/STIM_008.jpg	100
1196.125	1.217	1217.3	test	Phase2	test/STIM_009.jpg	99
1200.404	0.819	819.0	test	Phase2	test/STIM_009.jpg	99
1203.841	0.759	759.2	test	Phase2	test/STIM_009.jpg	100
1206.674	1.114	1114.5	test	Phase2	test/STIM_010.jpg	100
1210.107	0.783	783.3	test	Phase2	test/STIM_010.jpg	100
1213.462	1.233	1232.6	test	Phase2	test/STIM_010.jpg	99
1218.565	1.231	1231.2	test	Phase2	test/STIM_011.jpg	100
1221.893	0.802	801.7	test	Phase2	test/STIM_011.jpg	100
1225.96	0.621	620.7	test	Phase2	test/STIM_011.jpg	100
1229.663	1.027	1027.4	test	Phase2	test/STIM_012.jpg	100
1233.73	0.705	704.8	test	Phase2	test/STIM_012.jpg	100
1237.444	1.043	1043.3	test	Phase2	test/STIM_012.jpg	99
1242.131	1.25	1250.3	test	Phase2	test/STIM_013.jpg	100
1246.418	0.955	954.9	test	Phase2	test/STIM_013.jpg	100
1250.874	1.337	1337.0	test	Phase2	test/STIM_013.jpg	99
1255.996	1.072	1071.8	test	Phase2	test/STIM_014.jpg	100
1260.006	0.838	838.4	test	Phase2	test/STIM_014.jpg	100
1263.656	1.039	1038.7	test	Phase2	test/STIM_014.jpg	99
1268.04	0.636	636.0	test	Phase2	test/STIM_015.jpg	99
1271.605	0.802	801.6	test	Phase2	test/STIM_015.jpg	100
1275.699	0.617	616.8	test	Phase2	test/STIM_015.jpg	100
1279.459	0.994	994.4	test	Phase2	test/STIM_016.jpg	99
1283.662	1.241	1241.3	test	Phase2	test/STIM_016.jpg	100
1287.093	0.592	591.5	test	Phase2	test/STIM_016.jpg	100
1291.237	1.214	1213.5	test	Phase2	test/STIM_017.jpg	100
1295.309	1.202	1202.5	test	Phase2	test/STIM_017.jpg	99
1299.061	0.741	740.6	test	Phase2	test/STIM_017.jpg	100
1303.133	1.097	1097.1	test	Phase2	test/STIM_018.jpg	99
1306.684	1.204	1204.5	test	Phase2	test/STIM_018.jpg	99
1311.67	1.068	1068.1	test	Phase2	test/STIM_018.jpg	100
1314.693	1.235	1235.0	test	Phase2	test/STIM_019.jpg	99
1319.458	0.598	597.6	test	Phase2	test/STIM_019.jpg	100
1323.252	0.789	788.9	test	Phase2	test/STIM_019.jpg	100
1326.422	0.98	979.5	test	Phase2	test/STIM_020.jpg	99
1330.388	1.258	1257.7	test	Phase2	test/STIM_020.jpg	100
1334.061	0.564	564.4	test	Phase2	test/STIM_020.jpg	99
1337.023	1.234	1233.8	test	Phase2	test/STIM_021.jpg	99
1341.447	0.608	607.5	test	Phase2	test/STIM_021.jpg	99
1346.099	0.964	964.0	test	Phase2	test/STIM_021.jpg	99
1349.106	0.617	616.7	test	Phase2	test/STIM_022.jpg	100
1353.132	0.712	711.6	test	Phase2	test/STIM_022.jpg	99
1356.88	1.166	1166.1	test	Phase2	test/STIM_022.jpg	99
1360.137	1.058	1058.1	test	Phase2	test/STIM_023.jpg	99
1364.392	0.983	983.3	test	Phase2	test/STIM_023.jpg	100
1367.759	0.911	911.1	test	Phase2	test/STIM_023.jpg	99
1370.778	0.89	890.5	test	Phase2	test/STIM_024.jpg	99
1374.765	0.718	717.6	test	Phase2	test/STIM_024.jpg	99
1379.376	0.581	580.7	test	Phase2	test/STIM_024.jpg	99
1383.33	0.764	763.9	test	Phase2	test/STIM_025.jpg	99
1386.557	0.781	780.7	test	Phase2	test/STIM_025.jpg	99
1389.72	0.891	891.1	test	Phase2	test/STIM_025.jpg	100
1393.151	0.811	811.1	test	Phase2	test/STIM_026.jpg	99
1397.238	1.191	1191.1	test	Phase2	test/STIM_026.jpg	100
1401.579	1.237	1236.8	test	Phase2	test/STIM_026.jpg	99
1405.661	1.285	1285.4	test	Phase2	test/STIM_027.jpg	99
1410.481	1.041	1040.6	test	Phase2	test/STIM_027.jpg	100
1414.38	1.156	1155.9	test	Phase2	test/STIM_027.jpg	100
1419.181	1.361	1360.9	test	Phase2	test/STIM_028.jpg	99
1423.425	0.661	660.7	test	Phase2	test/STIM_028.jpg	100
1427.941	1.067	1067.4	test	Phase2	test/STIM_028.jpg	100
1432.264	1.064	1064.2	test	Phase2	test/STIM_029.jpg	99
1435.709	1.148	1148.3	test	Phase2	test/STIM_029.jpg	100
1439.001	0.768	768.4	test	Phase2	test/STIM_029.jpg	99
1441.898	1.212	1211.7	study	Phase3	study/STIM_000.jpg	99
1445.122	1.068	1067.6	study	Phase3	study/STIM_000.jpg	99
1449.785	1.28	1280.1	study	Phase3	study/STIM_000.jpg	99
1454.549	0.787	786.9	study	Phase3	study/STIM_001.jpg	99
1457.711	0.997	996.8	study	Phase3	study/STIM_001.jpg	99
1461.675	1.238	1238.4	study	Phase3	study/STIM_001.jpg	100
1466.515	0.668	668.2	study	Phase3	study/STIM_002.jpg	100
1471.017	0.592	591.8	study	Phase3	study/STIM_002.jpg	100
1474.099	1.162	1162.1	study	Phase3	study/STIM_002.jpg	100
1478.979	0.879	879.2	study	Phase3	study/STIM_003.jpg	100
1481.986	0.92	920.2	study	Phase3	study/STIM_003.jpg	100
1485.917	0.885	885.3	study	Phase3	study/STIM_003.jpg	100
1488.971	0.728	728.4	study	Phase3	study/STIM_004.jpg	100
1492.607	0.996	996.1	study	Phase3	study/STIM_004.jpg	100
1496.135	0.639	638.7	study	Phase3	study/STIM_004.jpg	100
1499.989	1.174	1173.9	study	Phase3	study/STIM_005.jpg	100
1503.587	0.87	870.2	study	Phase3	study/STIM_005.jpg	99
1506.547	1.122	1122.1	study	Phase3	study/STIM_005.jpg	100
1511.603	0.604	603.6	study	Phase3	study/STIM_006.jpg	99
1514.942	0.708	708.1	study	Phase3	study/STIM_006.jpg	100
1519.54	0.658	658.4	study	Phase3	study/STIM_006.jpg	99
1522.639	0.933	932.8	study	Phase3	study/STIM_007.jpg	99
1527.009	0.922	922.4	study	Phase3	study/STIM_007.jpg	99
1531.264	1.092	1091.7	study	Phase3	study/STIM_007.jpg	99
1534.438	0.718	717.7	study	Phase3	study/STIM_008.jpg	100
1537.935	0.877	876.9	study	Phase3	study/STIM_008.jpg	99
1542.255	0.93	929.5	study	Phase3	study/STIM_008.jpg	100
1546.72	1.094	1094.2	study	Phase3	study/STIM_009.jpg	99
1551.714	0.629	629.3	study	Phase3	study/STIM_009.jpg	100
1556.335	1.112	1111.8	study	Phase3	study/STIM_009.jpg	100
1561.209	0.783	783.3	study	Phase3	study/STIM_010.jpg	100
1565.24	1.235	1235.2	study	Phase3	study/STIM_010.jpg	100
1570.371	0.686	686.4	study	Phase3	study/STIM_010.jpg	99
1574.942	0.806	806.5	study	Phase3	study/STIM_011.jpg	100
1578.205	1.299	1299.0	study	Phase3	study/STIM_011.jpg	100
1581.564	0.876	875.5	study	Phase3	study/STIM_011.jpg	99
1584.603	0.566	566.3	study	Phase3	study/STIM_012.jpg	100
1588.24	0.98	980.1	study	Phase3	study/STIM_012.jpg	99
1591.809	1.059	1059.0	study	Phase3	study/STIM_012.jpg	99
1596.157	1.253	1252.7	study	Phase3	study/STIM_013.jpg	100
1599.985	1.058	1058.5	study	Phase3	study/STIM_013.jpg	99
1603.788	0.803	802.6	study	Phase3	study/STIM_013.jpg	99
1607.898	1.24	1239.7	study	Phase3	study/STIM_014.jpg	99
1611.123	0.721	721.3	study	Phase3	study/STIM_014.jpg	99
1615.689	0.794	793.9	study	Phase3	study/STIM_014.jpg	100
1620.259	0.796	795.5	study	Phase3	study/STIM_015.jpg	99
1624.166	0.836	835.7	study	Phase3	study/STIM_015.jpg	100
1627.696	1.267	1266.7	study	Phase3	study/STIM_015.jpg	99
1631.567	0.944	944.3	study	Phase3	study/STIM_016.jpg	100
1635.442	1.103	1103.3	study	Phase3	study/STIM_016.jpg	100
1638.897	0.844	844.5	study	Phase3	study/STIM_016.jpg	100
1643.031	0.906	905.5	study	Phase3	study/STIM_017.jpg	100
1647.526	0.99	989.8	study	Phase3	study/STIM_017.jpg	100
1650.939	1.284	1283.7	study	Phase3	study/STIM_017.jpg	99
1655.206	0.894	894.0	study	Phase3	study/STIM_018.jpg	100
1660.01	0.768	767.8	study	Phase3	study/STIM_018.jpg	99
1664.369	0.766	766.0	study	Phase3	study/STIM_018.jpg	100
1668.16	1.228	1228.1	study	Phase3	study/STIM_019.jpg	99
1672.659	0.721	721.3	study	Phase3	study/STIM_019.jpg	100
1675.521	1.052	1051.9	study	Phase3	study/STIM_019.jpg	100
1679.084	0.597	596.9	study	Phase3	study/STIM_020.jpg	100
1682.967	1.069	1068.7	study	Phase3	study/STIM_020.jpg	99
1687.461	0.6	599.8	study	Phase3	study/STIM_020.jpg	99
1692.065	0.705	705.1	study	Phase3	study/STIM_021.jpg	100
1695.902	0.837	836.7	study	Phase3	study/STIM_021.jpg	100
1699.449	0.652	652.5	study	Phase3	study/STIM_021.jpg	100
1703.533	0.779	779.1	study	Phase3	study/STIM_022.jpg	100
1708.189	0.872	872.5	study	Phase3	study/STIM_022.jpg	100
1711.37	1.294	1294.5	study	Phase3	study/STIM_022.jpg	99
1715.762	1.158	1157.7	study	Phase3	study/STIM_023.jpg	100
1720.77	1.142	1142.1	study	Phase3	study/STIM_023.jpg	99
1724.676	0.908	908.5	study	Phase3	study/STIM_023.jpg	99
1729.03	1.12	1120.4	study	Phase3	study/STIM_024.jpg	99
1733.602	1.008	1007.7	study	Phase3	study/STIM_024.jpg	100
1736.664	1.145	1145.4	study	Phase3	study/STIM_024.jpg	100
1741.177	0.994	994.0	study	Phase3	study/STIM_025.jpg	99
1745.661	1.295	1294.7	study	Phase3	study/STIM_025.jpg	100
1750.39	0.832	832.3	study	Phase3	study/STIM_025.jpg	99
1754.045	0.896	896.3	study	Phase3	study/STIM_026.jpg	99
1757.912	0.766	765.9	study	Phase3	study/STIM_026.jpg	99
1761.899	1.163	1163.1	study	Phase3	study/STIM_026.jpg	99
1766.677	0.725	725.0	study	Phase3	study/STIM_027.jpg	100
1770.139	0.872	871.9	study	Phase3	study/STIM_027.jpg	99
1774.473	0.668	668.0	study	Phase3	study/STIM_027.jpg	100
1778.521	0.758	758.5	study	Phase3	study/STIM_028.jpg	100
1782.845	1.191	1191.4	study	Phase3	study/STIM_028.jpg	99
1786.591	1.305	1304.7	study	Phase3	study/STIM_028.jpg	99
1789.96	0.875	875.2	study	Phase3	study/STIM_029.jpg	100
1793.192	1.27	1270.4	study	Phase3	study/STIM_029.jpg	100
1796.546	1.239	1239.1	study	Phase3	study/STIM_029.jpg	100
1800.65	1.234	1233.9	test	Phase3	test/STIM_000.jpg	100
1804.673	0.882	881.9	test	Phase3	test/STIM_000.jpg	100
1808.613	1.066	1065.9	test	Phase3	test/STIM_000.jpg	100
1812.889	1.004	1004.0	test	Phase3	test/STIM_001.jpg	99
1816.4	0.783	783.3	test	Phase3	test/STIM_001.jpg	100
1819.205	0.672	672.3	test	Phase3	test/STIM_001.jpg	99
1822.239	0.985	984.9	test	Phase3	test/STIM_002.jpg	99
1825.334	0.847	847.4	test	Phase3	test/STIM_002.jpg	99
1828.809	1.162	1161.9	test	Phase3	test/STIM_002.jpg	99
1833.253	0.701	701.3	test	Phase3	test/STIM_003.jpg	99
1836.919	0.993	992.9	test	Phase3	test/STIM_003.jpg	100
1840.415	0.736	735.6	test	Phase3	test/STIM_003.jpg	99
1843.639	0.806	806.5	test	Phase3	test/STIM_004.jpg	100
1846.471	0.837	837.0	test	Phase3	test/STIM_004.jpg	99
1849.796	0.689	688.9	test	Phase3	test/STIM_004.jpg	99
1854.133	0.905	905.0	test	Phase3	test/STIM_005.jpg	99
1858.071	0.912	912.5	test	Phase3	test/STIM_005.jpg	100
1861.983	0.789	788.7	test	Phase3	test/STIM_005.jpg	100
1866.551	0.634	633.5	test	Phase3	test/STIM_006.jpg	100
1870.566	1.045	1044.8	test	Phase3	test/STIM_006.jpg	99
1874.071	1.012	1011.8	test	Phase3	test/STIM_006.jpg	100
1878.424	0.975	975.2	test	Phase3	test/STIM_007.jpg	100
1882.874	1.253	1252.7	test	Phase3	test/STIM_007.jpg	100
1887.225	0.738	737.6	test	Phase3	test/STIM_007.jpg	99
1890.686	1.144	1144.1	test	Phase3	test/STIM_008.jpg	99
1895.054	1.219	1218.8	test	Phase3	test/STIM_008.jpg	100
1900.092	0.851	850.8	test	Phase3	test/STIM_008.jpg	100
1904.594	1.226	1225.8	test	Phase3	test/STIM_009.jpg	100
1909.457	1.233	1232.6	test	Phase3	test/STIM_009.jpg	99
1914.028	0.851	851.1	test	Phase3	test/STIM_009.jpg	100
1918.046	1.069	1069.3	test	Phase3	test/STIM_010.jpg	100
1921.961	1.356	1356.0	test	Phase3	test/STIM_010.jpg	99
1927.202	1.226	1225.7	test	Phase3	test/STIM_010.jpg	99
1930.424	0.843	842.8	test	Phase3	test/STIM_011.jpg	100
1934.537	0.791	790.7	test	Phase3	test/STIM_011.jpg	100
1938.739	0.879	878.7	test	Phase3	test/STIM_011.jpg	99
1942.189	0.611	610.6	test	Phase3	test/STIM_012.jpg	99
1944.838	1.199	1199.4	test	Phase3	test/STIM_012.jpg	99
1949.162	1.016	1016.0	test	Phase3	test/STIM_012.jpg	100
1953.356	1.18	1180.2	test	Phase3	test/STIM_013.jpg	99
1958.156	1.176	1175.9	test	Phase3	test/STIM_013.jpg	100
1962.214	1.205	1205.4	test	Phase3	test/STIM_013.jpg	100
1965.446	0.822	822.3	test	Phase3	test/STIM_014.jpg	100
1968.297	0.712	711.8	test	Phase3	test/STIM_014.jpg	100
1971.508	0.901	900.7	test	Phase3	test/STIM_014.jpg	99
1974.874	1.032	1031.7	test	Phase3	test/STIM_015.jpg	99
1979.517	0.878	878.4	test	Phase3	test/STIM_015.jpg	99
1984.176	1.172	1171.8	test	Phase3	test/STIM_015.jpg	100
1987.546	0.684	684.2	test	Phase3	test/STIM_016.jpg	100
1990.55	0.818	818.0	test	Phase3	test/STIM_016.jpg	100
1993.921	1.075	1075.2	test	Phase3	test/STIM_016.jpg	100
1997.258	1.275	1275.2	test	Phase3	test/STIM_017.jpg	100
2000.869	0.657	656.9	test	Phase3	test/STIM_017.jpg	100
2005.02	0.774	773.6	test	Phase3	test/STIM_017.jpg	100
2008.629	1.191	1190.8	test	Phase3	test/STIM_018.jpg	100
2012.69	0.783	782.7	test	Phase3	test/STIM_018.jpg	100
2016.143	0.922	922.3	test	Phase3	test/STIM_018.jpg	100
2019.231	0.686	685.6	test	Phase3	test/STIM_019.jpg	99
2022.128	0.784	783.5	test	Phase3	test/STIM_019.jpg	99
2025.607	0.808	808.1	test	Phase3	test/STIM_019.jpg	99
2030.072	0.877	876.9	test	Phase3	test/STIM_020.jpg	100
2034.794	1.025	1024.7	test	Phase3	test/STIM_020.jpg	100
2039.414	1.186	1185.8	test	Phase3	test/STIM_020.jpg	99
2042.76	0.693	693.1	test	Phase3	test/STIM_021.jpg	99
2046.493	0.823	823.2	test	Phase3	test/STIM_021.jpg	100
2050.721	0.912	912.4	test	Phase3	test/STIM_021.jpg	99
2054.984	0.94	939.5	test	Phase3	test/STIM_022.jpg	99
2059.607	0.713	712.7	test	Phase3	test/STIM_022.jpg	99
2063.945	1.004	1004.0	test	Phase3	test/STIM_022.jpg	99
2067.661	1.271	1270.7	test	Phase3	test/STIM_023.jpg	99
2071.97	0.68	680.5	test	Phase3	test/STIM_023.jpg	99
2076.468	1.048	1048.0	test	Phase3	test/STIM_023.jpg	100
2079.922	0.907	907.4	test	Phase3	test/STIM_024.jpg	100
2084.077	1.036	1035.5	test	Phase3	test/STIM_024.jpg	99
2087.673	1.228	1228.4	test	Phase3	test/STIM_024.jpg	99
2090.88	1.196	1196.2	test	Phase3	test/STIM_025.jpg	100
2094.961	0.957	957.1	test	Phase3	test/STIM_025.jpg	100
2099.649	1.354	1354.0	test	Phase3	test/STIM_025.jpg	100
2104.12	1.173	1172.8	test	Phase3	test/STIM_026.jpg	99
2108.22	1.046	1046.5	test	Phase3	test/STIM_026.jpg	99
2111.604	0.682	682.5	test	Phase3	test/STIM_026.jpg	100
2115.009	1.219	1219.2	test	Phase3	test/STIM_027.jpg	99
2118.849	1.367	1366.8	test	Phase3	test/STIM_027.jpg	100
2122.822	1.143	1142.8	test	Phase3	test/STIM_027.jpg	99
2127.171	1.268	1268.4	test	Phase3	test/STIM_028.jpg	99
2131.182	1.137	1136.7	test	Phase3	test/STIM_028.jpg	100
2136.203	0.676	676.3	test	Phase3	test/STIM_028.jpg	99
2139.761	1.162	1161.7	test	Phase3	test/STIM_029.jpg	100
2142.862	1.266	1266.0	test	Phase3	test/STIM_029.jpg	100
2146.746	0.909	908.6	test	Phase3	test/STIM_029.jpg	99
