onset	duration	accuracy	trial_type	learning_stage	stimulus
0.0	1.108	correct	regulate	Run1	regulate/STIM_000.jpg
3.752	1.192	correct	regulate	Run1	regulate/STIM_000.jpg
8.014	0.896	incorrect	regulate	Run1	regulate/STIM_000.jpg
11.861	1.559	incorrect	regulate	Run1	regulate/STIM_000.jpg
16.389	1.016	correct	regulate	Run1	regulate/STIM_001.jpg
20.67	2.148	correct	regulate	Run1	regulate/STIM_001.jpg
25.604	1.625	correct	regulate	Run1	regulate/STIM_001.jpg
31.152	0.945	correct	regulate	Run1	regulate/STIM_001.jpg
35.549	1.039	correct	regulate	Run1	regulate/STIM_002.jpg
39.278	2.154	correct	regulate	Run1	regulate/STIM_002.jpg
44.279	1.058	correct	regulate	Run1	regulate/STIM_002.jpg
48.194	1.958	correct	regulate	Run1	regulate/STIM_002.jpg
53.342	2.18	incorrect	regulate	Run1	regulate/STIM_003.jpg
58.934	2.044	correct	regulate	Run1	regulate/STIM_003.jpg
63.793	1.425	correct	regulate	Run1	regulate/STIM_003.jpg
68.982	1.688	correct	regulate	Run1	regulate/STIM_003.jpg
73.092	1.199	incorrect	regulate	Run1	regulate/STIM_004.jpg
78.25	1.624	correct	regulate	Run1	regulate/STIM_004.jpg
83.404	1.64	correct	regulate	Run1	regulate/STIM_004.jpg
87.122	1.743	correct	regulate	Run1	regulate/STIM_004.jpg
92.668	1.137	correct	regulate	Run1	regulate/STIM_005.jpg
97.67	1.568	correct	regulate	Run1	regulate/STIM_005.jpg
101.556	1.398	correct	regulate	Run1	regulate/STIM_005.jpg
106.676	1.611	correct	regulate	Run1	regulate/STIM_005.jpg
112.254	1.239	correct	regulate	Run1	regulate/STIM_006.jpg
116.393	1.218	correct	regulate	Run1	regulate/STIM_006.jpg
120.225	1.3	correct	regulate	Run1	regulate/STIM_006.jpg
123.656	1.267	correct	regulate	Run1	regulate/STIM_006.jpg
128.32	1.789	correct	regulate	Run1	regulate/STIM_007.jpg
133.909	1.308	correct	regulate	Run1	regulate/STIM_007.jpg
137.531	0.98	correct	regulate	Run1	regulate/STIM_007.jpg
142.011	1.418	correct	regulate	Run1	regulate/STIM_007.jpg
145.456	1.706	correct	regulate	Run1	regulate/STIM_008.jpg
151.124	1.384	correct	regulate	Run1	regulate/STIM_008.jpg
154.861	1.129	correct	regulate	Run1	regulate/STIM_008.jpg
158.781	0.964	correct	regulate	Run1	regulate/STIM_008.jpg
163.504	2.15	correct	regulate	Run1	regulate/STIM_009.jpg
169.509	1.553	correct	regulate	Run1	regulate/STIM_009.jpg
173.627	1.489	correct	regulate	Run1	regulate/STIM_009.jpg
178.564	1.645	correct	regulate	Run1	regulate/STIM_009.jpg
184.073	1.394	incorrect	regulate	Run1	regulate/STIM_010.jpg
188.331	1.253	incorrect	regulate	Run1	regulate/STIM_010.jpg
193.253	1.933	correct	regulate	Run1	regulate/STIM_010.jpg
199.169	0.977	correct	regulate	Run1	regulate/STIM_010.jpg
203.768	1.819	correct	regulate	Run1	regulate/STIM_011.jpg
208.78	1.903	incorrect	regulate	Run1	regulate/STIM_011.jpg
213.12	1.644	correct	regulate	Run1	regulate/STIM_011.jpg
217.882	1.632	correct	regulate	Run1	regulate/STIM_011.jpg
223.322	2.218	correct	regulate	Run1	regulate/STIM_012.jpg
227.928	1.314	correct	regulate	Run1	regulate/STIM_012.jpg
231.585	1.133	correct	regulate	Run1	regulate/STIM_012.jpg
234.935	1.239	correct	regulate	Run1	regulate/STIM_012.jpg
239.092	1.336	incorrect	regulate	Run1	regulate/STIM_013.jpg
242.962	1.974	incorrect	regulate	Run1	regulate/STIM_013.jpg
248.304	1.657	correct	regulate	Run1	regulate/STIM_013.jpg
252.117	1.138	correct	regulate	Run1	regulate/STIM_013.jpg
255.754	1.973	correct	regulate	Run1	regulate/STIM_014.jpg
260.385	1.466	correct	regulate	Run1	regulate/STIM_014.jpg
264.053	1.317	correct	regulate	Run1	regulate/STIM_014.jpg
268.853	1.91	correct	regulate	Run1	regulate/STIM_014.jpg
273.473	1.484	correct	regulate	Run1	regulate/STIM_015.jpg
277.643	2.076	correct	regulate	Run1	regulate/STIM_015.jpg
282.159	1.439	correct	regulate	Run1	regulate/STIM_015.jpg
287.417	1.001	correct	regulate	Run1	regulate/STIM_015.jpg
291.199	2.312	correct	regulate	Run1	regulate/STIM_016.jpg
296.086	1.8	correct	regulate	Run1	regulate/STIM_016.jpg
301.764	1.715	correct	regulate	Run1	regulate/STIM_016.jpg
305.767	1.381	correct	regulate	Run1	regulate/STIM_016.jpg
310.605	1.168	correct	regulate	Run1	regulate/STIM_017.jpg
314.363	1.454	correct	regulate	Run1	regulate/STIM_017.jpg
318.304	1.307	correct	regulate	Run1	regulate/STIM_017.jpg
322.78	1.163	correct	regulate	Run1	regulate/STIM_017.jpg
327.564	1.594	correct	regulate	Run1	regulate/STIM_018.jpg
331.694	1.886	incorrect	regulate	Run1	regulate/STIM_018.jpg
335.855	1.498	correct	regulate	Run1	regulate/STIM_018.jpg
340.669	1.15	correct	regulate	Run1	regulate/STIM_018.jpg
345.663	1.667	correct	regulate	Run1	regulate/STIM_019.jpg
351.015	1.235	correct	regulate	Run1	regulate/STIM_019.jpg
355.205	1.071	correct	regulate	Run1	regulate/STIM_019.jpg
358.383	1.736	correct	regulate	Run1	regulate/STIM_019.jpg
363.7	2.005	correct	regulate	Run1	regulate/STIM_020.jpg
368.543	1.525	correct	regulate	Run1	regulate/STIM_020.jpg
373.008	1.746	incorrect	regulate	Run1	regulate/STIM_020.jpg
378.47	1.661	correct	regulate	Run1	regulate/STIM_020.jpg
383.928	1.284	correct	regulate	Run1	regulate/STIM_021.jpg
388.294	2.159	correct	regulate	Run1	regulate/STIM_021.jpg
393.352	1.116	correct	regulate	Run1	regulate/STIM_021.jpg
396.908	1.951	correct	regulate	Run1	regulate/STIM_021.jpg
400.993	1.237	correct	regulate	Run1	regulate/STIM_022.jpg
405.183	0.974	correct	regulate	Run1	regulate/STIM_022.jpg
408.313	1.073	correct	regulate	Run1	regulate/STIM_022.jpg
411.661	1.375	correct	regulate	Run1	regulate/STIM_022.jpg
416.497	2.226	correct	regulate	Run1	regulate/STIM_023.jpg
421.419	1.99	correct	regulate	Run1	regulate/STIM_023.jpg
425.747	0.997	correct	regulate	Run1	regulate/STIM_023.jpg
430.431	1.141	correct	regulate	Run1	regulate/STIM_023.jpg
434.251	1.253	incorrect	regulate	Run1	regulate/STIM_024.jpg
438.915	1.411	correct	regulate	Run1	regulate/STIM_024.jpg
443.328	1.941	incorrect	regulate	Run1	regulate/STIM_024.jpg
448.648	1.392	correct	regulate	Run1	regulate/STIM_024.jpg
453.486	1.66	correct	regulate	Run1	regulate/STIM_025.jpg
457.259	1.667	correct	regulate	Run1	regulate/STIM_025.jpg
460.953	0.95	incorrect	regulate	Run1	regulate/STIM_025.jpg
464.611	1.962	correct	regulate	Run1	regulate/STIM_025.jpg
469.279	1.823	correct	regulate	Run1	regulate/STIM_026.jpg
474.235	1.543	incorrect	regulate	Run1	regulate/STIM_026.jpg
478.203	1.352	correct	regulate	Run1	regulate/STIM_026.jpg
482.805	1.683	correct	regulate	Run1	regulate/STIM_026.jpg
487.008	1.935	correct	regulate	Run1	regulate/STIM_027.jpg
492.282	1.301	correct	regulate	Run1	regulate/STIM_027.jpg
495.744	1.275	correct	regulate	Run1	regulate/STIM_027.jpg
500.983	1.54	correct	regulate	Run1	regulate/STIM_027.jpg
505.082	1.649	correct	regulate	Run1	regulate/STIM_028.jpg
509.091	1.818	correct	regulate	Run1	regulate/STIM_028.jpg
514.177	1.169	correct	regulate	Run1	regulate/STIM_028.jpg
518.881	1.895	correct	regulate	Run1	regulate/STIM_028.jpg
523.828	1.092	correct	regulate	Run1	regulate/STIM_029.jpg
528.79	1.222	correct	regulate	Run1	regulate/STIM_029.jpg
533.161	1.21	correct	regulate	Run1	regulate/STIM_029.jpg
536.456	1.523	correct	regulate	Run1	regulate/STIM_029.jpg
541.288	0.785	correct	observe	Run1	observe/STIM_000.jpg
544.919	0.789	correct	observe	Run1	observe/STIM_000.jpg
547.936	1.043	correct	observe	Run1	observe/STIM_000.jpg
552.91	0.843	correct	observe	Run1	observe/STIM_000.jpg
555.819	0.906	incorrect	observe	Run1	observe/STIM_001.jpg
559.062	0.827	correct	observe	Run1	observe/STIM_001.jpg
563.691	0.605	correct	observe	Run1	observe/STIM_001.jpg
567.641	1.007	correct	observe	Run1	observe/STIM_001.jpg
571.693	0.793	correct	observe	Run1	observe/STIM_002.jpg
574.679	0.845	correct	observe	Run1	observe/STIM_002.jpg
578.05	0.828	correct	observe	Run1	observe/STIM_002.jpg
582.664	0.936	correct	observe	Run1	observe/STIM_002.jpg
586.114	0.848	correct	observe	Run1	observe/STIM_003.jpg
590.181	0.89	correct	observe	Run1	observe/STIM_003.jpg
594.073	0.604	correct	observe	Run1	observe/STIM_003.jpg
598.465	0.731	correct	observe	Run1	observe/STIM_003.jpg
603.127	0.682	correct	observe	Run1	observe/STIM_004.jpg
606.917	0.733	correct	observe	Run1	observe/STIM_004.jpg
609.957	0.773	correct	observe	Run1	observe/STIM_004.jpg
614.525	0.669	correct	observe	Run1	observe/STIM_004.jpg
618.962	0.545	correct	observe	Run1	observe/STIM_005.jpg
622.683	0.965	correct	observe	Run1	observe/STIM_005.jpg
626.426	1.018	correct	observe	Run1	observe/STIM_005.jpg
629.566	0.991	correct	observe	Run1	observe/STIM_005.jpg
633.888	0.554	correct	observe	Run1	observe/STIM_006.jpg
637.415	1.029	correct	observe	Run1	observe/STIM_006.jpg
641.262	0.582	correct	observe	Run1	observe/STIM_006.jpg
645.211	0.84	correct	observe	Run1	observe/STIM_006.jpg
649.774	0.534	correct	observe	Run1	observe/STIM_007.jpg
652.934	0.842	correct	observe	Run1	observe/STIM_007.jpg
656.354	1.008	correct	observe	Run1	observe/STIM_007.jpg
660.033	0.618	correct	observe	Run1	observe/STIM_007.jpg
663.876	0.551	correct	observe	Run1	observe/STIM_008.jpg
667.842	1.029	correct	observe	Run1	observe/STIM_008.jpg
672.766	0.726	correct	observe	Run1	observe/STIM_008.jpg
676.38	0.623	correct	observe	Run1	observe/STIM_008.jpg
679.35	0.921	correct	observe	Run1	observe/STIM_009.jpg
683.823	0.743	correct	observe	Run1	observe/STIM_009.jpg
687.424	1.015	correct	observe	Run1	observe/STIM_009.jpg
690.572	0.897	correct	observe	Run1	observe/STIM_009.jpg
693.865	0.994	correct	observe	Run1	observe/STIM_010.jpg
697.073	1.035	correct	observe	Run1	observe/STIM_010.jpg
700.5	0.932	correct	observe	Run1	observe/STIM_010.jpg
705.184	0.707	correct	observe	Run1	observe/STIM_010.jpg
708.161	0.721	correct	observe	Run1	observe/STIM_011.jpg
712.162	0.958	correct	observe	Run1	observe/STIM_011.jpg
715.248	0.938	correct	observe	Run1	observe/STIM_011.jpg
719.516	0.68	correct	observe	Run1	observe/STIM_011.jpg
722.828	0.73	correct	observe	Run1	observe/STIM_012.jpg
726.021	0.68	correct	observe	Run1	observe/STIM_012.jpg
729.126	0.977	correct	observe	Run1	observe/STIM_012.jpg
733.046	0.87	correct	observe	Run1	observe/STIM_012.jpg
736.25	0.632	correct	observe	Run1	observe/STIM_013.jpg
740.684	1.041	correct	observe	Run1	observe/STIM_013.jpg
745.512	0.673	correct	observe	Run1	observe/STIM_013.jpg
748.338	0.802	correct	observe	Run1	observe/STIM_013.jpg
751.237	0.543	correct	observe	Run1	observe/STIM_014.jpg
755.774	0.604	correct	observe	Run1	observe/STIM_014.jpg
759.854	0.703	correct	observe	Run1	observe/STIM_014.jpg
764.325	0.999	correct	observe	Run1	observe/STIM_014.jpg
767.918	0.661	correct	observe	Run1	observe/STIM_015.jpg
770.888	1.057	correct	observe	Run1	observe/STIM_015.jpg
774.976	0.82	correct	observe	Run1	observe/STIM_015.jpg
779.309	0.719	correct	observe	Run1	observe/STIM_015.jpg
782.478	0.765	correct	observe	Run1	observe/STIM_016.jpg
787.094	0.701	correct	observe	Run1	observe/STIM_016.jpg
791.284	1.0	correct	observe	Run1	observe/STIM_016.jpg
795.33	0.765	correct	observe	Run1	observe/STIM_016.jpg
798.222	0.634	correct	observe	Run1	observe/STIM_017.jpg
800.985	0.746	correct	observe	Run1	observe/STIM_017.jpg
803.74	1.014	correct	observe	Run1	observe/STIM_017.jpg
808.271	1.042	correct	observe	Run1	observe/STIM_017.jpg
811.348	0.766	correct	observe	Run1	observe/STIM_018.jpg
815.362	0.787	correct	observe	Run1	observe/STIM_018.jpg
818.255	0.824	correct	observe	Run1	observe/STIM_018.jpg
822.4	0.979	correct	observe	Run1	observe/STIM_018.jpg
827.242	0.761	correct	observe	Run1	observe/STIM_019.jpg
831.194	0.548	correct	observe	Run1	observe/STIM_019.jpg
834.147	0.678	correct	observe	Run1	observe/STIM_019.jpg
837.573	0.876	correct	observe	Run1	observe/STIM_019.jpg
842.097	1.027	correct	regulate	Run2	regulate/STIM_000.jpg
846.752	1.58	correct	regulate	Run2	regulate/STIM_000.jpg
851.663	1.672	correct	regulate	Run2	regulate/STIM_000.jpg
856.263	0.991	correct	regulate	Run2	regulate/STIM_000.jpg
860.723	1.632	correct	regulate	Run2	regulate/STIM_001.jpg
866.333	1.706	correct	regulate	Run2	regulate/STIM_001.jpg
870.136	0.809	correct	regulate	Run2	regulate/STIM_001.jpg
873.548	1.443	correct	regulate	Run2	regulate/STIM_001.jpg
878.059	1.043	correct	regulate	Run2	regulate/STIM_002.jpg
881.405	1.339	correct	regulate	Run2	regulate/STIM_002.jpg
886.153	0.87	correct	regulate	Run2	regulate/STIM_002.jpg
890.39	1.355	correct	regulate	Run2	regulate/STIM_002.jpg
893.874	1.88	correct	regulate	Run2	regulate/STIM_003.jpg
897.804	1.344	correct	regulate	Run2	regulate/STIM_003.jpg
902.401	1.316	correct	regulate	Run2	regulate/STIM_003.jpg
906.811	0.77	correct	regulate	Run2	regulate/STIM_003.jpg
910.447	0.988	correct	regulate	Run2	regulate/STIM_004.jpg
915.184	0.855	correct	regulate	Run2	regulate/STIM_004.jpg
919.414	1.498	correct	regulate	Run2	regulate/STIM_004.jpg
923.899	1.619	correct	regulate	Run2	regulate/STIM_004.jpg
927.939	0.986	correct	regulate	Run2	regulate/STIM_005.jpg
931.701	1.407	correct	regulate	Run2	regulate/STIM_005.jpg
935.394	1.525	correct	regulate	Run2	regulate/STIM_005.jpg
939.795	1.435	correct	regulate	Run2	regulate/STIM_005.jpg
944.767	1.516	correct	regulate	Run2	regulate/STIM_006.jpg
949.838	1.029	correct	regulate	Run2	regulate/STIM_006.jpg
953.136	1.342	correct	regulate	Run2	regulate/STIM_006.jpg
956.834	1.117	correct	regulate	Run2	regulate/STIM_006.jpg
960.651	1.728	incorrect	regulate	Run2	regulate/STIM_007.jpg
965.592	1.353	correct	regulate	Run2	regulate/STIM_007.jpg
969.104	0.895	incorrect	regulate	Run2	regulate/STIM_007.jpg
973.949	0.736	correct	regulate	Run2	regulate/STIM_007.jpg
977.315	1.323	correct	regulate	Run2	regulate/STIM_008.jpg
980.81	0.876	correct	regulate	Run2	regulate/STIM_008.jpg
983.816	1.297	correct	regulate	Run2	regulate/STIM_008.jpg
988.744	1.276	correct	regulate	Run2	regulate/STIM_008.jpg
993.299	0.891	correct	regulate	Run2	regulate/STIM_009.jpg
998.166	1.808	correct	regulate	Run2	regulate/STIM_009.jpg
1003.544	1.581	correct	regulate	Run2	regulate/STIM_009.jpg
1007.46	1.538	correct	regulate	Run2	regulate/STIM_009.jpg
1012.228	1.808	correct	regulate	Run2	regulate/STIM_010.jpg
1017.63	1.247	correct	regulate	Run2	regulate/STIM_010.jpg
1021.809	1.1	correct	regulate	Run2	regulate/STIM_010.jpg
1026.422	1.16	correct	regulate	Run2	regulate/STIM_010.jpg
1030.655	1.952	correct	regulate	Run2	regulate/STIM_011.jpg
1035.587	1.841	correct	regulate	Run2	regulate/STIM_011.jpg
1039.649	0.98	correct	regulate	Run2	regulate/STIM_011.jpg
1043.398	1.192	correct	regulate	Run2	regulate/STIM_011.jpg
1046.936	1.594	correct	regulate	Run2	regulate/STIM_012.jpg
1051.177	1.34	incorrect	regulate	Run2	regulate/STIM_012.jpg
1054.695	1.712	correct	regulate	Run2	regulate/STIM_012.jpg
1060.241	0.817	correct	regulate	Run2	regulate/STIM_012.jpg
1063.651	1.392	correct	regulate	Run2	regulate/STIM_013.jpg
1068.104	1.84	correct	regulate	Run2	regulate/STIM_013.jpg
1072.325	1.716	correct	regulate	Run2	regulate/STIM_013.jpg
1076.404	1.365	correct	regulate	Run2	regulate/STIM_013.jpg
1080.037	1.767	correct	regulate	Run2	regulate/STIM_014.jpg
1085.214	0.926	correct	regulate	Run2	regulate/STIM_014.jpg
1089.742	1.298	correct	regulate	Run2	regulate/STIM_014.jpg
1093.048	1.368	correct	regulate	Run2	regulate/STIM_014.jpg
1097.12	1.606	correct	regulate	Run2	regulate/STIM_015.jpg
1102.714	1.83	correct	regulate	Run2	regulate/STIM_015.jpg
1108.183	1.205	correct	regulate	Run2	regulate/STIM_015.jpg
1112.334	1.543	correct	regulate	Run2	regulate/STIM_015.jpg
1116.463	1.08	correct	regulate	Run2	regulate/STIM_016.jpg
1119.572	1.579	correct	regulate	Run2	regulate/STIM_016.jpg
1124.073	1.657	correct	regulate	Run2	regulate/STIM_016.jpg
1128.528	0.94	correct	regulate	Run2	regulate/STIM_016.jpg
1132.263	1.169	correct	regulate	Run2	regulate/STIM_017.jpg
1135.775	1.211	correct	regulate	Run2	regulate/STIM_017.jpg
1139.649	1.621	correct	regulate	Run2	regulate/STIM_017.jpg
1143.874	0.91	correct	regulate	Run2	regulate/STIM_017.jpg
1148.312	1.176	correct	regulate	Run2	regulate/STIM_018.jpg
1153.317	0.877	correct	regulate	Run2	regulate/STIM_018.jpg
1156.269	0.877	correct	regulate	Run2	regulate/STIM_018.jpg
1160.901	1.24	correct	regulate	Run2	regulate/STIM_018.jpg
1165.727	1.684	correct	regulate	Run2	regulate/STIM_019.jpg
1169.76	0.932	correct	regulate	Run2	regulate/STIM_019.jpg
1173.709	1.447	correct	regulate	Run2	regulate/STIM_019.jpg
1178.705	0.742	correct	regulate	Run2	regulate/STIM_019.jpg
1183.281	1.861	correct	regulate	Run2	regulate/STIM_020.jpg
1187.672	1.621	correct	regulate	Run2	regulate/STIM_020.jpg
1192.963	0.847	correct	regulate	Run2	regulate/STIM_020.jpg
1197.453	0.702	correct	regulate	Run2	regulate/STIM_020.jpg
1201.376	1.576	correct	regulate	Run2	regulate/STIM_021.jpg
1205.638	1.795	correct	regulate	Run2	regulate/STIM_021.jpg
1210.24	0.884	correct	regulate	Run2	regulate/STIM_021.jpg
1213.76	0.812	correct	regulate	Run2	regulate/STIM_021.jpg
1218.232	1.722	correct	regulate	Run2	regulate/STIM_022.jpg
1223.48	1.13	correct	regulate	Run2	regulate/STIM_022.jpg
1228.596	1.634	correct	regulate	Run2	regulate/STIM_022.jpg
1232.511	1.189	correct	regulate	Run2	regulate/STIM_022.jpg
1236.726	1.955	correct	regulate	Run2	regulate/STIM_023.jpg
1241.496	1.285	correct	regulate	Run2	regulate/STIM_023.jpg
1246.645	0.778	correct	regulate	Run2	regulate/STIM_023.jpg
1250.759	0.813	correct	regulate	Run2	regulate/STIM_023.jpg
1253.576	1.166	correct	regulate	Run2	regulate/STIM_024.jpg
1258.089	0.918	correct	regulate	Run2	regulate/STIM_024.jpg
1261.82	1.03	correct	regulate	Run2	regulate/STIM_024.jpg
1266.701	0.947	correct	regulate	Run2	regulate/STIM_024.jpg
1269.675	1.844	correct	regulate	Run2	regulate/STIM_025.jpg
1274.223	1.087	correct	regulate	Run2	regulate/STIM_025.jpg
1278.514	0.989	correct	regulate	Run2	regulate/STIM_025.jpg
1283.067	0.874	correct	regulate	Run2	regulate/STIM_025.jpg
1286.281	1.0	correct	regulate	Run2	regulate/STIM_026.jpg
1289.819	1.335	incorrect	regulate	Run2	regulate/STIM_026.jpg
1293.602	1.582	correct	regulate	Run2	regulate/STIM_026.jpg
1297.526	0.944	correct	regulate	Run2	regulate/STIM_026.jpg
1300.64	1.149	correct	regulate	Run2	regulate/STIM_027.jpg
1305.589	1.42	correct	regulate	Run2	regulate/STIM_027.jpg
1309.271	0.881	correct	regulate	Run2	regulate/STIM_027.jpg
1314.072	1.029	correct	regulate	Run2	regulate/STIM_027.jpg
1317.865	1.47	correct	regulate	Run2	regulate/STIM_028.jpg
1321.596	1.805	correct	regulate	Run2	regulate/STIM_028.jpg
1325.619	1.194	correct	regulate	Run2	regulate/STIM_028.jpg
1329.373	1.183	correct	regulate	Run2	regulate/STIM_028.jpg
1332.983	1.739	incorrect	regulate	Run2	regulate/STIM_029.jpg
1336.769	0.907	correct	regulate	Run2	regulate/STIM_029.jpg
1341.414	1.259	correct	regulate	Run2	regulate/STIM_029.jpg
1345.772	1.598	correct	regulate	Run2	regulate/STIM_029.jpg
1349.777	0.946	correct	observe	Run2	observe/STIM_000.jpg
1353.864	1.001	correct	observe	Run2	observe/STIM_000.jpg
1358.779	0.633	correct	observe	Run2	observe/STIM_000.jpg
1361.853	0.849	correct	observe	Run2	observe/STIM_000.jpg
1365.019	0.791	correct	observe	Run2	observe/STIM_001.jpg
1369.426	0.963	incorrect	observe	Run2	observe/STIM_001.jpg
1372.823	0.642	incorrect	observe	Run2	observe/STIM_001.jpg
1376.175	0.62	correct	observe	Run2	observe/STIM_001.jpg
1380.045	1.032	correct	observe	Run2	observe/STIM_002.jpg
1384.845	0.57	correct	observe	Run2	observe/STIM_002.jpg
1387.665	0.977	correct	observe	Run2	observe/STIM_002.jpg
1392.631	1.021	correct	observe	Run2	observe/STIM_002.jpg
1396.925	0.878	correct	observe	Run2	observe/STIM_003.jpg
1400.859	0.826	incorrect	observe	Run2	observe/STIM_003.jpg
1405.117	0.819	correct	observe	Run2	observe/STIM_003.jpg
1408.619	0.966	correct	observe	Run2	observe/STIM_003.jpg
1413.198	0.578	correct	observe	Run2	observe/STIM_004.jpg
1416.996	1.008	correct	observe	Run2	observe/STIM_004.jpg
1420.32	0.659	correct	observe	Run2	observe/STIM_004.jpg
1424.403	0.869	correct	observe	Run2	observe/STIM_004.jpg
1428.306	0.931	correct	observe	Run2	observe/STIM_005.jpg
1431.698	0.811	correct	observe	Run2	observe/STIM_005.jpg
1435.008	0.588	correct	observe	Run2	observe/STIM_005.jpg
1437.804	0.87	correct	observe	Run2	observe/STIM_005.jpg
1441.554	0.536	correct	observe	Run2	observe/STIM_006.jpg
1445.698	0.573	correct	observe	Run2	observe/STIM_006.jpg
1449.397	0.733	correct	observe	Run2	observe/STIM_006.jpg
1453.693	0.921	correct	observe	Run2	observe/STIM_006.jpg
1456.789	0.63	correct	observe	Run2	observe/STIM_007.jpg
1461.028	0.824	correct	observe	Run2	observe/STIM_007.jpg
1463.987	0.819	correct	observe	Run2	observe/STIM_007.jpg
1467.854	0.7	correct	observe	Run2	observe/STIM_007.jpg
1471.183	0.937	correct	observe	Run2	observe/STIM_008.jpg
1474.851	0.764	correct	observe	Run2	observe/STIM_008.jpg
1477.834	0.551	correct	observe	Run2	observe/STIM_008.jpg
1482.22	0.726	correct	observe	Run2	observe/STIM_008.jpg
1486.871	0.602	correct	observe	Run2	observe/STIM_009.jpg
1489.835	0.66	incorrect	observe	Run2	observe/STIM_009.jpg
1493.409	0.766	incorrect	observe	Run2	observe/STIM_009.jpg
1497.671	0.757	correct	observe	Run2	observe/STIM_009.jpg
1502.392	0.842	correct	observe	Run2	observe/STIM_010.jpg
1505.997	0.643	correct	observe	Run2	observe/STIM_010.jpg
1509.025	0.782	correct	observe	Run2	observe/STIM_010.jpg
1512.822	0.631	incorrect	observe	Run2	observe/STIM_010.jpg
1515.848	0.736	incorrect	observe	Run2	observe/STIM_011.jpg
1519.908	0.9	correct	observe	Run2	observe/STIM_011.jpg
1524.772	0.633	correct	observe	Run2	observe/STIM_011.jpg
1527.744	0.572	correct	observe	Run2	observe/STIM_011.jpg
1530.908	0.614	correct	observe	Run2	observe/STIM_012.jpg
1534.705	0.59	correct	observe	Run2	observe/STIM_012.jpg
1538.582	0.764	incorrect	observe	Run2	observe/STIM_012.jpg
1542.285	0.749	correct	observe	Run2	observe/STIM_012.jpg
1545.561	0.842	correct	observe	Run2	observe/STIM_013.jpg
1549.276	0.876	correct	observe	Run2	observe/STIM_013.jpg
1553.671	0.845	correct	observe	Run2	observe/STIM_013.jpg
1557.239	0.939	correct	observe	Run2	observe/STIM_013.jpg
1560.461	1.001	correct	observe	Run2	observe/STIM_014.jpg
1565.214	0.966	correct	observe	Run2	observe/STIM_014.jpg
1568.276	0.996	correct	observe	Run2	observe/STIM_014.jpg
1572.117	0.963	correct	observe	Run2	observe/STIM_014.jpg
1576.521	0.8	correct	observe	Run2	observe/STIM_015.jpg
1580.587	0.582	incorrect	observe	Run2	observe/STIM_015.jpg
1584.846	0.778	incorrect	observe	Run2	observe/STIM_015.jpg
1588.6	0.732	correct	observe	Run2	observe/STIM_015.jpg
1592.576	0.975	correct	observe	Run2	observe/STIM_016.jpg
1595.723	0.924	correct	observe	Run2	observe/STIM_016.jpg
1599.992	0.965	correct	observe	Run2	observe/STIM_016.jpg
1603.851	0.599	correct	observe	Run2	observe/STIM_016.jpg
1607.295	0.862	correct	observe	Run2	observe/STIM_017.jpg
1610.802	0.818	correct	observe	Run2	observe/STIM_017.jpg
1614.465	0.914	correct	observe	Run2	observe/STIM_017.jpg
1619.147	0.8	correct	observe	Run2	observe/STIM_017.jpg
1623.096	0.792	correct	observe	Run2	observe/STIM_018.jpg
1627.076	0.834	correct	observe	Run2	observe/STIM_018.jpg
1630.971	0.643	correct	observe	Run2	observe/STIM_018.jpg
1635.062	0.795	correct	observe	Run2	observe/STIM_018.jpg
1639.456	0.558	correct	observe	Run2	observe/STIM_019.jpg
1643.683	0.7	correct	observe	Run2	observe/STIM_019.jpg
1646.646	0.891	correct	observe	Run2	observe/STIM_019.jpg
1649.935	0.928	correct	observe	Run2	observe/STIM_019.jpg
1652.943	0.823	correct	regulate	Run3	regulate/STIM_000.jpg
1656.936	0.969	incorrect	regulate	Run3	regulate/STIM_000.jpg
1661.643	1.031	correct	regulate	Run3	regulate/STIM_000.jpg
1665.127	1.596	correct	regulate	Run3	regulate/STIM_000.jpg
1670.253	1.008	correct	regulate	Run3	regulate/STIM_001.jpg
1673.629	1.123	correct	regulate	Run3	regulate/STIM_001.jpg
1677.447	0.722	correct	regulate	Run3	regulate/STIM_001.jpg
1681.748	1.295	correct	regulate	Run3	regulate/STIM_001.jpg
1686.537	0.813	correct	regulate	Run3	regulate/STIM_002.jpg
1690.496	0.966	correct	regulate	Run3	regulate/STIM_002.jpg
1694.62	1.593	correct	regulate	Run3	regulate/STIM_002.jpg
1699.508	1.44	correct	regulate	Run3	regulate/STIM_002.jpg
1704.621	1.254	correct	regulate	Run3	regulate/STIM_003.jpg
1709.834	1.582	correct	regulate	Run3	regulate/STIM_003.jpg
1713.663	1.557	correct	regulate	Run3	regulate/STIM_003.jpg
1717.806	0.886	correct	regulate	Run3	regulate/STIM_003.jpg
1721.856	1.489	correct	regulate	Run3	regulate/STIM_004.jpg
1725.968	0.889	correct	regulate	Run3	regulate/STIM_004.jpg
1729.134	1.51	correct	regulate	Run3	regulate/STIM_004.jpg
1732.715	1.37	correct	regulate	Run3	regulate/STIM_004.jpg
1736.631	1.592	correct	regulate	Run3	regulate/STIM_005.jpg
1741.776	1.48	correct	regulate	Run3	regulate/STIM_005.jpg
1746.426	1.001	correct	regulate	Run3	regulate/STIM_005.jpg
1750.564	1.424	correct	regulate	Run3	regulate/STIM_005.jpg
1755.201	1.251	correct	regulate	Run3	regulate/STIM_006.jpg
1760.411	1.469	correct	regulate	Run3	regulate/STIM_006.jpg
1764.31	1.286	correct	regulate	Run3	regulate/STIM_006.jpg
1767.918	1.386	correct	regulate	Run3	regulate/STIM_006.jpg
1773.247	1.181	correct	regulate	Run3	regulate/STIM_007.jpg
1777.795	0.933	correct	regulate	Run3	regulate/STIM_007.jpg
1781.209	1.596	correct	regulate	Run3	regulate/STIM_007.jpg
1786.755	1.109	correct	regulate	Run3	regulate/STIM_007.jpg
1790.85	1.021	correct	regulate	Run3	regulate/STIM_008.jpg
1794.858	1.104	correct	regulate	Run3	regulate/STIM_008.jpg
1798.911	1.604	correct	regulate	Run3	regulate/STIM_008.jpg
1803.867	1.473	correct	regulate	Run3	regulate/STIM_008.jpg
1808.553	0.828	correct	regulate	Run3	regulate/STIM_009.jpg
1813.074	1.252	correct	regulate	Run3	regulate/STIM_009.jpg
1817.809	1.374	correct	regulate	Run3	regulate/STIM_009.jpg
1822.212	0.869	correct	regulate	Run3	regulate/STIM_009.jpg
1826.326	1.61	correct	regulate	Run3	regulate/STIM_010.jpg
1831.713	1.553	correct	regulate	Run3	regulate/STIM_010.jpg
1837.129	1.303	correct	regulate	Run3	regulate/STIM_010.jpg
1841.939	1.545	correct	regulate	Run3	regulate/STIM_010.jpg
1847.461	0.961	correct	regulate	Run3	regulate/STIM_011.jpg
1851.207	1.465	correct	regulate	Run3	regulate/STIM_011.jpg
1855.789	1.583	correct	regulate	Run3	regulate/STIM_011.jpg
1859.563	1.326	correct	regulate	Run3	regulate/STIM_011.jpg
1864.633	0.719	correct	regulate	Run3	regulate/STIM_012.jpg
1867.537	1.587	correct	regulate	Run3	regulate/STIM_012.jpg
1872.892	0.85	correct	regulate	Run3	regulate/STIM_012.jpg
1877.217	0.85	correct	regulate	Run3	regulate/STIM_012.jpg
1880.854	0.721	correct	regulate	Run3	regulate/STIM_013.jpg
1883.767	1.241	correct	regulate	Run3	regulate/STIM_013.jpg
1888.066	0.987	correct	regulate	Run3	regulate/STIM_013.jpg
1892.473	1.251	correct	regulate	Run3	regulate/STIM_013.jpg
1896.487	0.731	correct	regulate	Run3	regulate/STIM_014.jpg
1899.624	1.387	correct	regulate	Run3	regulate/STIM_014.jpg
1903.239	1.154	incorrect	regulate	Run3	regulate/STIM_014.jpg
1907.835	1.518	correct	regulate	Run3	regulate/STIM_014.jpg
1911.927	1.322	correct	regulate	Run3	regulate/STIM_015.jpg
1915.288	1.257	correct	regulate	Run3	regulate/STIM_015.jpg
1918.74	0.752	correct	regulate	Run3	regulate/STIM_015.jpg
1922.447	1.203	correct	regulate	Run3	regulate/STIM_015.jpg
1926.597	1.233	correct	regulate	Run3	regulate/STIM_016.jpg
1931.612	1.305	correct	regulate	Run3	regulate/STIM_016.jpg
1936.172	1.291	correct	regulate	Run3	regulate/STIM_016.jpg
1940.731	0.968	correct	regulate	Run3	regulate/STIM_016.jpg
1944.607	0.966	correct	regulate	Run3	regulate/STIM_017.jpg
1948.874	1.33	correct	regulate	Run3	regulate/STIM_017.jpg
1952.762	1.224	correct	regulate	Run3	regulate/STIM_017.jpg
1957.487	1.108	correct	regulate	Run3	regulate/STIM_017.jpg
1961.289	1.07	correct	regulate	Run3	regulate/STIM_018.jpg
1964.838	0.713	correct	regulate	Run3	regulate/STIM_018.jpg
1969.085	0.997	correct	regulate	Run3	regulate/STIM_018.jpg
1972.723	1.506	correct	regulate	Run3	regulate/STIM_018.jpg
1977.81	1.136	correct	regulate	Run3	regulate/STIM_019.jpg
1981.421	0.714	correct	regulate	Run3	regulate/STIM_019.jpg
1985.91	0.711	correct	regulate	Run3	regulate/STIM_019.jpg
1989.786	1.43	correct	regulate	Run3	regulate/STIM_019.jpg
1994.726	0.835	correct	regulate	Run3	regulate/STIM_020.jpg
1999.087	1.335	correct	regulate	Run3	regulate/STIM_020.jpg
2002.597	0.985	correct	regulate	Run3	regulate/STIM_020.jpg
2007.246	0.759	correct	regulate	Run3	regulate/STIM_020.jpg
2010.704	0.84	correct	regulate	Run3	regulate/STIM_021.jpg
2014.409	0.755	correct	regulate	Run3	regulate/STIM_021.jpg
2018.474	1.434	correct	regulate	Run3	regulate/STIM_021.jpg
2022.13	0.835	correct	regulate	Run3	regulate/STIM_021.jpg
2025.073	0.862	incorrect	regulate	Run3	regulate/STIM_022.jpg
2027.973	1.246	correct	regulate	Run3	regulate/STIM_022.jpg
2032.476	1.426	correct	regulate	Run3	regulate/STIM_022.jpg
2036.458	1.324	correct	regulate	Run3	regulate/STIM_022.jpg
2040.839	1.183	correct	regulate	Run3	regulate/STIM_023.jpg
2044.354	1.521	correct	regulate	Run3	regulate/STIM_023.jpg
2047.964	1.385	correct	regulate	Run3	regulate/STIM_023.jpg
2052.725	1.299	correct	regulate	Run3	regulate/STIM_023.jpg
2056.643	1.137	correct	regulate	Run3	regulate/STIM_024.jpg
2060.442	1.316	correct	regulate	Run3	regulate/STIM_024.jpg
2064.688	1.105	correct	regulate	Run3	regulate/STIM_024.jpg
2068.465	0.944	correct	regulate	Run3	regulate/STIM_024.jpg
2072.045	1.565	correct	regulate	Run3	regulate/STIM_025.jpg
2076.16	1.445	correct	regulate	Run3	regulate/STIM_025.jpg
2081.229	1.24	correct	regulate	Run3	regulate/STIM_025.jpg
2085.067	1.042	correct	regulate	Run3	regulate/STIM_025.jpg
2089.433	1.487	correct	regulate	Run3	regulate/STIM_026.jpg
2093.735	1.326	correct	regulate	Run3	regulate/STIM_026.jpg
2098.269	1.145	correct	regulate	Run3	regulate/STIM_026.jpg
2102.553	1.502	correct	regulate	Run3	regulate/STIM_026.jpg
2107.627	1.271	correct	regulate	Run3	regulate/STIM_027.jpg
2111.481	1.124	correct	regulate	Run3	regulate/STIM_027.jpg
2115.18	1.61	correct	regulate	Run3	regulate/STIM_027.jpg
2120.704	1.27	correct	regulate	Run3	regulate/STIM_027.jpg
2124.599	1.053	correct	regulate	Run3	regulate/STIM_028.jpg
2129.339	1.296	correct	regulate	Run3	regulate/STIM_028.jpg
2133.856	0.856	correct	regulate	Run3	regulate/STIM_028.jpg
2137.646	0.972	correct	regulate	Run3	regulate/STIM_028.jpg
2141.304	1.083	correct	regulate	Run3	regulate/STIM_029.jpg
2145.582	1.272	correct	regulate	Run3	regulate/STIM_029.jpg
2150.427	1.021	correct	regulate	Run3	regulate/STIM_029.jpg
2155.075	1.488	correct	regulate	Run3	regulate/STIM_029.jpg
2158.67	1.042	correct	observe	Run3	observe/STIM_000.jpg
2162.136	0.931	correct	observe	Run3	observe/STIM_000.jpg
2166.606	0.958	correct	observe	Run3	observe/STIM_000.jpg
2171.113	1.059	correct	observe	Run3	observe/STIM_000.jpg
2175.889	0.704	correct	observe	Run3	observe/STIM_001.jpg
2180.152	0.538	correct	observe	Run3	observe/STIM_001.jpg
2184.154	0.808	correct	observe	Run3	observe/STIM_001.jpg
2188.375	0.947	correct	observe	Run3	observe/STIM_001.jpg
2192.124	0.809	correct	observe	Run3	observe/STIM_002.jpg
2195.829	0.631	incorrect	observe	Run3	observe/STIM_002.jpg
2199.819	0.71	correct	observe	Run3	observe/STIM_002.jpg
2203.123	0.539	incorrect	observe	Run3	observe/STIM_002.jpg
2207.188	0.882	correct	observe	Run3	observe/STIM_003.jpg
2211.84	1.014	correct	observe	Run3	observe/STIM_003.jpg
2215.0	0.766	correct	observe	Run3	observe/STIM_003.jpg
2218.267	0.966	correct	observe	Run3	observe/STIM_003.jpg
2223.078	0.766	incorrect	observe	Run3	observe/STIM_004.jpg
2227.631	0.953	correct	observe	Run3	observe/STIM_004.jpg
2231.493	0.683	correct	observe	Run3	observe/STIM_004.jpg
2235.454	0.86	correct	observe	Run3	observe/STIM_004.jpg
2239.087	0.649	correct	observe	Run3	observe/STIM_005.jpg
2242.923	0.575	correct	observe	Run3	observe/STIM_005.jpg
2247.434	1.058	correct	observe	Run3	observe/STIM_005.jpg
2252.261	0.86	correct	observe	Run3	observe/STIM_005.jpg
2256.536	0.669	correct	observe	Run3	observe/STIM_006.jpg
2260.405	1.01	correct	observe	Run3	observe/STIM_006.jpg
2263.805	0.925	correct	observe	Run3	observe/STIM_006.jpg
2268.221	0.57	correct	observe	Run3	observe/STIM_006.jpg
2271.476	0.723	correct	observe	Run3	observe/STIM_007.jpg
2275.157	0.818	correct	observe	Run3	observe/STIM_007.jpg
2278.134	0.599	correct	observe	Run3	observe/STIM_007.jpg
2282.366	0.96	correct	observe	Run3	observe/STIM_007.jpg
2286.308	0.723	correct	observe	Run3	observe/STIM_008.jpg
2289.437	0.651	correct	observe	Run3	observe/STIM_008.jpg
2293.852	0.953	correct	observe	Run3	observe/STIM_008.jpg
2298.636	1.042	correct	observe	Run3	observe/STIM_008.jpg
2303.26	0.826	correct	observe	Run3	observe/STIM_009.jpg
2308.079	0.589	correct	observe	Run3	observe/STIM_009.jpg
2310.96	1.057	correct	observe	Run3	observe/STIM_009.jpg
2314.961	0.872	correct	observe	Run3	observe/STIM_009.jpg
2318.708	0.59	incorrect	observe	Run3	observe/STIM_010.jpg
2321.998	0.689	correct	observe	Run3	observe/STIM_010.jpg
2325.395	0.571	correct	observe	Run3	observe/STIM_010.jpg
2329.601	0.656	correct	observe	Run3	observe/STIM_010.jpg
2333.848	1.041	correct	observe	Run3	observe/STIM_011.jpg
2337.23	0.907	correct	observe	Run3	observe/STIM_011.jpg
2341.759	1.052	correct	observe	Run3	observe/STIM_011.jpg
2344.998	0.985	correct	observe	Run3	observe/STIM_011.jpg
2349.694	0.98	correct	observe	Run3	observe/STIM_012.jpg
2353.527	0.531	incorrect	observe	Run3	observe/STIM_012.jpg
2357.949	0.721	correct	observe	Run3	observe/STIM_012.jpg
2361.247	0.715	correct	observe	Run3	observe/STIM_012.jpg
2364.331	0.869	correct	observe	Run3	observe/STIM_013.jpg
2367.885	0.882	correct	observe	Run3	observe/STIM_013.jpg
2371.414	0.686	correct	observe	Run3	observe/STIM_013.jpg
2375.266	1.005	correct	observe	Run3	observe/STIM_013.jpg
2379.128	0.707	incorrect	observe	Run3	observe/STIM_014.jpg
2383.791	0.553	correct	observe	Run3	observe/STIM_014.jpg
2387.411	0.897	correct	observe	Run3	observe/STIM_014.jpg
2392.188	0.682	correct	observe	Run3	observe/STIM_014.jpg
2395.949	0.643	correct	observe	Run3	observe/STIM_015.jpg
2400.387	1.042	correct	observe	Run3	observe/STIM_015.jpg
2404.66	0.712	correct	observe	Run3	observe/STIM_015.jpg
2408.036	1.054	correct	observe	Run3	observe/STIM_015.jpg
2412.2	0.844	correct	observe	Run3	observe/STIM_016.jpg
2415.873	0.922	correct	observe	Run3	observe/STIM_016.jpg
2420.322	0.708	correct	observe	Run3	observe/STIM_016.jpg
2424.534	0.752	correct	observe	Run3	observe/STIM_016.jpg
2429.286	0.817	correct	observe	Run3	observe/STIM_017.jpg
2432.119	0.729	correct	observe	Run3	observe/STIM_017.jpg
2435.057	0.538	correct	observe	Run3	observe/STIM_017.jpg
2439.453	0.537	correct	observe	Run3	observe/STIM_017.jpg
2443.571	0.618	correct	observe	Run3	observe/STIM_018.jpg
2446.747	0.91	correct	observe	Run3	observe/STIM_018.jpg
2450.657	0.897	correct	observe	Run3	observe/STIM_018.jpg
2453.829	0.868	correct	observe	Run3	observe/STIM_018.jpg
2457.259	0.846	correct	observe	Run3	observe/STIM_019.jpg
2462.03	0.929	correct	observe	Run3	observe/STIM_019.jpg
2465.119	1.032	correct	observe	Run3	observe/STIM_019.jpg
2468.65	0.774	correct	observe	Run3	observe/STIM_019.jpg
