onset	duration	response_time_ms	trial_type	learning_stage	stimulus	response_port
0.0	1.108	1107.5	regulate	Run1	regulate/STIM_000.jpg	99
3.752	1.192	1191.5	regulate	Run1	regulate/STIM_000.jpg	100
8.014	0.896	896.0	regulate	Run1	regulate/STIM_000.jpg	100
11.861	1.559	1559.3	regulate	Run1	regulate/STIM_000.jpg	100
16.389	1.016	1015.6	regulate	Run1	regulate/STIM_001.jpg	99
20.67	2.148	2148.0	regulate	Run1	regulate/STIM_001.jpg	99
25.604	1.625	1625.3	regulate	Run1	regulate/STIM_001.jpg	100
31.152	0.945	945.0	regulate	Run1	regulate/STIM_001.jpg	99
35.549	1.039	1039.3	regulate	Run1	regulate/STIM_002.jpg	99
39.278	2.154	2154.5	regulate	Run1	regulate/STIM_002.jpg	99
44.279	1.058	1057.6	regulate	Run1	regulate/STIM_002.jpg	100
48.194	1.958	1958.1	regulate	Run1	regulate/STIM_002.jpg	99
53.342	2.18	2179.9	regulate	Run1	regulate/STIM_003.jpg	99
58.934	2.044	2044.2	regulate	Run1	regulate/STIM_003.jpg	99
63.793	1.425	1424.7	regulate	Run1	regulate/STIM_003.jpg	99
68.982	1.688	1687.8	regulate	Run1	regulate/STIM_003.jpg	99
73.092	1.199	1198.8	regulate	Run1	regulate/STIM_004.jpg	99
78.25	1.624	1623.7	regulate	Run1	regulate/STIM_004.jpg	99
83.404	1.64	1640.3	regulate	Run1	regulate/STIM_004.jpg	99
87.122	1.743	1743.3	regulate	Run1	regulate/STIM_004.jpg	100
92.668	1.137	1137.1	regulate	Run1	regulate/STIM_005.jpg	99
97.67	1.568	1568.1	regulate	Run1	regulate/STIM_005.jpg	99
101.556	1.398	1398.3	regulate	Run1	regulate/STIM_005.jpg	99
106.676	1.611	1610.8	regulate	Run1	regulate/STIM_005.jpg	99
112.254	1.239	1238.6	regulate	Run1	regulate/STIM_006.jpg	100
116.393	1.218	1217.7	regulate	Run1	regulate/STIM_006.jpg	100
120.225	1.3	1300.0	regulate	Run1	regulate/STIM_006.jpg	100
123.656	1.267	1267.1	regulate	Run1	regulate/STIM_006.jpg	99
128.32	1.789	1789.1	regulate	Run1	regulate/STIM_007.jpg	100
133.909	1.308	1307.7	regulate	Run1	regulate/STIM_007.jpg	100
137.531	0.98	980.3	regulate	Run1	regulate/STIM_007.jpg	100
142.011	1.418	1418.2	regulate	Run1	regulate/STIM_007.jpg	100
145.456	1.706	1705.6	regulate	Run1	regulate/STIM_008.jpg	99
151.124	1.384	1383.8	regulate	Run1	regulate/STIM_008.jpg	99
154.861	1.129	1129.0	regulate	Run1	regulate/STIM_008.jpg	100
158.781	0.964	963.8	regulate	Run1	regulate/STIM_008.jpg	100
163.504	2.15	2150.0	regulate	Run1	regulate/STIM_009.jpg	99
169.509	1.553	1552.6	regulate	Run1	regulate/STIM_009.jpg	99
173.627	1.489	1488.8	regulate	Run1	regulate/STIM_009.jpg	100
178.564	1.645	1644.8	regulate	Run1	regulate/STIM_009.jpg	99
184.073	1.394	1394.0	regulate	Run1	regulate/STIM_010.jpg	100
188.331	1.253	1252.8	regulate	Run1	regulate/STIM_010.jpg	99
193.253	1.933	1933.1	regulate	Run1	regulate/STIM_010.jpg	100
199.169	0.977	976.8	regulate	Run1	regulate/STIM_010.jpg	100
203.768	1.819	1819.2	regulate	Run1	regulate/STIM_011.jpg	100
208.78	1.903	1902.8	regulate	Run1	regulate/STIM_011.jpg	99
213.12	1.644	1644.0	regulate	Run1	regulate/STIM_011.jpg	99
217.882	1.632	1632.0	regulate	Run1	regulate/STIM_011.jpg	100
223.322	2.218	2217.6	regulate	Run1	regulate/STIM_012.jpg	100
227.928	1.314	1313.7	regulate	Run1	regulate/STIM_012.jpg	99
231.585	1.133	1132.7	regulate	Run1	regulate/STIM_012.jpg	100
234.935	1.239	1239.1	regulate	Run1	regulate/STIM_012.jpg	99
239.092	1.336	1335.9	regulate	Run1	regulate/STIM_013.jpg	100
242.962	1.974	1974.0	regulate	Run1	regulate/STIM_013.jpg	99
248.304	1.657	1656.8	regulate	Run1	regulate/STIM_013.jpg	100
252.117	1.138	1138.2	regulate	Run1	regulate/STIM_013.jpg	99
255.754	1.973	1972.7	regulate	Run1	regulate/STIM_014.jpg	99
260.385	1.466	1466.4	regulate	Run1	regulate/STIM_014.jpg	99
264.053	1.317	1317.1	regulate	Run1	regulate/STIM_014.jpg	100
268.853	1.91	1909.8	regulate	Run1	regulate/STIM_014.jpg	99
273.473	1.484	1484.3	regulate	Run1	regulate/STIM_015.jpg	99
277.643	2.076	2075.6	regulate	Run1	regulate/STIM_015.jpg	100
282.159	1.439	1438.7	regulate	Run1	regulate/STIM_015.jpg	100
287.417	1.001	1001.1	regulate	Run1	regulate/STIM_015.jpg	99
291.199	2.312	2311.8	regulate	Run1	regulate/STIM_016.jpg	99
296.086	1.8	1800.0	regulate	Run1	regulate/STIM_016.jpg	100
301.764	1.715	1715.4	regulate	Run1	regulate/STIM_016.jpg	99
305.767	1.381	1380.6	regulate	Run1	regulate/STIM_016.jpg	100
310.605	1.168	1168.4	regulate	Run1	regulate/STIM_017.jpg	100
314.363	1.454	1453.5	regulate	Run1	regulate/STIM_017.jpg	99
318.304	1.307	1307.0	regulate	Run1	regulate/STIM_017.jpg	99
322.78	1.163	1163.1	regulate	Run1	regulate/STIM_017.jpg	100
327.564	1.594	1593.6	regulate	Run1	regulate/STIM_018.jpg	100
331.694	1.886	1886.0	regulate	Run1	regulate/STIM_018.jpg	99
335.855	1.498	1498.0	regulate	Run1	regulate/STIM_018.jpg	99
340.669	1.15	1150.3	regulate	Run1	regulate/STIM_018.jpg	100
345.663	1.667	1666.6	regulate	Run1	regulate/STIM_019.jpg	100
351.015	1.235	1235.2	regulate	Run1	regulate/STIM_019.jpg	100
355.205	1.071	1071.0	regulate	Run1	regulate/STIM_019.jpg	100
358.383	1.736	1736.0	regulate	Run1	regulate/STIM_019.jpg	100
363.7	2.005	2005.1	regulate	Run1	regulate/STIM_020.jpg	100
368.543	1.525	1524.9	regulate	Run1	regulate/STIM_020.jpg	100
373.008	1.746	1745.6	regulate	Run1	regulate/STIM_020.jpg	100
378.47	1.661	1660.6	regulate	Run1	regulate/STIM_020.jpg	99
383.928	1.284	1284.5	regulate	Run1	regulate/STIM_021.jpg	100
388.294	2.159	2158.6	regulate	Run1	regulate/STIM_021.jpg	100
393.352	1.116	1116.4	regulate	Run1	regulate/STIM_021.jpg	100
396.908	1.951	1950.7	regulate	Run1	regulate/STIM_021.jpg	100
400.993	1.237	1237.3	regulate	Run1	regulate/STIM_022.jpg	100
405.183	0.974	973.9	regulate	Run1	regulate/STIM_022.jpg	100
408.313	1.073	1073.4	regulate	Run1	regulate/STIM_022.jpg	99
411.661	1.375	1374.6	regulate	Run1	regulate/STIM_022.jpg	99
416.497	2.226	2226.3	regulate	Run1	regulate/STIM_023.jpg	100
421.419	1.99	1990.1	regulate	Run1	regulate/STIM_023.jpg	100
425.747	0.997	997.0	regulate	Run1	regulate/STIM_023.jpg	99
430.431	1.141	1141.1	regulate	Run1	regulate/STIM_023.jpg	100
434.251	1.253	1252.9	regulate	Run1	regulate/STIM_024.jpg	100
438.915	1.411	1411.0	regulate	Run1	regulate/STIM_024.jpg	99
443.328	1.941	1941.0	regulate	Run1	regulate/STIM_024.jpg	99
448.648	1.392	1391.7	regulate	Run1	regulate/STIM_024.jpg	99
453.486	1.66	1660.3	regulate	Run1	regulate/STIM_025.jpg	100
457.259	1.667	1666.6	regulate	Run1	regulate/STIM_025.jpg	100
460.953	0.95	950.3	regulate	Run1	regulate/STIM_025.jpg	99
464.611	1.962	1962.1	regulate	Run1	regulate/STIM_025.jpg	100
469.279	1.823	1823.1	regulate	Run1	regulate/STIM_026.jpg	100
474.235	1.543	1543.0	regulate	Run1	regulate/STIM_026.jpg	100
478.203	1.352	1352.0	regulate	Run1	regulate/STIM_026.jpg	99
482.805	1.683	1682.6	regulate	Run1	regulate/STIM_026.jpg	100
487.008	1.935	1934.7	regulate	Run1	regulate/STIM_027.jpg	99
492.282	1.301	1301.4	regulate	Run1	regulate/STIM_027.jpg	100
495.744	1.275	1275.2	regulate	Run1	regulate/STIM_027.jpg	99
500.983	1.54	1540.3	regulate	Run1	regulate/STIM_027.jpg	99
505.082	1.649	1649.2	regulate	Run1	regulate/STIM_028.jpg	99
509.091	1.818	1817.9	regulate	Run1	regulate/STIM_028.jpg	99
514.177	1.169	1169.3	regulate	Run1	regulate/STIM_028.jpg	99
518.881	1.895	1895.4	regulate	Run1	regulate/STIM_028.jpg	100
523.828	1.092	1091.9	regulate	Run1	regulate/STIM_029.jpg	99
528.79	1.222	1221.8	regulate	Run1	regulate/STIM_029.jpg	100
533.161	1.21	1210.2	regulate	Run1	regulate/STIM_029.jpg	100
536.456	1.523	1523.4	regulate	Run1	regulate/STIM_029.jpg	100
541.288	0.785	785.2	observe	Run1	observe/STIM_000.jpg	100
544.919	0.789	788.9	observe	Run1	observe/STIM_000.jpg	100
547.936	1.043	1042.9	observe	Run1	observe/STIM_000.jpg	99
552.91	0.843	842.7	observe	Run1	observe/STIM_000.jpg	99
555.819	0.906	906.2	observe	Run1	observe/STIM_001.jpg	100
559.062	0.827	827.3	observe	Run1	observe/STIM_001.jpg	99
563.691	0.605	605.3	observe	Run1	observe/STIM_001.jpg	100
567.641	1.007	1007.2	observe	Run1	observe/STIM_001.jpg	99
571.693	0.793	792.8	observe	Run1	observe/STIM_002.jpg	99
574.679	0.845	844.9	observe	Run1	observe/STIM_002.jpg	99
578.05	0.828	828.5	observe	Run1	observe/STIM_002.jpg	99
582.664	0.936	935.8	observe	Run1	observe/STIM_002.jpg	99
586.114	0.848	848.2	observe	Run1	observe/STIM_003.jpg	100
590.181	0.89	889.5	observe	Run1	observe/STIM_003.jpg	100
594.073	0.604	603.5	observe	Run1	observe/STIM_003.jpg	99
598.465	0.731	731.1	observe	Run1	observe/STIM_003.jpg	100
603.127	0.682	682.1	observe	Run1	observe/STIM_004.jpg	99
606.917	0.733	732.6	observe	Run1	observe/STIM_004.jpg	100
609.957	0.773	773.1	observe	Run1	observe/STIM_004.jpg	99
614.525	0.669	668.6	observe	Run1	observe/STIM_004.jpg	99
618.962	0.545	544.8	observe	Run1	observe/STIM_005.jpg	100
622.683	0.965	965.0	observe	Run1	observe/STIM_005.jpg	100
626.426	1.018	1018.3	observe	Run1	observe/STIM_005.jpg	100
629.566	0.991	991.1	observe	Run1	observe/STIM_005.jpg	99
633.888	0.554	553.6	observe	Run1	observe/STIM_006.jpg	100
637.415	1.029	1028.7	observe	Run1	observe/STIM_006.jpg	100
641.262	0.582	581.5	observe	Run1	observe/STIM_006.jpg	99
645.211	0.84	839.7	observe	Run1	observe/STIM_006.jpg	100
649.774	0.534	534.5	observe	Run1	observe/STIM_007.jpg	100
652.934	0.842	841.8	observe	Run1	observe/STIM_007.jpg	99
656.354	1.008	1007.9	observe	Run1	observe/STIM_007.jpg	99
660.033	0.618	618.1	observe	Run1	observe/STIM_007.jpg	99
663.876	0.551	550.7	observe	Run1	observe/STIM_008.jpg	100
667.842	1.029	1029.4	observe	Run1	observe/STIM_008.jpg	100
672.766	0.726	725.8	observe	Run1	observe/STIM_008.jpg	100
676.38	0.623	623.1	observe	Run1	observe/STIM_008.jpg	99
679.35	0.921	920.9	observe	Run1	observe/STIM_009.jpg	99
683.823	0.743	742.7	observe	Run1	observe/STIM_009.jpg	100
687.424	1.015	1015.1	observe	Run1	observe/STIM_009.jpg	99
690.572	0.897	897.1	observe	Run1	observe/STIM_009.jpg	100
693.865	0.994	994.4	observe	Run1	observe/STIM_010.jpg	100
697.073	1.035	1035.0	observe	Run1	observe/STIM_010.jpg	100
700.5	0.932	932.5	observe	Run1	observe/STIM_010.jpg	99
705.184	0.707	706.9	observe	Run1	observe/STIM_010.jpg	100
708.161	0.721	720.7	observe	Run1	observe/STIM_011.jpg	100
712.162	0.958	958.5	observe	Run1	observe/STIM_011.jpg	100
715.248	0.938	938.5	observe	Run1	observe/STIM_011.jpg	100
719.516	0.68	679.9	observe	Run1	observe/STIM_011.jpg	100
722.828	0.73	730.0	observe	Run1	observe/STIM_012.jpg	100
726.021	0.68	680.1	observe	Run1	observe/STIM_012.jpg	100
729.126	0.977	977.2	observe	Run1	observe/STIM_012.jpg	100
733.046	0.87	870.1	observe	Run1	observe/STIM_012.jpg	100
736.25	0.632	632.3	observe	Run1	observe/STIM_013.jpg	99
740.684	1.041	1040.8	observe	Run1	observe/STIM_013.jpg	99
745.512	0.673	672.7	observe	Run1	observe/STIM_013.jpg	100
748.338	0.802	802.3	observe	Run1	observe/STIM_013.jpg	99
751.237	0.543	543.4	observe	Run1	observe/STIM_014.jpg	99
755.774	0.604	604.4	observe	Run1	observe/STIM_014.jpg	100
759.854	0.703	703.1	observe	Run1	observe/STIM_014.jpg	99
764.325	0.999	999.3	observe	Run1	observe/STIM_014.jpg	99
767.918	0.661	660.8	observe	Run1	observe/STIM_015.jpg	100
770.888	1.057	1056.6	observe	Run1	observe/STIM_015.jpg	100
774.976	0.82	819.6	observe	Run1	observe/STIM_015.jpg	100
779.309	0.719	718.7	observe	Run1	observe/STIM_015.jpg	99
782.478	0.765	765.4	observe	Run1	observe/STIM_016.jpg	100
787.094	0.701	701.1	observe	Run1	observe/STIM_016.jpg	100
791.284	1.0	999.7	observe	Run1	observe/STIM_016.jpg	99
795.33	0.765	765.1	observe	Run1	observe/STIM_016.jpg	99
798.222	0.634	634.5	observe	Run1	observe/STIM_017.jpg	99
800.985	0.746	746.5	observe	Run1	observe/STIM_017.jpg	99
803.74	1.014	1013.9	observe	Run1	observe/STIM_017.jpg	100
808.271	1.042	1041.9	observe	Run1	observe/STIM_017.jpg	100
811.348	0.766	766.1	observe	Run1	observe/STIM_018.jpg	99
815.362	0.787	787.4	observe	Run1	observe/STIM_018.jpg	99
818.255	0.824	823.9	observe	Run1	observe/STIM_018.jpg	100
822.4	0.979	978.7	observe	Run1	observe/STIM_018.jpg	99
827.242	0.761	761.4	observe	Run1	observe/STIM_019.jpg	100
831.194	0.548	547.8	observe	Run1	observe/STIM_019.jpg	99
834.147	0.678	678.0	observe	Run1	observe/STIM_019.jpg	100
837.573	0.876	875.8	observe	Run1	observe/STIM_019.jpg	99
842.097	1.027	1027.1	regulate	Run2	regulate/STIM_000.jpg	99
846.752	1.58	1579.8	regulate	Run2	regulate/STIM_000.jpg	99
851.663	1.672	1671.7	regulate	Run2	regulate/STIM_000.jpg	100
856.263	0.991	991.0	regulate	Run2	regulate/STIM_000.jpg	100
860.723	1.632	1632.4	regulate	Run2	regulate/STIM_001.jpg	99
866.333	1.706	1706.4	regulate	Run2	regulate/STIM_001.jpg	99
870.136	0.809	809.1	regulate	Run2	regulate/STIM_001.jpg	100
873.548	1.443	1442.8	regulate	Run2	regulate/STIM_001.jpg	99
878.059	1.043	1043.0	regulate	Run2	regulate/STIM_002.jpg	99
881.405	1.339	1338.8	regulate	Run2	regulate/STIM_002.jpg	99
886.153	0.87	869.9	regulate	Run2	regulate/STIM_002.jpg	100
890.39	1.355	1355.4	regulate	Run2	regulate/STIM_002.jpg	100
893.874	1.88	1880.4	regulate	Run2	regulate/STIM_003.jpg	100
897.804	1.344	1343.7	regulate	Run2	regulate/STIM_003.jpg	100
902.401	1.316	1316.5	regulate	Run2	regulate/STIM_003.jpg	99
906.811	0.77	770.1	regulate	Run2	regulate/STIM_003.jpg	99
910.447	0.988	987.8	regulate	Run2	regulate/STIM_004.jpg	99
915.184	0.855	854.6	regulate	Run2	regulate/STIM_004.jpg	100
919.414	1.498	1498.0	regulate	Run2	regulate/STIM_004.jpg	99
923.899	1.619	1619.1	regulate	Run2	regulate/STIM_004.jpg	99
927.939	0.986	985.6	regulate	Run2	regulate/STIM_005.jpg	99
931.701	1.407	1406.8	regulate	Run2	regulate/STIM_005.jpg	100
935.394	1.525	1525.4	regulate	Run2	regulate/STIM_005.jpg	100
939.795	1.435	1434.8	regulate	Run2	regulate/STIM_005.jpg	99
944.767	1.516	1515.8	regulate	Run2	regulate/STIM_006.jpg	100
949.838	1.029	1028.6	regulate	Run2	regulate/STIM_006.jpg	99
953.136	1.342	1341.9	regulate	Run2	regulate/STIM_006.jpg	99
956.834	1.117	1117.3	regulate	Run2	regulate/STIM_006.jpg	100
960.651	1.728	1727.8	regulate	Run2	regulate/STIM_007.jpg	100
965.592	1.353	1353.0	regulate	Run2	regulate/STIM_007.jpg	99
969.104	0.895	894.8	regulate	Run2	regulate/STIM_007.jpg	100
973.949	0.736	735.5	regulate	Run2	regulate/STIM_007.jpg	100
977.315	1.323	1322.9	regulate	Run2	regulate/STIM_008.jpg	99
980.81	0.876	876.4	regulate	Run2	regulate/STIM_008.jpg	99
983.816	1.297	1297.4	regulate	Run2	regulate/STIM_008.jpg	99
988.744	1.276	1275.8	regulate	Run2	regulate/STIM_008.jpg	99
993.299	0.891	891.0	regulate	Run2	regulate/STIM_009.jpg	100
998.166	1.808	1807.9	regulate	Run2	regulate/STIM_009.jpg	100
1003.544	1.581	1581.3	regulate	Run2	regulate/STIM_009.jpg	99
1007.46	1.538	1537.7	regulate	Run2	regulate/STIM_009.jpg	99
1012.228	1.808	1808.4	regulate	Run2	regulate/STIM_010.jpg	99
1017.63	1.247	1246.6	regulate	Run2	regulate/STIM_010.jpg	99
1021.809	1.1	1099.5	regulate	Run2	regulate/STIM_010.jpg	99
1026.422	1.16	1159.7	regulate	Run2	regulate/STIM_010.jpg	99
1030.655	1.952	1952.1	regulate	Run2	regulate/STIM_011.jpg	99
1035.587	1.841	1841.4	regulate	Run2	regulate/STIM_011.jpg	99
1039.649	0.98	979.5	regulate	Run2	regulate/STIM_011.jpg	100
1043.398	1.192	1191.6	regulate	Run2	regulate/STIM_011.jpg	99
1046.936	1.594	1594.3	regulate	Run2	regulate/STIM_012.jpg	100
1051.177	1.34	1340.4	regulate	Run2	regulate/STIM_012.jpg	99
1054.695	1.712	1711.8	regulate	Run2	regulate/STIM_012.jpg	99
1060.241	0.817	817.1	regulate	Run2	regulate/STIM_012.jpg	100
1063.651	1.392	1391.6	regulate	Run2	regulate/STIM_013.jpg	100
1068.104	1.84	1840.4	regulate	Run2	regulate/STIM_013.jpg	100
1072.325	1.716	1716.1	regulate	Run2	regulate/STIM_013.jpg	99
1076.404	1.365	1365.1	regulate	Run2	regulate/STIM_013.jpg	99
1080.037	1.767	1767.3	regulate	Run2	regulate/STIM_014.jpg	99
1085.214	0.926	926.4	regulate	Run2	regulate/STIM_014.jpg	99
1089.742	1.298	1298.0	regulate	Run2	regulate/STIM_014.jpg	100
1093.048	1.368	1367.8	regulate	Run2	regulate/STIM_014.jpg	99
1097.12	1.606	1605.9	regulate	Run2	regulate/STIM_015.jpg	100
1102.714	1.83	1830.5	regulate	Run2	regulate/STIM_015.jpg	100
1108.183	1.205	1204.6	regulate	Run2	regulate/STIM_015.jpg	100
1112.334	1.543	1543.1	regulate	Run2	regulate/STIM_015.jpg	100
1116.463	1.08	1080.3	regulate	Run2	regulate/STIM_016.jpg	99
1119.572	1.579	1579.0	regulate	Run2	regulate/STIM_016.jpg	100
1124.073	1.657	1656.8	regulate	Run2	regulate/STIM_016.jpg	100
1128.528	0.94	940.3	regulate	Run2	regulate/STIM_016.jpg	99
1132.263	1.169	1169.1	regulate	Run2	regulate/STIM_017.jpg	100
1135.775	1.211	1211.0	regulate	Run2	regulate/STIM_017.jpg	100
1139.649	1.621	1620.6	regulate	Run2	regulate/STIM_017.jpg	99
1143.874	0.91	909.5	regulate	Run2	regulate/STIM_017.jpg	100
1148.312	1.176	1175.5	regulate	Run2	regulate/STIM_018.jpg	100
1153.317	0.877	876.7	regulate	Run2	regulate/STIM_018.jpg	99
1156.269	0.877	877.2	regulate	Run2	regulate/STIM_018.jpg	100
1160.901	1.24	1239.9	regulate	Run2	regulate/STIM_018.jpg	99
1165.727	1.684	1683.8	regulate	Run2	regulate/STIM_019.jpg	100
1169.76	0.932	931.7	regulate	Run2	regulate/STIM_019.jpg	100
1173.709	1.447	1447.3	regulate	Run2	regulate/STIM_019.jpg	99
1178.705	0.742	741.9	regulate	Run2	regulate/STIM_019.jpg	99
1183.281	1.861	1861.4	regulate	Run2	regulate/STIM_020.jpg	100
1187.672	1.621	1620.8	regulate	Run2	regulate/STIM_020.jpg	100
1192.963	0.847	847.1	regulate	Run2	regulate/STIM_020.jpg	100
1197.453	0.702	702.2	regulate	Run2	regulate/STIM_020.jpg	99
1201.376	1.576	1575.9	regulate	Run2	regulate/STIM_021.jpg	99
1205.638	1.795	1795.4	regulate	Run2	regulate/STIM_021.jpg	100
1210.24	0.884	884.0	regulate	Run2	regulate/STIM_021.jpg	100
1213.76	0.812	811.6	regulate	Run2	regulate/STIM_021.jpg	99
1218.232	1.722	1722.0	regulate	Run2	regulate/STIM_022.jpg	99
1223.48	1.13	1129.5	regulate	Run2	regulate/STIM_022.jpg	100
1228.596	1.634	1633.7	regulate	Run2	regulate/STIM_022.jpg	100
1232.511	1.189	1188.8	regulate	Run2	regulate/STIM_022.jpg	100
1236.726	1.955	1954.6	regulate	Run2	regulate/STIM_023.jpg	100
1241.496	1.285	1284.7	regulate	Run2	regulate/STIM_023.jpg	99
1246.645	0.778	777.6	regulate	Run2	regulate/STIM_023.jpg	100
1250.759	0.813	812.7	regulate	Run2	regulate/STIM_023.jpg	99
1253.576	1.166	1165.5	regulate	Run2	regulate/STIM_024.jpg	99
1258.089	0.918	918.4	regulate	Run2	regulate/STIM_024.jpg	99
1261.82	1.03	1029.6	regulate	Run2	regulate/STIM_024.jpg	100
1266.701	0.947	947.2	regulate	Run2	regulate/STIM_024.jpg	99
1269.675	1.844	1844.2	regulate	Run2	regulate/STIM_025.jpg	99
1274.223	1.087	1087.2	regulate	Run2	regulate/STIM_025.jpg	99
1278.514	0.989	988.9	regulate	Run2	regulate/STIM_025.jpg	99
1283.067	0.874	874.0	regulate	Run2	regulate/STIM_025.jpg	100
1286.281	1.0	1000.3	regulate	Run2	regulate/STIM_026.jpg	100
1289.819	1.335	1334.9	regulate	Run2	regulate/STIM_026.jpg	100
1293.602	1.582	1581.6	regulate	Run2	regulate/STIM_026.jpg	100
1297.526	0.944	943.9	regulate	Run2	regulate/STIM_026.jpg	100
1300.64	1.149	1149.2	regulate	Run2	regulate/STIM_027.jpg	100
1305.589	1.42	1419.9	regulate	Run2	regulate/STIM_027.jpg	99
1309.271	0.881	881.1	regulate	Run2	regulate/STIM_027.jpg	100
1314.072	1.029	1028.6	regulate	Run2	regulate/STIM_027.jpg	100
1317.865	1.47	1469.7	regulate	Run2	regulate/STIM_028.jpg	99
1321.596	1.805	1804.9	regulate	Run2	regulate/STIM_028.jpg	100
1325.619	1.194	1194.2	regulate	Run2	regulate/STIM_028.jpg	100
1329.373	1.183	1183.1	regulate	Run2	regulate/STIM_028.jpg	100
1332.983	1.739	1739.2	regulate	Run2	regulate/STIM_029.jpg	99
1336.769	0.907	907.2	regulate	Run2	regulate/STIM_029.jpg	99
1341.414	1.259	1259.2	regulate	Run2	regulate/STIM_029.jpg	99
1345.772	1.598	1598.1	regulate	Run2	regulate/STIM_029.jpg	99
1349.777	0.946	946.2	observe	Run2	observe/STIM_000.jpg	100
1353.864	1.001	1000.8	observe	Run2	observe/STIM_000.jpg	100
1358.779	0.633	632.7	observe	Run2	observe/STIM_000.jpg	100
1361.853	0.849	848.7	observe	Run2	observe/STIM_000.jpg	99
1365.019	0.791	791.4	observe	Run2	observe/STIM_001.jpg	99
1369.426	0.963	963.1	observe	Run2	observe/STIM_001.jpg	99
1372.823	0.642	642.4	observe	Run2	observe/STIM_001.jpg	100
1376.175	0.62	619.7	observe	Run2	observe/STIM_001.jpg	99
1380.045	1.032	1032.2	observe	Run2	observe/STIM_002.jpg	100
1384.845	0.57	569.8	observe	Run2	observe/STIM_002.jpg	100
1387.665	0.977	977.2	observe	Run2	observe/STIM_002.jpg	99
1392.631	1.021	1020.6	observe	Run2	observe/STIM_002.jpg	99
1396.925	0.878	877.6	observe	Run2	observe/STIM_003.jpg	100
1400.859	0.826	826.3	observe	Run2	observe/STIM_003.jpg	99
1405.117	0.819	819.1	observe	Run2	observe/STIM_003.jpg	100
1408.619	0.966	965.7	observe	Run2	observe/STIM_003.jpg	99
1413.198	0.578	577.5	observe	Run2	observe/STIM_004.jpg	99
1416.996	1.008	1008.5	observe	Run2	observe/STIM_004.jpg	100
1420.32	0.659	659.0	observe	Run2	observe/STIM_004.jpg	100
1424.403	0.869	869.4	observe	Run2	observe/STIM_004.jpg	100
1428.306	0.931	931.0	observe	Run2	observe/STIM_005.jpg	100
1431.698	0.811	811.1	observe	Run2	observe/STIM_005.jpg	99
1435.008	0.588	588.4	observe	Run2	observe/STIM_005.jpg	99
1437.804	0.87	869.8	observe	Run2	observe/STIM_005.jpg	99
1441.554	0.536	536.3	observe	Run2	observe/STIM_006.jpg	100
1445.698	0.573	572.6	observe	Run2	observe/STIM_006.jpg	99
1449.397	0.733	733.1	observe	Run2	observe/STIM_006.jpg	100
1453.693	0.921	921.0	observe	Run2	observe/STIM_006.jpg	99
1456.789	0.63	630.1	observe	Run2	observe/STIM_007.jpg	99
1461.028	0.824	823.7	observe	Run2	observe/STIM_007.jpg	99
1463.987	0.819	819.4	observe	Run2	observe/STIM_007.jpg	99
1467.854	0.7	699.6	observe	Run2	observe/STIM_007.jpg	99
1471.183	0.937	937.3	observe	Run2	observe/STIM_008.jpg	100
1474.851	0.764	764.4	observe	Run2	observe/STIM_008.jpg	100
1477.834	0.551	551.1	observe	Run2	observe/STIM_008.jpg	100
1482.22	0.726	726.3	observe	Run2	observe/STIM_008.jpg	99
1486.871	0.602	601.5	observe	Run2	observe/STIM_009.jpg	100
1489.835	0.66	660.2	observe	Run2	observe/STIM_009.jpg	100
1493.409	0.766	765.9	observe	Run2	observe/STIM_009.jpg	99
1497.671	0.757	756.9	observe	Run2	observe/STIM_009.jpg	99
1502.392	0.842	842.2	observe	Run2	observe/STIM_010.jpg	100
1505.997	0.643	643.2	observe	Run2	observe/STIM_010.jpg	99
1509.025	0.782	782.2	observe	Run2	observe/STIM_010.jpg	100
1512.822	0.631	631.0	observe	Run2	observe/STIM_010.jpg	100
1515.848	0.736	735.5	observe	Run2	observe/STIM_011.jpg	100
1519.908	0.9	900.5	observe	Run2	observe/STIM_011.jpg	99
1524.772	0.633	633.1	observe	Run2	observe/STIM_011.jpg	100
1527.744	0.572	571.7	observe	Run2	observe/STIM_011.jpg	100
1530.908	0.614	614.3	observe	Run2	observe/STIM_012.jpg	99
1534.705	0.59	590.0	observe	Run2	observe/STIM_012.jpg	100
1538.582	0.764	764.0	observe	Run2	observe/STIM_012.jpg	100
1542.285	0.749	748.6	observe	Run2	observe/STIM_012.jpg	100
1545.561	0.842	842.1	observe	Run2	observe/STIM_013.jpg	99
1549.276	0.876	876.5	observe	Run2	observe/STIM_013.jpg	99
1553.671	0.845	845.2	observe	Run2	observe/STIM_013.jpg	99
1557.239	0.939	938.9	observe	Run2	observe/STIM_013.jpg	100
1560.461	1.001	1001.0	observe	Run2	observe/STIM_014.jpg	99
1565.214	0.966	965.5	observe	Run2	observe/STIM_014.jpg	99
1568.276	0.996	996.3	observe	Run2	observe/STIM_014.jpg	99
1572.117	0.963	962.7	observe	Run2	observe/STIM_014.jpg	99
1576.521	0.8	800.2	observe	Run2	observe/STIM_015.jpg	99
1580.587	0.582	582.4	observe	Run2	observe/STIM_015.jpg	100
1584.846	0.778	777.8	observe	Run2	observe/STIM_015.jpg	100
1588.6	0.732	731.7	observe	Run2	observe/STIM_015.jpg	99
1592.576	0.975	975.3	observe	Run2	observe/STIM_016.jpg	99
1595.723	0.924	923.7	observe	Run2	observe/STIM_016.jpg	99
1599.992	0.965	965.4	observe	Run2	observe/STIM_016.jpg	100
1603.851	0.599	599.1	observe	Run2	observe/STIM_016.jpg	100
1607.295	0.862	862.5	observe	Run2	observe/STIM_017.jpg	100
1610.802	0.818	817.7	observe	Run2	observe/STIM_017.jpg	100
1614.465	0.914	914.2	observe	Run2	observe/STIM_017.jpg	99
1619.147	0.8	800.4	observe	Run2	observe/STIM_017.jpg	99
1623.096	0.792	792.3	observe	Run2	observe/STIM_018.jpg	99
1627.076	0.834	834.4	observe	Run2	observe/STIM_018.jpg	99
1630.971	0.643	642.9	observe	Run2	observe/STIM_018.jpg	100
1635.062	0.795	795.1	observe	Run2	observe/STIM_018.jpg	100
1639.456	0.558	558.2	observe	Run2	observe/STIM_019.jpg	100
1643.683	0.7	700.2	observe	Run2	observe/STIM_019.jpg	100
1646.646	0.891	891.0	observe	Run2	observe/STIM_019.jpg	99
1649.935	0.928	928.5	observe	Run2	observe/STIM_019.jpg	99
1652.943	0.823	823.3	regulate	Run3	regulate/STIM_000.jpg	99
1656.936	0.969	969.2	regulate	Run3	regulate/STIM_000.jpg	99
1661.643	1.031	1031.3	regulate	Run3	regulate/STIM_000.jpg	99
1665.127	1.596	1595.9	regulate	Run3	regulate/STIM_000.jpg	99
1670.253	1.008	1007.9	regulate	Run3	regulate/STIM_001.jpg	99
1673.629	1.123	1122.9	regulate	Run3	regulate/STIM_001.jpg	99
1677.447	0.722	721.8	regulate	Run3	regulate/STIM_001.jpg	100
1681.748	1.295	1295.3	regulate	Run3	regulate/STIM_001.jpg	100
1686.537	0.813	812.8	regulate	Run3	regulate/STIM_002.jpg	99
1690.496	0.966	966.3	regulate	Run3	regulate/STIM_002.jpg	100
1694.62	1.593	1592.9	regulate	Run3	regulate/STIM_002.jpg	99
1699.508	1.44	1440.2	regulate	Run3	regulate/STIM_002.jpg	100
1704.621	1.254	1254.3	regulate	Run3	regulate/STIM_003.jpg	99
1709.834	1.582	1581.9	regulate	Run3	regulate/STIM_003.jpg	100
1713.663	1.557	1557.2	regulate	Run3	regulate/STIM_003.jpg	100
1717.806	0.886	886.0	regulate	Run3	regulate/STIM_003.jpg	100
1721.856	1.489	1489.4	regulate	Run3	regulate/STIM_004.jpg	99
1725.968	0.889	888.9	regulate	Run3	regulate/STIM_004.jpg	100
1729.134	1.51	1510.0	regulate	Run3	regulate/STIM_004.jpg	100
1732.715	1.37	1369.9	regulate	Run3	regulate/STIM_004.jpg	100
1736.631	1.592	1591.6	regulate	Run3	regulate/STIM_005.jpg	99
1741.776	1.48	1480.5	regulate	Run3	regulate/STIM_005.jpg	100
1746.426	1.001	1000.6	regulate	Run3	regulate/STIM_005.jpg	99
1750.564	1.424	1423.7	regulate	Run3	regulate/STIM_005.jpg	99
1755.201	1.251	1251.1	regulate	Run3	regulate/STIM_006.jpg	100
1760.411	1.469	1468.6	regulate	Run3	regulate/STIM_006.jpg	99
1764.31	1.286	1285.5	regulate	Run3	regulate/STIM_006.jpg	99
1767.918	1.386	1385.6	regulate	Run3	regulate/STIM_006.jpg	100
1773.247	1.181	1181.3	regulate	Run3	regulate/STIM_007.jpg	99
1777.795	0.933	933.1	regulate	Run3	regulate/STIM_007.jpg	100
1781.209	1.596	1596.1	regulate	Run3	regulate/STIM_007.jpg	99
1786.755	1.109	1108.9	regulate	Run3	regulate/STIM_007.jpg	100
1790.85	1.021	1020.9	regulate	Run3	regulate/STIM_008.jpg	99
1794.858	1.104	1104.5	regulate	Run3	regulate/STIM_008.jpg	100
1798.911	1.604	1604.3	regulate	Run3	regulate/STIM_008.jpg	100
1803.867	1.473	1473.1	regulate	Run3	regulate/STIM_008.jpg	99
1808.553	0.828	828.5	regulate	Run3	regulate/STIM_009.jpg	99
1813.074	1.252	1252.4	regulate	Run3	regulate/STIM_009.jpg	100
1817.809	1.374	1373.6	regulate	Run3	regulate/STIM_009.jpg	99
1822.212	0.869	869.1	regulate	Run3	regulate/STIM_009.jpg	100
1826.326	1.61	1609.5	regulate	Run3	regulate/STIM_010.jpg	99
1831.713	1.553	1552.7	regulate	Run3	regulate/STIM_010.jpg	99
1837.129	1.303	1302.7	regulate	Run3	regulate/STIM_010.jpg	99
1841.939	1.545	1544.9	regulate	Run3	regulate/STIM_010.jpg	99
1847.461	0.961	961.3	regulate	Run3	regulate/STIM_011.jpg	99
1851.207	1.465	1465.4	regulate	Run3	regulate/STIM_011.jpg	100
1855.789	1.583	1583.0	regulate	Run3	regulate/STIM_011.jpg	99
1859.563	1.326	1326.2	regulate	Run3	regulate/STIM_011.jpg	99
1864.633	0.719	719.1	regulate	Run3	regulate/STIM_012.jpg	99
1867.537	1.587	1586.6	regulate	Run3	regulate/STIM_012.jpg	99
1872.892	0.85	850.5	regulate	Run3	regulate/STIM_012.jpg	99
1877.217	0.85	850.3	regulate	Run3	regulate/STIM_012.jpg	100
1880.854	0.721	720.6	regulate	Run3	regulate/STIM_013.jpg	99
1883.767	1.241	1240.8	regulate	Run3	regulate/STIM_013.jpg	100
1888.066	0.987	986.7	regulate	Run3	regulate/STIM_013.jpg	99
1892.473	1.251	1251.2	regulate	Run3	regulate/STIM_013.jpg	99
1896.487	0.731	731.2	regulate	Run3	regulate/STIM_014.jpg	100
1899.624	1.387	1386.7	regulate	Run3	regulate/STIM_014.jpg	99
1903.239	1.154	1154.3	regulate	Run3	regulate/STIM_014.jpg	100
1907.835	1.518	1518.3	regulate	Run3	regulate/STIM_014.jpg	99
1911.927	1.322	1322.0	regulate	Run3	regulate/STIM_015.jpg	99
1915.288	1.257	1256.6	regulate	Run3	regulate/STIM_015.jpg	100
1918.74	0.752	752.3	regulate	Run3	regulate/STIM_015.jpg	100
1922.447	1.203	1203.0	regulate	Run3	regulate/STIM_015.jpg	99
1926.597	1.233	1233.3	regulate	Run3	regulate/STIM_016.jpg	99
1931.612	1.305	1305.2	regulate	Run3	regulate/STIM_016.jpg	100
1936.172	1.291	1290.7	regulate	Run3	regulate/STIM_016.jpg	100
1940.731	0.968	968.1	regulate	Run3	regulate/STIM_016.jpg	100
1944.607	0.966	965.9	regulate	Run3	regulate/STIM_017.jpg	100
1948.874	1.33	1329.9	regulate	Run3	regulate/STIM_017.jpg	99
1952.762	1.224	1224.2	regulate	Run3	regulate/STIM_017.jpg	100
1957.487	1.108	1107.5	regulate	Run3	regulate/STIM_017.jpg	100
1961.289	1.07	1070.2	regulate	Run3	regulate/STIM_018.jpg	99
1964.838	0.713	713.2	regulate	Run3	regulate/STIM_018.jpg	100
1969.085	0.997	997.1	regulate	Run3	regulate/STIM_018.jpg	100
1972.723	1.506	1505.6	regulate	Run3	regulate/STIM_018.jpg	99
1977.81	1.136	1136.1	regulate	Run3	regulate/STIM_019.jpg	99
1981.421	0.714	714.2	regulate	Run3	regulate/STIM_019.jpg	99
1985.91	0.711	710.6	regulate	Run3	regulate/STIM_019.jpg	99
1989.786	1.43	1429.5	regulate	Run3	regulate/STIM_019.jpg	99
1994.726	0.835	835.3	regulate	Run3	regulate/STIM_020.jpg	99
1999.087	1.335	1334.6	regulate	Run3	regulate/STIM_020.jpg	99
2002.597	0.985	984.7	regulate	Run3	regulate/STIM_020.jpg	100
2007.246	0.759	758.8	regulate	Run3	regulate/STIM_020.jpg	100
2010.704	0.84	840.0	regulate	Run3	regulate/STIM_021.jpg	99
2014.409	0.755	754.7	regulate	Run3	regulate/STIM_021.jpg	99
2018.474	1.434	1433.6	regulate	Run3	regulate/STIM_021.jpg	99
2022.13	0.835	835.2	regulate	Run3	regulate/STIM_021.jpg	100
2025.073	0.862	862.3	regulate	Run3	regulate/STIM_022.jpg	99
2027.973	1.246	1245.5	regulate	Run3	regulate/STIM_022.jpg	99
2032.476	1.426	1425.7	regulate	Run3	regulate/STIM_022.jpg	100
2036.458	1.324	1324.2	regulate	Run3	regulate/STIM_022.jpg	99
2040.839	1.183	1182.7	regulate	Run3	regulate/STIM_023.jpg	100
2044.354	1.521	1520.7	regulate	Run3	regulate/STIM_023.jpg	99
2047.964	1.385	1384.8	regulate	Run3	regulate/STIM_023.jpg	99
2052.725	1.299	1299.4	regulate	Run3	regulate/STIM_023.jpg	100
2056.643	1.137	1136.7	regulate	Run3	regulate/STIM_024.jpg	99
2060.442	1.316	1315.5	regulate	Run3	regulate/STIM_024.jpg	99
2064.688	1.105	1104.8	regulate	Run3	regulate/STIM_024.jpg	100
2068.465	0.944	944.2	regulate	Run3	regulate/STIM_024.jpg	99
2072.045	1.565	1565.0	regulate	Run3	regulate/STIM_025.jpg	99
2076.16	1.445	1444.6	regulate	Run3	regulate/STIM_025.jpg	99
2081.229	1.24	1239.6	regulate	Run3	regulate/STIM_025.jpg	99
2085.067	1.042	1041.6	regulate	Run3	regulate/STIM_025.jpg	100
2089.433	1.487	1487.1	regulate	Run3	regulate/STIM_026.jpg	99
2093.735	1.326	1325.9	regulate	Run3	regulate/STIM_026.jpg	99
2098.269	1.145	1145.3	regulate	Run3	regulate/STIM_026.jpg	100
2102.553	1.502	1502.4	regulate	Run3	regulate/STIM_026.jpg	99
2107.627	1.271	1271.3	regulate	Run3	regulate/STIM_027.jpg	99
2111.481	1.124	1124.3	regulate	Run3	regulate/STIM_027.jpg	99
2115.18	1.61	1610.3	regulate	Run3	regulate/STIM_027.jpg	99
2120.704	1.27	1269.5	regulate	Run3	regulate/STIM_027.jpg	100
2124.599	1.053	1053.0	regulate	Run3	regulate/STIM_028.jpg	100
2129.339	1.296	1296.2	regulate	Run3	regulate/STIM_028.jpg	99
2133.856	0.856	856.1	regulate	Run3	regulate/STIM_028.jpg	99
2137.646	0.972	972.1	regulate	Run3	regulate/STIM_028.jpg	99
2141.304	1.083	1082.8	regulate	Run3	regulate/STIM_029.jpg	99
2145.582	1.272	1271.7	regulate	Run3	regulate/STIM_029.jpg	100
2150.427	1.021	1021.2	regulate	Run3	regulate/STIM_029.jpg	99
2155.075	1.488	1487.9	regulate	Run3	regulate/STIM_029.jpg	99
2158.67	1.042	1041.7	observe	Run3	observe/STIM_000.jpg	100
2162.136	0.931	930.7	observe	Run3	observe/STIM_000.jpg	99
2166.606	0.958	958.4	observe	Run3	observe/STIM_000.jpg	100
2171.113	1.059	1059.3	observe	Run3	observe/STIM_000.jpg	99
2175.889	0.704	703.5	observe	Run3	observe/STIM_001.jpg	100
2180.152	0.538	538.2	observe	Run3	observe/STIM_001.jpg	100
2184.154	0.808	808.0	observe	Run3	observe/STIM_001.jpg	100
2188.375	0.947	946.7	observe	Run3	observe/STIM_001.jpg	99
2192.124	0.809	809.0	observe	Run3	observe/STIM_002.jpg	99
2195.829	0.631	630.6	observe	Run3	observe/STIM_002.jpg	99
2199.819	0.71	710.0	observe	Run3	observe/STIM_002.jpg	100
2203.123	0.539	539.0	observe	Run3	observe/STIM_002.jpg	100
2207.188	0.882	882.2	observe	Run3	observe/STIM_003.jpg	100
2211.84	1.014	1014.4	observe	Run3	observe/STIM_003.jpg	100
2215.0	0.766	765.5	observe	Run3	observe/STIM_003.jpg	99
2218.267	0.966	965.5	observe	Run3	observe/STIM_003.jpg	99
2223.078	0.766	765.6	observe	Run3	observe/STIM_004.jpg	100
2227.631	0.953	952.6	observe	Run3	observe/STIM_004.jpg	100
2231.493	0.683	683.0	observe	Run3	observe/STIM_004.jpg	100
2235.454	0.86	859.6	observe	Run3	observe/STIM_004.jpg	99
2239.087	0.649	648.9	observe	Run3	observe/STIM_005.jpg	99
2242.923	0.575	575.1	observe	Run3	observe/STIM_005.jpg	99
2247.434	1.058	1057.6	observe	Run3	observe/STIM_005.jpg	100
2252.261	0.86	860.5	observe	Run3	observe/STIM_005.jpg	100
2256.536	0.669	668.6	observe	Run3	observe/STIM_006.jpg	99
2260.405	1.01	1010.0	observe	Run3	observe/STIM_006.jpg	99
2263.805	0.925	925.0	observe	Run3	observe/STIM_006.jpg	100
2268.221	0.57	570.5	observe	Run3	observe/STIM_006.jpg	100
2271.476	0.723	722.9	observe	Run3	observe/STIM_007.jpg	99
2275.157	0.818	817.7	observe	Run3	observe/STIM_007.jpg	100
2278.134	0.599	599.0	observe	Run3	observe/STIM_007.jpg	100
2282.366	0.96	959.6	observe	Run3	observe/STIM_007.jpg	100
2286.308	0.723	722.6	observe	Run3	observe/STIM_008.jpg	100
2289.437	0.651	650.7	observe	Run3	observe/STIM_008.jpg	99
2293.852	0.953	953.1	observe	Run3	observe/STIM_008.jpg	100
2298.636	1.042	1042.1	observe	Run3	observe/STIM_008.jpg	99
2303.26	0.826	825.5	observe	Run3	observe/STIM_009.jpg	100
2308.079	0.589	589.3	observe	Run3	observe/STIM_009.jpg	100
2310.96	1.057	1057.0	observe	Run3	observe/STIM_009.jpg	100
2314.961	0.872	872.0	observe	Run3	observe/STIM_009.jpg	99
2318.708	0.59	589.7	observe	Run3	observe/STIM_010.jpg	100
2321.998	0.689	689.3	observe	Run3	observe/STIM_010.jpg	99
2325.395	0.571	570.8	observe	Run3	observe/STIM_010.jpg	100
2329.601	0.656	656.4	observe	Run3	observe/STIM_010.jpg	99
2333.848	1.041	1041.3	observe	Run3	observe/STIM_011.jpg	99
2337.23	0.907	906.8	observe	Run3	observe/STIM_011.jpg	99
2341.759	1.052	1052.3	observe	Run3	observe/STIM_011.jpg	100
2344.998	0.985	984.7	observe	Run3	observe/STIM_011.jpg	99
2349.694	0.98	980.5	observe	Run3	observe/STIM_012.jpg	99
2353.527	0.531	530.8	observe	Run3	observe/STIM_012.jpg	100
2357.949	0.721	720.8	observe	Run3	observe/STIM_012.jpg	100
2361.247	0.715	715.0	observe	Run3	observe/STIM_012.jpg	100
2364.331	0.869	868.7	observe	Run3	observe/STIM_013.jpg	99
2367.885	0.882	881.7	observe	Run3	observe/STIM_013.jpg	99
2371.414	0.686	685.8	observe	Run3	observe/STIM_013.jpg	99
2375.266	1.005	1005.4	observe	Run3	observe/STIM_013.jpg	100
2379.128	0.707	706.8	observe	Run3	observe/STIM_014.jpg	100
2383.791	0.553	552.9	observe	Run3	observe/STIM_014.jpg	100
2387.411	0.897	896.6	observe	Run3	observe/STIM_014.jpg	100
2392.188	0.682	682.5	observe	Run3	observe/STIM_014.jpg	100
2395.949	0.643	643.1	observe	Run3	observe/STIM_015.jpg	100
2400.387	1.042	1042.5	observe	Run3	observe/STIM_015.jpg	99
2404.66	0.712	711.9	observe	Run3	observe/STIM_015.jpg	99
2408.036	1.054	1053.5	observe	Run3	observe/STIM_015.jpg	100
2412.2	0.844	844.0	observe	Run3	observe/STIM_016.jpg	99
2415.873	0.922	921.7	observe	Run3	observe/STIM_016.jpg	99
2420.322	0.708	707.7	observe	Run3	observe/STIM_016.jpg	100
2424.534	0.752	751.7	observe	Run3	observe/STIM_016.jpg	99
2429.286	0.817	816.6	observe	Run3	observe/STIM_017.jpg	99
2432.119	0.729	728.6	observe	Run3	observe/STIM_017.jpg	100
2435.057	0.538	537.8	observe	Run3	observe/STIM_017.jpg	100
2439.453	0.537	537.3	observe	Run3	observe/STIM_017.jpg	99
2443.571	0.618	618.2	observe	Run3	observe/STIM_018.jpg	100
2446.747	0.91	910.5	observe	Run3	observe/STIM_018.jpg	99
2450.657	0.897	896.9	observe	Run3	observe/STIM_018.jpg	100
2453.829	0.868	868.0	observe	Run3	observe/STIM_018.jpg	100
2457.259	0.846	846.3	observe	Run3	observe/STIM_019.jpg	99
2462.03	0.929	928.7	observe	Run3	observe/STIM_019.jpg	100
2465.119	1.032	1032.1	observe	Run3	observe/STIM_019.jpg	99
2468.65	0.774	774.1	observe	Run3	observe/STIM_019.jpg	99
