onset	duration	accuracy	trial_type	learning_stage	stimulus
0.0	1.619	incorrect	regulate	Run1	regulate/STIM_000.jpg
4.615	2.939	correct	regulate	Run1	regulate/STIM_000.jpg
10.807	2.847	incorrect	regulate	Run1	regulate/STIM_000.jpg
17.336	1.707	correct	regulate	Run1	regulate/STIM_000.jpg
22.67	2.292	correct	regulate	Run1	regulate/STIM_001.jpg
28.294	3.183	correct	regulate	Run1	regulate/STIM_001.jpg
34.999	1.473	incorrect	regulate	Run1	regulate/STIM_001.jpg
38.851	2.57	correct	regulate	Run1	regulate/STIM_001.jpg
44.725	1.822	correct	regulate	Run1	regulate/STIM_002.jpg
49.103	2.972	correct	regulate	Run1	regulate/STIM_002.jpg
54.659	1.959	correct	regulate	Run1	regulate/STIM_002.jpg
58.91	2.182	correct	regulate	Run1	regulate/STIM_002.jpg
63.704	1.555	incorrect	regulate	Run1	regulate/STIM_003.jpg
68.098	2.173	correct	regulate	Run1	regulate/STIM_003.jpg
74.217	2.803	correct	regulate	Run1	regulate/STIM_003.jpg
79.406	1.694	correct	regulate	Run1	regulate/STIM_003.jpg
83.809	3.029	incorrect	regulate	Run1	regulate/STIM_004.jpg
90.309	2.15	correct	regulate	Run1	regulate/STIM_004.jpg
95.719	3.0	correct	regulate	Run1	regulate/STIM_004.jpg
101.7	1.371	correct	regulate	Run1	regulate/STIM_004.jpg
106.288	2.95	correct	regulate	Run1	regulate/STIM_005.jpg
111.503	2.814	correct	regulate	Run1	regulate/STIM_005.jpg
116.601	2.992	correct	regulate	Run1	regulate/STIM_005.jpg
123.387	1.233	correct	regulate	Run1	regulate/STIM_005.jpg
127.229	2.918	correct	regulate	Run1	regulate/STIM_006.jpg
133.044	1.695	correct	regulate	Run1	regulate/STIM_006.jpg
138.541	1.693	correct	regulate	Run1	regulate/STIM_006.jpg
143.596	2.484	correct	regulate	Run1	regulate/STIM_006.jpg
148.368	2.997	correct	regulate	Run1	regulate/STIM_007.jpg
154.855	2.582	correct	regulate	Run1	regulate/STIM_007.jpg
160.887	1.78	correct	regulate	Run1	regulate/STIM_007.jpg
165.739	2.48	correct	regulate	Run1	regulate/STIM_007.jpg
171.914	2.266	correct	regulate	Run1	regulate/STIM_008.jpg
176.404	2.407	correct	regulate	Run1	regulate/STIM_008.jpg
180.863	2.544	correct	regulate	Run1	regulate/STIM_008.jpg
186.147	1.949	incorrect	regulate	Run1	regulate/STIM_008.jpg
191.648	2.704	correct	regulate	Run1	regulate/STIM_009.jpg
196.536	2.828	correct	regulate	Run1	regulate/STIM_009.jpg
202.327	2.094	correct	regulate	Run1	regulate/STIM_009.jpg
207.359	1.946	correct	regulate	Run1	regulate/STIM_009.jpg
211.386	2.819	incorrect	regulate	Run1	regulate/STIM_010.jpg
216.496	2.39	incorrect	regulate	Run1	regulate/STIM_010.jpg
222.994	1.455	correct	regulate	Run1	regulate/STIM_010.jpg
226.597	2.682	incorrect	regulate	Run1	regulate/STIM_010.jpg
232.731	2.132	incorrect	regulate	Run1	regulate/STIM_011.jpg
238.379	2.365	incorrect	regulate	Run1	regulate/STIM_011.jpg
244.691	1.615	correct	regulate	Run1	regulate/STIM_011.jpg
250.261	2.559	correct	regulate	Run1	regulate/STIM_011.jpg
256.162	2.984	correct	regulate	Run1	regulate/STIM_012.jpg
262.336	2.261	correct	regulate	Run1	regulate/STIM_012.jpg
267.386	1.716	correct	regulate	Run1	regulate/STIM_012.jpg
271.138	1.555	correct	regulate	Run1	regulate/STIM_012.jpg
276.622	3.077	incorrect	regulate	Run1	regulate/STIM_013.jpg
282.214	2.62	incorrect	regulate	Run1	regulate/STIM_013.jpg
288.428	1.311	correct	regulate	Run1	regulate/STIM_013.jpg
293.342	1.856	correct	regulate	Run1	regulate/STIM_013.jpg
298.684	2.785	correct	regulate	Run1	regulate/STIM_014.jpg
305.119	2.259	correct	regulate	Run1	regulate/STIM_014.jpg
309.788	1.671	correct	regulate	Run1	regulate/STIM_014.jpg
314.519	2.731	correct	regulate	Run1	regulate/STIM_014.jpg
319.53	3.203	correct	regulate	Run1	regulate/STIM_015.jpg
325.959	2.143	incorrect	regulate	Run1	regulate/STIM_015.jpg
330.865	2.356	correct	regulate	Run1	regulate/STIM_015.jpg
337.108	2.37	incorrect	regulate	Run1	regulate/STIM_015.jpg
343.581	1.991	correct	regulate	Run1	regulate/STIM_016.jpg
347.893	3.201	correct	regulate	Run1	regulate/STIM_016.jpg
355.073	2.43	correct	regulate	Run1	regulate/STIM_016.jpg
361.494	1.594	correct	regulate	Run1	regulate/STIM_016.jpg
366.649	1.735	correct	regulate	Run1	regulate/STIM_017.jpg
371.012	2.699	correct	regulate	Run1	regulate/STIM_017.jpg
376.667	1.885	correct	regulate	Run1	regulate/STIM_017.jpg
381.3	1.711	correct	regulate	Run1	regulate/STIM_017.jpg
385.591	2.535	incorrect	regulate	Run1	regulate/STIM_018.jpg
391.521	2.948	incorrect	regulate	Run1	regulate/STIM_018.jpg
396.907	2.87	correct	regulate	Run1	regulate/STIM_018.jpg
403.139	1.917	correct	regulate	Run1	regulate/STIM_018.jpg
408.73	1.496	correct	regulate	Run1	regulate/STIM_019.jpg
413.592	1.899	correct	regulate	Run1	regulate/STIM_019.jpg
419.432	2.42	correct	regulate	Run1	regulate/STIM_019.jpg
424.799	2.526	correct	regulate	Run1	regulate/STIM_019.jpg
429.423	2.977	correct	regulate	Run1	regulate/STIM_020.jpg
436.148	1.857	correct	regulate	Run1	regulate/STIM_020.jpg
440.231	1.674	incorrect	regulate	Run1	regulate/STIM_020.jpg
444.437	1.814	correct	regulate	Run1	regulate/STIM_020.jpg
448.736	1.802	correct	regulate	Run1	regulate/STIM_021.jpg
452.635	1.558	incorrect	regulate	Run1	regulate/STIM_021.jpg
457.701	2.987	correct	regulate	Run1	regulate/STIM_021.jpg
462.892	2.037	incorrect	regulate	Run1	regulate/STIM_021.jpg
468.72	2.936	correct	regulate	Run1	regulate/STIM_022.jpg
475.412	3.132	correct	regulate	Run1	regulate/STIM_022.jpg
482.633	1.723	correct	regulate	Run1	regulate/STIM_022.jpg
488.18	2.935	incorrect	regulate	Run1	regulate/STIM_022.jpg
494.648	1.752	correct	regulate	Run1	regulate/STIM_023.jpg
500.11	2.387	correct	regulate	Run1	regulate/STIM_023.jpg
505.787	2.255	correct	regulate	Run1	regulate/STIM_023.jpg
511.784	1.719	correct	regulate	Run1	regulate/STIM_023.jpg
515.637	2.357	incorrect	regulate	Run1	regulate/STIM_024.jpg
521.975	2.452	correct	regulate	Run1	regulate/STIM_024.jpg
526.734	1.554	incorrect	regulate	Run1	regulate/STIM_024.jpg
532.342	1.427	correct	regulate	Run1	regulate/STIM_024.jpg
537.412	2.68	correct	regulate	Run1	regulate/STIM_025.jpg
542.454	3.115	correct	regulate	Run1	regulate/STIM_025.jpg
548.305	1.463	incorrect	regulate	Run1	regulate/STIM_025.jpg
553.292	1.866	correct	regulate	Run1	regulate/STIM_025.jpg
558.664	3.172	correct	regulate	Run1	regulate/STIM_026.jpg
564.563	2.421	incorrect	regulate	Run1	regulate/STIM_026.jpg
569.848	1.566	correct	regulate	Run1	regulate/STIM_026.jpg
574.32	1.903	incorrect	regulate	Run1	regulate/STIM_026.jpg
578.423	2.235	correct	regulate	Run1	regulate/STIM_027.jpg
582.717	1.869	incorrect	regulate	Run1	regulate/STIM_027.jpg
587.127	2.061	incorrect	regulate	Run1	regulate/STIM_027.jpg
592.941	2.835	correct	regulate	Run1	regulate/STIM_027.jpg
597.908	2.848	correct	regulate	Run1	regulate/STIM_028.jpg
603.278	2.035	correct	regulate	Run1	regulate/STIM_028.jpg
608.463	2.915	correct	regulate	Run1	regulate/STIM_028.jpg
614.925	2.697	incorrect	regulate	Run1	regulate/STIM_028.jpg
620.459	2.252	correct	regulate	Run1	regulate/STIM_029.jpg
626.112	2.403	incorrect	regulate	Run1	regulate/STIM_029.jpg
631.662	2.26	incorrect	regulate	Run1	regulate/STIM_029.jpg
636.593	2.161	correct	regulate	Run1	regulate/STIM_029.jpg
642.478	1.556	correct	observe	Run1	observe/STIM_000.jpg
646.456	1.419	correct	observe	Run1	observe/STIM_000.jpg
651.884	1.443	correct	observe	Run1	observe/STIM_000.jpg
656.709	0.772	correct	observe	Run1	observe/STIM_000.jpg
660.129	1.109	incorrect	observe	Run1	observe/STIM_001.jpg
663.958	1.161	correct	observe	Run1	observe/STIM_001.jpg
667.995	0.786	correct	observe	Run1	observe/STIM_001.jpg
671.47	1.439	correct	observe	Run1	observe/STIM_001.jpg
675.169	1.395	incorrect	observe	Run1	observe/STIM_002.jpg
678.935	1.178	correct	observe	Run1	observe/STIM_002.jpg
684.031	1.213	correct	observe	Run1	observe/STIM_002.jpg
688.868	1.392	correct	observe	Run1	observe/STIM_002.jpg
693.657	0.96	correct	observe	Run1	observe/STIM_003.jpg
698.252	1.406	correct	observe	Run1	observe/STIM_003.jpg
701.709	1.127	correct	observe	Run1	observe/STIM_003.jpg
705.491	1.296	correct	observe	Run1	observe/STIM_003.jpg
710.411	0.78	correct	observe	Run1	observe/STIM_004.jpg
714.502	1.049	correct	observe	Run1	observe/STIM_004.jpg
719.185	1.264	correct	observe	Run1	observe/STIM_004.jpg
722.926	1.139	correct	observe	Run1	observe/STIM_004.jpg
727.231	1.001	correct	observe	Run1	observe/STIM_005.jpg
731.972	1.389	correct	observe	Run1	observe/STIM_005.jpg
736.861	1.492	correct	observe	Run1	observe/STIM_005.jpg
741.056	1.116	correct	observe	Run1	observe/STIM_005.jpg
744.899	1.156	correct	observe	Run1	observe/STIM_006.jpg
748.045	0.862	correct	observe	Run1	observe/STIM_006.jpg
751.043	0.93	correct	observe	Run1	observe/STIM_006.jpg
755.373	1.36	correct	observe	Run1	observe/STIM_006.jpg
759.681	1.226	correct	observe	Run1	observe/STIM_007.jpg
763.753	1.442	correct	observe	Run1	observe/STIM_007.jpg
767.188	1.301	correct	observe	Run1	observe/STIM_007.jpg
770.959	1.175	correct	observe	Run1	observe/STIM_007.jpg
775.159	1.102	correct	observe	Run1	observe/STIM_008.jpg
779.69	1.434	correct	observe	Run1	observe/STIM_008.jpg
783.316	1.362	incorrect	observe	Run1	observe/STIM_008.jpg
787.557	0.874	correct	observe	Run1	observe/STIM_008.jpg
791.593	1.286	correct	observe	Run1	observe/STIM_009.jpg
796.101	1.192	correct	observe	Run1	observe/STIM_009.jpg
799.99	1.211	correct	observe	Run1	observe/STIM_009.jpg
804.395	0.97	incorrect	observe	Run1	observe/STIM_009.jpg
808.547	0.871	correct	observe	Run1	observe/STIM_010.jpg
812.291	0.978	correct	observe	Run1	observe/STIM_010.jpg
815.482	1.235	correct	observe	Run1	observe/STIM_010.jpg
819.811	1.289	correct	observe	Run1	observe/STIM_010.jpg
825.05	0.832	correct	observe	Run1	observe/STIM_011.jpg
828.479	1.065	correct	observe	Run1	observe/STIM_011.jpg
833.323	1.084	correct	observe	Run1	observe/STIM_011.jpg
837.134	1.349	correct	observe	Run1	observe/STIM_011.jpg
840.973	1.533	correct	observe	Run1	observe/STIM_012.jpg
844.83	0.719	correct	observe	Run1	observe/STIM_012.jpg
847.919	1.309	correct	observe	Run1	observe/STIM_012.jpg
852.739	0.976	correct	observe	Run1	observe/STIM_012.jpg
857.095	1.17	correct	observe	Run1	observe/STIM_013.jpg
861.597	1.5	correct	observe	Run1	observe/STIM_013.jpg
865.68	1.273	correct	observe	Run1	observe/STIM_013.jpg
870.602	1.149	correct	observe	Run1	observe/STIM_013.jpg
874.963	0.808	correct	observe	Run1	observe/STIM_014.jpg
878.812	1.094	correct	observe	Run1	observe/STIM_014.jpg
882.809	1.25	correct	observe	Run1	observe/STIM_014.jpg
888.086	1.243	correct	observe	Run1	observe/STIM_014.jpg
891.89	1.147	correct	observe	Run1	observe/STIM_015.jpg
895.66	1.199	correct	observe	Run1	observe/STIM_015.jpg
899.248	1.178	correct	observe	Run1	observe/STIM_015.jpg
902.555	1.224	correct	observe	Run1	observe/STIM_015.jpg
906.69	1.368	correct	observe	Run1	observe/STIM_016.jpg
911.184	1.18	correct	observe	Run1	observe/STIM_016.jpg
915.202	1.163	correct	observe	Run1	observe/STIM_016.jpg
919.391	0.828	correct	observe	Run1	observe/STIM_016.jpg
922.933	1.292	correct	observe	Run1	observe/STIM_017.jpg
926.4	1.417	correct	observe	Run1	observe/STIM_017.jpg
930.011	1.445	incorrect	observe	Run1	observe/STIM_017.jpg
934.231	0.939	correct	observe	Run1	observe/STIM_017.jpg
939.065	0.985	correct	observe	Run1	observe/STIM_018.jpg
943.774	1.389	incorrect	observe	Run1	observe/STIM_018.jpg
948.042	1.474	correct	observe	Run1	observe/STIM_018.jpg
953.498	1.538	correct	observe	Run1	observe/STIM_018.jpg
958.195	0.895	correct	observe	Run1	observe/STIM_019.jpg
962.685	1.239	correct	observe	Run1	observe/STIM_019.jpg
967.063	1.115	correct	observe	Run1	observe/STIM_019.jpg
971.489	1.452	correct	observe	Run1	observe/STIM_019.jpg
976.056	2.9	correct	regulate	Run2	regulate/STIM_000.jpg
982.992	1.592	correct	regulate	Run2	regulate/STIM_000.jpg
987.461	2.091	correct	regulate	Run2	regulate/STIM_000.jpg
992.944	1.672	correct	regulate	Run2	regulate/STIM_000.jpg
997.122	2.118	correct	regulate	Run2	regulate/STIM_001.jpg
1003.1	1.963	correct	regulate	Run2	regulate/STIM_001.jpg
1008.771	1.993	correct	regulate	Run2	regulate/STIM_001.jpg
1014.019	1.99	correct	regulate	Run2	regulate/STIM_001.jpg
1018.231	1.928	correct	regulate	Run2	regulate/STIM_002.jpg
1023.572	2.522	correct	regulate	Run2	regulate/STIM_002.jpg
1028.558	2.504	correct	regulate	Run2	regulate/STIM_002.jpg
1033.321	1.172	correct	regulate	Run2	regulate/STIM_002.jpg
1038.532	1.495	correct	regulate	Run2	regulate/STIM_003.jpg
1044.052	2.268	correct	regulate	Run2	regulate/STIM_003.jpg
1049.853	1.164	correct	regulate	Run2	regulate/STIM_003.jpg
1054.42	2.105	incorrect	regulate	Run2	regulate/STIM_003.jpg
1060.019	2.875	incorrect	regulate	Run2	regulate/STIM_004.jpg
1066.804	2.033	correct	regulate	Run2	regulate/STIM_004.jpg
1071.45	1.501	correct	regulate	Run2	regulate/STIM_004.jpg
1076.108	2.184	correct	regulate	Run2	regulate/STIM_004.jpg
1080.435	2.303	correct	regulate	Run2	regulate/STIM_005.jpg
1086.617	2.758	correct	regulate	Run2	regulate/STIM_005.jpg
1092.74	2.303	correct	regulate	Run2	regulate/STIM_005.jpg
1098.542	1.069	correct	regulate	Run2	regulate/STIM_005.jpg
1103.694	2.15	correct	regulate	Run2	regulate/STIM_006.jpg
1109.82	2.679	correct	regulate	Run2	regulate/STIM_006.jpg
1115.023	1.449	correct	regulate	Run2	regulate/STIM_006.jpg
1120.237	1.312	correct	regulate	Run2	regulate/STIM_006.jpg
1124.041	2.433	incorrect	regulate	Run2	regulate/STIM_007.jpg
1129.059	2.098	correct	regulate	Run2	regulate/STIM_007.jpg
1134.476	1.83	incorrect	regulate	Run2	regulate/STIM_007.jpg
1139.972	2.29	incorrect	regulate	Run2	regulate/STIM_007.jpg
1145.794	1.68	correct	regulate	Run2	regulate/STIM_008.jpg
1150.868	2.183	correct	regulate	Run2	regulate/STIM_008.jpg
1156.688	2.468	correct	regulate	Run2	regulate/STIM_008.jpg
1161.858	1.875	correct	regulate	Run2	regulate/STIM_008.jpg
1165.821	2.401	correct	regulate	Run2	regulate/STIM_009.jpg
1171.785	2.727	correct	regulate	Run2	regulate/STIM_009.jpg
1176.874	1.677	correct	regulate	Run2	regulate/STIM_009.jpg
1181.102	2.001	correct	regulate	Run2	regulate/STIM_009.jpg
1186.365	1.896	correct	regulate	Run2	regulate/STIM_010.jpg
1190.873	1.607	correct	regulate	Run2	regulate/STIM_010.jpg
1195.215	2.141	correct	regulate	Run2	regulate/STIM_010.jpg
1201.42	1.874	incorrect	regulate	Run2	regulate/STIM_010.jpg
1206.89	1.898	incorrect	regulate	Run2	regulate/STIM_011.jpg
1212.086	2.176	correct	regulate	Run2	regulate/STIM_011.jpg
1217.475	2.342	correct	regulate	Run2	regulate/STIM_011.jpg
1223.521	2.322	correct	regulate	Run2	regulate/STIM_011.jpg
1229.45	1.53	incorrect	regulate	Run2	regulate/STIM_012.jpg
1234.975	1.666	incorrect	regulate	Run2	regulate/STIM_012.jpg
1240.009	2.44	correct	regulate	Run2	regulate/STIM_012.jpg
1245.799	1.763	correct	regulate	Run2	regulate/STIM_012.jpg
1250.904	2.303	correct	regulate	Run2	regulate/STIM_013.jpg
1257.211	2.66	correct	regulate	Run2	regulate/STIM_013.jpg
1262.435	2.426	correct	regulate	Run2	regulate/STIM_013.jpg
1267.984	2.216	correct	regulate	Run2	regulate/STIM_013.jpg
1273.507	2.243	incorrect	regulate	Run2	regulate/STIM_014.jpg
1279.528	1.504	correct	regulate	Run2	regulate/STIM_014.jpg
1283.693	2.035	correct	regulate	Run2	regulate/STIM_014.jpg
1289.8	1.555	correct	regulate	Run2	regulate/STIM_014.jpg
1294.925	2.663	incorrect	regulate	Run2	regulate/STIM_015.jpg
1301.148	2.196	correct	regulate	Run2	regulate/STIM_015.jpg
1307.295	1.747	correct	regulate	Run2	regulate/STIM_015.jpg
1311.17	2.067	correct	regulate	Run2	regulate/STIM_015.jpg
1315.794	2.5	incorrect	regulate	Run2	regulate/STIM_016.jpg
1322.267	2.254	correct	regulate	Run2	regulate/STIM_016.jpg
1326.611	1.613	correct	regulate	Run2	regulate/STIM_016.jpg
1331.24	1.22	correct	regulate	Run2	regulate/STIM_016.jpg
1334.877	1.609	correct	regulate	Run2	regulate/STIM_017.jpg
1339.544	1.994	correct	regulate	Run2	regulate/STIM_017.jpg
1343.935	1.764	correct	regulate	Run2	regulate/STIM_017.jpg
1348.909	2.247	correct	regulate	Run2	regulate/STIM_017.jpg
1353.52	1.368	correct	regulate	Run2	regulate/STIM_018.jpg
1356.937	1.568	correct	regulate	Run2	regulate/STIM_018.jpg
1361.182	1.67	correct	regulate	Run2	regulate/STIM_018.jpg
1365.5	1.468	correct	regulate	Run2	regulate/STIM_018.jpg
1369.66	2.637	correct	regulate	Run2	regulate/STIM_019.jpg
1376.371	1.455	correct	regulate	Run2	regulate/STIM_019.jpg
1381.269	2.188	correct	regulate	Run2	regulate/STIM_019.jpg
1385.948	1.715	correct	regulate	Run2	regulate/STIM_019.jpg
1390.678	2.056	correct	regulate	Run2	regulate/STIM_020.jpg
1396.344	2.42	correct	regulate	Run2	regulate/STIM_020.jpg
1401.095	1.626	correct	regulate	Run2	regulate/STIM_020.jpg
1406.169	1.608	correct	regulate	Run2	regulate/STIM_020.jpg
1411.101	1.631	correct	regulate	Run2	regulate/STIM_021.jpg
1415.811	1.436	correct	regulate	Run2	regulate/STIM_021.jpg
1420.469	2.444	correct	regulate	Run2	regulate/STIM_021.jpg
1426.725	2.066	correct	regulate	Run2	regulate/STIM_021.jpg
1431.834	1.366	correct	regulate	Run2	regulate/STIM_022.jpg
1436.744	1.561	correct	regulate	Run2	regulate/STIM_022.jpg
1442.051	1.204	correct	regulate	Run2	regulate/STIM_022.jpg
1447.059	2.202	correct	regulate	Run2	regulate/STIM_022.jpg
1452.476	2.48	correct	regulate	Run2	regulate/STIM_023.jpg
1457.214	2.389	correct	regulate	Run2	regulate/STIM_023.jpg
1463.145	1.806	correct	regulate	Run2	regulate/STIM_023.jpg
1467.902	2.18	correct	regulate	Run2	regulate/STIM_023.jpg
1473.882	2.296	correct	regulate	Run2	regulate/STIM_024.jpg
1478.375	2.454	correct	regulate	Run2	regulate/STIM_024.jpg
1484.087	2.28	correct	regulate	Run2	regulate/STIM_024.jpg
1488.489	1.594	correct	regulate	Run2	regulate/STIM_024.jpg
1493.26	1.343	correct	regulate	Run2	regulate/STIM_025.jpg
1497.166	1.372	correct	regulate	Run2	regulate/STIM_025.jpg
1501.026	2.083	correct	regulate	Run2	regulate/STIM_025.jpg
1506.865	1.08	correct	regulate	Run2	regulate/STIM_025.jpg
1511.459	2.525	correct	regulate	Run2	regulate/STIM_026.jpg
1517.369	2.229	incorrect	regulate	Run2	regulate/STIM_026.jpg
1522.822	1.669	correct	regulate	Run2	regulate/STIM_026.jpg
1527.429	1.892	correct	regulate	Run2	regulate/STIM_026.jpg
1531.633	2.28	correct	regulate	Run2	regulate/STIM_027.jpg
1537.466	2.4	correct	regulate	Run2	regulate/STIM_027.jpg
1542.898	2.405	correct	regulate	Run2	regulate/STIM_027.jpg
1547.448	1.495	correct	regulate	Run2	regulate/STIM_027.jpg
1551.748	2.603	correct	regulate	Run2	regulate/STIM_028.jpg
1557.301	2.544	correct	regulate	Run2	regulate/STIM_028.jpg
1562.586	2.468	correct	regulate	Run2	regulate/STIM_028.jpg
1568.854	1.104	correct	regulate	Run2	regulate/STIM_028.jpg
1572.154	2.071	incorrect	regulate	Run2	regulate/STIM_029.jpg
1576.742	2.695	correct	regulate	Run2	regulate/STIM_029.jpg
1582.573	2.558	correct	regulate	Run2	regulate/STIM_029.jpg
1587.672	1.457	correct	regulate	Run2	regulate/STIM_029.jpg
1591.355	1.286	correct	observe	Run2	observe/STIM_000.jpg
1595.773	1.361	correct	observe	Run2	observe/STIM_000.jpg
1599.481	0.814	incorrect	observe	Run2	observe/STIM_000.jpg
1602.764	1.231	correct	observe	Run2	observe/STIM_000.jpg
1607.308	1.221	correct	observe	Run2	observe/STIM_001.jpg
1610.981	1.255	incorrect	observe	Run2	observe/STIM_001.jpg
1614.861	1.428	incorrect	observe	Run2	observe/STIM_001.jpg
1619.121	1.333	correct	observe	Run2	observe/STIM_001.jpg
1623.156	0.84	correct	observe	Run2	observe/STIM_002.jpg
1626.941	1.422	correct	observe	Run2	observe/STIM_002.jpg
1631.959	1.125	incorrect	observe	Run2	observe/STIM_002.jpg
1636.408	0.803	correct	observe	Run2	observe/STIM_002.jpg
1639.737	1.346	correct	observe	Run2	observe/STIM_003.jpg
1644.025	1.204	incorrect	observe	Run2	observe/STIM_003.jpg
1648.244	1.385	correct	observe	Run2	observe/STIM_003.jpg
1651.988	1.264	correct	observe	Run2	observe/STIM_003.jpg
1655.536	0.831	incorrect	observe	Run2	observe/STIM_004.jpg
1659.895	0.704	correct	observe	Run2	observe/STIM_004.jpg
1663.988	1.069	correct	observe	Run2	observe/STIM_004.jpg
1667.224	0.888	correct	observe	Run2	observe/STIM_004.jpg
1671.948	1.366	correct	observe	Run2	observe/STIM_005.jpg
1675.781	1.191	correct	observe	Run2	observe/STIM_005.jpg
1680.531	1.4	incorrect	observe	Run2	observe/STIM_005.jpg
1684.503	1.065	correct	observe	Run2	observe/STIM_005.jpg
1688.145	1.257	correct	observe	Run2	observe/STIM_006.jpg
1692.722	1.026	correct	observe	Run2	observe/STIM_006.jpg
1696.841	1.556	correct	observe	Run2	observe/STIM_006.jpg
1701.53	0.965	correct	observe	Run2	observe/STIM_006.jpg
1705.182	0.928	correct	observe	Run2	observe/STIM_007.jpg
1708.673	0.938	correct	observe	Run2	observe/STIM_007.jpg
1712.582	1.12	correct	observe	Run2	observe/STIM_007.jpg
1717.201	1.137	correct	observe	Run2	observe/STIM_007.jpg
1720.36	1.176	incorrect	observe	Run2	observe/STIM_008.jpg
1723.816	1.053	correct	observe	Run2	observe/STIM_008.jpg
1728.626	1.226	correct	observe	Run2	observe/STIM_008.jpg
1733.591	1.242	correct	observe	Run2	observe/STIM_008.jpg
1737.06	0.883	correct	observe	Run2	observe/STIM_009.jpg
1740.46	1.078	incorrect	observe	Run2	observe/STIM_009.jpg
1745.109	1.146	incorrect	observe	Run2	observe/STIM_009.jpg
1749.432	1.466	correct	observe	Run2	observe/STIM_009.jpg
1754.416	1.33	correct	observe	Run2	observe/STIM_010.jpg
1758.762	0.92	correct	observe	Run2	observe/STIM_010.jpg
1762.009	1.515	correct	observe	Run2	observe/STIM_010.jpg
1766.88	1.481	incorrect	observe	Run2	observe/STIM_010.jpg
1771.393	1.495	incorrect	observe	Run2	observe/STIM_011.jpg
1775.615	0.763	correct	observe	Run2	observe/STIM_011.jpg
1779.352	1.054	correct	observe	Run2	observe/STIM_011.jpg
1782.857	1.497	correct	observe	Run2	observe/STIM_011.jpg
1787.062	1.045	correct	observe	Run2	observe/STIM_012.jpg
1791.946	0.678	correct	observe	Run2	observe/STIM_012.jpg
1796.529	0.924	correct	observe	Run2	observe/STIM_012.jpg
1799.539	1.323	correct	observe	Run2	observe/STIM_012.jpg
1803.637	1.583	correct	observe	Run2	observe/STIM_013.jpg
1807.937	1.54	correct	observe	Run2	observe/STIM_013.jpg
1811.453	1.246	incorrect	observe	Run2	observe/STIM_013.jpg
1815.002	1.302	incorrect	observe	Run2	observe/STIM_013.jpg
1819.187	0.807	correct	observe	Run2	observe/STIM_014.jpg
1822.9	1.3	correct	observe	Run2	observe/STIM_014.jpg
1827.636	1.28	correct	observe	Run2	observe/STIM_014.jpg
1832.285	1.405	incorrect	observe	Run2	observe/STIM_014.jpg
1836.402	1.054	correct	observe	Run2	observe/STIM_015.jpg
1840.189	0.929	incorrect	observe	Run2	observe/STIM_015.jpg
1843.821	1.633	incorrect	observe	Run2	observe/STIM_015.jpg
1847.758	1.293	correct	observe	Run2	observe/STIM_015.jpg
1852.594	0.867	correct	observe	Run2	observe/STIM_016.jpg
1856.503	1.15	correct	observe	Run2	observe/STIM_016.jpg
1859.835	0.828	correct	observe	Run2	observe/STIM_016.jpg
1863.452	1.265	correct	observe	Run2	observe/STIM_016.jpg
1866.824	1.164	correct	observe	Run2	observe/STIM_017.jpg
1871.795	1.314	incorrect	observe	Run2	observe/STIM_017.jpg
1875.217	1.245	correct	observe	Run2	observe/STIM_017.jpg
1879.091	0.953	incorrect	observe	Run2	observe/STIM_017.jpg
1883.91	1.301	correct	observe	Run2	observe/STIM_018.jpg
1888.822	1.323	correct	observe	Run2	observe/STIM_018.jpg
1892.257	1.271	correct	observe	Run2	observe/STIM_018.jpg
1897.113	1.321	correct	observe	Run2	observe/STIM_018.jpg
1900.572	0.809	correct	observe	Run2	observe/STIM_019.jpg
1904.434	0.997	correct	observe	Run2	observe/STIM_019.jpg
1909.271	1.435	incorrect	observe	Run2	observe/STIM_019.jpg
1914.036	0.942	correct	observe	Run2	observe/STIM_019.jpg
1917.546	2.401	correct	regulate	Run3	regulate/STIM_000.jpg
1922.414	2.227	incorrect	regulate	Run3	regulate/STIM_000.jpg
1927.077	2.258	correct	regulate	Run3	regulate/STIM_000.jpg
1932.881	2.162	incorrect	regulate	Run3	regulate/STIM_000.jpg
1937.955	2.364	correct	regulate	Run3	regulate/STIM_001.jpg
1943.032	2.086	correct	regulate	Run3	regulate/STIM_001.jpg
1948.165	1.14	correct	regulate	Run3	regulate/STIM_001.jpg
1953.006	1.637	correct	regulate	Run3	regulate/STIM_001.jpg
1958.142	2.09	correct	regulate	Run3	regulate/STIM_002.jpg
1962.493	1.37	correct	regulate	Run3	regulate/STIM_002.jpg
1967.178	1.138	incorrect	regulate	Run3	regulate/STIM_002.jpg
1970.519	1.973	correct	regulate	Run3	regulate/STIM_002.jpg
1975.358	1.484	correct	regulate	Run3	regulate/STIM_003.jpg
1979.842	1.878	correct	regulate	Run3	regulate/STIM_003.jpg
1984.293	1.226	correct	regulate	Run3	regulate/STIM_003.jpg
1988.476	1.073	correct	regulate	Run3	regulate/STIM_003.jpg
1992.344	1.465	correct	regulate	Run3	regulate/STIM_004.jpg
1996.304	2.325	correct	regulate	Run3	regulate/STIM_004.jpg
2002.651	1.367	correct	regulate	Run3	regulate/STIM_004.jpg
2006.87	1.643	correct	regulate	Run3	regulate/STIM_004.jpg
2010.835	1.072	correct	regulate	Run3	regulate/STIM_005.jpg
2014.756	1.558	correct	regulate	Run3	regulate/STIM_005.jpg
2019.573	2.41	correct	regulate	Run3	regulate/STIM_005.jpg
2024.721	1.438	correct	regulate	Run3	regulate/STIM_005.jpg
2029.379	1.122	correct	regulate	Run3	regulate/STIM_006.jpg
2033.387	1.3	correct	regulate	Run3	regulate/STIM_006.jpg
2037.189	1.672	correct	regulate	Run3	regulate/STIM_006.jpg
2041.735	2.05	correct	regulate	Run3	regulate/STIM_006.jpg
2046.743	1.596	correct	regulate	Run3	regulate/STIM_007.jpg
2050.427	2.152	correct	regulate	Run3	regulate/STIM_007.jpg
2055.466	1.808	correct	regulate	Run3	regulate/STIM_007.jpg
2061.202	1.665	incorrect	regulate	Run3	regulate/STIM_007.jpg
2066.402	1.642	correct	regulate	Run3	regulate/STIM_008.jpg
2071.859	2.258	correct	regulate	Run3	regulate/STIM_008.jpg
2077.446	1.969	correct	regulate	Run3	regulate/STIM_008.jpg
2082.464	1.175	correct	regulate	Run3	regulate/STIM_008.jpg
2087.358	2.275	correct	regulate	Run3	regulate/STIM_009.jpg
2093.426	1.916	correct	regulate	Run3	regulate/STIM_009.jpg
2097.715	2.3	correct	regulate	Run3	regulate/STIM_009.jpg
2102.626	1.55	correct	regulate	Run3	regulate/STIM_009.jpg
2106.374	1.997	correct	regulate	Run3	regulate/STIM_010.jpg
2110.59	1.498	correct	regulate	Run3	regulate/STIM_010.jpg
2115.102	1.954	incorrect	regulate	Run3	regulate/STIM_010.jpg
2120.934	1.695	correct	regulate	Run3	regulate/STIM_010.jpg
2125.206	1.772	incorrect	regulate	Run3	regulate/STIM_011.jpg
2130.41	2.249	correct	regulate	Run3	regulate/STIM_011.jpg
2135.634	1.327	correct	regulate	Run3	regulate/STIM_011.jpg
2139.7	1.974	correct	regulate	Run3	regulate/STIM_011.jpg
2144.472	1.116	correct	regulate	Run3	regulate/STIM_012.jpg
2148.9	1.29	correct	regulate	Run3	regulate/STIM_012.jpg
2153.018	2.334	correct	regulate	Run3	regulate/STIM_012.jpg
2157.938	1.291	correct	regulate	Run3	regulate/STIM_012.jpg
2162.822	1.147	correct	regulate	Run3	regulate/STIM_013.jpg
2167.573	1.227	correct	regulate	Run3	regulate/STIM_013.jpg
2172.583	1.941	correct	regulate	Run3	regulate/STIM_013.jpg
2177.583	1.842	correct	regulate	Run3	regulate/STIM_013.jpg
2183.468	1.596	correct	regulate	Run3	regulate/STIM_014.jpg
2187.205	1.172	correct	regulate	Run3	regulate/STIM_014.jpg
2190.662	2.027	incorrect	regulate	Run3	regulate/STIM_014.jpg
2196.29	1.028	correct	regulate	Run3	regulate/STIM_014.jpg
2200.052	2.348	correct	regulate	Run3	regulate/STIM_015.jpg
2204.496	2.263	correct	regulate	Run3	regulate/STIM_015.jpg
2209.481	1.688	correct	regulate	Run3	regulate/STIM_015.jpg
2214.603	1.893	correct	regulate	Run3	regulate/STIM_015.jpg
2218.691	1.904	correct	regulate	Run3	regulate/STIM_016.jpg
2224.349	2.368	correct	regulate	Run3	regulate/STIM_016.jpg
2229.36	2.266	correct	regulate	Run3	regulate/STIM_016.jpg
2234.575	1.989	correct	regulate	Run3	regulate/STIM_016.jpg
2240.023	1.259	incorrect	regulate	Run3	regulate/STIM_017.jpg
2245.257	1.287	correct	regulate	Run3	regulate/STIM_017.jpg
2248.825	1.807	correct	regulate	Run3	regulate/STIM_017.jpg
2253.262	1.376	correct	regulate	Run3	regulate/STIM_017.jpg
2257.908	2.389	correct	regulate	Run3	regulate/STIM_018.jpg
2263.44	1.817	correct	regulate	Run3	regulate/STIM_018.jpg
2267.922	1.843	correct	regulate	Run3	regulate/STIM_018.jpg
2273.388	1.604	correct	regulate	Run3	regulate/STIM_018.jpg
2277.818	2.326	correct	regulate	Run3	regulate/STIM_019.jpg
2282.216	1.485	correct	regulate	Run3	regulate/STIM_019.jpg
2286.819	1.074	correct	regulate	Run3	regulate/STIM_019.jpg
2291.142	1.441	correct	regulate	Run3	regulate/STIM_019.jpg
2295.911	1.955	correct	regulate	Run3	regulate/STIM_020.jpg
2300.76	2.071	correct	regulate	Run3	regulate/STIM_020.jpg
2306.454	1.766	correct	regulate	Run3	regulate/STIM_020.jpg
2311.221	1.726	correct	regulate	Run3	regulate/STIM_020.jpg
2315.211	1.991	correct	regulate	Run3	regulate/STIM_021.jpg
2319.837	1.513	correct	regulate	Run3	regulate/STIM_021.jpg
2324.227	1.897	correct	regulate	Run3	regulate/STIM_021.jpg
2329.142	1.136	correct	regulate	Run3	regulate/STIM_021.jpg
2333.482	1.575	incorrect	regulate	Run3	regulate/STIM_022.jpg
2338.161	2.299	incorrect	regulate	Run3	regulate/STIM_022.jpg
2343.149	1.164	correct	regulate	Run3	regulate/STIM_022.jpg
2347.848	2.413	correct	regulate	Run3	regulate/STIM_022.jpg
2353.399	1.697	correct	regulate	Run3	regulate/STIM_023.jpg
2357.804	1.822	correct	regulate	Run3	regulate/STIM_023.jpg
2361.842	1.67	correct	regulate	Run3	regulate/STIM_023.jpg
2366.507	1.87	correct	regulate	Run3	regulate/STIM_023.jpg
2371.019	1.794	correct	regulate	Run3	regulate/STIM_024.jpg
2375.358	1.402	correct	regulate	Run3	regulate/STIM_024.jpg
2378.976	1.45	correct	regulate	Run3	regulate/STIM_024.jpg
2383.967	0.959	correct	regulate	Run3	regulate/STIM_024.jpg
2387.233	1.992	correct	regulate	Run3	regulate/STIM_025.jpg
2391.608	1.806	correct	regulate	Run3	regulate/STIM_025.jpg
2395.661	2.063	correct	regulate	Run3	regulate/STIM_025.jpg
2401.351	1.963	correct	regulate	Run3	regulate/STIM_025.jpg
2407.372	1.208	correct	regulate	Run3	regulate/STIM_026.jpg
2410.68	1.325	correct	regulate	Run3	regulate/STIM_026.jpg
2415.506	1.687	correct	regulate	Run3	regulate/STIM_026.jpg
2419.661	2.057	correct	regulate	Run3	regulate/STIM_026.jpg
2424.735	1.79	correct	regulate	Run3	regulate/STIM_027.jpg
2428.887	1.699	correct	regulate	Run3	regulate/STIM_027.jpg
2432.762	1.662	correct	regulate	Run3	regulate/STIM_027.jpg
2437.259	1.09	correct	regulate	Run3	regulate/STIM_027.jpg
2442.244	1.46	correct	regulate	Run3	regulate/STIM_028.jpg
2446.392	1.281	correct	regulate	Run3	regulate/STIM_028.jpg
2450.515	1.267	correct	regulate	Run3	regulate/STIM_028.jpg
2455.439	1.478	correct	regulate	Run3	regulate/STIM_028.jpg
2460.896	1.41	correct	regulate	Run3	regulate/STIM_029.jpg
2465.8	1.279	correct	regulate	Run3	regulate/STIM_029.jpg
2470.867	2.179	correct	regulate	Run3	regulate/STIM_029.jpg
2475.516	2.011	correct	regulate	Run3	regulate/STIM_029.jpg
2481.091	0.959	correct	observe	Run3	observe/STIM_000.jpg
2484.215	1.123	incorrect	observe	Run3	observe/STIM_000.jpg
2487.714	1.598	correct	observe	Run3	observe/STIM_000.jpg
2491.388	1.155	correct	observe	Run3	observe/STIM_000.jpg
2495.551	0.919	correct	observe	Run3	observe/STIM_001.jpg
2498.772	0.802	correct	observe	Run3	observe/STIM_001.jpg
2501.833	0.912	incorrect	observe	Run3	observe/STIM_001.jpg
2506.456	1.032	correct	observe	Run3	observe/STIM_001.jpg
2509.936	1.553	correct	observe	Run3	observe/STIM_002.jpg
2515.251	0.921	incorrect	observe	Run3	observe/STIM_002.jpg
2518.819	1.188	correct	observe	Run3	observe/STIM_002.jpg
2523.265	0.809	incorrect	observe	Run3	observe/STIM_002.jpg
2526.755	1.226	correct	observe	Run3	observe/STIM_003.jpg
2531.231	1.202	correct	observe	Run3	observe/STIM_003.jpg
2535.086	1.142	incorrect	observe	Run3	observe/STIM_003.jpg
2538.785	1.288	correct	observe	Run3	observe/STIM_003.jpg
2542.76	0.725	incorrect	observe	Run3	observe/STIM_004.jpg
2546.182	1.404	correct	observe	Run3	observe/STIM_004.jpg
2550.629	1.404	correct	observe	Run3	observe/STIM_004.jpg
2555.451	1.264	correct	observe	Run3	observe/STIM_004.jpg
2560.705	1.367	incorrect	observe	Run3	observe/STIM_005.jpg
2565.691	1.068	correct	observe	Run3	observe/STIM_005.jpg
2569.995	1.105	correct	observe	Run3	observe/STIM_005.jpg
2574.996	1.074	correct	observe	Run3	observe/STIM_005.jpg
2579.005	1.339	correct	observe	Run3	observe/STIM_006.jpg
2583.266	1.584	correct	observe	Run3	observe/STIM_006.jpg
2587.617	0.874	correct	observe	Run3	observe/STIM_006.jpg
2591.158	1.292	correct	observe	Run3	observe/STIM_006.jpg
2596.326	1.235	correct	observe	Run3	observe/STIM_007.jpg
2600.562	1.452	correct	observe	Run3	observe/STIM_007.jpg
2606.086	1.161	correct	observe	Run3	observe/STIM_007.jpg
2610.716	1.144	correct	observe	Run3	observe/STIM_007.jpg
2614.686	0.809	correct	observe	Run3	observe/STIM_008.jpg
2617.905	1.144	correct	observe	Run3	observe/STIM_008.jpg
2621.266	1.016	correct	observe	Run3	observe/STIM_008.jpg
2625.296	0.704	correct	observe	Run3	observe/STIM_008.jpg
2628.445	0.887	correct	observe	Run3	observe/STIM_009.jpg
2631.494	1.187	correct	observe	Run3	observe/STIM_009.jpg
2636.604	1.423	correct	observe	Run3	observe/STIM_009.jpg
2641.114	0.99	correct	observe	Run3	observe/STIM_009.jpg
2644.455	0.841	incorrect	observe	Run3	observe/STIM_010.jpg
2648.553	1.291	correct	observe	Run3	observe/STIM_010.jpg
2653.732	1.243	incorrect	observe	Run3	observe/STIM_010.jpg
2657.297	1.046	correct	observe	Run3	observe/STIM_010.jpg
2660.636	1.309	correct	observe	Run3	observe/STIM_011.jpg
2664.533	1.274	correct	observe	Run3	observe/STIM_011.jpg
2669.568	1.365	correct	observe	Run3	observe/STIM_011.jpg
2673.262	0.841	correct	observe	Run3	observe/STIM_011.jpg
2676.511	0.979	correct	observe	Run3	observe/STIM_012.jpg
2681.547	1.452	incorrect	observe	Run3	observe/STIM_012.jpg
2685.807	1.438	correct	observe	Run3	observe/STIM_012.jpg
2690.899	1.491	correct	observe	Run3	observe/STIM_012.jpg
2694.82	1.088	incorrect	observe	Run3	observe/STIM_013.jpg
2698.848	1.049	correct	observe	Run3	observe/STIM_013.jpg
2702.743	1.073	correct	observe	Run3	observe/STIM_013.jpg
2706.084	0.916	correct	observe	Run3	observe/STIM_013.jpg
2710.456	1.438	incorrect	observe	Run3	observe/STIM_014.jpg
2715.059	0.908	correct	observe	Run3	observe/STIM_014.jpg
2719.474	1.333	correct	observe	Run3	observe/STIM_014.jpg
2723.453	0.89	correct	observe	Run3	observe/STIM_014.jpg
2728.189	1.059	correct	observe	Run3	observe/STIM_015.jpg
2731.604	0.93	correct	observe	Run3	observe/STIM_015.jpg
2735.021	0.85	correct	observe	Run3	observe/STIM_015.jpg
2739.832	1.425	correct	observe	Run3	observe/STIM_015.jpg
2744.266	1.554	correct	observe	Run3	observe/STIM_016.jpg
2748.522	1.242	correct	observe	Run3	observe/STIM_016.jpg
2753.696	1.343	correct	observe	Run3	observe/STIM_016.jpg
2758.695	1.213	correct	observe	Run3	observe/STIM_016.jpg
2762.874	1.12	correct	observe	Run3	observe/STIM_017.jpg
2767.454	1.153	correct	observe	Run3	observe/STIM_017.jpg
2771.689	1.55	correct	observe	Run3	observe/STIM_017.jpg
2777.18	0.991	correct	observe	Run3	observe/STIM_017.jpg
2780.898	1.4	correct	observe	Run3	observe/STIM_018.jpg
2786.059	0.977	correct	observe	Run3	observe/STIM_018.jpg
2790.093	1.501	correct	observe	Run3	observe/STIM_018.jpg
2794.239	0.863	correct	observe	Run3	observe/STIM_018.jpg
2797.97	0.732	correct	observe	Run3	observe/STIM_019.jpg
2801.276	1.133	correct	observe	Run3	observe/STIM_019.jpg
2806.367	1.35	correct	observe	Run3	observe/STIM_019.jpg
2811.652	1.338	correct	observe	Run3	observe/STIM_019.jpg
