onset	duration	response_time_ms	trial_type	learning_stage	stimulus	response_port
0.0	1.619	1619.1	regulate	Run1	regulate/STIM_000.jpg	99
4.615	2.939	2939.4	regulate	Run1	regulate/STIM_000.jpg	100
10.807	2.847	2846.8	regulate	Run1	regulate/STIM_000.jpg	100
17.336	1.707	1707.4	regulate	Run1	regulate/STIM_000.jpg	100
22.67	2.292	2291.7	regulate	Run1	regulate/STIM_001.jpg	99
28.294	3.183	3182.9	regulate	Run1	regulate/STIM_001.jpg	99
34.999	1.473	1472.6	regulate	Run1	regulate/STIM_001.jpg	100
38.851	2.57	2569.8	regulate	Run1	regulate/STIM_001.jpg	99
44.725	1.822	1822.3	regulate	Run1	regulate/STIM_002.jpg	99
49.103	2.972	2972.2	regulate	Run1	regulate/STIM_002.jpg	99
54.659	1.959	1959.4	regulate	Run1	regulate/STIM_002.jpg	100
58.91	2.182	2181.7	regulate	Run1	regulate/STIM_002.jpg	99
63.704	1.555	1554.9	regulate	Run1	regulate/STIM_003.jpg	99
68.098	2.173	2173.3	regulate	Run1	regulate/STIM_003.jpg	99
74.217	2.803	2802.9	regulate	Run1	regulate/STIM_003.jpg	99
79.406	1.694	1693.9	regulate	Run1	regulate/STIM_003.jpg	99
83.809	3.029	3029.3	regulate	Run1	regulate/STIM_004.jpg	99
90.309	2.15	2150.5	regulate	Run1	regulate/STIM_004.jpg	99
95.719	3.0	3000.1	regulate	Run1	regulate/STIM_004.jpg	99
101.7	1.371	1370.7	regulate	Run1	regulate/STIM_004.jpg	100
106.288	2.95	2949.8	regulate	Run1	regulate/STIM_005.jpg	99
111.503	2.814	2814.0	regulate	Run1	regulate/STIM_005.jpg	99
116.601	2.992	2992.3	regulate	Run1	regulate/STIM_005.jpg	99
123.387	1.233	1232.7	regulate	Run1	regulate/STIM_005.jpg	99
127.229	2.918	2917.5	regulate	Run1	regulate/STIM_006.jpg	100
133.044	1.695	1694.8	regulate	Run1	regulate/STIM_006.jpg	100
138.541	1.693	1692.9	regulate	Run1	regulate/STIM_006.jpg	100
143.596	2.484	2483.7	regulate	Run1	regulate/STIM_006.jpg	99
148.368	2.997	2996.7	regulate	Run1	regulate/STIM_007.jpg	100
154.855	2.582	2581.7	regulate	Run1	regulate/STIM_007.jpg	100
160.887	1.78	1780.5	regulate	Run1	regulate/STIM_007.jpg	100
165.739	2.48	2480.5	regulate	Run1	regulate/STIM_007.jpg	100
171.914	2.266	2266.3	regulate	Run1	regulate/STIM_008.jpg	99
176.404	2.407	2407.1	regulate	Run1	regulate/STIM_008.jpg	99
180.863	2.544	2543.9	regulate	Run1	regulate/STIM_008.jpg	100
186.147	1.949	1948.7	regulate	Run1	regulate/STIM_008.jpg	100
191.648	2.704	2704.3	regulate	Run1	regulate/STIM_009.jpg	99
196.536	2.828	2827.6	regulate	Run1	regulate/STIM_009.jpg	99
202.327	2.094	2094.2	regulate	Run1	regulate/STIM_009.jpg	100
207.359	1.946	1945.5	regulate	Run1	regulate/STIM_009.jpg	99
211.386	2.819	2818.6	regulate	Run1	regulate/STIM_010.jpg	100
216.496	2.39	2390.2	regulate	Run1	regulate/STIM_010.jpg	99
222.994	1.455	1454.6	regulate	Run1	regulate/STIM_010.jpg	100
226.597	2.682	2682.3	regulate	Run1	regulate/STIM_010.jpg	100
232.731	2.132	2132.5	regulate	Run1	regulate/STIM_011.jpg	100
238.379	2.365	2364.8	regulate	Run1	regulate/STIM_011.jpg	99
244.691	1.615	1615.3	regulate	Run1	regulate/STIM_011.jpg	99
250.261	2.559	2558.7	regulate	Run1	regulate/STIM_011.jpg	100
256.162	2.984	2984.4	regulate	Run1	regulate/STIM_012.jpg	100
262.336	2.261	2261.2	regulate	Run1	regulate/STIM_012.jpg	99
267.386	1.716	1716.0	regulate	Run1	regulate/STIM_012.jpg	100
271.138	1.555	1554.9	regulate	Run1	regulate/STIM_012.jpg	99
276.622	3.077	3077.0	regulate	Run1	regulate/STIM_013.jpg	100
282.214	2.62	2620.1	regulate	Run1	regulate/STIM_013.jpg	99
288.428	1.311	1311.0	regulate	Run1	regulate/STIM_013.jpg	100
293.342	1.856	1856.2	regulate	Run1	regulate/STIM_013.jpg	99
298.684	2.785	2784.8	regulate	Run1	regulate/STIM_014.jpg	99
305.119	2.259	2258.9	regulate	Run1	regulate/STIM_014.jpg	99
309.788	1.671	1671.2	regulate	Run1	regulate/STIM_014.jpg	100
314.519	2.731	2730.8	regulate	Run1	regulate/STIM_014.jpg	99
319.53	3.203	3202.6	regulate	Run1	regulate/STIM_015.jpg	99
325.959	2.143	2142.8	regulate	Run1	regulate/STIM_015.jpg	100
330.865	2.356	2355.7	regulate	Run1	regulate/STIM_015.jpg	100
337.108	2.37	2370.2	regulate	Run1	regulate/STIM_015.jpg	99
343.581	1.991	1990.7	regulate	Run1	regulate/STIM_016.jpg	99
347.893	3.201	3201.3	regulate	Run1	regulate/STIM_016.jpg	100
355.073	2.43	2430.4	regulate	Run1	regulate/STIM_016.jpg	99
361.494	1.594	1594.2	regulate	Run1	regulate/STIM_016.jpg	100
366.649	1.735	1735.1	regulate	Run1	regulate/STIM_017.jpg	100
371.012	2.699	2699.1	regulate	Run1	regulate/STIM_017.jpg	99
376.667	1.885	1885.2	regulate	Run1	regulate/STIM_017.jpg	99
381.3	1.711	1711.4	regulate	Run1	regulate/STIM_017.jpg	100
385.591	2.535	2534.7	regulate	Run1	regulate/STIM_018.jpg	100
391.521	2.948	2947.6	regulate	Run1	regulate/STIM_018.jpg	99
396.907	2.87	2870.3	regulate	Run1	regulate/STIM_018.jpg	99
403.139	1.917	1916.7	regulate	Run1	regulate/STIM_018.jpg	100
408.73	1.496	1495.7	regulate	Run1	regulate/STIM_019.jpg	100
413.592	1.899	1899.0	regulate	Run1	regulate/STIM_019.jpg	100
419.432	2.42	2420.2	regulate	Run1	regulate/STIM_019.jpg	100
424.799	2.526	2526.0	regulate	Run1	regulate/STIM_019.jpg	100
429.423	2.977	2977.2	regulate	Run1	regulate/STIM_020.jpg	100
436.148	1.857	1856.9	regulate	Run1	regulate/STIM_020.jpg	100
440.231	1.674	1674.3	regulate	Run1	regulate/STIM_020.jpg	100
444.437	1.814	1814.3	regulate	Run1	regulate/STIM_020.jpg	99
448.736	1.802	1802.3	regulate	Run1	regulate/STIM_021.jpg	100
452.635	1.558	1558.5	regulate	Run1	regulate/STIM_021.jpg	100
457.701	2.987	2986.8	regulate	Run1	regulate/STIM_021.jpg	100
462.892	2.037	2036.9	regulate	Run1	regulate/STIM_021.jpg	100
468.72	2.936	2936.4	regulate	Run1	regulate/STIM_022.jpg	100
475.412	3.132	3131.9	regulate	Run1	regulate/STIM_022.jpg	100
482.633	1.723	1723.0	regulate	Run1	regulate/STIM_022.jpg	99
488.18	2.935	2934.6	regulate	Run1	regulate/STIM_022.jpg	99
494.648	1.752	1752.0	regulate	Run1	regulate/STIM_023.jpg	100
500.11	2.387	2387.0	regulate	Run1	regulate/STIM_023.jpg	100
505.787	2.255	2255.0	regulate	Run1	regulate/STIM_023.jpg	99
511.784	1.719	1718.7	regulate	Run1	regulate/STIM_023.jpg	100
515.637	2.357	2357.1	regulate	Run1	regulate/STIM_024.jpg	100
521.975	2.452	2452.4	regulate	Run1	regulate/STIM_024.jpg	99
526.734	1.554	1554.2	regulate	Run1	regulate/STIM_024.jpg	99
532.342	1.427	1426.6	regulate	Run1	regulate/STIM_024.jpg	99
537.412	2.68	2680.2	regulate	Run1	regulate/STIM_025.jpg	100
542.454	3.115	3114.6	regulate	Run1	regulate/STIM_025.jpg	100
548.305	1.463	1463.2	regulate	Run1	regulate/STIM_025.jpg	99
553.292	1.866	1866.2	regulate	Run1	regulate/STIM_025.jpg	100
558.664	3.172	3172.5	regulate	Run1	regulate/STIM_026.jpg	100
564.563	2.421	2420.6	regulate	Run1	regulate/STIM_026.jpg	100
569.848	1.566	1566.3	regulate	Run1	regulate/STIM_026.jpg	99
574.32	1.903	1903.2	regulate	Run1	regulate/STIM_026.jpg	100
578.423	2.235	2235.3	regulate	Run1	regulate/STIM_027.jpg	99
582.717	1.869	1868.6	regulate	Run1	regulate/STIM_027.jpg	100
587.127	2.061	2061.0	regulate	Run1	regulate/STIM_027.jpg	99
592.941	2.835	2835.1	regulate	Run1	regulate/STIM_027.jpg	99
597.908	2.848	2847.5	regulate	Run1	regulate/STIM_028.jpg	99
603.278	2.035	2035.1	regulate	Run1	regulate/STIM_028.jpg	99
608.463	2.915	2915.3	regulate	Run1	regulate/STIM_028.jpg	99
614.925	2.697	2696.7	regulate	Run1	regulate/STIM_028.jpg	100
620.459	2.252	2252.1	regulate	Run1	regulate/STIM_029.jpg	99
626.112	2.403	2402.8	regulate	Run1	regulate/STIM_029.jpg	100
631.662	2.26	2260.2	regulate	Run1	regulate/STIM_029.jpg	100
636.593	2.161	2161.2	regulate	Run1	regulate/STIM_029.jpg	100
642.478	1.556	1556.5	observe	Run1	observe/STIM_000.jpg	100
646.456	1.419	1419.4	observe	Run1	observe/STIM_000.jpg	100
651.884	1.443	1442.9	observe	Run1	observe/STIM_000.jpg	99
656.709	0.772	771.9	observe	Run1	observe/STIM_000.jpg	99
660.129	1.109	1109.2	observe	Run1	observe/STIM_001.jpg	100
663.958	1.161	1161.3	observe	Run1	observe/STIM_001.jpg	99
667.995	0.786	785.6	observe	Run1	observe/STIM_001.jpg	100
671.47	1.439	1439.1	observe	Run1	observe/STIM_001.jpg	99
675.169	1.395	1395.3	observe	Run1	observe/STIM_002.jpg	99
678.935	1.178	1177.7	observe	Run1	observe/STIM_002.jpg	99
684.031	1.213	1212.9	observe	Run1	observe/STIM_002.jpg	99
688.868	1.392	1391.5	observe	Run1	observe/STIM_002.jpg	99
693.657	0.96	960.2	observe	Run1	observe/STIM_003.jpg	100
698.252	1.406	1406.2	observe	Run1	observe/STIM_003.jpg	100
701.709	1.127	1126.9	observe	Run1	observe/STIM_003.jpg	99
705.491	1.296	1296.3	observe	Run1	observe/STIM_003.jpg	100
710.411	0.78	779.7	observe	Run1	observe/STIM_004.jpg	99
714.502	1.049	1049.0	observe	Run1	observe/STIM_004.jpg	100
719.185	1.264	1263.8	observe	Run1	observe/STIM_004.jpg	99
722.926	1.139	1139.4	observe	Run1	observe/STIM_004.jpg	99
727.231	1.001	1001.4	observe	Run1	observe/STIM_005.jpg	100
731.972	1.389	1389.2	observe	Run1	observe/STIM_005.jpg	100
736.861	1.492	1492.0	observe	Run1	observe/STIM_005.jpg	100
741.056	1.116	1115.9	observe	Run1	observe/STIM_005.jpg	99
744.899	1.156	1156.5	observe	Run1	observe/STIM_006.jpg	100
748.045	0.862	861.6	observe	Run1	observe/STIM_006.jpg	100
751.043	0.93	930.4	observe	Run1	observe/STIM_006.jpg	99
755.373	1.36	1360.4	observe	Run1	observe/STIM_006.jpg	100
759.681	1.226	1226.1	observe	Run1	observe/STIM_007.jpg	100
763.753	1.442	1442.2	observe	Run1	observe/STIM_007.jpg	99
767.188	1.301	1301.2	observe	Run1	observe/STIM_007.jpg	99
770.959	1.175	1175.0	observe	Run1	observe/STIM_007.jpg	99
775.159	1.102	1102.1	observe	Run1	observe/STIM_008.jpg	100
779.69	1.434	1433.5	observe	Run1	observe/STIM_008.jpg	100
783.316	1.362	1362.1	observe	Run1	observe/STIM_008.jpg	100
787.557	0.874	873.8	observe	Run1	observe/STIM_008.jpg	99
791.593	1.286	1286.0	observe	Run1	observe/STIM_009.jpg	99
796.101	1.192	1192.0	observe	Run1	observe/STIM_009.jpg	100
799.99	1.211	1211.2	observe	Run1	observe/STIM_009.jpg	99
804.395	0.97	970.2	observe	Run1	observe/STIM_009.jpg	100
808.547	0.871	870.6	observe	Run1	observe/STIM_010.jpg	100
812.291	0.978	978.4	observe	Run1	observe/STIM_010.jpg	100
815.482	1.235	1235.3	observe	Run1	observe/STIM_010.jpg	99
819.811	1.289	1289.2	observe	Run1	observe/STIM_010.jpg	100
825.05	0.832	832.4	observe	Run1	observe/STIM_011.jpg	100
828.479	1.065	1064.9	observe	Run1	observe/STIM_011.jpg	100
833.323	1.084	1083.6	observe	Run1	observe/STIM_011.jpg	100
837.134	1.349	1349.0	observe	Run1	observe/STIM_011.jpg	100
840.973	1.533	1533.3	observe	Run1	observe/STIM_012.jpg	100
844.83	0.719	719.0	observe	Run1	observe/STIM_012.jpg	100
847.919	1.309	1308.9	observe	Run1	observe/STIM_012.jpg	100
852.739	0.976	976.1	observe	Run1	observe/STIM_012.jpg	100
857.095	1.17	1170.3	observe	Run1	observe/STIM_013.jpg	99
861.597	1.5	1500.0	observe	Run1	observe/STIM_013.jpg	99
865.68	1.273	1272.7	observe	Run1	observe/STIM_013.jpg	100
870.602	1.149	1149.0	observe	Run1	observe/STIM_013.jpg	99
874.963	0.808	808.0	observe	Run1	observe/STIM_014.jpg	99
878.812	1.094	1093.5	observe	Run1	observe/STIM_014.jpg	100
882.809	1.25	1250.4	observe	Run1	observe/STIM_014.jpg	99
888.086	1.243	1242.7	observe	Run1	observe/STIM_014.jpg	99
891.89	1.147	1147.2	observe	Run1	observe/STIM_015.jpg	100
895.66	1.199	1199.4	observe	Run1	observe/STIM_015.jpg	100
899.248	1.178	1178.1	observe	Run1	observe/STIM_015.jpg	100
902.555	1.224	1224.4	observe	Run1	observe/STIM_015.jpg	99
906.69	1.368	1368.0	observe	Run1	observe/STIM_016.jpg	100
911.184	1.18	1180.0	observe	Run1	observe/STIM_016.jpg	100
915.202	1.163	1162.6	observe	Run1	observe/STIM_016.jpg	99
919.391	0.828	828.0	observe	Run1	observe/STIM_016.jpg	99
922.933	1.292	1292.3	observe	Run1	observe/STIM_017.jpg	99
926.4	1.417	1417.0	observe	Run1	observe/STIM_017.jpg	99
930.011	1.445	1444.9	observe	Run1	observe/STIM_017.jpg	100
934.231	0.939	939.1	observe	Run1	observe/STIM_017.jpg	100
939.065	0.985	985.4	observe	Run1	observe/STIM_018.jpg	99
943.774	1.389	1389.2	observe	Run1	observe/STIM_018.jpg	99
948.042	1.474	1473.5	observe	Run1	observe/STIM_018.jpg	100
953.498	1.538	1537.7	observe	Run1	observe/STIM_018.jpg	99
958.195	0.895	895.1	observe	Run1	observe/STIM_019.jpg	100
962.685	1.239	1238.6	observe	Run1	observe/STIM_019.jpg	99
967.063	1.115	1115.2	observe	Run1	observe/STIM_019.jpg	100
971.489	1.452	1451.9	observe	Run1	observe/STIM_019.jpg	99
976.056	2.9	2900.3	regulate	Run2	regulate/STIM_000.jpg	99
982.992	1.592	1591.5	regulate	Run2	regulate/STIM_000.jpg	99
987.461	2.091	2090.6	regulate	Run2	regulate/STIM_000.jpg	100
992.944	1.672	1672.2	regulate	Run2	regulate/STIM_000.jpg	100
997.122	2.118	2118.0	regulate	Run2	regulate/STIM_001.jpg	99
1003.1	1.963	1963.4	regulate	Run2	regulate/STIM_001.jpg	99
1008.771	1.993	1992.7	regulate	Run2	regulate/STIM_001.jpg	100
1014.019	1.99	1989.9	regulate	Run2	regulate/STIM_001.jpg	99
1018.231	1.928	1927.9	regulate	Run2	regulate/STIM_002.jpg	99
1023.572	2.522	2522.3	regulate	Run2	regulate/STIM_002.jpg	99
1028.558	2.504	2503.7	regulate	Run2	regulate/STIM_002.jpg	100
1033.321	1.172	1172.0	regulate	Run2	regulate/STIM_002.jpg	100
1038.532	1.495	1494.8	regulate	Run2	regulate/STIM_003.jpg	100
1044.052	2.268	2268.1	regulate	Run2	regulate/STIM_003.jpg	100
1049.853	1.164	1164.3	regulate	Run2	regulate/STIM_003.jpg	99
1054.42	2.105	2105.4	regulate	Run2	regulate/STIM_003.jpg	99
1060.019	2.875	2875.1	regulate	Run2	regulate/STIM_004.jpg	99
1066.804	2.033	2033.1	regulate	Run2	regulate/STIM_004.jpg	100
1071.45	1.501	1500.9	regulate	Run2	regulate/STIM_004.jpg	99
1076.108	2.184	2184.3	regulate	Run2	regulate/STIM_004.jpg	99
1080.435	2.303	2303.1	regulate	Run2	regulate/STIM_005.jpg	99
1086.617	2.758	2758.2	regulate	Run2	regulate/STIM_005.jpg	100
1092.74	2.303	2303.3	regulate	Run2	regulate/STIM_005.jpg	100
1098.542	1.069	1068.8	regulate	Run2	regulate/STIM_005.jpg	99
1103.694	2.15	2149.6	regulate	Run2	regulate/STIM_006.jpg	100
1109.82	2.679	2679.0	regulate	Run2	regulate/STIM_006.jpg	99
1115.023	1.449	1449.1	regulate	Run2	regulate/STIM_006.jpg	99
1120.237	1.312	1312.2	regulate	Run2	regulate/STIM_006.jpg	100
1124.041	2.433	2432.6	regulate	Run2	regulate/STIM_007.jpg	100
1129.059	2.098	2098.2	regulate	Run2	regulate/STIM_007.jpg	99
1134.476	1.83	1830.3	regulate	Run2	regulate/STIM_007.jpg	100
1139.972	2.29	2289.8	regulate	Run2	regulate/STIM_007.jpg	100
1145.794	1.68	1680.5	regulate	Run2	regulate/STIM_008.jpg	99
1150.868	2.183	2183.0	regulate	Run2	regulate/STIM_008.jpg	99
1156.688	2.468	2468.5	regulate	Run2	regulate/STIM_008.jpg	99
1161.858	1.875	1875.4	regulate	Run2	regulate/STIM_008.jpg	99
1165.821	2.401	2400.9	regulate	Run2	regulate/STIM_009.jpg	100
1171.785	2.727	2727.3	regulate	Run2	regulate/STIM_009.jpg	100
1176.874	1.677	1676.7	regulate	Run2	regulate/STIM_009.jpg	99
1181.102	2.001	2001.3	regulate	Run2	regulate/STIM_009.jpg	99
1186.365	1.896	1896.0	regulate	Run2	regulate/STIM_010.jpg	99
1190.873	1.607	1606.7	regulate	Run2	regulate/STIM_010.jpg	99
1195.215	2.141	2141.1	regulate	Run2	regulate/STIM_010.jpg	99
1201.42	1.874	1873.8	regulate	Run2	regulate/STIM_010.jpg	99
1206.89	1.898	1898.4	regulate	Run2	regulate/STIM_011.jpg	99
1212.086	2.176	2175.5	regulate	Run2	regulate/STIM_011.jpg	99
1217.475	2.342	2342.3	regulate	Run2	regulate/STIM_011.jpg	100
1223.521	2.322	2321.5	regulate	Run2	regulate/STIM_011.jpg	99
1229.45	1.53	1530.4	regulate	Run2	regulate/STIM_012.jpg	100
1234.975	1.666	1666.1	regulate	Run2	regulate/STIM_012.jpg	99
1240.009	2.44	2439.5	regulate	Run2	regulate/STIM_012.jpg	99
1245.799	1.763	1762.8	regulate	Run2	regulate/STIM_012.jpg	100
1250.904	2.303	2303.1	regulate	Run2	regulate/STIM_013.jpg	100
1257.211	2.66	2660.0	regulate	Run2	regulate/STIM_013.jpg	100
1262.435	2.426	2425.6	regulate	Run2	regulate/STIM_013.jpg	99
1267.984	2.216	2215.7	regulate	Run2	regulate/STIM_013.jpg	99
1273.507	2.243	2243.0	regulate	Run2	regulate/STIM_014.jpg	99
1279.528	1.504	1504.5	regulate	Run2	regulate/STIM_014.jpg	99
1283.693	2.035	2035.0	regulate	Run2	regulate/STIM_014.jpg	100
1289.8	1.555	1554.9	regulate	Run2	regulate/STIM_014.jpg	99
1294.925	2.663	2662.6	regulate	Run2	regulate/STIM_015.jpg	100
1301.148	2.196	2195.5	regulate	Run2	regulate/STIM_015.jpg	100
1307.295	1.747	1747.0	regulate	Run2	regulate/STIM_015.jpg	100
1311.17	2.067	2066.7	regulate	Run2	regulate/STIM_015.jpg	100
1315.794	2.5	2500.3	regulate	Run2	regulate/STIM_016.jpg	99
1322.267	2.254	2253.5	regulate	Run2	regulate/STIM_016.jpg	100
1326.611	1.613	1612.7	regulate	Run2	regulate/STIM_016.jpg	100
1331.24	1.22	1219.6	regulate	Run2	regulate/STIM_016.jpg	99
1334.877	1.609	1609.0	regulate	Run2	regulate/STIM_017.jpg	100
1339.544	1.994	1993.8	regulate	Run2	regulate/STIM_017.jpg	100
1343.935	1.764	1763.6	regulate	Run2	regulate/STIM_017.jpg	99
1348.909	2.247	2247.3	regulate	Run2	regulate/STIM_017.jpg	100
1353.52	1.368	1367.8	regulate	Run2	regulate/STIM_018.jpg	100
1356.937	1.568	1567.5	regulate	Run2	regulate/STIM_018.jpg	99
1361.182	1.67	1669.6	regulate	Run2	regulate/STIM_018.jpg	100
1365.5	1.468	1468.2	regulate	Run2	regulate/STIM_018.jpg	99
1369.66	2.637	2637.1	regulate	Run2	regulate/STIM_019.jpg	100
1376.371	1.455	1455.1	regulate	Run2	regulate/STIM_019.jpg	100
1381.269	2.188	2188.5	regulate	Run2	regulate/STIM_019.jpg	99
1385.948	1.715	1715.0	regulate	Run2	regulate/STIM_019.jpg	99
1390.678	2.056	2055.6	regulate	Run2	regulate/STIM_020.jpg	100
1396.344	2.42	2419.9	regulate	Run2	regulate/STIM_020.jpg	100
1401.095	1.626	1626.2	regulate	Run2	regulate/STIM_020.jpg	100
1406.169	1.608	1607.6	regulate	Run2	regulate/STIM_020.jpg	99
1411.101	1.631	1630.9	regulate	Run2	regulate/STIM_021.jpg	99
1415.811	1.436	1435.9	regulate	Run2	regulate/STIM_021.jpg	100
1420.469	2.444	2444.2	regulate	Run2	regulate/STIM_021.jpg	100
1426.725	2.066	2065.7	regulate	Run2	regulate/STIM_021.jpg	99
1431.834	1.366	1366.2	regulate	Run2	regulate/STIM_022.jpg	99
1436.744	1.561	1561.3	regulate	Run2	regulate/STIM_022.jpg	100
1442.051	1.204	1203.8	regulate	Run2	regulate/STIM_022.jpg	100
1447.059	2.202	2201.7	regulate	Run2	regulate/STIM_022.jpg	100
1452.476	2.48	2479.9	regulate	Run2	regulate/STIM_023.jpg	100
1457.214	2.389	2389.0	regulate	Run2	regulate/STIM_023.jpg	99
1463.145	1.806	1806.5	regulate	Run2	regulate/STIM_023.jpg	100
1467.902	2.18	2179.5	regulate	Run2	regulate/STIM_023.jpg	99
1473.882	2.296	2295.8	regulate	Run2	regulate/STIM_024.jpg	99
1478.375	2.454	2454.0	regulate	Run2	regulate/STIM_024.jpg	99
1484.087	2.28	2280.0	regulate	Run2	regulate/STIM_024.jpg	100
1488.489	1.594	1593.8	regulate	Run2	regulate/STIM_024.jpg	99
1493.26	1.343	1342.8	regulate	Run2	regulate/STIM_025.jpg	99
1497.166	1.372	1371.7	regulate	Run2	regulate/STIM_025.jpg	99
1501.026	2.083	2083.1	regulate	Run2	regulate/STIM_025.jpg	99
1506.865	1.08	1080.2	regulate	Run2	regulate/STIM_025.jpg	100
1511.459	2.525	2525.3	regulate	Run2	regulate/STIM_026.jpg	100
1517.369	2.229	2229.4	regulate	Run2	regulate/STIM_026.jpg	100
1522.822	1.669	1669.4	regulate	Run2	regulate/STIM_026.jpg	100
1527.429	1.892	1891.6	regulate	Run2	regulate/STIM_026.jpg	100
1531.633	2.28	2280.2	regulate	Run2	regulate/STIM_027.jpg	100
1537.466	2.4	2400.2	regulate	Run2	regulate/STIM_027.jpg	99
1542.898	2.405	2405.0	regulate	Run2	regulate/STIM_027.jpg	100
1547.448	1.495	1494.9	regulate	Run2	regulate/STIM_027.jpg	100
1551.748	2.603	2602.8	regulate	Run2	regulate/STIM_028.jpg	99
1557.301	2.544	2544.0	regulate	Run2	regulate/STIM_028.jpg	100
1562.586	2.468	2468.2	regulate	Run2	regulate/STIM_028.jpg	100
1568.854	1.104	1104.5	regulate	Run2	regulate/STIM_028.jpg	100
1572.154	2.071	2071.3	regulate	Run2	regulate/STIM_029.jpg	99
1576.742	2.695	2695.3	regulate	Run2	regulate/STIM_029.jpg	99
1582.573	2.558	2557.8	regulate	Run2	regulate/STIM_029.jpg	99
1587.672	1.457	1457.0	regulate	Run2	regulate/STIM_029.jpg	99
1591.355	1.286	1286.2	observe	Run2	observe/STIM_000.jpg	100
1595.773	1.361	1360.6	observe	Run2	observe/STIM_000.jpg	100
1599.481	0.814	814.5	observe	Run2	observe/STIM_000.jpg	100
1602.764	1.231	1231.1	observe	Run2	observe/STIM_000.jpg	99
1607.308	1.221	1221.2	observe	Run2	observe/STIM_001.jpg	99
1610.981	1.255	1254.6	observe	Run2	observe/STIM_001.jpg	99
1614.861	1.428	1428.0	observe	Run2	observe/STIM_001.jpg	100
1619.121	1.333	1332.6	observe	Run2	observe/STIM_001.jpg	99
1623.156	0.84	840.2	observe	Run2	observe/STIM_002.jpg	100
1626.941	1.422	1422.0	observe	Run2	observe/STIM_002.jpg	100
1631.959	1.125	1125.0	observe	Run2	observe/STIM_002.jpg	99
1636.408	0.803	802.6	observe	Run2	observe/STIM_002.jpg	99
1639.737	1.346	1346.5	observe	Run2	observe/STIM_003.jpg	100
1644.025	1.204	1204.5	observe	Run2	observe/STIM_003.jpg	99
1648.244	1.385	1385.2	observe	Run2	observe/STIM_003.jpg	100
1651.988	1.264	1264.0	observe	Run2	observe/STIM_003.jpg	99
1655.536	0.831	831.2	observe	Run2	observe/STIM_004.jpg	99
1659.895	0.704	703.8	observe	Run2	observe/STIM_004.jpg	100
1663.988	1.069	1069.1	observe	Run2	observe/STIM_004.jpg	100
1667.224	0.888	888.0	observe	Run2	observe/STIM_004.jpg	100
1671.948	1.366	1366.0	observe	Run2	observe/STIM_005.jpg	100
1675.781	1.191	1191.3	observe	Run2	observe/STIM_005.jpg	99
1680.531	1.4	1399.6	observe	Run2	observe/STIM_005.jpg	99
1684.503	1.065	1065.1	observe	Run2	observe/STIM_005.jpg	99
1688.145	1.257	1257.1	observe	Run2	observe/STIM_006.jpg	100
1692.722	1.026	1025.7	observe	Run2	observe/STIM_006.jpg	99
1696.841	1.556	1555.5	observe	Run2	observe/STIM_006.jpg	100
1701.53	0.965	965.4	observe	Run2	observe/STIM_006.jpg	99
1705.182	0.928	928.2	observe	Run2	observe/STIM_007.jpg	99
1708.673	0.938	937.5	observe	Run2	observe/STIM_007.jpg	99
1712.582	1.12	1120.1	observe	Run2	observe/STIM_007.jpg	99
1717.201	1.137	1137.2	observe	Run2	observe/STIM_007.jpg	99
1720.36	1.176	1175.9	observe	Run2	observe/STIM_008.jpg	100
1723.816	1.053	1053.4	observe	Run2	observe/STIM_008.jpg	100
1728.626	1.226	1225.7	observe	Run2	observe/STIM_008.jpg	100
1733.591	1.242	1242.2	observe	Run2	observe/STIM_008.jpg	99
1737.06	0.883	883.1	observe	Run2	observe/STIM_009.jpg	100
1740.46	1.078	1077.5	observe	Run2	observe/STIM_009.jpg	100
1745.109	1.146	1145.9	observe	Run2	observe/STIM_009.jpg	99
1749.432	1.466	1466.3	observe	Run2	observe/STIM_009.jpg	99
1754.416	1.33	1329.6	observe	Run2	observe/STIM_010.jpg	100
1758.762	0.92	919.8	observe	Run2	observe/STIM_010.jpg	99
1762.009	1.515	1515.3	observe	Run2	observe/STIM_010.jpg	100
1766.88	1.481	1481.2	observe	Run2	observe/STIM_010.jpg	100
1771.393	1.495	1494.6	observe	Run2	observe/STIM_011.jpg	100
1775.615	0.763	762.9	observe	Run2	observe/STIM_011.jpg	99
1779.352	1.054	1054.3	observe	Run2	observe/STIM_011.jpg	100
1782.857	1.497	1496.6	observe	Run2	observe/STIM_011.jpg	100
1787.062	1.045	1044.9	observe	Run2	observe/STIM_012.jpg	99
1791.946	0.678	678.2	observe	Run2	observe/STIM_012.jpg	100
1796.529	0.924	923.7	observe	Run2	observe/STIM_012.jpg	100
1799.539	1.323	1323.2	observe	Run2	observe/STIM_012.jpg	100
1803.637	1.583	1583.1	observe	Run2	observe/STIM_013.jpg	99
1807.937	1.54	1540.2	observe	Run2	observe/STIM_013.jpg	99
1811.453	1.246	1246.4	observe	Run2	observe/STIM_013.jpg	99
1815.002	1.302	1302.5	observe	Run2	observe/STIM_013.jpg	100
1819.187	0.807	807.3	observe	Run2	observe/STIM_014.jpg	99
1822.9	1.3	1300.3	observe	Run2	observe/STIM_014.jpg	99
1827.636	1.28	1280.5	observe	Run2	observe/STIM_014.jpg	99
1832.285	1.405	1404.8	observe	Run2	observe/STIM_014.jpg	99
1836.402	1.054	1054.4	observe	Run2	observe/STIM_015.jpg	99
1840.189	0.929	929.3	observe	Run2	observe/STIM_015.jpg	100
1843.821	1.633	1633.1	observe	Run2	observe/STIM_015.jpg	100
1847.758	1.293	1292.9	observe	Run2	observe/STIM_015.jpg	99
1852.594	0.867	867.1	observe	Run2	observe/STIM_016.jpg	99
1856.503	1.15	1150.4	observe	Run2	observe/STIM_016.jpg	99
1859.835	0.828	828.4	observe	Run2	observe/STIM_016.jpg	100
1863.452	1.265	1265.4	observe	Run2	observe/STIM_016.jpg	100
1866.824	1.164	1164.4	observe	Run2	observe/STIM_017.jpg	100
1871.795	1.314	1314.0	observe	Run2	observe/STIM_017.jpg	100
1875.217	1.245	1245.4	observe	Run2	observe/STIM_017.jpg	99
1879.091	0.953	953.2	observe	Run2	observe/STIM_017.jpg	99
1883.91	1.301	1301.2	observe	Run2	observe/STIM_018.jpg	99
1888.822	1.323	1322.6	observe	Run2	observe/STIM_018.jpg	99
1892.257	1.271	1271.2	observe	Run2	observe/STIM_018.jpg	100
1897.113	1.321	1321.1	observe	Run2	observe/STIM_018.jpg	100
1900.572	0.809	808.6	observe	Run2	observe/STIM_019.jpg	100
1904.434	0.997	996.6	observe	Run2	observe/STIM_019.jpg	100
1909.271	1.435	1434.8	observe	Run2	observe/STIM_019.jpg	99
1914.036	0.942	941.7	observe	Run2	observe/STIM_019.jpg	99
1917.546	2.401	2401.3	regulate	Run3	regulate/STIM_000.jpg	99
1922.414	2.227	2226.6	regulate	Run3	regulate/STIM_000.jpg	99
1927.077	2.258	2257.7	regulate	Run3	regulate/STIM_000.jpg	99
1932.881	2.162	2162.4	regulate	Run3	regulate/STIM_000.jpg	99
1937.955	2.364	2363.8	regulate	Run3	regulate/STIM_001.jpg	99
1943.032	2.086	2086.2	regulate	Run3	regulate/STIM_001.jpg	99
1948.165	1.14	1140.1	regulate	Run3	regulate/STIM_001.jpg	100
1953.006	1.637	1636.8	regulate	Run3	regulate/STIM_001.jpg	100
1958.142	2.09	2090.1	regulate	Run3	regulate/STIM_002.jpg	99
1962.493	1.37	1370.5	regulate	Run3	regulate/STIM_002.jpg	100
1967.178	1.138	1138.5	regulate	Run3	regulate/STIM_002.jpg	99
1970.519	1.973	1973.1	regulate	Run3	regulate/STIM_002.jpg	100
1975.358	1.484	1484.0	regulate	Run3	regulate/STIM_003.jpg	99
1979.842	1.878	1878.5	regulate	Run3	regulate/STIM_003.jpg	100
1984.293	1.226	1225.8	regulate	Run3	regulate/STIM_003.jpg	100
1988.476	1.073	1072.7	regulate	Run3	regulate/STIM_003.jpg	100
1992.344	1.465	1464.8	regulate	Run3	regulate/STIM_004.jpg	99
1996.304	2.325	2325.4	regulate	Run3	regulate/STIM_004.jpg	100
2002.651	1.367	1366.7	regulate	Run3	regulate/STIM_004.jpg	100
2006.87	1.643	1643.3	regulate	Run3	regulate/STIM_004.jpg	100
2010.835	1.072	1071.5	regulate	Run3	regulate/STIM_005.jpg	99
2014.756	1.558	1558.4	regulate	Run3	regulate/STIM_005.jpg	100
2019.573	2.41	2409.9	regulate	Run3	regulate/STIM_005.jpg	99
2024.721	1.438	1438.5	regulate	Run3	regulate/STIM_005.jpg	99
2029.379	1.122	1122.0	regulate	Run3	regulate/STIM_006.jpg	100
2033.387	1.3	1300.1	regulate	Run3	regulate/STIM_006.jpg	99
2037.189	1.672	1671.7	regulate	Run3	regulate/STIM_006.jpg	99
2041.735	2.05	2049.7	regulate	Run3	regulate/STIM_006.jpg	100
2046.743	1.596	1595.7	regulate	Run3	regulate/STIM_007.jpg	99
2050.427	2.152	2151.5	regulate	Run3	regulate/STIM_007.jpg	100
2055.466	1.808	1807.9	regulate	Run3	regulate/STIM_007.jpg	99
2061.202	1.665	1665.1	regulate	Run3	regulate/STIM_007.jpg	100
2066.402	1.642	1642.0	regulate	Run3	regulate/STIM_008.jpg	99
2071.859	2.258	2257.8	regulate	Run3	regulate/STIM_008.jpg	100
2077.446	1.969	1968.8	regulate	Run3	regulate/STIM_008.jpg	100
2082.464	1.175	1175.4	regulate	Run3	regulate/STIM_008.jpg	99
2087.358	2.275	2274.7	regulate	Run3	regulate/STIM_009.jpg	99
2093.426	1.916	1915.7	regulate	Run3	regulate/STIM_009.jpg	100
2097.715	2.3	2299.5	regulate	Run3	regulate/STIM_009.jpg	99
2102.626	1.55	1549.7	regulate	Run3	regulate/STIM_009.jpg	100
2106.374	1.997	1996.6	regulate	Run3	regulate/STIM_010.jpg	99
2110.59	1.498	1498.4	regulate	Run3	regulate/STIM_010.jpg	99
2115.102	1.954	1954.5	regulate	Run3	regulate/STIM_010.jpg	99
2120.934	1.695	1695.4	regulate	Run3	regulate/STIM_010.jpg	99
2125.206	1.772	1771.6	regulate	Run3	regulate/STIM_011.jpg	99
2130.41	2.249	2249.3	regulate	Run3	regulate/STIM_011.jpg	100
2135.634	1.327	1327.2	regulate	Run3	regulate/STIM_011.jpg	99
2139.7	1.974	1974.5	regulate	Run3	regulate/STIM_011.jpg	99
2144.472	1.116	1116.5	regulate	Run3	regulate/STIM_012.jpg	99
2148.9	1.29	1290.4	regulate	Run3	regulate/STIM_012.jpg	99
2153.018	2.334	2334.4	regulate	Run3	regulate/STIM_012.jpg	99
2157.938	1.291	1290.6	regulate	Run3	regulate/STIM_012.jpg	100
2162.822	1.147	1146.6	regulate	Run3	regulate/STIM_013.jpg	99
2167.573	1.227	1226.9	regulate	Run3	regulate/STIM_013.jpg	100
2172.583	1.941	1941.0	regulate	Run3	regulate/STIM_013.jpg	99
2177.583	1.842	1841.5	regulate	Run3	regulate/STIM_013.jpg	99
2183.468	1.596	1595.9	regulate	Run3	regulate/STIM_014.jpg	100
2187.205	1.172	1172.1	regulate	Run3	regulate/STIM_014.jpg	99
2190.662	2.027	2027.2	regulate	Run3	regulate/STIM_014.jpg	100
2196.29	1.028	1028.5	regulate	Run3	regulate/STIM_014.jpg	99
2200.052	2.348	2348.5	regulate	Run3	regulate/STIM_015.jpg	99
2204.496	2.263	2262.6	regulate	Run3	regulate/STIM_015.jpg	100
2209.481	1.688	1688.3	regulate	Run3	regulate/STIM_015.jpg	100
2214.603	1.893	1893.0	regulate	Run3	regulate/STIM_015.jpg	99
2218.691	1.904	1904.4	regulate	Run3	regulate/STIM_016.jpg	99
2224.349	2.368	2368.5	regulate	Run3	regulate/STIM_016.jpg	100
2229.36	2.266	2266.2	regulate	Run3	regulate/STIM_016.jpg	100
2234.575	1.989	1988.7	regulate	Run3	regulate/STIM_016.jpg	100
2240.023	1.259	1259.4	regulate	Run3	regulate/STIM_017.jpg	100
2245.257	1.287	1287.1	regulate	Run3	regulate/STIM_017.jpg	99
2248.825	1.807	1807.1	regulate	Run3	regulate/STIM_017.jpg	100
2253.262	1.376	1375.6	regulate	Run3	regulate/STIM_017.jpg	100
2257.908	2.389	2388.6	regulate	Run3	regulate/STIM_018.jpg	99
2263.44	1.817	1816.8	regulate	Run3	regulate/STIM_018.jpg	100
2267.922	1.843	1842.8	regulate	Run3	regulate/STIM_018.jpg	100
2273.388	1.604	1603.9	regulate	Run3	regulate/STIM_018.jpg	99
2277.818	2.326	2325.8	regulate	Run3	regulate/STIM_019.jpg	99
2282.216	1.485	1485.0	regulate	Run3	regulate/STIM_019.jpg	99
2286.819	1.074	1073.9	regulate	Run3	regulate/STIM_019.jpg	99
2291.142	1.441	1441.1	regulate	Run3	regulate/STIM_019.jpg	99
2295.911	1.955	1955.4	regulate	Run3	regulate/STIM_020.jpg	99
2300.76	2.071	2071.4	regulate	Run3	regulate/STIM_020.jpg	99
2306.454	1.766	1765.7	regulate	Run3	regulate/STIM_020.jpg	100
2311.221	1.726	1725.7	regulate	Run3	regulate/STIM_020.jpg	100
2315.211	1.991	1991.2	regulate	Run3	regulate/STIM_021.jpg	99
2319.837	1.513	1512.6	regulate	Run3	regulate/STIM_021.jpg	99
2324.227	1.897	1896.6	regulate	Run3	regulate/STIM_021.jpg	99
2329.142	1.136	1135.9	regulate	Run3	regulate/STIM_021.jpg	100
2333.482	1.575	1574.6	regulate	Run3	regulate/STIM_022.jpg	99
2338.161	2.299	2299.1	regulate	Run3	regulate/STIM_022.jpg	99
2343.149	1.164	1163.9	regulate	Run3	regulate/STIM_022.jpg	100
2347.848	2.413	2412.8	regulate	Run3	regulate/STIM_022.jpg	99
2353.399	1.697	1697.0	regulate	Run3	regulate/STIM_023.jpg	100
2357.804	1.822	1822.0	regulate	Run3	regulate/STIM_023.jpg	99
2361.842	1.67	1670.5	regulate	Run3	regulate/STIM_023.jpg	99
2366.507	1.87	1870.2	regulate	Run3	regulate/STIM_023.jpg	100
2371.019	1.794	1794.5	regulate	Run3	regulate/STIM_024.jpg	99
2375.358	1.402	1402.0	regulate	Run3	regulate/STIM_024.jpg	99
2378.976	1.45	1449.5	regulate	Run3	regulate/STIM_024.jpg	100
2383.967	0.959	958.8	regulate	Run3	regulate/STIM_024.jpg	99
2387.233	1.992	1991.5	regulate	Run3	regulate/STIM_025.jpg	99
2391.608	1.806	1805.5	regulate	Run3	regulate/STIM_025.jpg	99
2395.661	2.063	2063.3	regulate	Run3	regulate/STIM_025.jpg	99
2401.351	1.963	1962.6	regulate	Run3	regulate/STIM_025.jpg	100
2407.372	1.208	1208.4	regulate	Run3	regulate/STIM_026.jpg	99
2410.68	1.325	1324.6	regulate	Run3	regulate/STIM_026.jpg	99
2415.506	1.687	1686.8	regulate	Run3	regulate/STIM_026.jpg	100
2419.661	2.057	2057.4	regulate	Run3	regulate/STIM_026.jpg	99
2424.735	1.79	1789.6	regulate	Run3	regulate/STIM_027.jpg	99
2428.887	1.699	1699.3	regulate	Run3	regulate/STIM_027.jpg	99
2432.762	1.662	1661.5	regulate	Run3	regulate/STIM_027.jpg	99
2437.259	1.09	1089.7	regulate	Run3	regulate/STIM_027.jpg	100
2442.244	1.46	1459.8	regulate	Run3	regulate/STIM_028.jpg	100
2446.392	1.281	1281.2	regulate	Run3	regulate/STIM_028.jpg	99
2450.515	1.267	1267.1	regulate	Run3	regulate/STIM_028.jpg	99
2455.439	1.478	1478.3	regulate	Run3	regulate/STIM_028.jpg	99
2460.896	1.41	1410.4	regulate	Run3	regulate/STIM_029.jpg	99
2465.8	1.279	1279.4	regulate	Run3	regulate/STIM_029.jpg	100
2470.867	2.179	2179.1	regulate	Run3	regulate/STIM_029.jpg	99
2475.516	2.011	2011.1	regulate	Run3	regulate/STIM_029.jpg	99
2481.091	0.959	959.2	observe	Run3	observe/STIM_000.jpg	100
2484.215	1.123	1122.8	observe	Run3	observe/STIM_000.jpg	99
2487.714	1.598	1597.9	observe	Run3	observe/STIM_000.jpg	100
2491.388	1.155	1154.7	observe	Run3	observe/STIM_000.jpg	99
2495.551	0.919	918.7	observe	Run3	observe/STIM_001.jpg	100
2498.772	0.802	801.6	observe	Run3	observe/STIM_001.jpg	100
2501.833	0.912	912.4	observe	Run3	observe/STIM_001.jpg	100
2506.456	1.032	1032.5	observe	Run3	observe/STIM_001.jpg	99
2509.936	1.553	1553.4	observe	Run3	observe/STIM_002.jpg	99
2515.251	0.921	921.3	observe	Run3	observe/STIM_002.jpg	99
2518.819	1.188	1188.4	observe	Run3	observe/STIM_002.jpg	100
2523.265	0.809	809.0	observe	Run3	observe/STIM_002.jpg	100
2526.755	1.226	1225.9	observe	Run3	observe/STIM_003.jpg	100
2531.231	1.202	1202.4	observe	Run3	observe/STIM_003.jpg	100
2535.086	1.142	1142.2	observe	Run3	observe/STIM_003.jpg	99
2538.785	1.288	1288.3	observe	Run3	observe/STIM_003.jpg	99
2542.76	0.725	724.7	observe	Run3	observe/STIM_004.jpg	100
2546.182	1.404	1404.4	observe	Run3	observe/STIM_004.jpg	100
2550.629	1.404	1404.1	observe	Run3	observe/STIM_004.jpg	100
2555.451	1.264	1263.8	observe	Run3	observe/STIM_004.jpg	99
2560.705	1.367	1366.7	observe	Run3	observe/STIM_005.jpg	99
2565.691	1.068	1068.2	observe	Run3	observe/STIM_005.jpg	99
2569.995	1.105	1105.3	observe	Run3	observe/STIM_005.jpg	100
2574.996	1.074	1074.1	observe	Run3	observe/STIM_005.jpg	100
2579.005	1.339	1339.1	observe	Run3	observe/STIM_006.jpg	99
2583.266	1.584	1584.5	observe	Run3	observe/STIM_006.jpg	99
2587.617	0.874	873.5	observe	Run3	observe/STIM_006.jpg	100
2591.158	1.292	1291.5	observe	Run3	observe/STIM_006.jpg	100
2596.326	1.235	1235.3	observe	Run3	observe/STIM_007.jpg	99
2600.562	1.452	1452.1	observe	Run3	observe/STIM_007.jpg	100
2606.086	1.161	1161.2	observe	Run3	observe/STIM_007.jpg	100
2610.716	1.144	1144.3	observe	Run3	observe/STIM_007.jpg	100
2614.686	0.809	809.4	observe	Run3	observe/STIM_008.jpg	100
2617.905	1.144	1143.7	observe	Run3	observe/STIM_008.jpg	99
2621.266	1.016	1015.8	observe	Run3	observe/STIM_008.jpg	100
2625.296	0.704	703.8	observe	Run3	observe/STIM_008.jpg	99
2628.445	0.887	886.7	observe	Run3	observe/STIM_009.jpg	100
2631.494	1.187	1186.6	observe	Run3	observe/STIM_009.jpg	100
2636.604	1.423	1423.0	observe	Run3	observe/STIM_009.jpg	100
2641.114	0.99	989.5	observe	Run3	observe/STIM_009.jpg	99
2644.455	0.841	841.3	observe	Run3	observe/STIM_010.jpg	100
2648.553	1.291	1291.0	observe	Run3	observe/STIM_010.jpg	99
2653.732	1.243	1243.2	observe	Run3	observe/STIM_010.jpg	100
2657.297	1.046	1045.5	observe	Run3	observe/STIM_010.jpg	99
2660.636	1.309	1308.8	observe	Run3	observe/STIM_011.jpg	99
2664.533	1.274	1274.2	observe	Run3	observe/STIM_011.jpg	99
2669.568	1.365	1365.0	observe	Run3	observe/STIM_011.jpg	100
2673.262	0.841	841.1	observe	Run3	observe/STIM_011.jpg	99
2676.511	0.979	978.9	observe	Run3	observe/STIM_012.jpg	99
2681.547	1.452	1452.5	observe	Run3	observe/STIM_012.jpg	100
2685.807	1.438	1438.1	observe	Run3	observe/STIM_012.jpg	100
2690.899	1.491	1491.1	observe	Run3	observe/STIM_012.jpg	100
2694.82	1.088	1088.4	observe	Run3	observe/STIM_013.jpg	99
2698.848	1.049	1048.8	observe	Run3	observe/STIM_013.jpg	99
2702.743	1.073	1073.1	observe	Run3	observe/STIM_013.jpg	99
2706.084	0.916	916.5	observe	Run3	observe/STIM_013.jpg	100
2710.456	1.438	1438.5	observe	Run3	observe/STIM_014.jpg	100
2715.059	0.908	908.2	observe	Run3	observe/STIM_014.jpg	100
2719.474	1.333	1332.8	observe	Run3	observe/STIM_014.jpg	100
2723.453	0.89	890.2	observe	Run3	observe/STIM_014.jpg	100
2728.189	1.059	1058.6	observe	Run3	observe/STIM_015.jpg	100
2731.604	0.93	930.1	observe	Run3	observe/STIM_015.jpg	99
2735.021	0.85	850.2	observe	Run3	observe/STIM_015.jpg	99
2739.832	1.425	1425.1	observe	Run3	observe/STIM_015.jpg	100
2744.266	1.554	1553.6	observe	Run3	observe/STIM_016.jpg	99
2748.522	1.242	1242.3	observe	Run3	observe/STIM_016.jpg	99
2753.696	1.343	1343.3	observe	Run3	observe/STIM_016.jpg	100
2758.695	1.213	1213.4	observe	Run3	observe/STIM_016.jpg	99
2762.874	1.12	1119.5	observe	Run3	observe/STIM_017.jpg	99
2767.454	1.153	1153.3	observe	Run3	observe/STIM_017.jpg	100
2771.689	1.55	1549.7	observe	Run3	observe/STIM_017.jpg	100
2777.18	0.991	991.1	observe	Run3	observe/STIM_017.jpg	99
2780.898	1.4	1399.8	observe	Run3	observe/STIM_018.jpg	100
2786.059	0.977	977.0	observe	Run3	observe/STIM_018.jpg	99
2790.093	1.501	1501.1	observe	Run3	observe/STIM_018.jpg	100
2794.239	0.863	862.7	observe	Run3	observe/STIM_018.jpg	100
2797.97	0.732	731.5	observe	Run3	observe/STIM_019.jpg	99
2801.276	1.133	1132.9	observe	Run3	observe/STIM_019.jpg	100
2806.367	1.35	1349.7	observe	Run3	observe/STIM_019.jpg	99
2811.652	1.338	1337.9	observe	Run3	observe/STIM_019.jpg	99
