onset	duration	accuracy	trial_type	learning_stage	stimulus
0.0	0.965	correct	incongruent	Block1	incongruent/STIM_000.jpg
3.476	1.199	correct	incongruent	Block1	incongruent/STIM_000.jpg
8.234	0.73	correct	incongruent	Block1	incongruent/STIM_000.jpg
11.986	0.936	correct	incongruent	Block1	incongruent/STIM_000.jpg
16.471	1.06	correct	incongruent	Block1	incongruent/STIM_000.jpg
20.791	1.024	correct	incongruent	Block1	incongruent/STIM_001.jpg
23.934	1.122	correct	incongruent	Block1	incongruent/STIM_001.jpg
28.087	0.849	correct	incongruent	Block1	incongruent/STIM_001.jpg
32.678	0.996	correct	incongruent	Block1	incongruent/STIM_001.jpg
37.559	0.702	correct	incongruent	Block1	incongruent/STIM_001.jpg
40.369	0.876	correct	incongruent	Block1	incongruent/STIM_002.jpg
44.209	1.021	correct	incongruent	Block1	incongruent/STIM_002.jpg
48.826	1.183	correct	incongruent	Block1	incongruent/STIM_002.jpg
53.816	0.831	correct	incongruent	Block1	incongruent/STIM_002.jpg
57.772	0.862	correct	incongruent	Block1	incongruent/STIM_002.jpg
61.415	1.136	correct	incongruent	Block1	incongruent/STIM_003.jpg
65.425	1.303	correct	incongruent	Block1	incongruent/STIM_003.jpg
70.109	1.12	correct	incongruent	Block1	incongruent/STIM_003.jpg
74.855	0.773	correct	incongruent	Block1	incongruent/STIM_003.jpg
77.925	0.839	correct	incongruent	Block1	incongruent/STIM_003.jpg
82.05	1.176	correct	incongruent	Block1	incongruent/STIM_004.jpg
86.011	1.101	correct	incongruent	Block1	incongruent/STIM_004.jpg
89.32	1.187	correct	incongruent	Block1	incongruent/STIM_004.jpg
93.891	0.895	correct	incongruent	Block1	incongruent/STIM_004.jpg
97.021	0.956	correct	incongruent	Block1	incongruent/STIM_004.jpg
101.578	1.219	correct	incongruent	Block1	incongruent/STIM_005.jpg
106.796	0.979	correct	incongruent	Block1	incongruent/STIM_005.jpg
110.515	0.894	correct	incongruent	Block1	incongruent/STIM_005.jpg
114.213	1.109	correct	incongruent	Block1	incongruent/STIM_005.jpg
117.581	0.857	correct	incongruent	Block1	incongruent/STIM_005.jpg
122.084	0.857	correct	incongruent	Block1	incongruent/STIM_006.jpg
124.988	0.979	correct	incongruent	Block1	incongruent/STIM_006.jpg
129.047	1.076	correct	incongruent	Block1	incongruent/STIM_006.jpg
133.208	0.626	correct	incongruent	Block1	incongruent/STIM_006.jpg
136.152	1.102	correct	incongruent	Block1	incongruent/STIM_006.jpg
140.351	1.294	correct	incongruent	Block1	incongruent/STIM_007.jpg
143.747	0.761	correct	incongruent	Block1	incongruent/STIM_007.jpg
147.294	1.221	correct	incongruent	Block1	incongruent/STIM_007.jpg
151.778	0.7	correct	incongruent	Block1	incongruent/STIM_007.jpg
154.602	0.604	correct	incongruent	Block1	incongruent/STIM_007.jpg
158.36	1.306	correct	incongruent	Block1	incongruent/STIM_008.jpg
163.092	0.785	correct	incongruent	Block1	incongruent/STIM_008.jpg
167.569	0.938	correct	incongruent	Block1	incongruent/STIM_008.jpg
171.913	1.058	correct	incongruent	Block1	incongruent/STIM_008.jpg
175.901	0.748	correct	incongruent	Block1	incongruent/STIM_008.jpg
180.292	1.347	incorrect	incongruent	Block1	incongruent/STIM_009.jpg
184.534	1.015	correct	incongruent	Block1	incongruent/STIM_009.jpg
189.456	1.203	correct	incongruent	Block1	incongruent/STIM_009.jpg
193.722	1.154	correct	incongruent	Block1	incongruent/STIM_009.jpg
197.585	0.682	correct	incongruent	Block1	incongruent/STIM_009.jpg
202.177	0.824	correct	incongruent	Block1	incongruent/STIM_010.jpg
206.324	1.378	correct	incongruent	Block1	incongruent/STIM_010.jpg
210.679	0.852	correct	incongruent	Block1	incongruent/STIM_010.jpg
213.943	1.125	correct	incongruent	Block1	incongruent/STIM_010.jpg
217.25	0.704	correct	incongruent	Block1	incongruent/STIM_010.jpg
221.248	1.141	correct	incongruent	Block1	incongruent/STIM_011.jpg
226.374	1.164	correct	incongruent	Block1	incongruent/STIM_011.jpg
230.596	1.238	correct	incongruent	Block1	incongruent/STIM_011.jpg
234.987	0.651	correct	incongruent	Block1	incongruent/STIM_011.jpg
238.267	0.935	correct	incongruent	Block1	incongruent/STIM_011.jpg
242.244	1.09	correct	incongruent	Block1	incongruent/STIM_012.jpg
246.341	0.915	correct	incongruent	Block1	incongruent/STIM_012.jpg
249.613	1.125	correct	incongruent	Block1	incongruent/STIM_012.jpg
253.517	0.909	incorrect	incongruent	Block1	incongruent/STIM_012.jpg
256.52	0.704	correct	incongruent	Block1	incongruent/STIM_012.jpg
260.872	1.336	incorrect	incongruent	Block1	incongruent/STIM_013.jpg
265.383	0.987	correct	incongruent	Block1	incongruent/STIM_013.jpg
269.023	1.252	correct	incongruent	Block1	incongruent/STIM_013.jpg
272.618	0.773	correct	incongruent	Block1	incongruent/STIM_013.jpg
277.33	1.073	correct	incongruent	Block1	incongruent/STIM_013.jpg
280.742	1.022	correct	incongruent	Block1	incongruent/STIM_014.jpg
284.071	0.802	correct	incongruent	Block1	incongruent/STIM_014.jpg
288.441	0.724	correct	incongruent	Block1	incongruent/STIM_014.jpg
291.517	0.721	correct	incongruent	Block1	incongruent/STIM_014.jpg
294.958	0.706	correct	incongruent	Block1	incongruent/STIM_014.jpg
297.993	0.992	correct	incongruent	Block1	incongruent/STIM_015.jpg
301.367	1.096	correct	incongruent	Block1	incongruent/STIM_015.jpg
305.397	1.188	correct	incongruent	Block1	incongruent/STIM_015.jpg
309.793	0.681	incorrect	incongruent	Block1	incongruent/STIM_015.jpg
314.003	0.794	correct	incongruent	Block1	incongruent/STIM_015.jpg
317.546	1.25	correct	incongruent	Block1	incongruent/STIM_016.jpg
321.567	1.291	correct	incongruent	Block1	incongruent/STIM_016.jpg
325.862	0.991	correct	incongruent	Block1	incongruent/STIM_016.jpg
329.543	0.963	correct	incongruent	Block1	incongruent/STIM_016.jpg
333.776	0.861	correct	incongruent	Block1	incongruent/STIM_016.jpg
336.672	1.045	correct	incongruent	Block1	incongruent/STIM_017.jpg
340.313	1.121	correct	incongruent	Block1	incongruent/STIM_017.jpg
344.922	0.948	correct	incongruent	Block1	incongruent/STIM_017.jpg
348.15	0.97	correct	incongruent	Block1	incongruent/STIM_017.jpg
351.842	0.964	correct	incongruent	Block1	incongruent/STIM_017.jpg
355.729	1.076	correct	incongruent	Block1	incongruent/STIM_018.jpg
360.075	0.989	correct	incongruent	Block1	incongruent/STIM_018.jpg
364.806	1.29	correct	incongruent	Block1	incongruent/STIM_018.jpg
368.643	1.217	correct	incongruent	Block1	incongruent/STIM_018.jpg
373.812	0.61	correct	incongruent	Block1	incongruent/STIM_018.jpg
376.552	0.79	correct	incongruent	Block1	incongruent/STIM_019.jpg
380.704	0.787	correct	incongruent	Block1	incongruent/STIM_019.jpg
383.874	0.727	correct	incongruent	Block1	incongruent/STIM_019.jpg
387.738	0.798	correct	incongruent	Block1	incongruent/STIM_019.jpg
392.527	1.116	correct	incongruent	Block1	incongruent/STIM_019.jpg
396.598	1.114	correct	incongruent	Block1	incongruent/STIM_020.jpg
401.249	0.927	correct	incongruent	Block1	incongruent/STIM_020.jpg
404.84	0.93	correct	incongruent	Block1	incongruent/STIM_020.jpg
407.855	0.844	incorrect	incongruent	Block1	incongruent/STIM_020.jpg
412.45	1.045	correct	incongruent	Block1	incongruent/STIM_020.jpg
416.204	0.916	correct	incongruent	Block1	incongruent/STIM_021.jpg
419.187	1.206	incorrect	incongruent	Block1	incongruent/STIM_021.jpg
423.041	0.718	correct	incongruent	Block1	incongruent/STIM_021.jpg
426.033	1.12	correct	incongruent	Block1	incongruent/STIM_021.jpg
429.665	0.559	correct	incongruent	Block1	incongruent/STIM_021.jpg
433.676	0.955	correct	incongruent	Block1	incongruent/STIM_022.jpg
437.521	1.354	correct	incongruent	Block1	incongruent/STIM_022.jpg
441.279	0.902	correct	incongruent	Block1	incongruent/STIM_022.jpg
446.144	0.602	correct	incongruent	Block1	incongruent/STIM_022.jpg
449.576	0.698	correct	incongruent	Block1	incongruent/STIM_022.jpg
453.316	1.328	correct	incongruent	Block1	incongruent/STIM_023.jpg
458.43	1.214	correct	incongruent	Block1	incongruent/STIM_023.jpg
461.874	0.677	correct	incongruent	Block1	incongruent/STIM_023.jpg
465.404	0.648	correct	incongruent	Block1	incongruent/STIM_023.jpg
468.32	0.885	incorrect	incongruent	Block1	incongruent/STIM_023.jpg
471.348	1.133	correct	incongruent	Block1	incongruent/STIM_024.jpg
474.861	0.701	incorrect	incongruent	Block1	incongruent/STIM_024.jpg
479.035	0.697	correct	incongruent	Block1	incongruent/STIM_024.jpg
482.702	1.092	correct	incongruent	Block1	incongruent/STIM_024.jpg
485.997	0.642	incorrect	incongruent	Block1	incongruent/STIM_024.jpg
490.111	1.198	correct	incongruent	Block1	incongruent/STIM_025.jpg
494.689	1.21	correct	incongruent	Block1	incongruent/STIM_025.jpg
499.345	0.816	correct	incongruent	Block1	incongruent/STIM_025.jpg
504.048	0.814	correct	incongruent	Block1	incongruent/STIM_025.jpg
507.294	0.683	correct	incongruent	Block1	incongruent/STIM_025.jpg
511.634	0.841	correct	incongruent	Block1	incongruent/STIM_026.jpg
515.765	0.859	correct	incongruent	Block1	incongruent/STIM_026.jpg
520.293	1.257	incorrect	incongruent	Block1	incongruent/STIM_026.jpg
524.704	1.209	correct	incongruent	Block1	incongruent/STIM_026.jpg
529.02	1.031	correct	incongruent	Block1	incongruent/STIM_026.jpg
532.311	1.332	correct	incongruent	Block1	incongruent/STIM_027.jpg
537.146	1.2	correct	incongruent	Block1	incongruent/STIM_027.jpg
540.799	1.19	incorrect	incongruent	Block1	incongruent/STIM_027.jpg
544.882	0.713	correct	incongruent	Block1	incongruent/STIM_027.jpg
547.655	1.031	correct	incongruent	Block1	incongruent/STIM_027.jpg
552.078	1.191	correct	incongruent	Block1	incongruent/STIM_028.jpg
555.353	0.959	correct	incongruent	Block1	incongruent/STIM_028.jpg
558.992	0.791	correct	incongruent	Block1	incongruent/STIM_028.jpg
563.007	0.819	correct	incongruent	Block1	incongruent/STIM_028.jpg
565.925	0.914	correct	incongruent	Block1	incongruent/STIM_028.jpg
570.106	1.176	correct	incongruent	Block1	incongruent/STIM_029.jpg
573.468	1.094	correct	incongruent	Block1	incongruent/STIM_029.jpg
576.828	1.325	correct	incongruent	Block1	incongruent/STIM_029.jpg
581.094	0.609	correct	incongruent	Block1	incongruent/STIM_029.jpg
584.58	0.749	correct	incongruent	Block1	incongruent/STIM_029.jpg
588.397	0.53	correct	congruent	Block1	congruent/STIM_000.jpg
592.284	0.734	correct	congruent	Block1	congruent/STIM_000.jpg
595.415	0.703	correct	congruent	Block1	congruent/STIM_000.jpg
599.105	0.834	correct	congruent	Block1	congruent/STIM_000.jpg
602.263	0.755	correct	congruent	Block1	congruent/STIM_000.jpg
606.223	0.645	correct	congruent	Block1	congruent/STIM_001.jpg
609.329	0.805	correct	congruent	Block1	congruent/STIM_001.jpg
613.441	0.542	correct	congruent	Block1	congruent/STIM_001.jpg
617.368	0.56	correct	congruent	Block1	congruent/STIM_001.jpg
621.909	0.674	correct	congruent	Block1	congruent/STIM_001.jpg
624.966	0.651	correct	congruent	Block1	congruent/STIM_002.jpg
628.297	0.594	correct	congruent	Block1	congruent/STIM_002.jpg
631.084	0.568	correct	congruent	Block1	congruent/STIM_002.jpg
634.457	0.506	correct	congruent	Block1	congruent/STIM_002.jpg
637.761	0.768	incorrect	congruent	Block1	congruent/STIM_002.jpg
641.837	0.838	correct	congruent	Block1	congruent/STIM_003.jpg
645.778	0.836	correct	congruent	Block1	congruent/STIM_003.jpg
649.395	0.734	correct	congruent	Block1	congruent/STIM_003.jpg
653.548	0.731	correct	congruent	Block1	congruent/STIM_003.jpg
656.785	0.735	correct	congruent	Block1	congruent/STIM_003.jpg
659.619	0.598	correct	congruent	Block1	congruent/STIM_004.jpg
662.633	0.858	correct	congruent	Block1	congruent/STIM_004.jpg
666.609	0.87	correct	congruent	Block1	congruent/STIM_004.jpg
670.817	0.783	correct	congruent	Block1	congruent/STIM_004.jpg
674.165	0.576	correct	congruent	Block1	congruent/STIM_004.jpg
678.56	0.502	correct	congruent	Block1	congruent/STIM_005.jpg
682.65	0.627	correct	congruent	Block1	congruent/STIM_005.jpg
685.333	0.779	correct	congruent	Block1	congruent/STIM_005.jpg
688.352	0.501	correct	congruent	Block1	congruent/STIM_005.jpg
692.269	0.574	correct	congruent	Block1	congruent/STIM_005.jpg
695.49	0.492	correct	congruent	Block1	congruent/STIM_006.jpg
699.226	0.773	correct	congruent	Block1	congruent/STIM_006.jpg
703.624	0.816	correct	congruent	Block1	congruent/STIM_006.jpg
707.75	0.664	correct	congruent	Block1	congruent/STIM_006.jpg
711.047	0.726	correct	congruent	Block1	congruent/STIM_006.jpg
714.116	0.526	correct	congruent	Block1	congruent/STIM_007.jpg
717.229	0.749	correct	congruent	Block1	congruent/STIM_007.jpg
720.5	0.59	correct	congruent	Block1	congruent/STIM_007.jpg
723.712	0.788	correct	congruent	Block1	congruent/STIM_007.jpg
727.348	0.678	correct	congruent	Block1	congruent/STIM_007.jpg
730.274	0.829	correct	congruent	Block1	congruent/STIM_008.jpg
734.614	0.825	correct	congruent	Block1	congruent/STIM_008.jpg
739.098	0.824	correct	congruent	Block1	congruent/STIM_008.jpg
743.364	0.804	correct	congruent	Block1	congruent/STIM_008.jpg
746.236	0.742	correct	congruent	Block1	congruent/STIM_008.jpg
749.969	0.698	correct	congruent	Block1	congruent/STIM_009.jpg
753.713	0.565	correct	congruent	Block1	congruent/STIM_009.jpg
757.939	0.666	correct	congruent	Block1	congruent/STIM_009.jpg
761.091	0.585	correct	congruent	Block1	congruent/STIM_009.jpg
765.351	0.693	correct	congruent	Block1	congruent/STIM_009.jpg
769.655	0.532	correct	congruent	Block1	congruent/STIM_010.jpg
774.081	0.634	correct	congruent	Block1	congruent/STIM_010.jpg
778.503	0.845	correct	congruent	Block1	congruent/STIM_010.jpg
781.719	0.88	correct	congruent	Block1	congruent/STIM_010.jpg
786.236	0.756	correct	congruent	Block1	congruent/STIM_010.jpg
790.131	0.611	correct	congruent	Block1	congruent/STIM_011.jpg
794.714	0.582	correct	congruent	Block1	congruent/STIM_011.jpg
798.274	0.867	correct	congruent	Block1	congruent/STIM_011.jpg
801.246	0.744	correct	congruent	Block1	congruent/STIM_011.jpg
804.878	0.732	correct	congruent	Block1	congruent/STIM_011.jpg
808.636	0.572	correct	congruent	Block1	congruent/STIM_012.jpg
812.58	0.498	correct	congruent	Block1	congruent/STIM_012.jpg
816.285	0.553	correct	congruent	Block1	congruent/STIM_012.jpg
819.887	0.834	correct	congruent	Block1	congruent/STIM_012.jpg
823.464	0.564	correct	congruent	Block1	congruent/STIM_012.jpg
827.536	0.751	correct	congruent	Block1	congruent/STIM_013.jpg
832.15	0.617	correct	congruent	Block1	congruent/STIM_013.jpg
835.919	0.496	correct	congruent	Block1	congruent/STIM_013.jpg
839.968	0.779	correct	congruent	Block1	congruent/STIM_013.jpg
844.682	0.8	correct	congruent	Block1	congruent/STIM_013.jpg
847.587	0.522	correct	congruent	Block1	congruent/STIM_014.jpg
851.768	0.666	correct	congruent	Block1	congruent/STIM_014.jpg
856.093	0.877	correct	congruent	Block1	congruent/STIM_014.jpg
860.764	0.736	correct	congruent	Block1	congruent/STIM_014.jpg
864.551	0.504	correct	congruent	Block1	congruent/STIM_014.jpg
868.005	0.741	correct	congruent	Block1	congruent/STIM_015.jpg
872.558	0.827	correct	congruent	Block1	congruent/STIM_015.jpg
877.048	0.759	correct	congruent	Block1	congruent/STIM_015.jpg
881.8	0.547	incorrect	congruent	Block1	congruent/STIM_015.jpg
884.555	0.653	correct	congruent	Block1	congruent/STIM_015.jpg
889.115	0.808	correct	congruent	Block1	congruent/STIM_016.jpg
892.784	0.82	correct	congruent	Block1	congruent/STIM_016.jpg
896.253	0.801	correct	congruent	Block1	congruent/STIM_016.jpg
899.215	0.607	correct	congruent	Block1	congruent/STIM_016.jpg
901.922	0.508	correct	congruent	Block1	congruent/STIM_016.jpg
905.982	0.773	correct	congruent	Block1	congruent/STIM_017.jpg
909.25	0.811	correct	congruent	Block1	congruent/STIM_017.jpg
913.379	0.767	correct	congruent	Block1	congruent/STIM_017.jpg
918.074	0.846	correct	congruent	Block1	congruent/STIM_017.jpg
922.777	0.809	correct	congruent	Block1	congruent/STIM_017.jpg
926.816	0.625	correct	congruent	Block1	congruent/STIM_018.jpg
930.791	0.666	correct	congruent	Block1	congruent/STIM_018.jpg
935.002	0.502	correct	congruent	Block1	congruent/STIM_018.jpg
939.378	0.61	correct	congruent	Block1	congruent/STIM_018.jpg
942.565	0.686	correct	congruent	Block1	congruent/STIM_018.jpg
946.844	0.739	correct	congruent	Block1	congruent/STIM_019.jpg
951.126	0.804	correct	congruent	Block1	congruent/STIM_019.jpg
954.605	0.807	correct	congruent	Block1	congruent/STIM_019.jpg
957.489	0.792	correct	congruent	Block1	congruent/STIM_019.jpg
961.436	0.595	correct	congruent	Block1	congruent/STIM_019.jpg
965.693	0.548	correct	congruent	Block1	congruent/STIM_020.jpg
969.317	0.559	correct	congruent	Block1	congruent/STIM_020.jpg
973.023	0.837	correct	congruent	Block1	congruent/STIM_020.jpg
976.287	0.629	correct	congruent	Block1	congruent/STIM_020.jpg
979.742	0.644	correct	congruent	Block1	congruent/STIM_020.jpg
983.613	0.866	correct	congruent	Block1	congruent/STIM_021.jpg
986.54	0.684	correct	congruent	Block1	congruent/STIM_021.jpg
989.628	0.634	correct	congruent	Block1	congruent/STIM_021.jpg
993.51	0.748	correct	congruent	Block1	congruent/STIM_021.jpg
997.993	0.533	correct	congruent	Block1	congruent/STIM_021.jpg
1000.99	0.516	correct	congruent	Block1	congruent/STIM_022.jpg
1004.973	0.861	correct	congruent	Block1	congruent/STIM_022.jpg
1009.832	0.824	correct	congruent	Block1	congruent/STIM_022.jpg
1013.228	0.621	correct	congruent	Block1	congruent/STIM_022.jpg
1017.618	0.825	correct	congruent	Block1	congruent/STIM_022.jpg
1021.934	0.576	correct	congruent	Block1	congruent/STIM_023.jpg
1025.154	0.601	correct	congruent	Block1	congruent/STIM_023.jpg
1029.696	0.656	correct	congruent	Block1	congruent/STIM_023.jpg
1032.809	0.858	correct	congruent	Block1	congruent/STIM_023.jpg
1037.118	0.73	correct	congruent	Block1	congruent/STIM_023.jpg
1040.221	0.585	correct	congruent	Block1	congruent/STIM_024.jpg
1044.02	0.647	correct	congruent	Block1	congruent/STIM_024.jpg
1046.957	0.521	correct	congruent	Block1	congruent/STIM_024.jpg
1050.809	0.85	correct	congruent	Block1	congruent/STIM_024.jpg
1055.372	0.502	correct	congruent	Block1	congruent/STIM_024.jpg
1057.914	0.647	correct	congruent	Block1	congruent/STIM_025.jpg
1062.108	0.511	correct	congruent	Block1	congruent/STIM_025.jpg
1066.415	0.741	correct	congruent	Block1	congruent/STIM_025.jpg
1069.57	0.555	correct	congruent	Block1	congruent/STIM_025.jpg
1072.189	0.53	correct	congruent	Block1	congruent/STIM_025.jpg
1076.331	0.694	correct	congruent	Block1	congruent/STIM_026.jpg
1079.688	0.688	correct	congruent	Block1	congruent/STIM_026.jpg
1084.11	0.834	correct	congruent	Block1	congruent/STIM_026.jpg
1087.143	0.792	correct	congruent	Block1	congruent/STIM_026.jpg
1090.06	0.724	correct	congruent	Block1	congruent/STIM_026.jpg
1093.497	0.581	correct	congruent	Block1	congruent/STIM_027.jpg
1096.201	0.7	incorrect	congruent	Block1	congruent/STIM_027.jpg
1099.563	0.723	incorrect	congruent	Block1	congruent/STIM_027.jpg
1102.996	0.564	correct	congruent	Block1	congruent/STIM_027.jpg
1106.98	0.821	correct	congruent	Block1	congruent/STIM_027.jpg
1110.593	0.797	correct	congruent	Block1	congruent/STIM_028.jpg
1114.528	0.604	correct	congruent	Block1	congruent/STIM_028.jpg
1118.524	0.786	correct	congruent	Block1	congruent/STIM_028.jpg
1122.782	0.748	correct	congruent	Block1	congruent/STIM_028.jpg
1126.278	0.763	correct	congruent	Block1	congruent/STIM_028.jpg
1129.094	0.677	correct	congruent	Block1	congruent/STIM_029.jpg
1132.956	0.56	correct	congruent	Block1	congruent/STIM_029.jpg
1135.799	0.726	correct	congruent	Block1	congruent/STIM_029.jpg
1139.282	0.737	correct	congruent	Block1	congruent/STIM_029.jpg
1143.464	0.641	correct	congruent	Block1	congruent/STIM_029.jpg
1146.144	0.958	correct	incongruent	Block2	incongruent/STIM_000.jpg
1150.462	1.003	correct	incongruent	Block2	incongruent/STIM_000.jpg
1155.219	0.927	correct	incongruent	Block2	incongruent/STIM_000.jpg
1158.396	0.826	correct	incongruent	Block2	incongruent/STIM_000.jpg
1162.978	0.564	correct	incongruent	Block2	incongruent/STIM_000.jpg
1166.022	1.158	correct	incongruent	Block2	incongruent/STIM_001.jpg
1170.128	0.697	correct	incongruent	Block2	incongruent/STIM_001.jpg
1173.648	0.843	correct	incongruent	Block2	incongruent/STIM_001.jpg
1176.83	0.597	correct	incongruent	Block2	incongruent/STIM_001.jpg
1180.292	0.606	correct	incongruent	Block2	incongruent/STIM_001.jpg
1183.62	1.07	correct	incongruent	Block2	incongruent/STIM_002.jpg
1187.176	0.909	correct	incongruent	Block2	incongruent/STIM_002.jpg
1190.48	0.584	correct	incongruent	Block2	incongruent/STIM_002.jpg
1193.895	1.021	correct	incongruent	Block2	incongruent/STIM_002.jpg
1198.817	0.714	correct	incongruent	Block2	incongruent/STIM_002.jpg
1203.398	0.998	correct	incongruent	Block2	incongruent/STIM_003.jpg
1208.197	0.808	correct	incongruent	Block2	incongruent/STIM_003.jpg
1211.999	0.537	correct	incongruent	Block2	incongruent/STIM_003.jpg
1216.481	0.77	correct	incongruent	Block2	incongruent/STIM_003.jpg
1220.116	0.689	correct	incongruent	Block2	incongruent/STIM_003.jpg
1224.571	1.128	correct	incongruent	Block2	incongruent/STIM_004.jpg
1229.605	1.102	correct	incongruent	Block2	incongruent/STIM_004.jpg
1233.766	1.03	correct	incongruent	Block2	incongruent/STIM_004.jpg
1237.947	0.703	correct	incongruent	Block2	incongruent/STIM_004.jpg
1240.702	0.499	correct	incongruent	Block2	incongruent/STIM_004.jpg
1244.086	1.106	correct	incongruent	Block2	incongruent/STIM_005.jpg
1247.286	0.789	correct	incongruent	Block2	incongruent/STIM_005.jpg
1251.385	0.672	correct	incongruent	Block2	incongruent/STIM_005.jpg
1254.275	0.728	incorrect	incongruent	Block2	incongruent/STIM_005.jpg
1258.261	0.98	correct	incongruent	Block2	incongruent/STIM_005.jpg
1262.891	1.164	correct	incongruent	Block2	incongruent/STIM_006.jpg
1266.564	1.178	correct	incongruent	Block2	incongruent/STIM_006.jpg
1271.578	0.662	correct	incongruent	Block2	incongruent/STIM_006.jpg
1276.181	0.883	correct	incongruent	Block2	incongruent/STIM_006.jpg
1280.617	1.027	correct	incongruent	Block2	incongruent/STIM_006.jpg
1284.42	0.927	correct	incongruent	Block2	incongruent/STIM_007.jpg
1287.463	0.808	correct	incongruent	Block2	incongruent/STIM_007.jpg
1290.561	0.76	correct	incongruent	Block2	incongruent/STIM_007.jpg
1293.573	0.939	incorrect	incongruent	Block2	incongruent/STIM_007.jpg
1297.932	0.749	incorrect	incongruent	Block2	incongruent/STIM_007.jpg
1301.692	0.966	correct	incongruent	Block2	incongruent/STIM_008.jpg
1306.478	0.928	correct	incongruent	Block2	incongruent/STIM_008.jpg
1309.839	0.845	correct	incongruent	Block2	incongruent/STIM_008.jpg
1313.43	0.73	correct	incongruent	Block2	incongruent/STIM_008.jpg
1316.825	0.558	correct	incongruent	Block2	incongruent/STIM_008.jpg
1319.813	1.231	correct	incongruent	Block2	incongruent/STIM_009.jpg
1323.172	1.002	correct	incongruent	Block2	incongruent/STIM_009.jpg
1327.392	0.634	correct	incongruent	Block2	incongruent/STIM_009.jpg
1330.092	0.909	correct	incongruent	Block2	incongruent/STIM_009.jpg
1334.168	0.644	correct	incongruent	Block2	incongruent/STIM_009.jpg
1337.892	0.853	correct	incongruent	Block2	incongruent/STIM_010.jpg
1342.554	1.104	correct	incongruent	Block2	incongruent/STIM_010.jpg
1346.446	0.834	correct	incongruent	Block2	incongruent/STIM_010.jpg
1350.472	0.791	correct	incongruent	Block2	incongruent/STIM_010.jpg
1354.872	0.973	correct	incongruent	Block2	incongruent/STIM_010.jpg
1359.173	1.14	correct	incongruent	Block2	incongruent/STIM_011.jpg
1364.295	0.869	correct	incongruent	Block2	incongruent/STIM_011.jpg
1368.837	1.072	correct	incongruent	Block2	incongruent/STIM_011.jpg
1372.458	0.73	correct	incongruent	Block2	incongruent/STIM_011.jpg
1376.505	0.926	correct	incongruent	Block2	incongruent/STIM_011.jpg
1380.752	0.718	correct	incongruent	Block2	incongruent/STIM_012.jpg
1384.789	1.01	correct	incongruent	Block2	incongruent/STIM_012.jpg
1388.806	0.814	correct	incongruent	Block2	incongruent/STIM_012.jpg
1391.814	0.786	correct	incongruent	Block2	incongruent/STIM_012.jpg
1394.658	0.933	correct	incongruent	Block2	incongruent/STIM_012.jpg
1398.401	1.058	correct	incongruent	Block2	incongruent/STIM_013.jpg
1402.62	0.617	correct	incongruent	Block2	incongruent/STIM_013.jpg
1406.282	0.59	correct	incongruent	Block2	incongruent/STIM_013.jpg
1410.533	0.546	correct	incongruent	Block2	incongruent/STIM_013.jpg
1413.642	0.649	correct	incongruent	Block2	incongruent/STIM_013.jpg
1416.994	1.193	correct	incongruent	Block2	incongruent/STIM_014.jpg
1420.295	0.752	correct	incongruent	Block2	incongruent/STIM_014.jpg
1423.846	0.913	correct	incongruent	Block2	incongruent/STIM_014.jpg
1426.809	0.713	correct	incongruent	Block2	incongruent/STIM_014.jpg
1430.922	0.958	correct	incongruent	Block2	incongruent/STIM_014.jpg
1435.821	0.99	correct	incongruent	Block2	incongruent/STIM_015.jpg
1439.559	0.876	correct	incongruent	Block2	incongruent/STIM_015.jpg
1442.773	0.926	correct	incongruent	Block2	incongruent/STIM_015.jpg
1447.646	0.592	correct	incongruent	Block2	incongruent/STIM_015.jpg
1450.602	0.663	correct	incongruent	Block2	incongruent/STIM_015.jpg
1453.798	1.237	correct	incongruent	Block2	incongruent/STIM_016.jpg
1458.798	1.054	correct	incongruent	Block2	incongruent/STIM_016.jpg
1462.61	0.94	correct	incongruent	Block2	incongruent/STIM_016.jpg
1467.444	0.63	correct	incongruent	Block2	incongruent/STIM_016.jpg
1471.382	0.746	correct	incongruent	Block2	incongruent/STIM_016.jpg
1474.9	0.696	correct	incongruent	Block2	incongruent/STIM_017.jpg
1478.287	0.779	correct	incongruent	Block2	incongruent/STIM_017.jpg
1482.794	0.683	correct	incongruent	Block2	incongruent/STIM_017.jpg
1487.26	0.999	correct	incongruent	Block2	incongruent/STIM_017.jpg
1492.174	0.562	correct	incongruent	Block2	incongruent/STIM_017.jpg
1495.254	0.616	correct	incongruent	Block2	incongruent/STIM_018.jpg
1498.834	0.845	correct	incongruent	Block2	incongruent/STIM_018.jpg
1503.316	0.835	correct	incongruent	Block2	incongruent/STIM_018.jpg
1506.403	0.708	correct	incongruent	Block2	incongruent/STIM_018.jpg
1510.82	0.582	correct	incongruent	Block2	incongruent/STIM_018.jpg
1514.825	1.17	correct	incongruent	Block2	incongruent/STIM_019.jpg
1519.681	0.892	correct	incongruent	Block2	incongruent/STIM_019.jpg
1523.013	0.552	correct	incongruent	Block2	incongruent/STIM_019.jpg
1527.482	0.927	correct	incongruent	Block2	incongruent/STIM_019.jpg
1531.767	0.952	correct	incongruent	Block2	incongruent/STIM_019.jpg
1536.583	0.744	correct	incongruent	Block2	incongruent/STIM_020.jpg
1541.267	1.152	correct	incongruent	Block2	incongruent/STIM_020.jpg
1545.881	0.521	correct	incongruent	Block2	incongruent/STIM_020.jpg
1549.74	0.937	correct	incongruent	Block2	incongruent/STIM_020.jpg
1553.928	0.579	correct	incongruent	Block2	incongruent/STIM_020.jpg
1558.365	0.818	correct	incongruent	Block2	incongruent/STIM_021.jpg
1562.992	1.037	correct	incongruent	Block2	incongruent/STIM_021.jpg
1566.564	0.795	correct	incongruent	Block2	incongruent/STIM_021.jpg
1569.83	0.666	correct	incongruent	Block2	incongruent/STIM_021.jpg
1574.058	0.723	correct	incongruent	Block2	incongruent/STIM_021.jpg
1578.778	0.633	correct	incongruent	Block2	incongruent/STIM_022.jpg
1581.577	0.806	correct	incongruent	Block2	incongruent/STIM_022.jpg
1586.266	0.97	correct	incongruent	Block2	incongruent/STIM_022.jpg
1589.483	1.029	correct	incongruent	Block2	incongruent/STIM_022.jpg
1593.906	0.664	correct	incongruent	Block2	incongruent/STIM_022.jpg
1597.678	0.953	correct	incongruent	Block2	incongruent/STIM_023.jpg
1602.367	0.661	correct	incongruent	Block2	incongruent/STIM_023.jpg
1606.86	0.923	correct	incongruent	Block2	incongruent/STIM_023.jpg
1609.826	0.636	correct	incongruent	Block2	incongruent/STIM_023.jpg
1613.47	0.696	correct	incongruent	Block2	incongruent/STIM_023.jpg
1617.908	0.999	correct	incongruent	Block2	incongruent/STIM_024.jpg
1621.091	0.728	correct	incongruent	Block2	incongruent/STIM_024.jpg
1624.076	0.616	correct	incongruent	Block2	incongruent/STIM_024.jpg
1627.474	0.556	correct	incongruent	Block2	incongruent/STIM_024.jpg
1631.178	0.757	correct	incongruent	Block2	incongruent/STIM_024.jpg
1635.354	0.745	incorrect	incongruent	Block2	incongruent/STIM_025.jpg
1639.483	0.625	correct	incongruent	Block2	incongruent/STIM_025.jpg
1644.044	0.898	correct	incongruent	Block2	incongruent/STIM_025.jpg
1647.559	0.735	correct	incongruent	Block2	incongruent/STIM_025.jpg
1651.29	0.63	correct	incongruent	Block2	incongruent/STIM_025.jpg
1655.751	1.08	correct	incongruent	Block2	incongruent/STIM_026.jpg
1658.965	0.659	correct	incongruent	Block2	incongruent/STIM_026.jpg
1663.026	1.051	correct	incongruent	Block2	incongruent/STIM_026.jpg
1666.526	0.803	correct	incongruent	Block2	incongruent/STIM_026.jpg
1670.996	0.531	correct	incongruent	Block2	incongruent/STIM_026.jpg
1675.207	0.982	incorrect	incongruent	Block2	incongruent/STIM_027.jpg
1678.191	0.692	incorrect	incongruent	Block2	incongruent/STIM_027.jpg
1682.345	0.656	correct	incongruent	Block2	incongruent/STIM_027.jpg
1686.431	0.853	correct	incongruent	Block2	incongruent/STIM_027.jpg
1689.451	0.759	correct	incongruent	Block2	incongruent/STIM_027.jpg
1693.987	1.214	correct	incongruent	Block2	incongruent/STIM_028.jpg
1697.671	0.76	correct	incongruent	Block2	incongruent/STIM_028.jpg
1700.861	0.7	correct	incongruent	Block2	incongruent/STIM_028.jpg
1704.085	0.603	correct	incongruent	Block2	incongruent/STIM_028.jpg
1708.565	0.667	correct	incongruent	Block2	incongruent/STIM_028.jpg
1711.279	0.841	correct	incongruent	Block2	incongruent/STIM_029.jpg
1714.291	1.134	correct	incongruent	Block2	incongruent/STIM_029.jpg
1718.555	0.994	correct	incongruent	Block2	incongruent/STIM_029.jpg
1722.2	0.768	correct	incongruent	Block2	incongruent/STIM_029.jpg
1726.148	0.997	correct	incongruent	Block2	incongruent/STIM_029.jpg
1730.495	0.853	correct	congruent	Block2	congruent/STIM_000.jpg
1734.834	0.749	correct	congruent	Block2	congruent/STIM_000.jpg
1738.693	0.725	correct	congruent	Block2	congruent/STIM_000.jpg
1742.055	0.751	correct	congruent	Block2	congruent/STIM_000.jpg
1746.195	0.697	correct	congruent	Block2	congruent/STIM_000.jpg
1749.864	0.526	correct	congruent	Block2	congruent/STIM_001.jpg
1753.527	0.789	correct	congruent	Block2	congruent/STIM_001.jpg
1758.31	0.631	correct	congruent	Block2	congruent/STIM_001.jpg
1761.477	0.814	correct	congruent	Block2	congruent/STIM_001.jpg
1765.402	0.862	correct	congruent	Block2	congruent/STIM_001.jpg
1768.344	0.499	correct	congruent	Block2	congruent/STIM_002.jpg
1771.347	0.665	incorrect	congruent	Block2	congruent/STIM_002.jpg
1774.154	0.869	correct	congruent	Block2	congruent/STIM_002.jpg
1778.04	0.6	correct	congruent	Block2	congruent/STIM_002.jpg
1782.321	0.755	correct	congruent	Block2	congruent/STIM_002.jpg
1786.576	0.733	correct	congruent	Block2	congruent/STIM_003.jpg
1791.257	0.824	correct	congruent	Block2	congruent/STIM_003.jpg
1795.173	0.706	correct	congruent	Block2	congruent/STIM_003.jpg
1799.282	0.745	correct	congruent	Block2	congruent/STIM_003.jpg
1803.955	0.531	correct	congruent	Block2	congruent/STIM_003.jpg
1807.46	0.582	correct	congruent	Block2	congruent/STIM_004.jpg
1810.266	0.822	correct	congruent	Block2	congruent/STIM_004.jpg
1813.918	0.812	correct	congruent	Block2	congruent/STIM_004.jpg
1816.879	0.701	correct	congruent	Block2	congruent/STIM_004.jpg
1821.474	0.602	correct	congruent	Block2	congruent/STIM_004.jpg
1825.274	0.546	correct	congruent	Block2	congruent/STIM_005.jpg
1828.642	0.851	incorrect	congruent	Block2	congruent/STIM_005.jpg
1832.658	0.551	correct	congruent	Block2	congruent/STIM_005.jpg
1836.738	0.562	correct	congruent	Block2	congruent/STIM_005.jpg
1841.267	0.758	correct	congruent	Block2	congruent/STIM_005.jpg
1844.819	0.596	correct	congruent	Block2	congruent/STIM_006.jpg
1848.585	0.865	correct	congruent	Block2	congruent/STIM_006.jpg
1853.283	0.86	correct	congruent	Block2	congruent/STIM_006.jpg
1856.941	0.688	incorrect	congruent	Block2	congruent/STIM_006.jpg
1860.663	0.767	correct	congruent	Block2	congruent/STIM_006.jpg
1863.703	0.758	correct	congruent	Block2	congruent/STIM_007.jpg
1868.199	0.603	correct	congruent	Block2	congruent/STIM_007.jpg
1872.283	0.495	correct	congruent	Block2	congruent/STIM_007.jpg
1875.31	0.857	correct	congruent	Block2	congruent/STIM_007.jpg
1879.314	0.594	correct	congruent	Block2	congruent/STIM_007.jpg
1882.335	0.785	correct	congruent	Block2	congruent/STIM_008.jpg
1886.607	0.631	incorrect	congruent	Block2	congruent/STIM_008.jpg
1890.961	0.862	correct	congruent	Block2	congruent/STIM_008.jpg
1894.649	0.599	correct	congruent	Block2	congruent/STIM_008.jpg
1897.859	0.856	correct	congruent	Block2	congruent/STIM_008.jpg
1901.784	0.851	correct	congruent	Block2	congruent/STIM_009.jpg
1905.813	0.882	correct	congruent	Block2	congruent/STIM_009.jpg
1910.372	0.668	correct	congruent	Block2	congruent/STIM_009.jpg
1914.773	0.754	correct	congruent	Block2	congruent/STIM_009.jpg
1918.099	0.588	correct	congruent	Block2	congruent/STIM_009.jpg
1922.164	0.86	correct	congruent	Block2	congruent/STIM_010.jpg
1925.334	0.676	incorrect	congruent	Block2	congruent/STIM_010.jpg
1928.875	0.864	correct	congruent	Block2	congruent/STIM_010.jpg
1932.549	0.566	correct	congruent	Block2	congruent/STIM_010.jpg
1935.948	0.778	correct	congruent	Block2	congruent/STIM_010.jpg
1939.593	0.514	correct	congruent	Block2	congruent/STIM_011.jpg
1943.013	0.823	correct	congruent	Block2	congruent/STIM_011.jpg
1946.112	0.687	correct	congruent	Block2	congruent/STIM_011.jpg
1949.114	0.607	correct	congruent	Block2	congruent/STIM_011.jpg
1952.873	0.534	correct	congruent	Block2	congruent/STIM_011.jpg
1956.321	0.784	correct	congruent	Block2	congruent/STIM_012.jpg
1960.027	0.5	correct	congruent	Block2	congruent/STIM_012.jpg
1963.145	0.815	incorrect	congruent	Block2	congruent/STIM_012.jpg
1967.294	0.791	correct	congruent	Block2	congruent/STIM_012.jpg
1971.941	0.856	correct	congruent	Block2	congruent/STIM_012.jpg
1975.716	0.7	correct	congruent	Block2	congruent/STIM_013.jpg
1979.475	0.765	correct	congruent	Block2	congruent/STIM_013.jpg
1983.168	0.742	correct	congruent	Block2	congruent/STIM_013.jpg
1986.392	0.54	correct	congruent	Block2	congruent/STIM_013.jpg
1989.62	0.756	correct	congruent	Block2	congruent/STIM_013.jpg
1993.343	0.63	correct	congruent	Block2	congruent/STIM_014.jpg
1997.745	0.818	correct	congruent	Block2	congruent/STIM_014.jpg
2001.609	0.84	correct	congruent	Block2	congruent/STIM_014.jpg
2006.433	0.809	correct	congruent	Block2	congruent/STIM_014.jpg
2011.074	0.657	correct	congruent	Block2	congruent/STIM_014.jpg
2015.431	0.548	correct	congruent	Block2	congruent/STIM_015.jpg
2019.107	0.884	correct	congruent	Block2	congruent/STIM_015.jpg
2023.641	0.667	correct	congruent	Block2	congruent/STIM_015.jpg
2026.559	0.633	correct	congruent	Block2	congruent/STIM_015.jpg
2030.742	0.856	correct	congruent	Block2	congruent/STIM_015.jpg
2033.988	0.576	correct	congruent	Block2	congruent/STIM_016.jpg
2038.152	0.566	correct	congruent	Block2	congruent/STIM_016.jpg
2042.593	0.795	correct	congruent	Block2	congruent/STIM_016.jpg
2046.492	0.832	correct	congruent	Block2	congruent/STIM_016.jpg
2050.413	0.664	correct	congruent	Block2	congruent/STIM_016.jpg
2055.016	0.857	correct	congruent	Block2	congruent/STIM_017.jpg
2058.59	0.541	correct	congruent	Block2	congruent/STIM_017.jpg
2061.96	0.549	correct	congruent	Block2	congruent/STIM_017.jpg
2065.309	0.736	correct	congruent	Block2	congruent/STIM_017.jpg
2069.654	0.642	correct	congruent	Block2	congruent/STIM_017.jpg
2073.448	0.57	correct	congruent	Block2	congruent/STIM_018.jpg
2076.831	0.61	correct	congruent	Block2	congruent/STIM_018.jpg
2080.563	0.672	correct	congruent	Block2	congruent/STIM_018.jpg
2084.643	0.697	correct	congruent	Block2	congruent/STIM_018.jpg
2087.355	0.719	correct	congruent	Block2	congruent/STIM_018.jpg
2091.152	0.658	correct	congruent	Block2	congruent/STIM_019.jpg
2095.099	0.813	correct	congruent	Block2	congruent/STIM_019.jpg
2098.847	0.872	correct	congruent	Block2	congruent/STIM_019.jpg
2102.856	0.879	correct	congruent	Block2	congruent/STIM_019.jpg
2106.512	0.779	correct	congruent	Block2	congruent/STIM_019.jpg
2110.467	0.69	correct	congruent	Block2	congruent/STIM_020.jpg
2113.611	0.677	correct	congruent	Block2	congruent/STIM_020.jpg
2117.046	0.882	correct	congruent	Block2	congruent/STIM_020.jpg
2120.168	0.813	correct	congruent	Block2	congruent/STIM_020.jpg
2124.847	0.847	correct	congruent	Block2	congruent/STIM_020.jpg
2128.145	0.835	correct	congruent	Block2	congruent/STIM_021.jpg
2131.945	0.788	correct	congruent	Block2	congruent/STIM_021.jpg
2135.473	0.616	correct	congruent	Block2	congruent/STIM_021.jpg
2138.523	0.674	correct	congruent	Block2	congruent/STIM_021.jpg
2141.937	0.714	correct	congruent	Block2	congruent/STIM_021.jpg
2145.134	0.559	correct	congruent	Block2	congruent/STIM_022.jpg
2148.757	0.804	correct	congruent	Block2	congruent/STIM_022.jpg
2151.689	0.638	correct	congruent	Block2	congruent/STIM_022.jpg
2155.221	0.692	correct	congruent	Block2	congruent/STIM_022.jpg
2158.772	0.685	correct	congruent	Block2	congruent/STIM_022.jpg
2162.422	0.833	correct	congruent	Block2	congruent/STIM_023.jpg
2166.18	0.698	correct	congruent	Block2	congruent/STIM_023.jpg
2170.659	0.659	correct	congruent	Block2	congruent/STIM_023.jpg
2175.079	0.621	correct	congruent	Block2	congruent/STIM_023.jpg
2178.517	0.575	correct	congruent	Block2	congruent/STIM_023.jpg
2182.095	0.516	correct	congruent	Block2	congruent/STIM_024.jpg
2186.071	0.854	correct	congruent	Block2	congruent/STIM_024.jpg
2188.985	0.661	correct	congruent	Block2	congruent/STIM_024.jpg
2192.776	0.655	correct	congruent	Block2	congruent/STIM_024.jpg
2195.944	0.67	correct	congruent	Block2	congruent/STIM_024.jpg
2199.373	0.529	correct	congruent	Block2	congruent/STIM_025.jpg
2202.907	0.734	incorrect	congruent	Block2	congruent/STIM_025.jpg
2206.062	0.669	correct	congruent	Block2	congruent/STIM_025.jpg
2210.152	0.82	correct	congruent	Block2	congruent/STIM_025.jpg
2214.686	0.854	correct	congruent	Block2	congruent/STIM_025.jpg
2218.149	0.763	correct	congruent	Block2	congruent/STIM_026.jpg
2222.51	0.831	correct	congruent	Block2	congruent/STIM_026.jpg
2225.932	0.819	correct	congruent	Block2	congruent/STIM_026.jpg
2229.093	0.529	correct	congruent	Block2	congruent/STIM_026.jpg
2232.068	0.868	correct	congruent	Block2	congruent/STIM_026.jpg
2235.82	0.712	correct	congruent	Block2	congruent/STIM_027.jpg
2239.328	0.827	correct	congruent	Block2	congruent/STIM_027.jpg
2243.767	0.612	correct	congruent	Block2	congruent/STIM_027.jpg
2247.669	0.657	correct	congruent	Block2	congruent/STIM_027.jpg
2251.468	0.514	correct	congruent	Block2	congruent/STIM_027.jpg
2255.599	0.82	correct	congruent	Block2	congruent/STIM_028.jpg
2260.003	0.536	correct	congruent	Block2	congruent/STIM_028.jpg
2264.446	0.874	correct	congruent	Block2	congruent/STIM_028.jpg
2267.96	0.872	correct	congruent	Block2	congruent/STIM_028.jpg
2271.038	0.506	correct	congruent	Block2	congruent/STIM_028.jpg
2273.797	0.7	correct	congruent	Block2	congruent/STIM_029.jpg
2278.251	0.666	correct	congruent	Block2	congruent/STIM_029.jpg
2281.634	0.872	correct	congruent	Block2	congruent/STIM_029.jpg
2286.293	0.724	correct	congruent	Block2	congruent/STIM_029.jpg
2289.371	0.628	correct	congruent	Block2	congruent/STIM_029.jpg
2292.373	0.707	correct	incongruent	Block3	incongruent/STIM_000.jpg
2296.268	0.98	correct	incongruent	Block3	incongruent/STIM_000.jpg
2301.158	0.745	correct	incongruent	Block3	incongruent/STIM_000.jpg
2304.332	0.914	correct	incongruent	Block3	incongruent/STIM_000.jpg
2308.672	0.652	incorrect	incongruent	Block3	incongruent/STIM_000.jpg
2311.397	0.719	correct	incongruent	Block3	incongruent/STIM_001.jpg
2315.919	0.622	correct	incongruent	Block3	incongruent/STIM_001.jpg
2318.854	0.771	correct	incongruent	Block3	incongruent/STIM_001.jpg
2322.112	0.79	correct	incongruent	Block3	incongruent/STIM_001.jpg
2326.328	0.689	correct	incongruent	Block3	incongruent/STIM_001.jpg
2330.39	0.716	correct	incongruent	Block3	incongruent/STIM_002.jpg
2333.999	0.546	correct	incongruent	Block3	incongruent/STIM_002.jpg
2338.362	0.549	correct	incongruent	Block3	incongruent/STIM_002.jpg
2342.642	1.0	incorrect	incongruent	Block3	incongruent/STIM_002.jpg
2346.787	0.52	correct	incongruent	Block3	incongruent/STIM_002.jpg
2350.721	0.55	correct	incongruent	Block3	incongruent/STIM_003.jpg
2355.143	0.612	correct	incongruent	Block3	incongruent/STIM_003.jpg
2359.283	0.508	correct	incongruent	Block3	incongruent/STIM_003.jpg
2362.251	0.975	correct	incongruent	Block3	incongruent/STIM_003.jpg
2366.962	0.598	correct	incongruent	Block3	incongruent/STIM_003.jpg
2370.276	1.03	correct	incongruent	Block3	incongruent/STIM_004.jpg
2373.989	0.628	correct	incongruent	Block3	incongruent/STIM_004.jpg
2376.907	0.483	correct	incongruent	Block3	incongruent/STIM_004.jpg
2380.503	0.653	correct	incongruent	Block3	incongruent/STIM_004.jpg
2384.72	0.926	correct	incongruent	Block3	incongruent/STIM_004.jpg
2388.419	0.87	correct	incongruent	Block3	incongruent/STIM_005.jpg
2391.874	0.517	correct	incongruent	Block3	incongruent/STIM_005.jpg
2396.389	0.76	correct	incongruent	Block3	incongruent/STIM_005.jpg
2399.26	0.829	correct	incongruent	Block3	incongruent/STIM_005.jpg
2402.264	0.537	correct	incongruent	Block3	incongruent/STIM_005.jpg
2405.199	0.511	correct	incongruent	Block3	incongruent/STIM_006.jpg
2407.775	0.784	incorrect	incongruent	Block3	incongruent/STIM_006.jpg
2412.346	0.707	correct	incongruent	Block3	incongruent/STIM_006.jpg
2416.131	0.517	correct	incongruent	Block3	incongruent/STIM_006.jpg
2419.386	0.555	correct	incongruent	Block3	incongruent/STIM_006.jpg
2423.05	0.853	correct	incongruent	Block3	incongruent/STIM_007.jpg
2425.959	0.881	correct	incongruent	Block3	incongruent/STIM_007.jpg
2429.387	0.494	correct	incongruent	Block3	incongruent/STIM_007.jpg
2432.419	0.729	correct	incongruent	Block3	incongruent/STIM_007.jpg
2436.325	0.616	correct	incongruent	Block3	incongruent/STIM_007.jpg
2439.891	0.934	correct	incongruent	Block3	incongruent/STIM_008.jpg
2443.475	0.726	correct	incongruent	Block3	incongruent/STIM_008.jpg
2448.1	0.768	correct	incongruent	Block3	incongruent/STIM_008.jpg
2451.029	0.816	correct	incongruent	Block3	incongruent/STIM_008.jpg
2455.173	0.721	correct	incongruent	Block3	incongruent/STIM_008.jpg
2459.247	0.495	correct	incongruent	Block3	incongruent/STIM_009.jpg
2462.741	0.984	correct	incongruent	Block3	incongruent/STIM_009.jpg
2467.605	0.741	correct	incongruent	Block3	incongruent/STIM_009.jpg
2472.25	0.489	correct	incongruent	Block3	incongruent/STIM_009.jpg
2476.191	0.685	correct	incongruent	Block3	incongruent/STIM_009.jpg
2480.108	0.915	correct	incongruent	Block3	incongruent/STIM_010.jpg
2484.884	0.785	correct	incongruent	Block3	incongruent/STIM_010.jpg
2487.777	1.014	correct	incongruent	Block3	incongruent/STIM_010.jpg
2491.799	1.022	correct	incongruent	Block3	incongruent/STIM_010.jpg
2496.729	0.964	correct	incongruent	Block3	incongruent/STIM_010.jpg
2499.693	0.939	correct	incongruent	Block3	incongruent/STIM_011.jpg
2502.907	0.921	correct	incongruent	Block3	incongruent/STIM_011.jpg
2506.114	0.609	correct	incongruent	Block3	incongruent/STIM_011.jpg
2510.267	0.898	correct	incongruent	Block3	incongruent/STIM_011.jpg
2514.716	0.735	correct	incongruent	Block3	incongruent/STIM_011.jpg
2518.779	0.72	correct	incongruent	Block3	incongruent/STIM_012.jpg
2523.343	0.527	correct	incongruent	Block3	incongruent/STIM_012.jpg
2527.478	0.71	correct	incongruent	Block3	incongruent/STIM_012.jpg
2531.584	0.7	correct	incongruent	Block3	incongruent/STIM_012.jpg
2536.17	1.021	correct	incongruent	Block3	incongruent/STIM_012.jpg
2540.596	0.584	correct	incongruent	Block3	incongruent/STIM_013.jpg
2544.356	0.746	correct	incongruent	Block3	incongruent/STIM_013.jpg
2548.369	0.664	correct	incongruent	Block3	incongruent/STIM_013.jpg
2551.085	0.535	correct	incongruent	Block3	incongruent/STIM_013.jpg
2555.367	0.523	correct	incongruent	Block3	incongruent/STIM_013.jpg
2559.365	0.651	correct	incongruent	Block3	incongruent/STIM_014.jpg
2563.224	0.92	correct	incongruent	Block3	incongruent/STIM_014.jpg
2567.538	0.569	correct	incongruent	Block3	incongruent/STIM_014.jpg
2570.769	0.79	correct	incongruent	Block3	incongruent/STIM_014.jpg
2574.597	0.853	correct	incongruent	Block3	incongruent/STIM_014.jpg
2577.571	0.838	correct	incongruent	Block3	incongruent/STIM_015.jpg
2582.362	0.935	correct	incongruent	Block3	incongruent/STIM_015.jpg
2587.107	0.567	correct	incongruent	Block3	incongruent/STIM_015.jpg
2590.757	1.011	correct	incongruent	Block3	incongruent/STIM_015.jpg
2595.377	0.944	correct	incongruent	Block3	incongruent/STIM_015.jpg
2599.142	0.651	correct	incongruent	Block3	incongruent/STIM_016.jpg
2602.88	0.844	correct	incongruent	Block3	incongruent/STIM_016.jpg
2607.418	0.764	correct	incongruent	Block3	incongruent/STIM_016.jpg
2611.698	0.846	correct	incongruent	Block3	incongruent/STIM_016.jpg
2615.087	0.747	correct	incongruent	Block3	incongruent/STIM_016.jpg
2619.495	0.726	correct	incongruent	Block3	incongruent/STIM_017.jpg
2624.108	0.487	correct	incongruent	Block3	incongruent/STIM_017.jpg
2628.261	0.866	correct	incongruent	Block3	incongruent/STIM_017.jpg
2631.523	0.834	correct	incongruent	Block3	incongruent/STIM_017.jpg
2634.517	0.951	correct	incongruent	Block3	incongruent/STIM_017.jpg
2638.717	0.747	correct	incongruent	Block3	incongruent/STIM_018.jpg
2642.599	0.818	correct	incongruent	Block3	incongruent/STIM_018.jpg
2645.829	0.935	correct	incongruent	Block3	incongruent/STIM_018.jpg
2650.081	0.716	correct	incongruent	Block3	incongruent/STIM_018.jpg
2653.063	0.744	correct	incongruent	Block3	incongruent/STIM_018.jpg
2655.908	0.741	correct	incongruent	Block3	incongruent/STIM_019.jpg
2659.829	0.598	correct	incongruent	Block3	incongruent/STIM_019.jpg
2663.898	0.927	correct	incongruent	Block3	incongruent/STIM_019.jpg
2668.64	0.768	correct	incongruent	Block3	incongruent/STIM_019.jpg
2671.749	0.689	correct	incongruent	Block3	incongruent/STIM_019.jpg
2674.596	1.027	correct	incongruent	Block3	incongruent/STIM_020.jpg
2677.71	0.844	correct	incongruent	Block3	incongruent/STIM_020.jpg
2681.981	0.54	correct	incongruent	Block3	incongruent/STIM_020.jpg
2685.688	0.937	correct	incongruent	Block3	incongruent/STIM_020.jpg
2690.349	0.489	correct	incongruent	Block3	incongruent/STIM_020.jpg
2693.607	0.552	correct	incongruent	Block3	incongruent/STIM_021.jpg
2697.244	0.996	correct	incongruent	Block3	incongruent/STIM_021.jpg
2700.698	1.016	correct	incongruent	Block3	incongruent/STIM_021.jpg
2703.845	0.938	incorrect	incongruent	Block3	incongruent/STIM_021.jpg
2707.049	0.561	incorrect	incongruent	Block3	incongruent/STIM_021.jpg
2710.706	0.932	correct	incongruent	Block3	incongruent/STIM_022.jpg
2715.413	0.601	correct	incongruent	Block3	incongruent/STIM_022.jpg
2718.726	0.946	correct	incongruent	Block3	incongruent/STIM_022.jpg
2722.035	1.03	correct	incongruent	Block3	incongruent/STIM_022.jpg
2726.783	0.856	correct	incongruent	Block3	incongruent/STIM_022.jpg
2730.463	0.529	correct	incongruent	Block3	incongruent/STIM_023.jpg
2733.495	0.733	correct	incongruent	Block3	incongruent/STIM_023.jpg
2736.345	0.865	correct	incongruent	Block3	incongruent/STIM_023.jpg
2740.126	0.941	correct	incongruent	Block3	incongruent/STIM_023.jpg
2744.266	0.592	correct	incongruent	Block3	incongruent/STIM_023.jpg
2748.611	0.714	correct	incongruent	Block3	incongruent/STIM_024.jpg
2751.863	0.964	correct	incongruent	Block3	incongruent/STIM_024.jpg
2755.959	0.488	correct	incongruent	Block3	incongruent/STIM_024.jpg
2759.216	0.596	correct	incongruent	Block3	incongruent/STIM_024.jpg
2763.548	0.792	correct	incongruent	Block3	incongruent/STIM_024.jpg
2767.568	0.837	correct	incongruent	Block3	incongruent/STIM_025.jpg
2771.428	0.791	correct	incongruent	Block3	incongruent/STIM_025.jpg
2775.912	0.918	correct	incongruent	Block3	incongruent/STIM_025.jpg
2780.328	0.659	correct	incongruent	Block3	incongruent/STIM_025.jpg
2783.25	0.628	correct	incongruent	Block3	incongruent/STIM_025.jpg
2787.584	0.575	correct	incongruent	Block3	incongruent/STIM_026.jpg
2791.085	0.92	correct	incongruent	Block3	incongruent/STIM_026.jpg
2795.208	0.545	correct	incongruent	Block3	incongruent/STIM_026.jpg
2799.057	0.513	correct	incongruent	Block3	incongruent/STIM_026.jpg
2801.919	0.488	correct	incongruent	Block3	incongruent/STIM_026.jpg
2804.499	0.702	correct	incongruent	Block3	incongruent/STIM_027.jpg
2807.493	0.63	correct	incongruent	Block3	incongruent/STIM_027.jpg
2811.8	0.88	correct	incongruent	Block3	incongruent/STIM_027.jpg
2815.641	0.564	correct	incongruent	Block3	incongruent/STIM_027.jpg
2818.492	0.666	correct	incongruent	Block3	incongruent/STIM_027.jpg
2821.811	0.893	correct	incongruent	Block3	incongruent/STIM_028.jpg
2826.102	0.97	incorrect	incongruent	Block3	incongruent/STIM_028.jpg
2830.738	0.506	correct	incongruent	Block3	incongruent/STIM_028.jpg
2834.027	0.979	correct	incongruent	Block3	incongruent/STIM_028.jpg
2837.875	0.78	correct	incongruent	Block3	incongruent/STIM_028.jpg
2842.403	0.887	correct	incongruent	Block3	incongruent/STIM_029.jpg
2846.142	1.013	correct	incongruent	Block3	incongruent/STIM_029.jpg
2850.812	0.75	correct	incongruent	Block3	incongruent/STIM_029.jpg
2855.257	0.956	correct	incongruent	Block3	incongruent/STIM_029.jpg
2859.661	0.664	correct	incongruent	Block3	incongruent/STIM_029.jpg
2864.207	0.714	correct	congruent	Block3	congruent/STIM_000.jpg
2867.108	0.656	correct	congruent	Block3	congruent/STIM_000.jpg
2870.619	0.868	correct	congruent	Block3	congruent/STIM_000.jpg
2874.048	0.515	correct	congruent	Block3	congruent/STIM_000.jpg
2877.595	0.675	correct	congruent	Block3	congruent/STIM_000.jpg
2880.44	0.77	correct	congruent	Block3	congruent/STIM_001.jpg
2884.492	0.658	correct	congruent	Block3	congruent/STIM_001.jpg
2887.571	0.777	correct	congruent	Block3	congruent/STIM_001.jpg
2892.288	0.786	correct	congruent	Block3	congruent/STIM_001.jpg
2896.609	0.605	correct	congruent	Block3	congruent/STIM_001.jpg
2899.601	0.88	correct	congruent	Block3	congruent/STIM_002.jpg
2903.145	0.833	correct	congruent	Block3	congruent/STIM_002.jpg
2907.566	0.553	correct	congruent	Block3	congruent/STIM_002.jpg
2911.44	0.708	correct	congruent	Block3	congruent/STIM_002.jpg
2914.699	0.501	correct	congruent	Block3	congruent/STIM_002.jpg
2917.463	0.801	correct	congruent	Block3	congruent/STIM_003.jpg
2920.664	0.834	correct	congruent	Block3	congruent/STIM_003.jpg
2924.005	0.646	correct	congruent	Block3	congruent/STIM_003.jpg
2928.212	0.712	correct	congruent	Block3	congruent/STIM_003.jpg
2932.505	0.647	correct	congruent	Block3	congruent/STIM_003.jpg
2935.369	0.768	correct	congruent	Block3	congruent/STIM_004.jpg
2938.892	0.651	correct	congruent	Block3	congruent/STIM_004.jpg
2941.981	0.775	correct	congruent	Block3	congruent/STIM_004.jpg
2946.057	0.598	correct	congruent	Block3	congruent/STIM_004.jpg
2950.335	0.799	incorrect	congruent	Block3	congruent/STIM_004.jpg
2955.021	0.746	correct	congruent	Block3	congruent/STIM_005.jpg
2959.259	0.76	correct	congruent	Block3	congruent/STIM_005.jpg
2963.193	0.752	correct	congruent	Block3	congruent/STIM_005.jpg
2967.712	0.72	correct	congruent	Block3	congruent/STIM_005.jpg
2972.395	0.505	correct	congruent	Block3	congruent/STIM_005.jpg
2976.462	0.651	correct	congruent	Block3	congruent/STIM_006.jpg
2980.97	0.78	correct	congruent	Block3	congruent/STIM_006.jpg
2983.761	0.611	correct	congruent	Block3	congruent/STIM_006.jpg
2988.136	0.823	correct	congruent	Block3	congruent/STIM_006.jpg
2991.99	0.852	correct	congruent	Block3	congruent/STIM_006.jpg
2996.241	0.827	correct	congruent	Block3	congruent/STIM_007.jpg
3000.317	0.536	correct	congruent	Block3	congruent/STIM_007.jpg
3004.527	0.81	correct	congruent	Block3	congruent/STIM_007.jpg
3007.378	0.668	correct	congruent	Block3	congruent/STIM_007.jpg
3010.937	0.567	correct	congruent	Block3	congruent/STIM_007.jpg
3013.509	0.786	incorrect	congruent	Block3	congruent/STIM_008.jpg
3017.384	0.504	correct	congruent	Block3	congruent/STIM_008.jpg
3020.268	0.844	correct	congruent	Block3	congruent/STIM_008.jpg
3025.041	0.561	correct	congruent	Block3	congruent/STIM_008.jpg
3028.434	0.855	correct	congruent	Block3	congruent/STIM_008.jpg
3033.282	0.737	correct	congruent	Block3	congruent/STIM_009.jpg
3036.762	0.546	correct	congruent	Block3	congruent/STIM_009.jpg
3041.231	0.59	correct	congruent	Block3	congruent/STIM_009.jpg
3045.524	0.537	correct	congruent	Block3	congruent/STIM_009.jpg
3049.562	0.63	correct	congruent	Block3	congruent/STIM_009.jpg
3052.321	0.522	correct	congruent	Block3	congruent/STIM_010.jpg
3055.719	0.6	correct	congruent	Block3	congruent/STIM_010.jpg
3059.783	0.796	correct	congruent	Block3	congruent/STIM_010.jpg
3063.382	0.711	correct	congruent	Block3	congruent/STIM_010.jpg
3067.378	0.825	correct	congruent	Block3	congruent/STIM_010.jpg
3072.122	0.698	correct	congruent	Block3	congruent/STIM_011.jpg
3075.883	0.723	correct	congruent	Block3	congruent/STIM_011.jpg
3079.155	0.879	correct	congruent	Block3	congruent/STIM_011.jpg
3082.07	0.535	correct	congruent	Block3	congruent/STIM_011.jpg
3085.141	0.612	correct	congruent	Block3	congruent/STIM_011.jpg
3088.356	0.88	correct	congruent	Block3	congruent/STIM_012.jpg
3093.034	0.553	correct	congruent	Block3	congruent/STIM_012.jpg
3095.856	0.867	correct	congruent	Block3	congruent/STIM_012.jpg
3100.351	0.693	correct	congruent	Block3	congruent/STIM_012.jpg
3103.638	0.654	correct	congruent	Block3	congruent/STIM_012.jpg
3108.084	0.667	correct	congruent	Block3	congruent/STIM_013.jpg
3111.361	0.779	correct	congruent	Block3	congruent/STIM_013.jpg
3115.922	0.594	correct	congruent	Block3	congruent/STIM_013.jpg
3118.794	0.805	correct	congruent	Block3	congruent/STIM_013.jpg
3123.395	0.575	correct	congruent	Block3	congruent/STIM_013.jpg
3127.182	0.632	correct	congruent	Block3	congruent/STIM_014.jpg
3130.377	0.637	correct	congruent	Block3	congruent/STIM_014.jpg
3134.539	0.673	correct	congruent	Block3	congruent/STIM_014.jpg
3137.404	0.849	correct	congruent	Block3	congruent/STIM_014.jpg
3141.458	0.684	correct	congruent	Block3	congruent/STIM_014.jpg
3145.929	0.65	correct	congruent	Block3	congruent/STIM_015.jpg
3148.873	0.576	correct	congruent	Block3	congruent/STIM_015.jpg
3152.795	0.735	correct	congruent	Block3	congruent/STIM_015.jpg
3157.139	0.867	correct	congruent	Block3	congruent/STIM_015.jpg
3160.829	0.498	incorrect	congruent	Block3	congruent/STIM_015.jpg
3165.072	0.791	correct	congruent	Block3	congruent/STIM_016.jpg
3169.644	0.79	correct	congruent	Block3	congruent/STIM_016.jpg
3173.904	0.57	correct	congruent	Block3	congruent/STIM_016.jpg
3176.907	0.586	correct	congruent	Block3	congruent/STIM_016.jpg
3180.516	0.817	correct	congruent	Block3	congruent/STIM_016.jpg
3184.434	0.837	correct	congruent	Block3	congruent/STIM_017.jpg
3187.788	0.824	incorrect	congruent	Block3	congruent/STIM_017.jpg
3191.841	0.865	correct	congruent	Block3	congruent/STIM_017.jpg
3196.535	0.608	correct	congruent	Block3	congruent/STIM_017.jpg
3199.546	0.548	correct	congruent	Block3	congruent/STIM_017.jpg
3203.355	0.574	correct	congruent	Block3	congruent/STIM_018.jpg
3206.411	0.576	correct	congruent	Block3	congruent/STIM_018.jpg
3209.635	0.666	correct	congruent	Block3	congruent/STIM_018.jpg
3213.618	0.621	correct	congruent	Block3	congruent/STIM_018.jpg
3216.568	0.66	correct	congruent	Block3	congruent/STIM_018.jpg
3219.78	0.542	correct	congruent	Block3	congruent/STIM_019.jpg
3222.894	0.629	correct	congruent	Block3	congruent/STIM_019.jpg
3226.407	0.64	correct	congruent	Block3	congruent/STIM_019.jpg
3229.601	0.883	correct	congruent	Block3	congruent/STIM_019.jpg
3233.216	0.554	correct	congruent	Block3	congruent/STIM_019.jpg
3237.281	0.647	correct	congruent	Block3	congruent/STIM_020.jpg
3241.79	0.621	correct	congruent	Block3	congruent/STIM_020.jpg
3244.551	0.546	correct	congruent	Block3	congruent/STIM_020.jpg
3247.949	0.74	correct	congruent	Block3	congruent/STIM_020.jpg
3252.674	0.809	correct	congruent	Block3	congruent/STIM_020.jpg
3257.055	0.714	correct	congruent	Block3	congruent/STIM_021.jpg
3261.249	0.794	correct	congruent	Block3	congruent/STIM_021.jpg
3265.427	0.859	correct	congruent	Block3	congruent/STIM_021.jpg
3269.959	0.75	correct	congruent	Block3	congruent/STIM_021.jpg
3273.7	0.837	correct	congruent	Block3	congruent/STIM_021.jpg
3277.203	0.867	correct	congruent	Block3	congruent/STIM_022.jpg
3280.887	0.736	correct	congruent	Block3	congruent/STIM_022.jpg
3284.17	0.794	correct	congruent	Block3	congruent/STIM_022.jpg
3287.162	0.603	correct	congruent	Block3	congruent/STIM_022.jpg
3290.743	0.505	correct	congruent	Block3	congruent/STIM_022.jpg
3294.179	0.55	correct	congruent	Block3	congruent/STIM_023.jpg
3296.952	0.814	correct	congruent	Block3	congruent/STIM_023.jpg
3300.35	0.79	correct	congruent	Block3	congruent/STIM_023.jpg
3305.121	0.527	correct	congruent	Block3	congruent/STIM_023.jpg
3309.117	0.542	correct	congruent	Block3	congruent/STIM_023.jpg
3311.698	0.579	correct	congruent	Block3	congruent/STIM_024.jpg
3314.572	0.82	correct	congruent	Block3	congruent/STIM_024.jpg
3319.116	0.793	correct	congruent	Block3	congruent/STIM_024.jpg
3322.173	0.758	correct	congruent	Block3	congruent/STIM_024.jpg
3326.579	0.727	correct	congruent	Block3	congruent/STIM_024.jpg
3330.699	0.492	correct	congruent	Block3	congruent/STIM_025.jpg
3333.755	0.857	correct	congruent	Block3	congruent/STIM_025.jpg
3338.313	0.62	correct	congruent	Block3	congruent/STIM_025.jpg
3341.998	0.616	correct	congruent	Block3	congruent/STIM_025.jpg
3345.151	0.843	correct	congruent	Block3	congruent/STIM_025.jpg
3348.154	0.863	correct	congruent	Block3	congruent/STIM_026.jpg
3351.81	0.732	correct	congruent	Block3	congruent/STIM_026.jpg
3356.072	0.836	correct	congruent	Block3	congruent/STIM_026.jpg
3359.743	0.64	incorrect	congruent	Block3	congruent/STIM_026.jpg
3363.697	0.562	correct	congruent	Block3	congruent/STIM_026.jpg
3367.042	0.525	correct	congruent	Block3	congruent/STIM_027.jpg
3371.236	0.872	incorrect	congruent	Block3	congruent/STIM_027.jpg
3375.481	0.872	correct	congruent	Block3	congruent/STIM_027.jpg
3379.318	0.701	correct	congruent	Block3	congruent/STIM_027.jpg
3383.774	0.51	correct	congruent	Block3	congruent/STIM_027.jpg
3388.166	0.804	correct	congruent	Block3	congruent/STIM_028.jpg
3392.584	0.742	correct	congruent	Block3	congruent/STIM_028.jpg
3395.712	0.739	correct	congruent	Block3	congruent/STIM_028.jpg
3399.506	0.86	correct	congruent	Block3	congruent/STIM_028.jpg
3402.389	0.872	correct	congruent	Block3	congruent/STIM_028.jpg
3405.778	0.728	correct	congruent	Block3	congruent/STIM_029.jpg
3408.933	0.592	correct	congruent	Block3	congruent/STIM_029.jpg
3412.388	0.633	correct	congruent	Block3	congruent/STIM_029.jpg
3416.035	0.8	correct	congruent	Block3	congruent/STIM_029.jpg
3419.007	0.687	correct	congruent	Block3	congruent/STIM_029.jpg
