onset	duration	accuracy_binary	trial_type	learning_stage	stimulus
0.0	1.074	1	incongruent	Block1	incongruent/STIM_000.jpg
3.542	1.043	1	incongruent	Block1	incongruent/STIM_000.jpg
8.568	1.302	1	incongruent	Block1	incongruent/STIM_000.jpg
12.711	0.839	1	incongruent	Block1	incongruent/STIM_000.jpg
16.312	1.128	0	incongruent	Block1	incongruent/STIM_000.jpg
21.272	1.192	1	incongruent	Block1	incongruent/STIM_001.jpg
24.586	0.671	1	incongruent	Block1	incongruent/STIM_001.jpg
28.161	0.703	1	incongruent	Block1	incongruent/STIM_001.jpg
32.071	0.82	1	incongruent	Block1	incongruent/STIM_001.jpg
36.702	0.778	1	incongruent	Block1	incongruent/STIM_001.jpg
41.504	1.168	1	incongruent	Block1	incongruent/STIM_002.jpg
45.268	0.748	1	incongruent	Block1	incongruent/STIM_002.jpg
48.998	0.949	1	incongruent	Block1	incongruent/STIM_002.jpg
53.331	0.721	1	incongruent	Block1	incongruent/STIM_002.jpg
57.678	0.799	1	incongruent	Block1	incongruent/STIM_002.jpg
61.996	0.954	1	incongruent	Block1	incongruent/STIM_003.jpg
66.395	1.243	1	incongruent	Block1	incongruent/STIM_003.jpg
71.026	0.798	1	incongruent	Block1	incongruent/STIM_003.jpg
74.949	1.162	1	incongruent	Block1	incongruent/STIM_003.jpg
79.255	0.811	1	incongruent	Block1	incongruent/STIM_003.jpg
82.95	0.824	1	incongruent	Block1	incongruent/STIM_004.jpg
86.135	0.768	1	incongruent	Block1	incongruent/STIM_004.jpg
90.92	1.035	0	incongruent	Block1	incongruent/STIM_004.jpg
94.071	1.139	1	incongruent	Block1	incongruent/STIM_004.jpg
97.856	0.983	1	incongruent	Block1	incongruent/STIM_004.jpg
102.41	1.302	1	incongruent	Block1	incongruent/STIM_005.jpg
106.747	0.661	1	incongruent	Block1	incongruent/STIM_005.jpg
110.887	0.641	1	incongruent	Block1	incongruent/STIM_005.jpg
115.021	0.748	1	incongruent	Block1	incongruent/STIM_005.jpg
117.871	0.717	1	incongruent	Block1	incongruent/STIM_005.jpg
122.493	0.765	1	incongruent	Block1	incongruent/STIM_006.jpg
126.054	1.364	1	incongruent	Block1	incongruent/STIM_006.jpg
129.747	1.187	1	incongruent	Block1	incongruent/STIM_006.jpg
134.941	0.779	1	incongruent	Block1	incongruent/STIM_006.jpg
139.743	1.108	1	incongruent	Block1	incongruent/STIM_006.jpg
143.646	0.934	1	incongruent	Block1	incongruent/STIM_007.jpg
147.061	1.03	1	incongruent	Block1	incongruent/STIM_007.jpg
150.16	0.768	1	incongruent	Block1	incongruent/STIM_007.jpg
153.794	0.858	1	incongruent	Block1	incongruent/STIM_007.jpg
157.124	0.821	1	incongruent	Block1	incongruent/STIM_007.jpg
160.872	0.762	1	incongruent	Block1	incongruent/STIM_008.jpg
164.942	1.335	1	incongruent	Block1	incongruent/STIM_008.jpg
168.342	1.279	1	incongruent	Block1	incongruent/STIM_008.jpg
173.007	1.033	1	incongruent	Block1	incongruent/STIM_008.jpg
177.578	1.094	1	incongruent	Block1	incongruent/STIM_008.jpg
181.944	0.751	0	incongruent	Block1	incongruent/STIM_009.jpg
186.372	0.784	1	incongruent	Block1	incongruent/STIM_009.jpg
190.951	0.827	1	incongruent	Block1	incongruent/STIM_009.jpg
195.034	1.082	0	incongruent	Block1	incongruent/STIM_009.jpg
198.717	0.95	1	incongruent	Block1	incongruent/STIM_009.jpg
203.416	1.242	1	incongruent	Block1	incongruent/STIM_010.jpg
207.975	1.221	1	incongruent	Block1	incongruent/STIM_010.jpg
211.271	0.918	1	incongruent	Block1	incongruent/STIM_010.jpg
214.628	0.859	1	incongruent	Block1	incongruent/STIM_010.jpg
218.086	0.948	1	incongruent	Block1	incongruent/STIM_010.jpg
222.994	0.998	1	incongruent	Block1	incongruent/STIM_011.jpg
227.949	1.313	1	incongruent	Block1	incongruent/STIM_011.jpg
231.53	0.908	1	incongruent	Block1	incongruent/STIM_011.jpg
235.26	1.068	1	incongruent	Block1	incongruent/STIM_011.jpg
239.152	0.842	1	incongruent	Block1	incongruent/STIM_011.jpg
242.065	1.316	1	incongruent	Block1	incongruent/STIM_012.jpg
246.296	0.979	1	incongruent	Block1	incongruent/STIM_012.jpg
249.662	1.101	1	incongruent	Block1	incongruent/STIM_012.jpg
254.761	1.03	1	incongruent	Block1	incongruent/STIM_012.jpg
257.963	0.914	1	incongruent	Block1	incongruent/STIM_012.jpg
261.832	1.368	0	incongruent	Block1	incongruent/STIM_013.jpg
267.203	0.751	1	incongruent	Block1	incongruent/STIM_013.jpg
271.647	0.924	1	incongruent	Block1	incongruent/STIM_013.jpg
276.115	0.607	1	incongruent	Block1	incongruent/STIM_013.jpg
280.262	0.861	1	incongruent	Block1	incongruent/STIM_013.jpg
283.382	1.42	1	incongruent	Block1	incongruent/STIM_014.jpg
287.863	1.308	1	incongruent	Block1	incongruent/STIM_014.jpg
292.962	1.262	1	incongruent	Block1	incongruent/STIM_014.jpg
297.977	1.04	1	incongruent	Block1	incongruent/STIM_014.jpg
301.683	1.086	1	incongruent	Block1	incongruent/STIM_014.jpg
306.355	1.091	1	incongruent	Block1	incongruent/STIM_015.jpg
311.477	0.775	1	incongruent	Block1	incongruent/STIM_015.jpg
314.803	0.85	1	incongruent	Block1	incongruent/STIM_015.jpg
319.398	0.773	0	incongruent	Block1	incongruent/STIM_015.jpg
324.035	0.972	1	incongruent	Block1	incongruent/STIM_015.jpg
327.521	1.145	1	incongruent	Block1	incongruent/STIM_016.jpg
330.96	1.236	1	incongruent	Block1	incongruent/STIM_016.jpg
335.76	0.805	1	incongruent	Block1	incongruent/STIM_016.jpg
339.055	1.08	1	incongruent	Block1	incongruent/STIM_016.jpg
344.129	0.569	1	incongruent	Block1	incongruent/STIM_016.jpg
347.009	1.026	1	incongruent	Block1	incongruent/STIM_017.jpg
351.348	0.763	1	incongruent	Block1	incongruent/STIM_017.jpg
354.451	0.998	1	incongruent	Block1	incongruent/STIM_017.jpg
358.303	0.944	1	incongruent	Block1	incongruent/STIM_017.jpg
362.434	0.545	1	incongruent	Block1	incongruent/STIM_017.jpg
366.593	0.981	1	incongruent	Block1	incongruent/STIM_018.jpg
370.655	0.788	1	incongruent	Block1	incongruent/STIM_018.jpg
374.906	0.987	1	incongruent	Block1	incongruent/STIM_018.jpg
379.083	0.907	1	incongruent	Block1	incongruent/STIM_018.jpg
382.326	1.143	1	incongruent	Block1	incongruent/STIM_018.jpg
387.145	0.732	1	incongruent	Block1	incongruent/STIM_019.jpg
391.275	0.816	1	incongruent	Block1	incongruent/STIM_019.jpg
394.324	0.629	1	incongruent	Block1	incongruent/STIM_019.jpg
398.029	1.109	1	incongruent	Block1	incongruent/STIM_019.jpg
402.829	0.706	1	incongruent	Block1	incongruent/STIM_019.jpg
406.149	0.932	1	incongruent	Block1	incongruent/STIM_020.jpg
410.534	1.109	1	incongruent	Block1	incongruent/STIM_020.jpg
414.741	1.096	1	incongruent	Block1	incongruent/STIM_020.jpg
417.877	1.029	1	incongruent	Block1	incongruent/STIM_020.jpg
420.97	1.011	1	incongruent	Block1	incongruent/STIM_020.jpg
424.446	1.221	1	incongruent	Block1	incongruent/STIM_021.jpg
428.897	1.093	1	incongruent	Block1	incongruent/STIM_021.jpg
432.993	0.863	1	incongruent	Block1	incongruent/STIM_021.jpg
437.809	0.939	1	incongruent	Block1	incongruent/STIM_021.jpg
441.814	1.102	0	incongruent	Block1	incongruent/STIM_021.jpg
446.945	1.0	1	incongruent	Block1	incongruent/STIM_022.jpg
451.198	1.154	1	incongruent	Block1	incongruent/STIM_022.jpg
455.071	0.882	1	incongruent	Block1	incongruent/STIM_022.jpg
459.935	0.77	1	incongruent	Block1	incongruent/STIM_022.jpg
462.967	1.039	0	incongruent	Block1	incongruent/STIM_022.jpg
467.118	1.29	1	incongruent	Block1	incongruent/STIM_023.jpg
471.064	1.075	1	incongruent	Block1	incongruent/STIM_023.jpg
475.958	1.074	1	incongruent	Block1	incongruent/STIM_023.jpg
480.19	0.901	1	incongruent	Block1	incongruent/STIM_023.jpg
484.854	0.889	1	incongruent	Block1	incongruent/STIM_023.jpg
488.461	0.933	0	incongruent	Block1	incongruent/STIM_024.jpg
493.19	1.021	0	incongruent	Block1	incongruent/STIM_024.jpg
496.506	0.91	1	incongruent	Block1	incongruent/STIM_024.jpg
500.882	1.052	1	incongruent	Block1	incongruent/STIM_024.jpg
504.839	0.742	0	incongruent	Block1	incongruent/STIM_024.jpg
509.285	1.218	1	incongruent	Block1	incongruent/STIM_025.jpg
512.78	0.896	1	incongruent	Block1	incongruent/STIM_025.jpg
517.353	1.102	1	incongruent	Block1	incongruent/STIM_025.jpg
521.495	0.592	1	incongruent	Block1	incongruent/STIM_025.jpg
524.811	0.693	1	incongruent	Block1	incongruent/STIM_025.jpg
528.41	1.212	1	incongruent	Block1	incongruent/STIM_026.jpg
533.429	1.172	1	incongruent	Block1	incongruent/STIM_026.jpg
538.093	0.846	1	incongruent	Block1	incongruent/STIM_026.jpg
541.12	0.866	1	incongruent	Block1	incongruent/STIM_026.jpg
545.276	0.698	1	incongruent	Block1	incongruent/STIM_026.jpg
548.013	1.2	1	incongruent	Block1	incongruent/STIM_027.jpg
552.364	0.956	1	incongruent	Block1	incongruent/STIM_027.jpg
556.24	1.084	0	incongruent	Block1	incongruent/STIM_027.jpg
560.442	0.963	1	incongruent	Block1	incongruent/STIM_027.jpg
565.237	1.013	1	incongruent	Block1	incongruent/STIM_027.jpg
568.841	1.422	1	incongruent	Block1	incongruent/STIM_028.jpg
572.412	0.67	1	incongruent	Block1	incongruent/STIM_028.jpg
577.058	0.906	1	incongruent	Block1	incongruent/STIM_028.jpg
580.854	1.043	1	incongruent	Block1	incongruent/STIM_028.jpg
584.533	0.89	1	incongruent	Block1	incongruent/STIM_028.jpg
588.217	1.158	1	incongruent	Block1	incongruent/STIM_029.jpg
592.52	1.134	1	incongruent	Block1	incongruent/STIM_029.jpg
596.372	0.946	1	incongruent	Block1	incongruent/STIM_029.jpg
599.945	1.055	1	incongruent	Block1	incongruent/STIM_029.jpg
604.792	0.582	1	incongruent	Block1	incongruent/STIM_029.jpg
607.471	0.776	1	congruent	Block1	congruent/STIM_000.jpg
610.686	0.802	1	congruent	Block1	congruent/STIM_000.jpg
613.99	0.799	1	congruent	Block1	congruent/STIM_000.jpg
618.483	0.733	1	congruent	Block1	congruent/STIM_000.jpg
621.325	0.562	1	congruent	Block1	congruent/STIM_000.jpg
624.826	0.721	1	congruent	Block1	congruent/STIM_001.jpg
627.978	0.587	1	congruent	Block1	congruent/STIM_001.jpg
632.185	0.615	1	congruent	Block1	congruent/STIM_001.jpg
635.262	0.663	1	congruent	Block1	congruent/STIM_001.jpg
638.415	0.682	1	congruent	Block1	congruent/STIM_001.jpg
641.285	0.865	1	congruent	Block1	congruent/STIM_002.jpg
645.563	0.643	1	congruent	Block1	congruent/STIM_002.jpg
648.497	0.827	1	congruent	Block1	congruent/STIM_002.jpg
651.794	0.816	1	congruent	Block1	congruent/STIM_002.jpg
656.289	0.834	0	congruent	Block1	congruent/STIM_002.jpg
659.64	0.556	1	congruent	Block1	congruent/STIM_003.jpg
662.992	0.582	1	congruent	Block1	congruent/STIM_003.jpg
666.477	0.568	1	congruent	Block1	congruent/STIM_003.jpg
669.621	0.538	1	congruent	Block1	congruent/STIM_003.jpg
673.009	0.557	1	congruent	Block1	congruent/STIM_003.jpg
677.188	0.81	1	congruent	Block1	congruent/STIM_004.jpg
681.597	0.8	1	congruent	Block1	congruent/STIM_004.jpg
685.258	0.612	1	congruent	Block1	congruent/STIM_004.jpg
688.756	0.842	1	congruent	Block1	congruent/STIM_004.jpg
692.637	0.764	1	congruent	Block1	congruent/STIM_004.jpg
697.139	0.544	1	congruent	Block1	congruent/STIM_005.jpg
700.445	0.609	1	congruent	Block1	congruent/STIM_005.jpg
704.704	0.813	1	congruent	Block1	congruent/STIM_005.jpg
708.122	0.551	1	congruent	Block1	congruent/STIM_005.jpg
711.376	0.664	1	congruent	Block1	congruent/STIM_005.jpg
714.308	0.599	1	congruent	Block1	congruent/STIM_006.jpg
718.321	0.837	1	congruent	Block1	congruent/STIM_006.jpg
722.53	0.627	1	congruent	Block1	congruent/STIM_006.jpg
726.77	0.542	1	congruent	Block1	congruent/STIM_006.jpg
730.613	0.63	1	congruent	Block1	congruent/STIM_006.jpg
734.84	0.793	1	congruent	Block1	congruent/STIM_007.jpg
739.084	0.75	1	congruent	Block1	congruent/STIM_007.jpg
743.594	0.774	1	congruent	Block1	congruent/STIM_007.jpg
747.495	0.733	1	congruent	Block1	congruent/STIM_007.jpg
750.576	0.543	1	congruent	Block1	congruent/STIM_007.jpg
753.472	0.529	1	congruent	Block1	congruent/STIM_008.jpg
757.274	0.507	0	congruent	Block1	congruent/STIM_008.jpg
761.004	0.672	1	congruent	Block1	congruent/STIM_008.jpg
763.965	0.614	1	congruent	Block1	congruent/STIM_008.jpg
767.665	0.556	1	congruent	Block1	congruent/STIM_008.jpg
771.748	0.709	1	congruent	Block1	congruent/STIM_009.jpg
776.247	0.583	1	congruent	Block1	congruent/STIM_009.jpg
780.026	0.806	1	congruent	Block1	congruent/STIM_009.jpg
783.546	0.578	1	congruent	Block1	congruent/STIM_009.jpg
787.588	0.516	1	congruent	Block1	congruent/STIM_009.jpg
790.738	0.747	1	congruent	Block1	congruent/STIM_010.jpg
793.853	0.752	1	congruent	Block1	congruent/STIM_010.jpg
798.105	0.726	1	congruent	Block1	congruent/STIM_010.jpg
802.515	0.609	1	congruent	Block1	congruent/STIM_010.jpg
807.079	0.845	1	congruent	Block1	congruent/STIM_010.jpg
811.096	0.798	1	congruent	Block1	congruent/STIM_011.jpg
814.749	0.509	1	congruent	Block1	congruent/STIM_011.jpg
819.26	0.839	1	congruent	Block1	congruent/STIM_011.jpg
822.62	0.598	1	congruent	Block1	congruent/STIM_011.jpg
826.705	0.753	1	congruent	Block1	congruent/STIM_011.jpg
830.339	0.78	1	congruent	Block1	congruent/STIM_012.jpg
834.705	0.737	1	congruent	Block1	congruent/STIM_012.jpg
837.989	0.631	1	congruent	Block1	congruent/STIM_012.jpg
841.607	0.836	1	congruent	Block1	congruent/STIM_012.jpg
846.445	0.78	1	congruent	Block1	congruent/STIM_012.jpg
849.558	0.847	1	congruent	Block1	congruent/STIM_013.jpg
853.868	0.752	1	congruent	Block1	congruent/STIM_013.jpg
857.456	0.743	1	congruent	Block1	congruent/STIM_013.jpg
861.586	0.538	1	congruent	Block1	congruent/STIM_013.jpg
865.409	0.857	1	congruent	Block1	congruent/STIM_013.jpg
869.882	0.602	1	congruent	Block1	congruent/STIM_014.jpg
873.152	0.766	1	congruent	Block1	congruent/STIM_014.jpg
876.372	0.788	1	congruent	Block1	congruent/STIM_014.jpg
880.576	0.648	1	congruent	Block1	congruent/STIM_014.jpg
884.057	0.705	1	congruent	Block1	congruent/STIM_014.jpg
887.89	0.742	1	congruent	Block1	congruent/STIM_015.jpg
892.076	0.739	1	congruent	Block1	congruent/STIM_015.jpg
896.245	0.786	1	congruent	Block1	congruent/STIM_015.jpg
900.158	0.494	0	congruent	Block1	congruent/STIM_015.jpg
903.956	0.553	1	congruent	Block1	congruent/STIM_015.jpg
907.453	0.63	1	congruent	Block1	congruent/STIM_016.jpg
912.004	0.498	1	congruent	Block1	congruent/STIM_016.jpg
914.533	0.525	1	congruent	Block1	congruent/STIM_016.jpg
918.594	0.812	1	congruent	Block1	congruent/STIM_016.jpg
922.858	0.71	1	congruent	Block1	congruent/STIM_016.jpg
926.722	0.802	1	congruent	Block1	congruent/STIM_017.jpg
931.085	0.757	1	congruent	Block1	congruent/STIM_017.jpg
935.43	0.571	1	congruent	Block1	congruent/STIM_017.jpg
938.209	0.719	1	congruent	Block1	congruent/STIM_017.jpg
941.238	0.629	0	congruent	Block1	congruent/STIM_017.jpg
943.954	0.638	1	congruent	Block1	congruent/STIM_018.jpg
946.739	0.516	1	congruent	Block1	congruent/STIM_018.jpg
951.254	0.516	1	congruent	Block1	congruent/STIM_018.jpg
954.839	0.684	1	congruent	Block1	congruent/STIM_018.jpg
958.453	0.806	1	congruent	Block1	congruent/STIM_018.jpg
962.108	0.718	1	congruent	Block1	congruent/STIM_019.jpg
966.533	0.756	1	congruent	Block1	congruent/STIM_019.jpg
970.866	0.838	1	congruent	Block1	congruent/STIM_019.jpg
973.923	0.782	1	congruent	Block1	congruent/STIM_019.jpg
977.503	0.557	1	congruent	Block1	congruent/STIM_019.jpg
981.957	0.631	1	congruent	Block1	congruent/STIM_020.jpg
985.918	0.524	1	congruent	Block1	congruent/STIM_020.jpg
988.941	0.518	1	congruent	Block1	congruent/STIM_020.jpg
993.304	0.824	1	congruent	Block1	congruent/STIM_020.jpg
996.595	0.55	1	congruent	Block1	congruent/STIM_020.jpg
999.874	0.846	1	congruent	Block1	congruent/STIM_021.jpg
1004.509	0.795	1	congruent	Block1	congruent/STIM_021.jpg
1008.0	0.829	1	congruent	Block1	congruent/STIM_021.jpg
1011.18	0.554	1	congruent	Block1	congruent/STIM_021.jpg
1013.904	0.694	1	congruent	Block1	congruent/STIM_021.jpg
1018.224	0.524	1	congruent	Block1	congruent/STIM_022.jpg
1022.174	0.832	1	congruent	Block1	congruent/STIM_022.jpg
1025.89	0.631	1	congruent	Block1	congruent/STIM_022.jpg
1028.97	0.663	0	congruent	Block1	congruent/STIM_022.jpg
1033.297	0.744	1	congruent	Block1	congruent/STIM_022.jpg
1036.199	0.525	1	congruent	Block1	congruent/STIM_023.jpg
1039.862	0.808	1	congruent	Block1	congruent/STIM_023.jpg
1044.608	0.618	1	congruent	Block1	congruent/STIM_023.jpg
1048.508	0.749	1	congruent	Block1	congruent/STIM_023.jpg
1051.711	0.856	1	congruent	Block1	congruent/STIM_023.jpg
1054.824	0.73	1	congruent	Block1	congruent/STIM_024.jpg
1059.163	0.622	1	congruent	Block1	congruent/STIM_024.jpg
1063.789	0.568	1	congruent	Block1	congruent/STIM_024.jpg
1066.447	0.548	1	congruent	Block1	congruent/STIM_024.jpg
1069.962	0.511	1	congruent	Block1	congruent/STIM_024.jpg
1072.641	0.593	1	congruent	Block1	congruent/STIM_025.jpg
1075.622	0.565	1	congruent	Block1	congruent/STIM_025.jpg
1078.841	0.661	1	congruent	Block1	congruent/STIM_025.jpg
1082.754	0.604	1	congruent	Block1	congruent/STIM_025.jpg
1086.706	0.747	1	congruent	Block1	congruent/STIM_025.jpg
1089.558	0.55	1	congruent	Block1	congruent/STIM_026.jpg
1093.736	0.542	1	congruent	Block1	congruent/STIM_026.jpg
1097.396	0.609	1	congruent	Block1	congruent/STIM_026.jpg
1101.691	0.717	1	congruent	Block1	congruent/STIM_026.jpg
1104.819	0.865	1	congruent	Block1	congruent/STIM_026.jpg
1109.458	0.792	1	congruent	Block1	congruent/STIM_027.jpg
1112.323	0.485	0	congruent	Block1	congruent/STIM_027.jpg
1116.589	0.719	1	congruent	Block1	congruent/STIM_027.jpg
1120.995	0.7	1	congruent	Block1	congruent/STIM_027.jpg
1125.251	0.732	1	congruent	Block1	congruent/STIM_027.jpg
1129.106	0.545	1	congruent	Block1	congruent/STIM_028.jpg
1133.523	0.678	1	congruent	Block1	congruent/STIM_028.jpg
1137.678	0.594	1	congruent	Block1	congruent/STIM_028.jpg
1140.784	0.546	1	congruent	Block1	congruent/STIM_028.jpg
1144.783	0.679	1	congruent	Block1	congruent/STIM_028.jpg
1148.576	0.791	1	congruent	Block1	congruent/STIM_029.jpg
1152.3	0.627	1	congruent	Block1	congruent/STIM_029.jpg
1155.283	0.521	1	congruent	Block1	congruent/STIM_029.jpg
1158.181	0.658	1	congruent	Block1	congruent/STIM_029.jpg
1161.116	0.701	1	congruent	Block1	congruent/STIM_029.jpg
1164.69	0.681	1	incongruent	Block2	incongruent/STIM_000.jpg
1168.93	1.057	1	incongruent	Block2	incongruent/STIM_000.jpg
1172.125	1.053	1	incongruent	Block2	incongruent/STIM_000.jpg
1176.624	0.807	1	incongruent	Block2	incongruent/STIM_000.jpg
1180.075	0.998	1	incongruent	Block2	incongruent/STIM_000.jpg
1183.358	0.618	1	incongruent	Block2	incongruent/STIM_001.jpg
1186.886	0.729	1	incongruent	Block2	incongruent/STIM_001.jpg
1191.104	0.544	1	incongruent	Block2	incongruent/STIM_001.jpg
1194.743	0.561	1	incongruent	Block2	incongruent/STIM_001.jpg
1198.288	0.612	1	incongruent	Block2	incongruent/STIM_001.jpg
1202.107	0.733	1	incongruent	Block2	incongruent/STIM_002.jpg
1206.625	0.809	1	incongruent	Block2	incongruent/STIM_002.jpg
1211.259	0.699	1	incongruent	Block2	incongruent/STIM_002.jpg
1215.58	0.705	1	incongruent	Block2	incongruent/STIM_002.jpg
1219.813	0.498	1	incongruent	Block2	incongruent/STIM_002.jpg
1224.096	1.018	1	incongruent	Block2	incongruent/STIM_003.jpg
1228.803	0.724	1	incongruent	Block2	incongruent/STIM_003.jpg
1231.583	0.597	1	incongruent	Block2	incongruent/STIM_003.jpg
1234.226	0.904	1	incongruent	Block2	incongruent/STIM_003.jpg
1237.617	0.843	1	incongruent	Block2	incongruent/STIM_003.jpg
1241.717	1.183	1	incongruent	Block2	incongruent/STIM_004.jpg
1245.666	0.973	1	incongruent	Block2	incongruent/STIM_004.jpg
1250.134	0.668	1	incongruent	Block2	incongruent/STIM_004.jpg
1254.607	0.898	1	incongruent	Block2	incongruent/STIM_004.jpg
1257.79	0.625	1	incongruent	Block2	incongruent/STIM_004.jpg
1260.803	0.721	1	incongruent	Block2	incongruent/STIM_005.jpg
1263.871	0.794	1	incongruent	Block2	incongruent/STIM_005.jpg
1267.839	0.942	1	incongruent	Block2	incongruent/STIM_005.jpg
1272.315	0.978	1	incongruent	Block2	incongruent/STIM_005.jpg
1276.412	0.523	1	incongruent	Block2	incongruent/STIM_005.jpg
1279.941	1.064	1	incongruent	Block2	incongruent/STIM_006.jpg
1284.993	1.109	1	incongruent	Block2	incongruent/STIM_006.jpg
1288.851	0.741	1	incongruent	Block2	incongruent/STIM_006.jpg
1293.281	0.83	1	incongruent	Block2	incongruent/STIM_006.jpg
1297.767	0.648	1	incongruent	Block2	incongruent/STIM_006.jpg
1301.216	1.196	1	incongruent	Block2	incongruent/STIM_007.jpg
1305.295	0.866	1	incongruent	Block2	incongruent/STIM_007.jpg
1308.982	0.832	1	incongruent	Block2	incongruent/STIM_007.jpg
1313.087	0.737	0	incongruent	Block2	incongruent/STIM_007.jpg
1316.457	0.637	0	incongruent	Block2	incongruent/STIM_007.jpg
1319.56	0.772	1	incongruent	Block2	incongruent/STIM_008.jpg
1323.759	0.886	1	incongruent	Block2	incongruent/STIM_008.jpg
1327.5	0.622	1	incongruent	Block2	incongruent/STIM_008.jpg
1331.274	0.66	1	incongruent	Block2	incongruent/STIM_008.jpg
1334.776	0.739	1	incongruent	Block2	incongruent/STIM_008.jpg
1338.243	1.225	1	incongruent	Block2	incongruent/STIM_009.jpg
1341.669	0.823	1	incongruent	Block2	incongruent/STIM_009.jpg
1345.017	0.826	1	incongruent	Block2	incongruent/STIM_009.jpg
1348.861	0.978	1	incongruent	Block2	incongruent/STIM_009.jpg
1353.712	0.689	1	incongruent	Block2	incongruent/STIM_009.jpg
1357.146	0.841	1	incongruent	Block2	incongruent/STIM_010.jpg
1361.63	0.944	1	incongruent	Block2	incongruent/STIM_010.jpg
1364.993	0.716	1	incongruent	Block2	incongruent/STIM_010.jpg
1369.235	0.802	1	incongruent	Block2	incongruent/STIM_010.jpg
1372.303	0.724	1	incongruent	Block2	incongruent/STIM_010.jpg
1376.257	0.965	1	incongruent	Block2	incongruent/STIM_011.jpg
1380.592	1.12	1	incongruent	Block2	incongruent/STIM_011.jpg
1384.159	1.07	1	incongruent	Block2	incongruent/STIM_011.jpg
1388.131	0.954	1	incongruent	Block2	incongruent/STIM_011.jpg
1392.267	1.007	1	incongruent	Block2	incongruent/STIM_011.jpg
1395.472	1.08	1	incongruent	Block2	incongruent/STIM_012.jpg
1400.296	1.149	1	incongruent	Block2	incongruent/STIM_012.jpg
1405.075	0.585	1	incongruent	Block2	incongruent/STIM_012.jpg
1409.109	0.741	1	incongruent	Block2	incongruent/STIM_012.jpg
1412.174	0.918	1	incongruent	Block2	incongruent/STIM_012.jpg
1415.991	0.579	1	incongruent	Block2	incongruent/STIM_013.jpg
1418.596	1.095	1	incongruent	Block2	incongruent/STIM_013.jpg
1422.004	0.978	1	incongruent	Block2	incongruent/STIM_013.jpg
1425.19	0.679	1	incongruent	Block2	incongruent/STIM_013.jpg
1428.347	0.67	1	incongruent	Block2	incongruent/STIM_013.jpg
1431.382	0.849	1	incongruent	Block2	incongruent/STIM_014.jpg
1435.912	0.727	1	incongruent	Block2	incongruent/STIM_014.jpg
1440.592	1.059	1	incongruent	Block2	incongruent/STIM_014.jpg
1444.539	0.523	1	incongruent	Block2	incongruent/STIM_014.jpg
1447.189	0.622	0	incongruent	Block2	incongruent/STIM_014.jpg
1450.227	0.709	1	incongruent	Block2	incongruent/STIM_015.jpg
1453.068	0.827	1	incongruent	Block2	incongruent/STIM_015.jpg
1457.347	0.878	1	incongruent	Block2	incongruent/STIM_015.jpg
1460.576	0.587	1	incongruent	Block2	incongruent/STIM_015.jpg
1464.363	0.803	1	incongruent	Block2	incongruent/STIM_015.jpg
1467.64	0.729	1	incongruent	Block2	incongruent/STIM_016.jpg
1470.504	0.993	1	incongruent	Block2	incongruent/STIM_016.jpg
1474.816	1.027	1	incongruent	Block2	incongruent/STIM_016.jpg
1479.584	0.906	1	incongruent	Block2	incongruent/STIM_016.jpg
1484.385	0.61	1	incongruent	Block2	incongruent/STIM_016.jpg
1488.093	0.7	1	incongruent	Block2	incongruent/STIM_017.jpg
1491.09	0.882	1	incongruent	Block2	incongruent/STIM_017.jpg
1494.12	0.914	1	incongruent	Block2	incongruent/STIM_017.jpg
1497.844	0.917	1	incongruent	Block2	incongruent/STIM_017.jpg
1502.725	0.746	1	incongruent	Block2	incongruent/STIM_017.jpg
1507.034	0.633	1	incongruent	Block2	incongruent/STIM_018.jpg
1510.976	0.743	1	incongruent	Block2	incongruent/STIM_018.jpg
1514.161	0.924	1	incongruent	Block2	incongruent/STIM_018.jpg
1517.784	0.761	1	incongruent	Block2	incongruent/STIM_018.jpg
1522.491	0.648	1	incongruent	Block2	incongruent/STIM_018.jpg
1526.089	1.224	1	incongruent	Block2	incongruent/STIM_019.jpg
1530.821	0.879	1	incongruent	Block2	incongruent/STIM_019.jpg
1534.507	0.666	1	incongruent	Block2	incongruent/STIM_019.jpg
1538.784	0.592	1	incongruent	Block2	incongruent/STIM_019.jpg
1542.06	0.581	1	incongruent	Block2	incongruent/STIM_019.jpg
1545.512	0.595	0	incongruent	Block2	incongruent/STIM_020.jpg
1548.288	0.793	1	incongruent	Block2	incongruent/STIM_020.jpg
1551.261	0.699	1	incongruent	Block2	incongruent/STIM_020.jpg
1554.953	0.776	1	incongruent	Block2	incongruent/STIM_020.jpg
1559.623	0.963	1	incongruent	Block2	incongruent/STIM_020.jpg
1562.933	0.891	1	incongruent	Block2	incongruent/STIM_021.jpg
1567.216	1.087	1	incongruent	Block2	incongruent/STIM_021.jpg
1572.041	0.744	0	incongruent	Block2	incongruent/STIM_021.jpg
1575.76	0.524	1	incongruent	Block2	incongruent/STIM_021.jpg
1579.036	0.943	1	incongruent	Block2	incongruent/STIM_021.jpg
1582.417	0.608	1	incongruent	Block2	incongruent/STIM_022.jpg
1586.77	1.13	1	incongruent	Block2	incongruent/STIM_022.jpg
1590.267	0.761	1	incongruent	Block2	incongruent/STIM_022.jpg
1594.542	0.523	1	incongruent	Block2	incongruent/STIM_022.jpg
1597.576	0.663	1	incongruent	Block2	incongruent/STIM_022.jpg
1601.907	0.854	1	incongruent	Block2	incongruent/STIM_023.jpg
1606.546	0.645	1	incongruent	Block2	incongruent/STIM_023.jpg
1609.827	0.915	1	incongruent	Block2	incongruent/STIM_023.jpg
1613.545	0.756	1	incongruent	Block2	incongruent/STIM_023.jpg
1616.561	0.998	1	incongruent	Block2	incongruent/STIM_023.jpg
1620.536	1.032	1	incongruent	Block2	incongruent/STIM_024.jpg
1625.484	0.555	1	incongruent	Block2	incongruent/STIM_024.jpg
1629.213	0.925	1	incongruent	Block2	incongruent/STIM_024.jpg
1632.365	0.675	1	incongruent	Block2	incongruent/STIM_024.jpg
1635.251	0.673	1	incongruent	Block2	incongruent/STIM_024.jpg
1639.424	0.805	0	incongruent	Block2	incongruent/STIM_025.jpg
1643.817	0.876	1	incongruent	Block2	incongruent/STIM_025.jpg
1646.764	0.702	1	incongruent	Block2	incongruent/STIM_025.jpg
1649.844	0.943	1	incongruent	Block2	incongruent/STIM_025.jpg
1654.166	0.806	1	incongruent	Block2	incongruent/STIM_025.jpg
1658.498	0.795	1	incongruent	Block2	incongruent/STIM_026.jpg
1661.949	0.543	1	incongruent	Block2	incongruent/STIM_026.jpg
1665.198	1.044	1	incongruent	Block2	incongruent/STIM_026.jpg
1669.909	0.793	1	incongruent	Block2	incongruent/STIM_026.jpg
1673.086	0.559	1	incongruent	Block2	incongruent/STIM_026.jpg
1677.192	1.048	1	incongruent	Block2	incongruent/STIM_027.jpg
1681.9	0.569	0	incongruent	Block2	incongruent/STIM_027.jpg
1685.363	1.064	1	incongruent	Block2	incongruent/STIM_027.jpg
1689.756	0.554	1	incongruent	Block2	incongruent/STIM_027.jpg
1692.359	0.498	1	incongruent	Block2	incongruent/STIM_027.jpg
1695.957	1.076	1	incongruent	Block2	incongruent/STIM_028.jpg
1699.666	0.559	1	incongruent	Block2	incongruent/STIM_028.jpg
1703.852	0.758	1	incongruent	Block2	incongruent/STIM_028.jpg
1708.327	0.79	1	incongruent	Block2	incongruent/STIM_028.jpg
1712.192	0.607	1	incongruent	Block2	incongruent/STIM_028.jpg
1715.002	0.745	1	incongruent	Block2	incongruent/STIM_029.jpg
1719.18	0.815	1	incongruent	Block2	incongruent/STIM_029.jpg
1723.857	0.897	1	incongruent	Block2	incongruent/STIM_029.jpg
1727.645	0.917	1	incongruent	Block2	incongruent/STIM_029.jpg
1732.471	0.783	1	incongruent	Block2	incongruent/STIM_029.jpg
1735.587	0.49	1	congruent	Block2	congruent/STIM_000.jpg
1739.566	0.488	1	congruent	Block2	congruent/STIM_000.jpg
1742.587	0.544	1	congruent	Block2	congruent/STIM_000.jpg
1746.188	0.544	1	congruent	Block2	congruent/STIM_000.jpg
1749.648	0.654	1	congruent	Block2	congruent/STIM_000.jpg
1753.286	0.688	1	congruent	Block2	congruent/STIM_001.jpg
1757.326	0.583	1	congruent	Block2	congruent/STIM_001.jpg
1761.877	0.667	1	congruent	Block2	congruent/STIM_001.jpg
1765.014	0.86	1	congruent	Block2	congruent/STIM_001.jpg
1769.346	0.687	1	congruent	Block2	congruent/STIM_001.jpg
1772.152	0.813	1	congruent	Block2	congruent/STIM_002.jpg
1776.269	0.589	0	congruent	Block2	congruent/STIM_002.jpg
1779.983	0.736	1	congruent	Block2	congruent/STIM_002.jpg
1784.499	0.764	1	congruent	Block2	congruent/STIM_002.jpg
1787.44	0.65	1	congruent	Block2	congruent/STIM_002.jpg
1791.587	0.607	1	congruent	Block2	congruent/STIM_003.jpg
1795.517	0.822	1	congruent	Block2	congruent/STIM_003.jpg
1800.358	0.615	1	congruent	Block2	congruent/STIM_003.jpg
1804.546	0.835	1	congruent	Block2	congruent/STIM_003.jpg
1809.029	0.513	1	congruent	Block2	congruent/STIM_003.jpg
1811.883	0.567	1	congruent	Block2	congruent/STIM_004.jpg
1815.422	0.854	1	congruent	Block2	congruent/STIM_004.jpg
1819.875	0.635	1	congruent	Block2	congruent/STIM_004.jpg
1823.778	0.8	1	congruent	Block2	congruent/STIM_004.jpg
1827.303	0.564	1	congruent	Block2	congruent/STIM_004.jpg
1831.219	0.556	1	congruent	Block2	congruent/STIM_005.jpg
1834.791	0.51	1	congruent	Block2	congruent/STIM_005.jpg
1838.37	0.723	1	congruent	Block2	congruent/STIM_005.jpg
1842.468	0.596	1	congruent	Block2	congruent/STIM_005.jpg
1845.959	0.563	1	congruent	Block2	congruent/STIM_005.jpg
1849.424	0.713	1	congruent	Block2	congruent/STIM_006.jpg
1852.402	0.623	1	congruent	Block2	congruent/STIM_006.jpg
1856.262	0.555	1	congruent	Block2	congruent/STIM_006.jpg
1859.18	0.74	0	congruent	Block2	congruent/STIM_006.jpg
1863.382	0.713	1	congruent	Block2	congruent/STIM_006.jpg
1867.962	0.583	1	congruent	Block2	congruent/STIM_007.jpg
1871.692	0.739	1	congruent	Block2	congruent/STIM_007.jpg
1875.04	0.575	1	congruent	Block2	congruent/STIM_007.jpg
1879.156	0.632	1	congruent	Block2	congruent/STIM_007.jpg
1882.327	0.522	1	congruent	Block2	congruent/STIM_007.jpg
1886.15	0.75	1	congruent	Block2	congruent/STIM_008.jpg
1889.208	0.678	0	congruent	Block2	congruent/STIM_008.jpg
1893.269	0.842	1	congruent	Block2	congruent/STIM_008.jpg
1897.035	0.686	0	congruent	Block2	congruent/STIM_008.jpg
1900.438	0.519	1	congruent	Block2	congruent/STIM_008.jpg
1904.303	0.739	1	congruent	Block2	congruent/STIM_009.jpg
1908.99	0.528	1	congruent	Block2	congruent/STIM_009.jpg
1912.515	0.67	1	congruent	Block2	congruent/STIM_009.jpg
1917.12	0.682	1	congruent	Block2	congruent/STIM_009.jpg
1919.975	0.858	1	congruent	Block2	congruent/STIM_009.jpg
1923.165	0.627	1	congruent	Block2	congruent/STIM_010.jpg
1926.553	0.6	0	congruent	Block2	congruent/STIM_010.jpg
1929.803	0.64	1	congruent	Block2	congruent/STIM_010.jpg
1933.576	0.569	1	congruent	Block2	congruent/STIM_010.jpg
1938.112	0.695	1	congruent	Block2	congruent/STIM_010.jpg
1942.082	0.536	1	congruent	Block2	congruent/STIM_011.jpg
1946.108	0.828	1	congruent	Block2	congruent/STIM_011.jpg
1949.403	0.671	1	congruent	Block2	congruent/STIM_011.jpg
1953.947	0.586	1	congruent	Block2	congruent/STIM_011.jpg
1957.435	0.684	1	congruent	Block2	congruent/STIM_011.jpg
1961.454	0.749	1	congruent	Block2	congruent/STIM_012.jpg
1965.379	0.597	1	congruent	Block2	congruent/STIM_012.jpg
1969.907	0.67	1	congruent	Block2	congruent/STIM_012.jpg
1973.251	0.658	1	congruent	Block2	congruent/STIM_012.jpg
1976.553	0.627	1	congruent	Block2	congruent/STIM_012.jpg
1979.626	0.749	1	congruent	Block2	congruent/STIM_013.jpg
1983.123	0.577	1	congruent	Block2	congruent/STIM_013.jpg
1986.187	0.528	1	congruent	Block2	congruent/STIM_013.jpg
1990.537	0.634	1	congruent	Block2	congruent/STIM_013.jpg
1995.072	0.573	1	congruent	Block2	congruent/STIM_013.jpg
1998.899	0.784	1	congruent	Block2	congruent/STIM_014.jpg
2003.392	0.816	1	congruent	Block2	congruent/STIM_014.jpg
2007.792	0.484	1	congruent	Block2	congruent/STIM_014.jpg
2011.407	0.826	1	congruent	Block2	congruent/STIM_014.jpg
2014.822	0.65	1	congruent	Block2	congruent/STIM_014.jpg
2018.347	0.722	1	congruent	Block2	congruent/STIM_015.jpg
2022.311	0.536	1	congruent	Block2	congruent/STIM_015.jpg
2026.774	0.488	1	congruent	Block2	congruent/STIM_015.jpg
2029.609	0.83	1	congruent	Block2	congruent/STIM_015.jpg
2034.01	0.666	1	congruent	Block2	congruent/STIM_015.jpg
2037.796	0.515	1	congruent	Block2	congruent/STIM_016.jpg
2042.137	0.844	1	congruent	Block2	congruent/STIM_016.jpg
2045.917	0.66	1	congruent	Block2	congruent/STIM_016.jpg
2049.186	0.594	1	congruent	Block2	congruent/STIM_016.jpg
2051.809	0.869	1	congruent	Block2	congruent/STIM_016.jpg
2056.287	0.863	1	congruent	Block2	congruent/STIM_017.jpg
2060.121	0.842	1	congruent	Block2	congruent/STIM_017.jpg
2063.372	0.625	1	congruent	Block2	congruent/STIM_017.jpg
2067.663	0.849	1	congruent	Block2	congruent/STIM_017.jpg
2072.193	0.729	1	congruent	Block2	congruent/STIM_017.jpg
2076.224	0.568	1	congruent	Block2	congruent/STIM_018.jpg
2079.718	0.49	1	congruent	Block2	congruent/STIM_018.jpg
2083.702	0.675	1	congruent	Block2	congruent/STIM_018.jpg
2086.976	0.801	1	congruent	Block2	congruent/STIM_018.jpg
2090.184	0.598	1	congruent	Block2	congruent/STIM_018.jpg
2094.493	0.744	1	congruent	Block2	congruent/STIM_019.jpg
2098.909	0.776	1	congruent	Block2	congruent/STIM_019.jpg
2103.161	0.639	1	congruent	Block2	congruent/STIM_019.jpg
2106.533	0.692	1	congruent	Block2	congruent/STIM_019.jpg
2110.148	0.716	1	congruent	Block2	congruent/STIM_019.jpg
2113.481	0.731	1	congruent	Block2	congruent/STIM_020.jpg
2117.39	0.807	1	congruent	Block2	congruent/STIM_020.jpg
2120.685	0.567	1	congruent	Block2	congruent/STIM_020.jpg
2123.645	0.831	1	congruent	Block2	congruent/STIM_020.jpg
2126.58	0.675	1	congruent	Block2	congruent/STIM_020.jpg
2130.469	0.689	1	congruent	Block2	congruent/STIM_021.jpg
2134.197	0.798	1	congruent	Block2	congruent/STIM_021.jpg
2138.081	0.654	1	congruent	Block2	congruent/STIM_021.jpg
2141.155	0.745	1	congruent	Block2	congruent/STIM_021.jpg
2145.834	0.494	1	congruent	Block2	congruent/STIM_021.jpg
2148.921	0.796	1	congruent	Block2	congruent/STIM_022.jpg
2152.194	0.581	1	congruent	Block2	congruent/STIM_022.jpg
2155.926	0.66	1	congruent	Block2	congruent/STIM_022.jpg
2159.784	0.558	1	congruent	Block2	congruent/STIM_022.jpg
2163.177	0.514	1	congruent	Block2	congruent/STIM_022.jpg
2166.4	0.757	1	congruent	Block2	congruent/STIM_023.jpg
2169.568	0.612	1	congruent	Block2	congruent/STIM_023.jpg
2172.984	0.506	1	congruent	Block2	congruent/STIM_023.jpg
2177.262	0.746	1	congruent	Block2	congruent/STIM_023.jpg
2180.351	0.591	1	congruent	Block2	congruent/STIM_023.jpg
2183.869	0.787	1	congruent	Block2	congruent/STIM_024.jpg
2188.302	0.658	1	congruent	Block2	congruent/STIM_024.jpg
2191.315	0.573	1	congruent	Block2	congruent/STIM_024.jpg
2194.729	0.502	1	congruent	Block2	congruent/STIM_024.jpg
2199.126	0.845	1	congruent	Block2	congruent/STIM_024.jpg
2202.939	0.788	1	congruent	Block2	congruent/STIM_025.jpg
2207.442	0.806	0	congruent	Block2	congruent/STIM_025.jpg
2210.302	0.764	1	congruent	Block2	congruent/STIM_025.jpg
2213.977	0.536	1	congruent	Block2	congruent/STIM_025.jpg
2217.65	0.653	1	congruent	Block2	congruent/STIM_025.jpg
2220.662	0.532	1	congruent	Block2	congruent/STIM_026.jpg
2224.23	0.581	1	congruent	Block2	congruent/STIM_026.jpg
2227.562	0.83	1	congruent	Block2	congruent/STIM_026.jpg
2231.101	0.632	1	congruent	Block2	congruent/STIM_026.jpg
2234.237	0.781	1	congruent	Block2	congruent/STIM_026.jpg
2238.093	0.75	1	congruent	Block2	congruent/STIM_027.jpg
2241.382	0.68	1	congruent	Block2	congruent/STIM_027.jpg
2245.354	0.67	1	congruent	Block2	congruent/STIM_027.jpg
2249.29	0.499	1	congruent	Block2	congruent/STIM_027.jpg
2253.041	0.75	1	congruent	Block2	congruent/STIM_027.jpg
2256.916	0.602	1	congruent	Block2	congruent/STIM_028.jpg
2261.255	0.69	1	congruent	Block2	congruent/STIM_028.jpg
2265.276	0.786	0	congruent	Block2	congruent/STIM_028.jpg
2269.768	0.647	1	congruent	Block2	congruent/STIM_028.jpg
2273.639	0.65	1	congruent	Block2	congruent/STIM_028.jpg
2278.089	0.86	1	congruent	Block2	congruent/STIM_029.jpg
2281.682	0.545	1	congruent	Block2	congruent/STIM_029.jpg
2285.88	0.864	1	congruent	Block2	congruent/STIM_029.jpg
2290.134	0.828	1	congruent	Block2	congruent/STIM_029.jpg
2293.671	0.699	1	congruent	Block2	congruent/STIM_029.jpg
2297.909	0.766	1	incongruent	Block3	incongruent/STIM_000.jpg
2301.91	0.567	1	incongruent	Block3	incongruent/STIM_000.jpg
2305.474	0.539	1	incongruent	Block3	incongruent/STIM_000.jpg
2308.519	0.937	1	incongruent	Block3	incongruent/STIM_000.jpg
2311.879	0.629	0	incongruent	Block3	incongruent/STIM_000.jpg
2315.288	0.664	1	incongruent	Block3	incongruent/STIM_001.jpg
2318.927	0.482	1	incongruent	Block3	incongruent/STIM_001.jpg
2321.79	0.878	1	incongruent	Block3	incongruent/STIM_001.jpg
2324.704	0.623	1	incongruent	Block3	incongruent/STIM_001.jpg
2328.593	0.627	1	incongruent	Block3	incongruent/STIM_001.jpg
2332.384	0.922	1	incongruent	Block3	incongruent/STIM_002.jpg
2336.759	0.7	1	incongruent	Block3	incongruent/STIM_002.jpg
2339.777	0.977	1	incongruent	Block3	incongruent/STIM_002.jpg
2343.075	0.976	0	incongruent	Block3	incongruent/STIM_002.jpg
2347.675	0.53	1	incongruent	Block3	incongruent/STIM_002.jpg
2351.836	0.716	1	incongruent	Block3	incongruent/STIM_003.jpg
2355.071	0.778	1	incongruent	Block3	incongruent/STIM_003.jpg
2358.742	0.547	1	incongruent	Block3	incongruent/STIM_003.jpg
2362.445	0.912	1	incongruent	Block3	incongruent/STIM_003.jpg
2365.442	0.952	1	incongruent	Block3	incongruent/STIM_003.jpg
2368.673	0.616	1	incongruent	Block3	incongruent/STIM_004.jpg
2371.496	0.671	1	incongruent	Block3	incongruent/STIM_004.jpg
2374.694	0.512	1	incongruent	Block3	incongruent/STIM_004.jpg
2378.535	0.955	1	incongruent	Block3	incongruent/STIM_004.jpg
2381.718	0.661	1	incongruent	Block3	incongruent/STIM_004.jpg
2384.726	0.802	1	incongruent	Block3	incongruent/STIM_005.jpg
2388.776	0.533	1	incongruent	Block3	incongruent/STIM_005.jpg
2391.382	1.008	1	incongruent	Block3	incongruent/STIM_005.jpg
2396.199	0.547	1	incongruent	Block3	incongruent/STIM_005.jpg
2399.971	0.942	1	incongruent	Block3	incongruent/STIM_005.jpg
2403.378	0.877	1	incongruent	Block3	incongruent/STIM_006.jpg
2407.545	0.604	1	incongruent	Block3	incongruent/STIM_006.jpg
2412.015	0.592	1	incongruent	Block3	incongruent/STIM_006.jpg
2415.083	0.646	1	incongruent	Block3	incongruent/STIM_006.jpg
2419.369	0.686	1	incongruent	Block3	incongruent/STIM_006.jpg
2423.381	1.011	1	incongruent	Block3	incongruent/STIM_007.jpg
2427.987	0.758	1	incongruent	Block3	incongruent/STIM_007.jpg
2431.113	0.959	1	incongruent	Block3	incongruent/STIM_007.jpg
2435.804	0.668	1	incongruent	Block3	incongruent/STIM_007.jpg
2439.71	0.602	1	incongruent	Block3	incongruent/STIM_007.jpg
2442.823	0.721	1	incongruent	Block3	incongruent/STIM_008.jpg
2446.599	0.957	1	incongruent	Block3	incongruent/STIM_008.jpg
2449.815	0.739	1	incongruent	Block3	incongruent/STIM_008.jpg
2454.23	0.619	1	incongruent	Block3	incongruent/STIM_008.jpg
2457.297	0.499	1	incongruent	Block3	incongruent/STIM_008.jpg
2459.885	0.745	1	incongruent	Block3	incongruent/STIM_009.jpg
2463.684	0.978	1	incongruent	Block3	incongruent/STIM_009.jpg
2468.646	0.542	1	incongruent	Block3	incongruent/STIM_009.jpg
2472.584	0.952	1	incongruent	Block3	incongruent/STIM_009.jpg
2476.361	0.57	1	incongruent	Block3	incongruent/STIM_009.jpg
2480.584	0.485	1	incongruent	Block3	incongruent/STIM_010.jpg
2484.081	0.536	1	incongruent	Block3	incongruent/STIM_010.jpg
2486.861	0.722	1	incongruent	Block3	incongruent/STIM_010.jpg
2490.566	0.991	1	incongruent	Block3	incongruent/STIM_010.jpg
2495.533	0.502	1	incongruent	Block3	incongruent/STIM_010.jpg
2498.276	0.636	1	incongruent	Block3	incongruent/STIM_011.jpg
2502.225	0.554	1	incongruent	Block3	incongruent/STIM_011.jpg
2506.014	0.926	1	incongruent	Block3	incongruent/STIM_011.jpg
2510.684	0.607	1	incongruent	Block3	incongruent/STIM_011.jpg
2514.079	0.936	1	incongruent	Block3	incongruent/STIM_011.jpg
2518.358	0.732	1	incongruent	Block3	incongruent/STIM_012.jpg
2522.306	0.637	1	incongruent	Block3	incongruent/STIM_012.jpg
2525.009	0.759	1	incongruent	Block3	incongruent/STIM_012.jpg
2528.467	0.523	1	incongruent	Block3	incongruent/STIM_012.jpg
2531.325	0.656	1	incongruent	Block3	incongruent/STIM_012.jpg
2535.467	0.892	1	incongruent	Block3	incongruent/STIM_013.jpg
2538.465	0.48	1	incongruent	Block3	incongruent/STIM_013.jpg
2542.524	0.594	1	incongruent	Block3	incongruent/STIM_013.jpg
2545.895	0.902	1	incongruent	Block3	incongruent/STIM_013.jpg
2549.7	0.806	1	incongruent	Block3	incongruent/STIM_013.jpg
2554.266	0.704	1	incongruent	Block3	incongruent/STIM_014.jpg
2558.659	0.579	1	incongruent	Block3	incongruent/STIM_014.jpg
2562.114	0.984	1	incongruent	Block3	incongruent/STIM_014.jpg
2565.4	0.71	1	incongruent	Block3	incongruent/STIM_014.jpg
2569.709	0.814	1	incongruent	Block3	incongruent/STIM_014.jpg
2572.669	0.832	1	incongruent	Block3	incongruent/STIM_015.jpg
2576.151	0.624	1	incongruent	Block3	incongruent/STIM_015.jpg
2580.163	0.569	1	incongruent	Block3	incongruent/STIM_015.jpg
2584.445	0.613	1	incongruent	Block3	incongruent/STIM_015.jpg
2588.521	0.799	1	incongruent	Block3	incongruent/STIM_015.jpg
2592.164	0.625	1	incongruent	Block3	incongruent/STIM_016.jpg
2594.85	0.99	1	incongruent	Block3	incongruent/STIM_016.jpg
2598.219	0.799	1	incongruent	Block3	incongruent/STIM_016.jpg
2601.34	0.973	1	incongruent	Block3	incongruent/STIM_016.jpg
2605.787	0.868	1	incongruent	Block3	incongruent/STIM_016.jpg
2610.276	0.984	1	incongruent	Block3	incongruent/STIM_017.jpg
2614.846	0.858	1	incongruent	Block3	incongruent/STIM_017.jpg
2619.445	0.643	1	incongruent	Block3	incongruent/STIM_017.jpg
2623.808	0.836	1	incongruent	Block3	incongruent/STIM_017.jpg
2628.259	0.784	1	incongruent	Block3	incongruent/STIM_017.jpg
2632.077	0.849	1	incongruent	Block3	incongruent/STIM_018.jpg
2635.632	1.0	1	incongruent	Block3	incongruent/STIM_018.jpg
2639.295	0.903	1	incongruent	Block3	incongruent/STIM_018.jpg
2644.225	0.586	1	incongruent	Block3	incongruent/STIM_018.jpg
2647.319	0.898	1	incongruent	Block3	incongruent/STIM_018.jpg
2651.756	0.988	1	incongruent	Block3	incongruent/STIM_019.jpg
2655.608	0.729	1	incongruent	Block3	incongruent/STIM_019.jpg
2660.162	0.628	1	incongruent	Block3	incongruent/STIM_019.jpg
2663.318	0.523	1	incongruent	Block3	incongruent/STIM_019.jpg
2666.846	0.843	1	incongruent	Block3	incongruent/STIM_019.jpg
2670.518	0.555	1	incongruent	Block3	incongruent/STIM_020.jpg
2674.274	0.512	1	incongruent	Block3	incongruent/STIM_020.jpg
2678.595	0.746	1	incongruent	Block3	incongruent/STIM_020.jpg
2683.024	0.849	1	incongruent	Block3	incongruent/STIM_020.jpg
2687.068	0.905	1	incongruent	Block3	incongruent/STIM_020.jpg
2690.1	0.79	1	incongruent	Block3	incongruent/STIM_021.jpg
2694.558	0.476	1	incongruent	Block3	incongruent/STIM_021.jpg
2697.697	0.964	1	incongruent	Block3	incongruent/STIM_021.jpg
2702.05	0.821	0	incongruent	Block3	incongruent/STIM_021.jpg
2706.454	0.478	0	incongruent	Block3	incongruent/STIM_021.jpg
2710.671	0.587	1	incongruent	Block3	incongruent/STIM_022.jpg
2715.033	0.789	1	incongruent	Block3	incongruent/STIM_022.jpg
2719.58	0.674	1	incongruent	Block3	incongruent/STIM_022.jpg
2723.872	0.906	1	incongruent	Block3	incongruent/STIM_022.jpg
2727.247	0.753	1	incongruent	Block3	incongruent/STIM_022.jpg
2731.608	0.646	1	incongruent	Block3	incongruent/STIM_023.jpg
2734.303	0.686	1	incongruent	Block3	incongruent/STIM_023.jpg
2738.867	1.01	1	incongruent	Block3	incongruent/STIM_023.jpg
2743.839	0.72	1	incongruent	Block3	incongruent/STIM_023.jpg
2748.193	0.807	1	incongruent	Block3	incongruent/STIM_023.jpg
2752.25	0.684	1	incongruent	Block3	incongruent/STIM_024.jpg
2756.3	0.614	1	incongruent	Block3	incongruent/STIM_024.jpg
2759.22	0.57	1	incongruent	Block3	incongruent/STIM_024.jpg
2762.404	0.795	1	incongruent	Block3	incongruent/STIM_024.jpg
2766.746	0.793	1	incongruent	Block3	incongruent/STIM_024.jpg
2770.915	0.733	1	incongruent	Block3	incongruent/STIM_025.jpg
2774.135	0.62	1	incongruent	Block3	incongruent/STIM_025.jpg
2778.68	0.48	1	incongruent	Block3	incongruent/STIM_025.jpg
2782.25	0.984	1	incongruent	Block3	incongruent/STIM_025.jpg
2786.498	0.763	1	incongruent	Block3	incongruent/STIM_025.jpg
2789.327	0.606	1	incongruent	Block3	incongruent/STIM_026.jpg
2792.464	0.678	1	incongruent	Block3	incongruent/STIM_026.jpg
2796.092	0.942	1	incongruent	Block3	incongruent/STIM_026.jpg
2799.17	0.842	1	incongruent	Block3	incongruent/STIM_026.jpg
2802.3	0.948	1	incongruent	Block3	incongruent/STIM_026.jpg
2807.001	0.646	1	incongruent	Block3	incongruent/STIM_027.jpg
2810.331	0.762	1	incongruent	Block3	incongruent/STIM_027.jpg
2813.681	0.572	1	incongruent	Block3	incongruent/STIM_027.jpg
2817.563	0.678	1	incongruent	Block3	incongruent/STIM_027.jpg
2822.174	0.571	1	incongruent	Block3	incongruent/STIM_027.jpg
2826.306	0.911	1	incongruent	Block3	incongruent/STIM_028.jpg
2830.171	0.514	1	incongruent	Block3	incongruent/STIM_028.jpg
2832.764	0.696	1	incongruent	Block3	incongruent/STIM_028.jpg
2836.145	0.864	1	incongruent	Block3	incongruent/STIM_028.jpg
2840.322	0.596	1	incongruent	Block3	incongruent/STIM_028.jpg
2844.709	0.74	1	incongruent	Block3	incongruent/STIM_029.jpg
2847.577	0.996	1	incongruent	Block3	incongruent/STIM_029.jpg
2851.979	0.912	1	incongruent	Block3	incongruent/STIM_029.jpg
2855.218	0.497	1	incongruent	Block3	incongruent/STIM_029.jpg
2859.48	0.707	1	incongruent	Block3	incongruent/STIM_029.jpg
2862.307	0.628	1	congruent	Block3	congruent/STIM_000.jpg
2865.619	0.754	1	congruent	Block3	congruent/STIM_000.jpg
2869.85	0.677	1	congruent	Block3	congruent/STIM_000.jpg
2872.681	0.665	1	congruent	Block3	congruent/STIM_000.jpg
2875.513	0.812	1	congruent	Block3	congruent/STIM_000.jpg
2878.992	0.58	1	congruent	Block3	congruent/STIM_001.jpg
2882.02	0.517	1	congruent	Block3	congruent/STIM_001.jpg
2885.578	0.542	1	congruent	Block3	congruent/STIM_001.jpg
2888.412	0.756	1	congruent	Block3	congruent/STIM_001.jpg
2892.077	0.858	1	congruent	Block3	congruent/STIM_001.jpg
2896.113	0.842	1	congruent	Block3	congruent/STIM_002.jpg
2899.24	0.654	1	congruent	Block3	congruent/STIM_002.jpg
2903.465	0.794	1	congruent	Block3	congruent/STIM_002.jpg
2907.532	0.835	1	congruent	Block3	congruent/STIM_002.jpg
2910.891	0.572	1	congruent	Block3	congruent/STIM_002.jpg
2913.697	0.578	1	congruent	Block3	congruent/STIM_003.jpg
2917.115	0.673	1	congruent	Block3	congruent/STIM_003.jpg
2920.864	0.758	1	congruent	Block3	congruent/STIM_003.jpg
2924.535	0.566	1	congruent	Block3	congruent/STIM_003.jpg
2928.965	0.566	1	congruent	Block3	congruent/STIM_003.jpg
2932.065	0.625	1	congruent	Block3	congruent/STIM_004.jpg
2935.522	0.714	1	congruent	Block3	congruent/STIM_004.jpg
2939.664	0.761	1	congruent	Block3	congruent/STIM_004.jpg
2944.445	0.535	1	congruent	Block3	congruent/STIM_004.jpg
2947.587	0.706	0	congruent	Block3	congruent/STIM_004.jpg
2950.894	0.822	1	congruent	Block3	congruent/STIM_005.jpg
2955.152	0.513	1	congruent	Block3	congruent/STIM_005.jpg
2959.557	0.799	1	congruent	Block3	congruent/STIM_005.jpg
2962.767	0.54	1	congruent	Block3	congruent/STIM_005.jpg
2966.773	0.507	1	congruent	Block3	congruent/STIM_005.jpg
2970.45	0.5	1	congruent	Block3	congruent/STIM_006.jpg
2974.859	0.809	1	congruent	Block3	congruent/STIM_006.jpg
2977.877	0.835	1	congruent	Block3	congruent/STIM_006.jpg
2981.104	0.499	1	congruent	Block3	congruent/STIM_006.jpg
2984.545	0.841	1	congruent	Block3	congruent/STIM_006.jpg
2988.17	0.758	1	congruent	Block3	congruent/STIM_007.jpg
2992.748	0.62	1	congruent	Block3	congruent/STIM_007.jpg
2996.603	0.824	1	congruent	Block3	congruent/STIM_007.jpg
3000.68	0.509	1	congruent	Block3	congruent/STIM_007.jpg
3004.169	0.556	1	congruent	Block3	congruent/STIM_007.jpg
3008.169	0.714	0	congruent	Block3	congruent/STIM_008.jpg
3012.877	0.607	1	congruent	Block3	congruent/STIM_008.jpg
3016.657	0.841	1	congruent	Block3	congruent/STIM_008.jpg
3019.975	0.835	1	congruent	Block3	congruent/STIM_008.jpg
3023.896	0.539	1	congruent	Block3	congruent/STIM_008.jpg
3027.403	0.696	1	congruent	Block3	congruent/STIM_009.jpg
3031.846	0.622	1	congruent	Block3	congruent/STIM_009.jpg
3034.598	0.573	1	congruent	Block3	congruent/STIM_009.jpg
3038.382	0.781	1	congruent	Block3	congruent/STIM_009.jpg
3043.036	0.707	1	congruent	Block3	congruent/STIM_009.jpg
3047.611	0.628	1	congruent	Block3	congruent/STIM_010.jpg
3051.227	0.812	1	congruent	Block3	congruent/STIM_010.jpg
3055.405	0.87	1	congruent	Block3	congruent/STIM_010.jpg
3058.685	0.782	1	congruent	Block3	congruent/STIM_010.jpg
3063.0	0.542	1	congruent	Block3	congruent/STIM_010.jpg
3065.696	0.816	1	congruent	Block3	congruent/STIM_011.jpg
3069.378	0.598	1	congruent	Block3	congruent/STIM_011.jpg
3073.412	0.582	1	congruent	Block3	congruent/STIM_011.jpg
3077.975	0.766	1	congruent	Block3	congruent/STIM_011.jpg
3081.307	0.641	1	congruent	Block3	congruent/STIM_011.jpg
3084.218	0.499	1	congruent	Block3	congruent/STIM_012.jpg
3088.068	0.85	1	congruent	Block3	congruent/STIM_012.jpg
3092.488	0.537	1	congruent	Block3	congruent/STIM_012.jpg
3096.489	0.639	1	congruent	Block3	congruent/STIM_012.jpg
3100.324	0.509	1	congruent	Block3	congruent/STIM_012.jpg
3104.119	0.717	1	congruent	Block3	congruent/STIM_013.jpg
3108.063	0.593	1	congruent	Block3	congruent/STIM_013.jpg
3111.83	0.865	1	congruent	Block3	congruent/STIM_013.jpg
3116.411	0.718	1	congruent	Block3	congruent/STIM_013.jpg
3119.942	0.537	1	congruent	Block3	congruent/STIM_013.jpg
3123.649	0.824	1	congruent	Block3	congruent/STIM_014.jpg
3127.644	0.698	1	congruent	Block3	congruent/STIM_014.jpg
3131.773	0.54	1	congruent	Block3	congruent/STIM_014.jpg
3135.74	0.719	1	congruent	Block3	congruent/STIM_014.jpg
3139.526	0.605	1	congruent	Block3	congruent/STIM_014.jpg
3143.663	0.784	1	congruent	Block3	congruent/STIM_015.jpg
3147.954	0.494	1	congruent	Block3	congruent/STIM_015.jpg
3150.61	0.606	1	congruent	Block3	congruent/STIM_015.jpg
3155.082	0.524	1	congruent	Block3	congruent/STIM_015.jpg
3159.301	0.749	0	congruent	Block3	congruent/STIM_015.jpg
3163.664	0.732	1	congruent	Block3	congruent/STIM_016.jpg
3168.28	0.59	1	congruent	Block3	congruent/STIM_016.jpg
3171.582	0.508	1	congruent	Block3	congruent/STIM_016.jpg
3175.508	0.716	1	congruent	Block3	congruent/STIM_016.jpg
3179.238	0.487	1	congruent	Block3	congruent/STIM_016.jpg
3183.677	0.753	1	congruent	Block3	congruent/STIM_017.jpg
3188.033	0.829	1	congruent	Block3	congruent/STIM_017.jpg
3191.73	0.776	1	congruent	Block3	congruent/STIM_017.jpg
3195.789	0.519	1	congruent	Block3	congruent/STIM_017.jpg
3199.481	0.822	1	congruent	Block3	congruent/STIM_017.jpg
3203.3	0.586	1	congruent	Block3	congruent/STIM_018.jpg
3207.791	0.538	0	congruent	Block3	congruent/STIM_018.jpg
3211.985	0.655	1	congruent	Block3	congruent/STIM_018.jpg
3215.672	0.538	1	congruent	Block3	congruent/STIM_018.jpg
3219.099	0.795	1	congruent	Block3	congruent/STIM_018.jpg
3223.455	0.772	1	congruent	Block3	congruent/STIM_019.jpg
3226.522	0.697	1	congruent	Block3	congruent/STIM_019.jpg
3231.216	0.798	1	congruent	Block3	congruent/STIM_019.jpg
3235.026	0.725	1	congruent	Block3	congruent/STIM_019.jpg
3238.005	0.581	1	congruent	Block3	congruent/STIM_019.jpg
3241.966	0.814	1	congruent	Block3	congruent/STIM_020.jpg
3245.891	0.622	1	congruent	Block3	congruent/STIM_020.jpg
3249.892	0.661	1	congruent	Block3	congruent/STIM_020.jpg
3254.192	0.828	0	congruent	Block3	congruent/STIM_020.jpg
3258.202	0.519	1	congruent	Block3	congruent/STIM_020.jpg
3262.676	0.673	1	congruent	Block3	congruent/STIM_021.jpg
3265.427	0.673	1	congruent	Block3	congruent/STIM_021.jpg
3269.48	0.563	1	congruent	Block3	congruent/STIM_021.jpg
3273.9	0.773	1	congruent	Block3	congruent/STIM_021.jpg
3277.36	0.576	1	congruent	Block3	congruent/STIM_021.jpg
3280.168	0.779	1	congruent	Block3	congruent/STIM_022.jpg
3284.871	0.832	1	congruent	Block3	congruent/STIM_022.jpg
3288.792	0.747	1	congruent	Block3	congruent/STIM_022.jpg
3292.429	0.783	1	congruent	Block3	congruent/STIM_022.jpg
3295.693	0.697	1	congruent	Block3	congruent/STIM_022.jpg
3299.774	0.687	1	congruent	Block3	congruent/STIM_023.jpg
3303.352	0.659	1	congruent	Block3	congruent/STIM_023.jpg
3307.587	0.549	1	congruent	Block3	congruent/STIM_023.jpg
3311.167	0.802	1	congruent	Block3	congruent/STIM_023.jpg
3314.964	0.748	1	congruent	Block3	congruent/STIM_023.jpg
3319.571	0.507	1	congruent	Block3	congruent/STIM_024.jpg
3323.663	0.82	1	congruent	Block3	congruent/STIM_024.jpg
3326.916	0.779	1	congruent	Block3	congruent/STIM_024.jpg
3329.879	0.84	0	congruent	Block3	congruent/STIM_024.jpg
3333.34	0.803	1	congruent	Block3	congruent/STIM_024.jpg
3337.684	0.613	1	congruent	Block3	congruent/STIM_025.jpg
3342.107	0.859	1	congruent	Block3	congruent/STIM_025.jpg
3345.849	0.814	1	congruent	Block3	congruent/STIM_025.jpg
3350.221	0.646	1	congruent	Block3	congruent/STIM_025.jpg
3353.944	0.738	1	congruent	Block3	congruent/STIM_025.jpg
3357.545	0.747	1	congruent	Block3	congruent/STIM_026.jpg
3362.117	0.744	1	congruent	Block3	congruent/STIM_026.jpg
3366.175	0.554	1	congruent	Block3	congruent/STIM_026.jpg
3370.081	0.77	1	congruent	Block3	congruent/STIM_026.jpg
3374.021	0.512	1	congruent	Block3	congruent/STIM_026.jpg
3377.644	0.555	1	congruent	Block3	congruent/STIM_027.jpg
3380.4	0.694	0	congruent	Block3	congruent/STIM_027.jpg
3384.863	0.819	1	congruent	Block3	congruent/STIM_027.jpg
3389.216	0.507	1	congruent	Block3	congruent/STIM_027.jpg
3393.288	0.54	1	congruent	Block3	congruent/STIM_027.jpg
3397.826	0.566	1	congruent	Block3	congruent/STIM_028.jpg
3401.316	0.542	0	congruent	Block3	congruent/STIM_028.jpg
3405.175	0.51	1	congruent	Block3	congruent/STIM_028.jpg
3408.636	0.804	1	congruent	Block3	congruent/STIM_028.jpg
3411.694	0.584	1	congruent	Block3	congruent/STIM_028.jpg
3415.959	0.622	1	congruent	Block3	congruent/STIM_029.jpg
3419.748	0.698	1	congruent	Block3	congruent/STIM_029.jpg
3422.91	0.682	1	congruent	Block3	congruent/STIM_029.jpg
3426.79	0.807	1	congruent	Block3	congruent/STIM_029.jpg
3431.596	0.685	1	congruent	Block3	congruent/STIM_029.jpg
