onset	duration	response_time_ms	trial_type	learning_stage	stimulus	response_port
0.0	1.074	1074.4	incongruent	Block1	incongruent/STIM_000.jpg	99
3.542	1.043	1043.2	incongruent	Block1	incongruent/STIM_000.jpg	99
8.568	1.302	1302.3	incongruent	Block1	incongruent/STIM_000.jpg	100
12.711	0.839	839.2	incongruent	Block1	incongruent/STIM_000.jpg	100
16.312	1.128	1127.6	incongruent	Block1	incongruent/STIM_000.jpg	100
21.272	1.192	1191.5	incongruent	Block1	incongruent/STIM_001.jpg	99
24.586	0.671	671.0	incongruent	Block1	incongruent/STIM_001.jpg	99
28.161	0.703	703.2	incongruent	Block1	incongruent/STIM_001.jpg	99
32.071	0.82	819.8	incongruent	Block1	incongruent/STIM_001.jpg	100
36.702	0.778	778.0	incongruent	Block1	incongruent/STIM_001.jpg	99
41.504	1.168	1167.9	incongruent	Block1	incongruent/STIM_002.jpg	99
45.268	0.748	748.4	incongruent	Block1	incongruent/STIM_002.jpg	99
48.998	0.949	949.4	incongruent	Block1	incongruent/STIM_002.jpg	99
53.331	0.721	721.0	incongruent	Block1	incongruent/STIM_002.jpg	100
57.678	0.799	798.8	incongruent	Block1	incongruent/STIM_002.jpg	100
61.996	0.954	954.0	incongruent	Block1	incongruent/STIM_003.jpg	99
66.395	1.243	1243.3	incongruent	Block1	incongruent/STIM_003.jpg	99
71.026	0.798	798.4	incongruent	Block1	incongruent/STIM_003.jpg	99
74.949	1.162	1161.9	incongruent	Block1	incongruent/STIM_003.jpg	99
79.255	0.811	811.3	incongruent	Block1	incongruent/STIM_003.jpg	99
82.95	0.824	824.3	incongruent	Block1	incongruent/STIM_004.jpg	99
86.135	0.768	768.0	incongruent	Block1	incongruent/STIM_004.jpg	99
90.92	1.035	1034.8	incongruent	Block1	incongruent/STIM_004.jpg	99
94.071	1.139	1139.0	incongruent	Block1	incongruent/STIM_004.jpg	99
97.856	0.983	983.1	incongruent	Block1	incongruent/STIM_004.jpg	100
102.41	1.302	1301.8	incongruent	Block1	incongruent/STIM_005.jpg	99
106.747	0.661	661.4	incongruent	Block1	incongruent/STIM_005.jpg	100
110.887	0.641	641.0	incongruent	Block1	incongruent/STIM_005.jpg	99
115.021	0.748	747.7	incongruent	Block1	incongruent/STIM_005.jpg	99
117.871	0.717	717.3	incongruent	Block1	incongruent/STIM_005.jpg	100
122.493	0.765	765.1	incongruent	Block1	incongruent/STIM_006.jpg	100
126.054	1.364	1364.4	incongruent	Block1	incongruent/STIM_006.jpg	100
129.747	1.187	1187.3	incongruent	Block1	incongruent/STIM_006.jpg	100
134.941	0.779	778.6	incongruent	Block1	incongruent/STIM_006.jpg	100
139.743	1.108	1107.6	incongruent	Block1	incongruent/STIM_006.jpg	99
143.646	0.934	933.8	incongruent	Block1	incongruent/STIM_007.jpg	99
147.061	1.03	1029.9	incongruent	Block1	incongruent/STIM_007.jpg	99
150.16	0.768	767.7	incongruent	Block1	incongruent/STIM_007.jpg	99
153.794	0.858	857.6	incongruent	Block1	incongruent/STIM_007.jpg	100
157.124	0.821	821.4	incongruent	Block1	incongruent/STIM_007.jpg	99
160.872	0.762	761.8	incongruent	Block1	incongruent/STIM_008.jpg	99
164.942	1.335	1334.7	incongruent	Block1	incongruent/STIM_008.jpg	99
168.342	1.279	1278.9	incongruent	Block1	incongruent/STIM_008.jpg	100
173.007	1.033	1033.0	incongruent	Block1	incongruent/STIM_008.jpg	99
177.578	1.094	1094.3	incongruent	Block1	incongruent/STIM_008.jpg	99
181.944	0.751	750.7	incongruent	Block1	incongruent/STIM_009.jpg	99
186.372	0.784	783.9	incongruent	Block1	incongruent/STIM_009.jpg	99
190.951	0.827	826.9	incongruent	Block1	incongruent/STIM_009.jpg	99
195.034	1.082	1082.5	incongruent	Block1	incongruent/STIM_009.jpg	99
198.717	0.95	949.9	incongruent	Block1	incongruent/STIM_009.jpg	99
203.416	1.242	1242.1	incongruent	Block1	incongruent/STIM_010.jpg	99
207.975	1.221	1221.3	incongruent	Block1	incongruent/STIM_010.jpg	100
211.271	0.918	917.5	incongruent	Block1	incongruent/STIM_010.jpg	100
214.628	0.859	859.2	incongruent	Block1	incongruent/STIM_010.jpg	99
218.086	0.948	947.5	incongruent	Block1	incongruent/STIM_010.jpg	100
222.994	0.998	998.5	incongruent	Block1	incongruent/STIM_011.jpg	100
227.949	1.313	1313.0	incongruent	Block1	incongruent/STIM_011.jpg	99
231.53	0.908	907.8	incongruent	Block1	incongruent/STIM_011.jpg	99
235.26	1.068	1067.8	incongruent	Block1	incongruent/STIM_011.jpg	100
239.152	0.842	842.2	incongruent	Block1	incongruent/STIM_011.jpg	99
242.065	1.316	1316.3	incongruent	Block1	incongruent/STIM_012.jpg	100
246.296	0.979	978.8	incongruent	Block1	incongruent/STIM_012.jpg	99
249.662	1.101	1100.8	incongruent	Block1	incongruent/STIM_012.jpg	99
254.761	1.03	1030.0	incongruent	Block1	incongruent/STIM_012.jpg	100
257.963	0.914	913.5	incongruent	Block1	incongruent/STIM_012.jpg	99
261.832	1.368	1368.5	incongruent	Block1	incongruent/STIM_013.jpg	99
267.203	0.751	751.1	incongruent	Block1	incongruent/STIM_013.jpg	100
271.647	0.924	924.0	incongruent	Block1	incongruent/STIM_013.jpg	99
276.115	0.607	606.6	incongruent	Block1	incongruent/STIM_013.jpg	100
280.262	0.861	861.0	incongruent	Block1	incongruent/STIM_013.jpg	100
283.382	1.42	1420.5	incongruent	Block1	incongruent/STIM_014.jpg	100
287.863	1.308	1308.4	incongruent	Block1	incongruent/STIM_014.jpg	100
292.962	1.262	1262.4	incongruent	Block1	incongruent/STIM_014.jpg	99
297.977	1.04	1039.9	incongruent	Block1	incongruent/STIM_014.jpg	99
301.683	1.086	1086.5	incongruent	Block1	incongruent/STIM_014.jpg	100
306.355	1.091	1090.6	incongruent	Block1	incongruent/STIM_015.jpg	99
311.477	0.775	774.9	incongruent	Block1	incongruent/STIM_015.jpg	99
314.803	0.85	850.4	incongruent	Block1	incongruent/STIM_015.jpg	99
319.398	0.773	772.9	incongruent	Block1	incongruent/STIM_015.jpg	100
324.035	0.972	971.6	incongruent	Block1	incongruent/STIM_015.jpg	100
327.521	1.145	1145.1	incongruent	Block1	incongruent/STIM_016.jpg	100
330.96	1.236	1235.9	incongruent	Block1	incongruent/STIM_016.jpg	100
335.76	0.805	805.3	incongruent	Block1	incongruent/STIM_016.jpg	99
339.055	1.08	1079.9	incongruent	Block1	incongruent/STIM_016.jpg	99
344.129	0.569	568.7	incongruent	Block1	incongruent/STIM_016.jpg	99
347.009	1.026	1025.7	incongruent	Block1	incongruent/STIM_017.jpg	100
351.348	0.763	762.8	incongruent	Block1	incongruent/STIM_017.jpg	100
354.451	0.998	998.3	incongruent	Block1	incongruent/STIM_017.jpg	99
358.303	0.944	943.8	incongruent	Block1	incongruent/STIM_017.jpg	100
362.434	0.545	545.0	incongruent	Block1	incongruent/STIM_017.jpg	99
366.593	0.981	980.9	incongruent	Block1	incongruent/STIM_018.jpg	99
370.655	0.788	787.9	incongruent	Block1	incongruent/STIM_018.jpg	100
374.906	0.987	986.8	incongruent	Block1	incongruent/STIM_018.jpg	100
379.083	0.907	907.4	incongruent	Block1	incongruent/STIM_018.jpg	100
382.326	1.143	1142.6	incongruent	Block1	incongruent/STIM_018.jpg	100
387.145	0.732	732.5	incongruent	Block1	incongruent/STIM_019.jpg	100
391.275	0.816	816.2	incongruent	Block1	incongruent/STIM_019.jpg	99
394.324	0.629	628.7	incongruent	Block1	incongruent/STIM_019.jpg	99
398.029	1.109	1109.0	incongruent	Block1	incongruent/STIM_019.jpg	100
402.829	0.706	706.1	incongruent	Block1	incongruent/STIM_019.jpg	100
406.149	0.932	931.5	incongruent	Block1	incongruent/STIM_020.jpg	100
410.534	1.109	1109.1	incongruent	Block1	incongruent/STIM_020.jpg	99
414.741	1.096	1096.2	incongruent	Block1	incongruent/STIM_020.jpg	99
417.877	1.029	1029.0	incongruent	Block1	incongruent/STIM_020.jpg	99
420.97	1.011	1010.7	incongruent	Block1	incongruent/STIM_020.jpg	99
424.446	1.221	1221.0	incongruent	Block1	incongruent/STIM_021.jpg	99
428.897	1.093	1093.0	incongruent	Block1	incongruent/STIM_021.jpg	99
432.993	0.863	863.0	incongruent	Block1	incongruent/STIM_021.jpg	100
437.809	0.939	938.7	incongruent	Block1	incongruent/STIM_021.jpg	99
441.814	1.102	1101.5	incongruent	Block1	incongruent/STIM_021.jpg	100
446.945	1.0	999.5	incongruent	Block1	incongruent/STIM_022.jpg	99
451.198	1.154	1153.7	incongruent	Block1	incongruent/STIM_022.jpg	100
455.071	0.882	882.2	incongruent	Block1	incongruent/STIM_022.jpg	100
459.935	0.77	770.4	incongruent	Block1	incongruent/STIM_022.jpg	99
462.967	1.039	1039.0	incongruent	Block1	incongruent/STIM_022.jpg	100
467.118	1.29	1290.5	incongruent	Block1	incongruent/STIM_023.jpg	99
471.064	1.075	1074.7	incongruent	Block1	incongruent/STIM_023.jpg	99
475.958	1.074	1073.7	incongruent	Block1	incongruent/STIM_023.jpg	99
480.19	0.901	901.4	incongruent	Block1	incongruent/STIM_023.jpg	100
484.854	0.889	888.9	incongruent	Block1	incongruent/STIM_023.jpg	99
488.461	0.933	933.2	incongruent	Block1	incongruent/STIM_024.jpg	100
493.19	1.021	1021.0	incongruent	Block1	incongruent/STIM_024.jpg	99
496.506	0.91	909.9	incongruent	Block1	incongruent/STIM_024.jpg	100
500.882	1.052	1052.3	incongruent	Block1	incongruent/STIM_024.jpg	100
504.839	0.742	741.9	incongruent	Block1	incongruent/STIM_024.jpg	99
509.285	1.218	1218.0	incongruent	Block1	incongruent/STIM_025.jpg	99
512.78	0.896	896.5	incongruent	Block1	incongruent/STIM_025.jpg	99
517.353	1.102	1102.4	incongruent	Block1	incongruent/STIM_025.jpg	100
521.495	0.592	592.0	incongruent	Block1	incongruent/STIM_025.jpg	100
524.811	0.693	693.3	incongruent	Block1	incongruent/STIM_025.jpg	100
528.41	1.212	1211.7	incongruent	Block1	incongruent/STIM_026.jpg	99
533.429	1.172	1171.8	incongruent	Block1	incongruent/STIM_026.jpg	100
538.093	0.846	846.1	incongruent	Block1	incongruent/STIM_026.jpg	99
541.12	0.866	865.8	incongruent	Block1	incongruent/STIM_026.jpg	100
545.276	0.698	697.6	incongruent	Block1	incongruent/STIM_026.jpg	100
548.013	1.2	1199.5	incongruent	Block1	incongruent/STIM_027.jpg	100
552.364	0.956	955.6	incongruent	Block1	incongruent/STIM_027.jpg	99
556.24	1.084	1083.5	incongruent	Block1	incongruent/STIM_027.jpg	100
560.442	0.963	963.4	incongruent	Block1	incongruent/STIM_027.jpg	99
565.237	1.013	1013.1	incongruent	Block1	incongruent/STIM_027.jpg	99
568.841	1.422	1422.3	incongruent	Block1	incongruent/STIM_028.jpg	100
572.412	0.67	669.5	incongruent	Block1	incongruent/STIM_028.jpg	99
577.058	0.906	906.1	incongruent	Block1	incongruent/STIM_028.jpg	100
580.854	1.043	1042.7	incongruent	Block1	incongruent/STIM_028.jpg	99
584.533	0.89	890.4	incongruent	Block1	incongruent/STIM_028.jpg	99
588.217	1.158	1157.5	incongruent	Block1	incongruent/STIM_029.jpg	99
592.52	1.134	1134.0	incongruent	Block1	incongruent/STIM_029.jpg	99
596.372	0.946	945.8	incongruent	Block1	incongruent/STIM_029.jpg	99
599.945	1.055	1055.3	incongruent	Block1	incongruent/STIM_029.jpg	100
604.792	0.582	582.4	incongruent	Block1	incongruent/STIM_029.jpg	99
607.471	0.776	776.5	congruent	Block1	congruent/STIM_000.jpg	99
610.686	0.802	801.7	congruent	Block1	congruent/STIM_000.jpg	99
613.99	0.799	798.8	congruent	Block1	congruent/STIM_000.jpg	100
618.483	0.733	733.0	congruent	Block1	congruent/STIM_000.jpg	100
621.325	0.562	561.8	congruent	Block1	congruent/STIM_000.jpg	99
624.826	0.721	720.7	congruent	Block1	congruent/STIM_001.jpg	99
627.978	0.587	587.4	congruent	Block1	congruent/STIM_001.jpg	99
632.185	0.615	615.1	congruent	Block1	congruent/STIM_001.jpg	100
635.262	0.663	662.9	congruent	Block1	congruent/STIM_001.jpg	99
638.415	0.682	681.6	congruent	Block1	congruent/STIM_001.jpg	99
641.285	0.865	865.1	congruent	Block1	congruent/STIM_002.jpg	100
645.563	0.643	642.9	congruent	Block1	congruent/STIM_002.jpg	100
648.497	0.827	827.1	congruent	Block1	congruent/STIM_002.jpg	100
651.794	0.816	816.4	congruent	Block1	congruent/STIM_002.jpg	99
656.289	0.834	834.5	congruent	Block1	congruent/STIM_002.jpg	100
659.64	0.556	556.5	congruent	Block1	congruent/STIM_003.jpg	99
662.992	0.582	582.3	congruent	Block1	congruent/STIM_003.jpg	100
666.477	0.568	568.1	congruent	Block1	congruent/STIM_003.jpg	99
669.621	0.538	537.5	congruent	Block1	congruent/STIM_003.jpg	100
673.009	0.557	556.7	congruent	Block1	congruent/STIM_003.jpg	100
677.188	0.81	809.7	congruent	Block1	congruent/STIM_004.jpg	99
681.597	0.8	799.5	congruent	Block1	congruent/STIM_004.jpg	99
685.258	0.612	611.7	congruent	Block1	congruent/STIM_004.jpg	99
688.756	0.842	842.4	congruent	Block1	congruent/STIM_004.jpg	100
692.637	0.764	764.2	congruent	Block1	congruent/STIM_004.jpg	99
697.139	0.544	543.5	congruent	Block1	congruent/STIM_005.jpg	100
700.445	0.609	608.7	congruent	Block1	congruent/STIM_005.jpg	99
704.704	0.813	813.0	congruent	Block1	congruent/STIM_005.jpg	99
708.122	0.551	550.6	congruent	Block1	congruent/STIM_005.jpg	99
711.376	0.664	664.2	congruent	Block1	congruent/STIM_005.jpg	100
714.308	0.599	598.6	congruent	Block1	congruent/STIM_006.jpg	99
718.321	0.837	837.1	congruent	Block1	congruent/STIM_006.jpg	100
722.53	0.627	626.6	congruent	Block1	congruent/STIM_006.jpg	99
726.77	0.542	542.3	congruent	Block1	congruent/STIM_006.jpg	100
730.613	0.63	630.5	congruent	Block1	congruent/STIM_006.jpg	100
734.84	0.793	793.3	congruent	Block1	congruent/STIM_007.jpg	100
739.084	0.75	750.4	congruent	Block1	congruent/STIM_007.jpg	99
743.594	0.774	773.5	congruent	Block1	congruent/STIM_007.jpg	99
747.495	0.733	733.0	congruent	Block1	congruent/STIM_007.jpg	99
750.576	0.543	543.1	congruent	Block1	congruent/STIM_007.jpg	100
753.472	0.529	529.2	congruent	Block1	congruent/STIM_008.jpg	99
757.274	0.507	506.9	congruent	Block1	congruent/STIM_008.jpg	100
761.004	0.672	672.3	congruent	Block1	congruent/STIM_008.jpg	99
763.965	0.614	613.9	congruent	Block1	congruent/STIM_008.jpg	100
767.665	0.556	555.8	congruent	Block1	congruent/STIM_008.jpg	100
771.748	0.709	708.6	congruent	Block1	congruent/STIM_009.jpg	99
776.247	0.583	582.9	congruent	Block1	congruent/STIM_009.jpg	100
780.026	0.806	805.5	congruent	Block1	congruent/STIM_009.jpg	99
783.546	0.578	577.8	congruent	Block1	congruent/STIM_009.jpg	99
787.588	0.516	515.6	congruent	Block1	congruent/STIM_009.jpg	99
790.738	0.747	746.8	congruent	Block1	congruent/STIM_010.jpg	99
793.853	0.752	752.4	congruent	Block1	congruent/STIM_010.jpg	99
798.105	0.726	726.0	congruent	Block1	congruent/STIM_010.jpg	99
802.515	0.609	608.8	congruent	Block1	congruent/STIM_010.jpg	99
807.079	0.845	845.1	congruent	Block1	congruent/STIM_010.jpg	100
811.096	0.798	798.5	congruent	Block1	congruent/STIM_011.jpg	100
814.749	0.509	509.5	congruent	Block1	congruent/STIM_011.jpg	100
819.26	0.839	838.7	congruent	Block1	congruent/STIM_011.jpg	99
822.62	0.598	597.9	congruent	Block1	congruent/STIM_011.jpg	99
826.705	0.753	752.9	congruent	Block1	congruent/STIM_011.jpg	99
830.339	0.78	779.8	congruent	Block1	congruent/STIM_012.jpg	100
834.705	0.737	736.6	congruent	Block1	congruent/STIM_012.jpg	99
837.989	0.631	631.1	congruent	Block1	congruent/STIM_012.jpg	100
841.607	0.836	836.0	congruent	Block1	congruent/STIM_012.jpg	99
846.445	0.78	780.0	congruent	Block1	congruent/STIM_012.jpg	100
849.558	0.847	847.2	congruent	Block1	congruent/STIM_013.jpg	99
853.868	0.752	751.6	congruent	Block1	congruent/STIM_013.jpg	100
857.456	0.743	743.3	congruent	Block1	congruent/STIM_013.jpg	100
861.586	0.538	537.9	congruent	Block1	congruent/STIM_013.jpg	100
865.409	0.857	856.6	congruent	Block1	congruent/STIM_013.jpg	99
869.882	0.602	602.5	congruent	Block1	congruent/STIM_014.jpg	100
873.152	0.766	766.5	congruent	Block1	congruent/STIM_014.jpg	99
876.372	0.788	787.6	congruent	Block1	congruent/STIM_014.jpg	99
880.576	0.648	648.0	congruent	Block1	congruent/STIM_014.jpg	100
884.057	0.705	705.2	congruent	Block1	congruent/STIM_014.jpg	99
887.89	0.742	741.8	congruent	Block1	congruent/STIM_015.jpg	99
892.076	0.739	738.7	congruent	Block1	congruent/STIM_015.jpg	99
896.245	0.786	786.2	congruent	Block1	congruent/STIM_015.jpg	99
900.158	0.494	494.5	congruent	Block1	congruent/STIM_015.jpg	100
903.956	0.553	553.4	congruent	Block1	congruent/STIM_015.jpg	100
907.453	0.63	630.1	congruent	Block1	congruent/STIM_016.jpg	99
912.004	0.498	498.2	congruent	Block1	congruent/STIM_016.jpg	100
914.533	0.525	525.4	congruent	Block1	congruent/STIM_016.jpg	100
918.594	0.812	812.1	congruent	Block1	congruent/STIM_016.jpg	99
922.858	0.71	709.6	congruent	Block1	congruent/STIM_016.jpg	100
926.722	0.802	801.9	congruent	Block1	congruent/STIM_017.jpg	100
931.085	0.757	756.9	congruent	Block1	congruent/STIM_017.jpg	99
935.43	0.571	570.7	congruent	Block1	congruent/STIM_017.jpg	100
938.209	0.719	719.3	congruent	Block1	congruent/STIM_017.jpg	100
941.238	0.629	629.4	congruent	Block1	congruent/STIM_017.jpg	99
943.954	0.638	637.6	congruent	Block1	congruent/STIM_018.jpg	99
946.739	0.516	515.8	congruent	Block1	congruent/STIM_018.jpg	99
951.254	0.516	515.7	congruent	Block1	congruent/STIM_018.jpg	99
954.839	0.684	684.4	congruent	Block1	congruent/STIM_018.jpg	100
958.453	0.806	805.8	congruent	Block1	congruent/STIM_018.jpg	100
962.108	0.718	717.7	congruent	Block1	congruent/STIM_019.jpg	99
966.533	0.756	756.3	congruent	Block1	congruent/STIM_019.jpg	100
970.866	0.838	838.1	congruent	Block1	congruent/STIM_019.jpg	100
973.923	0.782	781.6	congruent	Block1	congruent/STIM_019.jpg	99
977.503	0.557	557.0	congruent	Block1	congruent/STIM_019.jpg	99
981.957	0.631	630.9	congruent	Block1	congruent/STIM_020.jpg	100
985.918	0.524	524.4	congruent	Block1	congruent/STIM_020.jpg	99
988.941	0.518	517.8	congruent	Block1	congruent/STIM_020.jpg	100
993.304	0.824	823.7	congruent	Block1	congruent/STIM_020.jpg	99
996.595	0.55	549.5	congruent	Block1	congruent/STIM_020.jpg	99
999.874	0.846	845.6	congruent	Block1	congruent/STIM_021.jpg	99
1004.509	0.795	795.4	congruent	Block1	congruent/STIM_021.jpg	100
1008.0	0.829	828.8	congruent	Block1	congruent/STIM_021.jpg	99
1011.18	0.554	553.5	congruent	Block1	congruent/STIM_021.jpg	99
1013.904	0.694	694.4	congruent	Block1	congruent/STIM_021.jpg	99
1018.224	0.524	524.2	congruent	Block1	congruent/STIM_022.jpg	100
1022.174	0.832	831.8	congruent	Block1	congruent/STIM_022.jpg	100
1025.89	0.631	630.9	congruent	Block1	congruent/STIM_022.jpg	100
1028.97	0.663	662.7	congruent	Block1	congruent/STIM_022.jpg	99
1033.297	0.744	743.7	congruent	Block1	congruent/STIM_022.jpg	100
1036.199	0.525	524.7	congruent	Block1	congruent/STIM_023.jpg	100
1039.862	0.808	808.3	congruent	Block1	congruent/STIM_023.jpg	100
1044.608	0.618	617.8	congruent	Block1	congruent/STIM_023.jpg	99
1048.508	0.749	749.4	congruent	Block1	congruent/STIM_023.jpg	99
1051.711	0.856	856.1	congruent	Block1	congruent/STIM_023.jpg	99
1054.824	0.73	730.3	congruent	Block1	congruent/STIM_024.jpg	99
1059.163	0.622	621.8	congruent	Block1	congruent/STIM_024.jpg	100
1063.789	0.568	568.2	congruent	Block1	congruent/STIM_024.jpg	99
1066.447	0.548	547.9	congruent	Block1	congruent/STIM_024.jpg	100
1069.962	0.511	511.0	congruent	Block1	congruent/STIM_024.jpg	100
1072.641	0.593	593.4	congruent	Block1	congruent/STIM_025.jpg	100
1075.622	0.565	565.1	congruent	Block1	congruent/STIM_025.jpg	100
1078.841	0.661	660.7	congruent	Block1	congruent/STIM_025.jpg	100
1082.754	0.604	604.3	congruent	Block1	congruent/STIM_025.jpg	99
1086.706	0.747	746.9	congruent	Block1	congruent/STIM_025.jpg	99
1089.558	0.55	550.0	congruent	Block1	congruent/STIM_026.jpg	100
1093.736	0.542	541.7	congruent	Block1	congruent/STIM_026.jpg	99
1097.396	0.609	608.9	congruent	Block1	congruent/STIM_026.jpg	100
1101.691	0.717	717.4	congruent	Block1	congruent/STIM_026.jpg	100
1104.819	0.865	865.1	congruent	Block1	congruent/STIM_026.jpg	100
1109.458	0.792	792.1	congruent	Block1	congruent/STIM_027.jpg	100
1112.323	0.485	484.7	congruent	Block1	congruent/STIM_027.jpg	99
1116.589	0.719	719.4	congruent	Block1	congruent/STIM_027.jpg	99
1120.995	0.7	699.6	congruent	Block1	congruent/STIM_027.jpg	99
1125.251	0.732	732.4	congruent	Block1	congruent/STIM_027.jpg	100
1129.106	0.545	545.1	congruent	Block1	congruent/STIM_028.jpg	99
1133.523	0.678	677.7	congruent	Block1	congruent/STIM_028.jpg	99
1137.678	0.594	594.2	congruent	Block1	congruent/STIM_028.jpg	99
1140.784	0.546	546.5	congruent	Block1	congruent/STIM_028.jpg	100
1144.783	0.679	678.7	congruent	Block1	congruent/STIM_028.jpg	99
1148.576	0.791	791.2	congruent	Block1	congruent/STIM_029.jpg	99
1152.3	0.627	627.3	congruent	Block1	congruent/STIM_029.jpg	100
1155.283	0.521	521.3	congruent	Block1	congruent/STIM_029.jpg	99
1158.181	0.658	658.5	congruent	Block1	congruent/STIM_029.jpg	99
1161.116	0.701	700.9	congruent	Block1	congruent/STIM_029.jpg	99
1164.69	0.681	680.6	incongruent	Block2	incongruent/STIM_000.jpg	100
1168.93	1.057	1057.2	incongruent	Block2	incongruent/STIM_000.jpg	99
1172.125	1.053	1052.9	incongruent	Block2	incongruent/STIM_000.jpg	100
1176.624	0.807	807.1	incongruent	Block2	incongruent/STIM_000.jpg	100
1180.075	0.998	997.7	incongruent	Block2	incongruent/STIM_000.jpg	99
1183.358	0.618	617.8	incongruent	Block2	incongruent/STIM_001.jpg	100
1186.886	0.729	729.3	incongruent	Block2	incongruent/STIM_001.jpg	99
1191.104	0.544	544.4	incongruent	Block2	incongruent/STIM_001.jpg	99
1194.743	0.561	560.7	incongruent	Block2	incongruent/STIM_001.jpg	100
1198.288	0.612	611.5	incongruent	Block2	incongruent/STIM_001.jpg	99
1202.107	0.733	733.0	incongruent	Block2	incongruent/STIM_002.jpg	99
1206.625	0.809	809.0	incongruent	Block2	incongruent/STIM_002.jpg	99
1211.259	0.699	698.9	incongruent	Block2	incongruent/STIM_002.jpg	99
1215.58	0.705	704.9	incongruent	Block2	incongruent/STIM_002.jpg	100
1219.813	0.498	498.1	incongruent	Block2	incongruent/STIM_002.jpg	100
1224.096	1.018	1018.3	incongruent	Block2	incongruent/STIM_003.jpg	99
1228.803	0.724	724.4	incongruent	Block2	incongruent/STIM_003.jpg	100
1231.583	0.597	596.7	incongruent	Block2	incongruent/STIM_003.jpg	100
1234.226	0.904	904.4	incongruent	Block2	incongruent/STIM_003.jpg	99
1237.617	0.843	842.9	incongruent	Block2	incongruent/STIM_003.jpg	100
1241.717	1.183	1183.4	incongruent	Block2	incongruent/STIM_004.jpg	99
1245.666	0.973	972.8	incongruent	Block2	incongruent/STIM_004.jpg	99
1250.134	0.668	667.7	incongruent	Block2	incongruent/STIM_004.jpg	99
1254.607	0.898	897.8	incongruent	Block2	incongruent/STIM_004.jpg	99
1257.79	0.625	624.9	incongruent	Block2	incongruent/STIM_004.jpg	99
1260.803	0.721	721.0	incongruent	Block2	incongruent/STIM_005.jpg	99
1263.871	0.794	794.4	incongruent	Block2	incongruent/STIM_005.jpg	99
1267.839	0.942	941.5	incongruent	Block2	incongruent/STIM_005.jpg	99
1272.315	0.978	977.6	incongruent	Block2	incongruent/STIM_005.jpg	100
1276.412	0.523	522.6	incongruent	Block2	incongruent/STIM_005.jpg	99
1279.941	1.064	1063.8	incongruent	Block2	incongruent/STIM_006.jpg	100
1284.993	1.109	1109.2	incongruent	Block2	incongruent/STIM_006.jpg	100
1288.851	0.741	740.7	incongruent	Block2	incongruent/STIM_006.jpg	99
1293.281	0.83	829.5	incongruent	Block2	incongruent/STIM_006.jpg	100
1297.767	0.648	647.6	incongruent	Block2	incongruent/STIM_006.jpg	100
1301.216	1.196	1195.9	incongruent	Block2	incongruent/STIM_007.jpg	99
1305.295	0.866	866.5	incongruent	Block2	incongruent/STIM_007.jpg	99
1308.982	0.832	831.6	incongruent	Block2	incongruent/STIM_007.jpg	99
1313.087	0.737	736.6	incongruent	Block2	incongruent/STIM_007.jpg	99
1316.457	0.637	637.2	incongruent	Block2	incongruent/STIM_007.jpg	100
1319.56	0.772	771.5	incongruent	Block2	incongruent/STIM_008.jpg	100
1323.759	0.886	885.8	incongruent	Block2	incongruent/STIM_008.jpg	100
1327.5	0.622	621.9	incongruent	Block2	incongruent/STIM_008.jpg	99
1331.274	0.66	659.9	incongruent	Block2	incongruent/STIM_008.jpg	99
1334.776	0.739	738.8	incongruent	Block2	incongruent/STIM_008.jpg	99
1338.243	1.225	1224.7	incongruent	Block2	incongruent/STIM_009.jpg	99
1341.669	0.823	823.3	incongruent	Block2	incongruent/STIM_009.jpg	100
1345.017	0.826	826.2	incongruent	Block2	incongruent/STIM_009.jpg	99
1348.861	0.978	978.2	incongruent	Block2	incongruent/STIM_009.jpg	99
1353.712	0.689	689.1	incongruent	Block2	incongruent/STIM_009.jpg	99
1357.146	0.841	840.8	incongruent	Block2	incongruent/STIM_010.jpg	99
1361.63	0.944	944.1	incongruent	Block2	incongruent/STIM_010.jpg	100
1364.993	0.716	715.8	incongruent	Block2	incongruent/STIM_010.jpg	100
1369.235	0.802	802.5	incongruent	Block2	incongruent/STIM_010.jpg	99
1372.303	0.724	724.4	incongruent	Block2	incongruent/STIM_010.jpg	100
1376.257	0.965	965.0	incongruent	Block2	incongruent/STIM_011.jpg	99
1380.592	1.12	1119.8	incongruent	Block2	incongruent/STIM_011.jpg	100
1384.159	1.07	1070.3	incongruent	Block2	incongruent/STIM_011.jpg	100
1388.131	0.954	953.7	incongruent	Block2	incongruent/STIM_011.jpg	99
1392.267	1.007	1006.9	incongruent	Block2	incongruent/STIM_011.jpg	99
1395.472	1.08	1079.8	incongruent	Block2	incongruent/STIM_012.jpg	99
1400.296	1.149	1148.9	incongruent	Block2	incongruent/STIM_012.jpg	100
1405.075	0.585	585.2	incongruent	Block2	incongruent/STIM_012.jpg	100
1409.109	0.741	741.4	incongruent	Block2	incongruent/STIM_012.jpg	100
1412.174	0.918	918.2	incongruent	Block2	incongruent/STIM_012.jpg	99
1415.991	0.579	578.8	incongruent	Block2	incongruent/STIM_013.jpg	100
1418.596	1.095	1095.2	incongruent	Block2	incongruent/STIM_013.jpg	99
1422.004	0.978	978.1	incongruent	Block2	incongruent/STIM_013.jpg	100
1425.19	0.679	679.2	incongruent	Block2	incongruent/STIM_013.jpg	99
1428.347	0.67	669.6	incongruent	Block2	incongruent/STIM_013.jpg	99
1431.382	0.849	848.6	incongruent	Block2	incongruent/STIM_014.jpg	100
1435.912	0.727	727.2	incongruent	Block2	incongruent/STIM_014.jpg	100
1440.592	1.059	1058.6	incongruent	Block2	incongruent/STIM_014.jpg	99
1444.539	0.523	523.2	incongruent	Block2	incongruent/STIM_014.jpg	100
1447.189	0.622	622.1	incongruent	Block2	incongruent/STIM_014.jpg	99
1450.227	0.709	709.2	incongruent	Block2	incongruent/STIM_015.jpg	100
1453.068	0.827	826.6	incongruent	Block2	incongruent/STIM_015.jpg	99
1457.347	0.878	878.3	incongruent	Block2	incongruent/STIM_015.jpg	100
1460.576	0.587	587.0	incongruent	Block2	incongruent/STIM_015.jpg	99
1464.363	0.803	802.7	incongruent	Block2	incongruent/STIM_015.jpg	100
1467.64	0.729	728.7	incongruent	Block2	incongruent/STIM_016.jpg	100
1470.504	0.993	993.0	incongruent	Block2	incongruent/STIM_016.jpg	99
1474.816	1.027	1027.3	incongruent	Block2	incongruent/STIM_016.jpg	99
1479.584	0.906	905.7	incongruent	Block2	incongruent/STIM_016.jpg	100
1484.385	0.61	610.4	incongruent	Block2	incongruent/STIM_016.jpg	99
1488.093	0.7	699.9	incongruent	Block2	incongruent/STIM_017.jpg	100
1491.09	0.882	882.1	incongruent	Block2	incongruent/STIM_017.jpg	100
1494.12	0.914	913.9	incongruent	Block2	incongruent/STIM_017.jpg	100
1497.844	0.917	916.9	incongruent	Block2	incongruent/STIM_017.jpg	100
1502.725	0.746	745.8	incongruent	Block2	incongruent/STIM_017.jpg	99
1507.034	0.633	632.6	incongruent	Block2	incongruent/STIM_018.jpg	99
1510.976	0.743	742.8	incongruent	Block2	incongruent/STIM_018.jpg	100
1514.161	0.924	924.1	incongruent	Block2	incongruent/STIM_018.jpg	100
1517.784	0.761	760.8	incongruent	Block2	incongruent/STIM_018.jpg	99
1522.491	0.648	647.6	incongruent	Block2	incongruent/STIM_018.jpg	100
1526.089	1.224	1223.5	incongruent	Block2	incongruent/STIM_019.jpg	100
1530.821	0.879	878.6	incongruent	Block2	incongruent/STIM_019.jpg	99
1534.507	0.666	666.4	incongruent	Block2	incongruent/STIM_019.jpg	100
1538.784	0.592	591.6	incongruent	Block2	incongruent/STIM_019.jpg	100
1542.06	0.581	581.0	incongruent	Block2	incongruent/STIM_019.jpg	99
1545.512	0.595	595.3	incongruent	Block2	incongruent/STIM_020.jpg	100
1548.288	0.793	793.1	incongruent	Block2	incongruent/STIM_020.jpg	100
1551.261	0.699	698.6	incongruent	Block2	incongruent/STIM_020.jpg	99
1554.953	0.776	775.8	incongruent	Block2	incongruent/STIM_020.jpg	99
1559.623	0.963	963.2	incongruent	Block2	incongruent/STIM_020.jpg	99
1562.933	0.891	890.7	incongruent	Block2	incongruent/STIM_021.jpg	99
1567.216	1.087	1087.0	incongruent	Block2	incongruent/STIM_021.jpg	99
1572.041	0.744	744.4	incongruent	Block2	incongruent/STIM_021.jpg	100
1575.76	0.524	524.0	incongruent	Block2	incongruent/STIM_021.jpg	99
1579.036	0.943	943.2	incongruent	Block2	incongruent/STIM_021.jpg	99
1582.417	0.608	607.6	incongruent	Block2	incongruent/STIM_022.jpg	100
1586.77	1.13	1129.9	incongruent	Block2	incongruent/STIM_022.jpg	99
1590.267	0.761	760.6	incongruent	Block2	incongruent/STIM_022.jpg	100
1594.542	0.523	522.9	incongruent	Block2	incongruent/STIM_022.jpg	100
1597.576	0.663	663.2	incongruent	Block2	incongruent/STIM_022.jpg	100
1601.907	0.854	854.2	incongruent	Block2	incongruent/STIM_023.jpg	100
1606.546	0.645	644.9	incongruent	Block2	incongruent/STIM_023.jpg	100
1609.827	0.915	915.1	incongruent	Block2	incongruent/STIM_023.jpg	100
1613.545	0.756	755.8	incongruent	Block2	incongruent/STIM_023.jpg	100
1616.561	0.998	997.6	incongruent	Block2	incongruent/STIM_023.jpg	100
1620.536	1.032	1031.7	incongruent	Block2	incongruent/STIM_024.jpg	100
1625.484	0.555	554.8	incongruent	Block2	incongruent/STIM_024.jpg	99
1629.213	0.925	924.8	incongruent	Block2	incongruent/STIM_024.jpg	100
1632.365	0.675	674.8	incongruent	Block2	incongruent/STIM_024.jpg	99
1635.251	0.673	673.0	incongruent	Block2	incongruent/STIM_024.jpg	99
1639.424	0.805	805.2	incongruent	Block2	incongruent/STIM_025.jpg	100
1643.817	0.876	875.7	incongruent	Block2	incongruent/STIM_025.jpg	99
1646.764	0.702	701.8	incongruent	Block2	incongruent/STIM_025.jpg	100
1649.844	0.943	943.4	incongruent	Block2	incongruent/STIM_025.jpg	100
1654.166	0.806	806.0	incongruent	Block2	incongruent/STIM_025.jpg	100
1658.498	0.795	795.3	incongruent	Block2	incongruent/STIM_026.jpg	100
1661.949	0.543	543.4	incongruent	Block2	incongruent/STIM_026.jpg	99
1665.198	1.044	1043.5	incongruent	Block2	incongruent/STIM_026.jpg	99
1669.909	0.793	793.2	incongruent	Block2	incongruent/STIM_026.jpg	100
1673.086	0.559	559.0	incongruent	Block2	incongruent/STIM_026.jpg	100
1677.192	1.048	1047.9	incongruent	Block2	incongruent/STIM_027.jpg	99
1681.9	0.569	568.7	incongruent	Block2	incongruent/STIM_027.jpg	99
1685.363	1.064	1064.1	incongruent	Block2	incongruent/STIM_027.jpg	99
1689.756	0.554	553.6	incongruent	Block2	incongruent/STIM_027.jpg	100
1692.359	0.498	498.3	incongruent	Block2	incongruent/STIM_027.jpg	100
1695.957	1.076	1075.7	incongruent	Block2	incongruent/STIM_028.jpg	99
1699.666	0.559	559.3	incongruent	Block2	incongruent/STIM_028.jpg	100
1703.852	0.758	757.7	incongruent	Block2	incongruent/STIM_028.jpg	100
1708.327	0.79	789.7	incongruent	Block2	incongruent/STIM_028.jpg	100
1712.192	0.607	607.3	incongruent	Block2	incongruent/STIM_028.jpg	99
1715.002	0.745	744.8	incongruent	Block2	incongruent/STIM_029.jpg	100
1719.18	0.815	814.6	incongruent	Block2	incongruent/STIM_029.jpg	100
1723.857	0.897	897.3	incongruent	Block2	incongruent/STIM_029.jpg	99
1727.645	0.917	917.3	incongruent	Block2	incongruent/STIM_029.jpg	99
1732.471	0.783	783.2	incongruent	Block2	incongruent/STIM_029.jpg	99
1735.587	0.49	490.3	congruent	Block2	congruent/STIM_000.jpg	99
1739.566	0.488	488.0	congruent	Block2	congruent/STIM_000.jpg	99
1742.587	0.544	544.3	congruent	Block2	congruent/STIM_000.jpg	100
1746.188	0.544	544.5	congruent	Block2	congruent/STIM_000.jpg	100
1749.648	0.654	654.5	congruent	Block2	congruent/STIM_000.jpg	99
1753.286	0.688	687.7	congruent	Block2	congruent/STIM_001.jpg	100
1757.326	0.583	582.6	congruent	Block2	congruent/STIM_001.jpg	100
1761.877	0.667	666.6	congruent	Block2	congruent/STIM_001.jpg	99
1765.014	0.86	859.6	congruent	Block2	congruent/STIM_001.jpg	99
1769.346	0.687	687.3	congruent	Block2	congruent/STIM_001.jpg	99
1772.152	0.813	813.3	congruent	Block2	congruent/STIM_002.jpg	100
1776.269	0.589	589.2	congruent	Block2	congruent/STIM_002.jpg	99
1779.983	0.736	735.8	congruent	Block2	congruent/STIM_002.jpg	99
1784.499	0.764	763.9	congruent	Block2	congruent/STIM_002.jpg	99
1787.44	0.65	650.2	congruent	Block2	congruent/STIM_002.jpg	100
1791.587	0.607	606.9	congruent	Block2	congruent/STIM_003.jpg	99
1795.517	0.822	821.5	congruent	Block2	congruent/STIM_003.jpg	99
1800.358	0.615	615.2	congruent	Block2	congruent/STIM_003.jpg	99
1804.546	0.835	834.7	congruent	Block2	congruent/STIM_003.jpg	99
1809.029	0.513	512.9	congruent	Block2	congruent/STIM_003.jpg	99
1811.883	0.567	566.9	congruent	Block2	congruent/STIM_004.jpg	99
1815.422	0.854	854.5	congruent	Block2	congruent/STIM_004.jpg	99
1819.875	0.635	635.0	congruent	Block2	congruent/STIM_004.jpg	100
1823.778	0.8	800.1	congruent	Block2	congruent/STIM_004.jpg	99
1827.303	0.564	564.4	congruent	Block2	congruent/STIM_004.jpg	100
1831.219	0.556	555.5	congruent	Block2	congruent/STIM_005.jpg	99
1834.791	0.51	510.2	congruent	Block2	congruent/STIM_005.jpg	100
1838.37	0.723	723.4	congruent	Block2	congruent/STIM_005.jpg	99
1842.468	0.596	595.7	congruent	Block2	congruent/STIM_005.jpg	100
1845.959	0.563	563.2	congruent	Block2	congruent/STIM_005.jpg	99
1849.424	0.713	713.1	congruent	Block2	congruent/STIM_006.jpg	99
1852.402	0.623	622.7	congruent	Block2	congruent/STIM_006.jpg	100
1856.262	0.555	554.7	congruent	Block2	congruent/STIM_006.jpg	99
1859.18	0.74	739.7	congruent	Block2	congruent/STIM_006.jpg	99
1863.382	0.713	713.1	congruent	Block2	congruent/STIM_006.jpg	99
1867.962	0.583	582.8	congruent	Block2	congruent/STIM_007.jpg	100
1871.692	0.739	738.7	congruent	Block2	congruent/STIM_007.jpg	99
1875.04	0.575	575.3	congruent	Block2	congruent/STIM_007.jpg	99
1879.156	0.632	631.5	congruent	Block2	congruent/STIM_007.jpg	100
1882.327	0.522	522.2	congruent	Block2	congruent/STIM_007.jpg	99
1886.15	0.75	750.5	congruent	Block2	congruent/STIM_008.jpg	100
1889.208	0.678	677.7	congruent	Block2	congruent/STIM_008.jpg	100
1893.269	0.842	842.2	congruent	Block2	congruent/STIM_008.jpg	100
1897.035	0.686	686.5	congruent	Block2	congruent/STIM_008.jpg	99
1900.438	0.519	518.6	congruent	Block2	congruent/STIM_008.jpg	100
1904.303	0.739	738.7	congruent	Block2	congruent/STIM_009.jpg	99
1908.99	0.528	528.1	congruent	Block2	congruent/STIM_009.jpg	100
1912.515	0.67	669.6	congruent	Block2	congruent/STIM_009.jpg	99
1917.12	0.682	681.5	congruent	Block2	congruent/STIM_009.jpg	100
1919.975	0.858	858.4	congruent	Block2	congruent/STIM_009.jpg	99
1923.165	0.627	627.2	congruent	Block2	congruent/STIM_010.jpg	100
1926.553	0.6	599.5	congruent	Block2	congruent/STIM_010.jpg	100
1929.803	0.64	639.8	congruent	Block2	congruent/STIM_010.jpg	99
1933.576	0.569	568.8	congruent	Block2	congruent/STIM_010.jpg	99
1938.112	0.695	694.8	congruent	Block2	congruent/STIM_010.jpg	100
1942.082	0.536	536.2	congruent	Block2	congruent/STIM_011.jpg	99
1946.108	0.828	828.1	congruent	Block2	congruent/STIM_011.jpg	100
1949.403	0.671	670.6	congruent	Block2	congruent/STIM_011.jpg	100
1953.947	0.586	585.7	congruent	Block2	congruent/STIM_011.jpg	99
1957.435	0.684	684.4	congruent	Block2	congruent/STIM_011.jpg	100
1961.454	0.749	749.2	congruent	Block2	congruent/STIM_012.jpg	99
1965.379	0.597	597.0	congruent	Block2	congruent/STIM_012.jpg	99
1969.907	0.67	669.9	congruent	Block2	congruent/STIM_012.jpg	99
1973.251	0.658	658.0	congruent	Block2	congruent/STIM_012.jpg	100
1976.553	0.627	627.2	congruent	Block2	congruent/STIM_012.jpg	99
1979.626	0.749	749.1	congruent	Block2	congruent/STIM_013.jpg	100
1983.123	0.577	576.9	congruent	Block2	congruent/STIM_013.jpg	99
1986.187	0.528	528.5	congruent	Block2	congruent/STIM_013.jpg	99
1990.537	0.634	634.4	congruent	Block2	congruent/STIM_013.jpg	100
1995.072	0.573	573.0	congruent	Block2	congruent/STIM_013.jpg	99
1998.899	0.784	784.4	congruent	Block2	congruent/STIM_014.jpg	99
2003.392	0.816	816.4	congruent	Block2	congruent/STIM_014.jpg	100
2007.792	0.484	484.2	congruent	Block2	congruent/STIM_014.jpg	99
2011.407	0.826	826.2	congruent	Block2	congruent/STIM_014.jpg	100
2014.822	0.65	650.0	congruent	Block2	congruent/STIM_014.jpg	99
2018.347	0.722	722.5	congruent	Block2	congruent/STIM_015.jpg	99
2022.311	0.536	536.5	congruent	Block2	congruent/STIM_015.jpg	99
2026.774	0.488	488.1	congruent	Block2	congruent/STIM_015.jpg	99
2029.609	0.83	830.4	congruent	Block2	congruent/STIM_015.jpg	99
2034.01	0.666	665.8	congruent	Block2	congruent/STIM_015.jpg	100
2037.796	0.515	515.1	congruent	Block2	congruent/STIM_016.jpg	100
2042.137	0.844	844.1	congruent	Block2	congruent/STIM_016.jpg	99
2045.917	0.66	659.5	congruent	Block2	congruent/STIM_016.jpg	99
2049.186	0.594	594.0	congruent	Block2	congruent/STIM_016.jpg	99
2051.809	0.869	869.1	congruent	Block2	congruent/STIM_016.jpg	99
2056.287	0.863	862.7	congruent	Block2	congruent/STIM_017.jpg	100
2060.121	0.842	841.6	congruent	Block2	congruent/STIM_017.jpg	100
2063.372	0.625	625.1	congruent	Block2	congruent/STIM_017.jpg	99
2067.663	0.849	848.6	congruent	Block2	congruent/STIM_017.jpg	100
2072.193	0.729	729.4	congruent	Block2	congruent/STIM_017.jpg	99
2076.224	0.568	568.4	congruent	Block2	congruent/STIM_018.jpg	100
2079.718	0.49	490.1	congruent	Block2	congruent/STIM_018.jpg	99
2083.702	0.675	674.9	congruent	Block2	congruent/STIM_018.jpg	100
2086.976	0.801	801.1	congruent	Block2	congruent/STIM_018.jpg	99
2090.184	0.598	597.7	congruent	Block2	congruent/STIM_018.jpg	99
2094.493	0.744	743.6	congruent	Block2	congruent/STIM_019.jpg	99
2098.909	0.776	775.8	congruent	Block2	congruent/STIM_019.jpg	100
2103.161	0.639	638.9	congruent	Block2	congruent/STIM_019.jpg	99
2106.533	0.692	691.5	congruent	Block2	congruent/STIM_019.jpg	100
2110.148	0.716	715.6	congruent	Block2	congruent/STIM_019.jpg	99
2113.481	0.731	730.9	congruent	Block2	congruent/STIM_020.jpg	99
2117.39	0.807	806.8	congruent	Block2	congruent/STIM_020.jpg	99
2120.685	0.567	566.9	congruent	Block2	congruent/STIM_020.jpg	99
2123.645	0.831	831.4	congruent	Block2	congruent/STIM_020.jpg	99
2126.58	0.675	674.7	congruent	Block2	congruent/STIM_020.jpg	100
2130.469	0.689	688.6	congruent	Block2	congruent/STIM_021.jpg	99
2134.197	0.798	798.3	congruent	Block2	congruent/STIM_021.jpg	100
2138.081	0.654	653.9	congruent	Block2	congruent/STIM_021.jpg	99
2141.155	0.745	745.2	congruent	Block2	congruent/STIM_021.jpg	99
2145.834	0.494	494.1	congruent	Block2	congruent/STIM_021.jpg	100
2148.921	0.796	796.0	congruent	Block2	congruent/STIM_022.jpg	100
2152.194	0.581	580.9	congruent	Block2	congruent/STIM_022.jpg	99
2155.926	0.66	660.0	congruent	Block2	congruent/STIM_022.jpg	100
2159.784	0.558	558.5	congruent	Block2	congruent/STIM_022.jpg	99
2163.177	0.514	513.7	congruent	Block2	congruent/STIM_022.jpg	99
2166.4	0.757	757.2	congruent	Block2	congruent/STIM_023.jpg	99
2169.568	0.612	612.5	congruent	Block2	congruent/STIM_023.jpg	99
2172.984	0.506	506.4	congruent	Block2	congruent/STIM_023.jpg	99
2177.262	0.746	745.8	congruent	Block2	congruent/STIM_023.jpg	99
2180.351	0.591	590.9	congruent	Block2	congruent/STIM_023.jpg	100
2183.869	0.787	787.2	congruent	Block2	congruent/STIM_024.jpg	99
2188.302	0.658	658.1	congruent	Block2	congruent/STIM_024.jpg	99
2191.315	0.573	572.6	congruent	Block2	congruent/STIM_024.jpg	100
2194.729	0.502	502.2	congruent	Block2	congruent/STIM_024.jpg	99
2199.126	0.845	845.2	congruent	Block2	congruent/STIM_024.jpg	100
2202.939	0.788	787.7	congruent	Block2	congruent/STIM_025.jpg	100
2207.442	0.806	806.1	congruent	Block2	congruent/STIM_025.jpg	100
2210.302	0.764	764.2	congruent	Block2	congruent/STIM_025.jpg	99
2213.977	0.536	535.5	congruent	Block2	congruent/STIM_025.jpg	99
2217.65	0.653	653.0	congruent	Block2	congruent/STIM_025.jpg	100
2220.662	0.532	532.4	congruent	Block2	congruent/STIM_026.jpg	99
2224.23	0.581	580.8	congruent	Block2	congruent/STIM_026.jpg	100
2227.562	0.83	830.1	congruent	Block2	congruent/STIM_026.jpg	100
2231.101	0.632	632.1	congruent	Block2	congruent/STIM_026.jpg	100
2234.237	0.781	781.2	congruent	Block2	congruent/STIM_026.jpg	100
2238.093	0.75	749.9	congruent	Block2	congruent/STIM_027.jpg	99
2241.382	0.68	680.1	congruent	Block2	congruent/STIM_027.jpg	99
2245.354	0.67	670.1	congruent	Block2	congruent/STIM_027.jpg	100
2249.29	0.499	499.2	congruent	Block2	congruent/STIM_027.jpg	100
2253.041	0.75	750.0	congruent	Block2	congruent/STIM_027.jpg	100
2256.916	0.602	602.0	congruent	Block2	congruent/STIM_028.jpg	100
2261.255	0.69	690.1	congruent	Block2	congruent/STIM_028.jpg	99
2265.276	0.786	785.9	congruent	Block2	congruent/STIM_028.jpg	99
2269.768	0.647	646.7	congruent	Block2	congruent/STIM_028.jpg	100
2273.639	0.65	649.8	congruent	Block2	congruent/STIM_028.jpg	100
2278.089	0.86	859.7	congruent	Block2	congruent/STIM_029.jpg	99
2281.682	0.545	545.0	congruent	Block2	congruent/STIM_029.jpg	100
2285.88	0.864	864.0	congruent	Block2	congruent/STIM_029.jpg	100
2290.134	0.828	828.2	congruent	Block2	congruent/STIM_029.jpg	100
2293.671	0.699	699.1	congruent	Block2	congruent/STIM_029.jpg	100
2297.909	0.766	765.8	incongruent	Block3	incongruent/STIM_000.jpg	99
2301.91	0.567	566.9	incongruent	Block3	incongruent/STIM_000.jpg	100
2305.474	0.539	538.6	incongruent	Block3	incongruent/STIM_000.jpg	99
2308.519	0.937	936.8	incongruent	Block3	incongruent/STIM_000.jpg	100
2311.879	0.629	628.8	incongruent	Block3	incongruent/STIM_000.jpg	99
2315.288	0.664	663.5	incongruent	Block3	incongruent/STIM_001.jpg	99
2318.927	0.482	481.5	incongruent	Block3	incongruent/STIM_001.jpg	99
2321.79	0.878	878.0	incongruent	Block3	incongruent/STIM_001.jpg	99
2324.704	0.623	623.1	incongruent	Block3	incongruent/STIM_001.jpg	99
2328.593	0.627	626.9	incongruent	Block3	incongruent/STIM_001.jpg	99
2332.384	0.922	921.6	incongruent	Block3	incongruent/STIM_002.jpg	99
2336.759	0.7	699.5	incongruent	Block3	incongruent/STIM_002.jpg	100
2339.777	0.977	977.4	incongruent	Block3	incongruent/STIM_002.jpg	100
2343.075	0.976	975.8	incongruent	Block3	incongruent/STIM_002.jpg	99
2347.675	0.53	530.1	incongruent	Block3	incongruent/STIM_002.jpg	99
2351.836	0.716	715.7	incongruent	Block3	incongruent/STIM_003.jpg	99
2355.071	0.778	777.5	incongruent	Block3	incongruent/STIM_003.jpg	100
2358.742	0.547	546.7	incongruent	Block3	incongruent/STIM_003.jpg	99
2362.445	0.912	911.8	incongruent	Block3	incongruent/STIM_003.jpg	100
2365.442	0.952	951.5	incongruent	Block3	incongruent/STIM_003.jpg	100
2368.673	0.616	615.6	incongruent	Block3	incongruent/STIM_004.jpg	99
2371.496	0.671	671.0	incongruent	Block3	incongruent/STIM_004.jpg	100
2374.694	0.512	512.2	incongruent	Block3	incongruent/STIM_004.jpg	100
2378.535	0.955	954.7	incongruent	Block3	incongruent/STIM_004.jpg	100
2381.718	0.661	661.1	incongruent	Block3	incongruent/STIM_004.jpg	100
2384.726	0.802	802.2	incongruent	Block3	incongruent/STIM_005.jpg	100
2388.776	0.533	533.0	incongruent	Block3	incongruent/STIM_005.jpg	100
2391.382	1.008	1007.9	incongruent	Block3	incongruent/STIM_005.jpg	99
2396.199	0.547	547.2	incongruent	Block3	incongruent/STIM_005.jpg	99
2399.971	0.942	942.3	incongruent	Block3	incongruent/STIM_005.jpg	99
2403.378	0.877	877.1	incongruent	Block3	incongruent/STIM_006.jpg	99
2407.545	0.604	604.3	incongruent	Block3	incongruent/STIM_006.jpg	100
2412.015	0.592	592.0	incongruent	Block3	incongruent/STIM_006.jpg	99
2415.083	0.646	646.1	incongruent	Block3	incongruent/STIM_006.jpg	99
2419.369	0.686	685.6	incongruent	Block3	incongruent/STIM_006.jpg	100
2423.381	1.011	1011.0	incongruent	Block3	incongruent/STIM_007.jpg	100
2427.987	0.758	758.2	incongruent	Block3	incongruent/STIM_007.jpg	100
2431.113	0.959	959.4	incongruent	Block3	incongruent/STIM_007.jpg	99
2435.804	0.668	667.7	incongruent	Block3	incongruent/STIM_007.jpg	99
2439.71	0.602	602.1	incongruent	Block3	incongruent/STIM_007.jpg	99
2442.823	0.721	720.7	incongruent	Block3	incongruent/STIM_008.jpg	99
2446.599	0.957	957.0	incongruent	Block3	incongruent/STIM_008.jpg	99
2449.815	0.739	738.6	incongruent	Block3	incongruent/STIM_008.jpg	100
2454.23	0.619	619.2	incongruent	Block3	incongruent/STIM_008.jpg	100
2457.297	0.499	499.1	incongruent	Block3	incongruent/STIM_008.jpg	99
2459.885	0.745	744.6	incongruent	Block3	incongruent/STIM_009.jpg	100
2463.684	0.978	977.9	incongruent	Block3	incongruent/STIM_009.jpg	100
2468.646	0.542	542.3	incongruent	Block3	incongruent/STIM_009.jpg	100
2472.584	0.952	952.0	incongruent	Block3	incongruent/STIM_009.jpg	99
2476.361	0.57	569.8	incongruent	Block3	incongruent/STIM_009.jpg	99
2480.584	0.485	485.4	incongruent	Block3	incongruent/STIM_010.jpg	99
2484.081	0.536	536.1	incongruent	Block3	incongruent/STIM_010.jpg	99
2486.861	0.722	722.3	incongruent	Block3	incongruent/STIM_010.jpg	100
2490.566	0.991	991.1	incongruent	Block3	incongruent/STIM_010.jpg	99
2495.533	0.502	502.1	incongruent	Block3	incongruent/STIM_010.jpg	100
2498.276	0.636	635.8	incongruent	Block3	incongruent/STIM_011.jpg	100
2502.225	0.554	553.9	incongruent	Block3	incongruent/STIM_011.jpg	99
2506.014	0.926	926.0	incongruent	Block3	incongruent/STIM_011.jpg	99
2510.684	0.607	606.8	incongruent	Block3	incongruent/STIM_011.jpg	100
2514.079	0.936	935.6	incongruent	Block3	incongruent/STIM_011.jpg	100
2518.358	0.732	732.0	incongruent	Block3	incongruent/STIM_012.jpg	99
2522.306	0.637	637.4	incongruent	Block3	incongruent/STIM_012.jpg	100
2525.009	0.759	758.7	incongruent	Block3	incongruent/STIM_012.jpg	99
2528.467	0.523	523.0	incongruent	Block3	incongruent/STIM_012.jpg	100
2531.325	0.656	656.3	incongruent	Block3	incongruent/STIM_012.jpg	99
2535.467	0.892	892.3	incongruent	Block3	incongruent/STIM_013.jpg	99
2538.465	0.48	479.9	incongruent	Block3	incongruent/STIM_013.jpg	99
2542.524	0.594	594.1	incongruent	Block3	incongruent/STIM_013.jpg	99
2545.895	0.902	902.1	incongruent	Block3	incongruent/STIM_013.jpg	99
2549.7	0.806	805.5	incongruent	Block3	incongruent/STIM_013.jpg	99
2554.266	0.704	703.9	incongruent	Block3	incongruent/STIM_014.jpg	99
2558.659	0.579	579.3	incongruent	Block3	incongruent/STIM_014.jpg	99
2562.114	0.984	984.5	incongruent	Block3	incongruent/STIM_014.jpg	100
2565.4	0.71	709.9	incongruent	Block3	incongruent/STIM_014.jpg	100
2569.709	0.814	813.8	incongruent	Block3	incongruent/STIM_014.jpg	99
2572.669	0.832	831.6	incongruent	Block3	incongruent/STIM_015.jpg	99
2576.151	0.624	624.2	incongruent	Block3	incongruent/STIM_015.jpg	100
2580.163	0.569	569.4	incongruent	Block3	incongruent/STIM_015.jpg	99
2584.445	0.613	612.6	incongruent	Block3	incongruent/STIM_015.jpg	100
2588.521	0.799	798.9	incongruent	Block3	incongruent/STIM_015.jpg	99
2592.164	0.625	624.9	incongruent	Block3	incongruent/STIM_016.jpg	100
2594.85	0.99	990.2	incongruent	Block3	incongruent/STIM_016.jpg	99
2598.219	0.799	798.8	incongruent	Block3	incongruent/STIM_016.jpg	99
2601.34	0.973	972.8	incongruent	Block3	incongruent/STIM_016.jpg	99
2605.787	0.868	868.4	incongruent	Block3	incongruent/STIM_016.jpg	99
2610.276	0.984	984.2	incongruent	Block3	incongruent/STIM_017.jpg	99
2614.846	0.858	858.0	incongruent	Block3	incongruent/STIM_017.jpg	99
2619.445	0.643	642.8	incongruent	Block3	incongruent/STIM_017.jpg	100
2623.808	0.836	836.4	incongruent	Block3	incongruent/STIM_017.jpg	99
2628.259	0.784	783.8	incongruent	Block3	incongruent/STIM_017.jpg	99
2632.077	0.849	849.1	incongruent	Block3	incongruent/STIM_018.jpg	99
2635.632	1.0	1000.4	incongruent	Block3	incongruent/STIM_018.jpg	99
2639.295	0.903	902.8	incongruent	Block3	incongruent/STIM_018.jpg	99
2644.225	0.586	586.1	incongruent	Block3	incongruent/STIM_018.jpg	99
2647.319	0.898	898.3	incongruent	Block3	incongruent/STIM_018.jpg	100
2651.756	0.988	987.9	incongruent	Block3	incongruent/STIM_019.jpg	100
2655.608	0.729	729.2	incongruent	Block3	incongruent/STIM_019.jpg	99
2660.162	0.628	627.9	incongruent	Block3	incongruent/STIM_019.jpg	100
2663.318	0.523	523.2	incongruent	Block3	incongruent/STIM_019.jpg	100
2666.846	0.843	843.0	incongruent	Block3	incongruent/STIM_019.jpg	99
2670.518	0.555	555.3	incongruent	Block3	incongruent/STIM_020.jpg	99
2674.274	0.512	512.4	incongruent	Block3	incongruent/STIM_020.jpg	100
2678.595	0.746	745.6	incongruent	Block3	incongruent/STIM_020.jpg	100
2683.024	0.849	849.0	incongruent	Block3	incongruent/STIM_020.jpg	100
2687.068	0.905	905.1	incongruent	Block3	incongruent/STIM_020.jpg	100
2690.1	0.79	790.0	incongruent	Block3	incongruent/STIM_021.jpg	99
2694.558	0.476	475.8	incongruent	Block3	incongruent/STIM_021.jpg	99
2697.697	0.964	963.6	incongruent	Block3	incongruent/STIM_021.jpg	100
2702.05	0.821	821.2	incongruent	Block3	incongruent/STIM_021.jpg	100
2706.454	0.478	478.2	incongruent	Block3	incongruent/STIM_021.jpg	99
2710.671	0.587	586.6	incongruent	Block3	incongruent/STIM_022.jpg	100
2715.033	0.789	789.3	incongruent	Block3	incongruent/STIM_022.jpg	99
2719.58	0.674	674.0	incongruent	Block3	incongruent/STIM_022.jpg	99
2723.872	0.906	905.9	incongruent	Block3	incongruent/STIM_022.jpg	99
2727.247	0.753	753.0	incongruent	Block3	incongruent/STIM_022.jpg	99
2731.608	0.646	646.3	incongruent	Block3	incongruent/STIM_023.jpg	99
2734.303	0.686	685.5	incongruent	Block3	incongruent/STIM_023.jpg	100
2738.867	1.01	1010.1	incongruent	Block3	incongruent/STIM_023.jpg	99
2743.839	0.72	720.1	incongruent	Block3	incongruent/STIM_023.jpg	99
2748.193	0.807	806.8	incongruent	Block3	incongruent/STIM_023.jpg	99
2752.25	0.684	684.1	incongruent	Block3	incongruent/STIM_024.jpg	100
2756.3	0.614	614.2	incongruent	Block3	incongruent/STIM_024.jpg	100
2759.22	0.57	570.3	incongruent	Block3	incongruent/STIM_024.jpg	99
2762.404	0.795	795.2	incongruent	Block3	incongruent/STIM_024.jpg	99
2766.746	0.793	792.8	incongruent	Block3	incongruent/STIM_024.jpg	99
2770.915	0.733	733.1	incongruent	Block3	incongruent/STIM_025.jpg	99
2774.135	0.62	619.8	incongruent	Block3	incongruent/STIM_025.jpg	100
2778.68	0.48	479.7	incongruent	Block3	incongruent/STIM_025.jpg	99
2782.25	0.984	983.8	incongruent	Block3	incongruent/STIM_025.jpg	100
2786.498	0.763	762.8	incongruent	Block3	incongruent/STIM_025.jpg	99
2789.327	0.606	606.0	incongruent	Block3	incongruent/STIM_026.jpg	100
2792.464	0.678	678.5	incongruent	Block3	incongruent/STIM_026.jpg	99
2796.092	0.942	942.0	incongruent	Block3	incongruent/STIM_026.jpg	100
2799.17	0.842	842.4	incongruent	Block3	incongruent/STIM_026.jpg	99
2802.3	0.948	948.5	incongruent	Block3	incongruent/STIM_026.jpg	100
2807.001	0.646	646.0	incongruent	Block3	incongruent/STIM_027.jpg	99
2810.331	0.762	762.5	incongruent	Block3	incongruent/STIM_027.jpg	100
2813.681	0.572	572.5	incongruent	Block3	incongruent/STIM_027.jpg	100
2817.563	0.678	678.4	incongruent	Block3	incongruent/STIM_027.jpg	100
2822.174	0.571	571.2	incongruent	Block3	incongruent/STIM_027.jpg	99
2826.306	0.911	911.2	incongruent	Block3	incongruent/STIM_028.jpg	100
2830.171	0.514	514.2	incongruent	Block3	incongruent/STIM_028.jpg	100
2832.764	0.696	695.5	incongruent	Block3	incongruent/STIM_028.jpg	99
2836.145	0.864	863.7	incongruent	Block3	incongruent/STIM_028.jpg	99
2840.322	0.596	595.7	incongruent	Block3	incongruent/STIM_028.jpg	99
2844.709	0.74	740.3	incongruent	Block3	incongruent/STIM_029.jpg	99
2847.577	0.996	996.4	incongruent	Block3	incongruent/STIM_029.jpg	100
2851.979	0.912	911.9	incongruent	Block3	incongruent/STIM_029.jpg	100
2855.218	0.497	496.7	incongruent	Block3	incongruent/STIM_029.jpg	100
2859.48	0.707	707.4	incongruent	Block3	incongruent/STIM_029.jpg	100
2862.307	0.628	628.3	congruent	Block3	congruent/STIM_000.jpg	99
2865.619	0.754	753.6	congruent	Block3	congruent/STIM_000.jpg	100
2869.85	0.677	677.1	congruent	Block3	congruent/STIM_000.jpg	99
2872.681	0.665	664.6	congruent	Block3	congruent/STIM_000.jpg	100
2875.513	0.812	811.8	congruent	Block3	congruent/STIM_000.jpg	100
2878.992	0.58	579.9	congruent	Block3	congruent/STIM_001.jpg	99
2882.02	0.517	517.2	congruent	Block3	congruent/STIM_001.jpg	99
2885.578	0.542	541.6	congruent	Block3	congruent/STIM_001.jpg	100
2888.412	0.756	756.2	congruent	Block3	congruent/STIM_001.jpg	100
2892.077	0.858	858.4	congruent	Block3	congruent/STIM_001.jpg	99
2896.113	0.842	841.9	congruent	Block3	congruent/STIM_002.jpg	100
2899.24	0.654	653.7	congruent	Block3	congruent/STIM_002.jpg	100
2903.465	0.794	794.1	congruent	Block3	congruent/STIM_002.jpg	100
2907.532	0.835	835.1	congruent	Block3	congruent/STIM_002.jpg	100
2910.891	0.572	572.4	congruent	Block3	congruent/STIM_002.jpg	99
2913.697	0.578	578.1	congruent	Block3	congruent/STIM_003.jpg	100
2917.115	0.673	673.1	congruent	Block3	congruent/STIM_003.jpg	100
2920.864	0.758	757.9	congruent	Block3	congruent/STIM_003.jpg	100
2924.535	0.566	566.1	congruent	Block3	congruent/STIM_003.jpg	100
2928.965	0.566	566.3	congruent	Block3	congruent/STIM_003.jpg	100
2932.065	0.625	624.7	congruent	Block3	congruent/STIM_004.jpg	100
2935.522	0.714	713.5	congruent	Block3	congruent/STIM_004.jpg	100
2939.664	0.761	761.0	congruent	Block3	congruent/STIM_004.jpg	99
2944.445	0.535	534.7	congruent	Block3	congruent/STIM_004.jpg	100
2947.587	0.706	705.6	congruent	Block3	congruent/STIM_004.jpg	99
2950.894	0.822	821.5	congruent	Block3	congruent/STIM_005.jpg	100
2955.152	0.513	512.9	congruent	Block3	congruent/STIM_005.jpg	100
2959.557	0.799	799.0	congruent	Block3	congruent/STIM_005.jpg	100
2962.767	0.54	540.2	congruent	Block3	congruent/STIM_005.jpg	99
2966.773	0.507	506.7	congruent	Block3	congruent/STIM_005.jpg	100
2970.45	0.5	499.8	congruent	Block3	congruent/STIM_006.jpg	99
2974.859	0.809	808.7	congruent	Block3	congruent/STIM_006.jpg	99
2977.877	0.835	835.4	congruent	Block3	congruent/STIM_006.jpg	100
2981.104	0.499	499.2	congruent	Block3	congruent/STIM_006.jpg	100
2984.545	0.841	841.3	congruent	Block3	congruent/STIM_006.jpg	99
2988.17	0.758	757.9	congruent	Block3	congruent/STIM_007.jpg	100
2992.748	0.62	620.1	congruent	Block3	congruent/STIM_007.jpg	100
2996.603	0.824	824.4	congruent	Block3	congruent/STIM_007.jpg	99
3000.68	0.509	508.9	congruent	Block3	congruent/STIM_007.jpg	99
3004.169	0.556	555.7	congruent	Block3	congruent/STIM_007.jpg	99
3008.169	0.714	714.1	congruent	Block3	congruent/STIM_008.jpg	99
3012.877	0.607	607.0	congruent	Block3	congruent/STIM_008.jpg	99
3016.657	0.841	840.6	congruent	Block3	congruent/STIM_008.jpg	99
3019.975	0.835	834.8	congruent	Block3	congruent/STIM_008.jpg	100
3023.896	0.539	539.2	congruent	Block3	congruent/STIM_008.jpg	100
3027.403	0.696	696.4	congruent	Block3	congruent/STIM_009.jpg	99
3031.846	0.622	622.5	congruent	Block3	congruent/STIM_009.jpg	100
3034.598	0.573	573.0	congruent	Block3	congruent/STIM_009.jpg	99
3038.382	0.781	781.3	congruent	Block3	congruent/STIM_009.jpg	99
3043.036	0.707	707.4	congruent	Block3	congruent/STIM_009.jpg	99
3047.611	0.628	627.6	congruent	Block3	congruent/STIM_010.jpg	99
3051.227	0.812	811.5	congruent	Block3	congruent/STIM_010.jpg	99
3055.405	0.87	869.5	congruent	Block3	congruent/STIM_010.jpg	99
3058.685	0.782	782.0	congruent	Block3	congruent/STIM_010.jpg	100
3063.0	0.542	541.5	congruent	Block3	congruent/STIM_010.jpg	99
3065.696	0.816	815.6	congruent	Block3	congruent/STIM_011.jpg	100
3069.378	0.598	597.5	congruent	Block3	congruent/STIM_011.jpg	100
3073.412	0.582	582.1	congruent	Block3	congruent/STIM_011.jpg	100
3077.975	0.766	766.5	congruent	Block3	congruent/STIM_011.jpg	100
3081.307	0.641	641.1	congruent	Block3	congruent/STIM_011.jpg	100
3084.218	0.499	499.0	congruent	Block3	congruent/STIM_012.jpg	100
3088.068	0.85	850.0	congruent	Block3	congruent/STIM_012.jpg	99
3092.488	0.537	536.6	congruent	Block3	congruent/STIM_012.jpg	99
3096.489	0.639	638.7	congruent	Block3	congruent/STIM_012.jpg	100
3100.324	0.509	508.7	congruent	Block3	congruent/STIM_012.jpg	100
3104.119	0.717	716.7	congruent	Block3	congruent/STIM_013.jpg	99
3108.063	0.593	592.9	congruent	Block3	congruent/STIM_013.jpg	100
3111.83	0.865	864.9	congruent	Block3	congruent/STIM_013.jpg	100
3116.411	0.718	717.8	congruent	Block3	congruent/STIM_013.jpg	100
3119.942	0.537	537.4	congruent	Block3	congruent/STIM_013.jpg	99
3123.649	0.824	823.5	congruent	Block3	congruent/STIM_014.jpg	99
3127.644	0.698	698.2	congruent	Block3	congruent/STIM_014.jpg	100
3131.773	0.54	540.4	congruent	Block3	congruent/STIM_014.jpg	99
3135.74	0.719	719.0	congruent	Block3	congruent/STIM_014.jpg	99
3139.526	0.605	605.2	congruent	Block3	congruent/STIM_014.jpg	100
3143.663	0.784	783.6	congruent	Block3	congruent/STIM_015.jpg	100
3147.954	0.494	494.0	congruent	Block3	congruent/STIM_015.jpg	99
3150.61	0.606	606.5	congruent	Block3	congruent/STIM_015.jpg	100
3155.082	0.524	524.4	congruent	Block3	congruent/STIM_015.jpg	99
3159.301	0.749	748.7	congruent	Block3	congruent/STIM_015.jpg	99
3163.664	0.732	732.3	congruent	Block3	congruent/STIM_016.jpg	100
3168.28	0.59	589.7	congruent	Block3	congruent/STIM_016.jpg	100
3171.582	0.508	508.0	congruent	Block3	congruent/STIM_016.jpg	100
3175.508	0.716	716.1	congruent	Block3	congruent/STIM_016.jpg	99
3179.238	0.487	487.1	congruent	Block3	congruent/STIM_016.jpg	99
3183.677	0.753	752.8	congruent	Block3	congruent/STIM_017.jpg	99
3188.033	0.829	829.4	congruent	Block3	congruent/STIM_017.jpg	99
3191.73	0.776	775.5	congruent	Block3	congruent/STIM_017.jpg	99
3195.789	0.519	518.8	congruent	Block3	congruent/STIM_017.jpg	100
3199.481	0.822	821.5	congruent	Block3	congruent/STIM_017.jpg	100
3203.3	0.586	586.1	congruent	Block3	congruent/STIM_018.jpg	99
3207.791	0.538	537.9	congruent	Block3	congruent/STIM_018.jpg	99
3211.985	0.655	655.1	congruent	Block3	congruent/STIM_018.jpg	100
3215.672	0.538	537.7	congruent	Block3	congruent/STIM_018.jpg	99
3219.099	0.795	794.6	congruent	Block3	congruent/STIM_018.jpg	100
3223.455	0.772	772.0	congruent	Block3	congruent/STIM_019.jpg	100
3226.522	0.697	697.1	congruent	Block3	congruent/STIM_019.jpg	99
3231.216	0.798	798.1	congruent	Block3	congruent/STIM_019.jpg	99
3235.026	0.725	725.4	congruent	Block3	congruent/STIM_019.jpg	100
3238.005	0.581	581.4	congruent	Block3	congruent/STIM_019.jpg	100
3241.966	0.814	814.2	congruent	Block3	congruent/STIM_020.jpg	99
3245.891	0.622	621.5	congruent	Block3	congruent/STIM_020.jpg	100
3249.892	0.661	661.3	congruent	Block3	congruent/STIM_020.jpg	99
3254.192	0.828	827.8	congruent	Block3	congruent/STIM_020.jpg	99
3258.202	0.519	519.3	congruent	Block3	congruent/STIM_020.jpg	100
3262.676	0.673	673.2	congruent	Block3	congruent/STIM_021.jpg	100
3265.427	0.673	672.7	congruent	Block3	congruent/STIM_021.jpg	99
3269.48	0.563	563.1	congruent	Block3	congruent/STIM_021.jpg	99
3273.9	0.773	772.6	congruent	Block3	congruent/STIM_021.jpg	100
3277.36	0.576	575.6	congruent	Block3	congruent/STIM_021.jpg	100
3280.168	0.779	778.7	congruent	Block3	congruent/STIM_022.jpg	100
3284.871	0.832	832.4	congruent	Block3	congruent/STIM_022.jpg	99
3288.792	0.747	747.1	congruent	Block3	congruent/STIM_022.jpg	100
3292.429	0.783	782.6	congruent	Block3	congruent/STIM_022.jpg	99
3295.693	0.697	696.9	congruent	Block3	congruent/STIM_022.jpg	99
3299.774	0.687	687.2	congruent	Block3	congruent/STIM_023.jpg	99
3303.352	0.659	659.4	congruent	Block3	congruent/STIM_023.jpg	100
3307.587	0.549	548.7	congruent	Block3	congruent/STIM_023.jpg	100
3311.167	0.802	801.5	congruent	Block3	congruent/STIM_023.jpg	99
3314.964	0.748	748.3	congruent	Block3	congruent/STIM_023.jpg	99
3319.571	0.507	507.1	congruent	Block3	congruent/STIM_024.jpg	100
3323.663	0.82	819.8	congruent	Block3	congruent/STIM_024.jpg	100
3326.916	0.779	778.9	congruent	Block3	congruent/STIM_024.jpg	100
3329.879	0.84	839.6	congruent	Block3	congruent/STIM_024.jpg	99
3333.34	0.803	802.7	congruent	Block3	congruent/STIM_024.jpg	99
3337.684	0.613	612.9	congruent	Block3	congruent/STIM_025.jpg	100
3342.107	0.859	858.6	congruent	Block3	congruent/STIM_025.jpg	99
3345.849	0.814	813.8	congruent	Block3	congruent/STIM_025.jpg	99
3350.221	0.646	646.2	congruent	Block3	congruent/STIM_025.jpg	100
3353.944	0.738	738.2	congruent	Block3	congruent/STIM_025.jpg	100
3357.545	0.747	746.8	congruent	Block3	congruent/STIM_026.jpg	100
3362.117	0.744	743.8	congruent	Block3	congruent/STIM_026.jpg	100
3366.175	0.554	554.1	congruent	Block3	congruent/STIM_026.jpg	100
3370.081	0.77	770.5	congruent	Block3	congruent/STIM_026.jpg	100
3374.021	0.512	512.1	congruent	Block3	congruent/STIM_026.jpg	99
3377.644	0.555	555.4	congruent	Block3	congruent/STIM_027.jpg	99
3380.4	0.694	693.6	congruent	Block3	congruent/STIM_027.jpg	99
3384.863	0.819	819.3	congruent	Block3	congruent/STIM_027.jpg	100
3389.216	0.507	507.5	congruent	Block3	congruent/STIM_027.jpg	100
3393.288	0.54	539.7	congruent	Block3	congruent/STIM_027.jpg	100
3397.826	0.566	566.1	congruent	Block3	congruent/STIM_028.jpg	100
3401.316	0.542	541.9	congruent	Block3	congruent/STIM_028.jpg	99
3405.175	0.51	510.2	congruent	Block3	congruent/STIM_028.jpg	99
3408.636	0.804	803.8	congruent	Block3	congruent/STIM_028.jpg	99
3411.694	0.584	584.4	congruent	Block3	congruent/STIM_028.jpg	100
3415.959	0.622	621.9	congruent	Block3	congruent/STIM_029.jpg	100
3419.748	0.698	698.5	congruent	Block3	congruent/STIM_029.jpg	100
3422.91	0.682	682.3	congruent	Block3	congruent/STIM_029.jpg	100
3426.79	0.807	807.3	congruent	Block3	congruent/STIM_029.jpg	100
3431.596	0.685	684.6	congruent	Block3	congruent/STIM_029.jpg	99
