onset	duration	accuracy_binary	trial_type	learning_stage	stimulus
0.0	1.212	1	study	Phase1	study/STIM_000.jpg
3.855	0.934	1	study	Phase1	study/STIM_000.jpg
6.829	1.162	1	study	Phase1	study/STIM_000.jpg
11.716	1.644	1	study	Phase1	study/STIM_001.jpg
16.82	1.048	1	study	Phase1	study/STIM_001.jpg
21.221	1.323	1	study	Phase1	study/STIM_001.jpg
25.776	0.971	1	study	Phase1	study/STIM_002.jpg
30.001	1.549	1	study	Phase1	study/STIM_002.jpg
34.146	0.798	1	study	Phase1	study/STIM_002.jpg
37.13	1.059	1	study	Phase1	study/STIM_003.jpg
42.003	1.612	1	study	Phase1	study/STIM_003.jpg
45.662	1.042	1	study	Phase1	study/STIM_003.jpg
48.963	1.624	1	study	Phase1	study/STIM_004.jpg
53.295	1.451	0	study	Phase1	study/STIM_004.jpg
58.128	0.75	1	study	Phase1	study/STIM_004.jpg
62.298	1.534	1	study	Phase1	study/STIM_005.jpg
66.786	1.422	1	study	Phase1	study/STIM_005.jpg
72.141	1.542	1	study	Phase1	study/STIM_005.jpg
77.072	1.394	1	study	Phase1	study/STIM_006.jpg
80.797	1.562	1	study	Phase1	study/STIM_006.jpg
85.588	1.131	1	study	Phase1	study/STIM_006.jpg
89.373	1.238	1	study	Phase1	study/STIM_007.jpg
94.47	0.876	1	study	Phase1	study/STIM_007.jpg
98.082	1.634	1	study	Phase1	study/STIM_007.jpg
102.594	1.826	0	study	Phase1	study/STIM_008.jpg
106.754	1.307	1	study	Phase1	study/STIM_008.jpg
111.333	1.586	1	study	Phase1	study/STIM_008.jpg
115.466	1.113	1	study	Phase1	study/STIM_009.jpg
119.151	0.86	1	study	Phase1	study/STIM_009.jpg
123.428	1.416	1	study	Phase1	study/STIM_009.jpg
127.524	1.104	0	study	Phase1	study/STIM_010.jpg
131.353	1.06	1	study	Phase1	study/STIM_010.jpg
136.179	1.146	1	study	Phase1	study/STIM_010.jpg
139.617	1.72	1	study	Phase1	study/STIM_011.jpg
143.72	0.874	1	study	Phase1	study/STIM_011.jpg
147.699	1.632	1	study	Phase1	study/STIM_011.jpg
152.092	1.396	1	study	Phase1	study/STIM_012.jpg
157.134	1.481	1	study	Phase1	study/STIM_012.jpg
161.953	1.412	1	study	Phase1	study/STIM_012.jpg
165.765	1.51	1	study	Phase1	study/STIM_013.jpg
170.094	1.715	1	study	Phase1	study/STIM_013.jpg
174.643	1.076	1	study	Phase1	study/STIM_013.jpg
178.29	1.289	1	study	Phase1	study/STIM_014.jpg
182.621	1.597	0	study	Phase1	study/STIM_014.jpg
187.84	1.562	1	study	Phase1	study/STIM_014.jpg
192.916	1.071	1	study	Phase1	study/STIM_015.jpg
197.189	1.451	1	study	Phase1	study/STIM_015.jpg
200.718	1.56	1	study	Phase1	study/STIM_015.jpg
204.821	1.316	1	study	Phase1	study/STIM_016.jpg
208.816	1.275	1	study	Phase1	study/STIM_016.jpg
212.507	1.44	1	study	Phase1	study/STIM_016.jpg
217.107	1.087	1	study	Phase1	study/STIM_017.jpg
220.609	1.381	1	study	Phase1	study/STIM_017.jpg
224.023	0.756	1	study	Phase1	study/STIM_017.jpg
227.145	1.405	1	study	Phase1	study/STIM_018.jpg
231.859	1.689	1	study	Phase1	study/STIM_018.jpg
237.123	1.418	1	study	Phase1	study/STIM_018.jpg
240.969	1.651	1	study	Phase1	study/STIM_019.jpg
245.405	1.074	1	study	Phase1	study/STIM_019.jpg
249.734	1.078	1	study	Phase1	study/STIM_019.jpg
253.421	0.991	1	study	Phase1	study/STIM_020.jpg
257.544	1.567	1	study	Phase1	study/STIM_020.jpg
262.74	1.015	1	study	Phase1	study/STIM_020.jpg
266.172	1.203	1	study	Phase1	study/STIM_021.jpg
269.806	1.552	1	study	Phase1	study/STIM_021.jpg
273.427	0.831	1	study	Phase1	study/STIM_021.jpg
276.782	1.475	1	study	Phase1	study/STIM_022.jpg
280.948	1.229	1	study	Phase1	study/STIM_022.jpg
286.071	1.023	1	study	Phase1	study/STIM_022.jpg
289.825	1.491	1	study	Phase1	study/STIM_023.jpg
295.164	1.621	1	study	Phase1	study/STIM_023.jpg
299.695	1.413	1	study	Phase1	study/STIM_023.jpg
303.782	1.262	1	study	Phase1	study/STIM_024.jpg
307.762	1.234	1	study	Phase1	study/STIM_024.jpg
312.6	0.953	1	study	Phase1	study/STIM_024.jpg
316.259	1.738	1	study	Phase1	study/STIM_025.jpg
321.545	1.238	1	study	Phase1	study/STIM_025.jpg
326.177	1.086	1	study	Phase1	study/STIM_025.jpg
330.477	1.299	1	study	Phase1	study/STIM_026.jpg
333.822	1.457	1	study	Phase1	study/STIM_026.jpg
338.707	1.347	1	study	Phase1	study/STIM_026.jpg
342.625	1.003	1	study	Phase1	study/STIM_027.jpg
347.085	1.002	1	study	Phase1	study/STIM_027.jpg
350.581	1.26	1	study	Phase1	study/STIM_027.jpg
354.504	1.423	1	study	Phase1	study/STIM_028.jpg
358.115	1.456	1	study	Phase1	study/STIM_028.jpg
361.817	1.229	0	study	Phase1	study/STIM_028.jpg
366.688	0.855	1	study	Phase1	study/STIM_029.jpg
370.585	1.339	0	study	Phase1	study/STIM_029.jpg
374.442	1.499	1	study	Phase1	study/STIM_029.jpg
378.94	1.149	1	test	Phase1	test/STIM_000.jpg
382.227	0.84	0	test	Phase1	test/STIM_000.jpg
387.045	0.771	1	test	Phase1	test/STIM_000.jpg
390.385	1.073	1	test	Phase1	test/STIM_001.jpg
395.028	0.687	1	test	Phase1	test/STIM_001.jpg
399.397	1.091	1	test	Phase1	test/STIM_001.jpg
402.905	1.219	1	test	Phase1	test/STIM_002.jpg
406.435	0.995	1	test	Phase1	test/STIM_002.jpg
409.875	1.018	1	test	Phase1	test/STIM_002.jpg
413.173	0.988	1	test	Phase1	test/STIM_003.jpg
417.631	0.682	1	test	Phase1	test/STIM_003.jpg
421.186	0.897	1	test	Phase1	test/STIM_003.jpg
424.144	1.211	1	test	Phase1	test/STIM_004.jpg
428.716	1.282	1	test	Phase1	test/STIM_004.jpg
432.792	0.799	1	test	Phase1	test/STIM_004.jpg
436.956	1.081	1	test	Phase1	test/STIM_005.jpg
441.727	1.116	1	test	Phase1	test/STIM_005.jpg
446.042	0.914	1	test	Phase1	test/STIM_005.jpg
450.571	0.696	1	test	Phase1	test/STIM_006.jpg
453.94	0.852	1	test	Phase1	test/STIM_006.jpg
458.785	0.899	1	test	Phase1	test/STIM_006.jpg
462.911	0.776	0	test	Phase1	test/STIM_007.jpg
465.788	0.625	1	test	Phase1	test/STIM_007.jpg
469.266	0.74	1	test	Phase1	test/STIM_007.jpg
472.265	1.259	1	test	Phase1	test/STIM_008.jpg
475.579	1.293	1	test	Phase1	test/STIM_008.jpg
479.772	0.811	1	test	Phase1	test/STIM_008.jpg
483.554	0.703	1	test	Phase1	test/STIM_009.jpg
487.707	0.777	1	test	Phase1	test/STIM_009.jpg
491.483	1.179	1	test	Phase1	test/STIM_009.jpg
495.215	1.201	1	test	Phase1	test/STIM_010.jpg
499.649	1.287	1	test	Phase1	test/STIM_010.jpg
503.06	0.836	0	test	Phase1	test/STIM_010.jpg
507.794	1.309	0	test	Phase1	test/STIM_011.jpg
512.442	1.206	1	test	Phase1	test/STIM_011.jpg
516.024	0.617	1	test	Phase1	test/STIM_011.jpg
520.44	1.25	1	test	Phase1	test/STIM_012.jpg
524.098	0.898	0	test	Phase1	test/STIM_012.jpg
528.221	0.974	1	test	Phase1	test/STIM_012.jpg
531.387	0.948	1	test	Phase1	test/STIM_013.jpg
534.511	0.978	1	test	Phase1	test/STIM_013.jpg
538.569	1.016	1	test	Phase1	test/STIM_013.jpg
543.289	0.886	1	test	Phase1	test/STIM_014.jpg
546.197	1.169	1	test	Phase1	test/STIM_014.jpg
550.999	0.797	1	test	Phase1	test/STIM_014.jpg
554.106	1.309	1	test	Phase1	test/STIM_015.jpg
557.633	0.693	1	test	Phase1	test/STIM_015.jpg
560.401	0.972	1	test	Phase1	test/STIM_015.jpg
564.411	0.709	1	test	Phase1	test/STIM_016.jpg
568.316	0.653	1	test	Phase1	test/STIM_016.jpg
571.574	0.779	1	test	Phase1	test/STIM_016.jpg
575.53	1.057	1	test	Phase1	test/STIM_017.jpg
579.158	0.758	1	test	Phase1	test/STIM_017.jpg
582.838	0.843	1	test	Phase1	test/STIM_017.jpg
585.869	1.301	1	test	Phase1	test/STIM_018.jpg
590.716	0.87	1	test	Phase1	test/STIM_018.jpg
593.735	0.875	1	test	Phase1	test/STIM_018.jpg
598.596	1.309	0	test	Phase1	test/STIM_019.jpg
603.165	0.989	1	test	Phase1	test/STIM_019.jpg
606.489	1.311	1	test	Phase1	test/STIM_019.jpg
610.052	0.761	1	test	Phase1	test/STIM_020.jpg
613.835	0.847	1	test	Phase1	test/STIM_020.jpg
617.015	0.841	1	test	Phase1	test/STIM_020.jpg
621.635	0.75	1	test	Phase1	test/STIM_021.jpg
625.084	0.946	1	test	Phase1	test/STIM_021.jpg
629.423	1.208	1	test	Phase1	test/STIM_021.jpg
633.116	1.093	1	test	Phase1	test/STIM_022.jpg
637.488	0.676	1	test	Phase1	test/STIM_022.jpg
641.19	0.69	1	test	Phase1	test/STIM_022.jpg
644.773	0.763	1	test	Phase1	test/STIM_023.jpg
648.52	0.674	1	test	Phase1	test/STIM_023.jpg
652.525	0.682	1	test	Phase1	test/STIM_023.jpg
655.852	1.032	1	test	Phase1	test/STIM_024.jpg
660.351	1.122	1	test	Phase1	test/STIM_024.jpg
663.955	0.789	1	test	Phase1	test/STIM_024.jpg
667.034	0.848	1	test	Phase1	test/STIM_025.jpg
671.544	0.845	1	test	Phase1	test/STIM_025.jpg
676.054	1.241	1	test	Phase1	test/STIM_025.jpg
679.349	1.102	1	test	Phase1	test/STIM_026.jpg
682.488	1.031	1	test	Phase1	test/STIM_026.jpg
686.276	1.141	1	test	Phase1	test/STIM_026.jpg
690.771	0.976	1	test	Phase1	test/STIM_027.jpg
694.96	1.132	1	test	Phase1	test/STIM_027.jpg
698.852	0.654	1	test	Phase1	test/STIM_027.jpg
702.754	1.281	1	test	Phase1	test/STIM_028.jpg
706.719	0.704	1	test	Phase1	test/STIM_028.jpg
711.184	0.965	1	test	Phase1	test/STIM_028.jpg
714.403	1.026	1	test	Phase1	test/STIM_029.jpg
718.819	0.826	1	test	Phase1	test/STIM_029.jpg
721.687	1.042	1	test	Phase1	test/STIM_029.jpg
726.568	1.243	1	study	Phase2	study/STIM_000.jpg
730.339	1.384	1	study	Phase2	study/STIM_000.jpg
734.377	1.327	1	study	Phase2	study/STIM_000.jpg
738.769	0.865	1	study	Phase2	study/STIM_001.jpg
742.043	0.851	1	study	Phase2	study/STIM_001.jpg
745.21	1.334	1	study	Phase2	study/STIM_001.jpg
749.819	1.513	1	study	Phase2	study/STIM_002.jpg
753.344	1.135	0	study	Phase2	study/STIM_002.jpg
757.435	0.656	1	study	Phase2	study/STIM_002.jpg
760.666	0.927	0	study	Phase2	study/STIM_003.jpg
764.257	0.936	1	study	Phase2	study/STIM_003.jpg
769.151	1.318	1	study	Phase2	study/STIM_003.jpg
774.431	1.545	1	study	Phase2	study/STIM_004.jpg
778.866	1.428	1	study	Phase2	study/STIM_004.jpg
782.72	1.133	1	study	Phase2	study/STIM_004.jpg
786.532	0.886	0	study	Phase2	study/STIM_005.jpg
789.427	1.364	1	study	Phase2	study/STIM_005.jpg
792.964	0.675	1	study	Phase2	study/STIM_005.jpg
797.625	0.815	1	study	Phase2	study/STIM_006.jpg
801.316	1.106	1	study	Phase2	study/STIM_006.jpg
805.028	0.932	0	study	Phase2	study/STIM_006.jpg
809.79	0.726	1	study	Phase2	study/STIM_007.jpg
814.133	1.326	1	study	Phase2	study/STIM_007.jpg
819.407	1.136	1	study	Phase2	study/STIM_007.jpg
823.455	0.946	1	study	Phase2	study/STIM_008.jpg
826.984	1.12	1	study	Phase2	study/STIM_008.jpg
830.831	0.873	1	study	Phase2	study/STIM_008.jpg
834.993	1.338	1	study	Phase2	study/STIM_009.jpg
839.504	0.965	1	study	Phase2	study/STIM_009.jpg
842.799	0.804	1	study	Phase2	study/STIM_009.jpg
847.382	1.184	1	study	Phase2	study/STIM_010.jpg
850.773	1.023	1	study	Phase2	study/STIM_010.jpg
854.996	1.226	1	study	Phase2	study/STIM_010.jpg
859.563	1.243	1	study	Phase2	study/STIM_011.jpg
863.573	1.325	1	study	Phase2	study/STIM_011.jpg
867.881	1.164	1	study	Phase2	study/STIM_011.jpg
871.363	1.196	0	study	Phase2	study/STIM_012.jpg
875.473	1.358	1	study	Phase2	study/STIM_012.jpg
878.892	1.07	1	study	Phase2	study/STIM_012.jpg
882.798	1.04	1	study	Phase2	study/STIM_013.jpg
885.845	1.378	1	study	Phase2	study/STIM_013.jpg
890.075	1.348	1	study	Phase2	study/STIM_013.jpg
893.64	1.128	1	study	Phase2	study/STIM_014.jpg
898.165	1.267	1	study	Phase2	study/STIM_014.jpg
901.783	0.962	1	study	Phase2	study/STIM_014.jpg
905.963	0.751	1	study	Phase2	study/STIM_015.jpg
910.644	0.772	1	study	Phase2	study/STIM_015.jpg
914.952	0.92	1	study	Phase2	study/STIM_015.jpg
918.807	1.18	1	study	Phase2	study/STIM_016.jpg
923.825	0.88	1	study	Phase2	study/STIM_016.jpg
926.93	0.907	1	study	Phase2	study/STIM_016.jpg
930.287	1.198	1	study	Phase2	study/STIM_017.jpg
933.691	1.074	1	study	Phase2	study/STIM_017.jpg
936.992	1.307	1	study	Phase2	study/STIM_017.jpg
940.538	0.865	1	study	Phase2	study/STIM_018.jpg
943.584	1.297	1	study	Phase2	study/STIM_018.jpg
947.658	1.332	1	study	Phase2	study/STIM_018.jpg
951.324	0.926	1	study	Phase2	study/STIM_019.jpg
955.248	0.886	1	study	Phase2	study/STIM_019.jpg
959.472	1.2	1	study	Phase2	study/STIM_019.jpg
963.084	0.79	1	study	Phase2	study/STIM_020.jpg
966.271	0.718	1	study	Phase2	study/STIM_020.jpg
969.643	1.184	1	study	Phase2	study/STIM_020.jpg
974.785	1.344	0	study	Phase2	study/STIM_021.jpg
979.146	1.106	1	study	Phase2	study/STIM_021.jpg
983.248	0.976	1	study	Phase2	study/STIM_021.jpg
986.767	1.506	1	study	Phase2	study/STIM_022.jpg
990.4	0.785	1	study	Phase2	study/STIM_022.jpg
994.358	1.201	1	study	Phase2	study/STIM_022.jpg
999.206	1.165	1	study	Phase2	study/STIM_023.jpg
1002.667	1.115	1	study	Phase2	study/STIM_023.jpg
1006.898	0.988	1	study	Phase2	study/STIM_023.jpg
1009.951	0.718	1	study	Phase2	study/STIM_024.jpg
1013.055	1.179	1	study	Phase2	study/STIM_024.jpg
1018.197	1.244	1	study	Phase2	study/STIM_024.jpg
1022.675	0.791	1	study	Phase2	study/STIM_025.jpg
1026.933	1.155	1	study	Phase2	study/STIM_025.jpg
1030.441	1.22	1	study	Phase2	study/STIM_025.jpg
1035.302	1.217	1	study	Phase2	study/STIM_026.jpg
1038.6	0.838	0	study	Phase2	study/STIM_026.jpg
1043.074	1.046	1	study	Phase2	study/STIM_026.jpg
1047.415	1.092	1	study	Phase2	study/STIM_027.jpg
1051.121	1.33	1	study	Phase2	study/STIM_027.jpg
1055.111	1.241	1	study	Phase2	study/STIM_027.jpg
1058.701	0.757	1	study	Phase2	study/STIM_028.jpg
1063.188	1.305	1	study	Phase2	study/STIM_028.jpg
1066.776	0.68	1	study	Phase2	study/STIM_028.jpg
1071.166	1.519	1	study	Phase2	study/STIM_029.jpg
1076.209	1.115	0	study	Phase2	study/STIM_029.jpg
1080.41	1.222	1	study	Phase2	study/STIM_029.jpg
1085.427	0.776	1	test	Phase2	test/STIM_000.jpg
1088.523	1.203	1	test	Phase2	test/STIM_000.jpg
1093.32	0.986	1	test	Phase2	test/STIM_000.jpg
1097.92	0.909	1	test	Phase2	test/STIM_001.jpg
1101.03	1.061	1	test	Phase2	test/STIM_001.jpg
1105.889	0.768	1	test	Phase2	test/STIM_001.jpg
1109.524	0.88	1	test	Phase2	test/STIM_002.jpg
1112.673	1.203	1	test	Phase2	test/STIM_002.jpg
1116.641	1.197	1	test	Phase2	test/STIM_002.jpg
1121.087	1.225	1	test	Phase2	test/STIM_003.jpg
1125.058	1.138	1	test	Phase2	test/STIM_003.jpg
1129.876	0.986	1	test	Phase2	test/STIM_003.jpg
1133.019	1.028	1	test	Phase2	test/STIM_004.jpg
1137.267	1.103	1	test	Phase2	test/STIM_004.jpg
1141.941	0.765	1	test	Phase2	test/STIM_004.jpg
1144.95	1.051	1	test	Phase2	test/STIM_005.jpg
1148.202	1.212	1	test	Phase2	test/STIM_005.jpg
1152.422	0.828	1	test	Phase2	test/STIM_005.jpg
1157.187	0.752	1	test	Phase2	test/STIM_006.jpg
1160.106	0.763	1	test	Phase2	test/STIM_006.jpg
1163.475	1.309	1	test	Phase2	test/STIM_006.jpg
1167.816	0.634	1	test	Phase2	test/STIM_007.jpg
1170.799	0.991	1	test	Phase2	test/STIM_007.jpg
1174.621	1.066	1	test	Phase2	test/STIM_007.jpg
1177.996	0.964	1	test	Phase2	test/STIM_008.jpg
1181.846	0.726	1	test	Phase2	test/STIM_008.jpg
1184.997	0.698	1	test	Phase2	test/STIM_008.jpg
1188.777	0.66	1	test	Phase2	test/STIM_009.jpg
1193.423	1.293	1	test	Phase2	test/STIM_009.jpg
1197.249	0.625	1	test	Phase2	test/STIM_009.jpg
1199.985	0.755	1	test	Phase2	test/STIM_010.jpg
1203.097	1.201	1	test	Phase2	test/STIM_010.jpg
1207.809	1.188	1	test	Phase2	test/STIM_010.jpg
1212.455	0.861	1	test	Phase2	test/STIM_011.jpg
1215.56	1.11	1	test	Phase2	test/STIM_011.jpg
1218.757	0.675	1	test	Phase2	test/STIM_011.jpg
1222.294	0.815	0	test	Phase2	test/STIM_012.jpg
1226.057	0.953	1	test	Phase2	test/STIM_012.jpg
1229.733	0.86	1	test	Phase2	test/STIM_012.jpg
1234.153	0.619	1	test	Phase2	test/STIM_013.jpg
1237.198	0.858	1	test	Phase2	test/STIM_013.jpg
1241.394	1.197	0	test	Phase2	test/STIM_013.jpg
1245.716	0.87	1	test	Phase2	test/STIM_014.jpg
1249.828	1.243	1	test	Phase2	test/STIM_014.jpg
1253.245	1.054	1	test	Phase2	test/STIM_014.jpg
1256.625	0.692	1	test	Phase2	test/STIM_015.jpg
1259.918	1.317	1	test	Phase2	test/STIM_015.jpg
1263.659	1.055	1	test	Phase2	test/STIM_015.jpg
1267.703	0.951	1	test	Phase2	test/STIM_016.jpg
1272.246	0.762	1	test	Phase2	test/STIM_016.jpg
1276.592	0.845	1	test	Phase2	test/STIM_016.jpg
1279.996	0.845	1	test	Phase2	test/STIM_017.jpg
1282.934	1.258	1	test	Phase2	test/STIM_017.jpg
1286.75	0.686	1	test	Phase2	test/STIM_017.jpg
1291.112	1.046	1	test	Phase2	test/STIM_018.jpg
1295.901	1.177	1	test	Phase2	test/STIM_018.jpg
1300.774	1.049	1	test	Phase2	test/STIM_018.jpg
1304.57	0.768	1	test	Phase2	test/STIM_019.jpg
1309.117	1.03	1	test	Phase2	test/STIM_019.jpg
1312.861	1.102	1	test	Phase2	test/STIM_019.jpg
1317.304	1.067	1	test	Phase2	test/STIM_020.jpg
1320.658	1.304	1	test	Phase2	test/STIM_020.jpg
1324.898	0.911	0	test	Phase2	test/STIM_020.jpg
1329.372	1.138	1	test	Phase2	test/STIM_021.jpg
1333.301	1.009	1	test	Phase2	test/STIM_021.jpg
1338.298	1.297	1	test	Phase2	test/STIM_021.jpg
1341.882	0.625	1	test	Phase2	test/STIM_022.jpg
1346.189	1.139	1	test	Phase2	test/STIM_022.jpg
1350.607	0.833	1	test	Phase2	test/STIM_022.jpg
1354.205	1.258	1	test	Phase2	test/STIM_023.jpg
1358.618	0.865	1	test	Phase2	test/STIM_023.jpg
1362.612	1.265	1	test	Phase2	test/STIM_023.jpg
1366.318	1.153	0	test	Phase2	test/STIM_024.jpg
1369.803	0.966	1	test	Phase2	test/STIM_024.jpg
1372.859	0.816	1	test	Phase2	test/STIM_024.jpg
1376.715	0.634	1	test	Phase2	test/STIM_025.jpg
1380.627	0.75	1	test	Phase2	test/STIM_025.jpg
1384.73	0.944	1	test	Phase2	test/STIM_025.jpg
1388.458	0.776	1	test	Phase2	test/STIM_026.jpg
1392.38	0.847	1	test	Phase2	test/STIM_026.jpg
1396.023	0.816	1	test	Phase2	test/STIM_026.jpg
1400.141	0.922	1	test	Phase2	test/STIM_027.jpg
1403.793	0.81	0	test	Phase2	test/STIM_027.jpg
1407.139	0.837	1	test	Phase2	test/STIM_027.jpg
1411.524	0.89	1	test	Phase2	test/STIM_028.jpg
1416.068	1.308	1	test	Phase2	test/STIM_028.jpg
1420.61	1.034	1	test	Phase2	test/STIM_028.jpg
1425.088	1.035	1	test	Phase2	test/STIM_029.jpg
1429.51	0.924	1	test	Phase2	test/STIM_029.jpg
1433.231	1.118	1	test	Phase2	test/STIM_029.jpg
1438.03	1.126	0	study	Phase3	study/STIM_000.jpg
1442.98	0.763	1	study	Phase3	study/STIM_000.jpg
1446.138	0.88	1	study	Phase3	study/STIM_000.jpg
1450.299	0.864	1	study	Phase3	study/STIM_001.jpg
1454.26	0.764	1	study	Phase3	study/STIM_001.jpg
1457.432	1.061	1	study	Phase3	study/STIM_001.jpg
1461.591	0.853	1	study	Phase3	study/STIM_002.jpg
1465.475	1.026	1	study	Phase3	study/STIM_002.jpg
1470.168	1.077	1	study	Phase3	study/STIM_002.jpg
1474.03	0.591	1	study	Phase3	study/STIM_003.jpg
1478.318	0.841	1	study	Phase3	study/STIM_003.jpg
1481.702	0.763	1	study	Phase3	study/STIM_003.jpg
1485.692	0.886	1	study	Phase3	study/STIM_004.jpg
1489.673	1.135	1	study	Phase3	study/STIM_004.jpg
1494.351	0.923	1	study	Phase3	study/STIM_004.jpg
1499.14	0.607	1	study	Phase3	study/STIM_005.jpg
1502.586	1.004	1	study	Phase3	study/STIM_005.jpg
1507.029	0.965	1	study	Phase3	study/STIM_005.jpg
1510.841	0.937	1	study	Phase3	study/STIM_006.jpg
1513.995	0.774	1	study	Phase3	study/STIM_006.jpg
1517.946	0.909	1	study	Phase3	study/STIM_006.jpg
1521.973	0.786	1	study	Phase3	study/STIM_007.jpg
1526.553	0.994	1	study	Phase3	study/STIM_007.jpg
1530.475	1.105	1	study	Phase3	study/STIM_007.jpg
1533.688	1.2	1	study	Phase3	study/STIM_008.jpg
1537.164	0.631	1	study	Phase3	study/STIM_008.jpg
1541.203	1.065	1	study	Phase3	study/STIM_008.jpg
1544.966	0.967	1	study	Phase3	study/STIM_009.jpg
1549.892	0.79	1	study	Phase3	study/STIM_009.jpg
1552.979	1.111	1	study	Phase3	study/STIM_009.jpg
1557.724	0.588	0	study	Phase3	study/STIM_010.jpg
1560.451	0.989	1	study	Phase3	study/STIM_010.jpg
1565.253	0.9	1	study	Phase3	study/STIM_010.jpg
1568.572	0.574	1	study	Phase3	study/STIM_011.jpg
1572.777	1.277	1	study	Phase3	study/STIM_011.jpg
1576.093	0.735	1	study	Phase3	study/STIM_011.jpg
1580.751	0.642	1	study	Phase3	study/STIM_012.jpg
1584.797	1.042	1	study	Phase3	study/STIM_012.jpg
1589.465	0.66	1	study	Phase3	study/STIM_012.jpg
1592.526	0.626	1	study	Phase3	study/STIM_013.jpg
1595.528	0.942	1	study	Phase3	study/STIM_013.jpg
1599.452	1.037	1	study	Phase3	study/STIM_013.jpg
1602.545	1.26	1	study	Phase3	study/STIM_014.jpg
1605.952	0.887	1	study	Phase3	study/STIM_014.jpg
1609.22	0.979	1	study	Phase3	study/STIM_014.jpg
1612.615	0.668	1	study	Phase3	study/STIM_015.jpg
1615.929	0.741	1	study	Phase3	study/STIM_015.jpg
1620.143	0.764	1	study	Phase3	study/STIM_015.jpg
1624.283	0.814	1	study	Phase3	study/STIM_016.jpg
1628.551	0.718	1	study	Phase3	study/STIM_016.jpg
1632.576	0.951	1	study	Phase3	study/STIM_016.jpg
1636.62	0.71	1	study	Phase3	study/STIM_017.jpg
1640.393	1.122	1	study	Phase3	study/STIM_017.jpg
1644.369	1.26	1	study	Phase3	study/STIM_017.jpg
1648.042	0.81	1	study	Phase3	study/STIM_018.jpg
1652.104	0.596	1	study	Phase3	study/STIM_018.jpg
1655.287	1.053	1	study	Phase3	study/STIM_018.jpg
1659.937	0.697	1	study	Phase3	study/STIM_019.jpg
1662.694	0.789	1	study	Phase3	study/STIM_019.jpg
1666.396	0.675	1	study	Phase3	study/STIM_019.jpg
1669.467	0.847	1	study	Phase3	study/STIM_020.jpg
1673.014	1.234	1	study	Phase3	study/STIM_020.jpg
1677.933	1.108	1	study	Phase3	study/STIM_020.jpg
1682.035	0.57	1	study	Phase3	study/STIM_021.jpg
1685.317	0.652	1	study	Phase3	study/STIM_021.jpg
1689.44	1.251	1	study	Phase3	study/STIM_021.jpg
1693.776	1.173	1	study	Phase3	study/STIM_022.jpg
1697.233	0.768	1	study	Phase3	study/STIM_022.jpg
1700.32	0.802	1	study	Phase3	study/STIM_022.jpg
1704.816	1.234	1	study	Phase3	study/STIM_023.jpg
1709.914	0.683	1	study	Phase3	study/STIM_023.jpg
1714.496	0.93	1	study	Phase3	study/STIM_023.jpg
1718.402	1.124	0	study	Phase3	study/STIM_024.jpg
1723.254	0.973	1	study	Phase3	study/STIM_024.jpg
1727.247	0.999	1	study	Phase3	study/STIM_024.jpg
1731.097	0.62	1	study	Phase3	study/STIM_025.jpg
1734.965	0.705	1	study	Phase3	study/STIM_025.jpg
1738.256	0.591	1	study	Phase3	study/STIM_025.jpg
1741.364	0.656	1	study	Phase3	study/STIM_026.jpg
1745.706	0.582	1	study	Phase3	study/STIM_026.jpg
1750.179	0.842	1	study	Phase3	study/STIM_026.jpg
1753.569	0.723	1	study	Phase3	study/STIM_027.jpg
1756.463	1.205	1	study	Phase3	study/STIM_027.jpg
1761.577	1.173	1	study	Phase3	study/STIM_027.jpg
1766.072	1.155	1	study	Phase3	study/STIM_028.jpg
1770.003	1.023	1	study	Phase3	study/STIM_028.jpg
1774.347	1.164	1	study	Phase3	study/STIM_028.jpg
1778.945	1.264	1	study	Phase3	study/STIM_029.jpg
1784.063	0.939	1	study	Phase3	study/STIM_029.jpg
1788.758	0.859	1	study	Phase3	study/STIM_029.jpg
1792.671	0.622	1	test	Phase3	test/STIM_000.jpg
1795.876	1.268	0	test	Phase3	test/STIM_000.jpg
1800.062	1.282	1	test	Phase3	test/STIM_000.jpg
1804.746	1.027	1	test	Phase3	test/STIM_001.jpg
1808.508	0.673	1	test	Phase3	test/STIM_001.jpg
1811.828	1.083	1	test	Phase3	test/STIM_001.jpg
1815.84	1.003	1	test	Phase3	test/STIM_002.jpg
1819.265	0.892	1	test	Phase3	test/STIM_002.jpg
1822.308	1.038	0	test	Phase3	test/STIM_002.jpg
1825.466	1.246	0	test	Phase3	test/STIM_003.jpg
1828.981	0.647	1	test	Phase3	test/STIM_003.jpg
1832.57	1.083	1	test	Phase3	test/STIM_003.jpg
1835.943	1.059	1	test	Phase3	test/STIM_004.jpg
1839.931	1.178	1	test	Phase3	test/STIM_004.jpg
1843.403	1.229	0	test	Phase3	test/STIM_004.jpg
1847.22	1.11	1	test	Phase3	test/STIM_005.jpg
1851.931	0.739	1	test	Phase3	test/STIM_005.jpg
1854.922	0.993	1	test	Phase3	test/STIM_005.jpg
1859.293	0.609	1	test	Phase3	test/STIM_006.jpg
1862.767	1.289	1	test	Phase3	test/STIM_006.jpg
1868.044	0.905	0	test	Phase3	test/STIM_006.jpg
1871.561	1.089	1	test	Phase3	test/STIM_007.jpg
1875.249	0.649	1	test	Phase3	test/STIM_007.jpg
1878.316	0.674	1	test	Phase3	test/STIM_007.jpg
1881.692	0.99	1	test	Phase3	test/STIM_008.jpg
1884.907	1.17	1	test	Phase3	test/STIM_008.jpg
1888.964	1.026	1	test	Phase3	test/STIM_008.jpg
1893.138	0.721	0	test	Phase3	test/STIM_009.jpg
1896.651	0.949	1	test	Phase3	test/STIM_009.jpg
1900.601	0.715	1	test	Phase3	test/STIM_009.jpg
1904.504	0.664	1	test	Phase3	test/STIM_010.jpg
1908.402	0.833	1	test	Phase3	test/STIM_010.jpg
1912.499	0.874	1	test	Phase3	test/STIM_010.jpg
1915.443	0.636	1	test	Phase3	test/STIM_011.jpg
1920.009	0.628	1	test	Phase3	test/STIM_011.jpg
1923.081	1.107	1	test	Phase3	test/STIM_011.jpg
1926.389	0.778	1	test	Phase3	test/STIM_012.jpg
1929.255	0.63	1	test	Phase3	test/STIM_012.jpg
1932.481	0.959	1	test	Phase3	test/STIM_012.jpg
1936.43	0.914	1	test	Phase3	test/STIM_013.jpg
1940.48	0.697	1	test	Phase3	test/STIM_013.jpg
1943.693	1.088	0	test	Phase3	test/STIM_013.jpg
1948.013	0.798	1	test	Phase3	test/STIM_014.jpg
1952.538	0.618	1	test	Phase3	test/STIM_014.jpg
1956.376	1.189	1	test	Phase3	test/STIM_014.jpg
1960.872	1.004	1	test	Phase3	test/STIM_015.jpg
1965.12	1.187	1	test	Phase3	test/STIM_015.jpg
1968.366	1.078	1	test	Phase3	test/STIM_015.jpg
1971.463	1.045	1	test	Phase3	test/STIM_016.jpg
1975.265	0.794	1	test	Phase3	test/STIM_016.jpg
1979.044	0.864	1	test	Phase3	test/STIM_016.jpg
1982.386	1.06	1	test	Phase3	test/STIM_017.jpg
1985.894	0.969	1	test	Phase3	test/STIM_017.jpg
1989.992	0.868	1	test	Phase3	test/STIM_017.jpg
1992.917	0.871	1	test	Phase3	test/STIM_018.jpg
1995.83	0.969	1	test	Phase3	test/STIM_018.jpg
2000.317	0.689	1	test	Phase3	test/STIM_018.jpg
2004.219	0.867	1	test	Phase3	test/STIM_019.jpg
2008.231	1.235	1	test	Phase3	test/STIM_019.jpg
2012.789	0.863	1	test	Phase3	test/STIM_019.jpg
2016.224	1.11	1	test	Phase3	test/STIM_020.jpg
2019.715	0.871	1	test	Phase3	test/STIM_020.jpg
2024.063	0.846	1	test	Phase3	test/STIM_020.jpg
2027.059	0.644	1	test	Phase3	test/STIM_021.jpg
2029.936	0.671	1	test	Phase3	test/STIM_021.jpg
2033.809	1.069	1	test	Phase3	test/STIM_021.jpg
2038.391	0.756	1	test	Phase3	test/STIM_022.jpg
2042.307	1.279	1	test	Phase3	test/STIM_022.jpg
2045.703	1.073	1	test	Phase3	test/STIM_022.jpg
2049.343	1.014	1	test	Phase3	test/STIM_023.jpg
2054.277	0.687	1	test	Phase3	test/STIM_023.jpg
2057.052	0.912	1	test	Phase3	test/STIM_023.jpg
2061.453	1.247	1	test	Phase3	test/STIM_024.jpg
2065.958	0.639	1	test	Phase3	test/STIM_024.jpg
2069.182	0.771	1	test	Phase3	test/STIM_024.jpg
2072.214	1.22	1	test	Phase3	test/STIM_025.jpg
2076.855	1.273	1	test	Phase3	test/STIM_025.jpg
2081.232	0.96	1	test	Phase3	test/STIM_025.jpg
2085.623	0.991	1	test	Phase3	test/STIM_026.jpg
2089.091	0.829	1	test	Phase3	test/STIM_026.jpg
2093.532	0.679	1	test	Phase3	test/STIM_026.jpg
2097.067	0.661	0	test	Phase3	test/STIM_027.jpg
2100.754	0.655	1	test	Phase3	test/STIM_027.jpg
2105.327	1.304	1	test	Phase3	test/STIM_027.jpg
2109.662	0.812	1	test	Phase3	test/STIM_028.jpg
2113.021	0.93	1	test	Phase3	test/STIM_028.jpg
2116.65	0.659	1	test	Phase3	test/STIM_028.jpg
2120.432	1.015	1	test	Phase3	test/STIM_029.jpg
2125.077	0.611	1	test	Phase3	test/STIM_029.jpg
2129.007	1.254	1	test	Phase3	test/STIM_029.jpg
