onset	duration	accuracy_binary	trial_type	learning_stage	stimulus
0.0	0.729	1	2back	Block1	2back/STIM_000.jpg
4.59	1.158	1	2back	Block1	2back/STIM_000.jpg
9.515	0.956	1	2back	Block1	2back/STIM_000.jpg
12.789	1.215	1	2back	Block1	2back/STIM_001.jpg
17.855	0.989	1	2back	Block1	2back/STIM_001.jpg
20.972	0.965	1	2back	Block1	2back/STIM_001.jpg
24.49	0.906	1	2back	Block1	2back/STIM_002.jpg
27.922	0.579	0	2back	Block1	2back/STIM_002.jpg
30.649	1.165	1	2back	Block1	2back/STIM_002.jpg
34.093	0.73	1	2back	Block1	2back/STIM_003.jpg
37.903	0.558	1	2back	Block1	2back/STIM_003.jpg
40.875	0.637	1	2back	Block1	2back/STIM_003.jpg
44.635	0.984	1	2back	Block1	2back/STIM_004.jpg
48.543	0.64	1	2back	Block1	2back/STIM_004.jpg
52.687	0.892	1	2back	Block1	2back/STIM_004.jpg
56.799	0.87	1	2back	Block1	2back/STIM_005.jpg
60.045	0.808	1	2back	Block1	2back/STIM_005.jpg
62.864	0.951	1	2back	Block1	2back/STIM_005.jpg
66.261	0.626	1	2back	Block1	2back/STIM_006.jpg
69.007	0.969	1	2back	Block1	2back/STIM_006.jpg
73.572	1.076	1	2back	Block1	2back/STIM_006.jpg
77.04	1.239	1	2back	Block1	2back/STIM_007.jpg
81.873	1.048	1	2back	Block1	2back/STIM_007.jpg
84.955	1.176	1	2back	Block1	2back/STIM_007.jpg
89.795	0.989	1	2back	Block1	2back/STIM_008.jpg
93.485	1.152	1	2back	Block1	2back/STIM_008.jpg
98.018	1.069	1	2back	Block1	2back/STIM_008.jpg
102.962	0.772	1	2back	Block1	2back/STIM_009.jpg
107.381	0.789	1	2back	Block1	2back/STIM_009.jpg
111.863	0.77	1	2back	Block1	2back/STIM_009.jpg
115.607	0.753	1	2back	Block1	2back/STIM_010.jpg
120.165	0.736	1	2back	Block1	2back/STIM_010.jpg
123.233	1.138	1	2back	Block1	2back/STIM_010.jpg
126.793	0.635	1	2back	Block1	2back/STIM_011.jpg
131.266	1.044	1	2back	Block1	2back/STIM_011.jpg
134.392	0.94	1	2back	Block1	2back/STIM_011.jpg
137.943	0.87	1	2back	Block1	2back/STIM_012.jpg
141.614	0.664	1	2back	Block1	2back/STIM_012.jpg
146.147	0.994	1	2back	Block1	2back/STIM_012.jpg
149.447	0.939	1	2back	Block1	2back/STIM_013.jpg
152.987	1.121	1	2back	Block1	2back/STIM_013.jpg
158.032	0.915	1	2back	Block1	2back/STIM_013.jpg
162.734	0.83	1	2back	Block1	2back/STIM_014.jpg
166.718	1.199	1	2back	Block1	2back/STIM_014.jpg
171.41	1.118	1	2back	Block1	2back/STIM_014.jpg
175.98	0.639	1	2back	Block1	2back/STIM_015.jpg
180.352	0.6	1	2back	Block1	2back/STIM_015.jpg
184.645	1.129	1	2back	Block1	2back/STIM_015.jpg
189.598	1.021	1	2back	Block1	2back/STIM_016.jpg
192.724	0.824	0	2back	Block1	2back/STIM_016.jpg
196.462	0.721	1	2back	Block1	2back/STIM_016.jpg
200.7	0.904	1	2back	Block1	2back/STIM_017.jpg
204.28	0.873	1	2back	Block1	2back/STIM_017.jpg
207.424	1.086	1	2back	Block1	2back/STIM_017.jpg
212.455	0.717	1	2back	Block1	2back/STIM_018.jpg
216.221	0.83	1	2back	Block1	2back/STIM_018.jpg
220.301	0.675	1	2back	Block1	2back/STIM_018.jpg
223.974	1.182	1	2back	Block1	2back/STIM_019.jpg
227.218	0.672	1	2back	Block1	2back/STIM_019.jpg
231.478	0.872	1	2back	Block1	2back/STIM_019.jpg
235.389	0.772	1	2back	Block1	2back/STIM_020.jpg
238.454	0.942	1	2back	Block1	2back/STIM_020.jpg
242.741	0.93	1	2back	Block1	2back/STIM_020.jpg
247.299	0.802	1	2back	Block1	2back/STIM_021.jpg
250.822	0.759	1	2back	Block1	2back/STIM_021.jpg
253.739	0.952	1	2back	Block1	2back/STIM_021.jpg
258.142	1.296	1	2back	Block1	2back/STIM_022.jpg
261.622	1.008	1	2back	Block1	2back/STIM_022.jpg
264.921	1.175	1	2back	Block1	2back/STIM_022.jpg
269.888	0.932	1	2back	Block1	2back/STIM_023.jpg
273.951	1.064	1	2back	Block1	2back/STIM_023.jpg
278.357	0.637	1	2back	Block1	2back/STIM_023.jpg
282.538	1.037	1	2back	Block1	2back/STIM_024.jpg
285.801	0.647	1	2back	Block1	2back/STIM_024.jpg
289.625	0.892	1	2back	Block1	2back/STIM_024.jpg
293.292	0.69	1	2back	Block1	2back/STIM_025.jpg
296.945	1.026	1	2back	Block1	2back/STIM_025.jpg
300.39	1.11	1	2back	Block1	2back/STIM_025.jpg
303.559	1.202	1	2back	Block1	2back/STIM_026.jpg
307.859	0.632	1	2back	Block1	2back/STIM_026.jpg
310.677	0.766	1	2back	Block1	2back/STIM_026.jpg
315.034	1.106	1	2back	Block1	2back/STIM_027.jpg
319.588	0.75	1	2back	Block1	2back/STIM_027.jpg
323.316	0.924	1	2back	Block1	2back/STIM_027.jpg
327.643	0.698	1	2back	Block1	2back/STIM_028.jpg
331.64	1.212	1	2back	Block1	2back/STIM_028.jpg
336.743	0.608	1	2back	Block1	2back/STIM_028.jpg
339.84	1.049	1	2back	Block1	2back/STIM_029.jpg
344.538	1.122	0	2back	Block1	2back/STIM_029.jpg
348.835	0.971	1	2back	Block1	2back/STIM_029.jpg
353.709	0.69	1	2back	Block1	2back/STIM_030.jpg
356.799	1.136	1	2back	Block1	2back/STIM_030.jpg
359.989	0.932	1	2back	Block1	2back/STIM_030.jpg
364.002	0.672	1	2back	Block1	2back/STIM_031.jpg
367.109	0.746	1	2back	Block1	2back/STIM_031.jpg
370.549	1.045	1	2back	Block1	2back/STIM_031.jpg
373.655	1.148	1	2back	Block1	2back/STIM_032.jpg
376.831	0.971	1	2back	Block1	2back/STIM_032.jpg
380.251	0.867	0	2back	Block1	2back/STIM_032.jpg
384.688	0.75	1	2back	Block1	2back/STIM_033.jpg
388.214	0.602	1	2back	Block1	2back/STIM_033.jpg
391.319	1.13	1	2back	Block1	2back/STIM_033.jpg
395.112	0.675	1	2back	Block1	2back/STIM_034.jpg
397.85	0.935	1	2back	Block1	2back/STIM_034.jpg
401.102	0.58	1	2back	Block1	2back/STIM_034.jpg
405.534	0.76	1	2back	Block1	2back/STIM_035.jpg
409.213	0.591	1	2back	Block1	2back/STIM_035.jpg
412.398	1.171	1	2back	Block1	2back/STIM_035.jpg
416.875	1.159	0	2back	Block1	2back/STIM_036.jpg
420.898	0.901	1	2back	Block1	2back/STIM_036.jpg
425.679	0.645	0	2back	Block1	2back/STIM_036.jpg
429.867	1.271	1	2back	Block1	2back/STIM_037.jpg
435.079	0.846	1	2back	Block1	2back/STIM_037.jpg
439.626	1.123	1	2back	Block1	2back/STIM_037.jpg
444.146	0.6	1	2back	Block1	2back/STIM_038.jpg
447.682	0.809	1	2back	Block1	2back/STIM_038.jpg
452.459	0.909	0	2back	Block1	2back/STIM_038.jpg
456.448	0.692	1	2back	Block1	2back/STIM_039.jpg
460.714	0.83	1	2back	Block1	2back/STIM_039.jpg
464.236	0.787	0	2back	Block1	2back/STIM_039.jpg
467.481	0.378	1	0back	Block1	0back/STIM_000.jpg
470.244	0.469	1	0back	Block1	0back/STIM_000.jpg
473.03	0.432	1	0back	Block1	0back/STIM_000.jpg
477.412	0.683	1	0back	Block1	0back/STIM_001.jpg
482.044	0.446	1	0back	Block1	0back/STIM_001.jpg
486.23	0.48	1	0back	Block1	0back/STIM_001.jpg
488.983	0.564	1	0back	Block1	0back/STIM_002.jpg
492.262	0.64	1	0back	Block1	0back/STIM_002.jpg
496.061	0.58	1	0back	Block1	0back/STIM_002.jpg
499.949	0.686	1	0back	Block1	0back/STIM_003.jpg
503.682	0.494	1	0back	Block1	0back/STIM_003.jpg
507.658	0.713	1	0back	Block1	0back/STIM_003.jpg
511.027	0.672	1	0back	Block1	0back/STIM_004.jpg
515.209	0.392	1	0back	Block1	0back/STIM_004.jpg
518.94	0.633	1	0back	Block1	0back/STIM_004.jpg
522.716	0.727	1	0back	Block1	0back/STIM_005.jpg
525.624	0.509	1	0back	Block1	0back/STIM_005.jpg
530.102	0.704	1	0back	Block1	0back/STIM_005.jpg
533.97	0.706	1	0back	Block1	0back/STIM_006.jpg
538.248	0.475	1	0back	Block1	0back/STIM_006.jpg
542.091	0.448	1	0back	Block1	0back/STIM_006.jpg
546.075	0.685	1	0back	Block1	0back/STIM_007.jpg
549.741	0.563	1	0back	Block1	0back/STIM_007.jpg
552.846	0.72	1	0back	Block1	0back/STIM_007.jpg
556.312	0.508	1	0back	Block1	0back/STIM_008.jpg
559.521	0.56	1	0back	Block1	0back/STIM_008.jpg
562.507	0.439	1	0back	Block1	0back/STIM_008.jpg
565.913	0.465	1	0back	Block1	0back/STIM_009.jpg
569.695	0.703	1	0back	Block1	0back/STIM_009.jpg
572.606	0.517	1	0back	Block1	0back/STIM_009.jpg
577.003	0.565	1	0back	Block1	0back/STIM_010.jpg
579.694	0.651	1	0back	Block1	0back/STIM_010.jpg
584.191	0.481	1	0back	Block1	0back/STIM_010.jpg
587.593	0.73	1	0back	Block1	0back/STIM_011.jpg
592.219	0.463	1	0back	Block1	0back/STIM_011.jpg
594.868	0.39	1	0back	Block1	0back/STIM_011.jpg
598.813	0.636	1	0back	Block1	0back/STIM_012.jpg
603.117	0.406	0	0back	Block1	0back/STIM_012.jpg
606.031	0.423	1	0back	Block1	0back/STIM_012.jpg
608.521	0.392	1	0back	Block1	0back/STIM_013.jpg
611.608	0.71	1	0back	Block1	0back/STIM_013.jpg
615.134	0.611	1	0back	Block1	0back/STIM_013.jpg
617.765	0.518	1	0back	Block1	0back/STIM_014.jpg
620.794	0.701	1	0back	Block1	0back/STIM_014.jpg
623.712	0.525	1	0back	Block1	0back/STIM_014.jpg
627.775	0.376	1	0back	Block1	0back/STIM_015.jpg
631.046	0.504	1	0back	Block1	0back/STIM_015.jpg
634.315	0.474	1	0back	Block1	0back/STIM_015.jpg
637.692	0.622	1	0back	Block1	0back/STIM_016.jpg
640.483	0.42	1	0back	Block1	0back/STIM_016.jpg
644.653	0.445	0	0back	Block1	0back/STIM_016.jpg
648.889	0.713	1	0back	Block1	0back/STIM_017.jpg
652.184	0.591	1	0back	Block1	0back/STIM_017.jpg
655.054	0.424	1	0back	Block1	0back/STIM_017.jpg
658.783	0.391	1	0back	Block1	0back/STIM_018.jpg
662.787	0.736	1	0back	Block1	0back/STIM_018.jpg
667.478	0.741	1	0back	Block1	0back/STIM_018.jpg
670.516	0.619	1	0back	Block1	0back/STIM_019.jpg
674.521	0.566	1	0back	Block1	0back/STIM_019.jpg
678.684	0.693	1	0back	Block1	0back/STIM_019.jpg
682.039	0.943	1	2back	Block2	2back/STIM_000.jpg
686.512	0.498	1	2back	Block2	2back/STIM_000.jpg
690.261	0.491	1	2back	Block2	2back/STIM_000.jpg
694.183	0.823	1	2back	Block2	2back/STIM_001.jpg
698.251	0.839	1	2back	Block2	2back/STIM_001.jpg
702.769	0.956	1	2back	Block2	2back/STIM_001.jpg
705.88	1.095	1	2back	Block2	2back/STIM_002.jpg
709.252	0.64	1	2back	Block2	2back/STIM_002.jpg
712.403	0.43	1	2back	Block2	2back/STIM_002.jpg
716.099	0.772	1	2back	Block2	2back/STIM_003.jpg
719.785	0.892	1	2back	Block2	2back/STIM_003.jpg
722.803	0.74	1	2back	Block2	2back/STIM_003.jpg
726.018	0.663	0	2back	Block2	2back/STIM_004.jpg
728.728	1.038	1	2back	Block2	2back/STIM_004.jpg
733.081	0.847	1	2back	Block2	2back/STIM_004.jpg
736.912	0.52	1	2back	Block2	2back/STIM_005.jpg
739.986	0.97	1	2back	Block2	2back/STIM_005.jpg
743.111	0.861	1	2back	Block2	2back/STIM_005.jpg
746.66	0.76	1	2back	Block2	2back/STIM_006.jpg
749.907	0.865	1	2back	Block2	2back/STIM_006.jpg
754.061	0.775	1	2back	Block2	2back/STIM_006.jpg
757.265	0.734	1	2back	Block2	2back/STIM_007.jpg
761.857	0.604	1	2back	Block2	2back/STIM_007.jpg
764.494	0.582	1	2back	Block2	2back/STIM_007.jpg
768.116	0.583	1	2back	Block2	2back/STIM_008.jpg
772.285	0.558	1	2back	Block2	2back/STIM_008.jpg
775.627	0.441	1	2back	Block2	2back/STIM_008.jpg
779.956	0.847	1	2back	Block2	2back/STIM_009.jpg
783.502	0.943	1	2back	Block2	2back/STIM_009.jpg
787.22	0.799	1	2back	Block2	2back/STIM_009.jpg
791.308	0.952	1	2back	Block2	2back/STIM_010.jpg
795.906	0.856	1	2back	Block2	2back/STIM_010.jpg
799.768	0.968	1	2back	Block2	2back/STIM_010.jpg
803.611	0.537	1	2back	Block2	2back/STIM_011.jpg
806.478	0.578	1	2back	Block2	2back/STIM_011.jpg
809.932	0.611	1	2back	Block2	2back/STIM_011.jpg
813.778	0.69	1	2back	Block2	2back/STIM_012.jpg
816.876	0.98	1	2back	Block2	2back/STIM_012.jpg
820.535	0.88	1	2back	Block2	2back/STIM_012.jpg
824.505	0.664	1	2back	Block2	2back/STIM_013.jpg
828.111	0.664	1	2back	Block2	2back/STIM_013.jpg
832.241	0.684	1	2back	Block2	2back/STIM_013.jpg
835.039	0.59	1	2back	Block2	2back/STIM_014.jpg
839.493	0.819	1	2back	Block2	2back/STIM_014.jpg
843.761	0.469	1	2back	Block2	2back/STIM_014.jpg
847.202	0.756	1	2back	Block2	2back/STIM_015.jpg
851.845	1.026	1	2back	Block2	2back/STIM_015.jpg
855.247	0.954	1	2back	Block2	2back/STIM_015.jpg
859.212	0.841	1	2back	Block2	2back/STIM_016.jpg
863.885	1.036	1	2back	Block2	2back/STIM_016.jpg
868.629	0.952	1	2back	Block2	2back/STIM_016.jpg
872.636	0.693	1	2back	Block2	2back/STIM_017.jpg
875.417	0.632	1	2back	Block2	2back/STIM_017.jpg
879.028	0.853	1	2back	Block2	2back/STIM_017.jpg
883.59	1.082	1	2back	Block2	2back/STIM_018.jpg
888.209	0.504	1	2back	Block2	2back/STIM_018.jpg
892.449	0.56	1	2back	Block2	2back/STIM_018.jpg
895.45	0.954	1	2back	Block2	2back/STIM_019.jpg
899.971	0.557	1	2back	Block2	2back/STIM_019.jpg
904.516	0.768	1	2back	Block2	2back/STIM_019.jpg
907.605	0.87	1	2back	Block2	2back/STIM_020.jpg
911.23	0.784	1	2back	Block2	2back/STIM_020.jpg
915.892	0.703	1	2back	Block2	2back/STIM_020.jpg
919.813	0.561	1	2back	Block2	2back/STIM_021.jpg
923.724	0.485	1	2back	Block2	2back/STIM_021.jpg
927.176	0.841	0	2back	Block2	2back/STIM_021.jpg
930.096	0.704	1	2back	Block2	2back/STIM_022.jpg
934.041	1.018	1	2back	Block2	2back/STIM_022.jpg
938.282	0.869	1	2back	Block2	2back/STIM_022.jpg
943.106	0.601	0	2back	Block2	2back/STIM_023.jpg
946.325	0.813	0	2back	Block2	2back/STIM_023.jpg
949.921	0.894	1	2back	Block2	2back/STIM_023.jpg
953.789	0.635	1	2back	Block2	2back/STIM_024.jpg
958.39	0.772	1	2back	Block2	2back/STIM_024.jpg
963.008	0.819	1	2back	Block2	2back/STIM_024.jpg
966.238	0.719	1	2back	Block2	2back/STIM_025.jpg
970.615	0.767	1	2back	Block2	2back/STIM_025.jpg
974.66	0.509	1	2back	Block2	2back/STIM_025.jpg
978.446	0.617	1	2back	Block2	2back/STIM_026.jpg
981.333	0.492	1	2back	Block2	2back/STIM_026.jpg
985.355	0.54	1	2back	Block2	2back/STIM_026.jpg
989.059	0.906	1	2back	Block2	2back/STIM_027.jpg
992.957	0.502	1	2back	Block2	2back/STIM_027.jpg
996.36	0.952	1	2back	Block2	2back/STIM_027.jpg
999.885	0.893	1	2back	Block2	2back/STIM_028.jpg
1003.495	0.598	1	2back	Block2	2back/STIM_028.jpg
1007.37	0.803	1	2back	Block2	2back/STIM_028.jpg
1012.106	0.596	1	2back	Block2	2back/STIM_029.jpg
1014.815	0.572	1	2back	Block2	2back/STIM_029.jpg
1018.495	0.767	1	2back	Block2	2back/STIM_029.jpg
1021.848	0.981	1	2back	Block2	2back/STIM_030.jpg
1025.797	0.492	1	2back	Block2	2back/STIM_030.jpg
1028.591	0.976	1	2back	Block2	2back/STIM_030.jpg
1032.755	1.102	1	2back	Block2	2back/STIM_031.jpg
1037.11	0.807	1	2back	Block2	2back/STIM_031.jpg
1041.685	0.934	1	2back	Block2	2back/STIM_031.jpg
1045.28	0.504	1	2back	Block2	2back/STIM_032.jpg
1049.443	1.011	1	2back	Block2	2back/STIM_032.jpg
1053.653	0.454	1	2back	Block2	2back/STIM_032.jpg
1056.181	0.88	1	2back	Block2	2back/STIM_033.jpg
1060.384	0.704	1	2back	Block2	2back/STIM_033.jpg
1063.663	0.943	1	2back	Block2	2back/STIM_033.jpg
1068.389	1.09	1	2back	Block2	2back/STIM_034.jpg
1071.755	0.876	1	2back	Block2	2back/STIM_034.jpg
1076.363	0.725	1	2back	Block2	2back/STIM_034.jpg
1080.69	0.638	1	2back	Block2	2back/STIM_035.jpg
1084.637	0.524	1	2back	Block2	2back/STIM_035.jpg
1087.458	0.951	1	2back	Block2	2back/STIM_035.jpg
1091.295	0.526	1	2back	Block2	2back/STIM_036.jpg
1095.308	0.871	1	2back	Block2	2back/STIM_036.jpg
1098.585	0.64	1	2back	Block2	2back/STIM_036.jpg
1103.05	0.66	1	2back	Block2	2back/STIM_037.jpg
1107.512	1.017	1	2back	Block2	2back/STIM_037.jpg
1111.151	0.821	1	2back	Block2	2back/STIM_037.jpg
1115.349	0.496	1	2back	Block2	2back/STIM_038.jpg
1118.693	0.755	1	2back	Block2	2back/STIM_038.jpg
1122.493	0.692	1	2back	Block2	2back/STIM_038.jpg
1125.215	0.707	1	2back	Block2	2back/STIM_039.jpg
1128.254	0.897	1	2back	Block2	2back/STIM_039.jpg
1132.749	0.567	1	2back	Block2	2back/STIM_039.jpg
1135.844	0.679	1	0back	Block2	0back/STIM_000.jpg
1138.868	0.614	1	0back	Block2	0back/STIM_000.jpg
1142.04	0.427	1	0back	Block2	0back/STIM_000.jpg
1144.682	0.443	1	0back	Block2	0back/STIM_001.jpg
1147.754	0.735	1	0back	Block2	0back/STIM_001.jpg
1150.519	0.698	1	0back	Block2	0back/STIM_001.jpg
1154.213	0.67	1	0back	Block2	0back/STIM_002.jpg
1157.064	0.416	1	0back	Block2	0back/STIM_002.jpg
1160.506	0.656	1	0back	Block2	0back/STIM_002.jpg
1164.102	0.67	1	0back	Block2	0back/STIM_003.jpg
1168.149	0.664	1	0back	Block2	0back/STIM_003.jpg
1172.218	0.686	1	0back	Block2	0back/STIM_003.jpg
1175.463	0.664	1	0back	Block2	0back/STIM_004.jpg
1178.413	0.382	1	0back	Block2	0back/STIM_004.jpg
1182.39	0.642	1	0back	Block2	0back/STIM_004.jpg
1187.009	0.62	1	0back	Block2	0back/STIM_005.jpg
1191.014	0.593	1	0back	Block2	0back/STIM_005.jpg
1194.64	0.387	1	0back	Block2	0back/STIM_005.jpg
1197.828	0.519	1	0back	Block2	0back/STIM_006.jpg
1201.57	0.46	1	0back	Block2	0back/STIM_006.jpg
1205.5	0.403	1	0back	Block2	0back/STIM_006.jpg
1209.378	0.632	1	0back	Block2	0back/STIM_007.jpg
1212.423	0.597	1	0back	Block2	0back/STIM_007.jpg
1216.784	0.716	1	0back	Block2	0back/STIM_007.jpg
1221.161	0.685	1	0back	Block2	0back/STIM_008.jpg
1225.761	0.661	1	0back	Block2	0back/STIM_008.jpg
1230.126	0.396	1	0back	Block2	0back/STIM_008.jpg
1233.144	0.481	1	0back	Block2	0back/STIM_009.jpg
1237.385	0.551	1	0back	Block2	0back/STIM_009.jpg
1241.67	0.702	1	0back	Block2	0back/STIM_009.jpg
1244.834	0.586	1	0back	Block2	0back/STIM_010.jpg
1248.383	0.489	1	0back	Block2	0back/STIM_010.jpg
1252.328	0.521	1	0back	Block2	0back/STIM_010.jpg
1254.963	0.699	1	0back	Block2	0back/STIM_011.jpg
1257.793	0.744	1	0back	Block2	0back/STIM_011.jpg
1261.746	0.723	1	0back	Block2	0back/STIM_011.jpg
1266.344	0.683	1	0back	Block2	0back/STIM_012.jpg
1270.875	0.659	1	0back	Block2	0back/STIM_012.jpg
1273.92	0.491	1	0back	Block2	0back/STIM_012.jpg
1277.542	0.565	1	0back	Block2	0back/STIM_013.jpg
1280.112	0.395	1	0back	Block2	0back/STIM_013.jpg
1283.261	0.523	1	0back	Block2	0back/STIM_013.jpg
1286.677	0.552	1	0back	Block2	0back/STIM_014.jpg
1291.079	0.379	1	0back	Block2	0back/STIM_014.jpg
1293.957	0.539	1	0back	Block2	0back/STIM_014.jpg
1296.955	0.657	1	0back	Block2	0back/STIM_015.jpg
1301.193	0.47	1	0back	Block2	0back/STIM_015.jpg
1304.409	0.391	1	0back	Block2	0back/STIM_015.jpg
1307.474	0.614	1	0back	Block2	0back/STIM_016.jpg
1311.444	0.559	1	0back	Block2	0back/STIM_016.jpg
1314.294	0.584	1	0back	Block2	0back/STIM_016.jpg
1317.37	0.464	1	0back	Block2	0back/STIM_017.jpg
1321.821	0.734	1	0back	Block2	0back/STIM_017.jpg
1326.344	0.393	1	0back	Block2	0back/STIM_017.jpg
1328.846	0.478	1	0back	Block2	0back/STIM_018.jpg
1331.414	0.555	1	0back	Block2	0back/STIM_018.jpg
1334.989	0.406	1	0back	Block2	0back/STIM_018.jpg
1337.563	0.567	1	0back	Block2	0back/STIM_019.jpg
1340.848	0.746	1	0back	Block2	0back/STIM_019.jpg
1344.819	0.463	1	0back	Block2	0back/STIM_019.jpg
1347.304	0.446	1	2back	Block3	2back/STIM_000.jpg
1350.655	0.431	1	2back	Block3	2back/STIM_000.jpg
1353.676	0.634	1	2back	Block3	2back/STIM_000.jpg
1357.996	0.561	1	2back	Block3	2back/STIM_001.jpg
1362.093	0.5	1	2back	Block3	2back/STIM_001.jpg
1365.93	0.556	1	2back	Block3	2back/STIM_001.jpg
1370.123	0.587	1	2back	Block3	2back/STIM_002.jpg
1373.456	0.608	1	2back	Block3	2back/STIM_002.jpg
1377.354	0.605	1	2back	Block3	2back/STIM_002.jpg
1381.434	0.537	1	2back	Block3	2back/STIM_003.jpg
1384.319	0.596	1	2back	Block3	2back/STIM_003.jpg
1387.948	0.474	0	2back	Block3	2back/STIM_003.jpg
1392.149	0.463	1	2back	Block3	2back/STIM_004.jpg
1396.321	0.482	1	2back	Block3	2back/STIM_004.jpg
1399.828	0.775	1	2back	Block3	2back/STIM_004.jpg
1404.329	0.477	1	2back	Block3	2back/STIM_005.jpg
1407.219	0.647	1	2back	Block3	2back/STIM_005.jpg
1411.14	0.524	1	2back	Block3	2back/STIM_005.jpg
1415.391	0.869	1	2back	Block3	2back/STIM_006.jpg
1418.44	0.68	1	2back	Block3	2back/STIM_006.jpg
1421.196	0.687	1	2back	Block3	2back/STIM_006.jpg
1424.019	0.712	1	2back	Block3	2back/STIM_007.jpg
1426.859	0.771	1	2back	Block3	2back/STIM_007.jpg
1429.936	0.785	1	2back	Block3	2back/STIM_007.jpg
1433.482	0.642	1	2back	Block3	2back/STIM_008.jpg
1438.079	0.813	1	2back	Block3	2back/STIM_008.jpg
1442.537	0.518	1	2back	Block3	2back/STIM_008.jpg
1445.789	0.631	1	2back	Block3	2back/STIM_009.jpg
1450.339	0.843	1	2back	Block3	2back/STIM_009.jpg
1455.177	0.41	1	2back	Block3	2back/STIM_009.jpg
1459.253	0.71	1	2back	Block3	2back/STIM_010.jpg
1463.576	0.845	1	2back	Block3	2back/STIM_010.jpg
1468.057	0.753	1	2back	Block3	2back/STIM_010.jpg
1471.297	0.744	1	2back	Block3	2back/STIM_011.jpg
1474.14	0.63	1	2back	Block3	2back/STIM_011.jpg
1477.758	0.572	1	2back	Block3	2back/STIM_011.jpg
1480.717	0.434	1	2back	Block3	2back/STIM_012.jpg
1484.689	0.459	0	2back	Block3	2back/STIM_012.jpg
1487.705	0.397	1	2back	Block3	2back/STIM_012.jpg
1492.092	0.767	1	2back	Block3	2back/STIM_013.jpg
1495.108	0.798	1	2back	Block3	2back/STIM_013.jpg
1498.466	0.807	1	2back	Block3	2back/STIM_013.jpg
1501.682	0.796	1	2back	Block3	2back/STIM_014.jpg
1505.864	0.897	1	2back	Block3	2back/STIM_014.jpg
1508.905	0.77	1	2back	Block3	2back/STIM_014.jpg
1511.869	0.412	1	2back	Block3	2back/STIM_015.jpg
1514.839	0.573	1	2back	Block3	2back/STIM_015.jpg
1518.428	0.855	1	2back	Block3	2back/STIM_015.jpg
1523.155	0.804	1	2back	Block3	2back/STIM_016.jpg
1527.59	0.843	1	2back	Block3	2back/STIM_016.jpg
1530.669	0.796	1	2back	Block3	2back/STIM_016.jpg
1533.767	0.495	1	2back	Block3	2back/STIM_017.jpg
1536.595	0.693	1	2back	Block3	2back/STIM_017.jpg
1541.054	0.567	1	2back	Block3	2back/STIM_017.jpg
1543.791	0.897	0	2back	Block3	2back/STIM_018.jpg
1546.917	0.623	1	2back	Block3	2back/STIM_018.jpg
1550.206	0.423	1	2back	Block3	2back/STIM_018.jpg
1554.425	0.525	1	2back	Block3	2back/STIM_019.jpg
1558.266	0.705	1	2back	Block3	2back/STIM_019.jpg
1562.61	0.617	0	2back	Block3	2back/STIM_019.jpg
1565.965	0.411	1	2back	Block3	2back/STIM_020.jpg
1569.209	0.405	1	2back	Block3	2back/STIM_020.jpg
1573.346	0.566	1	2back	Block3	2back/STIM_020.jpg
1576.853	0.749	1	2back	Block3	2back/STIM_021.jpg
1580.197	0.91	1	2back	Block3	2back/STIM_021.jpg
1584.053	0.665	1	2back	Block3	2back/STIM_021.jpg
1588.63	0.437	1	2back	Block3	2back/STIM_022.jpg
1592.585	0.899	1	2back	Block3	2back/STIM_022.jpg
1596.115	0.502	1	2back	Block3	2back/STIM_022.jpg
1599.649	0.804	1	2back	Block3	2back/STIM_023.jpg
1604.12	0.401	1	2back	Block3	2back/STIM_023.jpg
1607.795	0.539	1	2back	Block3	2back/STIM_023.jpg
1611.328	0.892	1	2back	Block3	2back/STIM_024.jpg
1614.39	0.736	1	2back	Block3	2back/STIM_024.jpg
1617.362	0.826	1	2back	Block3	2back/STIM_024.jpg
1621.714	0.465	1	2back	Block3	2back/STIM_025.jpg
1625.708	0.561	1	2back	Block3	2back/STIM_025.jpg
1629.866	0.624	1	2back	Block3	2back/STIM_025.jpg
1633.669	0.552	1	2back	Block3	2back/STIM_026.jpg
1638.078	0.86	1	2back	Block3	2back/STIM_026.jpg
1642.208	0.787	1	2back	Block3	2back/STIM_026.jpg
1646.431	0.812	1	2back	Block3	2back/STIM_027.jpg
1649.956	0.711	1	2back	Block3	2back/STIM_027.jpg
1652.917	0.597	1	2back	Block3	2back/STIM_027.jpg
1657.177	0.441	1	2back	Block3	2back/STIM_028.jpg
1660.775	0.63	1	2back	Block3	2back/STIM_028.jpg
1663.907	0.76	1	2back	Block3	2back/STIM_028.jpg
1668.389	0.613	1	2back	Block3	2back/STIM_029.jpg
1671.995	0.595	1	2back	Block3	2back/STIM_029.jpg
1676.369	0.538	1	2back	Block3	2back/STIM_029.jpg
1678.912	0.765	1	2back	Block3	2back/STIM_030.jpg
1681.834	0.889	1	2back	Block3	2back/STIM_030.jpg
1685.839	0.715	1	2back	Block3	2back/STIM_030.jpg
1690.071	0.591	1	2back	Block3	2back/STIM_031.jpg
1693.749	0.884	1	2back	Block3	2back/STIM_031.jpg
1697.918	0.824	1	2back	Block3	2back/STIM_031.jpg
1702.455	0.587	1	2back	Block3	2back/STIM_032.jpg
1705.27	0.632	1	2back	Block3	2back/STIM_032.jpg
1708.506	0.857	1	2back	Block3	2back/STIM_032.jpg
1711.855	0.82	1	2back	Block3	2back/STIM_033.jpg
1715.05	0.651	1	2back	Block3	2back/STIM_033.jpg
1719.339	0.779	1	2back	Block3	2back/STIM_033.jpg
1723.74	0.911	1	2back	Block3	2back/STIM_034.jpg
1728.108	0.788	1	2back	Block3	2back/STIM_034.jpg
1732.507	0.633	1	2back	Block3	2back/STIM_034.jpg
1736.48	0.688	1	2back	Block3	2back/STIM_035.jpg
1740.37	0.443	1	2back	Block3	2back/STIM_035.jpg
1744.272	0.886	1	2back	Block3	2back/STIM_035.jpg
1748.896	0.492	1	2back	Block3	2back/STIM_036.jpg
1752.664	0.584	1	2back	Block3	2back/STIM_036.jpg
1755.743	0.84	1	2back	Block3	2back/STIM_036.jpg
1759.044	0.817	1	2back	Block3	2back/STIM_037.jpg
1763.276	0.639	1	2back	Block3	2back/STIM_037.jpg
1767.744	0.611	1	2back	Block3	2back/STIM_037.jpg
1771.523	0.444	1	2back	Block3	2back/STIM_038.jpg
1773.977	0.576	1	2back	Block3	2back/STIM_038.jpg
1778.481	0.736	1	2back	Block3	2back/STIM_038.jpg
1782.141	0.638	1	2back	Block3	2back/STIM_039.jpg
1785.686	0.851	1	2back	Block3	2back/STIM_039.jpg
1789.196	0.543	1	2back	Block3	2back/STIM_039.jpg
1793.226	0.699	1	0back	Block3	0back/STIM_000.jpg
1797.118	0.617	1	0back	Block3	0back/STIM_000.jpg
1801.346	0.649	1	0back	Block3	0back/STIM_000.jpg
1805.223	0.509	1	0back	Block3	0back/STIM_001.jpg
1809.694	0.429	1	0back	Block3	0back/STIM_001.jpg
1814.021	0.391	1	0back	Block3	0back/STIM_001.jpg
1817.606	0.731	1	0back	Block3	0back/STIM_002.jpg
1821.269	0.4	1	0back	Block3	0back/STIM_002.jpg
1824.338	0.474	1	0back	Block3	0back/STIM_002.jpg
1827.723	0.669	1	0back	Block3	0back/STIM_003.jpg
1832.085	0.564	1	0back	Block3	0back/STIM_003.jpg
1835.587	0.378	1	0back	Block3	0back/STIM_003.jpg
1838.389	0.683	1	0back	Block3	0back/STIM_004.jpg
1842.975	0.5	0	0back	Block3	0back/STIM_004.jpg
1847.278	0.437	1	0back	Block3	0back/STIM_004.jpg
1850.986	0.692	1	0back	Block3	0back/STIM_005.jpg
1854.156	0.519	1	0back	Block3	0back/STIM_005.jpg
1857.065	0.601	1	0back	Block3	0back/STIM_005.jpg
1860.414	0.684	1	0back	Block3	0back/STIM_006.jpg
1864.312	0.747	1	0back	Block3	0back/STIM_006.jpg
1868.619	0.632	1	0back	Block3	0back/STIM_006.jpg
1872.307	0.464	1	0back	Block3	0back/STIM_007.jpg
1875.421	0.726	1	0back	Block3	0back/STIM_007.jpg
1879.546	0.429	1	0back	Block3	0back/STIM_007.jpg
1882.35	0.407	1	0back	Block3	0back/STIM_008.jpg
1886.71	0.532	1	0back	Block3	0back/STIM_008.jpg
1890.396	0.512	1	0back	Block3	0back/STIM_008.jpg
1893.41	0.682	1	0back	Block3	0back/STIM_009.jpg
1896.878	0.539	1	0back	Block3	0back/STIM_009.jpg
1899.857	0.454	1	0back	Block3	0back/STIM_009.jpg
1903.502	0.727	1	0back	Block3	0back/STIM_010.jpg
1906.407	0.731	1	0back	Block3	0back/STIM_010.jpg
1909.777	0.463	1	0back	Block3	0back/STIM_010.jpg
1914.005	0.664	1	0back	Block3	0back/STIM_011.jpg
1917.16	0.619	1	0back	Block3	0back/STIM_011.jpg
1921.541	0.508	1	0back	Block3	0back/STIM_011.jpg
1925.743	0.546	1	0back	Block3	0back/STIM_012.jpg
1928.77	0.472	1	0back	Block3	0back/STIM_012.jpg
1933.044	0.673	1	0back	Block3	0back/STIM_012.jpg
1937.359	0.559	1	0back	Block3	0back/STIM_013.jpg
1941.743	0.597	1	0back	Block3	0back/STIM_013.jpg
1945.915	0.444	1	0back	Block3	0back/STIM_013.jpg
1949.413	0.576	1	0back	Block3	0back/STIM_014.jpg
1953.903	0.496	1	0back	Block3	0back/STIM_014.jpg
1957.658	0.563	1	0back	Block3	0back/STIM_014.jpg
1960.829	0.504	1	0back	Block3	0back/STIM_015.jpg
1964.186	0.482	1	0back	Block3	0back/STIM_015.jpg
1967.911	0.653	1	0back	Block3	0back/STIM_015.jpg
1970.631	0.415	1	0back	Block3	0back/STIM_016.jpg
1975.036	0.725	1	0back	Block3	0back/STIM_016.jpg
1978.312	0.506	1	0back	Block3	0back/STIM_016.jpg
1982.032	0.392	1	0back	Block3	0back/STIM_017.jpg
1986.074	0.528	1	0back	Block3	0back/STIM_017.jpg
1988.987	0.521	1	0back	Block3	0back/STIM_017.jpg
1993.413	0.571	1	0back	Block3	0back/STIM_018.jpg
1996.188	0.448	1	0back	Block3	0back/STIM_018.jpg
2000.621	0.508	1	0back	Block3	0back/STIM_018.jpg
2004.967	0.529	1	0back	Block3	0back/STIM_019.jpg
2008.353	0.738	1	0back	Block3	0back/STIM_019.jpg
2011.94	0.587	1	0back	Block3	0back/STIM_019.jpg
2016.223	0.77	1	2back	Block4	2back/STIM_000.jpg
2019.321	0.781	1	2back	Block4	2back/STIM_000.jpg
2023.235	0.784	1	2back	Block4	2back/STIM_000.jpg
2026.733	0.891	1	2back	Block4	2back/STIM_001.jpg
2031.311	0.776	1	2back	Block4	2back/STIM_001.jpg
2035.134	0.799	1	2back	Block4	2back/STIM_001.jpg
2039.574	0.85	1	2back	Block4	2back/STIM_002.jpg
2042.913	0.426	1	2back	Block4	2back/STIM_002.jpg
2046.918	0.734	1	2back	Block4	2back/STIM_002.jpg
2050.705	0.549	1	2back	Block4	2back/STIM_003.jpg
2053.67	0.913	1	2back	Block4	2back/STIM_003.jpg
2056.733	0.393	1	2back	Block4	2back/STIM_003.jpg
2060.017	0.821	1	2back	Block4	2back/STIM_004.jpg
2064.097	0.722	1	2back	Block4	2back/STIM_004.jpg
2066.944	0.631	1	2back	Block4	2back/STIM_004.jpg
2071.369	0.654	1	2back	Block4	2back/STIM_005.jpg
2075.392	0.913	1	2back	Block4	2back/STIM_005.jpg
2080.066	0.89	1	2back	Block4	2back/STIM_005.jpg
2083.485	0.577	1	2back	Block4	2back/STIM_006.jpg
2087.933	0.536	1	2back	Block4	2back/STIM_006.jpg
2090.986	0.455	1	2back	Block4	2back/STIM_006.jpg
2094.392	0.458	1	2back	Block4	2back/STIM_007.jpg
2097.972	0.852	1	2back	Block4	2back/STIM_007.jpg
2101.826	0.405	1	2back	Block4	2back/STIM_007.jpg
2104.25	0.676	1	2back	Block4	2back/STIM_008.jpg
2108.573	0.5	1	2back	Block4	2back/STIM_008.jpg
2111.99	0.481	1	2back	Block4	2back/STIM_008.jpg
2115.154	0.776	1	2back	Block4	2back/STIM_009.jpg
2119.509	0.738	1	2back	Block4	2back/STIM_009.jpg
2122.382	0.686	1	2back	Block4	2back/STIM_009.jpg
2126.046	0.491	1	2back	Block4	2back/STIM_010.jpg
2130.039	0.738	1	2back	Block4	2back/STIM_010.jpg
2132.847	0.867	1	2back	Block4	2back/STIM_010.jpg
2136.761	0.795	1	2back	Block4	2back/STIM_011.jpg
2139.674	0.761	1	2back	Block4	2back/STIM_011.jpg
2142.708	0.493	1	2back	Block4	2back/STIM_011.jpg
2146.41	0.882	1	2back	Block4	2back/STIM_012.jpg
2150.327	0.657	1	2back	Block4	2back/STIM_012.jpg
2154.981	0.657	1	2back	Block4	2back/STIM_012.jpg
2158.058	0.854	1	2back	Block4	2back/STIM_013.jpg
2161.216	0.82	1	2back	Block4	2back/STIM_013.jpg
2164.152	0.465	1	2back	Block4	2back/STIM_013.jpg
2166.869	0.574	1	2back	Block4	2back/STIM_014.jpg
2170.404	0.554	1	2back	Block4	2back/STIM_014.jpg
2173.852	0.8	1	2back	Block4	2back/STIM_014.jpg
2178.292	0.865	1	2back	Block4	2back/STIM_015.jpg
2182.25	0.898	1	2back	Block4	2back/STIM_015.jpg
2186.779	0.396	1	2back	Block4	2back/STIM_015.jpg
2190.899	0.576	1	2back	Block4	2back/STIM_016.jpg
2193.552	0.403	1	2back	Block4	2back/STIM_016.jpg
2196.768	0.706	1	2back	Block4	2back/STIM_016.jpg
2200.328	0.827	1	2back	Block4	2back/STIM_017.jpg
2203.749	0.422	1	2back	Block4	2back/STIM_017.jpg
2206.631	0.598	1	2back	Block4	2back/STIM_017.jpg
2209.593	0.556	1	2back	Block4	2back/STIM_018.jpg
2212.875	0.827	1	2back	Block4	2back/STIM_018.jpg
2217.56	0.627	1	2back	Block4	2back/STIM_018.jpg
2220.938	0.885	1	2back	Block4	2back/STIM_019.jpg
2225.765	0.517	1	2back	Block4	2back/STIM_019.jpg
2230.149	0.61	1	2back	Block4	2back/STIM_019.jpg
2234.147	0.501	1	2back	Block4	2back/STIM_020.jpg
2237.605	0.89	1	2back	Block4	2back/STIM_020.jpg
2240.852	0.679	1	2back	Block4	2back/STIM_020.jpg
2244.728	0.706	1	2back	Block4	2back/STIM_021.jpg
2248.136	0.545	1	2back	Block4	2back/STIM_021.jpg
2251.227	0.574	1	2back	Block4	2back/STIM_021.jpg
2253.823	0.605	1	2back	Block4	2back/STIM_022.jpg
2258.266	0.588	1	2back	Block4	2back/STIM_022.jpg
2262.742	0.562	1	2back	Block4	2back/STIM_022.jpg
2265.77	0.634	1	2back	Block4	2back/STIM_023.jpg
2269.695	0.839	1	2back	Block4	2back/STIM_023.jpg
2272.737	0.565	1	2back	Block4	2back/STIM_023.jpg
2276.004	0.658	1	2back	Block4	2back/STIM_024.jpg
2279.028	0.532	1	2back	Block4	2back/STIM_024.jpg
2282.164	0.614	1	2back	Block4	2back/STIM_024.jpg
2286.49	0.447	1	2back	Block4	2back/STIM_025.jpg
2289.009	0.799	1	2back	Block4	2back/STIM_025.jpg
2293.018	0.633	1	2back	Block4	2back/STIM_025.jpg
2296.791	0.586	1	2back	Block4	2back/STIM_026.jpg
2300.646	0.516	1	2back	Block4	2back/STIM_026.jpg
2304.893	0.847	1	2back	Block4	2back/STIM_026.jpg
2308.215	0.684	1	2back	Block4	2back/STIM_027.jpg
2312.056	0.853	1	2back	Block4	2back/STIM_027.jpg
2316.42	0.61	1	2back	Block4	2back/STIM_027.jpg
2320.006	0.692	1	2back	Block4	2back/STIM_028.jpg
2324.245	0.41	1	2back	Block4	2back/STIM_028.jpg
2327.377	0.713	1	2back	Block4	2back/STIM_028.jpg
2331.39	0.404	1	2back	Block4	2back/STIM_029.jpg
2335.432	0.64	1	2back	Block4	2back/STIM_029.jpg
2338.433	0.419	1	2back	Block4	2back/STIM_029.jpg
2341.886	0.418	1	2back	Block4	2back/STIM_030.jpg
2345.254	0.769	1	2back	Block4	2back/STIM_030.jpg
2349.059	0.411	1	2back	Block4	2back/STIM_030.jpg
2352.251	0.871	1	2back	Block4	2back/STIM_031.jpg
2356.436	0.453	1	2back	Block4	2back/STIM_031.jpg
2360.717	0.62	1	2back	Block4	2back/STIM_031.jpg
2363.51	0.619	1	2back	Block4	2back/STIM_032.jpg
2366.732	0.807	1	2back	Block4	2back/STIM_032.jpg
2371.202	0.392	1	2back	Block4	2back/STIM_032.jpg
2374.989	0.8	1	2back	Block4	2back/STIM_033.jpg
2379.752	0.884	1	2back	Block4	2back/STIM_033.jpg
2383.134	0.899	1	2back	Block4	2back/STIM_033.jpg
2386.355	0.516	1	2back	Block4	2back/STIM_034.jpg
2389.2	0.747	1	2back	Block4	2back/STIM_034.jpg
2393.223	0.513	1	2back	Block4	2back/STIM_034.jpg
2396.415	0.68	1	2back	Block4	2back/STIM_035.jpg
2399.498	0.735	1	2back	Block4	2back/STIM_035.jpg
2403.23	0.713	1	2back	Block4	2back/STIM_035.jpg
2407.533	0.429	1	2back	Block4	2back/STIM_036.jpg
2410.298	0.847	1	2back	Block4	2back/STIM_036.jpg
2413.913	0.85	1	2back	Block4	2back/STIM_036.jpg
2418.198	0.632	1	2back	Block4	2back/STIM_037.jpg
2421.932	0.814	1	2back	Block4	2back/STIM_037.jpg
2425.939	0.478	1	2back	Block4	2back/STIM_037.jpg
2429.153	0.768	1	2back	Block4	2back/STIM_038.jpg
2433.261	0.864	1	2back	Block4	2back/STIM_038.jpg
2438.067	0.496	1	2back	Block4	2back/STIM_038.jpg
2441.883	0.486	1	2back	Block4	2back/STIM_039.jpg
2445.652	0.526	1	2back	Block4	2back/STIM_039.jpg
2448.387	0.541	1	2back	Block4	2back/STIM_039.jpg
2451.642	0.667	1	0back	Block4	0back/STIM_000.jpg
2456.144	0.47	1	0back	Block4	0back/STIM_000.jpg
2459.93	0.437	1	0back	Block4	0back/STIM_000.jpg
2464.307	0.477	1	0back	Block4	0back/STIM_001.jpg
2468.747	0.469	1	0back	Block4	0back/STIM_001.jpg
2471.926	0.638	1	0back	Block4	0back/STIM_001.jpg
2475.655	0.389	1	0back	Block4	0back/STIM_002.jpg
2478.882	0.501	1	0back	Block4	0back/STIM_002.jpg
2482.771	0.501	1	0back	Block4	0back/STIM_002.jpg
2485.36	0.703	1	0back	Block4	0back/STIM_003.jpg
2489.226	0.435	1	0back	Block4	0back/STIM_003.jpg
2493.428	0.698	1	0back	Block4	0back/STIM_003.jpg
2496.415	0.568	0	0back	Block4	0back/STIM_004.jpg
2499.663	0.612	1	0back	Block4	0back/STIM_004.jpg
2503.89	0.434	1	0back	Block4	0back/STIM_004.jpg
2507.759	0.47	1	0back	Block4	0back/STIM_005.jpg
2511.778	0.505	1	0back	Block4	0back/STIM_005.jpg
2514.922	0.671	1	0back	Block4	0back/STIM_005.jpg
2519.431	0.585	1	0back	Block4	0back/STIM_006.jpg
2522.533	0.642	1	0back	Block4	0back/STIM_006.jpg
2526.146	0.392	1	0back	Block4	0back/STIM_006.jpg
2528.635	0.541	1	0back	Block4	0back/STIM_007.jpg
2532.5	0.674	1	0back	Block4	0back/STIM_007.jpg
2535.339	0.525	1	0back	Block4	0back/STIM_007.jpg
2537.938	0.551	1	0back	Block4	0back/STIM_008.jpg
2540.594	0.722	1	0back	Block4	0back/STIM_008.jpg
2543.878	0.605	1	0back	Block4	0back/STIM_008.jpg
2548.392	0.618	1	0back	Block4	0back/STIM_009.jpg
2553.004	0.743	1	0back	Block4	0back/STIM_009.jpg
2555.823	0.667	1	0back	Block4	0back/STIM_009.jpg
2559.665	0.518	1	0back	Block4	0back/STIM_010.jpg
2563.483	0.474	1	0back	Block4	0back/STIM_010.jpg
2567.788	0.703	1	0back	Block4	0back/STIM_010.jpg
2570.731	0.524	1	0back	Block4	0back/STIM_011.jpg
2573.295	0.443	1	0back	Block4	0back/STIM_011.jpg
2576.063	0.737	1	0back	Block4	0back/STIM_011.jpg
2580.3	0.395	1	0back	Block4	0back/STIM_012.jpg
2583.221	0.735	1	0back	Block4	0back/STIM_012.jpg
2586.027	0.517	1	0back	Block4	0back/STIM_012.jpg
2590.15	0.483	1	0back	Block4	0back/STIM_013.jpg
2592.969	0.427	1	0back	Block4	0back/STIM_013.jpg
2596.795	0.525	1	0back	Block4	0back/STIM_013.jpg
2599.486	0.593	1	0back	Block4	0back/STIM_014.jpg
2603.299	0.564	1	0back	Block4	0back/STIM_014.jpg
2607.507	0.392	1	0back	Block4	0back/STIM_014.jpg
2610.084	0.376	1	0back	Block4	0back/STIM_015.jpg
2613.432	0.38	1	0back	Block4	0back/STIM_015.jpg
2616.78	0.581	1	0back	Block4	0back/STIM_015.jpg
2620.411	0.419	1	0back	Block4	0back/STIM_016.jpg
2623.676	0.579	1	0back	Block4	0back/STIM_016.jpg
2627.463	0.537	1	0back	Block4	0back/STIM_016.jpg
2630.534	0.494	1	0back	Block4	0back/STIM_017.jpg
2633.641	0.588	1	0back	Block4	0back/STIM_017.jpg
2637.378	0.604	1	0back	Block4	0back/STIM_017.jpg
2640.432	0.438	1	0back	Block4	0back/STIM_018.jpg
2643.95	0.536	1	0back	Block4	0back/STIM_018.jpg
2648.09	0.648	1	0back	Block4	0back/STIM_018.jpg
2650.774	0.609	1	0back	Block4	0back/STIM_019.jpg
2653.659	0.704	1	0back	Block4	0back/STIM_019.jpg
2658.263	0.466	1	0back	Block4	0back/STIM_019.jpg
