onset	duration	response_time_ms	trial_type	learning_stage	stimulus	response_port
0.0	1.213	1213.3	2back	Block1	2back/STIM_000.jpg	100
4.021	0.873	872.6	2back	Block1	2back/STIM_000.jpg	99
8.658	1.257	1256.7	2back	Block1	2back/STIM_000.jpg	99
13.455	0.88	879.5	2back	Block1	2back/STIM_001.jpg	100
17.749	1.246	1246.0	2back	Block1	2back/STIM_001.jpg	100
21.785	1.041	1041.1	2back	Block1	2back/STIM_001.jpg	100
26.242	1.108	1108.5	2back	Block1	2back/STIM_002.jpg	100
30.344	1.148	1148.4	2back	Block1	2back/STIM_002.jpg	99
34.503	0.612	612.2	2back	Block1	2back/STIM_002.jpg	100
38.623	0.604	603.9	2back	Block1	2back/STIM_003.jpg	100
41.683	1.282	1281.5	2back	Block1	2back/STIM_003.jpg	100
46.148	0.667	667.3	2back	Block1	2back/STIM_003.jpg	99
49.753	0.662	661.6	2back	Block1	2back/STIM_004.jpg	99
53.71	1.222	1221.7	2back	Block1	2back/STIM_004.jpg	99
58.689	1.206	1205.5	2back	Block1	2back/STIM_004.jpg	99
62.027	1.263	1263.2	2back	Block1	2back/STIM_005.jpg	99
66.242	0.617	616.6	2back	Block1	2back/STIM_005.jpg	99
68.952	0.627	627.3	2back	Block1	2back/STIM_005.jpg	99
72.05	0.633	632.8	2back	Block1	2back/STIM_006.jpg	99
75.245	1.152	1151.7	2back	Block1	2back/STIM_006.jpg	99
79.02	0.591	590.7	2back	Block1	2back/STIM_006.jpg	99
81.933	1.39	1390.5	2back	Block1	2back/STIM_007.jpg	99
86.424	1.04	1040.5	2back	Block1	2back/STIM_007.jpg	100
89.737	0.783	783.3	2back	Block1	2back/STIM_007.jpg	100
93.603	1.073	1073.3	2back	Block1	2back/STIM_008.jpg	99
97.316	1.327	1326.6	2back	Block1	2back/STIM_008.jpg	100
100.695	0.761	761.3	2back	Block1	2back/STIM_008.jpg	99
104.862	0.779	779.3	2back	Block1	2back/STIM_009.jpg	99
108.522	1.164	1163.5	2back	Block1	2back/STIM_009.jpg	99
112.498	0.422	421.9	2back	Block1	2back/STIM_009.jpg	99
116.863	0.907	907.2	2back	Block1	2back/STIM_010.jpg	99
120.279	1.221	1220.7	2back	Block1	2back/STIM_010.jpg	99
125.229	0.87	869.7	2back	Block1	2back/STIM_010.jpg	100
128.95	1.108	1108.2	2back	Block1	2back/STIM_011.jpg	99
132.825	1.086	1086.2	2back	Block1	2back/STIM_011.jpg	100
137.181	0.631	631.4	2back	Block1	2back/STIM_011.jpg	99
141.059	1.19	1190.1	2back	Block1	2back/STIM_012.jpg	99
146.193	1.242	1242.2	2back	Block1	2back/STIM_012.jpg	100
149.885	1.112	1112.5	2back	Block1	2back/STIM_012.jpg	100
154.31	1.112	1112.3	2back	Block1	2back/STIM_013.jpg	100
158.723	1.183	1182.8	2back	Block1	2back/STIM_013.jpg	100
162.522	0.579	578.7	2back	Block1	2back/STIM_013.jpg	100
166.901	0.773	772.6	2back	Block1	2back/STIM_014.jpg	99
170.993	1.003	1003.1	2back	Block1	2back/STIM_014.jpg	99
175.368	1.16	1160.0	2back	Block1	2back/STIM_014.jpg	99
179.78	0.772	772.1	2back	Block1	2back/STIM_015.jpg	100
184.129	0.858	857.9	2back	Block1	2back/STIM_015.jpg	99
188.309	0.66	659.6	2back	Block1	2back/STIM_015.jpg	100
192.044	0.758	758.1	2back	Block1	2back/STIM_016.jpg	100
195.649	0.828	827.5	2back	Block1	2back/STIM_016.jpg	100
199.829	0.694	694.4	2back	Block1	2back/STIM_016.jpg	99
204.433	1.417	1416.6	2back	Block1	2back/STIM_017.jpg	100
209.286	0.619	618.9	2back	Block1	2back/STIM_017.jpg	100
212.469	0.476	475.8	2back	Block1	2back/STIM_017.jpg	99
216.323	1.322	1321.5	2back	Block1	2back/STIM_018.jpg	100
220.194	0.69	689.9	2back	Block1	2back/STIM_018.jpg	99
223.101	1.162	1162.3	2back	Block1	2back/STIM_018.jpg	99
227.419	1.124	1124.4	2back	Block1	2back/STIM_019.jpg	100
231.795	1.256	1256.1	2back	Block1	2back/STIM_019.jpg	100
235.911	1.035	1035.1	2back	Block1	2back/STIM_019.jpg	99
239.905	1.01	1009.7	2back	Block1	2back/STIM_020.jpg	99
243.208	0.754	753.8	2back	Block1	2back/STIM_020.jpg	100
247.637	0.755	755.2	2back	Block1	2back/STIM_020.jpg	100
251.378	0.78	780.0	2back	Block1	2back/STIM_021.jpg	99
256.053	1.202	1201.5	2back	Block1	2back/STIM_021.jpg	99
260.455	1.215	1215.2	2back	Block1	2back/STIM_021.jpg	100
265.463	0.652	652.1	2back	Block1	2back/STIM_022.jpg	99
268.799	1.142	1141.7	2back	Block1	2back/STIM_022.jpg	99
272.675	0.95	949.6	2back	Block1	2back/STIM_022.jpg	99
276.59	0.819	818.7	2back	Block1	2back/STIM_023.jpg	100
280.012	0.804	804.3	2back	Block1	2back/STIM_023.jpg	100
283.534	0.971	970.6	2back	Block1	2back/STIM_023.jpg	99
287.679	0.978	978.1	2back	Block1	2back/STIM_024.jpg	99
291.758	0.971	970.8	2back	Block1	2back/STIM_024.jpg	99
296.4	0.788	787.6	2back	Block1	2back/STIM_024.jpg	100
301.165	0.632	632.4	2back	Block1	2back/STIM_025.jpg	99
304.953	0.708	708.4	2back	Block1	2back/STIM_025.jpg	99
308.684	1.051	1051.3	2back	Block1	2back/STIM_025.jpg	99
313.31	0.629	628.8	2back	Block1	2back/STIM_026.jpg	99
317.613	0.905	905.3	2back	Block1	2back/STIM_026.jpg	100
321.09	1.2	1200.2	2back	Block1	2back/STIM_026.jpg	99
325.466	1.027	1027.0	2back	Block1	2back/STIM_027.jpg	99
329.64	1.245	1245.0	2back	Block1	2back/STIM_027.jpg	100
333.771	1.064	1064.2	2back	Block1	2back/STIM_027.jpg	100
338.355	0.684	684.0	2back	Block1	2back/STIM_028.jpg	99
341.879	1.029	1029.0	2back	Block1	2back/STIM_028.jpg	99
346.488	0.964	964.3	2back	Block1	2back/STIM_028.jpg	99
349.631	1.273	1273.3	2back	Block1	2back/STIM_029.jpg	100
352.996	0.649	648.8	2back	Block1	2back/STIM_029.jpg	100
355.694	1.048	1047.9	2back	Block1	2back/STIM_029.jpg	100
359.346	0.737	737.0	2back	Block1	2back/STIM_030.jpg	99
362.902	0.791	790.9	2back	Block1	2back/STIM_030.jpg	99
367.631	1.002	1001.7	2back	Block1	2back/STIM_030.jpg	100
371.237	1.022	1022.3	2back	Block1	2back/STIM_031.jpg	99
375.738	0.691	690.9	2back	Block1	2back/STIM_031.jpg	99
378.445	0.878	878.2	2back	Block1	2back/STIM_031.jpg	99
382.627	0.904	903.7	2back	Block1	2back/STIM_032.jpg	100
385.964	1.093	1093.1	2back	Block1	2back/STIM_032.jpg	99
390.821	0.951	951.0	2back	Block1	2back/STIM_032.jpg	99
395.457	0.988	988.4	2back	Block1	2back/STIM_033.jpg	99
398.97	0.845	845.4	2back	Block1	2back/STIM_033.jpg	99
402.043	0.972	972.2	2back	Block1	2back/STIM_033.jpg	99
406.225	0.955	954.8	2back	Block1	2back/STIM_034.jpg	99
410.823	1.079	1078.7	2back	Block1	2back/STIM_034.jpg	99
415.762	1.046	1045.9	2back	Block1	2back/STIM_034.jpg	100
420.352	1.214	1214.4	2back	Block1	2back/STIM_035.jpg	100
423.836	0.956	955.7	2back	Block1	2back/STIM_035.jpg	100
428.632	1.069	1069.1	2back	Block1	2back/STIM_035.jpg	100
431.751	0.893	892.8	2back	Block1	2back/STIM_036.jpg	100
435.249	0.771	771.3	2back	Block1	2back/STIM_036.jpg	99
438.571	0.634	634.0	2back	Block1	2back/STIM_036.jpg	100
442.147	1.264	1263.5	2back	Block1	2back/STIM_037.jpg	100
447.11	0.981	981.1	2back	Block1	2back/STIM_037.jpg	99
450.423	0.929	928.9	2back	Block1	2back/STIM_037.jpg	100
454.398	0.746	745.8	2back	Block1	2back/STIM_038.jpg	100
459.1	0.899	899.1	2back	Block1	2back/STIM_038.jpg	99
462.133	0.963	963.3	2back	Block1	2back/STIM_038.jpg	99
466.29	1.027	1027.0	2back	Block1	2back/STIM_039.jpg	100
469.579	0.609	609.0	2back	Block1	2back/STIM_039.jpg	99
473.018	1.219	1219.1	2back	Block1	2back/STIM_039.jpg	99
476.799	0.651	651.0	0back	Block1	0back/STIM_000.jpg	100
479.663	0.462	462.2	0back	Block1	0back/STIM_000.jpg	99
482.505	0.526	525.9	0back	Block1	0back/STIM_000.jpg	100
485.828	0.598	598.3	0back	Block1	0back/STIM_001.jpg	99
489.98	0.562	561.7	0back	Block1	0back/STIM_001.jpg	99
492.985	0.504	504.3	0back	Block1	0back/STIM_001.jpg	99
497.445	0.459	459.3	0back	Block1	0back/STIM_002.jpg	100
500.016	0.449	449.3	0back	Block1	0back/STIM_002.jpg	100
503.435	0.743	743.3	0back	Block1	0back/STIM_002.jpg	99
506.446	0.613	612.9	0back	Block1	0back/STIM_003.jpg	100
509.189	0.583	583.2	0back	Block1	0back/STIM_003.jpg	99
512.814	0.757	757.1	0back	Block1	0back/STIM_003.jpg	100
515.949	0.501	501.5	0back	Block1	0back/STIM_004.jpg	100
518.608	0.681	681.0	0back	Block1	0back/STIM_004.jpg	100
522.316	0.67	670.2	0back	Block1	0back/STIM_004.jpg	100
525.421	0.552	551.8	0back	Block1	0back/STIM_005.jpg	99
528.156	0.777	776.8	0back	Block1	0back/STIM_005.jpg	99
532.377	0.469	469.0	0back	Block1	0back/STIM_005.jpg	99
535.752	0.613	613.3	0back	Block1	0back/STIM_006.jpg	100
539.225	0.64	640.3	0back	Block1	0back/STIM_006.jpg	100
543.384	0.548	548.3	0back	Block1	0back/STIM_006.jpg	99
546.455	0.692	691.9	0back	Block1	0back/STIM_007.jpg	99
550.391	0.655	654.9	0back	Block1	0back/STIM_007.jpg	100
553.221	0.427	427.4	0back	Block1	0back/STIM_007.jpg	99
555.748	0.59	590.4	0back	Block1	0back/STIM_008.jpg	99
558.605	0.473	473.0	0back	Block1	0back/STIM_008.jpg	99
561.321	0.594	594.0	0back	Block1	0back/STIM_008.jpg	99
565.135	0.334	334.3	0back	Block1	0back/STIM_009.jpg	99
567.768	0.446	446.0	0back	Block1	0back/STIM_009.jpg	99
571.489	0.632	631.5	0back	Block1	0back/STIM_009.jpg	99
575.427	0.771	771.1	0back	Block1	0back/STIM_010.jpg	99
579.468	0.448	447.8	0back	Block1	0back/STIM_010.jpg	99
584.007	0.676	675.8	0back	Block1	0back/STIM_010.jpg	99
587.328	0.526	526.3	0back	Block1	0back/STIM_011.jpg	99
591.615	0.678	677.8	0back	Block1	0back/STIM_011.jpg	100
594.82	0.452	452.3	0back	Block1	0back/STIM_011.jpg	100
598.008	0.65	649.8	0back	Block1	0back/STIM_012.jpg	99
602.636	0.781	781.0	0back	Block1	0back/STIM_012.jpg	99
606.784	0.524	524.2	0back	Block1	0back/STIM_012.jpg	100
609.418	0.517	516.7	0back	Block1	0back/STIM_013.jpg	99
612.497	0.559	558.8	0back	Block1	0back/STIM_013.jpg	100
615.639	0.454	454.0	0back	Block1	0back/STIM_013.jpg	99
618.726	0.544	544.2	0back	Block1	0back/STIM_014.jpg	100
622.844	0.726	725.5	0back	Block1	0back/STIM_014.jpg	99
627.297	0.399	399.4	0back	Block1	0back/STIM_014.jpg	100
631.383	0.484	483.5	0back	Block1	0back/STIM_015.jpg	100
635.58	0.727	726.8	0back	Block1	0back/STIM_015.jpg	100
639.119	0.488	488.2	0back	Block1	0back/STIM_015.jpg	99
643.107	0.736	736.4	0back	Block1	0back/STIM_016.jpg	100
647.228	0.607	607.2	0back	Block1	0back/STIM_016.jpg	99
650.516	0.675	674.7	0back	Block1	0back/STIM_016.jpg	100
654.914	0.652	651.8	0back	Block1	0back/STIM_017.jpg	100
657.608	0.526	525.9	0back	Block1	0back/STIM_017.jpg	99
661.965	0.663	663.4	0back	Block1	0back/STIM_017.jpg	100
666.294	0.725	725.0	0back	Block1	0back/STIM_018.jpg	100
670.103	0.64	639.6	0back	Block1	0back/STIM_018.jpg	100
672.809	0.43	430.3	0back	Block1	0back/STIM_018.jpg	99
675.346	0.476	476.2	0back	Block1	0back/STIM_019.jpg	100
678.154	0.515	515.2	0back	Block1	0back/STIM_019.jpg	99
681.19	0.734	733.9	0back	Block1	0back/STIM_019.jpg	99
684.196	1.111	1110.9	2back	Block2	2back/STIM_000.jpg	100
687.411	0.643	642.9	2back	Block2	2back/STIM_000.jpg	99
692.084	0.633	633.0	2back	Block2	2back/STIM_000.jpg	100
696.172	0.777	776.8	2back	Block2	2back/STIM_001.jpg	100
699.469	0.62	620.5	2back	Block2	2back/STIM_001.jpg	100
703.535	0.717	717.3	2back	Block2	2back/STIM_001.jpg	99
707.278	1.087	1086.6	2back	Block2	2back/STIM_002.jpg	99
710.405	1.007	1006.7	2back	Block2	2back/STIM_002.jpg	100
713.537	0.768	768.2	2back	Block2	2back/STIM_002.jpg	100
718.189	1.117	1117.0	2back	Block2	2back/STIM_003.jpg	99
721.784	0.608	607.9	2back	Block2	2back/STIM_003.jpg	99
724.473	0.906	905.6	2back	Block2	2back/STIM_003.jpg	100
728.663	0.672	671.8	2back	Block2	2back/STIM_004.jpg	100
732.094	0.907	907.2	2back	Block2	2back/STIM_004.jpg	100
736.688	0.564	563.8	2back	Block2	2back/STIM_004.jpg	99
741.082	0.898	898.1	2back	Block2	2back/STIM_005.jpg	99
744.033	0.478	477.5	2back	Block2	2back/STIM_005.jpg	99
746.664	0.994	994.3	2back	Block2	2back/STIM_005.jpg	100
750.719	0.789	788.7	2back	Block2	2back/STIM_006.jpg	99
754.193	0.836	836.1	2back	Block2	2back/STIM_006.jpg	99
757.602	0.614	613.8	2back	Block2	2back/STIM_006.jpg	100
760.518	0.618	618.1	2back	Block2	2back/STIM_007.jpg	100
764.566	0.709	709.4	2back	Block2	2back/STIM_007.jpg	99
767.323	0.611	611.1	2back	Block2	2back/STIM_007.jpg	99
771.687	1.048	1048.4	2back	Block2	2back/STIM_008.jpg	99
775.928	0.534	533.7	2back	Block2	2back/STIM_008.jpg	99
779.298	0.329	328.8	2back	Block2	2back/STIM_008.jpg	99
783.239	1.084	1083.8	2back	Block2	2back/STIM_009.jpg	99
787.168	0.751	750.8	2back	Block2	2back/STIM_009.jpg	100
790.717	0.637	636.9	2back	Block2	2back/STIM_009.jpg	99
794.812	0.747	747.4	2back	Block2	2back/STIM_010.jpg	99
799.22	0.626	625.6	2back	Block2	2back/STIM_010.jpg	100
802.163	0.932	931.5	2back	Block2	2back/STIM_010.jpg	99
805.913	1.009	1009.4	2back	Block2	2back/STIM_011.jpg	99
809.267	1.029	1028.9	2back	Block2	2back/STIM_011.jpg	99
813.575	0.682	681.6	2back	Block2	2back/STIM_011.jpg	100
817.426	0.64	639.5	2back	Block2	2back/STIM_012.jpg	100
820.52	0.982	982.5	2back	Block2	2back/STIM_012.jpg	100
824.052	0.728	728.3	2back	Block2	2back/STIM_012.jpg	100
828.517	0.716	715.8	2back	Block2	2back/STIM_013.jpg	100
832.464	0.803	803.1	2back	Block2	2back/STIM_013.jpg	100
835.948	0.784	783.7	2back	Block2	2back/STIM_013.jpg	100
839.897	0.615	614.8	2back	Block2	2back/STIM_014.jpg	99
843.402	0.617	616.7	2back	Block2	2back/STIM_014.jpg	99
847.068	0.656	655.8	2back	Block2	2back/STIM_014.jpg	100
850.269	0.933	932.8	2back	Block2	2back/STIM_015.jpg	99
854.839	0.982	981.6	2back	Block2	2back/STIM_015.jpg	99
858.333	0.735	735.2	2back	Block2	2back/STIM_015.jpg	99
862.289	0.536	536.4	2back	Block2	2back/STIM_016.jpg	100
865.157	0.639	638.7	2back	Block2	2back/STIM_016.jpg	99
868.102	0.954	954.2	2back	Block2	2back/STIM_016.jpg	100
872.746	0.594	594.3	2back	Block2	2back/STIM_017.jpg	99
875.903	0.876	876.3	2back	Block2	2back/STIM_017.jpg	99
879.996	0.998	998.2	2back	Block2	2back/STIM_017.jpg	99
884.229	1.007	1007.3	2back	Block2	2back/STIM_018.jpg	99
887.326	0.77	770.4	2back	Block2	2back/STIM_018.jpg	100
890.929	0.709	708.6	2back	Block2	2back/STIM_018.jpg	99
894.204	0.546	546.4	2back	Block2	2back/STIM_019.jpg	99
898.608	0.797	797.0	2back	Block2	2back/STIM_019.jpg	99
903.034	0.476	476.3	2back	Block2	2back/STIM_019.jpg	100
907.582	0.924	924.5	2back	Block2	2back/STIM_020.jpg	99
910.621	0.834	833.5	2back	Block2	2back/STIM_020.jpg	99
914.361	1.008	1007.7	2back	Block2	2back/STIM_020.jpg	100
918.534	0.904	904.1	2back	Block2	2back/STIM_021.jpg	100
922.059	0.527	527.2	2back	Block2	2back/STIM_021.jpg	99
924.76	0.872	871.7	2back	Block2	2back/STIM_021.jpg	99
929.369	0.826	826.2	2back	Block2	2back/STIM_022.jpg	99
933.737	0.625	624.8	2back	Block2	2back/STIM_022.jpg	100
936.855	0.497	497.0	2back	Block2	2back/STIM_022.jpg	99
940.207	1.014	1013.5	2back	Block2	2back/STIM_023.jpg	99
944.506	0.587	586.8	2back	Block2	2back/STIM_023.jpg	99
949.172	0.756	756.4	2back	Block2	2back/STIM_023.jpg	100
953.714	1.026	1026.3	2back	Block2	2back/STIM_024.jpg	100
957.045	0.81	810.5	2back	Block2	2back/STIM_024.jpg	100
960.941	0.437	436.9	2back	Block2	2back/STIM_024.jpg	100
964.637	1.048	1047.5	2back	Block2	2back/STIM_025.jpg	99
967.748	0.592	592.5	2back	Block2	2back/STIM_025.jpg	100
971.551	0.585	584.8	2back	Block2	2back/STIM_025.jpg	100
975.891	0.53	529.7	2back	Block2	2back/STIM_026.jpg	99
980.011	0.883	882.7	2back	Block2	2back/STIM_026.jpg	99
983.462	0.459	458.7	2back	Block2	2back/STIM_026.jpg	100
987.363	0.879	879.0	2back	Block2	2back/STIM_027.jpg	100
990.547	0.739	739.4	2back	Block2	2back/STIM_027.jpg	99
994.838	0.699	698.6	2back	Block2	2back/STIM_027.jpg	99
999.51	0.528	528.0	2back	Block2	2back/STIM_028.jpg	99
1003.662	0.601	600.9	2back	Block2	2back/STIM_028.jpg	99
1007.29	0.54	540.1	2back	Block2	2back/STIM_028.jpg	99
1010.152	0.903	902.7	2back	Block2	2back/STIM_029.jpg	99
1013.312	0.625	625.4	2back	Block2	2back/STIM_029.jpg	100
1017.882	0.614	614.2	2back	Block2	2back/STIM_029.jpg	100
1022.049	0.824	824.2	2back	Block2	2back/STIM_030.jpg	100
1026.209	0.667	666.9	2back	Block2	2back/STIM_030.jpg	99
1029.131	0.578	578.1	2back	Block2	2back/STIM_030.jpg	99
1032.387	0.657	656.8	2back	Block2	2back/STIM_031.jpg	99
1036.391	0.691	691.2	2back	Block2	2back/STIM_031.jpg	99
1040.623	0.613	612.8	2back	Block2	2back/STIM_031.jpg	100
1043.429	0.726	725.9	2back	Block2	2back/STIM_032.jpg	100
1047.812	0.417	417.1	2back	Block2	2back/STIM_032.jpg	100
1050.406	0.513	512.7	2back	Block2	2back/STIM_032.jpg	100
1054.241	0.93	930.1	2back	Block2	2back/STIM_033.jpg	100
1058.311	0.732	731.9	2back	Block2	2back/STIM_033.jpg	100
1061.596	0.892	891.8	2back	Block2	2back/STIM_033.jpg	99
1065.323	0.853	853.3	2back	Block2	2back/STIM_034.jpg	100
1068.698	0.784	783.9	2back	Block2	2back/STIM_034.jpg	99
1071.777	1.075	1074.9	2back	Block2	2back/STIM_034.jpg	100
1076.468	0.726	726.4	2back	Block2	2back/STIM_035.jpg	99
1079.832	0.569	568.9	2back	Block2	2back/STIM_035.jpg	100
1083.562	0.491	490.8	2back	Block2	2back/STIM_035.jpg	99
1088.043	1.098	1097.9	2back	Block2	2back/STIM_036.jpg	100
1091.803	0.566	566.2	2back	Block2	2back/STIM_036.jpg	99
1095.132	0.897	896.8	2back	Block2	2back/STIM_036.jpg	99
1098.741	0.533	533.3	2back	Block2	2back/STIM_037.jpg	100
1101.796	1.039	1038.9	2back	Block2	2back/STIM_037.jpg	100
1106.155	0.49	490.3	2back	Block2	2back/STIM_037.jpg	99
1109.867	1.14	1140.3	2back	Block2	2back/STIM_038.jpg	99
1114.323	0.399	399.2	2back	Block2	2back/STIM_038.jpg	99
1118.249	0.673	672.8	2back	Block2	2back/STIM_038.jpg	100
1122.177	1.087	1087.1	2back	Block2	2back/STIM_039.jpg	99
1125.67	0.763	762.6	2back	Block2	2back/STIM_039.jpg	100
1129.69	0.45	449.6	2back	Block2	2back/STIM_039.jpg	100
1132.326	0.555	555.3	0back	Block2	0back/STIM_000.jpg	99
1135.195	0.438	438.4	0back	Block2	0back/STIM_000.jpg	100
1138.497	0.778	778.0	0back	Block2	0back/STIM_000.jpg	100
1142.956	0.533	533.3	0back	Block2	0back/STIM_001.jpg	99
1146.164	0.736	735.5	0back	Block2	0back/STIM_001.jpg	99
1149.504	0.586	585.5	0back	Block2	0back/STIM_001.jpg	99
1152.828	0.413	412.6	0back	Block2	0back/STIM_002.jpg	100
1156.724	0.448	448.3	0back	Block2	0back/STIM_002.jpg	100
1161.133	0.719	719.2	0back	Block2	0back/STIM_002.jpg	99
1164.087	0.633	633.0	0back	Block2	0back/STIM_003.jpg	99
1167.997	0.396	396.1	0back	Block2	0back/STIM_003.jpg	100
1170.535	0.767	767.4	0back	Block2	0back/STIM_003.jpg	100
1175.173	0.846	845.5	0back	Block2	0back/STIM_004.jpg	99
1178.902	0.729	729.0	0back	Block2	0back/STIM_004.jpg	100
1183.399	0.608	607.6	0back	Block2	0back/STIM_004.jpg	100
1187.407	0.7	700.3	0back	Block2	0back/STIM_005.jpg	100
1191.583	0.398	398.5	0back	Block2	0back/STIM_005.jpg	100
1195.39	0.643	643.2	0back	Block2	0back/STIM_005.jpg	99
1199.201	0.517	517.4	0back	Block2	0back/STIM_006.jpg	99
1202.218	0.833	833.0	0back	Block2	0back/STIM_006.jpg	100
1205.189	0.424	423.5	0back	Block2	0back/STIM_006.jpg	100
1209.255	0.534	534.3	0back	Block2	0back/STIM_007.jpg	99
1212.784	0.625	625.3	0back	Block2	0back/STIM_007.jpg	100
1216.972	0.768	767.5	0back	Block2	0back/STIM_007.jpg	100
1220.75	0.671	670.6	0back	Block2	0back/STIM_008.jpg	99
1223.925	0.572	571.5	0back	Block2	0back/STIM_008.jpg	100
1226.825	0.555	554.8	0back	Block2	0back/STIM_008.jpg	100
1230.739	0.595	595.1	0back	Block2	0back/STIM_009.jpg	100
1234.031	0.408	408.0	0back	Block2	0back/STIM_009.jpg	100
1237.79	0.607	606.8	0back	Block2	0back/STIM_009.jpg	99
1240.802	0.378	377.8	0back	Block2	0back/STIM_010.jpg	99
1244.28	0.629	629.2	0back	Block2	0back/STIM_010.jpg	99
1247.452	0.725	725.0	0back	Block2	0back/STIM_010.jpg	99
1251.009	0.735	735.4	0back	Block2	0back/STIM_011.jpg	100
1254.968	0.659	659.4	0back	Block2	0back/STIM_011.jpg	99
1258.25	0.416	416.0	0back	Block2	0back/STIM_011.jpg	100
1262.063	0.423	423.2	0back	Block2	0back/STIM_012.jpg	99
1264.79	0.312	312.0	0back	Block2	0back/STIM_012.jpg	100
1268.3	0.544	543.8	0back	Block2	0back/STIM_012.jpg	99
1272.512	0.44	440.3	0back	Block2	0back/STIM_013.jpg	100
1276.36	0.49	490.1	0back	Block2	0back/STIM_013.jpg	99
1279.998	0.64	640.2	0back	Block2	0back/STIM_013.jpg	100
1283.864	0.613	612.9	0back	Block2	0back/STIM_014.jpg	100
1288.061	0.62	619.7	0back	Block2	0back/STIM_014.jpg	100
1291.181	0.559	559.0	0back	Block2	0back/STIM_014.jpg	99
1293.814	0.716	715.5	0back	Block2	0back/STIM_015.jpg	99
1297.543	0.499	498.8	0back	Block2	0back/STIM_015.jpg	100
1300.303	0.457	456.7	0back	Block2	0back/STIM_015.jpg	100
1304.512	0.376	375.5	0back	Block2	0back/STIM_016.jpg	99
1306.96	0.754	754.2	0back	Block2	0back/STIM_016.jpg	100
1309.894	0.719	718.8	0back	Block2	0back/STIM_016.jpg	99
1313.099	0.616	615.5	0back	Block2	0back/STIM_017.jpg	100
1316.12	0.628	627.6	0back	Block2	0back/STIM_017.jpg	99
1320.385	0.452	451.7	0back	Block2	0back/STIM_017.jpg	100
1324.316	0.529	528.7	0back	Block2	0back/STIM_018.jpg	100
1328.127	0.462	462.3	0back	Block2	0back/STIM_018.jpg	100
1331.275	0.532	532.5	0back	Block2	0back/STIM_018.jpg	99
1333.842	0.704	704.1	0back	Block2	0back/STIM_019.jpg	99
1338.234	0.786	786.1	0back	Block2	0back/STIM_019.jpg	100
1342.814	0.44	440.0	0back	Block2	0back/STIM_019.jpg	100
1346.987	0.475	475.3	2back	Block3	2back/STIM_000.jpg	100
1350.191	0.651	651.1	2back	Block3	2back/STIM_000.jpg	100
1353.482	0.401	401.2	2back	Block3	2back/STIM_000.jpg	99
1356.91	0.751	750.9	2back	Block3	2back/STIM_001.jpg	100
1361.21	0.71	709.8	2back	Block3	2back/STIM_001.jpg	99
1365.503	0.697	697.1	2back	Block3	2back/STIM_001.jpg	99
1369.428	0.422	422.1	2back	Block3	2back/STIM_002.jpg	99
1373.518	0.399	399.0	2back	Block3	2back/STIM_002.jpg	99
1376.522	0.61	610.2	2back	Block3	2back/STIM_002.jpg	99
1380.858	0.795	795.4	2back	Block3	2back/STIM_003.jpg	100
1385.073	0.573	573.2	2back	Block3	2back/STIM_003.jpg	100
1387.771	0.503	502.8	2back	Block3	2back/STIM_003.jpg	99
1390.672	0.551	551.2	2back	Block3	2back/STIM_004.jpg	99
1393.945	0.815	815.1	2back	Block3	2back/STIM_004.jpg	100
1397.005	0.614	614.1	2back	Block3	2back/STIM_004.jpg	99
1401.245	0.872	872.3	2back	Block3	2back/STIM_005.jpg	100
1405.559	0.55	549.7	2back	Block3	2back/STIM_005.jpg	100
1408.13	0.436	436.5	2back	Block3	2back/STIM_005.jpg	99
1412.555	0.615	615.1	2back	Block3	2back/STIM_006.jpg	100
1415.712	0.585	585.1	2back	Block3	2back/STIM_006.jpg	100
1418.472	0.858	858.3	2back	Block3	2back/STIM_006.jpg	100
1423.42	0.696	695.9	2back	Block3	2back/STIM_007.jpg	99
1426.524	0.965	965.4	2back	Block3	2back/STIM_007.jpg	100
1430.873	0.876	876.3	2back	Block3	2back/STIM_007.jpg	100
1435.625	0.78	779.6	2back	Block3	2back/STIM_008.jpg	100
1439.227	0.573	573.1	2back	Block3	2back/STIM_008.jpg	100
1443.506	0.847	847.0	2back	Block3	2back/STIM_008.jpg	100
1446.496	0.794	794.0	2back	Block3	2back/STIM_009.jpg	100
1450.141	0.601	600.7	2back	Block3	2back/STIM_009.jpg	100
1454.478	0.43	430.5	2back	Block3	2back/STIM_009.jpg	99
1457.376	0.582	582.0	2back	Block3	2back/STIM_010.jpg	100
1461.18	0.576	576.4	2back	Block3	2back/STIM_010.jpg	99
1464.282	0.475	474.6	2back	Block3	2back/STIM_010.jpg	99
1466.926	0.948	948.3	2back	Block3	2back/STIM_011.jpg	100
1471.185	0.488	488.4	2back	Block3	2back/STIM_011.jpg	100
1475.661	0.575	574.6	2back	Block3	2back/STIM_011.jpg	99
1479.997	0.532	532.4	2back	Block3	2back/STIM_012.jpg	99
1484.387	0.638	637.7	2back	Block3	2back/STIM_012.jpg	99
1488.023	0.832	831.8	2back	Block3	2back/STIM_012.jpg	100
1491.248	0.713	713.3	2back	Block3	2back/STIM_013.jpg	99
1495.406	0.722	721.9	2back	Block3	2back/STIM_013.jpg	99
1498.39	0.867	866.6	2back	Block3	2back/STIM_013.jpg	100
1502.381	0.621	621.1	2back	Block3	2back/STIM_014.jpg	99
1506.691	0.561	561.0	2back	Block3	2back/STIM_014.jpg	100
1509.601	0.43	430.4	2back	Block3	2back/STIM_014.jpg	99
1512.773	0.66	659.5	2back	Block3	2back/STIM_015.jpg	99
1516.904	0.889	888.6	2back	Block3	2back/STIM_015.jpg	100
1520.749	0.983	983.3	2back	Block3	2back/STIM_015.jpg	100
1525.379	0.852	851.8	2back	Block3	2back/STIM_016.jpg	100
1529.477	0.9	899.5	2back	Block3	2back/STIM_016.jpg	100
1533.588	0.561	560.6	2back	Block3	2back/STIM_016.jpg	99
1536.86	0.571	571.3	2back	Block3	2back/STIM_017.jpg	99
1540.081	0.882	881.9	2back	Block3	2back/STIM_017.jpg	99
1544.06	0.551	551.2	2back	Block3	2back/STIM_017.jpg	99
1547.564	0.543	542.6	2back	Block3	2back/STIM_018.jpg	99
1550.526	0.639	638.8	2back	Block3	2back/STIM_018.jpg	100
1553.454	0.796	796.2	2back	Block3	2back/STIM_018.jpg	100
1558.096	0.449	448.9	2back	Block3	2back/STIM_019.jpg	100
1561.794	0.466	466.5	2back	Block3	2back/STIM_019.jpg	100
1564.807	0.888	888.3	2back	Block3	2back/STIM_019.jpg	100
1569.715	0.723	723.3	2back	Block3	2back/STIM_020.jpg	99
1572.73	0.689	689.1	2back	Block3	2back/STIM_020.jpg	100
1577.352	0.375	374.8	2back	Block3	2back/STIM_020.jpg	100
1581.303	0.796	796.1	2back	Block3	2back/STIM_021.jpg	100
1584.631	0.523	522.7	2back	Block3	2back/STIM_021.jpg	100
1588.179	0.932	931.8	2back	Block3	2back/STIM_021.jpg	99
1592.671	0.476	475.6	2back	Block3	2back/STIM_022.jpg	100
1595.272	0.764	763.5	2back	Block3	2back/STIM_022.jpg	100
1598.531	0.871	871.2	2back	Block3	2back/STIM_022.jpg	99
1602.309	0.658	658.1	2back	Block3	2back/STIM_023.jpg	99
1605.539	0.927	927.4	2back	Block3	2back/STIM_023.jpg	99
1610.162	0.938	938.4	2back	Block3	2back/STIM_023.jpg	99
1613.967	0.687	687.0	2back	Block3	2back/STIM_024.jpg	100
1618.206	0.534	534.4	2back	Block3	2back/STIM_024.jpg	99
1621.879	0.973	972.9	2back	Block3	2back/STIM_024.jpg	99
1626.615	0.593	592.9	2back	Block3	2back/STIM_025.jpg	99
1629.995	0.556	556.5	2back	Block3	2back/STIM_025.jpg	100
1632.875	0.875	875.0	2back	Block3	2back/STIM_025.jpg	100
1636.823	0.358	358.3	2back	Block3	2back/STIM_026.jpg	100
1641.173	0.668	667.5	2back	Block3	2back/STIM_026.jpg	100
1645.472	0.794	793.7	2back	Block3	2back/STIM_026.jpg	100
1649.448	0.659	658.8	2back	Block3	2back/STIM_027.jpg	100
1654.008	0.685	684.9	2back	Block3	2back/STIM_027.jpg	99
1658.163	0.814	814.2	2back	Block3	2back/STIM_027.jpg	99
1662.901	0.503	502.9	2back	Block3	2back/STIM_028.jpg	99
1665.534	0.672	671.6	2back	Block3	2back/STIM_028.jpg	99
1669.516	0.672	671.6	2back	Block3	2back/STIM_028.jpg	100
1674.156	0.495	494.7	2back	Block3	2back/STIM_029.jpg	99
1677.329	0.767	767.2	2back	Block3	2back/STIM_029.jpg	100
1681.243	0.508	508.1	2back	Block3	2back/STIM_029.jpg	100
1685.346	0.792	791.7	2back	Block3	2back/STIM_030.jpg	100
1689.368	0.943	943.3	2back	Block3	2back/STIM_030.jpg	100
1693.493	0.593	592.7	2back	Block3	2back/STIM_030.jpg	100
1696.8	0.939	938.9	2back	Block3	2back/STIM_031.jpg	100
1700.685	0.606	606.3	2back	Block3	2back/STIM_031.jpg	100
1703.886	1.025	1024.8	2back	Block3	2back/STIM_031.jpg	99
1707.776	0.489	489.0	2back	Block3	2back/STIM_032.jpg	100
1711.079	0.526	526.2	2back	Block3	2back/STIM_032.jpg	100
1714.95	0.563	563.2	2back	Block3	2back/STIM_032.jpg	100
1718.083	0.621	620.9	2back	Block3	2back/STIM_033.jpg	99
1720.938	0.403	403.0	2back	Block3	2back/STIM_033.jpg	99
1724.989	0.885	885.0	2back	Block3	2back/STIM_033.jpg	99
1729.412	0.748	747.7	2back	Block3	2back/STIM_034.jpg	100
1733.708	0.477	477.0	2back	Block3	2back/STIM_034.jpg	100
1737.002	0.872	871.6	2back	Block3	2back/STIM_034.jpg	100
1741.105	0.997	997.0	2back	Block3	2back/STIM_035.jpg	99
1745.554	0.782	782.5	2back	Block3	2back/STIM_035.jpg	99
1748.955	0.464	463.8	2back	Block3	2back/STIM_035.jpg	99
1752.098	0.873	873.2	2back	Block3	2back/STIM_036.jpg	99
1756.183	0.673	673.1	2back	Block3	2back/STIM_036.jpg	99
1759.352	0.944	943.7	2back	Block3	2back/STIM_036.jpg	99
1762.692	0.823	822.8	2back	Block3	2back/STIM_037.jpg	100
1765.743	0.569	569.0	2back	Block3	2back/STIM_037.jpg	99
1768.954	0.592	592.2	2back	Block3	2back/STIM_037.jpg	99
1771.899	0.644	644.0	2back	Block3	2back/STIM_038.jpg	99
1775.033	0.884	884.2	2back	Block3	2back/STIM_038.jpg	100
1779.406	0.658	657.6	2back	Block3	2back/STIM_038.jpg	100
1782.525	0.861	861.0	2back	Block3	2back/STIM_039.jpg	100
1785.936	0.852	851.9	2back	Block3	2back/STIM_039.jpg	99
1790.386	0.554	554.2	2back	Block3	2back/STIM_039.jpg	100
1793.074	0.448	448.0	0back	Block3	0back/STIM_000.jpg	100
1797.384	0.426	425.6	0back	Block3	0back/STIM_000.jpg	99
1800.039	0.327	327.4	0back	Block3	0back/STIM_000.jpg	99
1803.811	0.567	567.2	0back	Block3	0back/STIM_001.jpg	100
1807.723	0.73	729.9	0back	Block3	0back/STIM_001.jpg	99
1810.912	0.582	582.0	0back	Block3	0back/STIM_001.jpg	99
1814.31	0.476	475.5	0back	Block3	0back/STIM_002.jpg	100
1817.227	0.743	742.8	0back	Block3	0back/STIM_002.jpg	100
1821.399	0.624	623.8	0back	Block3	0back/STIM_002.jpg	100
1824.796	0.771	770.7	0back	Block3	0back/STIM_003.jpg	100
1828.958	0.73	730.2	0back	Block3	0back/STIM_003.jpg	100
1832.598	0.697	696.6	0back	Block3	0back/STIM_003.jpg	100
1835.327	0.498	498.2	0back	Block3	0back/STIM_004.jpg	99
1837.98	0.468	467.6	0back	Block3	0back/STIM_004.jpg	100
1841.519	0.474	473.6	0back	Block3	0back/STIM_004.jpg	100
1844.307	0.608	608.4	0back	Block3	0back/STIM_005.jpg	99
1847.161	0.479	479.0	0back	Block3	0back/STIM_005.jpg	99
1850.056	0.527	526.7	0back	Block3	0back/STIM_005.jpg	99
1852.975	0.636	636.1	0back	Block3	0back/STIM_006.jpg	99
1856.578	0.662	662.3	0back	Block3	0back/STIM_006.jpg	99
1860.475	0.428	427.5	0back	Block3	0back/STIM_006.jpg	100
1863.966	0.622	621.8	0back	Block3	0back/STIM_007.jpg	100
1867.306	0.439	438.9	0back	Block3	0back/STIM_007.jpg	99
1870.059	0.773	773.2	0back	Block3	0back/STIM_007.jpg	100
1873.999	0.77	769.5	0back	Block3	0back/STIM_008.jpg	100
1876.8	0.663	663.2	0back	Block3	0back/STIM_008.jpg	100
1880.686	0.366	366.1	0back	Block3	0back/STIM_008.jpg	100
1885.017	0.362	362.4	0back	Block3	0back/STIM_009.jpg	100
1889.039	0.596	595.7	0back	Block3	0back/STIM_009.jpg	99
1892.373	0.342	342.5	0back	Block3	0back/STIM_009.jpg	99
1895.689	0.605	604.7	0back	Block3	0back/STIM_010.jpg	100
1898.877	0.797	797.0	0back	Block3	0back/STIM_010.jpg	99
1903.423	0.739	738.6	0back	Block3	0back/STIM_010.jpg	100
1906.764	0.545	544.6	0back	Block3	0back/STIM_011.jpg	100
1909.427	0.593	593.2	0back	Block3	0back/STIM_011.jpg	100
1912.101	0.54	539.7	0back	Block3	0back/STIM_011.jpg	99
1916.524	0.524	523.8	0back	Block3	0back/STIM_012.jpg	100
1919.658	0.608	607.5	0back	Block3	0back/STIM_012.jpg	100
1923.024	0.507	506.6	0back	Block3	0back/STIM_012.jpg	100
1927.007	0.791	790.8	0back	Block3	0back/STIM_013.jpg	100
1931.416	0.832	832.2	0back	Block3	0back/STIM_013.jpg	99
1934.547	0.476	475.5	0back	Block3	0back/STIM_013.jpg	100
1938.451	0.555	555.3	0back	Block3	0back/STIM_014.jpg	100
1942.326	0.646	646.3	0back	Block3	0back/STIM_014.jpg	99
1946.808	0.426	426.3	0back	Block3	0back/STIM_014.jpg	100
1950.518	0.663	663.2	0back	Block3	0back/STIM_015.jpg	100
1954.057	0.702	701.9	0back	Block3	0back/STIM_015.jpg	100
1957.89	0.405	405.3	0back	Block3	0back/STIM_015.jpg	100
1960.63	0.611	610.8	0back	Block3	0back/STIM_016.jpg	99
1963.786	0.495	494.7	0back	Block3	0back/STIM_016.jpg	100
1966.331	0.417	417.1	0back	Block3	0back/STIM_016.jpg	99
1970.044	0.691	691.3	0back	Block3	0back/STIM_017.jpg	100
1973.47	0.448	448.5	0back	Block3	0back/STIM_017.jpg	99
1976.055	0.546	546.1	0back	Block3	0back/STIM_017.jpg	99
1978.753	0.634	634.4	0back	Block3	0back/STIM_018.jpg	99
1982.321	0.613	613.3	0back	Block3	0back/STIM_018.jpg	99
1985.239	0.681	681.4	0back	Block3	0back/STIM_018.jpg	99
1987.992	0.429	429.2	0back	Block3	0back/STIM_019.jpg	99
1991.768	0.788	787.8	0back	Block3	0back/STIM_019.jpg	100
1994.746	0.522	522.0	0back	Block3	0back/STIM_019.jpg	100
1998.541	0.48	479.6	2back	Block4	2back/STIM_000.jpg	99
2002.538	0.693	692.9	2back	Block4	2back/STIM_000.jpg	100
2006.687	0.425	425.1	2back	Block4	2back/STIM_000.jpg	100
2010.197	0.628	627.5	2back	Block4	2back/STIM_001.jpg	100
2014.596	0.531	530.9	2back	Block4	2back/STIM_001.jpg	100
2017.969	0.788	788.4	2back	Block4	2back/STIM_001.jpg	99
2020.981	0.478	477.5	2back	Block4	2back/STIM_002.jpg	100
2023.939	0.409	408.9	2back	Block4	2back/STIM_002.jpg	100
2027.31	0.626	625.8	2back	Block4	2back/STIM_002.jpg	99
2030.45	0.704	704.5	2back	Block4	2back/STIM_003.jpg	99
2033.685	0.471	470.9	2back	Block4	2back/STIM_003.jpg	99
2037.29	0.398	398.3	2back	Block4	2back/STIM_003.jpg	100
2041.29	0.902	901.9	2back	Block4	2back/STIM_004.jpg	100
2044.943	0.968	968.2	2back	Block4	2back/STIM_004.jpg	99
2047.995	0.416	416.0	2back	Block4	2back/STIM_004.jpg	100
2051.315	0.46	460.0	2back	Block4	2back/STIM_005.jpg	100
2055.806	0.425	425.1	2back	Block4	2back/STIM_005.jpg	100
2060.099	0.682	681.6	2back	Block4	2back/STIM_005.jpg	99
2064.609	0.706	706.3	2back	Block4	2back/STIM_006.jpg	100
2069.212	0.787	787.1	2back	Block4	2back/STIM_006.jpg	100
2072.852	0.446	446.5	2back	Block4	2back/STIM_006.jpg	99
2076.884	0.732	731.8	2back	Block4	2back/STIM_007.jpg	99
2080.824	0.541	540.9	2back	Block4	2back/STIM_007.jpg	100
2083.566	0.979	978.8	2back	Block4	2back/STIM_007.jpg	100
2088.407	0.953	953.2	2back	Block4	2back/STIM_008.jpg	99
2093.272	0.635	634.6	2back	Block4	2back/STIM_008.jpg	99
2096.763	0.97	970.2	2back	Block4	2back/STIM_008.jpg	100
2101.197	0.789	788.8	2back	Block4	2back/STIM_009.jpg	99
2104.575	0.829	828.9	2back	Block4	2back/STIM_009.jpg	99
2108.383	0.448	448.2	2back	Block4	2back/STIM_009.jpg	99
2111.531	0.747	746.8	2back	Block4	2back/STIM_010.jpg	100
2115.52	0.64	639.5	2back	Block4	2back/STIM_010.jpg	100
2119.543	0.571	571.3	2back	Block4	2back/STIM_010.jpg	99
2122.577	0.498	498.1	2back	Block4	2back/STIM_011.jpg	100
2126.852	0.896	895.7	2back	Block4	2back/STIM_011.jpg	99
2130.923	0.528	527.7	2back	Block4	2back/STIM_011.jpg	100
2133.617	0.94	939.8	2back	Block4	2back/STIM_012.jpg	99
2137.399	0.816	815.6	2back	Block4	2back/STIM_012.jpg	99
2140.616	0.516	516.4	2back	Block4	2back/STIM_012.jpg	100
2143.87	0.408	408.4	2back	Block4	2back/STIM_013.jpg	100
2147.37	0.703	702.8	2back	Block4	2back/STIM_013.jpg	99
2151.229	0.43	429.9	2back	Block4	2back/STIM_013.jpg	99
2154.001	0.501	501.0	2back	Block4	2back/STIM_014.jpg	100
2157.975	0.789	789.4	2back	Block4	2back/STIM_014.jpg	99
2161.62	0.895	895.4	2back	Block4	2back/STIM_014.jpg	100
2164.897	0.531	531.1	2back	Block4	2back/STIM_015.jpg	100
2169.208	0.813	813.0	2back	Block4	2back/STIM_015.jpg	99
2173.568	0.88	880.2	2back	Block4	2back/STIM_015.jpg	99
2177.735	0.527	527.1	2back	Block4	2back/STIM_016.jpg	99
2182.176	0.654	654.3	2back	Block4	2back/STIM_016.jpg	100
2185.296	0.98	979.5	2back	Block4	2back/STIM_016.jpg	99
2188.526	0.745	745.4	2back	Block4	2back/STIM_017.jpg	100
2192.869	0.482	481.7	2back	Block4	2back/STIM_017.jpg	99
2195.43	1.005	1004.7	2back	Block4	2back/STIM_017.jpg	99
2198.447	0.93	930.3	2back	Block4	2back/STIM_018.jpg	100
2201.996	0.769	768.8	2back	Block4	2back/STIM_018.jpg	100
2205.669	0.559	559.4	2back	Block4	2back/STIM_018.jpg	100
2209.44	0.445	444.7	2back	Block4	2back/STIM_019.jpg	99
2212.484	0.805	804.9	2back	Block4	2back/STIM_019.jpg	99
2215.63	0.62	620.2	2back	Block4	2back/STIM_019.jpg	100
2219.943	0.642	641.7	2back	Block4	2back/STIM_020.jpg	100
2223.783	0.817	817.1	2back	Block4	2back/STIM_020.jpg	99
2226.599	0.973	972.7	2back	Block4	2back/STIM_020.jpg	100
2229.836	0.542	542.4	2back	Block4	2back/STIM_021.jpg	99
2233.795	0.53	530.4	2back	Block4	2back/STIM_021.jpg	99
2236.443	0.705	705.2	2back	Block4	2back/STIM_021.jpg	100
2240.306	0.748	747.7	2back	Block4	2back/STIM_022.jpg	99
2243.767	0.837	837.4	2back	Block4	2back/STIM_022.jpg	100
2248.12	0.476	475.5	2back	Block4	2back/STIM_022.jpg	100
2251.962	0.936	935.6	2back	Block4	2back/STIM_023.jpg	100
2255.809	0.666	665.8	2back	Block4	2back/STIM_023.jpg	99
2258.718	0.762	762.0	2back	Block4	2back/STIM_023.jpg	100
2262.648	0.469	469.1	2back	Block4	2back/STIM_024.jpg	100
2266.7	0.541	540.6	2back	Block4	2back/STIM_024.jpg	100
2270.671	0.852	851.7	2back	Block4	2back/STIM_024.jpg	100
2275.01	0.934	934.2	2back	Block4	2back/STIM_025.jpg	100
2278.406	0.626	625.5	2back	Block4	2back/STIM_025.jpg	100
2282.021	0.78	779.6	2back	Block4	2back/STIM_025.jpg	100
2285.464	0.673	673.2	2back	Block4	2back/STIM_026.jpg	100
2288.186	0.762	762.2	2back	Block4	2back/STIM_026.jpg	100
2291.483	0.808	807.5	2back	Block4	2back/STIM_026.jpg	99
2294.879	0.532	531.7	2back	Block4	2back/STIM_027.jpg	99
2297.404	0.456	456.0	2back	Block4	2back/STIM_027.jpg	99
2301.745	0.696	696.4	2back	Block4	2back/STIM_027.jpg	99
2305.258	0.481	481.4	2back	Block4	2back/STIM_028.jpg	99
2308.331	0.695	695.2	2back	Block4	2back/STIM_028.jpg	100
2312.834	0.58	579.5	2back	Block4	2back/STIM_028.jpg	99
2316.462	0.822	822.0	2back	Block4	2back/STIM_029.jpg	99
2320.607	0.839	839.2	2back	Block4	2back/STIM_029.jpg	100
2323.673	0.405	404.7	2back	Block4	2back/STIM_029.jpg	99
2327.007	0.841	841.0	2back	Block4	2back/STIM_030.jpg	100
2331.557	0.468	468.1	2back	Block4	2back/STIM_030.jpg	100
2334.651	0.586	586.5	2back	Block4	2back/STIM_030.jpg	100
2337.615	0.675	674.8	2back	Block4	2back/STIM_031.jpg	100
2341.53	0.93	929.9	2back	Block4	2back/STIM_031.jpg	99
2345.518	0.793	792.9	2back	Block4	2back/STIM_031.jpg	100
2348.729	0.527	527.1	2back	Block4	2back/STIM_032.jpg	99
2352.793	0.551	551.1	2back	Block4	2back/STIM_032.jpg	100
2355.572	0.742	742.0	2back	Block4	2back/STIM_032.jpg	100
2359.655	0.76	759.5	2back	Block4	2back/STIM_033.jpg	100
2363.715	0.738	738.3	2back	Block4	2back/STIM_033.jpg	100
2368.323	0.889	889.2	2back	Block4	2back/STIM_033.jpg	99
2372.558	0.447	446.7	2back	Block4	2back/STIM_034.jpg	100
2376.399	0.38	379.7	2back	Block4	2back/STIM_034.jpg	99
2380.737	0.569	569.2	2back	Block4	2back/STIM_034.jpg	99
2385.143	0.501	501.4	2back	Block4	2back/STIM_035.jpg	99
2388.71	0.671	671.3	2back	Block4	2back/STIM_035.jpg	100
2392.564	0.792	792.2	2back	Block4	2back/STIM_035.jpg	100
2396.721	0.486	485.6	2back	Block4	2back/STIM_036.jpg	100
2401.215	0.85	849.6	2back	Block4	2back/STIM_036.jpg	99
2404.186	0.407	407.1	2back	Block4	2back/STIM_036.jpg	100
2408.351	0.53	529.7	2back	Block4	2back/STIM_037.jpg	99
2412.451	0.354	353.9	2back	Block4	2back/STIM_037.jpg	99
2416.117	0.572	571.7	2back	Block4	2back/STIM_037.jpg	100
2420.243	0.472	472.0	2back	Block4	2back/STIM_038.jpg	100
2422.862	0.805	805.0	2back	Block4	2back/STIM_038.jpg	99
2426.248	0.503	503.5	2back	Block4	2back/STIM_038.jpg	100
2429.285	0.88	880.4	2back	Block4	2back/STIM_039.jpg	100
2433.955	0.941	941.1	2back	Block4	2back/STIM_039.jpg	100
2438.79	0.647	646.8	2back	Block4	2back/STIM_039.jpg	99
2442.833	0.48	479.6	0back	Block4	0back/STIM_000.jpg	100
2446.894	0.452	452.5	0back	Block4	0back/STIM_000.jpg	100
2450.042	0.736	735.7	0back	Block4	0back/STIM_000.jpg	99
2453.869	0.72	719.5	0back	Block4	0back/STIM_001.jpg	100
2457.027	0.568	567.8	0back	Block4	0back/STIM_001.jpg	99
2459.876	0.603	603.1	0back	Block4	0back/STIM_001.jpg	100
2462.901	0.608	608.2	0back	Block4	0back/STIM_002.jpg	100
2467.369	0.664	664.5	0back	Block4	0back/STIM_002.jpg	100
2470.298	0.43	429.6	0back	Block4	0back/STIM_002.jpg	100
2473.822	0.658	658.5	0back	Block4	0back/STIM_003.jpg	100
2477.038	0.358	358.0	0back	Block4	0back/STIM_003.jpg	100
2480.344	0.582	582.2	0back	Block4	0back/STIM_003.jpg	99
2483.935	0.677	676.9	0back	Block4	0back/STIM_004.jpg	99
2488.01	0.484	484.0	0back	Block4	0back/STIM_004.jpg	100
2490.852	0.668	668.0	0back	Block4	0back/STIM_004.jpg	100
2493.799	0.593	593.4	0back	Block4	0back/STIM_005.jpg	100
2496.58	0.684	684.3	0back	Block4	0back/STIM_005.jpg	99
2500.547	0.908	908.3	0back	Block4	0back/STIM_005.jpg	99
2505.281	0.527	527.3	0back	Block4	0back/STIM_006.jpg	100
2508.559	0.468	468.3	0back	Block4	0back/STIM_006.jpg	100
2511.395	0.657	656.7	0back	Block4	0back/STIM_006.jpg	100
2514.028	0.506	505.9	0back	Block4	0back/STIM_007.jpg	99
2516.767	0.517	516.7	0back	Block4	0back/STIM_007.jpg	100
2520.499	0.647	646.9	0back	Block4	0back/STIM_007.jpg	99
2523.123	0.501	501.2	0back	Block4	0back/STIM_008.jpg	100
2526.214	0.638	638.0	0back	Block4	0back/STIM_008.jpg	99
2530.298	0.555	554.9	0back	Block4	0back/STIM_008.jpg	99
2533.556	0.682	682.0	0back	Block4	0back/STIM_009.jpg	99
2536.977	0.461	461.2	0back	Block4	0back/STIM_009.jpg	99
2540.649	0.807	807.2	0back	Block4	0back/STIM_009.jpg	99
2544.123	0.576	575.6	0back	Block4	0back/STIM_010.jpg	99
2548.39	0.436	435.6	0back	Block4	0back/STIM_010.jpg	99
2551.08	0.435	434.6	0back	Block4	0back/STIM_010.jpg	100
2553.936	0.631	630.6	0back	Block4	0back/STIM_011.jpg	100
2557.899	0.486	485.7	0back	Block4	0back/STIM_011.jpg	100
2561.918	0.77	770.4	0back	Block4	0back/STIM_011.jpg	99
2564.806	0.396	396.1	0back	Block4	0back/STIM_012.jpg	99
2569.163	0.726	726.3	0back	Block4	0back/STIM_012.jpg	100
2572.716	0.77	769.6	0back	Block4	0back/STIM_012.jpg	100
2577.26	0.537	536.9	0back	Block4	0back/STIM_013.jpg	99
2581.801	0.356	356.2	0back	Block4	0back/STIM_013.jpg	100
2585.5	0.644	644.2	0back	Block4	0back/STIM_013.jpg	99
2590.025	0.635	634.8	0back	Block4	0back/STIM_014.jpg	100
2594.324	0.601	600.7	0back	Block4	0back/STIM_014.jpg	100
2598.404	0.759	759.3	0back	Block4	0back/STIM_014.jpg	99
2602.099	0.525	524.7	0back	Block4	0back/STIM_015.jpg	99
2604.618	0.54	539.8	0back	Block4	0back/STIM_015.jpg	100
2608.679	0.455	455.1	0back	Block4	0back/STIM_015.jpg	100
2611.139	0.333	333.1	0back	Block4	0back/STIM_016.jpg	99
2614.548	0.729	729.1	0back	Block4	0back/STIM_016.jpg	100
2618.407	0.768	767.8	0back	Block4	0back/STIM_016.jpg	100
2622.537	0.586	586.4	0back	Block4	0back/STIM_017.jpg	99
2626.624	0.618	617.9	0back	Block4	0back/STIM_017.jpg	99
2629.63	0.458	458.5	0back	Block4	0back/STIM_017.jpg	100
2634.071	0.419	418.6	0back	Block4	0back/STIM_018.jpg	100
2636.861	0.492	491.6	0back	Block4	0back/STIM_018.jpg	100
2641.241	0.504	503.7	0back	Block4	0back/STIM_018.jpg	99
2644.183	0.427	426.9	0back	Block4	0back/STIM_019.jpg	99
2648.104	0.436	435.7	0back	Block4	0back/STIM_019.jpg	100
2650.813	0.514	514.1	0back	Block4	0back/STIM_019.jpg	100
