onset	duration	response_time_ms	trial_type	learning_stage	stimulus	response_port
0.0	0.729	729.1	2back	Block1	2back/STIM_000.jpg	100
4.59	1.158	1158.4	2back	Block1	2back/STIM_000.jpg	99
9.515	0.956	955.8	2back	Block1	2back/STIM_000.jpg	99
12.789	1.215	1214.6	2back	Block1	2back/STIM_001.jpg	100
17.855	0.989	989.4	2back	Block1	2back/STIM_001.jpg	100
20.972	0.965	965.0	2back	Block1	2back/STIM_001.jpg	100
24.49	0.906	906.4	2back	Block1	2back/STIM_002.jpg	100
27.922	0.579	578.9	2back	Block1	2back/STIM_002.jpg	99
30.649	1.165	1164.9	2back	Block1	2back/STIM_002.jpg	100
34.093	0.73	729.8	2back	Block1	2back/STIM_003.jpg	100
37.903	0.558	557.5	2back	Block1	2back/STIM_003.jpg	100
40.875	0.637	636.6	2back	Block1	2back/STIM_003.jpg	99
44.635	0.984	983.8	2back	Block1	2back/STIM_004.jpg	99
48.543	0.64	640.0	2back	Block1	2back/STIM_004.jpg	99
52.687	0.892	891.9	2back	Block1	2back/STIM_004.jpg	99
56.799	0.87	870.1	2back	Block1	2back/STIM_005.jpg	99
60.045	0.808	807.8	2back	Block1	2back/STIM_005.jpg	99
62.864	0.951	950.7	2back	Block1	2back/STIM_005.jpg	99
66.261	0.626	626.1	2back	Block1	2back/STIM_006.jpg	99
69.007	0.969	969.3	2back	Block1	2back/STIM_006.jpg	99
73.572	1.076	1076.4	2back	Block1	2back/STIM_006.jpg	99
77.04	1.239	1238.8	2back	Block1	2back/STIM_007.jpg	99
81.873	1.048	1048.5	2back	Block1	2back/STIM_007.jpg	100
84.955	1.176	1176.0	2back	Block1	2back/STIM_007.jpg	100
89.795	0.989	989.4	2back	Block1	2back/STIM_008.jpg	99
93.485	1.152	1151.6	2back	Block1	2back/STIM_008.jpg	100
98.018	1.069	1069.3	2back	Block1	2back/STIM_008.jpg	99
102.962	0.772	772.4	2back	Block1	2back/STIM_009.jpg	99
107.381	0.789	789.0	2back	Block1	2back/STIM_009.jpg	99
111.863	0.77	770.1	2back	Block1	2back/STIM_009.jpg	99
115.607	0.753	753.3	2back	Block1	2back/STIM_010.jpg	99
120.165	0.736	736.3	2back	Block1	2back/STIM_010.jpg	99
123.233	1.138	1138.2	2back	Block1	2back/STIM_010.jpg	100
126.793	0.635	635.1	2back	Block1	2back/STIM_011.jpg	99
131.266	1.044	1044.0	2back	Block1	2back/STIM_011.jpg	100
134.392	0.94	940.5	2back	Block1	2back/STIM_011.jpg	99
137.943	0.87	870.1	2back	Block1	2back/STIM_012.jpg	99
141.614	0.664	664.3	2back	Block1	2back/STIM_012.jpg	100
146.147	0.994	994.2	2back	Block1	2back/STIM_012.jpg	100
149.447	0.939	938.8	2back	Block1	2back/STIM_013.jpg	100
152.987	1.121	1120.6	2back	Block1	2back/STIM_013.jpg	100
158.032	0.915	914.7	2back	Block1	2back/STIM_013.jpg	100
162.734	0.83	830.2	2back	Block1	2back/STIM_014.jpg	99
166.718	1.199	1199.0	2back	Block1	2back/STIM_014.jpg	99
171.41	1.118	1117.9	2back	Block1	2back/STIM_014.jpg	99
175.98	0.639	638.7	2back	Block1	2back/STIM_015.jpg	100
180.352	0.6	600.3	2back	Block1	2back/STIM_015.jpg	99
184.645	1.129	1128.7	2back	Block1	2back/STIM_015.jpg	100
189.598	1.021	1020.8	2back	Block1	2back/STIM_016.jpg	100
192.724	0.824	824.2	2back	Block1	2back/STIM_016.jpg	100
196.462	0.721	721.4	2back	Block1	2back/STIM_016.jpg	99
200.7	0.904	903.6	2back	Block1	2back/STIM_017.jpg	100
204.28	0.873	873.3	2back	Block1	2back/STIM_017.jpg	100
207.424	1.086	1085.8	2back	Block1	2back/STIM_017.jpg	99
212.455	0.717	716.8	2back	Block1	2back/STIM_018.jpg	100
216.221	0.83	830.1	2back	Block1	2back/STIM_018.jpg	99
220.301	0.675	674.8	2back	Block1	2back/STIM_018.jpg	99
223.974	1.182	1181.5	2back	Block1	2back/STIM_019.jpg	100
227.218	0.672	671.6	2back	Block1	2back/STIM_019.jpg	100
231.478	0.872	871.9	2back	Block1	2back/STIM_019.jpg	99
235.389	0.772	772.0	2back	Block1	2back/STIM_020.jpg	99
238.454	0.942	942.5	2back	Block1	2back/STIM_020.jpg	100
242.741	0.93	929.5	2back	Block1	2back/STIM_020.jpg	100
247.299	0.802	801.5	2back	Block1	2back/STIM_021.jpg	99
250.822	0.759	758.7	2back	Block1	2back/STIM_021.jpg	99
253.739	0.952	952.4	2back	Block1	2back/STIM_021.jpg	100
258.142	1.296	1295.8	2back	Block1	2back/STIM_022.jpg	99
261.622	1.008	1007.7	2back	Block1	2back/STIM_022.jpg	99
264.921	1.175	1175.4	2back	Block1	2back/STIM_022.jpg	99
269.888	0.932	932.4	2back	Block1	2back/STIM_023.jpg	100
273.951	1.064	1063.9	2back	Block1	2back/STIM_023.jpg	100
278.357	0.637	637.1	2back	Block1	2back/STIM_023.jpg	99
282.538	1.037	1037.4	2back	Block1	2back/STIM_024.jpg	99
285.801	0.647	647.2	2back	Block1	2back/STIM_024.jpg	99
289.625	0.892	891.5	2back	Block1	2back/STIM_024.jpg	100
293.292	0.69	689.9	2back	Block1	2back/STIM_025.jpg	99
296.945	1.026	1025.8	2back	Block1	2back/STIM_025.jpg	99
300.39	1.11	1109.8	2back	Block1	2back/STIM_025.jpg	99
303.559	1.202	1202.3	2back	Block1	2back/STIM_026.jpg	99
307.859	0.632	632.5	2back	Block1	2back/STIM_026.jpg	100
310.677	0.766	765.6	2back	Block1	2back/STIM_026.jpg	99
315.034	1.106	1106.0	2back	Block1	2back/STIM_027.jpg	99
319.588	0.75	749.5	2back	Block1	2back/STIM_027.jpg	100
323.316	0.924	923.7	2back	Block1	2back/STIM_027.jpg	100
327.643	0.698	697.8	2back	Block1	2back/STIM_028.jpg	99
331.64	1.212	1211.6	2back	Block1	2back/STIM_028.jpg	99
336.743	0.608	607.6	2back	Block1	2back/STIM_028.jpg	99
339.84	1.049	1049.4	2back	Block1	2back/STIM_029.jpg	100
344.538	1.122	1121.5	2back	Block1	2back/STIM_029.jpg	100
348.835	0.971	970.6	2back	Block1	2back/STIM_029.jpg	100
353.709	0.69	689.7	2back	Block1	2back/STIM_030.jpg	99
356.799	1.136	1135.8	2back	Block1	2back/STIM_030.jpg	99
359.989	0.932	932.1	2back	Block1	2back/STIM_030.jpg	100
364.002	0.672	671.7	2back	Block1	2back/STIM_031.jpg	99
367.109	0.746	745.7	2back	Block1	2back/STIM_031.jpg	99
370.549	1.045	1044.7	2back	Block1	2back/STIM_031.jpg	99
373.655	1.148	1148.0	2back	Block1	2back/STIM_032.jpg	100
376.831	0.971	971.4	2back	Block1	2back/STIM_032.jpg	99
380.251	0.867	867.4	2back	Block1	2back/STIM_032.jpg	99
384.688	0.75	750.1	2back	Block1	2back/STIM_033.jpg	99
388.214	0.602	602.5	2back	Block1	2back/STIM_033.jpg	99
391.319	1.13	1129.5	2back	Block1	2back/STIM_033.jpg	99
395.112	0.675	675.0	2back	Block1	2back/STIM_034.jpg	99
397.85	0.935	935.0	2back	Block1	2back/STIM_034.jpg	99
401.102	0.58	580.4	2back	Block1	2back/STIM_034.jpg	100
405.534	0.76	760.4	2back	Block1	2back/STIM_035.jpg	100
409.213	0.591	590.8	2back	Block1	2back/STIM_035.jpg	100
412.398	1.171	1171.0	2back	Block1	2back/STIM_035.jpg	100
416.875	1.159	1159.0	2back	Block1	2back/STIM_036.jpg	100
420.898	0.901	901.4	2back	Block1	2back/STIM_036.jpg	99
425.679	0.645	644.9	2back	Block1	2back/STIM_036.jpg	100
429.867	1.271	1270.9	2back	Block1	2back/STIM_037.jpg	100
435.079	0.846	845.8	2back	Block1	2back/STIM_037.jpg	99
439.626	1.123	1123.4	2back	Block1	2back/STIM_037.jpg	100
444.146	0.6	600.0	2back	Block1	2back/STIM_038.jpg	100
447.682	0.809	809.4	2back	Block1	2back/STIM_038.jpg	99
452.459	0.909	908.8	2back	Block1	2back/STIM_038.jpg	99
456.448	0.692	692.2	2back	Block1	2back/STIM_039.jpg	100
460.714	0.83	829.6	2back	Block1	2back/STIM_039.jpg	99
464.236	0.787	787.0	2back	Block1	2back/STIM_039.jpg	99
467.481	0.378	377.7	0back	Block1	0back/STIM_000.jpg	100
470.244	0.469	468.8	0back	Block1	0back/STIM_000.jpg	99
473.03	0.432	431.5	0back	Block1	0back/STIM_000.jpg	100
477.412	0.683	683.0	0back	Block1	0back/STIM_001.jpg	99
482.044	0.446	446.2	0back	Block1	0back/STIM_001.jpg	99
486.23	0.48	479.5	0back	Block1	0back/STIM_001.jpg	99
488.983	0.564	564.4	0back	Block1	0back/STIM_002.jpg	100
492.262	0.64	639.6	0back	Block1	0back/STIM_002.jpg	100
496.061	0.58	580.5	0back	Block1	0back/STIM_002.jpg	99
499.949	0.686	686.2	0back	Block1	0back/STIM_003.jpg	100
503.682	0.494	494.2	0back	Block1	0back/STIM_003.jpg	99
507.658	0.713	713.3	0back	Block1	0back/STIM_003.jpg	100
511.027	0.672	671.6	0back	Block1	0back/STIM_004.jpg	100
515.209	0.392	391.8	0back	Block1	0back/STIM_004.jpg	100
518.94	0.633	633.1	0back	Block1	0back/STIM_004.jpg	100
522.716	0.727	727.3	0back	Block1	0back/STIM_005.jpg	99
525.624	0.509	509.2	0back	Block1	0back/STIM_005.jpg	99
530.102	0.704	704.3	0back	Block1	0back/STIM_005.jpg	99
533.97	0.706	705.8	0back	Block1	0back/STIM_006.jpg	100
538.248	0.475	474.7	0back	Block1	0back/STIM_006.jpg	100
542.091	0.448	447.9	0back	Block1	0back/STIM_006.jpg	99
546.075	0.685	684.7	0back	Block1	0back/STIM_007.jpg	99
549.741	0.563	563.3	0back	Block1	0back/STIM_007.jpg	100
552.846	0.72	719.9	0back	Block1	0back/STIM_007.jpg	99
556.312	0.508	508.2	0back	Block1	0back/STIM_008.jpg	99
559.521	0.56	560.4	0back	Block1	0back/STIM_008.jpg	99
562.507	0.439	439.1	0back	Block1	0back/STIM_008.jpg	99
565.913	0.465	464.6	0back	Block1	0back/STIM_009.jpg	99
569.695	0.703	703.3	0back	Block1	0back/STIM_009.jpg	99
572.606	0.517	516.9	0back	Block1	0back/STIM_009.jpg	99
577.003	0.565	564.7	0back	Block1	0back/STIM_010.jpg	99
579.694	0.651	650.7	0back	Block1	0back/STIM_010.jpg	99
584.191	0.481	481.0	0back	Block1	0back/STIM_010.jpg	99
587.593	0.73	730.1	0back	Block1	0back/STIM_011.jpg	99
592.219	0.463	463.2	0back	Block1	0back/STIM_011.jpg	100
594.868	0.39	390.0	0back	Block1	0back/STIM_011.jpg	100
598.813	0.636	636.2	0back	Block1	0back/STIM_012.jpg	99
603.117	0.406	406.3	0back	Block1	0back/STIM_012.jpg	99
606.031	0.423	422.8	0back	Block1	0back/STIM_012.jpg	100
608.521	0.392	392.5	0back	Block1	0back/STIM_013.jpg	99
611.608	0.71	709.6	0back	Block1	0back/STIM_013.jpg	100
615.134	0.611	611.1	0back	Block1	0back/STIM_013.jpg	99
617.765	0.518	518.1	0back	Block1	0back/STIM_014.jpg	100
620.794	0.701	700.8	0back	Block1	0back/STIM_014.jpg	99
623.712	0.525	525.2	0back	Block1	0back/STIM_014.jpg	100
627.775	0.376	375.6	0back	Block1	0back/STIM_015.jpg	100
631.046	0.504	503.9	0back	Block1	0back/STIM_015.jpg	100
634.315	0.474	473.7	0back	Block1	0back/STIM_015.jpg	99
637.692	0.622	622.3	0back	Block1	0back/STIM_016.jpg	100
640.483	0.42	420.1	0back	Block1	0back/STIM_016.jpg	99
644.653	0.445	444.7	0back	Block1	0back/STIM_016.jpg	100
648.889	0.713	713.4	0back	Block1	0back/STIM_017.jpg	100
652.184	0.591	590.8	0back	Block1	0back/STIM_017.jpg	99
655.054	0.424	423.5	0back	Block1	0back/STIM_017.jpg	100
658.783	0.391	391.1	0back	Block1	0back/STIM_018.jpg	100
662.787	0.736	736.4	0back	Block1	0back/STIM_018.jpg	100
667.478	0.741	740.9	0back	Block1	0back/STIM_018.jpg	99
670.516	0.619	619.3	0back	Block1	0back/STIM_019.jpg	100
674.521	0.566	566.1	0back	Block1	0back/STIM_019.jpg	99
678.684	0.693	693.0	0back	Block1	0back/STIM_019.jpg	99
682.039	0.943	942.8	2back	Block2	2back/STIM_000.jpg	100
686.512	0.498	497.6	2back	Block2	2back/STIM_000.jpg	99
690.261	0.491	491.1	2back	Block2	2back/STIM_000.jpg	100
694.183	0.823	822.8	2back	Block2	2back/STIM_001.jpg	100
698.251	0.839	838.6	2back	Block2	2back/STIM_001.jpg	100
702.769	0.956	956.4	2back	Block2	2back/STIM_001.jpg	99
705.88	1.095	1095.4	2back	Block2	2back/STIM_002.jpg	99
709.252	0.64	639.9	2back	Block2	2back/STIM_002.jpg	100
712.403	0.43	430.0	2back	Block2	2back/STIM_002.jpg	100
716.099	0.772	771.6	2back	Block2	2back/STIM_003.jpg	99
719.785	0.892	891.6	2back	Block2	2back/STIM_003.jpg	99
722.803	0.74	739.8	2back	Block2	2back/STIM_003.jpg	100
726.018	0.663	662.6	2back	Block2	2back/STIM_004.jpg	100
728.728	1.038	1038.4	2back	Block2	2back/STIM_004.jpg	100
733.081	0.847	847.2	2back	Block2	2back/STIM_004.jpg	99
736.912	0.52	519.5	2back	Block2	2back/STIM_005.jpg	99
739.986	0.97	969.8	2back	Block2	2back/STIM_005.jpg	99
743.111	0.861	861.3	2back	Block2	2back/STIM_005.jpg	100
746.66	0.76	759.8	2back	Block2	2back/STIM_006.jpg	99
749.907	0.865	865.0	2back	Block2	2back/STIM_006.jpg	99
754.061	0.775	775.1	2back	Block2	2back/STIM_006.jpg	100
757.265	0.734	734.4	2back	Block2	2back/STIM_007.jpg	100
761.857	0.604	603.9	2back	Block2	2back/STIM_007.jpg	99
764.494	0.582	582.1	2back	Block2	2back/STIM_007.jpg	99
768.116	0.583	583.0	2back	Block2	2back/STIM_008.jpg	99
772.285	0.558	558.4	2back	Block2	2back/STIM_008.jpg	99
775.627	0.441	441.2	2back	Block2	2back/STIM_008.jpg	99
779.956	0.847	847.1	2back	Block2	2back/STIM_009.jpg	99
783.502	0.943	942.8	2back	Block2	2back/STIM_009.jpg	100
787.22	0.799	799.3	2back	Block2	2back/STIM_009.jpg	99
791.308	0.952	951.9	2back	Block2	2back/STIM_010.jpg	99
795.906	0.856	855.7	2back	Block2	2back/STIM_010.jpg	100
799.768	0.968	967.7	2back	Block2	2back/STIM_010.jpg	99
803.611	0.537	536.9	2back	Block2	2back/STIM_011.jpg	99
806.478	0.578	577.6	2back	Block2	2back/STIM_011.jpg	99
809.932	0.611	611.4	2back	Block2	2back/STIM_011.jpg	100
813.778	0.69	690.1	2back	Block2	2back/STIM_012.jpg	100
816.876	0.98	979.7	2back	Block2	2back/STIM_012.jpg	100
820.535	0.88	880.4	2back	Block2	2back/STIM_012.jpg	100
824.505	0.664	664.0	2back	Block2	2back/STIM_013.jpg	100
828.111	0.664	663.9	2back	Block2	2back/STIM_013.jpg	100
832.241	0.684	684.4	2back	Block2	2back/STIM_013.jpg	100
835.039	0.59	590.3	2back	Block2	2back/STIM_014.jpg	99
839.493	0.819	818.8	2back	Block2	2back/STIM_014.jpg	99
843.761	0.469	468.7	2back	Block2	2back/STIM_014.jpg	100
847.202	0.756	756.0	2back	Block2	2back/STIM_015.jpg	99
851.845	1.026	1025.8	2back	Block2	2back/STIM_015.jpg	99
855.247	0.954	954.0	2back	Block2	2back/STIM_015.jpg	99
859.212	0.841	840.9	2back	Block2	2back/STIM_016.jpg	100
863.885	1.036	1035.7	2back	Block2	2back/STIM_016.jpg	99
868.629	0.952	952.1	2back	Block2	2back/STIM_016.jpg	100
872.636	0.693	692.7	2back	Block2	2back/STIM_017.jpg	99
875.417	0.632	632.5	2back	Block2	2back/STIM_017.jpg	99
879.028	0.853	853.2	2back	Block2	2back/STIM_017.jpg	99
883.59	1.082	1082.3	2back	Block2	2back/STIM_018.jpg	99
888.209	0.504	504.1	2back	Block2	2back/STIM_018.jpg	100
892.449	0.56	559.7	2back	Block2	2back/STIM_018.jpg	99
895.45	0.954	953.5	2back	Block2	2back/STIM_019.jpg	99
899.971	0.557	556.8	2back	Block2	2back/STIM_019.jpg	99
904.516	0.768	767.8	2back	Block2	2back/STIM_019.jpg	100
907.605	0.87	870.3	2back	Block2	2back/STIM_020.jpg	99
911.23	0.784	784.5	2back	Block2	2back/STIM_020.jpg	99
915.892	0.703	702.8	2back	Block2	2back/STIM_020.jpg	100
919.813	0.561	560.7	2back	Block2	2back/STIM_021.jpg	100
923.724	0.485	485.0	2back	Block2	2back/STIM_021.jpg	99
927.176	0.841	841.1	2back	Block2	2back/STIM_021.jpg	99
930.096	0.704	703.6	2back	Block2	2back/STIM_022.jpg	99
934.041	1.018	1017.9	2back	Block2	2back/STIM_022.jpg	100
938.282	0.869	869.2	2back	Block2	2back/STIM_022.jpg	99
943.106	0.601	600.7	2back	Block2	2back/STIM_023.jpg	99
946.325	0.813	813.4	2back	Block2	2back/STIM_023.jpg	99
949.921	0.894	893.8	2back	Block2	2back/STIM_023.jpg	100
953.789	0.635	635.2	2back	Block2	2back/STIM_024.jpg	100
958.39	0.772	772.4	2back	Block2	2back/STIM_024.jpg	100
963.008	0.819	819.0	2back	Block2	2back/STIM_024.jpg	100
966.238	0.719	719.0	2back	Block2	2back/STIM_025.jpg	99
970.615	0.767	766.9	2back	Block2	2back/STIM_025.jpg	100
974.66	0.509	509.5	2back	Block2	2back/STIM_025.jpg	100
978.446	0.617	616.6	2back	Block2	2back/STIM_026.jpg	99
981.333	0.492	492.5	2back	Block2	2back/STIM_026.jpg	99
985.355	0.54	540.5	2back	Block2	2back/STIM_026.jpg	100
989.059	0.906	905.9	2back	Block2	2back/STIM_027.jpg	100
992.957	0.502	501.7	2back	Block2	2back/STIM_027.jpg	99
996.36	0.952	952.4	2back	Block2	2back/STIM_027.jpg	99
999.885	0.893	893.0	2back	Block2	2back/STIM_028.jpg	99
1003.495	0.598	598.0	2back	Block2	2back/STIM_028.jpg	99
1007.37	0.803	803.4	2back	Block2	2back/STIM_028.jpg	99
1012.106	0.596	596.0	2back	Block2	2back/STIM_029.jpg	99
1014.815	0.572	572.5	2back	Block2	2back/STIM_029.jpg	100
1018.495	0.767	766.9	2back	Block2	2back/STIM_029.jpg	100
1021.848	0.981	981.3	2back	Block2	2back/STIM_030.jpg	100
1025.797	0.492	491.7	2back	Block2	2back/STIM_030.jpg	99
1028.591	0.976	975.6	2back	Block2	2back/STIM_030.jpg	99
1032.755	1.102	1102.5	2back	Block2	2back/STIM_031.jpg	99
1037.11	0.807	806.8	2back	Block2	2back/STIM_031.jpg	99
1041.685	0.934	934.0	2back	Block2	2back/STIM_031.jpg	100
1045.28	0.504	503.9	2back	Block2	2back/STIM_032.jpg	100
1049.443	1.011	1011.3	2back	Block2	2back/STIM_032.jpg	100
1053.653	0.454	454.4	2back	Block2	2back/STIM_032.jpg	100
1056.181	0.88	880.5	2back	Block2	2back/STIM_033.jpg	100
1060.384	0.704	704.1	2back	Block2	2back/STIM_033.jpg	100
1063.663	0.943	942.8	2back	Block2	2back/STIM_033.jpg	99
1068.389	1.09	1090.2	2back	Block2	2back/STIM_034.jpg	100
1071.755	0.876	875.6	2back	Block2	2back/STIM_034.jpg	99
1076.363	0.725	725.3	2back	Block2	2back/STIM_034.jpg	100
1080.69	0.638	637.5	2back	Block2	2back/STIM_035.jpg	99
1084.637	0.524	524.0	2back	Block2	2back/STIM_035.jpg	100
1087.458	0.951	951.1	2back	Block2	2back/STIM_035.jpg	99
1091.295	0.526	526.1	2back	Block2	2back/STIM_036.jpg	100
1095.308	0.871	871.3	2back	Block2	2back/STIM_036.jpg	99
1098.585	0.64	640.0	2back	Block2	2back/STIM_036.jpg	99
1103.05	0.66	659.9	2back	Block2	2back/STIM_037.jpg	100
1107.512	1.017	1016.9	2back	Block2	2back/STIM_037.jpg	100
1111.151	0.821	820.9	2back	Block2	2back/STIM_037.jpg	99
1115.349	0.496	495.8	2back	Block2	2back/STIM_038.jpg	99
1118.693	0.755	755.4	2back	Block2	2back/STIM_038.jpg	99
1122.493	0.692	692.4	2back	Block2	2back/STIM_038.jpg	100
1125.215	0.707	706.8	2back	Block2	2back/STIM_039.jpg	99
1128.254	0.897	897.0	2back	Block2	2back/STIM_039.jpg	100
1132.749	0.567	567.0	2back	Block2	2back/STIM_039.jpg	100
1135.844	0.679	678.7	0back	Block2	0back/STIM_000.jpg	99
1138.868	0.614	614.1	0back	Block2	0back/STIM_000.jpg	100
1142.04	0.427	427.4	0back	Block2	0back/STIM_000.jpg	100
1144.682	0.443	443.1	0back	Block2	0back/STIM_001.jpg	99
1147.754	0.735	734.6	0back	Block2	0back/STIM_001.jpg	99
1150.519	0.698	698.2	0back	Block2	0back/STIM_001.jpg	99
1154.213	0.67	669.8	0back	Block2	0back/STIM_002.jpg	100
1157.064	0.416	416.1	0back	Block2	0back/STIM_002.jpg	100
1160.506	0.656	655.9	0back	Block2	0back/STIM_002.jpg	99
1164.102	0.67	670.2	0back	Block2	0back/STIM_003.jpg	99
1168.149	0.664	664.0	0back	Block2	0back/STIM_003.jpg	100
1172.218	0.686	686.5	0back	Block2	0back/STIM_003.jpg	100
1175.463	0.664	664.5	0back	Block2	0back/STIM_004.jpg	99
1178.413	0.382	381.8	0back	Block2	0back/STIM_004.jpg	100
1182.39	0.642	641.9	0back	Block2	0back/STIM_004.jpg	100
1187.009	0.62	620.1	0back	Block2	0back/STIM_005.jpg	100
1191.014	0.593	593.3	0back	Block2	0back/STIM_005.jpg	100
1194.64	0.387	386.8	0back	Block2	0back/STIM_005.jpg	99
1197.828	0.519	519.3	0back	Block2	0back/STIM_006.jpg	99
1201.57	0.46	460.5	0back	Block2	0back/STIM_006.jpg	100
1205.5	0.403	402.8	0back	Block2	0back/STIM_006.jpg	100
1209.378	0.632	632.3	0back	Block2	0back/STIM_007.jpg	99
1212.423	0.597	597.4	0back	Block2	0back/STIM_007.jpg	100
1216.784	0.716	715.9	0back	Block2	0back/STIM_007.jpg	100
1221.161	0.685	685.3	0back	Block2	0back/STIM_008.jpg	99
1225.761	0.661	661.3	0back	Block2	0back/STIM_008.jpg	100
1230.126	0.396	396.0	0back	Block2	0back/STIM_008.jpg	100
1233.144	0.481	480.8	0back	Block2	0back/STIM_009.jpg	100
1237.385	0.551	551.3	0back	Block2	0back/STIM_009.jpg	100
1241.67	0.702	701.9	0back	Block2	0back/STIM_009.jpg	99
1244.834	0.586	586.2	0back	Block2	0back/STIM_010.jpg	99
1248.383	0.489	489.1	0back	Block2	0back/STIM_010.jpg	99
1252.328	0.521	521.2	0back	Block2	0back/STIM_010.jpg	99
1254.963	0.699	698.9	0back	Block2	0back/STIM_011.jpg	100
1257.793	0.744	743.5	0back	Block2	0back/STIM_011.jpg	99
1261.746	0.723	723.3	0back	Block2	0back/STIM_011.jpg	100
1266.344	0.683	683.2	0back	Block2	0back/STIM_012.jpg	99
1270.875	0.659	658.7	0back	Block2	0back/STIM_012.jpg	100
1273.92	0.491	490.7	0back	Block2	0back/STIM_012.jpg	99
1277.542	0.565	564.6	0back	Block2	0back/STIM_013.jpg	100
1280.112	0.395	394.6	0back	Block2	0back/STIM_013.jpg	99
1283.261	0.523	523.1	0back	Block2	0back/STIM_013.jpg	100
1286.677	0.552	552.2	0back	Block2	0back/STIM_014.jpg	100
1291.079	0.379	378.6	0back	Block2	0back/STIM_014.jpg	100
1293.957	0.539	539.4	0back	Block2	0back/STIM_014.jpg	99
1296.955	0.657	657.2	0back	Block2	0back/STIM_015.jpg	99
1301.193	0.47	469.5	0back	Block2	0back/STIM_015.jpg	100
1304.409	0.391	391.3	0back	Block2	0back/STIM_015.jpg	100
1307.474	0.614	613.6	0back	Block2	0back/STIM_016.jpg	99
1311.444	0.559	559.3	0back	Block2	0back/STIM_016.jpg	100
1314.294	0.584	584.0	0back	Block2	0back/STIM_016.jpg	99
1317.37	0.464	463.6	0back	Block2	0back/STIM_017.jpg	100
1321.821	0.734	734.2	0back	Block2	0back/STIM_017.jpg	99
1326.344	0.393	392.7	0back	Block2	0back/STIM_017.jpg	100
1328.846	0.478	477.7	0back	Block2	0back/STIM_018.jpg	100
1331.414	0.555	554.8	0back	Block2	0back/STIM_018.jpg	100
1334.989	0.406	405.6	0back	Block2	0back/STIM_018.jpg	99
1337.563	0.567	567.2	0back	Block2	0back/STIM_019.jpg	99
1340.848	0.746	746.1	0back	Block2	0back/STIM_019.jpg	100
1344.819	0.463	463.0	0back	Block2	0back/STIM_019.jpg	100
1347.304	0.446	446.1	2back	Block3	2back/STIM_000.jpg	100
1350.655	0.431	430.6	2back	Block3	2back/STIM_000.jpg	100
1353.676	0.634	634.2	2back	Block3	2back/STIM_000.jpg	99
1357.996	0.561	561.0	2back	Block3	2back/STIM_001.jpg	100
1362.093	0.5	499.6	2back	Block3	2back/STIM_001.jpg	99
1365.93	0.556	556.5	2back	Block3	2back/STIM_001.jpg	99
1370.123	0.587	587.3	2back	Block3	2back/STIM_002.jpg	99
1373.456	0.608	607.8	2back	Block3	2back/STIM_002.jpg	99
1377.354	0.605	604.6	2back	Block3	2back/STIM_002.jpg	99
1381.434	0.537	537.1	2back	Block3	2back/STIM_003.jpg	100
1384.319	0.596	596.4	2back	Block3	2back/STIM_003.jpg	100
1387.948	0.474	474.0	2back	Block3	2back/STIM_003.jpg	99
1392.149	0.463	463.0	2back	Block3	2back/STIM_004.jpg	99
1396.321	0.482	482.1	2back	Block3	2back/STIM_004.jpg	100
1399.828	0.775	775.0	2back	Block3	2back/STIM_004.jpg	99
1404.329	0.477	477.0	2back	Block3	2back/STIM_005.jpg	100
1407.219	0.647	647.1	2back	Block3	2back/STIM_005.jpg	100
1411.14	0.524	523.8	2back	Block3	2back/STIM_005.jpg	99
1415.391	0.869	868.7	2back	Block3	2back/STIM_006.jpg	100
1418.44	0.68	680.4	2back	Block3	2back/STIM_006.jpg	100
1421.196	0.687	686.6	2back	Block3	2back/STIM_006.jpg	100
1424.019	0.712	712.5	2back	Block3	2back/STIM_007.jpg	99
1426.859	0.771	771.1	2back	Block3	2back/STIM_007.jpg	100
1429.936	0.785	784.7	2back	Block3	2back/STIM_007.jpg	100
1433.482	0.642	642.0	2back	Block3	2back/STIM_008.jpg	100
1438.079	0.813	812.7	2back	Block3	2back/STIM_008.jpg	100
1442.537	0.518	517.6	2back	Block3	2back/STIM_008.jpg	100
1445.789	0.631	631.2	2back	Block3	2back/STIM_009.jpg	100
1450.339	0.843	843.3	2back	Block3	2back/STIM_009.jpg	100
1455.177	0.41	409.8	2back	Block3	2back/STIM_009.jpg	99
1459.253	0.71	709.5	2back	Block3	2back/STIM_010.jpg	100
1463.576	0.845	845.4	2back	Block3	2back/STIM_010.jpg	99
1468.057	0.753	752.8	2back	Block3	2back/STIM_010.jpg	99
1471.297	0.744	744.3	2back	Block3	2back/STIM_011.jpg	100
1474.14	0.63	630.1	2back	Block3	2back/STIM_011.jpg	100
1477.758	0.572	572.4	2back	Block3	2back/STIM_011.jpg	99
1480.717	0.434	434.4	2back	Block3	2back/STIM_012.jpg	99
1484.689	0.459	459.4	2back	Block3	2back/STIM_012.jpg	99
1487.705	0.397	396.7	2back	Block3	2back/STIM_012.jpg	100
1492.092	0.767	766.8	2back	Block3	2back/STIM_013.jpg	99
1495.108	0.798	797.7	2back	Block3	2back/STIM_013.jpg	99
1498.466	0.807	807.2	2back	Block3	2back/STIM_013.jpg	100
1501.682	0.796	796.0	2back	Block3	2back/STIM_014.jpg	99
1505.864	0.897	896.7	2back	Block3	2back/STIM_014.jpg	100
1508.905	0.77	770.2	2back	Block3	2back/STIM_014.jpg	99
1511.869	0.412	412.0	2back	Block3	2back/STIM_015.jpg	99
1514.839	0.573	572.6	2back	Block3	2back/STIM_015.jpg	100
1518.428	0.855	854.9	2back	Block3	2back/STIM_015.jpg	100
1523.155	0.804	804.0	2back	Block3	2back/STIM_016.jpg	100
1527.59	0.843	842.6	2back	Block3	2back/STIM_016.jpg	100
1530.669	0.796	796.3	2back	Block3	2back/STIM_016.jpg	99
1533.767	0.495	495.4	2back	Block3	2back/STIM_017.jpg	99
1536.595	0.693	693.0	2back	Block3	2back/STIM_017.jpg	99
1541.054	0.567	567.4	2back	Block3	2back/STIM_017.jpg	99
1543.791	0.897	896.9	2back	Block3	2back/STIM_018.jpg	99
1546.917	0.623	623.1	2back	Block3	2back/STIM_018.jpg	100
1550.206	0.423	423.3	2back	Block3	2back/STIM_018.jpg	100
1554.425	0.525	525.4	2back	Block3	2back/STIM_019.jpg	100
1558.266	0.705	704.9	2back	Block3	2back/STIM_019.jpg	100
1562.61	0.617	616.7	2back	Block3	2back/STIM_019.jpg	100
1565.965	0.411	410.7	2back	Block3	2back/STIM_020.jpg	99
1569.209	0.405	405.0	2back	Block3	2back/STIM_020.jpg	100
1573.346	0.566	565.9	2back	Block3	2back/STIM_020.jpg	100
1576.853	0.749	748.6	2back	Block3	2back/STIM_021.jpg	100
1580.197	0.91	909.6	2back	Block3	2back/STIM_021.jpg	100
1584.053	0.665	664.7	2back	Block3	2back/STIM_021.jpg	99
1588.63	0.437	437.1	2back	Block3	2back/STIM_022.jpg	100
1592.585	0.899	899.1	2back	Block3	2back/STIM_022.jpg	100
1596.115	0.502	502.4	2back	Block3	2back/STIM_022.jpg	99
1599.649	0.804	804.3	2back	Block3	2back/STIM_023.jpg	99
1604.12	0.401	400.7	2back	Block3	2back/STIM_023.jpg	99
1607.795	0.539	538.9	2back	Block3	2back/STIM_023.jpg	99
1611.328	0.892	892.3	2back	Block3	2back/STIM_024.jpg	100
1614.39	0.736	735.7	2back	Block3	2back/STIM_024.jpg	99
1617.362	0.826	826.4	2back	Block3	2back/STIM_024.jpg	99
1621.714	0.465	465.2	2back	Block3	2back/STIM_025.jpg	99
1625.708	0.561	561.2	2back	Block3	2back/STIM_025.jpg	100
1629.866	0.624	623.9	2back	Block3	2back/STIM_025.jpg	100
1633.669	0.552	552.2	2back	Block3	2back/STIM_026.jpg	100
1638.078	0.86	859.5	2back	Block3	2back/STIM_026.jpg	100
1642.208	0.787	786.6	2back	Block3	2back/STIM_026.jpg	100
1646.431	0.812	811.9	2back	Block3	2back/STIM_027.jpg	100
1649.956	0.711	711.1	2back	Block3	2back/STIM_027.jpg	99
1652.917	0.597	597.4	2back	Block3	2back/STIM_027.jpg	99
1657.177	0.441	440.7	2back	Block3	2back/STIM_028.jpg	99
1660.775	0.63	629.8	2back	Block3	2back/STIM_028.jpg	99
1663.907	0.76	760.0	2back	Block3	2back/STIM_028.jpg	100
1668.389	0.613	612.6	2back	Block3	2back/STIM_029.jpg	99
1671.995	0.595	595.3	2back	Block3	2back/STIM_029.jpg	100
1676.369	0.538	537.6	2back	Block3	2back/STIM_029.jpg	100
1678.912	0.765	765.0	2back	Block3	2back/STIM_030.jpg	100
1681.834	0.889	888.6	2back	Block3	2back/STIM_030.jpg	100
1685.839	0.715	715.3	2back	Block3	2back/STIM_030.jpg	100
1690.071	0.591	590.7	2back	Block3	2back/STIM_031.jpg	100
1693.749	0.884	883.8	2back	Block3	2back/STIM_031.jpg	100
1697.918	0.824	824.5	2back	Block3	2back/STIM_031.jpg	99
1702.455	0.587	586.6	2back	Block3	2back/STIM_032.jpg	100
1705.27	0.632	632.3	2back	Block3	2back/STIM_032.jpg	100
1708.506	0.857	856.8	2back	Block3	2back/STIM_032.jpg	100
1711.855	0.82	820.4	2back	Block3	2back/STIM_033.jpg	99
1715.05	0.651	650.6	2back	Block3	2back/STIM_033.jpg	99
1719.339	0.779	779.0	2back	Block3	2back/STIM_033.jpg	99
1723.74	0.911	911.1	2back	Block3	2back/STIM_034.jpg	100
1728.108	0.788	787.7	2back	Block3	2back/STIM_034.jpg	100
1732.507	0.633	632.9	2back	Block3	2back/STIM_034.jpg	100
1736.48	0.688	688.2	2back	Block3	2back/STIM_035.jpg	99
1740.37	0.443	443.0	2back	Block3	2back/STIM_035.jpg	99
1744.272	0.886	886.3	2back	Block3	2back/STIM_035.jpg	99
1748.896	0.492	491.7	2back	Block3	2back/STIM_036.jpg	99
1752.664	0.584	583.8	2back	Block3	2back/STIM_036.jpg	99
1755.743	0.84	840.3	2back	Block3	2back/STIM_036.jpg	99
1759.044	0.817	817.3	2back	Block3	2back/STIM_037.jpg	100
1763.276	0.639	639.2	2back	Block3	2back/STIM_037.jpg	99
1767.744	0.611	611.0	2back	Block3	2back/STIM_037.jpg	99
1771.523	0.444	443.8	2back	Block3	2back/STIM_038.jpg	99
1773.977	0.576	576.1	2back	Block3	2back/STIM_038.jpg	100
1778.481	0.736	736.2	2back	Block3	2back/STIM_038.jpg	100
1782.141	0.638	637.5	2back	Block3	2back/STIM_039.jpg	100
1785.686	0.851	851.0	2back	Block3	2back/STIM_039.jpg	99
1789.196	0.543	542.7	2back	Block3	2back/STIM_039.jpg	100
1793.226	0.699	699.2	0back	Block3	0back/STIM_000.jpg	100
1797.118	0.617	616.8	0back	Block3	0back/STIM_000.jpg	99
1801.346	0.649	649.4	0back	Block3	0back/STIM_000.jpg	99
1805.223	0.509	508.8	0back	Block3	0back/STIM_001.jpg	100
1809.694	0.429	428.9	0back	Block3	0back/STIM_001.jpg	99
1814.021	0.391	391.3	0back	Block3	0back/STIM_001.jpg	99
1817.606	0.731	730.7	0back	Block3	0back/STIM_002.jpg	100
1821.269	0.4	399.5	0back	Block3	0back/STIM_002.jpg	100
1824.338	0.474	473.8	0back	Block3	0back/STIM_002.jpg	100
1827.723	0.669	668.9	0back	Block3	0back/STIM_003.jpg	100
1832.085	0.564	564.5	0back	Block3	0back/STIM_003.jpg	100
1835.587	0.378	378.2	0back	Block3	0back/STIM_003.jpg	100
1838.389	0.683	682.7	0back	Block3	0back/STIM_004.jpg	99
1842.975	0.5	500.4	0back	Block3	0back/STIM_004.jpg	100
1847.278	0.437	436.9	0back	Block3	0back/STIM_004.jpg	100
1850.986	0.692	691.8	0back	Block3	0back/STIM_005.jpg	99
1854.156	0.519	518.7	0back	Block3	0back/STIM_005.jpg	99
1857.065	0.601	601.4	0back	Block3	0back/STIM_005.jpg	99
1860.414	0.684	683.8	0back	Block3	0back/STIM_006.jpg	99
1864.312	0.747	746.9	0back	Block3	0back/STIM_006.jpg	99
1868.619	0.632	631.8	0back	Block3	0back/STIM_006.jpg	100
1872.307	0.464	463.9	0back	Block3	0back/STIM_007.jpg	100
1875.421	0.726	726.1	0back	Block3	0back/STIM_007.jpg	99
1879.546	0.429	428.8	0back	Block3	0back/STIM_007.jpg	100
1882.35	0.407	407.3	0back	Block3	0back/STIM_008.jpg	100
1886.71	0.532	532.3	0back	Block3	0back/STIM_008.jpg	100
1890.396	0.512	511.6	0back	Block3	0back/STIM_008.jpg	100
1893.41	0.682	681.9	0back	Block3	0back/STIM_009.jpg	100
1896.878	0.539	538.9	0back	Block3	0back/STIM_009.jpg	99
1899.857	0.454	453.5	0back	Block3	0back/STIM_009.jpg	99
1903.502	0.727	727.2	0back	Block3	0back/STIM_010.jpg	100
1906.407	0.731	731.4	0back	Block3	0back/STIM_010.jpg	99
1909.777	0.463	462.9	0back	Block3	0back/STIM_010.jpg	100
1914.005	0.664	664.1	0back	Block3	0back/STIM_011.jpg	100
1917.16	0.619	618.8	0back	Block3	0back/STIM_011.jpg	100
1921.541	0.508	508.1	0back	Block3	0back/STIM_011.jpg	99
1925.743	0.546	546.1	0back	Block3	0back/STIM_012.jpg	100
1928.77	0.472	471.5	0back	Block3	0back/STIM_012.jpg	100
1933.044	0.673	673.4	0back	Block3	0back/STIM_012.jpg	100
1937.359	0.559	559.3	0back	Block3	0back/STIM_013.jpg	100
1941.743	0.597	596.8	0back	Block3	0back/STIM_013.jpg	99
1945.915	0.444	443.8	0back	Block3	0back/STIM_013.jpg	100
1949.413	0.576	575.5	0back	Block3	0back/STIM_014.jpg	100
1953.903	0.496	496.1	0back	Block3	0back/STIM_014.jpg	99
1957.658	0.563	563.4	0back	Block3	0back/STIM_014.jpg	100
1960.829	0.504	504.3	0back	Block3	0back/STIM_015.jpg	100
1964.186	0.482	481.7	0back	Block3	0back/STIM_015.jpg	100
1967.911	0.653	653.3	0back	Block3	0back/STIM_015.jpg	100
1970.631	0.415	415.2	0back	Block3	0back/STIM_016.jpg	99
1975.036	0.725	725.4	0back	Block3	0back/STIM_016.jpg	100
1978.312	0.506	505.6	0back	Block3	0back/STIM_016.jpg	99
1982.032	0.392	391.6	0back	Block3	0back/STIM_017.jpg	100
1986.074	0.528	527.9	0back	Block3	0back/STIM_017.jpg	99
1988.987	0.521	521.4	0back	Block3	0back/STIM_017.jpg	99
1993.413	0.571	571.3	0back	Block3	0back/STIM_018.jpg	99
1996.188	0.448	448.1	0back	Block3	0back/STIM_018.jpg	99
2000.621	0.508	507.9	0back	Block3	0back/STIM_018.jpg	99
2004.967	0.529	528.7	0back	Block3	0back/STIM_019.jpg	99
2008.353	0.738	738.2	0back	Block3	0back/STIM_019.jpg	100
2011.94	0.587	586.8	0back	Block3	0back/STIM_019.jpg	100
2016.223	0.77	770.4	2back	Block4	2back/STIM_000.jpg	99
2019.321	0.781	781.2	2back	Block4	2back/STIM_000.jpg	100
2023.235	0.784	784.3	2back	Block4	2back/STIM_000.jpg	100
2026.733	0.891	890.6	2back	Block4	2back/STIM_001.jpg	100
2031.311	0.776	776.0	2back	Block4	2back/STIM_001.jpg	100
2035.134	0.799	799.1	2back	Block4	2back/STIM_001.jpg	99
2039.574	0.85	850.2	2back	Block4	2back/STIM_002.jpg	100
2042.913	0.426	426.5	2back	Block4	2back/STIM_002.jpg	100
2046.918	0.734	734.3	2back	Block4	2back/STIM_002.jpg	99
2050.705	0.549	549.4	2back	Block4	2back/STIM_003.jpg	99
2053.67	0.913	913.1	2back	Block4	2back/STIM_003.jpg	99
2056.733	0.393	393.0	2back	Block4	2back/STIM_003.jpg	100
2060.017	0.821	820.7	2back	Block4	2back/STIM_004.jpg	100
2064.097	0.722	721.9	2back	Block4	2back/STIM_004.jpg	99
2066.944	0.631	631.4	2back	Block4	2back/STIM_004.jpg	100
2071.369	0.654	653.5	2back	Block4	2back/STIM_005.jpg	100
2075.392	0.913	912.9	2back	Block4	2back/STIM_005.jpg	100
2080.066	0.89	889.7	2back	Block4	2back/STIM_005.jpg	99
2083.485	0.577	577.3	2back	Block4	2back/STIM_006.jpg	100
2087.933	0.536	536.2	2back	Block4	2back/STIM_006.jpg	100
2090.986	0.455	455.0	2back	Block4	2back/STIM_006.jpg	99
2094.392	0.458	458.0	2back	Block4	2back/STIM_007.jpg	99
2097.972	0.852	851.7	2back	Block4	2back/STIM_007.jpg	100
2101.826	0.405	404.9	2back	Block4	2back/STIM_007.jpg	100
2104.25	0.676	675.5	2back	Block4	2back/STIM_008.jpg	99
2108.573	0.5	499.9	2back	Block4	2back/STIM_008.jpg	99
2111.99	0.481	481.0	2back	Block4	2back/STIM_008.jpg	100
2115.154	0.776	776.1	2back	Block4	2back/STIM_009.jpg	99
2119.509	0.738	737.9	2back	Block4	2back/STIM_009.jpg	99
2122.382	0.686	686.2	2back	Block4	2back/STIM_009.jpg	99
2126.046	0.491	491.3	2back	Block4	2back/STIM_010.jpg	100
2130.039	0.738	737.9	2back	Block4	2back/STIM_010.jpg	100
2132.847	0.867	866.6	2back	Block4	2back/STIM_010.jpg	99
2136.761	0.795	794.6	2back	Block4	2back/STIM_011.jpg	100
2139.674	0.761	761.0	2back	Block4	2back/STIM_011.jpg	99
2142.708	0.493	492.6	2back	Block4	2back/STIM_011.jpg	100
2146.41	0.882	882.2	2back	Block4	2back/STIM_012.jpg	99
2150.327	0.657	656.9	2back	Block4	2back/STIM_012.jpg	99
2154.981	0.657	656.8	2back	Block4	2back/STIM_012.jpg	100
2158.058	0.854	854.0	2back	Block4	2back/STIM_013.jpg	100
2161.216	0.82	820.2	2back	Block4	2back/STIM_013.jpg	99
2164.152	0.465	464.9	2back	Block4	2back/STIM_013.jpg	99
2166.869	0.574	574.0	2back	Block4	2back/STIM_014.jpg	100
2170.404	0.554	553.9	2back	Block4	2back/STIM_014.jpg	99
2173.852	0.8	799.6	2back	Block4	2back/STIM_014.jpg	100
2178.292	0.865	865.4	2back	Block4	2back/STIM_015.jpg	100
2182.25	0.898	897.8	2back	Block4	2back/STIM_015.jpg	99
2186.779	0.396	396.3	2back	Block4	2back/STIM_015.jpg	99
2190.899	0.576	575.6	2back	Block4	2back/STIM_016.jpg	99
2193.552	0.403	403.4	2back	Block4	2back/STIM_016.jpg	100
2196.768	0.706	706.3	2back	Block4	2back/STIM_016.jpg	99
2200.328	0.827	826.6	2back	Block4	2back/STIM_017.jpg	100
2203.749	0.422	421.9	2back	Block4	2back/STIM_017.jpg	99
2206.631	0.598	598.4	2back	Block4	2back/STIM_017.jpg	99
2209.593	0.556	556.2	2back	Block4	2back/STIM_018.jpg	100
2212.875	0.827	827.2	2back	Block4	2back/STIM_018.jpg	100
2217.56	0.627	627.4	2back	Block4	2back/STIM_018.jpg	100
2220.938	0.885	884.6	2back	Block4	2back/STIM_019.jpg	99
2225.765	0.517	516.7	2back	Block4	2back/STIM_019.jpg	99
2230.149	0.61	610.0	2back	Block4	2back/STIM_019.jpg	100
2234.147	0.501	501.4	2back	Block4	2back/STIM_020.jpg	100
2237.605	0.89	890.0	2back	Block4	2back/STIM_020.jpg	99
2240.852	0.679	679.2	2back	Block4	2back/STIM_020.jpg	100
2244.728	0.706	705.9	2back	Block4	2back/STIM_021.jpg	99
2248.136	0.545	544.9	2back	Block4	2back/STIM_021.jpg	99
2251.227	0.574	574.2	2back	Block4	2back/STIM_021.jpg	100
2253.823	0.605	605.2	2back	Block4	2back/STIM_022.jpg	99
2258.266	0.588	588.0	2back	Block4	2back/STIM_022.jpg	100
2262.742	0.562	562.1	2back	Block4	2back/STIM_022.jpg	100
2265.77	0.634	634.2	2back	Block4	2back/STIM_023.jpg	100
2269.695	0.839	838.6	2back	Block4	2back/STIM_023.jpg	99
2272.737	0.565	565.4	2back	Block4	2back/STIM_023.jpg	100
2276.004	0.658	657.7	2back	Block4	2back/STIM_024.jpg	100
2279.028	0.532	532.1	2back	Block4	2back/STIM_024.jpg	100
2282.164	0.614	614.0	2back	Block4	2back/STIM_024.jpg	100
2286.49	0.447	447.0	2back	Block4	2back/STIM_025.jpg	100
2289.009	0.799	799.0	2back	Block4	2back/STIM_025.jpg	100
2293.018	0.633	632.8	2back	Block4	2back/STIM_025.jpg	100
2296.791	0.586	585.7	2back	Block4	2back/STIM_026.jpg	100
2300.646	0.516	515.6	2back	Block4	2back/STIM_026.jpg	100
2304.893	0.847	847.3	2back	Block4	2back/STIM_026.jpg	99
2308.215	0.684	684.2	2back	Block4	2back/STIM_027.jpg	99
2312.056	0.853	852.7	2back	Block4	2back/STIM_027.jpg	99
2316.42	0.61	610.0	2back	Block4	2back/STIM_027.jpg	99
2320.006	0.692	692.1	2back	Block4	2back/STIM_028.jpg	99
2324.245	0.41	410.5	2back	Block4	2back/STIM_028.jpg	100
2327.377	0.713	713.3	2back	Block4	2back/STIM_028.jpg	99
2331.39	0.404	403.9	2back	Block4	2back/STIM_029.jpg	99
2335.432	0.64	639.7	2back	Block4	2back/STIM_029.jpg	100
2338.433	0.419	418.8	2back	Block4	2back/STIM_029.jpg	99
2341.886	0.418	417.6	2back	Block4	2back/STIM_030.jpg	100
2345.254	0.769	768.8	2back	Block4	2back/STIM_030.jpg	100
2349.059	0.411	410.8	2back	Block4	2back/STIM_030.jpg	100
2352.251	0.871	871.0	2back	Block4	2back/STIM_031.jpg	100
2356.436	0.453	453.2	2back	Block4	2back/STIM_031.jpg	99
2360.717	0.62	619.7	2back	Block4	2back/STIM_031.jpg	100
2363.51	0.619	619.2	2back	Block4	2back/STIM_032.jpg	99
2366.732	0.807	806.7	2back	Block4	2back/STIM_032.jpg	100
2371.202	0.392	392.3	2back	Block4	2back/STIM_032.jpg	100
2374.989	0.8	799.5	2back	Block4	2back/STIM_033.jpg	100
2379.752	0.884	883.9	2back	Block4	2back/STIM_033.jpg	100
2383.134	0.899	899.2	2back	Block4	2back/STIM_033.jpg	99
2386.355	0.516	515.6	2back	Block4	2back/STIM_034.jpg	100
2389.2	0.747	747.0	2back	Block4	2back/STIM_034.jpg	99
2393.223	0.513	512.9	2back	Block4	2back/STIM_034.jpg	99
2396.415	0.68	679.9	2back	Block4	2back/STIM_035.jpg	99
2399.498	0.735	734.8	2back	Block4	2back/STIM_035.jpg	100
2403.23	0.713	713.0	2back	Block4	2back/STIM_035.jpg	100
2407.533	0.429	429.4	2back	Block4	2back/STIM_036.jpg	100
2410.298	0.847	846.7	2back	Block4	2back/STIM_036.jpg	99
2413.913	0.85	850.4	2back	Block4	2back/STIM_036.jpg	100
2418.198	0.632	632.3	2back	Block4	2back/STIM_037.jpg	99
2421.932	0.814	814.5	2back	Block4	2back/STIM_037.jpg	99
2425.939	0.478	477.6	2back	Block4	2back/STIM_037.jpg	100
2429.153	0.768	768.0	2back	Block4	2back/STIM_038.jpg	100
2433.261	0.864	863.5	2back	Block4	2back/STIM_038.jpg	99
2438.067	0.496	496.5	2back	Block4	2back/STIM_038.jpg	100
2441.883	0.486	486.3	2back	Block4	2back/STIM_039.jpg	100
2445.652	0.526	526.3	2back	Block4	2back/STIM_039.jpg	100
2448.387	0.541	541.3	2back	Block4	2back/STIM_039.jpg	99
2451.642	0.667	666.9	0back	Block4	0back/STIM_000.jpg	100
2456.144	0.47	469.8	0back	Block4	0back/STIM_000.jpg	100
2459.93	0.437	437.3	0back	Block4	0back/STIM_000.jpg	99
2464.307	0.477	477.4	0back	Block4	0back/STIM_001.jpg	100
2468.747	0.469	469.0	0back	Block4	0back/STIM_001.jpg	99
2471.926	0.638	637.8	0back	Block4	0back/STIM_001.jpg	100
2475.655	0.389	389.2	0back	Block4	0back/STIM_002.jpg	100
2478.882	0.501	500.6	0back	Block4	0back/STIM_002.jpg	100
2482.771	0.501	500.8	0back	Block4	0back/STIM_002.jpg	100
2485.36	0.703	702.7	0back	Block4	0back/STIM_003.jpg	100
2489.226	0.435	435.4	0back	Block4	0back/STIM_003.jpg	100
2493.428	0.698	697.6	0back	Block4	0back/STIM_003.jpg	99
2496.415	0.568	567.8	0back	Block4	0back/STIM_004.jpg	99
2499.663	0.612	611.8	0back	Block4	0back/STIM_004.jpg	100
2503.89	0.434	433.5	0back	Block4	0back/STIM_004.jpg	100
2507.759	0.47	470.5	0back	Block4	0back/STIM_005.jpg	100
2511.778	0.505	505.3	0back	Block4	0back/STIM_005.jpg	99
2514.922	0.671	671.3	0back	Block4	0back/STIM_005.jpg	99
2519.431	0.585	584.9	0back	Block4	0back/STIM_006.jpg	100
2522.533	0.642	641.6	0back	Block4	0back/STIM_006.jpg	100
2526.146	0.392	392.1	0back	Block4	0back/STIM_006.jpg	100
2528.635	0.541	541.2	0back	Block4	0back/STIM_007.jpg	99
2532.5	0.674	674.3	0back	Block4	0back/STIM_007.jpg	100
2535.339	0.525	524.6	0back	Block4	0back/STIM_007.jpg	99
2537.938	0.551	550.6	0back	Block4	0back/STIM_008.jpg	100
2540.594	0.722	722.0	0back	Block4	0back/STIM_008.jpg	99
2543.878	0.605	604.6	0back	Block4	0back/STIM_008.jpg	99
2548.392	0.618	617.5	0back	Block4	0back/STIM_009.jpg	99
2553.004	0.743	742.6	0back	Block4	0back/STIM_009.jpg	99
2555.823	0.667	667.1	0back	Block4	0back/STIM_009.jpg	99
2559.665	0.518	517.7	0back	Block4	0back/STIM_010.jpg	99
2563.483	0.474	473.7	0back	Block4	0back/STIM_010.jpg	99
2567.788	0.703	703.1	0back	Block4	0back/STIM_010.jpg	100
2570.731	0.524	524.1	0back	Block4	0back/STIM_011.jpg	100
2573.295	0.443	442.8	0back	Block4	0back/STIM_011.jpg	100
2576.063	0.737	737.4	0back	Block4	0back/STIM_011.jpg	99
2580.3	0.395	395.3	0back	Block4	0back/STIM_012.jpg	99
2583.221	0.735	735.0	0back	Block4	0back/STIM_012.jpg	100
2586.027	0.517	516.9	0back	Block4	0back/STIM_012.jpg	100
2590.15	0.483	482.7	0back	Block4	0back/STIM_013.jpg	99
2592.969	0.427	426.7	0back	Block4	0back/STIM_013.jpg	100
2596.795	0.525	524.8	0back	Block4	0back/STIM_013.jpg	99
2599.486	0.593	593.2	0back	Block4	0back/STIM_014.jpg	100
2603.299	0.564	564.4	0back	Block4	0back/STIM_014.jpg	100
2607.507	0.392	392.3	0back	Block4	0back/STIM_014.jpg	99
2610.084	0.376	376.0	0back	Block4	0back/STIM_015.jpg	99
2613.432	0.38	380.5	0back	Block4	0back/STIM_015.jpg	100
2616.78	0.581	581.1	0back	Block4	0back/STIM_015.jpg	100
2620.411	0.419	419.2	0back	Block4	0back/STIM_016.jpg	99
2623.676	0.579	579.1	0back	Block4	0back/STIM_016.jpg	100
2627.463	0.537	537.3	0back	Block4	0back/STIM_016.jpg	100
2630.534	0.494	494.3	0back	Block4	0back/STIM_017.jpg	99
2633.641	0.588	588.1	0back	Block4	0back/STIM_017.jpg	99
2637.378	0.604	604.1	0back	Block4	0back/STIM_017.jpg	100
2640.432	0.438	438.4	0back	Block4	0back/STIM_018.jpg	100
2643.95	0.536	536.0	0back	Block4	0back/STIM_018.jpg	100
2648.09	0.648	648.2	0back	Block4	0back/STIM_018.jpg	99
2650.774	0.609	608.8	0back	Block4	0back/STIM_019.jpg	99
2653.659	0.704	704.1	0back	Block4	0back/STIM_019.jpg	100
2658.263	0.466	466.5	0back	Block4	0back/STIM_019.jpg	100
