onset	duration	response_time_ms	trial_type	learning_stage	stimulus	response_port
0.0	1.294	1293.8	incongruent	Block1	incongruent/STIM_000.jpg	100
4.779	0.716	716.0	incongruent	Block1	incongruent/STIM_000.jpg	100
7.709	0.926	926.4	incongruent	Block1	incongruent/STIM_000.jpg	99
11.979	0.904	904.4	incongruent	Block1	incongruent/STIM_000.jpg	99
15.619	0.644	644.2	incongruent	Block1	incongruent/STIM_000.jpg	100
19.902	0.828	827.6	incongruent	Block1	incongruent/STIM_001.jpg	99
23.727	1.141	1141.1	incongruent	Block1	incongruent/STIM_001.jpg	100
28.076	1.259	1259.1	incongruent	Block1	incongruent/STIM_001.jpg	100
32.077	0.728	727.8	incongruent	Block1	incongruent/STIM_001.jpg	99
35.515	1.124	1124.2	incongruent	Block1	incongruent/STIM_001.jpg	100
38.692	1.22	1219.6	incongruent	Block1	incongruent/STIM_002.jpg	100
42.575	0.846	845.7	incongruent	Block1	incongruent/STIM_002.jpg	99
45.445	1.36	1360.5	incongruent	Block1	incongruent/STIM_002.jpg	100
50.338	0.972	972.2	incongruent	Block1	incongruent/STIM_002.jpg	100
54.978	0.641	641.2	incongruent	Block1	incongruent/STIM_002.jpg	99
59.448	1.113	1112.6	incongruent	Block1	incongruent/STIM_003.jpg	99
64.473	1.016	1016.4	incongruent	Block1	incongruent/STIM_003.jpg	100
68.026	0.782	782.4	incongruent	Block1	incongruent/STIM_003.jpg	100
70.849	1.049	1049.1	incongruent	Block1	incongruent/STIM_003.jpg	99
75.147	0.803	803.3	incongruent	Block1	incongruent/STIM_003.jpg	99
78.623	1.505	1505.2	incongruent	Block1	incongruent/STIM_004.jpg	99
82.203	1.14	1139.6	incongruent	Block1	incongruent/STIM_004.jpg	99
85.644	1.016	1016.1	incongruent	Block1	incongruent/STIM_004.jpg	99
88.858	0.814	813.7	incongruent	Block1	incongruent/STIM_004.jpg	100
92.298	0.729	728.9	incongruent	Block1	incongruent/STIM_004.jpg	100
96.649	1.476	1475.8	incongruent	Block1	incongruent/STIM_005.jpg	100
101.334	1.193	1193.2	incongruent	Block1	incongruent/STIM_005.jpg	99
104.978	1.112	1112.4	incongruent	Block1	incongruent/STIM_005.jpg	99
108.105	0.668	667.8	incongruent	Block1	incongruent/STIM_005.jpg	100
111.353	1.067	1067.0	incongruent	Block1	incongruent/STIM_005.jpg	99
115.873	1.37	1369.9	incongruent	Block1	incongruent/STIM_006.jpg	99
119.96	1.39	1389.7	incongruent	Block1	incongruent/STIM_006.jpg	99
123.952	0.829	828.7	incongruent	Block1	incongruent/STIM_006.jpg	99
127.038	0.996	995.7	incongruent	Block1	incongruent/STIM_006.jpg	99
130.787	0.759	758.9	incongruent	Block1	incongruent/STIM_006.jpg	99
134.612	0.98	979.7	incongruent	Block1	incongruent/STIM_007.jpg	100
139.227	1.165	1165.3	incongruent	Block1	incongruent/STIM_007.jpg	100
143.934	1.201	1200.6	incongruent	Block1	incongruent/STIM_007.jpg	99
148.455	0.797	797.4	incongruent	Block1	incongruent/STIM_007.jpg	99
151.74	0.682	681.8	incongruent	Block1	incongruent/STIM_007.jpg	99
155.473	1.416	1415.9	incongruent	Block1	incongruent/STIM_008.jpg	99
159.511	1.343	1343.1	incongruent	Block1	incongruent/STIM_008.jpg	100
164.341	1.02	1019.8	incongruent	Block1	incongruent/STIM_008.jpg	99
168.123	0.762	761.6	incongruent	Block1	incongruent/STIM_008.jpg	100
172.554	0.75	750.3	incongruent	Block1	incongruent/STIM_008.jpg	100
175.676	1.224	1223.8	incongruent	Block1	incongruent/STIM_009.jpg	99
180.604	1.319	1318.9	incongruent	Block1	incongruent/STIM_009.jpg	99
184.611	1.34	1340.2	incongruent	Block1	incongruent/STIM_009.jpg	99
188.23	1.057	1056.6	incongruent	Block1	incongruent/STIM_009.jpg	99
191.505	0.695	694.8	incongruent	Block1	incongruent/STIM_009.jpg	99
195.334	1.236	1236.2	incongruent	Block1	incongruent/STIM_010.jpg	99
200.287	1.287	1287.3	incongruent	Block1	incongruent/STIM_010.jpg	99
204.676	0.999	998.8	incongruent	Block1	incongruent/STIM_010.jpg	99
209.445	0.981	980.8	incongruent	Block1	incongruent/STIM_010.jpg	100
213.546	1.209	1208.7	incongruent	Block1	incongruent/STIM_010.jpg	100
218.155	0.758	757.5	incongruent	Block1	incongruent/STIM_011.jpg	100
222.354	1.209	1209.2	incongruent	Block1	incongruent/STIM_011.jpg	100
227.042	1.323	1323.3	incongruent	Block1	incongruent/STIM_011.jpg	99
231.089	1.03	1030.5	incongruent	Block1	incongruent/STIM_011.jpg	100
235.281	1.013	1013.0	incongruent	Block1	incongruent/STIM_011.jpg	99
239.124	1.294	1294.2	incongruent	Block1	incongruent/STIM_012.jpg	99
243.528	0.914	914.2	incongruent	Block1	incongruent/STIM_012.jpg	100
248.333	1.318	1318.1	incongruent	Block1	incongruent/STIM_012.jpg	99
253.083	1.213	1213.0	incongruent	Block1	incongruent/STIM_012.jpg	100
257.378	0.684	684.3	incongruent	Block1	incongruent/STIM_012.jpg	99
261.306	1.399	1399.2	incongruent	Block1	incongruent/STIM_013.jpg	99
265.229	1.06	1060.2	incongruent	Block1	incongruent/STIM_013.jpg	100
269.691	1.303	1302.6	incongruent	Block1	incongruent/STIM_013.jpg	100
274.323	0.952	951.5	incongruent	Block1	incongruent/STIM_013.jpg	99
278.431	0.863	863.3	incongruent	Block1	incongruent/STIM_013.jpg	99
282.015	1.296	1296.5	incongruent	Block1	incongruent/STIM_014.jpg	100
286.774	0.766	765.9	incongruent	Block1	incongruent/STIM_014.jpg	100
289.947	1.103	1102.7	incongruent	Block1	incongruent/STIM_014.jpg	100
293.187	0.618	617.6	incongruent	Block1	incongruent/STIM_014.jpg	99
297.4	0.8	800.1	incongruent	Block1	incongruent/STIM_014.jpg	100
300.582	1.228	1227.8	incongruent	Block1	incongruent/STIM_015.jpg	100
303.844	0.774	774.4	incongruent	Block1	incongruent/STIM_015.jpg	100
308.006	0.758	757.9	incongruent	Block1	incongruent/STIM_015.jpg	99
312.218	0.792	791.9	incongruent	Block1	incongruent/STIM_015.jpg	99
315.294	0.916	915.5	incongruent	Block1	incongruent/STIM_015.jpg	99
319.178	1.012	1012.0	incongruent	Block1	incongruent/STIM_016.jpg	99
322.592	1.387	1387.2	incongruent	Block1	incongruent/STIM_016.jpg	99
326.285	0.728	728.0	incongruent	Block1	incongruent/STIM_016.jpg	99
329.109	0.88	879.7	incongruent	Block1	incongruent/STIM_016.jpg	99
333.946	1.144	1144.4	incongruent	Block1	incongruent/STIM_016.jpg	99
337.874	1.093	1092.8	incongruent	Block1	incongruent/STIM_017.jpg	99
342.504	0.701	700.9	incongruent	Block1	incongruent/STIM_017.jpg	99
345.791	0.655	655.2	incongruent	Block1	incongruent/STIM_017.jpg	100
349.378	0.809	808.8	incongruent	Block1	incongruent/STIM_017.jpg	99
354.126	0.722	721.9	incongruent	Block1	incongruent/STIM_017.jpg	100
358.552	1.39	1389.6	incongruent	Block1	incongruent/STIM_018.jpg	99
362.443	1.33	1329.5	incongruent	Block1	incongruent/STIM_018.jpg	99
366.778	1.202	1202.2	incongruent	Block1	incongruent/STIM_018.jpg	99
370.82	1.289	1288.7	incongruent	Block1	incongruent/STIM_018.jpg	99
375.013	0.722	722.5	incongruent	Block1	incongruent/STIM_018.jpg	99
379.51	1.268	1268.2	incongruent	Block1	incongruent/STIM_019.jpg	100
383.364	1.205	1204.9	incongruent	Block1	incongruent/STIM_019.jpg	99
388.325	0.857	857.0	incongruent	Block1	incongruent/STIM_019.jpg	100
391.718	0.913	912.7	incongruent	Block1	incongruent/STIM_019.jpg	99
395.21	0.828	828.2	incongruent	Block1	incongruent/STIM_019.jpg	100
398.185	1.401	1400.8	incongruent	Block1	incongruent/STIM_020.jpg	100
402.067	0.898	898.5	incongruent	Block1	incongruent/STIM_020.jpg	100
405.079	1.241	1241.2	incongruent	Block1	incongruent/STIM_020.jpg	100
410.032	0.994	993.5	incongruent	Block1	incongruent/STIM_020.jpg	99
413.148	0.969	968.6	incongruent	Block1	incongruent/STIM_020.jpg	99
416.702	1.196	1195.9	incongruent	Block1	incongruent/STIM_021.jpg	99
420.477	1.187	1187.2	incongruent	Block1	incongruent/STIM_021.jpg	99
425.021	1.398	1398.5	incongruent	Block1	incongruent/STIM_021.jpg	100
429.369	0.714	714.4	incongruent	Block1	incongruent/STIM_021.jpg	100
433.246	0.602	601.9	incongruent	Block1	incongruent/STIM_021.jpg	100
436.995	0.869	868.6	incongruent	Block1	incongruent/STIM_022.jpg	100
440.672	1.166	1165.9	incongruent	Block1	incongruent/STIM_022.jpg	100
444.229	0.79	790.5	incongruent	Block1	incongruent/STIM_022.jpg	99
448.403	1.184	1184.3	incongruent	Block1	incongruent/STIM_022.jpg	99
452.148	0.93	930.5	incongruent	Block1	incongruent/STIM_022.jpg	100
456.169	0.966	965.5	incongruent	Block1	incongruent/STIM_023.jpg	100
459.242	0.914	914.1	incongruent	Block1	incongruent/STIM_023.jpg	100
462.256	1.171	1170.9	incongruent	Block1	incongruent/STIM_023.jpg	99
466.849	0.801	801.3	incongruent	Block1	incongruent/STIM_023.jpg	100
469.727	0.98	979.7	incongruent	Block1	incongruent/STIM_023.jpg	99
473.934	0.921	920.7	incongruent	Block1	incongruent/STIM_024.jpg	100
477.65	1.059	1058.8	incongruent	Block1	incongruent/STIM_024.jpg	100
482.24	0.726	725.8	incongruent	Block1	incongruent/STIM_024.jpg	99
485.874	0.751	751.1	incongruent	Block1	incongruent/STIM_024.jpg	99
490.267	0.806	805.9	incongruent	Block1	incongruent/STIM_024.jpg	99
494.254	1.363	1363.3	incongruent	Block1	incongruent/STIM_025.jpg	100
498.416	1.253	1253.3	incongruent	Block1	incongruent/STIM_025.jpg	100
502.152	1.165	1164.6	incongruent	Block1	incongruent/STIM_025.jpg	100
507.258	0.704	703.8	incongruent	Block1	incongruent/STIM_025.jpg	100
510.658	1.194	1194.3	incongruent	Block1	incongruent/STIM_025.jpg	100
515.206	0.85	849.6	incongruent	Block1	incongruent/STIM_026.jpg	99
518.276	1.064	1064.3	incongruent	Block1	incongruent/STIM_026.jpg	100
522.042	0.995	994.7	incongruent	Block1	incongruent/STIM_026.jpg	100
527.011	0.774	773.9	incongruent	Block1	incongruent/STIM_026.jpg	100
530.296	0.794	793.9	incongruent	Block1	incongruent/STIM_026.jpg	99
533.125	0.893	893.4	incongruent	Block1	incongruent/STIM_027.jpg	100
536.575	1.342	1342.5	incongruent	Block1	incongruent/STIM_027.jpg	99
540.078	1.251	1250.8	incongruent	Block1	incongruent/STIM_027.jpg	99
544.216	1.291	1291.3	incongruent	Block1	incongruent/STIM_027.jpg	99
547.603	1.103	1103.2	incongruent	Block1	incongruent/STIM_027.jpg	99
552.147	1.479	1479.4	incongruent	Block1	incongruent/STIM_028.jpg	100
556.67	1.058	1057.7	incongruent	Block1	incongruent/STIM_028.jpg	99
560.287	0.774	774.2	incongruent	Block1	incongruent/STIM_028.jpg	100
565.031	0.686	686.3	incongruent	Block1	incongruent/STIM_028.jpg	99
568.889	0.845	844.9	incongruent	Block1	incongruent/STIM_028.jpg	100
572.584	1.543	1542.8	incongruent	Block1	incongruent/STIM_029.jpg	99
576.149	0.937	937.3	incongruent	Block1	incongruent/STIM_029.jpg	100
579.906	1.182	1182.0	incongruent	Block1	incongruent/STIM_029.jpg	100
584.394	0.964	964.2	incongruent	Block1	incongruent/STIM_029.jpg	99
588.423	1.032	1031.7	incongruent	Block1	incongruent/STIM_029.jpg	100
593.411	0.724	724.4	congruent	Block1	congruent/STIM_000.jpg	99
597.53	0.675	674.8	congruent	Block1	congruent/STIM_000.jpg	100
601.001	0.874	874.3	congruent	Block1	congruent/STIM_000.jpg	99
604.654	0.643	643.4	congruent	Block1	congruent/STIM_000.jpg	99
608.485	0.682	681.9	congruent	Block1	congruent/STIM_000.jpg	99
611.383	0.547	547.3	congruent	Block1	congruent/STIM_001.jpg	100
614.46	0.534	534.3	congruent	Block1	congruent/STIM_001.jpg	99
617.348	0.774	774.2	congruent	Block1	congruent/STIM_001.jpg	99
620.603	0.817	817.1	congruent	Block1	congruent/STIM_001.jpg	100
623.488	0.638	638.0	congruent	Block1	congruent/STIM_001.jpg	100
626.236	0.572	571.8	congruent	Block1	congruent/STIM_002.jpg	99
630.646	0.644	644.4	congruent	Block1	congruent/STIM_002.jpg	100
634.924	0.723	723.2	congruent	Block1	congruent/STIM_002.jpg	100
638.36	0.868	867.9	congruent	Block1	congruent/STIM_002.jpg	99
641.478	0.768	767.8	congruent	Block1	congruent/STIM_002.jpg	100
644.803	0.563	562.7	congruent	Block1	congruent/STIM_003.jpg	100
648.001	0.698	697.7	congruent	Block1	congruent/STIM_003.jpg	100
652.669	0.539	539.1	congruent	Block1	congruent/STIM_003.jpg	100
656.858	0.589	588.6	congruent	Block1	congruent/STIM_003.jpg	100
660.507	0.578	578.3	congruent	Block1	congruent/STIM_003.jpg	100
663.234	0.738	737.9	congruent	Block1	congruent/STIM_004.jpg	99
666.297	0.553	552.6	congruent	Block1	congruent/STIM_004.jpg	100
670.102	0.828	827.7	congruent	Block1	congruent/STIM_004.jpg	99
674.123	0.687	687.3	congruent	Block1	congruent/STIM_004.jpg	100
678.419	0.764	764.1	congruent	Block1	congruent/STIM_004.jpg	100
682.003	0.895	894.9	congruent	Block1	congruent/STIM_005.jpg	100
686.603	0.804	804.3	congruent	Block1	congruent/STIM_005.jpg	100
690.705	0.856	855.7	congruent	Block1	congruent/STIM_005.jpg	100
695.236	0.89	890.5	congruent	Block1	congruent/STIM_005.jpg	99
698.888	0.753	752.7	congruent	Block1	congruent/STIM_005.jpg	100
702.34	0.892	891.8	congruent	Block1	congruent/STIM_006.jpg	100
705.25	0.545	544.6	congruent	Block1	congruent/STIM_006.jpg	100
709.723	0.674	673.7	congruent	Block1	congruent/STIM_006.jpg	100
714.065	0.693	693.2	congruent	Block1	congruent/STIM_006.jpg	99
718.358	0.823	822.6	congruent	Block1	congruent/STIM_006.jpg	100
721.937	0.835	834.8	congruent	Block1	congruent/STIM_007.jpg	100
724.804	0.779	778.6	congruent	Block1	congruent/STIM_007.jpg	100
727.86	0.929	929.0	congruent	Block1	congruent/STIM_007.jpg	100
732.306	0.609	608.8	congruent	Block1	congruent/STIM_007.jpg	99
735.288	0.634	633.6	congruent	Block1	congruent/STIM_007.jpg	100
739.616	0.851	851.1	congruent	Block1	congruent/STIM_008.jpg	99
742.867	0.529	528.7	congruent	Block1	congruent/STIM_008.jpg	99
745.897	0.596	596.1	congruent	Block1	congruent/STIM_008.jpg	99
749.211	0.781	781.4	congruent	Block1	congruent/STIM_008.jpg	99
753.246	0.754	753.7	congruent	Block1	congruent/STIM_008.jpg	99
757.787	0.681	680.6	congruent	Block1	congruent/STIM_009.jpg	100
761.76	0.806	805.9	congruent	Block1	congruent/STIM_009.jpg	99
766.471	0.693	692.6	congruent	Block1	congruent/STIM_009.jpg	100
770.916	0.864	863.8	congruent	Block1	congruent/STIM_009.jpg	99
775.204	0.596	595.5	congruent	Block1	congruent/STIM_009.jpg	100
779.644	0.877	876.7	congruent	Block1	congruent/STIM_010.jpg	100
783.591	0.892	892.4	congruent	Block1	congruent/STIM_010.jpg	99
787.242	0.908	908.0	congruent	Block1	congruent/STIM_010.jpg	100
790.235	0.779	779.0	congruent	Block1	congruent/STIM_010.jpg	99
794.429	0.865	865.3	congruent	Block1	congruent/STIM_010.jpg	100
798.967	0.762	762.2	congruent	Block1	congruent/STIM_011.jpg	100
802.567	0.851	851.3	congruent	Block1	congruent/STIM_011.jpg	99
805.496	0.855	854.6	congruent	Block1	congruent/STIM_011.jpg	100
809.73	0.843	842.8	congruent	Block1	congruent/STIM_011.jpg	99
812.858	0.889	889.4	congruent	Block1	congruent/STIM_011.jpg	99
816.564	0.914	914.3	congruent	Block1	congruent/STIM_012.jpg	100
820.777	0.638	638.4	congruent	Block1	congruent/STIM_012.jpg	99
824.547	0.922	922.0	congruent	Block1	congruent/STIM_012.jpg	99
829.235	0.815	814.9	congruent	Block1	congruent/STIM_012.jpg	99
832.115	0.85	849.6	congruent	Block1	congruent/STIM_012.jpg	100
835.155	0.643	643.3	congruent	Block1	congruent/STIM_013.jpg	100
838.993	0.636	636.0	congruent	Block1	congruent/STIM_013.jpg	99
842.19	0.718	718.1	congruent	Block1	congruent/STIM_013.jpg	99
845.607	0.777	777.2	congruent	Block1	congruent/STIM_013.jpg	100
849.713	0.657	657.4	congruent	Block1	congruent/STIM_013.jpg	99
853.225	0.831	831.1	congruent	Block1	congruent/STIM_014.jpg	100
857.558	0.895	895.0	congruent	Block1	congruent/STIM_014.jpg	99
862.104	0.711	710.6	congruent	Block1	congruent/STIM_014.jpg	100
865.552	0.932	932.1	congruent	Block1	congruent/STIM_014.jpg	99
870.267	0.757	757.2	congruent	Block1	congruent/STIM_014.jpg	99
874.404	0.542	541.5	congruent	Block1	congruent/STIM_015.jpg	100
877.407	0.78	779.6	congruent	Block1	congruent/STIM_015.jpg	100
881.717	0.79	789.7	congruent	Block1	congruent/STIM_015.jpg	100
885.142	0.822	821.9	congruent	Block1	congruent/STIM_015.jpg	100
888.508	0.75	749.7	congruent	Block1	congruent/STIM_015.jpg	100
891.55	0.624	624.1	congruent	Block1	congruent/STIM_016.jpg	100
894.227	0.869	869.2	congruent	Block1	congruent/STIM_016.jpg	99
897.517	0.736	735.9	congruent	Block1	congruent/STIM_016.jpg	99
900.824	0.846	845.7	congruent	Block1	congruent/STIM_016.jpg	100
904.898	0.649	649.2	congruent	Block1	congruent/STIM_016.jpg	100
908.959	0.6	599.7	congruent	Block1	congruent/STIM_017.jpg	99
913.235	0.887	887.1	congruent	Block1	congruent/STIM_017.jpg	99
917.122	0.844	843.8	congruent	Block1	congruent/STIM_017.jpg	100
921.385	0.574	574.0	congruent	Block1	congruent/STIM_017.jpg	100
925.29	0.755	754.7	congruent	Block1	congruent/STIM_017.jpg	99
929.129	0.537	536.8	congruent	Block1	congruent/STIM_018.jpg	99
932.447	0.748	747.7	congruent	Block1	congruent/STIM_018.jpg	100
935.944	0.742	741.9	congruent	Block1	congruent/STIM_018.jpg	99
940.077	0.616	616.0	congruent	Block1	congruent/STIM_018.jpg	99
944.654	0.909	908.7	congruent	Block1	congruent/STIM_018.jpg	100
947.743	0.74	740.4	congruent	Block1	congruent/STIM_019.jpg	99
951.512	0.632	631.6	congruent	Block1	congruent/STIM_019.jpg	99
955.172	0.805	804.7	congruent	Block1	congruent/STIM_019.jpg	99
958.83	0.798	797.9	congruent	Block1	congruent/STIM_019.jpg	100
963.216	0.784	783.6	congruent	Block1	congruent/STIM_019.jpg	99
966.869	0.797	797.2	congruent	Block1	congruent/STIM_020.jpg	99
971.545	0.601	601.0	congruent	Block1	congruent/STIM_020.jpg	100
974.629	0.833	833.0	congruent	Block1	congruent/STIM_020.jpg	100
978.085	0.673	673.4	congruent	Block1	congruent/STIM_020.jpg	99
981.156	0.766	766.2	congruent	Block1	congruent/STIM_020.jpg	99
984.469	0.676	676.5	congruent	Block1	congruent/STIM_021.jpg	100
988.555	0.802	802.1	congruent	Block1	congruent/STIM_021.jpg	99
992.041	0.553	552.8	congruent	Block1	congruent/STIM_021.jpg	99
994.829	0.617	616.6	congruent	Block1	congruent/STIM_021.jpg	99
999.3	0.541	540.7	congruent	Block1	congruent/STIM_021.jpg	100
1002.611	0.88	880.3	congruent	Block1	congruent/STIM_022.jpg	99
1005.6	0.851	850.6	congruent	Block1	congruent/STIM_022.jpg	99
1010.235	0.565	565.4	congruent	Block1	congruent/STIM_022.jpg	99
1012.993	0.64	640.2	congruent	Block1	congruent/STIM_022.jpg	100
1015.778	0.657	657.2	congruent	Block1	congruent/STIM_022.jpg	100
1020.236	0.929	928.6	congruent	Block1	congruent/STIM_023.jpg	99
1024.536	0.746	746.0	congruent	Block1	congruent/STIM_023.jpg	99
1029.185	0.801	801.2	congruent	Block1	congruent/STIM_023.jpg	99
1032.315	0.732	731.9	congruent	Block1	congruent/STIM_023.jpg	100
1036.808	0.731	731.4	congruent	Block1	congruent/STIM_023.jpg	99
1041.29	0.872	872.0	congruent	Block1	congruent/STIM_024.jpg	99
1045.908	0.929	928.9	congruent	Block1	congruent/STIM_024.jpg	100
1049.982	0.894	894.1	congruent	Block1	congruent/STIM_024.jpg	99
1054.234	0.778	778.3	congruent	Block1	congruent/STIM_024.jpg	99
1058.84	0.822	822.2	congruent	Block1	congruent/STIM_024.jpg	99
1063.531	0.582	582.1	congruent	Block1	congruent/STIM_025.jpg	100
1066.672	0.773	772.8	congruent	Block1	congruent/STIM_025.jpg	99
1069.731	0.931	930.7	congruent	Block1	congruent/STIM_025.jpg	100
1073.456	0.728	728.3	congruent	Block1	congruent/STIM_025.jpg	99
1077.986	0.811	811.0	congruent	Block1	congruent/STIM_025.jpg	100
1082.694	0.68	680.4	congruent	Block1	congruent/STIM_026.jpg	99
1086.013	0.812	811.9	congruent	Block1	congruent/STIM_026.jpg	99
1089.074	0.893	892.7	congruent	Block1	congruent/STIM_026.jpg	100
1092.072	0.539	538.6	congruent	Block1	congruent/STIM_026.jpg	100
1094.701	0.742	742.2	congruent	Block1	congruent/STIM_026.jpg	100
1097.887	0.893	892.8	congruent	Block1	congruent/STIM_027.jpg	100
1102.534	0.72	720.2	congruent	Block1	congruent/STIM_027.jpg	100
1105.409	0.847	846.6	congruent	Block1	congruent/STIM_027.jpg	99
1110.228	0.906	905.5	congruent	Block1	congruent/STIM_027.jpg	99
1113.378	0.788	788.0	congruent	Block1	congruent/STIM_027.jpg	100
1116.548	0.682	682.1	congruent	Block1	congruent/STIM_028.jpg	99
1120.367	0.801	801.1	congruent	Block1	congruent/STIM_028.jpg	100
1123.265	0.542	542.0	congruent	Block1	congruent/STIM_028.jpg	99
1127.569	0.823	823.1	congruent	Block1	congruent/STIM_028.jpg	99
1131.881	0.655	655.4	congruent	Block1	congruent/STIM_028.jpg	100
1135.827	0.766	766.3	congruent	Block1	congruent/STIM_029.jpg	99
1139.484	0.742	741.9	congruent	Block1	congruent/STIM_029.jpg	100
1143.087	0.632	632.5	congruent	Block1	congruent/STIM_029.jpg	99
1147.532	0.571	571.1	congruent	Block1	congruent/STIM_029.jpg	99
1151.411	0.556	556.0	congruent	Block1	congruent/STIM_029.jpg	100
1154.852	1.189	1188.9	incongruent	Block2	incongruent/STIM_000.jpg	100
1158.869	1.199	1199.4	incongruent	Block2	incongruent/STIM_000.jpg	99
1162.915	1.086	1085.5	incongruent	Block2	incongruent/STIM_000.jpg	100
1167.749	0.957	956.7	incongruent	Block2	incongruent/STIM_000.jpg	100
1171.967	0.567	567.1	incongruent	Block2	incongruent/STIM_000.jpg	100
1176.254	0.647	646.7	incongruent	Block2	incongruent/STIM_001.jpg	99
1179.917	1.098	1098.0	incongruent	Block2	incongruent/STIM_001.jpg	99
1183.016	1.127	1127.3	incongruent	Block2	incongruent/STIM_001.jpg	100
1187.223	1.0	1000.0	incongruent	Block2	incongruent/STIM_001.jpg	100
1190.945	0.941	941.3	incongruent	Block2	incongruent/STIM_001.jpg	100
1195.736	0.984	983.5	incongruent	Block2	incongruent/STIM_002.jpg	100
1199.208	1.099	1099.2	incongruent	Block2	incongruent/STIM_002.jpg	100
1202.316	0.65	649.5	incongruent	Block2	incongruent/STIM_002.jpg	99
1206.154	0.773	773.3	incongruent	Block2	incongruent/STIM_002.jpg	99
1209.739	0.518	517.7	incongruent	Block2	incongruent/STIM_002.jpg	99
1213.277	1.011	1011.3	incongruent	Block2	incongruent/STIM_003.jpg	99
1218.064	0.858	858.5	incongruent	Block2	incongruent/STIM_003.jpg	99
1221.266	0.784	784.5	incongruent	Block2	incongruent/STIM_003.jpg	99
1225.139	0.519	519.3	incongruent	Block2	incongruent/STIM_003.jpg	100
1229.189	0.673	672.7	incongruent	Block2	incongruent/STIM_003.jpg	100
1232.281	1.093	1093.0	incongruent	Block2	incongruent/STIM_004.jpg	100
1235.604	0.915	914.6	incongruent	Block2	incongruent/STIM_004.jpg	99
1239.2	0.935	934.7	incongruent	Block2	incongruent/STIM_004.jpg	99
1243.113	0.67	670.3	incongruent	Block2	incongruent/STIM_004.jpg	100
1246.326	0.903	902.9	incongruent	Block2	incongruent/STIM_004.jpg	99
1250.579	0.856	856.3	incongruent	Block2	incongruent/STIM_005.jpg	100
1254.783	0.604	604.0	incongruent	Block2	incongruent/STIM_005.jpg	100
1258.31	0.816	816.0	incongruent	Block2	incongruent/STIM_005.jpg	100
1261.318	0.687	687.2	incongruent	Block2	incongruent/STIM_005.jpg	100
1264.41	1.028	1028.4	incongruent	Block2	incongruent/STIM_005.jpg	100
1267.714	0.898	897.7	incongruent	Block2	incongruent/STIM_006.jpg	100
1271.005	1.216	1216.4	incongruent	Block2	incongruent/STIM_006.jpg	100
1275.024	0.883	882.6	incongruent	Block2	incongruent/STIM_006.jpg	99
1279.528	0.88	880.3	incongruent	Block2	incongruent/STIM_006.jpg	99
1282.933	0.862	862.1	incongruent	Block2	incongruent/STIM_006.jpg	99
1286.34	0.728	728.5	incongruent	Block2	incongruent/STIM_007.jpg	100
1290.801	0.598	598.5	incongruent	Block2	incongruent/STIM_007.jpg	100
1294.099	0.955	955.2	incongruent	Block2	incongruent/STIM_007.jpg	99
1298.745	0.846	846.1	incongruent	Block2	incongruent/STIM_007.jpg	99
1303.241	0.52	520.4	incongruent	Block2	incongruent/STIM_007.jpg	100
1306.998	0.806	805.5	incongruent	Block2	incongruent/STIM_008.jpg	100
1310.843	0.767	767.4	incongruent	Block2	incongruent/STIM_008.jpg	99
1315.385	0.679	679.1	incongruent	Block2	incongruent/STIM_008.jpg	99
1319.825	0.671	671.1	incongruent	Block2	incongruent/STIM_008.jpg	100
1322.559	0.733	732.6	incongruent	Block2	incongruent/STIM_008.jpg	99
1326.898	0.734	734.2	incongruent	Block2	incongruent/STIM_009.jpg	99
1331.273	1.119	1118.7	incongruent	Block2	incongruent/STIM_009.jpg	100
1335.086	0.717	717.2	incongruent	Block2	incongruent/STIM_009.jpg	100
1338.909	0.998	998.0	incongruent	Block2	incongruent/STIM_009.jpg	99
1343.656	0.838	838.0	incongruent	Block2	incongruent/STIM_009.jpg	100
1346.496	0.772	771.8	incongruent	Block2	incongruent/STIM_010.jpg	99
1349.345	0.848	847.8	incongruent	Block2	incongruent/STIM_010.jpg	100
1353.665	1.099	1098.8	incongruent	Block2	incongruent/STIM_010.jpg	100
1357.371	0.838	838.5	incongruent	Block2	incongruent/STIM_010.jpg	100
1361.221	0.896	896.4	incongruent	Block2	incongruent/STIM_010.jpg	99
1365.924	0.885	885.4	incongruent	Block2	incongruent/STIM_011.jpg	100
1369.521	0.94	939.9	incongruent	Block2	incongruent/STIM_011.jpg	99
1373.649	0.929	929.3	incongruent	Block2	incongruent/STIM_011.jpg	100
1378.379	0.55	549.8	incongruent	Block2	incongruent/STIM_011.jpg	100
1381.416	0.544	543.7	incongruent	Block2	incongruent/STIM_011.jpg	100
1384.428	0.624	624.0	incongruent	Block2	incongruent/STIM_012.jpg	99
1387.391	0.655	655.4	incongruent	Block2	incongruent/STIM_012.jpg	99
1390.426	1.107	1106.6	incongruent	Block2	incongruent/STIM_012.jpg	100
1395.311	0.577	576.7	incongruent	Block2	incongruent/STIM_012.jpg	100
1398.316	0.759	758.9	incongruent	Block2	incongruent/STIM_012.jpg	100
1401.448	1.047	1047.0	incongruent	Block2	incongruent/STIM_013.jpg	99
1405.841	0.863	862.9	incongruent	Block2	incongruent/STIM_013.jpg	100
1408.912	0.989	989.2	incongruent	Block2	incongruent/STIM_013.jpg	100
1412.494	0.837	837.3	incongruent	Block2	incongruent/STIM_013.jpg	99
1415.456	0.755	755.0	incongruent	Block2	incongruent/STIM_013.jpg	99
1419.396	1.185	1185.1	incongruent	Block2	incongruent/STIM_014.jpg	99
1422.895	0.84	840.2	incongruent	Block2	incongruent/STIM_014.jpg	100
1426.227	0.709	709.3	incongruent	Block2	incongruent/STIM_014.jpg	100
1430.787	0.878	878.5	incongruent	Block2	incongruent/STIM_014.jpg	99
1434.26	0.755	754.9	incongruent	Block2	incongruent/STIM_014.jpg	99
1437.077	1.017	1017.4	incongruent	Block2	incongruent/STIM_015.jpg	100
1440.955	0.588	588.0	incongruent	Block2	incongruent/STIM_015.jpg	99
1443.997	0.818	818.5	incongruent	Block2	incongruent/STIM_015.jpg	100
1446.979	0.548	547.8	incongruent	Block2	incongruent/STIM_015.jpg	100
1449.937	0.554	553.7	incongruent	Block2	incongruent/STIM_015.jpg	99
1452.656	1.261	1261.1	incongruent	Block2	incongruent/STIM_016.jpg	99
1457.405	1.23	1230.0	incongruent	Block2	incongruent/STIM_016.jpg	100
1462.13	0.78	780.4	incongruent	Block2	incongruent/STIM_016.jpg	99
1465.342	1.065	1065.3	incongruent	Block2	incongruent/STIM_016.jpg	100
1469.9	0.68	680.0	incongruent	Block2	incongruent/STIM_016.jpg	100
1473.643	1.106	1105.6	incongruent	Block2	incongruent/STIM_017.jpg	100
1478.564	0.943	942.7	incongruent	Block2	incongruent/STIM_017.jpg	99
1482.369	0.897	896.6	incongruent	Block2	incongruent/STIM_017.jpg	99
1485.419	1.07	1069.9	incongruent	Block2	incongruent/STIM_017.jpg	99
1490.347	0.891	891.0	incongruent	Block2	incongruent/STIM_017.jpg	99
1494.854	0.85	849.9	incongruent	Block2	incongruent/STIM_018.jpg	99
1498.668	0.823	823.3	incongruent	Block2	incongruent/STIM_018.jpg	100
1502.993	0.753	753.0	incongruent	Block2	incongruent/STIM_018.jpg	99
1506.829	0.72	720.3	incongruent	Block2	incongruent/STIM_018.jpg	100
1511.151	0.548	547.9	incongruent	Block2	incongruent/STIM_018.jpg	100
1515.487	0.913	913.4	incongruent	Block2	incongruent/STIM_019.jpg	100
1518.749	0.804	804.3	incongruent	Block2	incongruent/STIM_019.jpg	100
1523.47	1.142	1142.5	incongruent	Block2	incongruent/STIM_019.jpg	100
1527.417	0.557	557.0	incongruent	Block2	incongruent/STIM_019.jpg	100
1530.492	0.581	581.3	incongruent	Block2	incongruent/STIM_019.jpg	99
1534.158	0.95	950.0	incongruent	Block2	incongruent/STIM_020.jpg	99
1538.17	0.942	942.1	incongruent	Block2	incongruent/STIM_020.jpg	99
1541.222	0.552	551.9	incongruent	Block2	incongruent/STIM_020.jpg	100
1543.964	0.742	742.3	incongruent	Block2	incongruent/STIM_020.jpg	99
1547.186	0.805	804.9	incongruent	Block2	incongruent/STIM_020.jpg	100
1550.298	0.781	781.0	incongruent	Block2	incongruent/STIM_021.jpg	99
1554.004	0.624	624.3	incongruent	Block2	incongruent/STIM_021.jpg	100
1558.326	0.57	570.4	incongruent	Block2	incongruent/STIM_021.jpg	100
1562.209	0.958	958.2	incongruent	Block2	incongruent/STIM_021.jpg	100
1566.748	0.563	562.7	incongruent	Block2	incongruent/STIM_021.jpg	100
1570.515	1.051	1050.7	incongruent	Block2	incongruent/STIM_022.jpg	100
1574.358	1.189	1188.7	incongruent	Block2	incongruent/STIM_022.jpg	99
1577.837	0.98	980.1	incongruent	Block2	incongruent/STIM_022.jpg	99
1581.435	0.954	953.7	incongruent	Block2	incongruent/STIM_022.jpg	100
1585.469	0.947	946.6	incongruent	Block2	incongruent/STIM_022.jpg	99
1590.319	0.875	875.3	incongruent	Block2	incongruent/STIM_023.jpg	100
1593.257	0.961	960.7	incongruent	Block2	incongruent/STIM_023.jpg	99
1597.12	1.139	1138.7	incongruent	Block2	incongruent/STIM_023.jpg	100
1600.787	0.694	693.6	incongruent	Block2	incongruent/STIM_023.jpg	100
1603.882	0.963	963.4	incongruent	Block2	incongruent/STIM_023.jpg	99
1607.097	0.965	964.8	incongruent	Block2	incongruent/STIM_024.jpg	100
1611.173	0.802	802.1	incongruent	Block2	incongruent/STIM_024.jpg	99
1614.997	0.932	932.1	incongruent	Block2	incongruent/STIM_024.jpg	100
1618.384	1.031	1031.3	incongruent	Block2	incongruent/STIM_024.jpg	99
1622.551	1.059	1059.1	incongruent	Block2	incongruent/STIM_024.jpg	99
1626.067	0.761	761.3	incongruent	Block2	incongruent/STIM_025.jpg	100
1630.089	0.802	801.5	incongruent	Block2	incongruent/STIM_025.jpg	99
1633.223	0.922	921.7	incongruent	Block2	incongruent/STIM_025.jpg	100
1637.966	0.879	879.3	incongruent	Block2	incongruent/STIM_025.jpg	100
1642.323	0.938	938.1	incongruent	Block2	incongruent/STIM_025.jpg	100
1645.668	0.68	679.7	incongruent	Block2	incongruent/STIM_026.jpg	99
1649.125	1.182	1182.3	incongruent	Block2	incongruent/STIM_026.jpg	100
1653.367	1.139	1138.6	incongruent	Block2	incongruent/STIM_026.jpg	99
1657.13	0.621	621.2	incongruent	Block2	incongruent/STIM_026.jpg	100
1660.065	0.581	581.1	incongruent	Block2	incongruent/STIM_026.jpg	99
1664.153	1.047	1047.0	incongruent	Block2	incongruent/STIM_027.jpg	99
1668.985	0.653	653.0	incongruent	Block2	incongruent/STIM_027.jpg	100
1672.246	1.132	1132.3	incongruent	Block2	incongruent/STIM_027.jpg	100
1676.571	0.62	619.9	incongruent	Block2	incongruent/STIM_027.jpg	100
1680.791	1.056	1055.7	incongruent	Block2	incongruent/STIM_027.jpg	99
1685.25	0.754	753.7	incongruent	Block2	incongruent/STIM_028.jpg	100
1688.815	1.15	1150.2	incongruent	Block2	incongruent/STIM_028.jpg	99
1693.939	0.74	739.6	incongruent	Block2	incongruent/STIM_028.jpg	100
1698.211	0.65	649.8	incongruent	Block2	incongruent/STIM_028.jpg	100
1701.586	0.839	839.4	incongruent	Block2	incongruent/STIM_028.jpg	99
1705.071	1.2	1200.2	incongruent	Block2	incongruent/STIM_029.jpg	100
1709.669	1.132	1132.2	incongruent	Block2	incongruent/STIM_029.jpg	100
1713.486	0.858	857.6	incongruent	Block2	incongruent/STIM_029.jpg	99
1717.527	0.651	650.7	incongruent	Block2	incongruent/STIM_029.jpg	100
1722.036	0.677	677.4	incongruent	Block2	incongruent/STIM_029.jpg	99
1724.856	0.594	594.4	congruent	Block2	congruent/STIM_000.jpg	99
1729.17	0.794	793.6	congruent	Block2	congruent/STIM_000.jpg	99
1731.987	0.712	712.3	congruent	Block2	congruent/STIM_000.jpg	99
1735.483	0.897	896.8	congruent	Block2	congruent/STIM_000.jpg	100
1738.538	0.818	817.6	congruent	Block2	congruent/STIM_000.jpg	99
1743.245	0.591	591.0	congruent	Block2	congruent/STIM_001.jpg	99
1746.576	0.866	866.1	congruent	Block2	congruent/STIM_001.jpg	100
1751.175	0.826	825.5	congruent	Block2	congruent/STIM_001.jpg	100
1754.12	0.918	918.5	congruent	Block2	congruent/STIM_001.jpg	99
1758.095	0.762	761.6	congruent	Block2	congruent/STIM_001.jpg	100
1761.425	0.577	576.9	congruent	Block2	congruent/STIM_002.jpg	100
1764.209	0.593	593.3	congruent	Block2	congruent/STIM_002.jpg	99
1768.471	0.902	902.5	congruent	Block2	congruent/STIM_002.jpg	99
1773.051	0.862	861.5	congruent	Block2	congruent/STIM_002.jpg	100
1777.233	0.642	641.5	congruent	Block2	congruent/STIM_002.jpg	100
1781.077	0.683	682.6	congruent	Block2	congruent/STIM_003.jpg	99
1784.699	0.917	916.9	congruent	Block2	congruent/STIM_003.jpg	100
1789.258	0.669	668.7	congruent	Block2	congruent/STIM_003.jpg	100
1793.363	0.836	836.3	congruent	Block2	congruent/STIM_003.jpg	99
1797.967	0.92	920.3	congruent	Block2	congruent/STIM_003.jpg	100
1802.058	0.78	780.5	congruent	Block2	congruent/STIM_004.jpg	100
1806.815	0.543	542.9	congruent	Block2	congruent/STIM_004.jpg	99
1810.622	0.759	759.1	congruent	Block2	congruent/STIM_004.jpg	99
1814.034	0.9	900.5	congruent	Block2	congruent/STIM_004.jpg	99
1817.46	0.874	873.7	congruent	Block2	congruent/STIM_004.jpg	100
1821.43	0.727	726.8	congruent	Block2	congruent/STIM_005.jpg	100
1826.096	0.791	790.8	congruent	Block2	congruent/STIM_005.jpg	99
1829.362	0.718	718.1	congruent	Block2	congruent/STIM_005.jpg	100
1833.425	0.582	582.1	congruent	Block2	congruent/STIM_005.jpg	99
1836.439	0.521	520.9	congruent	Block2	congruent/STIM_005.jpg	99
1839.842	0.76	759.8	congruent	Block2	congruent/STIM_006.jpg	99
1843.805	0.67	669.9	congruent	Block2	congruent/STIM_006.jpg	99
1848.166	0.669	669.1	congruent	Block2	congruent/STIM_006.jpg	99
1851.765	0.62	619.5	congruent	Block2	congruent/STIM_006.jpg	99
1856.139	0.769	768.8	congruent	Block2	congruent/STIM_006.jpg	100
1860.883	0.808	808.1	congruent	Block2	congruent/STIM_007.jpg	99
1864.395	0.785	785.0	congruent	Block2	congruent/STIM_007.jpg	100
1867.304	0.886	886.4	congruent	Block2	congruent/STIM_007.jpg	100
1871.316	0.674	673.5	congruent	Block2	congruent/STIM_007.jpg	100
1875.162	0.921	921.2	congruent	Block2	congruent/STIM_007.jpg	100
1879.326	0.882	882.0	congruent	Block2	congruent/STIM_008.jpg	100
1882.894	0.618	617.6	congruent	Block2	congruent/STIM_008.jpg	100
1887.293	0.912	911.6	congruent	Block2	congruent/STIM_008.jpg	99
1890.731	0.767	766.7	congruent	Block2	congruent/STIM_008.jpg	99
1895.045	0.682	681.8	congruent	Block2	congruent/STIM_008.jpg	99
1897.746	0.527	527.1	congruent	Block2	congruent/STIM_009.jpg	100
1900.947	0.876	875.7	congruent	Block2	congruent/STIM_009.jpg	99
1905.245	0.644	643.9	congruent	Block2	congruent/STIM_009.jpg	100
1908.802	0.837	837.0	congruent	Block2	congruent/STIM_009.jpg	100
1913.061	0.897	897.0	congruent	Block2	congruent/STIM_009.jpg	100
1917.645	0.703	703.1	congruent	Block2	congruent/STIM_010.jpg	100
1921.473	0.72	719.8	congruent	Block2	congruent/STIM_010.jpg	99
1924.253	0.713	713.2	congruent	Block2	congruent/STIM_010.jpg	100
1928.865	0.719	719.4	congruent	Block2	congruent/STIM_010.jpg	99
1932.025	0.671	670.6	congruent	Block2	congruent/STIM_010.jpg	100
1935.094	0.844	843.9	congruent	Block2	congruent/STIM_011.jpg	100
1938.375	0.835	835.1	congruent	Block2	congruent/STIM_011.jpg	99
1942.738	0.698	698.0	congruent	Block2	congruent/STIM_011.jpg	99
1946.886	0.77	770.0	congruent	Block2	congruent/STIM_011.jpg	99
1950.889	0.71	709.6	congruent	Block2	congruent/STIM_011.jpg	100
1953.704	0.593	593.3	congruent	Block2	congruent/STIM_012.jpg	100
1956.866	0.684	683.9	congruent	Block2	congruent/STIM_012.jpg	100
1961.404	0.52	519.6	congruent	Block2	congruent/STIM_012.jpg	99
1963.925	0.604	604.0	congruent	Block2	congruent/STIM_012.jpg	100
1968.456	0.65	649.5	congruent	Block2	congruent/STIM_012.jpg	99
1971.763	0.683	682.6	congruent	Block2	congruent/STIM_013.jpg	99
1975.739	0.829	829.1	congruent	Block2	congruent/STIM_013.jpg	99
1979.324	0.774	774.1	congruent	Block2	congruent/STIM_013.jpg	100
1984.034	0.561	561.3	congruent	Block2	congruent/STIM_013.jpg	99
1988.071	0.668	668.0	congruent	Block2	congruent/STIM_013.jpg	99
1992.244	0.912	911.5	congruent	Block2	congruent/STIM_014.jpg	100
1995.649	0.615	614.9	congruent	Block2	congruent/STIM_014.jpg	100
1999.423	0.765	764.9	congruent	Block2	congruent/STIM_014.jpg	100
2002.48	0.901	900.8	congruent	Block2	congruent/STIM_014.jpg	100
2007.352	0.755	754.8	congruent	Block2	congruent/STIM_014.jpg	99
2010.484	0.761	761.2	congruent	Block2	congruent/STIM_015.jpg	99
2014.844	0.813	813.0	congruent	Block2	congruent/STIM_015.jpg	100
2017.832	0.677	676.9	congruent	Block2	congruent/STIM_015.jpg	99
2022.105	0.685	684.9	congruent	Block2	congruent/STIM_015.jpg	99
2025.576	0.897	896.9	congruent	Block2	congruent/STIM_015.jpg	99
2028.864	0.712	712.3	congruent	Block2	congruent/STIM_016.jpg	100
2032.745	0.589	588.6	congruent	Block2	congruent/STIM_016.jpg	100
2037.257	0.8	800.4	congruent	Block2	congruent/STIM_016.jpg	99
2041.313	0.92	920.2	congruent	Block2	congruent/STIM_016.jpg	100
2044.285	0.878	877.7	congruent	Block2	congruent/STIM_016.jpg	99
2048.177	0.522	522.1	congruent	Block2	congruent/STIM_017.jpg	99
2051.72	0.851	851.1	congruent	Block2	congruent/STIM_017.jpg	99
2056.56	0.768	767.8	congruent	Block2	congruent/STIM_017.jpg	100
2059.704	0.768	768.3	congruent	Block2	congruent/STIM_017.jpg	100
2064.008	0.764	763.8	congruent	Block2	congruent/STIM_017.jpg	100
2068.018	0.704	704.3	congruent	Block2	congruent/STIM_018.jpg	100
2071.447	0.728	727.6	congruent	Block2	congruent/STIM_018.jpg	100
2074.734	0.568	568.0	congruent	Block2	congruent/STIM_018.jpg	99
2078.74	0.81	809.9	congruent	Block2	congruent/STIM_018.jpg	99
2082.757	0.932	931.8	congruent	Block2	congruent/STIM_018.jpg	99
2086.619	0.718	717.6	congruent	Block2	congruent/STIM_019.jpg	100
2090.92	0.653	653.3	congruent	Block2	congruent/STIM_019.jpg	99
2094.311	0.814	813.9	congruent	Block2	congruent/STIM_019.jpg	99
2098.833	0.731	730.9	congruent	Block2	congruent/STIM_019.jpg	100
2103.554	0.897	897.1	congruent	Block2	congruent/STIM_019.jpg	100
2107.639	0.591	591.1	congruent	Block2	congruent/STIM_020.jpg	99
2111.424	0.704	704.3	congruent	Block2	congruent/STIM_020.jpg	99
2114.763	0.922	921.9	congruent	Block2	congruent/STIM_020.jpg	99
2118.979	0.546	546.2	congruent	Block2	congruent/STIM_020.jpg	100
2121.751	0.58	579.8	congruent	Block2	congruent/STIM_020.jpg	99
2125.204	0.57	570.5	congruent	Block2	congruent/STIM_021.jpg	99
2129.427	0.775	775.3	congruent	Block2	congruent/STIM_021.jpg	99
2133.163	0.523	522.8	congruent	Block2	congruent/STIM_021.jpg	100
2137.625	0.783	782.7	congruent	Block2	congruent/STIM_021.jpg	99
2140.654	0.589	589.2	congruent	Block2	congruent/STIM_021.jpg	100
2144.319	0.823	823.4	congruent	Block2	congruent/STIM_022.jpg	99
2147.543	0.582	581.8	congruent	Block2	congruent/STIM_022.jpg	100
2151.06	0.788	787.7	congruent	Block2	congruent/STIM_022.jpg	99
2154.385	0.767	767.0	congruent	Block2	congruent/STIM_022.jpg	100
2157.338	0.666	666.2	congruent	Block2	congruent/STIM_022.jpg	100
2160.024	0.66	660.0	congruent	Block2	congruent/STIM_023.jpg	99
2164.435	0.714	714.1	congruent	Block2	congruent/STIM_023.jpg	99
2168.206	0.81	809.7	congruent	Block2	congruent/STIM_023.jpg	99
2172.806	0.823	823.1	congruent	Block2	congruent/STIM_023.jpg	100
2176.8	0.794	794.5	congruent	Block2	congruent/STIM_023.jpg	99
2180.028	0.8	799.5	congruent	Block2	congruent/STIM_024.jpg	100
2183.944	0.932	932.0	congruent	Block2	congruent/STIM_024.jpg	100
2188.017	0.825	825.4	congruent	Block2	congruent/STIM_024.jpg	100
2191.966	0.601	601.4	congruent	Block2	congruent/STIM_024.jpg	100
2195.542	0.75	749.6	congruent	Block2	congruent/STIM_024.jpg	100
2200.021	0.812	812.3	congruent	Block2	congruent/STIM_025.jpg	100
2203.255	0.911	911.3	congruent	Block2	congruent/STIM_025.jpg	99
2206.75	0.597	597.0	congruent	Block2	congruent/STIM_025.jpg	99
2210.755	0.716	715.7	congruent	Block2	congruent/STIM_025.jpg	100
2214.55	0.839	838.7	congruent	Block2	congruent/STIM_025.jpg	99
2217.968	0.561	560.6	congruent	Block2	congruent/STIM_026.jpg	99
2221.905	0.55	550.4	congruent	Block2	congruent/STIM_026.jpg	100
2225.928	0.664	663.6	congruent	Block2	congruent/STIM_026.jpg	100
2229.896	0.819	819.4	congruent	Block2	congruent/STIM_026.jpg	99
2233.511	0.61	609.7	congruent	Block2	congruent/STIM_026.jpg	100
2238.054	0.72	719.6	congruent	Block2	congruent/STIM_027.jpg	100
2241.852	0.745	745.4	congruent	Block2	congruent/STIM_027.jpg	100
2244.626	0.829	828.8	congruent	Block2	congruent/STIM_027.jpg	99
2249.145	0.8	799.7	congruent	Block2	congruent/STIM_027.jpg	100
2253.298	0.804	803.5	congruent	Block2	congruent/STIM_027.jpg	100
2256.937	0.651	650.8	congruent	Block2	congruent/STIM_028.jpg	99
2261.056	0.763	763.3	congruent	Block2	congruent/STIM_028.jpg	100
2265.516	0.626	626.5	congruent	Block2	congruent/STIM_028.jpg	99
2268.251	0.624	623.5	congruent	Block2	congruent/STIM_028.jpg	99
2271.19	0.587	586.7	congruent	Block2	congruent/STIM_028.jpg	100
2273.937	0.624	624.0	congruent	Block2	congruent/STIM_029.jpg	99
2277.074	0.659	659.2	congruent	Block2	congruent/STIM_029.jpg	99
2280.458	0.647	646.6	congruent	Block2	congruent/STIM_029.jpg	99
2285.003	0.671	671.1	congruent	Block2	congruent/STIM_029.jpg	100
2287.681	0.919	919.1	congruent	Block2	congruent/STIM_029.jpg	99
2291.17	0.747	746.9	incongruent	Block3	incongruent/STIM_000.jpg	99
2294.863	0.829	828.9	incongruent	Block3	incongruent/STIM_000.jpg	100
2297.749	0.53	530.2	incongruent	Block3	incongruent/STIM_000.jpg	99
2302.084	0.838	837.8	incongruent	Block3	incongruent/STIM_000.jpg	100
2304.943	0.964	964.1	incongruent	Block3	incongruent/STIM_000.jpg	99
2308.218	0.697	697.4	incongruent	Block3	incongruent/STIM_001.jpg	100
2312.244	0.65	650.1	incongruent	Block3	incongruent/STIM_001.jpg	100
2316.773	0.57	570.1	incongruent	Block3	incongruent/STIM_001.jpg	100
2319.987	0.566	566.3	incongruent	Block3	incongruent/STIM_001.jpg	100
2323.926	0.896	896.2	incongruent	Block3	incongruent/STIM_001.jpg	99
2327.826	0.591	591.1	incongruent	Block3	incongruent/STIM_002.jpg	100
2330.499	0.833	833.0	incongruent	Block3	incongruent/STIM_002.jpg	100
2334.922	0.869	868.8	incongruent	Block3	incongruent/STIM_002.jpg	99
2338.986	0.646	645.9	incongruent	Block3	incongruent/STIM_002.jpg	100
2342.448	0.984	984.2	incongruent	Block3	incongruent/STIM_002.jpg	99
2346.56	0.606	606.5	incongruent	Block3	incongruent/STIM_003.jpg	99
2351.024	0.666	666.5	incongruent	Block3	incongruent/STIM_003.jpg	100
2354.52	0.636	635.5	incongruent	Block3	incongruent/STIM_003.jpg	99
2357.841	0.675	674.7	incongruent	Block3	incongruent/STIM_003.jpg	100
2362.501	1.037	1037.0	incongruent	Block3	incongruent/STIM_003.jpg	100
2366.322	0.916	916.4	incongruent	Block3	incongruent/STIM_004.jpg	99
2369.919	0.509	508.6	incongruent	Block3	incongruent/STIM_004.jpg	100
2373.168	0.917	916.6	incongruent	Block3	incongruent/STIM_004.jpg	100
2376.616	1.036	1036.4	incongruent	Block3	incongruent/STIM_004.jpg	99
2381.571	0.699	699.3	incongruent	Block3	incongruent/STIM_004.jpg	99
2384.586	0.869	868.7	incongruent	Block3	incongruent/STIM_005.jpg	99
2389.015	0.908	907.6	incongruent	Block3	incongruent/STIM_005.jpg	99
2393.074	0.511	510.8	incongruent	Block3	incongruent/STIM_005.jpg	99
2396.2	1.015	1014.9	incongruent	Block3	incongruent/STIM_005.jpg	99
2400.915	0.952	952.2	incongruent	Block3	incongruent/STIM_005.jpg	100
2405.196	0.703	703.1	incongruent	Block3	incongruent/STIM_006.jpg	100
2408.878	1.021	1021.2	incongruent	Block3	incongruent/STIM_006.jpg	99
2413.501	0.945	945.2	incongruent	Block3	incongruent/STIM_006.jpg	99
2417.757	0.705	704.9	incongruent	Block3	incongruent/STIM_006.jpg	100
2422.088	0.641	641.3	incongruent	Block3	incongruent/STIM_006.jpg	100
2425.47	0.833	833.2	incongruent	Block3	incongruent/STIM_007.jpg	100
2430.13	0.906	905.6	incongruent	Block3	incongruent/STIM_007.jpg	100
2434.812	0.847	846.9	incongruent	Block3	incongruent/STIM_007.jpg	99
2439.223	0.932	931.7	incongruent	Block3	incongruent/STIM_007.jpg	99
2442.685	0.512	512.4	incongruent	Block3	incongruent/STIM_007.jpg	99
2445.95	0.978	978.1	incongruent	Block3	incongruent/STIM_008.jpg	99
2450.516	0.728	727.8	incongruent	Block3	incongruent/STIM_008.jpg	99
2455.118	0.628	628.0	incongruent	Block3	incongruent/STIM_008.jpg	99
2459.633	1.012	1012.5	incongruent	Block3	incongruent/STIM_008.jpg	100
2463.756	0.94	939.5	incongruent	Block3	incongruent/STIM_008.jpg	100
2468.571	0.911	911.1	incongruent	Block3	incongruent/STIM_009.jpg	99
2472.97	0.673	672.6	incongruent	Block3	incongruent/STIM_009.jpg	100
2476.232	0.796	796.2	incongruent	Block3	incongruent/STIM_009.jpg	99
2479.542	0.8	800.5	incongruent	Block3	incongruent/STIM_009.jpg	99
2483.789	0.575	575.4	incongruent	Block3	incongruent/STIM_009.jpg	100
2486.748	0.788	788.3	incongruent	Block3	incongruent/STIM_010.jpg	100
2489.844	0.713	713.2	incongruent	Block3	incongruent/STIM_010.jpg	100
2492.707	1.055	1054.7	incongruent	Block3	incongruent/STIM_010.jpg	99
2495.853	0.832	832.4	incongruent	Block3	incongruent/STIM_010.jpg	100
2500.187	0.908	907.8	incongruent	Block3	incongruent/STIM_010.jpg	99
2504.671	0.599	599.3	incongruent	Block3	incongruent/STIM_011.jpg	99
2508.969	1.07	1069.9	incongruent	Block3	incongruent/STIM_011.jpg	100
2512.356	0.994	993.7	incongruent	Block3	incongruent/STIM_011.jpg	99
2516.832	1.044	1044.3	incongruent	Block3	incongruent/STIM_011.jpg	99
2519.924	0.529	529.4	incongruent	Block3	incongruent/STIM_011.jpg	100
2524.074	1.052	1051.6	incongruent	Block3	incongruent/STIM_012.jpg	99
2528.892	0.662	661.5	incongruent	Block3	incongruent/STIM_012.jpg	100
2533.146	0.532	532.2	incongruent	Block3	incongruent/STIM_012.jpg	100
2536.465	0.745	744.6	incongruent	Block3	incongruent/STIM_012.jpg	99
2540.861	0.747	746.7	incongruent	Block3	incongruent/STIM_012.jpg	99
2544.32	0.858	857.5	incongruent	Block3	incongruent/STIM_013.jpg	100
2548.674	0.612	612.5	incongruent	Block3	incongruent/STIM_013.jpg	100
2552.696	0.548	548.4	incongruent	Block3	incongruent/STIM_013.jpg	99
2555.348	0.787	787.1	incongruent	Block3	incongruent/STIM_013.jpg	99
2559.848	0.51	509.7	incongruent	Block3	incongruent/STIM_013.jpg	100
2564.213	0.644	643.8	incongruent	Block3	incongruent/STIM_014.jpg	100
2567.642	0.827	826.7	incongruent	Block3	incongruent/STIM_014.jpg	100
2572.149	1.038	1038.4	incongruent	Block3	incongruent/STIM_014.jpg	100
2576.095	0.726	726.1	incongruent	Block3	incongruent/STIM_014.jpg	100
2579.633	0.914	913.9	incongruent	Block3	incongruent/STIM_014.jpg	100
2583.529	0.929	929.2	incongruent	Block3	incongruent/STIM_015.jpg	99
2586.967	0.876	876.0	incongruent	Block3	incongruent/STIM_015.jpg	99
2590.453	0.556	555.9	incongruent	Block3	incongruent/STIM_015.jpg	99
2594.654	0.557	557.4	incongruent	Block3	incongruent/STIM_015.jpg	100
2598.684	0.827	826.8	incongruent	Block3	incongruent/STIM_015.jpg	99
2602.014	0.692	692.4	incongruent	Block3	incongruent/STIM_016.jpg	99
2606.693	0.69	690.3	incongruent	Block3	incongruent/STIM_016.jpg	100
2611.357	0.544	544.4	incongruent	Block3	incongruent/STIM_016.jpg	99
2615.416	0.745	745.4	incongruent	Block3	incongruent/STIM_016.jpg	100
2619.573	0.539	538.6	incongruent	Block3	incongruent/STIM_016.jpg	100
2622.617	0.773	773.4	incongruent	Block3	incongruent/STIM_017.jpg	99
2626.991	0.577	577.3	incongruent	Block3	incongruent/STIM_017.jpg	100
2630.615	0.643	642.7	incongruent	Block3	incongruent/STIM_017.jpg	99
2634.265	0.614	613.8	incongruent	Block3	incongruent/STIM_017.jpg	99
2638.278	1.075	1075.4	incongruent	Block3	incongruent/STIM_017.jpg	100
2642.626	0.95	950.1	incongruent	Block3	incongruent/STIM_018.jpg	100
2647.047	0.796	796.4	incongruent	Block3	incongruent/STIM_018.jpg	99
2650.663	0.758	758.3	incongruent	Block3	incongruent/STIM_018.jpg	100
2653.507	1.074	1073.5	incongruent	Block3	incongruent/STIM_018.jpg	99
2656.757	0.616	615.5	incongruent	Block3	incongruent/STIM_018.jpg	99
2659.475	0.61	609.6	incongruent	Block3	incongruent/STIM_019.jpg	100
2663.75	0.652	651.9	incongruent	Block3	incongruent/STIM_019.jpg	100
2666.875	0.604	604.2	incongruent	Block3	incongruent/STIM_019.jpg	99
2669.835	0.744	744.5	incongruent	Block3	incongruent/STIM_019.jpg	100
2674.16	1.006	1006.3	incongruent	Block3	incongruent/STIM_019.jpg	99
2678.049	0.794	794.4	incongruent	Block3	incongruent/STIM_020.jpg	100
2681.441	1.069	1069.1	incongruent	Block3	incongruent/STIM_020.jpg	100
2686.197	0.975	975.2	incongruent	Block3	incongruent/STIM_020.jpg	100
2691.074	1.019	1018.8	incongruent	Block3	incongruent/STIM_020.jpg	99
2694.939	0.945	945.1	incongruent	Block3	incongruent/STIM_020.jpg	100
2698.74	0.94	940.0	incongruent	Block3	incongruent/STIM_021.jpg	100
2702.641	1.042	1041.8	incongruent	Block3	incongruent/STIM_021.jpg	99
2707.441	0.566	566.5	incongruent	Block3	incongruent/STIM_021.jpg	99
2711.407	0.95	950.0	incongruent	Block3	incongruent/STIM_021.jpg	100
2715.652	0.859	859.1	incongruent	Block3	incongruent/STIM_021.jpg	99
2719.593	1.078	1078.3	incongruent	Block3	incongruent/STIM_022.jpg	100
2724.235	1.006	1006.0	incongruent	Block3	incongruent/STIM_022.jpg	100
2728.852	0.669	669.3	incongruent	Block3	incongruent/STIM_022.jpg	99
2731.843	0.676	675.8	incongruent	Block3	incongruent/STIM_022.jpg	99
2735.798	0.699	698.9	incongruent	Block3	incongruent/STIM_022.jpg	99
2739.155	0.975	975.1	incongruent	Block3	incongruent/STIM_023.jpg	100
2742.341	0.85	849.7	incongruent	Block3	incongruent/STIM_023.jpg	100
2746.08	0.855	855.2	incongruent	Block3	incongruent/STIM_023.jpg	100
2748.968	0.654	653.8	incongruent	Block3	incongruent/STIM_023.jpg	100
2751.664	0.88	879.9	incongruent	Block3	incongruent/STIM_023.jpg	99
2754.89	0.567	567.2	incongruent	Block3	incongruent/STIM_024.jpg	100
2758.764	0.93	930.4	incongruent	Block3	incongruent/STIM_024.jpg	99
2761.897	0.592	592.2	incongruent	Block3	incongruent/STIM_024.jpg	99
2764.532	0.952	951.7	incongruent	Block3	incongruent/STIM_024.jpg	100
2767.784	0.814	813.6	incongruent	Block3	incongruent/STIM_024.jpg	99
2772.289	0.839	839.1	incongruent	Block3	incongruent/STIM_025.jpg	99
2775.614	0.974	974.1	incongruent	Block3	incongruent/STIM_025.jpg	99
2780.397	0.579	579.4	incongruent	Block3	incongruent/STIM_025.jpg	99
2784.742	1.079	1079.3	incongruent	Block3	incongruent/STIM_025.jpg	99
2789.323	0.742	741.9	incongruent	Block3	incongruent/STIM_025.jpg	100
2793.758	0.667	666.7	incongruent	Block3	incongruent/STIM_026.jpg	100
2796.49	0.8	799.5	incongruent	Block3	incongruent/STIM_026.jpg	99
2799.457	0.83	829.6	incongruent	Block3	incongruent/STIM_026.jpg	99
2802.584	0.717	717.2	incongruent	Block3	incongruent/STIM_026.jpg	99
2806.483	0.778	778.3	incongruent	Block3	incongruent/STIM_026.jpg	100
2810.33	0.88	880.3	incongruent	Block3	incongruent/STIM_027.jpg	100
2813.381	0.51	509.7	incongruent	Block3	incongruent/STIM_027.jpg	100
2817.111	0.963	963.4	incongruent	Block3	incongruent/STIM_027.jpg	100
2820.136	1.043	1042.6	incongruent	Block3	incongruent/STIM_027.jpg	99
2823.905	0.696	695.6	incongruent	Block3	incongruent/STIM_027.jpg	100
2828.414	0.952	952.5	incongruent	Block3	incongruent/STIM_028.jpg	100
2831.755	0.629	629.4	incongruent	Block3	incongruent/STIM_028.jpg	99
2834.498	0.53	530.1	incongruent	Block3	incongruent/STIM_028.jpg	99
2837.176	0.978	978.0	incongruent	Block3	incongruent/STIM_028.jpg	100
2841.698	0.78	779.9	incongruent	Block3	incongruent/STIM_028.jpg	99
2845.862	0.801	801.2	incongruent	Block3	incongruent/STIM_029.jpg	99
2849.786	0.607	606.9	incongruent	Block3	incongruent/STIM_029.jpg	100
2854.292	1.029	1029.3	incongruent	Block3	incongruent/STIM_029.jpg	99
2859.079	0.702	701.6	incongruent	Block3	incongruent/STIM_029.jpg	99
2863.293	0.567	567.2	incongruent	Block3	incongruent/STIM_029.jpg	99
2866.329	0.709	708.7	congruent	Block3	congruent/STIM_000.jpg	99
2870.389	0.734	734.1	congruent	Block3	congruent/STIM_000.jpg	100
2874.015	0.612	612.1	congruent	Block3	congruent/STIM_000.jpg	99
2878.065	0.604	603.6	congruent	Block3	congruent/STIM_000.jpg	100
2881.954	0.567	566.9	congruent	Block3	congruent/STIM_000.jpg	100
2886.298	0.811	811.4	congruent	Block3	congruent/STIM_001.jpg	99
2890.774	0.818	817.9	congruent	Block3	congruent/STIM_001.jpg	99
2894.114	0.67	670.2	congruent	Block3	congruent/STIM_001.jpg	99
2898.501	0.617	616.9	congruent	Block3	congruent/STIM_001.jpg	99
2901.87	0.659	658.7	congruent	Block3	congruent/STIM_001.jpg	100
2906.083	0.519	519.4	congruent	Block3	congruent/STIM_002.jpg	99
2910.18	0.853	853.4	congruent	Block3	congruent/STIM_002.jpg	100
2913.198	0.543	542.6	congruent	Block3	congruent/STIM_002.jpg	100
2915.928	0.736	736.3	congruent	Block3	congruent/STIM_002.jpg	100
2918.87	0.785	784.9	congruent	Block3	congruent/STIM_002.jpg	99
2921.937	0.931	930.6	congruent	Block3	congruent/STIM_003.jpg	99
2926.686	0.853	852.8	congruent	Block3	congruent/STIM_003.jpg	99
2930.174	0.821	820.6	congruent	Block3	congruent/STIM_003.jpg	100
2933.67	0.521	521.2	congruent	Block3	congruent/STIM_003.jpg	100
2936.467	0.544	544.0	congruent	Block3	congruent/STIM_003.jpg	99
2939.082	0.878	878.2	congruent	Block3	congruent/STIM_004.jpg	100
2943.952	0.888	888.4	congruent	Block3	congruent/STIM_004.jpg	100
2947.441	0.596	595.7	congruent	Block3	congruent/STIM_004.jpg	99
2950.478	0.787	787.2	congruent	Block3	congruent/STIM_004.jpg	100
2954.742	0.779	778.8	congruent	Block3	congruent/STIM_004.jpg	100
2958.356	0.547	546.9	congruent	Block3	congruent/STIM_005.jpg	99
2961.173	0.914	913.7	congruent	Block3	congruent/STIM_005.jpg	100
2965.148	0.851	851.4	congruent	Block3	congruent/STIM_005.jpg	99
2969.852	0.641	640.6	congruent	Block3	congruent/STIM_005.jpg	99
2972.898	0.793	793.1	congruent	Block3	congruent/STIM_005.jpg	100
2976.846	0.853	852.9	congruent	Block3	congruent/STIM_006.jpg	99
2980.437	0.648	648.5	congruent	Block3	congruent/STIM_006.jpg	100
2984.311	0.857	857.2	congruent	Block3	congruent/STIM_006.jpg	99
2988.67	0.757	757.4	congruent	Block3	congruent/STIM_006.jpg	100
2992.015	0.804	803.5	congruent	Block3	congruent/STIM_006.jpg	100
2996.333	0.545	545.0	congruent	Block3	congruent/STIM_007.jpg	100
3000.553	0.656	656.4	congruent	Block3	congruent/STIM_007.jpg	100
3004.07	0.661	661.2	congruent	Block3	congruent/STIM_007.jpg	99
3007.828	0.798	798.1	congruent	Block3	congruent/STIM_007.jpg	99
3011.329	0.543	542.7	congruent	Block3	congruent/STIM_007.jpg	100
3014.922	0.784	783.9	congruent	Block3	congruent/STIM_008.jpg	99
3019.165	0.654	653.7	congruent	Block3	congruent/STIM_008.jpg	100
3022.629	0.859	859.3	congruent	Block3	congruent/STIM_008.jpg	100
3026.88	0.656	656.3	congruent	Block3	congruent/STIM_008.jpg	100
3030.859	0.794	794.2	congruent	Block3	congruent/STIM_008.jpg	99
3035.32	0.877	876.9	congruent	Block3	congruent/STIM_009.jpg	99
3038.92	0.634	633.6	congruent	Block3	congruent/STIM_009.jpg	100
3043.046	0.612	612.0	congruent	Block3	congruent/STIM_009.jpg	99
3046.617	0.648	647.7	congruent	Block3	congruent/STIM_009.jpg	100
3050.381	0.581	580.9	congruent	Block3	congruent/STIM_009.jpg	99
3053.682	0.757	757.1	congruent	Block3	congruent/STIM_010.jpg	100
3057.644	0.776	775.6	congruent	Block3	congruent/STIM_010.jpg	100
3060.672	0.902	901.9	congruent	Block3	congruent/STIM_010.jpg	99
3063.803	0.716	715.5	congruent	Block3	congruent/STIM_010.jpg	99
3068.168	0.71	710.0	congruent	Block3	congruent/STIM_010.jpg	99
3071.186	0.553	552.7	congruent	Block3	congruent/STIM_011.jpg	99
3075.574	0.755	755.0	congruent	Block3	congruent/STIM_011.jpg	99
3079.139	0.63	629.5	congruent	Block3	congruent/STIM_011.jpg	99
3082.071	0.65	650.5	congruent	Block3	congruent/STIM_011.jpg	100
3086.126	0.616	616.2	congruent	Block3	congruent/STIM_011.jpg	100
3089.525	0.641	641.1	congruent	Block3	congruent/STIM_012.jpg	99
3092.494	0.651	651.2	congruent	Block3	congruent/STIM_012.jpg	99
3095.237	0.87	869.5	congruent	Block3	congruent/STIM_012.jpg	100
3098.38	0.789	789.4	congruent	Block3	congruent/STIM_012.jpg	99
3101.334	0.788	788.4	congruent	Block3	congruent/STIM_012.jpg	100
3105.496	0.861	861.3	congruent	Block3	congruent/STIM_013.jpg	100
3109.83	0.924	923.8	congruent	Block3	congruent/STIM_013.jpg	100
3113.338	0.815	814.6	congruent	Block3	congruent/STIM_013.jpg	99
3117.019	0.713	712.8	congruent	Block3	congruent/STIM_013.jpg	100
3121.671	0.859	859.2	congruent	Block3	congruent/STIM_013.jpg	100
3124.573	0.732	731.9	congruent	Block3	congruent/STIM_014.jpg	99
3127.978	0.678	678.2	congruent	Block3	congruent/STIM_014.jpg	100
3131.401	0.648	648.0	congruent	Block3	congruent/STIM_014.jpg	100
3135.846	0.537	536.9	congruent	Block3	congruent/STIM_014.jpg	100
3139.844	0.617	616.8	congruent	Block3	congruent/STIM_014.jpg	99
3142.636	0.618	617.7	congruent	Block3	congruent/STIM_015.jpg	100
3145.684	0.804	804.3	congruent	Block3	congruent/STIM_015.jpg	99
3150.219	0.55	550.2	congruent	Block3	congruent/STIM_015.jpg	100
3153.999	0.525	524.8	congruent	Block3	congruent/STIM_015.jpg	100
3157.448	0.58	580.1	congruent	Block3	congruent/STIM_015.jpg	100
3161.34	0.647	646.7	congruent	Block3	congruent/STIM_016.jpg	100
3165.223	0.56	559.6	congruent	Block3	congruent/STIM_016.jpg	100
3168.316	0.615	615.2	congruent	Block3	congruent/STIM_016.jpg	99
3172.555	0.561	561.4	congruent	Block3	congruent/STIM_016.jpg	99
3175.131	0.902	902.3	congruent	Block3	congruent/STIM_016.jpg	99
3178.975	0.545	545.3	congruent	Block3	congruent/STIM_017.jpg	100
3183.271	0.701	701.1	congruent	Block3	congruent/STIM_017.jpg	99
3186.889	0.696	696.5	congruent	Block3	congruent/STIM_017.jpg	100
3190.135	0.837	837.2	congruent	Block3	congruent/STIM_017.jpg	99
3193.075	0.909	909.3	congruent	Block3	congruent/STIM_017.jpg	100
3197.907	0.784	784.2	congruent	Block3	congruent/STIM_018.jpg	99
3201.024	0.685	685.4	congruent	Block3	congruent/STIM_018.jpg	100
3204.257	0.617	616.8	congruent	Block3	congruent/STIM_018.jpg	100
3207.974	0.666	666.5	congruent	Block3	congruent/STIM_018.jpg	99
3212.392	0.6	599.9	congruent	Block3	congruent/STIM_018.jpg	100
3216.134	0.61	609.6	congruent	Block3	congruent/STIM_019.jpg	99
3219.588	0.757	757.1	congruent	Block3	congruent/STIM_019.jpg	99
3223.107	0.578	577.7	congruent	Block3	congruent/STIM_019.jpg	100
3226.346	0.814	814.4	congruent	Block3	congruent/STIM_019.jpg	100
3230.33	0.794	794.1	congruent	Block3	congruent/STIM_019.jpg	100
3234.656	0.924	923.5	congruent	Block3	congruent/STIM_020.jpg	99
3238.419	0.773	773.4	congruent	Block3	congruent/STIM_020.jpg	100
3242.234	0.87	870.5	congruent	Block3	congruent/STIM_020.jpg	99
3245.968	0.686	685.8	congruent	Block3	congruent/STIM_020.jpg	99
3250.035	0.924	923.7	congruent	Block3	congruent/STIM_020.jpg	100
3253.903	0.54	539.6	congruent	Block3	congruent/STIM_021.jpg	100
3258.278	0.666	665.9	congruent	Block3	congruent/STIM_021.jpg	99
3261.785	0.846	845.6	congruent	Block3	congruent/STIM_021.jpg	99
3266.047	0.773	773.2	congruent	Block3	congruent/STIM_021.jpg	99
3270.267	0.724	724.2	congruent	Block3	congruent/STIM_021.jpg	100
3274.935	0.756	756.3	congruent	Block3	congruent/STIM_022.jpg	99
3279.152	0.905	904.8	congruent	Block3	congruent/STIM_022.jpg	99
3283.365	0.594	593.6	congruent	Block3	congruent/STIM_022.jpg	99
3286.436	0.588	587.6	congruent	Block3	congruent/STIM_022.jpg	99
3290.059	0.574	573.6	congruent	Block3	congruent/STIM_022.jpg	100
3293.832	0.696	696.5	congruent	Block3	congruent/STIM_023.jpg	100
3297.677	0.894	893.8	congruent	Block3	congruent/STIM_023.jpg	99
3302.169	0.558	558.1	congruent	Block3	congruent/STIM_023.jpg	100
3305.634	0.776	775.6	congruent	Block3	congruent/STIM_023.jpg	99
3308.432	0.631	631.1	congruent	Block3	congruent/STIM_023.jpg	100
3311.371	0.78	779.8	congruent	Block3	congruent/STIM_024.jpg	100
3315.081	0.83	829.8	congruent	Block3	congruent/STIM_024.jpg	99
3318.559	0.681	681.2	congruent	Block3	congruent/STIM_024.jpg	99
3322.865	0.615	614.9	congruent	Block3	congruent/STIM_024.jpg	99
3326.517	0.591	590.7	congruent	Block3	congruent/STIM_024.jpg	99
3329.601	0.82	819.9	congruent	Block3	congruent/STIM_025.jpg	100
3333.837	0.532	531.5	congruent	Block3	congruent/STIM_025.jpg	99
3337.164	0.891	890.8	congruent	Block3	congruent/STIM_025.jpg	100
3340.132	0.564	563.8	congruent	Block3	congruent/STIM_025.jpg	99
3344.018	0.759	759.3	congruent	Block3	congruent/STIM_025.jpg	99
3348.055	0.858	858.3	congruent	Block3	congruent/STIM_026.jpg	99
3351.363	0.589	588.6	congruent	Block3	congruent/STIM_026.jpg	100
3354.321	0.742	741.8	congruent	Block3	congruent/STIM_026.jpg	99
3358.341	0.862	861.9	congruent	Block3	congruent/STIM_026.jpg	100
3363.164	0.772	772.4	congruent	Block3	congruent/STIM_026.jpg	100
3367.899	0.715	715.1	congruent	Block3	congruent/STIM_027.jpg	99
3371.198	0.645	644.6	congruent	Block3	congruent/STIM_027.jpg	99
3374.84	0.68	680.0	congruent	Block3	congruent/STIM_027.jpg	99
3378.319	0.634	634.5	congruent	Block3	congruent/STIM_027.jpg	99
3382.23	0.74	739.8	congruent	Block3	congruent/STIM_027.jpg	99
3386.704	0.817	817.0	congruent	Block3	congruent/STIM_028.jpg	100
3391.073	0.631	631.4	congruent	Block3	congruent/STIM_028.jpg	100
3393.825	0.71	709.9	congruent	Block3	congruent/STIM_028.jpg	100
3397.9	0.779	779.3	congruent	Block3	congruent/STIM_028.jpg	99
3400.9	0.932	932.2	congruent	Block3	congruent/STIM_028.jpg	99
3405.768	0.548	548.0	congruent	Block3	congruent/STIM_029.jpg	99
3408.758	0.749	749.1	congruent	Block3	congruent/STIM_029.jpg	99
3411.943	0.646	645.7	congruent	Block3	congruent/STIM_029.jpg	99
3415.073	0.797	796.8	congruent	Block3	congruent/STIM_029.jpg	100
3417.93	0.702	702.0	congruent	Block3	congruent/STIM_029.jpg	100
