onset	duration	accuracy	trial_type	learning_stage	stimulus
0.0	1.294	correct	incongruent	Block1	incongruent/STIM_000.jpg
4.779	0.716	correct	incongruent	Block1	incongruent/STIM_000.jpg
7.709	0.926	correct	incongruent	Block1	incongruent/STIM_000.jpg
11.979	0.904	correct	incongruent	Block1	incongruent/STIM_000.jpg
15.619	0.644	correct	incongruent	Block1	incongruent/STIM_000.jpg
19.902	0.828	incorrect	incongruent	Block1	incongruent/STIM_001.jpg
23.727	1.141	correct	incongruent	Block1	incongruent/STIM_001.jpg
28.076	1.259	correct	incongruent	Block1	incongruent/STIM_001.jpg
32.077	0.728	correct	incongruent	Block1	incongruent/STIM_001.jpg
35.515	1.124	correct	incongruent	Block1	incongruent/STIM_001.jpg
38.692	1.22	correct	incongruent	Block1	incongruent/STIM_002.jpg
42.575	0.846	correct	incongruent	Block1	incongruent/STIM_002.jpg
45.445	1.36	correct	incongruent	Block1	incongruent/STIM_002.jpg
50.338	0.972	correct	incongruent	Block1	incongruent/STIM_002.jpg
54.978	0.641	correct	incongruent	Block1	incongruent/STIM_002.jpg
59.448	1.113	correct	incongruent	Block1	incongruent/STIM_003.jpg
64.473	1.016	correct	incongruent	Block1	incongruent/STIM_003.jpg
68.026	0.782	correct	incongruent	Block1	incongruent/STIM_003.jpg
70.849	1.049	correct	incongruent	Block1	incongruent/STIM_003.jpg
75.147	0.803	correct	incongruent	Block1	incongruent/STIM_003.jpg
78.623	1.505	correct	incongruent	Block1	incongruent/STIM_004.jpg
82.203	1.14	correct	incongruent	Block1	incongruent/STIM_004.jpg
85.644	1.016	correct	incongruent	Block1	incongruent/STIM_004.jpg
88.858	0.814	correct	incongruent	Block1	incongruent/STIM_004.jpg
92.298	0.729	correct	incongruent	Block1	incongruent/STIM_004.jpg
96.649	1.476	correct	incongruent	Block1	incongruent/STIM_005.jpg
101.334	1.193	correct	incongruent	Block1	incongruent/STIM_005.jpg
104.978	1.112	correct	incongruent	Block1	incongruent/STIM_005.jpg
108.105	0.668	correct	incongruent	Block1	incongruent/STIM_005.jpg
111.353	1.067	correct	incongruent	Block1	incongruent/STIM_005.jpg
115.873	1.37	correct	incongruent	Block1	incongruent/STIM_006.jpg
119.96	1.39	correct	incongruent	Block1	incongruent/STIM_006.jpg
123.952	0.829	correct	incongruent	Block1	incongruent/STIM_006.jpg
127.038	0.996	correct	incongruent	Block1	incongruent/STIM_006.jpg
130.787	0.759	correct	incongruent	Block1	incongruent/STIM_006.jpg
134.612	0.98	correct	incongruent	Block1	incongruent/STIM_007.jpg
139.227	1.165	correct	incongruent	Block1	incongruent/STIM_007.jpg
143.934	1.201	correct	incongruent	Block1	incongruent/STIM_007.jpg
148.455	0.797	correct	incongruent	Block1	incongruent/STIM_007.jpg
151.74	0.682	correct	incongruent	Block1	incongruent/STIM_007.jpg
155.473	1.416	correct	incongruent	Block1	incongruent/STIM_008.jpg
159.511	1.343	correct	incongruent	Block1	incongruent/STIM_008.jpg
164.341	1.02	correct	incongruent	Block1	incongruent/STIM_008.jpg
168.123	0.762	correct	incongruent	Block1	incongruent/STIM_008.jpg
172.554	0.75	correct	incongruent	Block1	incongruent/STIM_008.jpg
175.676	1.224	incorrect	incongruent	Block1	incongruent/STIM_009.jpg
180.604	1.319	correct	incongruent	Block1	incongruent/STIM_009.jpg
184.611	1.34	correct	incongruent	Block1	incongruent/STIM_009.jpg
188.23	1.057	correct	incongruent	Block1	incongruent/STIM_009.jpg
191.505	0.695	correct	incongruent	Block1	incongruent/STIM_009.jpg
195.334	1.236	incorrect	incongruent	Block1	incongruent/STIM_010.jpg
200.287	1.287	correct	incongruent	Block1	incongruent/STIM_010.jpg
204.676	0.999	correct	incongruent	Block1	incongruent/STIM_010.jpg
209.445	0.981	correct	incongruent	Block1	incongruent/STIM_010.jpg
213.546	1.209	correct	incongruent	Block1	incongruent/STIM_010.jpg
218.155	0.758	correct	incongruent	Block1	incongruent/STIM_011.jpg
222.354	1.209	correct	incongruent	Block1	incongruent/STIM_011.jpg
227.042	1.323	correct	incongruent	Block1	incongruent/STIM_011.jpg
231.089	1.03	correct	incongruent	Block1	incongruent/STIM_011.jpg
235.281	1.013	correct	incongruent	Block1	incongruent/STIM_011.jpg
239.124	1.294	correct	incongruent	Block1	incongruent/STIM_012.jpg
243.528	0.914	correct	incongruent	Block1	incongruent/STIM_012.jpg
248.333	1.318	correct	incongruent	Block1	incongruent/STIM_012.jpg
253.083	1.213	correct	incongruent	Block1	incongruent/STIM_012.jpg
257.378	0.684	correct	incongruent	Block1	incongruent/STIM_012.jpg
261.306	1.399	correct	incongruent	Block1	incongruent/STIM_013.jpg
265.229	1.06	correct	incongruent	Block1	incongruent/STIM_013.jpg
269.691	1.303	correct	incongruent	Block1	incongruent/STIM_013.jpg
274.323	0.952	correct	incongruent	Block1	incongruent/STIM_013.jpg
278.431	0.863	correct	incongruent	Block1	incongruent/STIM_013.jpg
282.015	1.296	correct	incongruent	Block1	incongruent/STIM_014.jpg
286.774	0.766	correct	incongruent	Block1	incongruent/STIM_014.jpg
289.947	1.103	correct	incongruent	Block1	incongruent/STIM_014.jpg
293.187	0.618	correct	incongruent	Block1	incongruent/STIM_014.jpg
297.4	0.8	correct	incongruent	Block1	incongruent/STIM_014.jpg
300.582	1.228	correct	incongruent	Block1	incongruent/STIM_015.jpg
303.844	0.774	correct	incongruent	Block1	incongruent/STIM_015.jpg
308.006	0.758	correct	incongruent	Block1	incongruent/STIM_015.jpg
312.218	0.792	correct	incongruent	Block1	incongruent/STIM_015.jpg
315.294	0.916	correct	incongruent	Block1	incongruent/STIM_015.jpg
319.178	1.012	correct	incongruent	Block1	incongruent/STIM_016.jpg
322.592	1.387	correct	incongruent	Block1	incongruent/STIM_016.jpg
326.285	0.728	correct	incongruent	Block1	incongruent/STIM_016.jpg
329.109	0.88	correct	incongruent	Block1	incongruent/STIM_016.jpg
333.946	1.144	correct	incongruent	Block1	incongruent/STIM_016.jpg
337.874	1.093	correct	incongruent	Block1	incongruent/STIM_017.jpg
342.504	0.701	correct	incongruent	Block1	incongruent/STIM_017.jpg
345.791	0.655	correct	incongruent	Block1	incongruent/STIM_017.jpg
349.378	0.809	correct	incongruent	Block1	incongruent/STIM_017.jpg
354.126	0.722	correct	incongruent	Block1	incongruent/STIM_017.jpg
358.552	1.39	correct	incongruent	Block1	incongruent/STIM_018.jpg
362.443	1.33	correct	incongruent	Block1	incongruent/STIM_018.jpg
366.778	1.202	correct	incongruent	Block1	incongruent/STIM_018.jpg
370.82	1.289	correct	incongruent	Block1	incongruent/STIM_018.jpg
375.013	0.722	correct	incongruent	Block1	incongruent/STIM_018.jpg
379.51	1.268	correct	incongruent	Block1	incongruent/STIM_019.jpg
383.364	1.205	correct	incongruent	Block1	incongruent/STIM_019.jpg
388.325	0.857	correct	incongruent	Block1	incongruent/STIM_019.jpg
391.718	0.913	correct	incongruent	Block1	incongruent/STIM_019.jpg
395.21	0.828	correct	incongruent	Block1	incongruent/STIM_019.jpg
398.185	1.401	incorrect	incongruent	Block1	incongruent/STIM_020.jpg
402.067	0.898	correct	incongruent	Block1	incongruent/STIM_020.jpg
405.079	1.241	correct	incongruent	Block1	incongruent/STIM_020.jpg
410.032	0.994	correct	incongruent	Block1	incongruent/STIM_020.jpg
413.148	0.969	correct	incongruent	Block1	incongruent/STIM_020.jpg
416.702	1.196	correct	incongruent	Block1	incongruent/STIM_021.jpg
420.477	1.187	correct	incongruent	Block1	incongruent/STIM_021.jpg
425.021	1.398	correct	incongruent	Block1	incongruent/STIM_021.jpg
429.369	0.714	correct	incongruent	Block1	incongruent/STIM_021.jpg
433.246	0.602	correct	incongruent	Block1	incongruent/STIM_021.jpg
436.995	0.869	correct	incongruent	Block1	incongruent/STIM_022.jpg
440.672	1.166	correct	incongruent	Block1	incongruent/STIM_022.jpg
444.229	0.79	correct	incongruent	Block1	incongruent/STIM_022.jpg
448.403	1.184	correct	incongruent	Block1	incongruent/STIM_022.jpg
452.148	0.93	correct	incongruent	Block1	incongruent/STIM_022.jpg
456.169	0.966	correct	incongruent	Block1	incongruent/STIM_023.jpg
459.242	0.914	correct	incongruent	Block1	incongruent/STIM_023.jpg
462.256	1.171	correct	incongruent	Block1	incongruent/STIM_023.jpg
466.849	0.801	correct	incongruent	Block1	incongruent/STIM_023.jpg
469.727	0.98	correct	incongruent	Block1	incongruent/STIM_023.jpg
473.934	0.921	incorrect	incongruent	Block1	incongruent/STIM_024.jpg
477.65	1.059	correct	incongruent	Block1	incongruent/STIM_024.jpg
482.24	0.726	correct	incongruent	Block1	incongruent/STIM_024.jpg
485.874	0.751	correct	incongruent	Block1	incongruent/STIM_024.jpg
490.267	0.806	correct	incongruent	Block1	incongruent/STIM_024.jpg
494.254	1.363	correct	incongruent	Block1	incongruent/STIM_025.jpg
498.416	1.253	correct	incongruent	Block1	incongruent/STIM_025.jpg
502.152	1.165	correct	incongruent	Block1	incongruent/STIM_025.jpg
507.258	0.704	correct	incongruent	Block1	incongruent/STIM_025.jpg
510.658	1.194	correct	incongruent	Block1	incongruent/STIM_025.jpg
515.206	0.85	correct	incongruent	Block1	incongruent/STIM_026.jpg
518.276	1.064	correct	incongruent	Block1	incongruent/STIM_026.jpg
522.042	0.995	correct	incongruent	Block1	incongruent/STIM_026.jpg
527.011	0.774	correct	incongruent	Block1	incongruent/STIM_026.jpg
530.296	0.794	correct	incongruent	Block1	incongruent/STIM_026.jpg
533.125	0.893	correct	incongruent	Block1	incongruent/STIM_027.jpg
536.575	1.342	correct	incongruent	Block1	incongruent/STIM_027.jpg
540.078	1.251	correct	incongruent	Block1	incongruent/STIM_027.jpg
544.216	1.291	correct	incongruent	Block1	incongruent/STIM_027.jpg
547.603	1.103	correct	incongruent	Block1	incongruent/STIM_027.jpg
552.147	1.479	correct	incongruent	Block1	incongruent/STIM_028.jpg
556.67	1.058	correct	incongruent	Block1	incongruent/STIM_028.jpg
560.287	0.774	correct	incongruent	Block1	incongruent/STIM_028.jpg
565.031	0.686	correct	incongruent	Block1	incongruent/STIM_028.jpg
568.889	0.845	correct	incongruent	Block1	incongruent/STIM_028.jpg
572.584	1.543	correct	incongruent	Block1	incongruent/STIM_029.jpg
576.149	0.937	correct	incongruent	Block1	incongruent/STIM_029.jpg
579.906	1.182	correct	incongruent	Block1	incongruent/STIM_029.jpg
584.394	0.964	correct	incongruent	Block1	incongruent/STIM_029.jpg
588.423	1.032	correct	incongruent	Block1	incongruent/STIM_029.jpg
593.411	0.724	correct	congruent	Block1	congruent/STIM_000.jpg
597.53	0.675	correct	congruent	Block1	congruent/STIM_000.jpg
601.001	0.874	correct	congruent	Block1	congruent/STIM_000.jpg
604.654	0.643	correct	congruent	Block1	congruent/STIM_000.jpg
608.485	0.682	correct	congruent	Block1	congruent/STIM_000.jpg
611.383	0.547	correct	congruent	Block1	congruent/STIM_001.jpg
614.46	0.534	correct	congruent	Block1	congruent/STIM_001.jpg
617.348	0.774	correct	congruent	Block1	congruent/STIM_001.jpg
620.603	0.817	correct	congruent	Block1	congruent/STIM_001.jpg
623.488	0.638	correct	congruent	Block1	congruent/STIM_001.jpg
626.236	0.572	correct	congruent	Block1	congruent/STIM_002.jpg
630.646	0.644	correct	congruent	Block1	congruent/STIM_002.jpg
634.924	0.723	correct	congruent	Block1	congruent/STIM_002.jpg
638.36	0.868	correct	congruent	Block1	congruent/STIM_002.jpg
641.478	0.768	correct	congruent	Block1	congruent/STIM_002.jpg
644.803	0.563	correct	congruent	Block1	congruent/STIM_003.jpg
648.001	0.698	correct	congruent	Block1	congruent/STIM_003.jpg
652.669	0.539	correct	congruent	Block1	congruent/STIM_003.jpg
656.858	0.589	correct	congruent	Block1	congruent/STIM_003.jpg
660.507	0.578	correct	congruent	Block1	congruent/STIM_003.jpg
663.234	0.738	correct	congruent	Block1	congruent/STIM_004.jpg
666.297	0.553	correct	congruent	Block1	congruent/STIM_004.jpg
670.102	0.828	correct	congruent	Block1	congruent/STIM_004.jpg
674.123	0.687	correct	congruent	Block1	congruent/STIM_004.jpg
678.419	0.764	correct	congruent	Block1	congruent/STIM_004.jpg
682.003	0.895	correct	congruent	Block1	congruent/STIM_005.jpg
686.603	0.804	correct	congruent	Block1	congruent/STIM_005.jpg
690.705	0.856	correct	congruent	Block1	congruent/STIM_005.jpg
695.236	0.89	correct	congruent	Block1	congruent/STIM_005.jpg
698.888	0.753	correct	congruent	Block1	congruent/STIM_005.jpg
702.34	0.892	correct	congruent	Block1	congruent/STIM_006.jpg
705.25	0.545	correct	congruent	Block1	congruent/STIM_006.jpg
709.723	0.674	correct	congruent	Block1	congruent/STIM_006.jpg
714.065	0.693	correct	congruent	Block1	congruent/STIM_006.jpg
718.358	0.823	correct	congruent	Block1	congruent/STIM_006.jpg
721.937	0.835	correct	congruent	Block1	congruent/STIM_007.jpg
724.804	0.779	correct	congruent	Block1	congruent/STIM_007.jpg
727.86	0.929	correct	congruent	Block1	congruent/STIM_007.jpg
732.306	0.609	incorrect	congruent	Block1	congruent/STIM_007.jpg
735.288	0.634	correct	congruent	Block1	congruent/STIM_007.jpg
739.616	0.851	correct	congruent	Block1	congruent/STIM_008.jpg
742.867	0.529	correct	congruent	Block1	congruent/STIM_008.jpg
745.897	0.596	correct	congruent	Block1	congruent/STIM_008.jpg
749.211	0.781	correct	congruent	Block1	congruent/STIM_008.jpg
753.246	0.754	correct	congruent	Block1	congruent/STIM_008.jpg
757.787	0.681	correct	congruent	Block1	congruent/STIM_009.jpg
761.76	0.806	correct	congruent	Block1	congruent/STIM_009.jpg
766.471	0.693	correct	congruent	Block1	congruent/STIM_009.jpg
770.916	0.864	correct	congruent	Block1	congruent/STIM_009.jpg
775.204	0.596	correct	congruent	Block1	congruent/STIM_009.jpg
779.644	0.877	correct	congruent	Block1	congruent/STIM_010.jpg
783.591	0.892	correct	congruent	Block1	congruent/STIM_010.jpg
787.242	0.908	correct	congruent	Block1	congruent/STIM_010.jpg
790.235	0.779	correct	congruent	Block1	congruent/STIM_010.jpg
794.429	0.865	correct	congruent	Block1	congruent/STIM_010.jpg
798.967	0.762	correct	congruent	Block1	congruent/STIM_011.jpg
802.567	0.851	correct	congruent	Block1	congruent/STIM_011.jpg
805.496	0.855	correct	congruent	Block1	congruent/STIM_011.jpg
809.73	0.843	correct	congruent	Block1	congruent/STIM_011.jpg
812.858	0.889	correct	congruent	Block1	congruent/STIM_011.jpg
816.564	0.914	correct	congruent	Block1	congruent/STIM_012.jpg
820.777	0.638	correct	congruent	Block1	congruent/STIM_012.jpg
824.547	0.922	correct	congruent	Block1	congruent/STIM_012.jpg
829.235	0.815	correct	congruent	Block1	congruent/STIM_012.jpg
832.115	0.85	correct	congruent	Block1	congruent/STIM_012.jpg
835.155	0.643	correct	congruent	Block1	congruent/STIM_013.jpg
838.993	0.636	correct	congruent	Block1	congruent/STIM_013.jpg
842.19	0.718	correct	congruent	Block1	congruent/STIM_013.jpg
845.607	0.777	correct	congruent	Block1	congruent/STIM_013.jpg
849.713	0.657	correct	congruent	Block1	congruent/STIM_013.jpg
853.225	0.831	correct	congruent	Block1	congruent/STIM_014.jpg
857.558	0.895	correct	congruent	Block1	congruent/STIM_014.jpg
862.104	0.711	correct	congruent	Block1	congruent/STIM_014.jpg
865.552	0.932	correct	congruent	Block1	congruent/STIM_014.jpg
870.267	0.757	incorrect	congruent	Block1	congruent/STIM_014.jpg
874.404	0.542	incorrect	congruent	Block1	congruent/STIM_015.jpg
877.407	0.78	correct	congruent	Block1	congruent/STIM_015.jpg
881.717	0.79	correct	congruent	Block1	congruent/STIM_015.jpg
885.142	0.822	correct	congruent	Block1	congruent/STIM_015.jpg
888.508	0.75	correct	congruent	Block1	congruent/STIM_015.jpg
891.55	0.624	correct	congruent	Block1	congruent/STIM_016.jpg
894.227	0.869	correct	congruent	Block1	congruent/STIM_016.jpg
897.517	0.736	correct	congruent	Block1	congruent/STIM_016.jpg
900.824	0.846	correct	congruent	Block1	congruent/STIM_016.jpg
904.898	0.649	correct	congruent	Block1	congruent/STIM_016.jpg
908.959	0.6	correct	congruent	Block1	congruent/STIM_017.jpg
913.235	0.887	correct	congruent	Block1	congruent/STIM_017.jpg
917.122	0.844	correct	congruent	Block1	congruent/STIM_017.jpg
921.385	0.574	incorrect	congruent	Block1	congruent/STIM_017.jpg
925.29	0.755	correct	congruent	Block1	congruent/STIM_017.jpg
929.129	0.537	correct	congruent	Block1	congruent/STIM_018.jpg
932.447	0.748	correct	congruent	Block1	congruent/STIM_018.jpg
935.944	0.742	correct	congruent	Block1	congruent/STIM_018.jpg
940.077	0.616	correct	congruent	Block1	congruent/STIM_018.jpg
944.654	0.909	correct	congruent	Block1	congruent/STIM_018.jpg
947.743	0.74	correct	congruent	Block1	congruent/STIM_019.jpg
951.512	0.632	correct	congruent	Block1	congruent/STIM_019.jpg
955.172	0.805	correct	congruent	Block1	congruent/STIM_019.jpg
958.83	0.798	correct	congruent	Block1	congruent/STIM_019.jpg
963.216	0.784	correct	congruent	Block1	congruent/STIM_019.jpg
966.869	0.797	correct	congruent	Block1	congruent/STIM_020.jpg
971.545	0.601	correct	congruent	Block1	congruent/STIM_020.jpg
974.629	0.833	correct	congruent	Block1	congruent/STIM_020.jpg
978.085	0.673	correct	congruent	Block1	congruent/STIM_020.jpg
981.156	0.766	correct	congruent	Block1	congruent/STIM_020.jpg
984.469	0.676	correct	congruent	Block1	congruent/STIM_021.jpg
988.555	0.802	correct	congruent	Block1	congruent/STIM_021.jpg
992.041	0.553	correct	congruent	Block1	congruent/STIM_021.jpg
994.829	0.617	correct	congruent	Block1	congruent/STIM_021.jpg
999.3	0.541	correct	congruent	Block1	congruent/STIM_021.jpg
1002.611	0.88	correct	congruent	Block1	congruent/STIM_022.jpg
1005.6	0.851	correct	congruent	Block1	congruent/STIM_022.jpg
1010.235	0.565	correct	congruent	Block1	congruent/STIM_022.jpg
1012.993	0.64	correct	congruent	Block1	congruent/STIM_022.jpg
1015.778	0.657	correct	congruent	Block1	congruent/STIM_022.jpg
1020.236	0.929	correct	congruent	Block1	congruent/STIM_023.jpg
1024.536	0.746	correct	congruent	Block1	congruent/STIM_023.jpg
1029.185	0.801	correct	congruent	Block1	congruent/STIM_023.jpg
1032.315	0.732	correct	congruent	Block1	congruent/STIM_023.jpg
1036.808	0.731	correct	congruent	Block1	congruent/STIM_023.jpg
1041.29	0.872	correct	congruent	Block1	congruent/STIM_024.jpg
1045.908	0.929	correct	congruent	Block1	congruent/STIM_024.jpg
1049.982	0.894	correct	congruent	Block1	congruent/STIM_024.jpg
1054.234	0.778	correct	congruent	Block1	congruent/STIM_024.jpg
1058.84	0.822	correct	congruent	Block1	congruent/STIM_024.jpg
1063.531	0.582	correct	congruent	Block1	congruent/STIM_025.jpg
1066.672	0.773	correct	congruent	Block1	congruent/STIM_025.jpg
1069.731	0.931	correct	congruent	Block1	congruent/STIM_025.jpg
1073.456	0.728	correct	congruent	Block1	congruent/STIM_025.jpg
1077.986	0.811	correct	congruent	Block1	congruent/STIM_025.jpg
1082.694	0.68	correct	congruent	Block1	congruent/STIM_026.jpg
1086.013	0.812	correct	congruent	Block1	congruent/STIM_026.jpg
1089.074	0.893	correct	congruent	Block1	congruent/STIM_026.jpg
1092.072	0.539	correct	congruent	Block1	congruent/STIM_026.jpg
1094.701	0.742	correct	congruent	Block1	congruent/STIM_026.jpg
1097.887	0.893	incorrect	congruent	Block1	congruent/STIM_027.jpg
1102.534	0.72	correct	congruent	Block1	congruent/STIM_027.jpg
1105.409	0.847	correct	congruent	Block1	congruent/STIM_027.jpg
1110.228	0.906	correct	congruent	Block1	congruent/STIM_027.jpg
1113.378	0.788	correct	congruent	Block1	congruent/STIM_027.jpg
1116.548	0.682	correct	congruent	Block1	congruent/STIM_028.jpg
1120.367	0.801	correct	congruent	Block1	congruent/STIM_028.jpg
1123.265	0.542	correct	congruent	Block1	congruent/STIM_028.jpg
1127.569	0.823	correct	congruent	Block1	congruent/STIM_028.jpg
1131.881	0.655	correct	congruent	Block1	congruent/STIM_028.jpg
1135.827	0.766	correct	congruent	Block1	congruent/STIM_029.jpg
1139.484	0.742	correct	congruent	Block1	congruent/STIM_029.jpg
1143.087	0.632	correct	congruent	Block1	congruent/STIM_029.jpg
1147.532	0.571	correct	congruent	Block1	congruent/STIM_029.jpg
1151.411	0.556	correct	congruent	Block1	congruent/STIM_029.jpg
1154.852	1.189	correct	incongruent	Block2	incongruent/STIM_000.jpg
1158.869	1.199	correct	incongruent	Block2	incongruent/STIM_000.jpg
1162.915	1.086	correct	incongruent	Block2	incongruent/STIM_000.jpg
1167.749	0.957	correct	incongruent	Block2	incongruent/STIM_000.jpg
1171.967	0.567	correct	incongruent	Block2	incongruent/STIM_000.jpg
1176.254	0.647	correct	incongruent	Block2	incongruent/STIM_001.jpg
1179.917	1.098	correct	incongruent	Block2	incongruent/STIM_001.jpg
1183.016	1.127	correct	incongruent	Block2	incongruent/STIM_001.jpg
1187.223	1.0	correct	incongruent	Block2	incongruent/STIM_001.jpg
1190.945	0.941	correct	incongruent	Block2	incongruent/STIM_001.jpg
1195.736	0.984	correct	incongruent	Block2	incongruent/STIM_002.jpg
1199.208	1.099	correct	incongruent	Block2	incongruent/STIM_002.jpg
1202.316	0.65	correct	incongruent	Block2	incongruent/STIM_002.jpg
1206.154	0.773	correct	incongruent	Block2	incongruent/STIM_002.jpg
1209.739	0.518	correct	incongruent	Block2	incongruent/STIM_002.jpg
1213.277	1.011	correct	incongruent	Block2	incongruent/STIM_003.jpg
1218.064	0.858	correct	incongruent	Block2	incongruent/STIM_003.jpg
1221.266	0.784	correct	incongruent	Block2	incongruent/STIM_003.jpg
1225.139	0.519	correct	incongruent	Block2	incongruent/STIM_003.jpg
1229.189	0.673	correct	incongruent	Block2	incongruent/STIM_003.jpg
1232.281	1.093	correct	incongruent	Block2	incongruent/STIM_004.jpg
1235.604	0.915	correct	incongruent	Block2	incongruent/STIM_004.jpg
1239.2	0.935	correct	incongruent	Block2	incongruent/STIM_004.jpg
1243.113	0.67	correct	incongruent	Block2	incongruent/STIM_004.jpg
1246.326	0.903	correct	incongruent	Block2	incongruent/STIM_004.jpg
1250.579	0.856	correct	incongruent	Block2	incongruent/STIM_005.jpg
1254.783	0.604	correct	incongruent	Block2	incongruent/STIM_005.jpg
1258.31	0.816	correct	incongruent	Block2	incongruent/STIM_005.jpg
1261.318	0.687	correct	incongruent	Block2	incongruent/STIM_005.jpg
1264.41	1.028	correct	incongruent	Block2	incongruent/STIM_005.jpg
1267.714	0.898	correct	incongruent	Block2	incongruent/STIM_006.jpg
1271.005	1.216	correct	incongruent	Block2	incongruent/STIM_006.jpg
1275.024	0.883	correct	incongruent	Block2	incongruent/STIM_006.jpg
1279.528	0.88	correct	incongruent	Block2	incongruent/STIM_006.jpg
1282.933	0.862	correct	incongruent	Block2	incongruent/STIM_006.jpg
1286.34	0.728	correct	incongruent	Block2	incongruent/STIM_007.jpg
1290.801	0.598	incorrect	incongruent	Block2	incongruent/STIM_007.jpg
1294.099	0.955	correct	incongruent	Block2	incongruent/STIM_007.jpg
1298.745	0.846	correct	incongruent	Block2	incongruent/STIM_007.jpg
1303.241	0.52	correct	incongruent	Block2	incongruent/STIM_007.jpg
1306.998	0.806	correct	incongruent	Block2	incongruent/STIM_008.jpg
1310.843	0.767	correct	incongruent	Block2	incongruent/STIM_008.jpg
1315.385	0.679	correct	incongruent	Block2	incongruent/STIM_008.jpg
1319.825	0.671	correct	incongruent	Block2	incongruent/STIM_008.jpg
1322.559	0.733	correct	incongruent	Block2	incongruent/STIM_008.jpg
1326.898	0.734	correct	incongruent	Block2	incongruent/STIM_009.jpg
1331.273	1.119	correct	incongruent	Block2	incongruent/STIM_009.jpg
1335.086	0.717	correct	incongruent	Block2	incongruent/STIM_009.jpg
1338.909	0.998	correct	incongruent	Block2	incongruent/STIM_009.jpg
1343.656	0.838	correct	incongruent	Block2	incongruent/STIM_009.jpg
1346.496	0.772	correct	incongruent	Block2	incongruent/STIM_010.jpg
1349.345	0.848	correct	incongruent	Block2	incongruent/STIM_010.jpg
1353.665	1.099	correct	incongruent	Block2	incongruent/STIM_010.jpg
1357.371	0.838	correct	incongruent	Block2	incongruent/STIM_010.jpg
1361.221	0.896	correct	incongruent	Block2	incongruent/STIM_010.jpg
1365.924	0.885	correct	incongruent	Block2	incongruent/STIM_011.jpg
1369.521	0.94	correct	incongruent	Block2	incongruent/STIM_011.jpg
1373.649	0.929	correct	incongruent	Block2	incongruent/STIM_011.jpg
1378.379	0.55	correct	incongruent	Block2	incongruent/STIM_011.jpg
1381.416	0.544	correct	incongruent	Block2	incongruent/STIM_011.jpg
1384.428	0.624	correct	incongruent	Block2	incongruent/STIM_012.jpg
1387.391	0.655	correct	incongruent	Block2	incongruent/STIM_012.jpg
1390.426	1.107	correct	incongruent	Block2	incongruent/STIM_012.jpg
1395.311	0.577	correct	incongruent	Block2	incongruent/STIM_012.jpg
1398.316	0.759	correct	incongruent	Block2	incongruent/STIM_012.jpg
1401.448	1.047	correct	incongruent	Block2	incongruent/STIM_013.jpg
1405.841	0.863	correct	incongruent	Block2	incongruent/STIM_013.jpg
1408.912	0.989	correct	incongruent	Block2	incongruent/STIM_013.jpg
1412.494	0.837	correct	incongruent	Block2	incongruent/STIM_013.jpg
1415.456	0.755	correct	incongruent	Block2	incongruent/STIM_013.jpg
1419.396	1.185	correct	incongruent	Block2	incongruent/STIM_014.jpg
1422.895	0.84	correct	incongruent	Block2	incongruent/STIM_014.jpg
1426.227	0.709	correct	incongruent	Block2	incongruent/STIM_014.jpg
1430.787	0.878	correct	incongruent	Block2	incongruent/STIM_014.jpg
1434.26	0.755	correct	incongruent	Block2	incongruent/STIM_014.jpg
1437.077	1.017	correct	incongruent	Block2	incongruent/STIM_015.jpg
1440.955	0.588	correct	incongruent	Block2	incongruent/STIM_015.jpg
1443.997	0.818	correct	incongruent	Block2	incongruent/STIM_015.jpg
1446.979	0.548	correct	incongruent	Block2	incongruent/STIM_015.jpg
1449.937	0.554	correct	incongruent	Block2	incongruent/STIM_015.jpg
1452.656	1.261	correct	incongruent	Block2	incongruent/STIM_016.jpg
1457.405	1.23	correct	incongruent	Block2	incongruent/STIM_016.jpg
1462.13	0.78	correct	incongruent	Block2	incongruent/STIM_016.jpg
1465.342	1.065	correct	incongruent	Block2	incongruent/STIM_016.jpg
1469.9	0.68	correct	incongruent	Block2	incongruent/STIM_016.jpg
1473.643	1.106	correct	incongruent	Block2	incongruent/STIM_017.jpg
1478.564	0.943	correct	incongruent	Block2	incongruent/STIM_017.jpg
1482.369	0.897	correct	incongruent	Block2	incongruent/STIM_017.jpg
1485.419	1.07	correct	incongruent	Block2	incongruent/STIM_017.jpg
1490.347	0.891	correct	incongruent	Block2	incongruent/STIM_017.jpg
1494.854	0.85	correct	incongruent	Block2	incongruent/STIM_018.jpg
1498.668	0.823	correct	incongruent	Block2	incongruent/STIM_018.jpg
1502.993	0.753	correct	incongruent	Block2	incongruent/STIM_018.jpg
1506.829	0.72	correct	incongruent	Block2	incongruent/STIM_018.jpg
1511.151	0.548	correct	incongruent	Block2	incongruent/STIM_018.jpg
1515.487	0.913	correct	incongruent	Block2	incongruent/STIM_019.jpg
1518.749	0.804	correct	incongruent	Block2	incongruent/STIM_019.jpg
1523.47	1.142	correct	incongruent	Block2	incongruent/STIM_019.jpg
1527.417	0.557	correct	incongruent	Block2	incongruent/STIM_019.jpg
1530.492	0.581	correct	incongruent	Block2	incongruent/STIM_019.jpg
1534.158	0.95	incorrect	incongruent	Block2	incongruent/STIM_020.jpg
1538.17	0.942	correct	incongruent	Block2	incongruent/STIM_020.jpg
1541.222	0.552	correct	incongruent	Block2	incongruent/STIM_020.jpg
1543.964	0.742	correct	incongruent	Block2	incongruent/STIM_020.jpg
1547.186	0.805	correct	incongruent	Block2	incongruent/STIM_020.jpg
1550.298	0.781	correct	incongruent	Block2	incongruent/STIM_021.jpg
1554.004	0.624	correct	incongruent	Block2	incongruent/STIM_021.jpg
1558.326	0.57	correct	incongruent	Block2	incongruent/STIM_021.jpg
1562.209	0.958	correct	incongruent	Block2	incongruent/STIM_021.jpg
1566.748	0.563	correct	incongruent	Block2	incongruent/STIM_021.jpg
1570.515	1.051	correct	incongruent	Block2	incongruent/STIM_022.jpg
1574.358	1.189	correct	incongruent	Block2	incongruent/STIM_022.jpg
1577.837	0.98	correct	incongruent	Block2	incongruent/STIM_022.jpg
1581.435	0.954	correct	incongruent	Block2	incongruent/STIM_022.jpg
1585.469	0.947	correct	incongruent	Block2	incongruent/STIM_022.jpg
1590.319	0.875	correct	incongruent	Block2	incongruent/STIM_023.jpg
1593.257	0.961	correct	incongruent	Block2	incongruent/STIM_023.jpg
1597.12	1.139	correct	incongruent	Block2	incongruent/STIM_023.jpg
1600.787	0.694	correct	incongruent	Block2	incongruent/STIM_023.jpg
1603.882	0.963	correct	incongruent	Block2	incongruent/STIM_023.jpg
1607.097	0.965	correct	incongruent	Block2	incongruent/STIM_024.jpg
1611.173	0.802	correct	incongruent	Block2	incongruent/STIM_024.jpg
1614.997	0.932	correct	incongruent	Block2	incongruent/STIM_024.jpg
1618.384	1.031	correct	incongruent	Block2	incongruent/STIM_024.jpg
1622.551	1.059	incorrect	incongruent	Block2	incongruent/STIM_024.jpg
1626.067	0.761	correct	incongruent	Block2	incongruent/STIM_025.jpg
1630.089	0.802	correct	incongruent	Block2	incongruent/STIM_025.jpg
1633.223	0.922	correct	incongruent	Block2	incongruent/STIM_025.jpg
1637.966	0.879	correct	incongruent	Block2	incongruent/STIM_025.jpg
1642.323	0.938	correct	incongruent	Block2	incongruent/STIM_025.jpg
1645.668	0.68	correct	incongruent	Block2	incongruent/STIM_026.jpg
1649.125	1.182	correct	incongruent	Block2	incongruent/STIM_026.jpg
1653.367	1.139	correct	incongruent	Block2	incongruent/STIM_026.jpg
1657.13	0.621	correct	incongruent	Block2	incongruent/STIM_026.jpg
1660.065	0.581	correct	incongruent	Block2	incongruent/STIM_026.jpg
1664.153	1.047	correct	incongruent	Block2	incongruent/STIM_027.jpg
1668.985	0.653	correct	incongruent	Block2	incongruent/STIM_027.jpg
1672.246	1.132	correct	incongruent	Block2	incongruent/STIM_027.jpg
1676.571	0.62	correct	incongruent	Block2	incongruent/STIM_027.jpg
1680.791	1.056	incorrect	incongruent	Block2	incongruent/STIM_027.jpg
1685.25	0.754	correct	incongruent	Block2	incongruent/STIM_028.jpg
1688.815	1.15	correct	incongruent	Block2	incongruent/STIM_028.jpg
1693.939	0.74	correct	incongruent	Block2	incongruent/STIM_028.jpg
1698.211	0.65	correct	incongruent	Block2	incongruent/STIM_028.jpg
1701.586	0.839	correct	incongruent	Block2	incongruent/STIM_028.jpg
1705.071	1.2	correct	incongruent	Block2	incongruent/STIM_029.jpg
1709.669	1.132	correct	incongruent	Block2	incongruent/STIM_029.jpg
1713.486	0.858	correct	incongruent	Block2	incongruent/STIM_029.jpg
1717.527	0.651	correct	incongruent	Block2	incongruent/STIM_029.jpg
1722.036	0.677	correct	incongruent	Block2	incongruent/STIM_029.jpg
1724.856	0.594	correct	congruent	Block2	congruent/STIM_000.jpg
1729.17	0.794	correct	congruent	Block2	congruent/STIM_000.jpg
1731.987	0.712	correct	congruent	Block2	congruent/STIM_000.jpg
1735.483	0.897	incorrect	congruent	Block2	congruent/STIM_000.jpg
1738.538	0.818	correct	congruent	Block2	congruent/STIM_000.jpg
1743.245	0.591	correct	congruent	Block2	congruent/STIM_001.jpg
1746.576	0.866	correct	congruent	Block2	congruent/STIM_001.jpg
1751.175	0.826	correct	congruent	Block2	congruent/STIM_001.jpg
1754.12	0.918	correct	congruent	Block2	congruent/STIM_001.jpg
1758.095	0.762	correct	congruent	Block2	congruent/STIM_001.jpg
1761.425	0.577	correct	congruent	Block2	congruent/STIM_002.jpg
1764.209	0.593	correct	congruent	Block2	congruent/STIM_002.jpg
1768.471	0.902	correct	congruent	Block2	congruent/STIM_002.jpg
1773.051	0.862	correct	congruent	Block2	congruent/STIM_002.jpg
1777.233	0.642	correct	congruent	Block2	congruent/STIM_002.jpg
1781.077	0.683	correct	congruent	Block2	congruent/STIM_003.jpg
1784.699	0.917	correct	congruent	Block2	congruent/STIM_003.jpg
1789.258	0.669	correct	congruent	Block2	congruent/STIM_003.jpg
1793.363	0.836	correct	congruent	Block2	congruent/STIM_003.jpg
1797.967	0.92	correct	congruent	Block2	congruent/STIM_003.jpg
1802.058	0.78	correct	congruent	Block2	congruent/STIM_004.jpg
1806.815	0.543	correct	congruent	Block2	congruent/STIM_004.jpg
1810.622	0.759	correct	congruent	Block2	congruent/STIM_004.jpg
1814.034	0.9	correct	congruent	Block2	congruent/STIM_004.jpg
1817.46	0.874	correct	congruent	Block2	congruent/STIM_004.jpg
1821.43	0.727	correct	congruent	Block2	congruent/STIM_005.jpg
1826.096	0.791	correct	congruent	Block2	congruent/STIM_005.jpg
1829.362	0.718	correct	congruent	Block2	congruent/STIM_005.jpg
1833.425	0.582	correct	congruent	Block2	congruent/STIM_005.jpg
1836.439	0.521	correct	congruent	Block2	congruent/STIM_005.jpg
1839.842	0.76	correct	congruent	Block2	congruent/STIM_006.jpg
1843.805	0.67	correct	congruent	Block2	congruent/STIM_006.jpg
1848.166	0.669	correct	congruent	Block2	congruent/STIM_006.jpg
1851.765	0.62	correct	congruent	Block2	congruent/STIM_006.jpg
1856.139	0.769	correct	congruent	Block2	congruent/STIM_006.jpg
1860.883	0.808	correct	congruent	Block2	congruent/STIM_007.jpg
1864.395	0.785	correct	congruent	Block2	congruent/STIM_007.jpg
1867.304	0.886	correct	congruent	Block2	congruent/STIM_007.jpg
1871.316	0.674	correct	congruent	Block2	congruent/STIM_007.jpg
1875.162	0.921	correct	congruent	Block2	congruent/STIM_007.jpg
1879.326	0.882	correct	congruent	Block2	congruent/STIM_008.jpg
1882.894	0.618	correct	congruent	Block2	congruent/STIM_008.jpg
1887.293	0.912	correct	congruent	Block2	congruent/STIM_008.jpg
1890.731	0.767	correct	congruent	Block2	congruent/STIM_008.jpg
1895.045	0.682	correct	congruent	Block2	congruent/STIM_008.jpg
1897.746	0.527	correct	congruent	Block2	congruent/STIM_009.jpg
1900.947	0.876	correct	congruent	Block2	congruent/STIM_009.jpg
1905.245	0.644	correct	congruent	Block2	congruent/STIM_009.jpg
1908.802	0.837	correct	congruent	Block2	congruent/STIM_009.jpg
1913.061	0.897	correct	congruent	Block2	congruent/STIM_009.jpg
1917.645	0.703	correct	congruent	Block2	congruent/STIM_010.jpg
1921.473	0.72	correct	congruent	Block2	congruent/STIM_010.jpg
1924.253	0.713	correct	congruent	Block2	congruent/STIM_010.jpg
1928.865	0.719	correct	congruent	Block2	congruent/STIM_010.jpg
1932.025	0.671	correct	congruent	Block2	congruent/STIM_010.jpg
1935.094	0.844	correct	congruent	Block2	congruent/STIM_011.jpg
1938.375	0.835	correct	congruent	Block2	congruent/STIM_011.jpg
1942.738	0.698	correct	congruent	Block2	congruent/STIM_011.jpg
1946.886	0.77	correct	congruent	Block2	congruent/STIM_011.jpg
1950.889	0.71	correct	congruent	Block2	congruent/STIM_011.jpg
1953.704	0.593	correct	congruent	Block2	congruent/STIM_012.jpg
1956.866	0.684	incorrect	congruent	Block2	congruent/STIM_012.jpg
1961.404	0.52	correct	congruent	Block2	congruent/STIM_012.jpg
1963.925	0.604	correct	congruent	Block2	congruent/STIM_012.jpg
1968.456	0.65	correct	congruent	Block2	congruent/STIM_012.jpg
1971.763	0.683	correct	congruent	Block2	congruent/STIM_013.jpg
1975.739	0.829	correct	congruent	Block2	congruent/STIM_013.jpg
1979.324	0.774	correct	congruent	Block2	congruent/STIM_013.jpg
1984.034	0.561	correct	congruent	Block2	congruent/STIM_013.jpg
1988.071	0.668	correct	congruent	Block2	congruent/STIM_013.jpg
1992.244	0.912	correct	congruent	Block2	congruent/STIM_014.jpg
1995.649	0.615	correct	congruent	Block2	congruent/STIM_014.jpg
1999.423	0.765	correct	congruent	Block2	congruent/STIM_014.jpg
2002.48	0.901	correct	congruent	Block2	congruent/STIM_014.jpg
2007.352	0.755	correct	congruent	Block2	congruent/STIM_014.jpg
2010.484	0.761	correct	congruent	Block2	congruent/STIM_015.jpg
2014.844	0.813	correct	congruent	Block2	congruent/STIM_015.jpg
2017.832	0.677	correct	congruent	Block2	congruent/STIM_015.jpg
2022.105	0.685	correct	congruent	Block2	congruent/STIM_015.jpg
2025.576	0.897	correct	congruent	Block2	congruent/STIM_015.jpg
2028.864	0.712	correct	congruent	Block2	congruent/STIM_016.jpg
2032.745	0.589	correct	congruent	Block2	congruent/STIM_016.jpg
2037.257	0.8	correct	congruent	Block2	congruent/STIM_016.jpg
2041.313	0.92	correct	congruent	Block2	congruent/STIM_016.jpg
2044.285	0.878	correct	congruent	Block2	congruent/STIM_016.jpg
2048.177	0.522	correct	congruent	Block2	congruent/STIM_017.jpg
2051.72	0.851	correct	congruent	Block2	congruent/STIM_017.jpg
2056.56	0.768	correct	congruent	Block2	congruent/STIM_017.jpg
2059.704	0.768	correct	congruent	Block2	congruent/STIM_017.jpg
2064.008	0.764	correct	congruent	Block2	congruent/STIM_017.jpg
2068.018	0.704	correct	congruent	Block2	congruent/STIM_018.jpg
2071.447	0.728	correct	congruent	Block2	congruent/STIM_018.jpg
2074.734	0.568	correct	congruent	Block2	congruent/STIM_018.jpg
2078.74	0.81	correct	congruent	Block2	congruent/STIM_018.jpg
2082.757	0.932	correct	congruent	Block2	congruent/STIM_018.jpg
2086.619	0.718	correct	congruent	Block2	congruent/STIM_019.jpg
2090.92	0.653	correct	congruent	Block2	congruent/STIM_019.jpg
2094.311	0.814	correct	congruent	Block2	congruent/STIM_019.jpg
2098.833	0.731	correct	congruent	Block2	congruent/STIM_019.jpg
2103.554	0.897	correct	congruent	Block2	congruent/STIM_019.jpg
2107.639	0.591	correct	congruent	Block2	congruent/STIM_020.jpg
2111.424	0.704	correct	congruent	Block2	congruent/STIM_020.jpg
2114.763	0.922	correct	congruent	Block2	congruent/STIM_020.jpg
2118.979	0.546	correct	congruent	Block2	congruent/STIM_020.jpg
2121.751	0.58	correct	congruent	Block2	congruent/STIM_020.jpg
2125.204	0.57	correct	congruent	Block2	congruent/STIM_021.jpg
2129.427	0.775	correct	congruent	Block2	congruent/STIM_021.jpg
2133.163	0.523	correct	congruent	Block2	congruent/STIM_021.jpg
2137.625	0.783	correct	congruent	Block2	congruent/STIM_021.jpg
2140.654	0.589	correct	congruent	Block2	congruent/STIM_021.jpg
2144.319	0.823	correct	congruent	Block2	congruent/STIM_022.jpg
2147.543	0.582	correct	congruent	Block2	congruent/STIM_022.jpg
2151.06	0.788	correct	congruent	Block2	congruent/STIM_022.jpg
2154.385	0.767	correct	congruent	Block2	congruent/STIM_022.jpg
2157.338	0.666	correct	congruent	Block2	congruent/STIM_022.jpg
2160.024	0.66	correct	congruent	Block2	congruent/STIM_023.jpg
2164.435	0.714	correct	congruent	Block2	congruent/STIM_023.jpg
2168.206	0.81	correct	congruent	Block2	congruent/STIM_023.jpg
2172.806	0.823	correct	congruent	Block2	congruent/STIM_023.jpg
2176.8	0.794	correct	congruent	Block2	congruent/STIM_023.jpg
2180.028	0.8	correct	congruent	Block2	congruent/STIM_024.jpg
2183.944	0.932	correct	congruent	Block2	congruent/STIM_024.jpg
2188.017	0.825	correct	congruent	Block2	congruent/STIM_024.jpg
2191.966	0.601	correct	congruent	Block2	congruent/STIM_024.jpg
2195.542	0.75	correct	congruent	Block2	congruent/STIM_024.jpg
2200.021	0.812	correct	congruent	Block2	congruent/STIM_025.jpg
2203.255	0.911	correct	congruent	Block2	congruent/STIM_025.jpg
2206.75	0.597	correct	congruent	Block2	congruent/STIM_025.jpg
2210.755	0.716	correct	congruent	Block2	congruent/STIM_025.jpg
2214.55	0.839	correct	congruent	Block2	congruent/STIM_025.jpg
2217.968	0.561	correct	congruent	Block2	congruent/STIM_026.jpg
2221.905	0.55	correct	congruent	Block2	congruent/STIM_026.jpg
2225.928	0.664	correct	congruent	Block2	congruent/STIM_026.jpg
2229.896	0.819	correct	congruent	Block2	congruent/STIM_026.jpg
2233.511	0.61	correct	congruent	Block2	congruent/STIM_026.jpg
2238.054	0.72	correct	congruent	Block2	congruent/STIM_027.jpg
2241.852	0.745	correct	congruent	Block2	congruent/STIM_027.jpg
2244.626	0.829	correct	congruent	Block2	congruent/STIM_027.jpg
2249.145	0.8	correct	congruent	Block2	congruent/STIM_027.jpg
2253.298	0.804	correct	congruent	Block2	congruent/STIM_027.jpg
2256.937	0.651	correct	congruent	Block2	congruent/STIM_028.jpg
2261.056	0.763	correct	congruent	Block2	congruent/STIM_028.jpg
2265.516	0.626	correct	congruent	Block2	congruent/STIM_028.jpg
2268.251	0.624	correct	congruent	Block2	congruent/STIM_028.jpg
2271.19	0.587	correct	congruent	Block2	congruent/STIM_028.jpg
2273.937	0.624	correct	congruent	Block2	congruent/STIM_029.jpg
2277.074	0.659	correct	congruent	Block2	congruent/STIM_029.jpg
2280.458	0.647	correct	congruent	Block2	congruent/STIM_029.jpg
2285.003	0.671	correct	congruent	Block2	congruent/STIM_029.jpg
2287.681	0.919	correct	congruent	Block2	congruent/STIM_029.jpg
2291.17	0.747	correct	incongruent	Block3	incongruent/STIM_000.jpg
2294.863	0.829	correct	incongruent	Block3	incongruent/STIM_000.jpg
2297.749	0.53	correct	incongruent	Block3	incongruent/STIM_000.jpg
2302.084	0.838	correct	incongruent	Block3	incongruent/STIM_000.jpg
2304.943	0.964	correct	incongruent	Block3	incongruent/STIM_000.jpg
2308.218	0.697	correct	incongruent	Block3	incongruent/STIM_001.jpg
2312.244	0.65	correct	incongruent	Block3	incongruent/STIM_001.jpg
2316.773	0.57	correct	incongruent	Block3	incongruent/STIM_001.jpg
2319.987	0.566	correct	incongruent	Block3	incongruent/STIM_001.jpg
2323.926	0.896	correct	incongruent	Block3	incongruent/STIM_001.jpg
2327.826	0.591	incorrect	incongruent	Block3	incongruent/STIM_002.jpg
2330.499	0.833	correct	incongruent	Block3	incongruent/STIM_002.jpg
2334.922	0.869	correct	incongruent	Block3	incongruent/STIM_002.jpg
2338.986	0.646	correct	incongruent	Block3	incongruent/STIM_002.jpg
2342.448	0.984	correct	incongruent	Block3	incongruent/STIM_002.jpg
2346.56	0.606	correct	incongruent	Block3	incongruent/STIM_003.jpg
2351.024	0.666	correct	incongruent	Block3	incongruent/STIM_003.jpg
2354.52	0.636	correct	incongruent	Block3	incongruent/STIM_003.jpg
2357.841	0.675	correct	incongruent	Block3	incongruent/STIM_003.jpg
2362.501	1.037	correct	incongruent	Block3	incongruent/STIM_003.jpg
2366.322	0.916	correct	incongruent	Block3	incongruent/STIM_004.jpg
2369.919	0.509	correct	incongruent	Block3	incongruent/STIM_004.jpg
2373.168	0.917	correct	incongruent	Block3	incongruent/STIM_004.jpg
2376.616	1.036	correct	incongruent	Block3	incongruent/STIM_004.jpg
2381.571	0.699	correct	incongruent	Block3	incongruent/STIM_004.jpg
2384.586	0.869	correct	incongruent	Block3	incongruent/STIM_005.jpg
2389.015	0.908	correct	incongruent	Block3	incongruent/STIM_005.jpg
2393.074	0.511	correct	incongruent	Block3	incongruent/STIM_005.jpg
2396.2	1.015	correct	incongruent	Block3	incongruent/STIM_005.jpg
2400.915	0.952	correct	incongruent	Block3	incongruent/STIM_005.jpg
2405.196	0.703	correct	incongruent	Block3	incongruent/STIM_006.jpg
2408.878	1.021	correct	incongruent	Block3	incongruent/STIM_006.jpg
2413.501	0.945	correct	incongruent	Block3	incongruent/STIM_006.jpg
2417.757	0.705	correct	incongruent	Block3	incongruent/STIM_006.jpg
2422.088	0.641	correct	incongruent	Block3	incongruent/STIM_006.jpg
2425.47	0.833	correct	incongruent	Block3	incongruent/STIM_007.jpg
2430.13	0.906	correct	incongruent	Block3	incongruent/STIM_007.jpg
2434.812	0.847	correct	incongruent	Block3	incongruent/STIM_007.jpg
2439.223	0.932	correct	incongruent	Block3	incongruent/STIM_007.jpg
2442.685	0.512	correct	incongruent	Block3	incongruent/STIM_007.jpg
2445.95	0.978	correct	incongruent	Block3	incongruent/STIM_008.jpg
2450.516	0.728	correct	incongruent	Block3	incongruent/STIM_008.jpg
2455.118	0.628	correct	incongruent	Block3	incongruent/STIM_008.jpg
2459.633	1.012	correct	incongruent	Block3	incongruent/STIM_008.jpg
2463.756	0.94	correct	incongruent	Block3	incongruent/STIM_008.jpg
2468.571	0.911	correct	incongruent	Block3	incongruent/STIM_009.jpg
2472.97	0.673	correct	incongruent	Block3	incongruent/STIM_009.jpg
2476.232	0.796	correct	incongruent	Block3	incongruent/STIM_009.jpg
2479.542	0.8	correct	incongruent	Block3	incongruent/STIM_009.jpg
2483.789	0.575	correct	incongruent	Block3	incongruent/STIM_009.jpg
2486.748	0.788	correct	incongruent	Block3	incongruent/STIM_010.jpg
2489.844	0.713	correct	incongruent	Block3	incongruent/STIM_010.jpg
2492.707	1.055	correct	incongruent	Block3	incongruent/STIM_010.jpg
2495.853	0.832	correct	incongruent	Block3	incongruent/STIM_010.jpg
2500.187	0.908	correct	incongruent	Block3	incongruent/STIM_010.jpg
2504.671	0.599	correct	incongruent	Block3	incongruent/STIM_011.jpg
2508.969	1.07	correct	incongruent	Block3	incongruent/STIM_011.jpg
2512.356	0.994	correct	incongruent	Block3	incongruent/STIM_011.jpg
2516.832	1.044	correct	incongruent	Block3	incongruent/STIM_011.jpg
2519.924	0.529	correct	incongruent	Block3	incongruent/STIM_011.jpg
2524.074	1.052	correct	incongruent	Block3	incongruent/STIM_012.jpg
2528.892	0.662	correct	incongruent	Block3	incongruent/STIM_012.jpg
2533.146	0.532	correct	incongruent	Block3	incongruent/STIM_012.jpg
2536.465	0.745	correct	incongruent	Block3	incongruent/STIM_012.jpg
2540.861	0.747	correct	incongruent	Block3	incongruent/STIM_012.jpg
2544.32	0.858	correct	incongruent	Block3	incongruent/STIM_013.jpg
2548.674	0.612	correct	incongruent	Block3	incongruent/STIM_013.jpg
2552.696	0.548	correct	incongruent	Block3	incongruent/STIM_013.jpg
2555.348	0.787	correct	incongruent	Block3	incongruent/STIM_013.jpg
2559.848	0.51	correct	incongruent	Block3	incongruent/STIM_013.jpg
2564.213	0.644	correct	incongruent	Block3	incongruent/STIM_014.jpg
2567.642	0.827	correct	incongruent	Block3	incongruent/STIM_014.jpg
2572.149	1.038	correct	incongruent	Block3	incongruent/STIM_014.jpg
2576.095	0.726	correct	incongruent	Block3	incongruent/STIM_014.jpg
2579.633	0.914	correct	incongruent	Block3	incongruent/STIM_014.jpg
2583.529	0.929	correct	incongruent	Block3	incongruent/STIM_015.jpg
2586.967	0.876	correct	incongruent	Block3	incongruent/STIM_015.jpg
2590.453	0.556	correct	incongruent	Block3	incongruent/STIM_015.jpg
2594.654	0.557	correct	incongruent	Block3	incongruent/STIM_015.jpg
2598.684	0.827	correct	incongruent	Block3	incongruent/STIM_015.jpg
2602.014	0.692	correct	incongruent	Block3	incongruent/STIM_016.jpg
2606.693	0.69	correct	incongruent	Block3	incongruent/STIM_016.jpg
2611.357	0.544	correct	incongruent	Block3	incongruent/STIM_016.jpg
2615.416	0.745	correct	incongruent	Block3	incongruent/STIM_016.jpg
2619.573	0.539	correct	incongruent	Block3	incongruent/STIM_016.jpg
2622.617	0.773	correct	incongruent	Block3	incongruent/STIM_017.jpg
2626.991	0.577	correct	incongruent	Block3	incongruent/STIM_017.jpg
2630.615	0.643	correct	incongruent	Block3	incongruent/STIM_017.jpg
2634.265	0.614	correct	incongruent	Block3	incongruent/STIM_017.jpg
2638.278	1.075	correct	incongruent	Block3	incongruent/STIM_017.jpg
2642.626	0.95	correct	incongruent	Block3	incongruent/STIM_018.jpg
2647.047	0.796	correct	incongruent	Block3	incongruent/STIM_018.jpg
2650.663	0.758	correct	incongruent	Block3	incongruent/STIM_018.jpg
2653.507	1.074	correct	incongruent	Block3	incongruent/STIM_018.jpg
2656.757	0.616	correct	incongruent	Block3	incongruent/STIM_018.jpg
2659.475	0.61	correct	incongruent	Block3	incongruent/STIM_019.jpg
2663.75	0.652	correct	incongruent	Block3	incongruent/STIM_019.jpg
2666.875	0.604	correct	incongruent	Block3	incongruent/STIM_019.jpg
2669.835	0.744	correct	incongruent	Block3	incongruent/STIM_019.jpg
2674.16	1.006	correct	incongruent	Block3	incongruent/STIM_019.jpg
2678.049	0.794	correct	incongruent	Block3	incongruent/STIM_020.jpg
2681.441	1.069	correct	incongruent	Block3	incongruent/STIM_020.jpg
2686.197	0.975	correct	incongruent	Block3	incongruent/STIM_020.jpg
2691.074	1.019	correct	incongruent	Block3	incongruent/STIM_020.jpg
2694.939	0.945	correct	incongruent	Block3	incongruent/STIM_020.jpg
2698.74	0.94	correct	incongruent	Block3	incongruent/STIM_021.jpg
2702.641	1.042	correct	incongruent	Block3	incongruent/STIM_021.jpg
2707.441	0.566	correct	incongruent	Block3	incongruent/STIM_021.jpg
2711.407	0.95	correct	incongruent	Block3	incongruent/STIM_021.jpg
2715.652	0.859	correct	incongruent	Block3	incongruent/STIM_021.jpg
2719.593	1.078	correct	incongruent	Block3	incongruent/STIM_022.jpg
2724.235	1.006	correct	incongruent	Block3	incongruent/STIM_022.jpg
2728.852	0.669	correct	incongruent	Block3	incongruent/STIM_022.jpg
2731.843	0.676	correct	incongruent	Block3	incongruent/STIM_022.jpg
2735.798	0.699	correct	incongruent	Block3	incongruent/STIM_022.jpg
2739.155	0.975	correct	incongruent	Block3	incongruent/STIM_023.jpg
2742.341	0.85	correct	incongruent	Block3	incongruent/STIM_023.jpg
2746.08	0.855	correct	incongruent	Block3	incongruent/STIM_023.jpg
2748.968	0.654	correct	incongruent	Block3	incongruent/STIM_023.jpg
2751.664	0.88	correct	incongruent	Block3	incongruent/STIM_023.jpg
2754.89	0.567	correct	incongruent	Block3	incongruent/STIM_024.jpg
2758.764	0.93	correct	incongruent	Block3	incongruent/STIM_024.jpg
2761.897	0.592	correct	incongruent	Block3	incongruent/STIM_024.jpg
2764.532	0.952	correct	incongruent	Block3	incongruent/STIM_024.jpg
2767.784	0.814	correct	incongruent	Block3	incongruent/STIM_024.jpg
2772.289	0.839	correct	incongruent	Block3	incongruent/STIM_025.jpg
2775.614	0.974	correct	incongruent	Block3	incongruent/STIM_025.jpg
2780.397	0.579	correct	incongruent	Block3	incongruent/STIM_025.jpg
2784.742	1.079	correct	incongruent	Block3	incongruent/STIM_025.jpg
2789.323	0.742	correct	incongruent	Block3	incongruent/STIM_025.jpg
2793.758	0.667	correct	incongruent	Block3	incongruent/STIM_026.jpg
2796.49	0.8	correct	incongruent	Block3	incongruent/STIM_026.jpg
2799.457	0.83	correct	incongruent	Block3	incongruent/STIM_026.jpg
2802.584	0.717	correct	incongruent	Block3	incongruent/STIM_026.jpg
2806.483	0.778	correct	incongruent	Block3	incongruent/STIM_026.jpg
2810.33	0.88	correct	incongruent	Block3	incongruent/STIM_027.jpg
2813.381	0.51	correct	incongruent	Block3	incongruent/STIM_027.jpg
2817.111	0.963	correct	incongruent	Block3	incongruent/STIM_027.jpg
2820.136	1.043	correct	incongruent	Block3	incongruent/STIM_027.jpg
2823.905	0.696	correct	incongruent	Block3	incongruent/STIM_027.jpg
2828.414	0.952	correct	incongruent	Block3	incongruent/STIM_028.jpg
2831.755	0.629	correct	incongruent	Block3	incongruent/STIM_028.jpg
2834.498	0.53	correct	incongruent	Block3	incongruent/STIM_028.jpg
2837.176	0.978	correct	incongruent	Block3	incongruent/STIM_028.jpg
2841.698	0.78	correct	incongruent	Block3	incongruent/STIM_028.jpg
2845.862	0.801	correct	incongruent	Block3	incongruent/STIM_029.jpg
2849.786	0.607	correct	incongruent	Block3	incongruent/STIM_029.jpg
2854.292	1.029	correct	incongruent	Block3	incongruent/STIM_029.jpg
2859.079	0.702	correct	incongruent	Block3	incongruent/STIM_029.jpg
2863.293	0.567	correct	incongruent	Block3	incongruent/STIM_029.jpg
2866.329	0.709	correct	congruent	Block3	congruent/STIM_000.jpg
2870.389	0.734	correct	congruent	Block3	congruent/STIM_000.jpg
2874.015	0.612	correct	congruent	Block3	congruent/STIM_000.jpg
2878.065	0.604	correct	congruent	Block3	congruent/STIM_000.jpg
2881.954	0.567	correct	congruent	Block3	congruent/STIM_000.jpg
2886.298	0.811	correct	congruent	Block3	congruent/STIM_001.jpg
2890.774	0.818	correct	congruent	Block3	congruent/STIM_001.jpg
2894.114	0.67	correct	congruent	Block3	congruent/STIM_001.jpg
2898.501	0.617	correct	congruent	Block3	congruent/STIM_001.jpg
2901.87	0.659	correct	congruent	Block3	congruent/STIM_001.jpg
2906.083	0.519	correct	congruent	Block3	congruent/STIM_002.jpg
2910.18	0.853	correct	congruent	Block3	congruent/STIM_002.jpg
2913.198	0.543	correct	congruent	Block3	congruent/STIM_002.jpg
2915.928	0.736	correct	congruent	Block3	congruent/STIM_002.jpg
2918.87	0.785	correct	congruent	Block3	congruent/STIM_002.jpg
2921.937	0.931	correct	congruent	Block3	congruent/STIM_003.jpg
2926.686	0.853	correct	congruent	Block3	congruent/STIM_003.jpg
2930.174	0.821	correct	congruent	Block3	congruent/STIM_003.jpg
2933.67	0.521	correct	congruent	Block3	congruent/STIM_003.jpg
2936.467	0.544	correct	congruent	Block3	congruent/STIM_003.jpg
2939.082	0.878	correct	congruent	Block3	congruent/STIM_004.jpg
2943.952	0.888	correct	congruent	Block3	congruent/STIM_004.jpg
2947.441	0.596	correct	congruent	Block3	congruent/STIM_004.jpg
2950.478	0.787	correct	congruent	Block3	congruent/STIM_004.jpg
2954.742	0.779	correct	congruent	Block3	congruent/STIM_004.jpg
2958.356	0.547	correct	congruent	Block3	congruent/STIM_005.jpg
2961.173	0.914	correct	congruent	Block3	congruent/STIM_005.jpg
2965.148	0.851	correct	congruent	Block3	congruent/STIM_005.jpg
2969.852	0.641	correct	congruent	Block3	congruent/STIM_005.jpg
2972.898	0.793	correct	congruent	Block3	congruent/STIM_005.jpg
2976.846	0.853	correct	congruent	Block3	congruent/STIM_006.jpg
2980.437	0.648	correct	congruent	Block3	congruent/STIM_006.jpg
2984.311	0.857	correct	congruent	Block3	congruent/STIM_006.jpg
2988.67	0.757	correct	congruent	Block3	congruent/STIM_006.jpg
2992.015	0.804	correct	congruent	Block3	congruent/STIM_006.jpg
2996.333	0.545	correct	congruent	Block3	congruent/STIM_007.jpg
3000.553	0.656	correct	congruent	Block3	congruent/STIM_007.jpg
3004.07	0.661	correct	congruent	Block3	congruent/STIM_007.jpg
3007.828	0.798	correct	congruent	Block3	congruent/STIM_007.jpg
3011.329	0.543	correct	congruent	Block3	congruent/STIM_007.jpg
3014.922	0.784	correct	congruent	Block3	congruent/STIM_008.jpg
3019.165	0.654	correct	congruent	Block3	congruent/STIM_008.jpg
3022.629	0.859	correct	congruent	Block3	congruent/STIM_008.jpg
3026.88	0.656	correct	congruent	Block3	congruent/STIM_008.jpg
3030.859	0.794	correct	congruent	Block3	congruent/STIM_008.jpg
3035.32	0.877	correct	congruent	Block3	congruent/STIM_009.jpg
3038.92	0.634	correct	congruent	Block3	congruent/STIM_009.jpg
3043.046	0.612	correct	congruent	Block3	congruent/STIM_009.jpg
3046.617	0.648	correct	congruent	Block3	congruent/STIM_009.jpg
3050.381	0.581	correct	congruent	Block3	congruent/STIM_009.jpg
3053.682	0.757	correct	congruent	Block3	congruent/STIM_010.jpg
3057.644	0.776	correct	congruent	Block3	congruent/STIM_010.jpg
3060.672	0.902	correct	congruent	Block3	congruent/STIM_010.jpg
3063.803	0.716	correct	congruent	Block3	congruent/STIM_010.jpg
3068.168	0.71	correct	congruent	Block3	congruent/STIM_010.jpg
3071.186	0.553	correct	congruent	Block3	congruent/STIM_011.jpg
3075.574	0.755	correct	congruent	Block3	congruent/STIM_011.jpg
3079.139	0.63	correct	congruent	Block3	congruent/STIM_011.jpg
3082.071	0.65	correct	congruent	Block3	congruent/STIM_011.jpg
3086.126	0.616	correct	congruent	Block3	congruent/STIM_011.jpg
3089.525	0.641	correct	congruent	Block3	congruent/STIM_012.jpg
3092.494	0.651	correct	congruent	Block3	congruent/STIM_012.jpg
3095.237	0.87	correct	congruent	Block3	congruent/STIM_012.jpg
3098.38	0.789	correct	congruent	Block3	congruent/STIM_012.jpg
3101.334	0.788	correct	congruent	Block3	congruent/STIM_012.jpg
3105.496	0.861	correct	congruent	Block3	congruent/STIM_013.jpg
3109.83	0.924	incorrect	congruent	Block3	congruent/STIM_013.jpg
3113.338	0.815	correct	congruent	Block3	congruent/STIM_013.jpg
3117.019	0.713	correct	congruent	Block3	congruent/STIM_013.jpg
3121.671	0.859	correct	congruent	Block3	congruent/STIM_013.jpg
3124.573	0.732	correct	congruent	Block3	congruent/STIM_014.jpg
3127.978	0.678	correct	congruent	Block3	congruent/STIM_014.jpg
3131.401	0.648	correct	congruent	Block3	congruent/STIM_014.jpg
3135.846	0.537	correct	congruent	Block3	congruent/STIM_014.jpg
3139.844	0.617	correct	congruent	Block3	congruent/STIM_014.jpg
3142.636	0.618	correct	congruent	Block3	congruent/STIM_015.jpg
3145.684	0.804	correct	congruent	Block3	congruent/STIM_015.jpg
3150.219	0.55	correct	congruent	Block3	congruent/STIM_015.jpg
3153.999	0.525	correct	congruent	Block3	congruent/STIM_015.jpg
3157.448	0.58	correct	congruent	Block3	congruent/STIM_015.jpg
3161.34	0.647	correct	congruent	Block3	congruent/STIM_016.jpg
3165.223	0.56	correct	congruent	Block3	congruent/STIM_016.jpg
3168.316	0.615	correct	congruent	Block3	congruent/STIM_016.jpg
3172.555	0.561	correct	congruent	Block3	congruent/STIM_016.jpg
3175.131	0.902	correct	congruent	Block3	congruent/STIM_016.jpg
3178.975	0.545	correct	congruent	Block3	congruent/STIM_017.jpg
3183.271	0.701	correct	congruent	Block3	congruent/STIM_017.jpg
3186.889	0.696	correct	congruent	Block3	congruent/STIM_017.jpg
3190.135	0.837	correct	congruent	Block3	congruent/STIM_017.jpg
3193.075	0.909	correct	congruent	Block3	congruent/STIM_017.jpg
3197.907	0.784	correct	congruent	Block3	congruent/STIM_018.jpg
3201.024	0.685	correct	congruent	Block3	congruent/STIM_018.jpg
3204.257	0.617	correct	congruent	Block3	congruent/STIM_018.jpg
3207.974	0.666	correct	congruent	Block3	congruent/STIM_018.jpg
3212.392	0.6	correct	congruent	Block3	congruent/STIM_018.jpg
3216.134	0.61	correct	congruent	Block3	congruent/STIM_019.jpg
3219.588	0.757	correct	congruent	Block3	congruent/STIM_019.jpg
3223.107	0.578	correct	congruent	Block3	congruent/STIM_019.jpg
3226.346	0.814	correct	congruent	Block3	congruent/STIM_019.jpg
3230.33	0.794	correct	congruent	Block3	congruent/STIM_019.jpg
3234.656	0.924	correct	congruent	Block3	congruent/STIM_020.jpg
3238.419	0.773	correct	congruent	Block3	congruent/STIM_020.jpg
3242.234	0.87	correct	congruent	Block3	congruent/STIM_020.jpg
3245.968	0.686	correct	congruent	Block3	congruent/STIM_020.jpg
3250.035	0.924	correct	congruent	Block3	congruent/STIM_020.jpg
3253.903	0.54	correct	congruent	Block3	congruent/STIM_021.jpg
3258.278	0.666	correct	congruent	Block3	congruent/STIM_021.jpg
3261.785	0.846	correct	congruent	Block3	congruent/STIM_021.jpg
3266.047	0.773	correct	congruent	Block3	congruent/STIM_021.jpg
3270.267	0.724	correct	congruent	Block3	congruent/STIM_021.jpg
3274.935	0.756	correct	congruent	Block3	congruent/STIM_022.jpg
3279.152	0.905	correct	congruent	Block3	congruent/STIM_022.jpg
3283.365	0.594	correct	congruent	Block3	congruent/STIM_022.jpg
3286.436	0.588	correct	congruent	Block3	congruent/STIM_022.jpg
3290.059	0.574	correct	congruent	Block3	congruent/STIM_022.jpg
3293.832	0.696	correct	congruent	Block3	congruent/STIM_023.jpg
3297.677	0.894	correct	congruent	Block3	congruent/STIM_023.jpg
3302.169	0.558	correct	congruent	Block3	congruent/STIM_023.jpg
3305.634	0.776	correct	congruent	Block3	congruent/STIM_023.jpg
3308.432	0.631	correct	congruent	Block3	congruent/STIM_023.jpg
3311.371	0.78	correct	congruent	Block3	congruent/STIM_024.jpg
3315.081	0.83	correct	congruent	Block3	congruent/STIM_024.jpg
3318.559	0.681	correct	congruent	Block3	congruent/STIM_024.jpg
3322.865	0.615	correct	congruent	Block3	congruent/STIM_024.jpg
3326.517	0.591	correct	congruent	Block3	congruent/STIM_024.jpg
3329.601	0.82	correct	congruent	Block3	congruent/STIM_025.jpg
3333.837	0.532	correct	congruent	Block3	congruent/STIM_025.jpg
3337.164	0.891	correct	congruent	Block3	congruent/STIM_025.jpg
3340.132	0.564	correct	congruent	Block3	congruent/STIM_025.jpg
3344.018	0.759	correct	congruent	Block3	congruent/STIM_025.jpg
3348.055	0.858	correct	congruent	Block3	congruent/STIM_026.jpg
3351.363	0.589	correct	congruent	Block3	congruent/STIM_026.jpg
3354.321	0.742	correct	congruent	Block3	congruent/STIM_026.jpg
3358.341	0.862	correct	congruent	Block3	congruent/STIM_026.jpg
3363.164	0.772	correct	congruent	Block3	congruent/STIM_026.jpg
3367.899	0.715	correct	congruent	Block3	congruent/STIM_027.jpg
3371.198	0.645	correct	congruent	Block3	congruent/STIM_027.jpg
3374.84	0.68	correct	congruent	Block3	congruent/STIM_027.jpg
3378.319	0.634	correct	congruent	Block3	congruent/STIM_027.jpg
3382.23	0.74	correct	congruent	Block3	congruent/STIM_027.jpg
3386.704	0.817	correct	congruent	Block3	congruent/STIM_028.jpg
3391.073	0.631	correct	congruent	Block3	congruent/STIM_028.jpg
3393.825	0.71	correct	congruent	Block3	congruent/STIM_028.jpg
3397.9	0.779	correct	congruent	Block3	congruent/STIM_028.jpg
3400.9	0.932	correct	congruent	Block3	congruent/STIM_028.jpg
3405.768	0.548	correct	congruent	Block3	congruent/STIM_029.jpg
3408.758	0.749	correct	congruent	Block3	congruent/STIM_029.jpg
3411.943	0.646	correct	congruent	Block3	congruent/STIM_029.jpg
3415.073	0.797	correct	congruent	Block3	congruent/STIM_029.jpg
3417.93	0.702	correct	congruent	Block3	congruent/STIM_029.jpg
