onset	duration	response_time_ms	trial_type	learning_stage	stimulus	response_port
0.0	4.869	4868.6	navigation	Trial1	navigation/STIM_000.jpg	100
8.557	2.912	2912.3	navigation	Trial1	navigation/STIM_000.jpg	99
15.404	4.989	4988.7	navigation	Trial1	navigation/STIM_000.jpg	100
22.723	3.795	3795.0	navigation	Trial1	navigation/STIM_000.jpg	100
29.036	2.946	2945.9	navigation	Trial1	navigation/STIM_000.jpg	100
34.586	3.301	3301.2	navigation	Trial1	navigation/STIM_000.jpg	100
41.031	5.038	5037.8	navigation	Trial1	navigation/STIM_001.jpg	99
49.543	2.942	2942.2	navigation	Trial1	navigation/STIM_001.jpg	100
55.072	4.078	4077.7	navigation	Trial1	navigation/STIM_001.jpg	99
61.536	2.338	2337.9	navigation	Trial1	navigation/STIM_001.jpg	100
65.909	3.416	3416.1	navigation	Trial1	navigation/STIM_001.jpg	99
71.898	2.371	2371.2	navigation	Trial1	navigation/STIM_001.jpg	99
77.575	2.454	2454.0	navigation	Trial1	navigation/STIM_002.jpg	100
82.302	3.081	3080.8	navigation	Trial1	navigation/STIM_002.jpg	99
87.655	3.442	3441.5	navigation	Trial1	navigation/STIM_002.jpg	100
94.371	2.256	2255.5	navigation	Trial1	navigation/STIM_002.jpg	100
100.022	2.268	2268.3	navigation	Trial1	navigation/STIM_002.jpg	100
104.687	4.04	4039.7	navigation	Trial1	navigation/STIM_002.jpg	99
112.718	4.144	4144.5	navigation	Trial1	navigation/STIM_003.jpg	99
119.148	3.479	3479.1	navigation	Trial1	navigation/STIM_003.jpg	100
125.291	2.065	2065.3	navigation	Trial1	navigation/STIM_003.jpg	99
130.701	1.918	1918.4	navigation	Trial1	navigation/STIM_003.jpg	100
134.745	4.286	4286.0	navigation	Trial1	navigation/STIM_003.jpg	100
141.248	3.891	3891.2	navigation	Trial1	navigation/STIM_003.jpg	99
147.757	4.904	4903.9	navigation	Trial1	navigation/STIM_004.jpg	99
156.66	5.002	5002.0	navigation	Trial1	navigation/STIM_004.jpg	100
164.432	3.689	3689.4	navigation	Trial1	navigation/STIM_004.jpg	99
171.034	2.329	2328.8	navigation	Trial1	navigation/STIM_004.jpg	99
177.006	3.588	3587.8	navigation	Trial1	navigation/STIM_004.jpg	99
184.45	2.645	2645.1	navigation	Trial1	navigation/STIM_004.jpg	100
190.147	3.971	3971.2	navigation	Trial1	navigation/STIM_005.jpg	100
197.548	3.955	3954.7	navigation	Trial1	navigation/STIM_005.jpg	100
204.764	3.816	3815.8	navigation	Trial1	navigation/STIM_005.jpg	100
211.814	3.982	3982.1	navigation	Trial1	navigation/STIM_005.jpg	100
218.872	4.032	4031.7	navigation	Trial1	navigation/STIM_005.jpg	100
225.705	3.197	3197.0	navigation	Trial1	navigation/STIM_005.jpg	100
231.022	5.247	5246.7	navigation	Trial1	navigation/STIM_006.jpg	99
239.549	3.038	3038.3	navigation	Trial1	navigation/STIM_006.jpg	99
245.895	3.928	3928.5	navigation	Trial1	navigation/STIM_006.jpg	100
252.784	3.68	3680.2	navigation	Trial1	navigation/STIM_006.jpg	99
259.545	2.704	2704.3	navigation	Trial1	navigation/STIM_006.jpg	100
266.192	3.733	3733.2	navigation	Trial1	navigation/STIM_006.jpg	100
271.969	4.748	4747.7	navigation	Trial1	navigation/STIM_007.jpg	99
280.564	3.852	3852.0	navigation	Trial1	navigation/STIM_007.jpg	99
286.814	4.788	4787.8	navigation	Trial1	navigation/STIM_007.jpg	99
294.165	3.332	3332.2	navigation	Trial1	navigation/STIM_007.jpg	100
300.81	3.464	3463.9	navigation	Trial1	navigation/STIM_007.jpg	99
307.784	1.967	1967.4	navigation	Trial1	navigation/STIM_007.jpg	99
312.417	5.456	5456.1	navigation	Trial1	navigation/STIM_008.jpg	100
320.414	2.824	2824.0	navigation	Trial1	navigation/STIM_008.jpg	99
326.093	2.634	2634.2	navigation	Trial1	navigation/STIM_008.jpg	99
332.189	4.292	4292.5	navigation	Trial1	navigation/STIM_008.jpg	100
338.725	3.717	3716.6	navigation	Trial1	navigation/STIM_008.jpg	100
345.309	4.154	4154.0	navigation	Trial1	navigation/STIM_008.jpg	99
352.377	3.958	3957.6	navigation	Trial1	navigation/STIM_009.jpg	100
359.519	4.513	4513.2	navigation	Trial1	navigation/STIM_009.jpg	100
366.326	4.363	4363.3	navigation	Trial1	navigation/STIM_009.jpg	100
374.226	2.804	2803.9	navigation	Trial1	navigation/STIM_009.jpg	100
379.99	2.292	2291.8	navigation	Trial1	navigation/STIM_009.jpg	100
384.951	3.085	3084.7	navigation	Trial1	navigation/STIM_009.jpg	99
390.769	3.445	3444.7	navigation	Trial1	navigation/STIM_010.jpg	99
397.804	3.619	3619.2	navigation	Trial1	navigation/STIM_010.jpg	100
405.358	4.254	4253.9	navigation	Trial1	navigation/STIM_010.jpg	100
413.009	2.349	2349.2	navigation	Trial1	navigation/STIM_010.jpg	99
419.321	3.231	3231.4	navigation	Trial1	navigation/STIM_010.jpg	100
425.008	3.005	3005.1	navigation	Trial1	navigation/STIM_010.jpg	100
430.975	5.514	5513.6	navigation	Trial1	navigation/STIM_011.jpg	99
440.038	4.661	4660.8	navigation	Trial1	navigation/STIM_011.jpg	100
448.329	5.044	5044.2	navigation	Trial1	navigation/STIM_011.jpg	100
456.518	4.543	4542.6	navigation	Trial1	navigation/STIM_011.jpg	100
464.564	4.106	4106.1	navigation	Trial1	navigation/STIM_011.jpg	99
472.485	1.881	1880.6	navigation	Trial1	navigation/STIM_011.jpg	99
476.638	0.954	953.7	pointing	Trial1	pointing/STIM_000.jpg	99
481.045	1.152	1152.0	pointing	Trial1	pointing/STIM_000.jpg	99
486.062	1.228	1228.1	pointing	Trial1	pointing/STIM_000.jpg	100
490.726	1.497	1496.7	pointing	Trial1	pointing/STIM_000.jpg	99
495.753	1.04	1040.1	pointing	Trial1	pointing/STIM_000.jpg	100
500.624	1.16	1160.2	pointing	Trial1	pointing/STIM_000.jpg	100
503.823	1.24	1239.7	pointing	Trial1	pointing/STIM_001.jpg	99
508.544	1.029	1029.1	pointing	Trial1	pointing/STIM_001.jpg	99
512.746	0.903	902.8	pointing	Trial1	pointing/STIM_001.jpg	99
516.882	1.302	1301.6	pointing	Trial1	pointing/STIM_001.jpg	100
521.137	1.048	1048.2	pointing	Trial1	pointing/STIM_001.jpg	100
525.592	1.228	1228.3	pointing	Trial1	pointing/STIM_001.jpg	99
529.109	1.427	1426.7	pointing	Trial1	pointing/STIM_002.jpg	100
533.946	1.306	1306.3	pointing	Trial1	pointing/STIM_002.jpg	100
537.714	0.973	973.3	pointing	Trial1	pointing/STIM_002.jpg	100
542.628	1.307	1306.7	pointing	Trial1	pointing/STIM_002.jpg	100
546.875	1.588	1587.7	pointing	Trial1	pointing/STIM_002.jpg	99
552.27	1.539	1539.4	pointing	Trial1	pointing/STIM_002.jpg	100
555.873	1.308	1308.0	pointing	Trial1	pointing/STIM_003.jpg	100
559.933	1.501	1501.2	pointing	Trial1	pointing/STIM_003.jpg	100
565.26	0.99	990.2	pointing	Trial1	pointing/STIM_003.jpg	100
568.412	1.48	1480.3	pointing	Trial1	pointing/STIM_003.jpg	99
573.563	1.374	1373.5	pointing	Trial1	pointing/STIM_003.jpg	99
577.016	0.915	914.7	pointing	Trial1	pointing/STIM_003.jpg	100
580.013	1.47	1469.9	pointing	Trial1	pointing/STIM_004.jpg	100
583.966	1.37	1369.6	pointing	Trial1	pointing/STIM_004.jpg	100
587.354	1.096	1095.5	pointing	Trial1	pointing/STIM_004.jpg	99
591.677	0.929	929.0	pointing	Trial1	pointing/STIM_004.jpg	100
595.016	1.553	1552.7	pointing	Trial1	pointing/STIM_004.jpg	99
600.155	1.097	1097.2	pointing	Trial1	pointing/STIM_004.jpg	99
603.949	0.909	908.9	pointing	Trial1	pointing/STIM_005.jpg	100
607.693	1.321	1321.4	pointing	Trial1	pointing/STIM_005.jpg	100
611.77	1.513	1512.9	pointing	Trial1	pointing/STIM_005.jpg	100
615.725	1.627	1627.0	pointing	Trial1	pointing/STIM_005.jpg	99
620.289	0.973	973.0	pointing	Trial1	pointing/STIM_005.jpg	100
624.862	1.265	1265.3	pointing	Trial1	pointing/STIM_005.jpg	100
628.444	1.64	1640.4	pointing	Trial1	pointing/STIM_006.jpg	99
633.285	0.992	991.8	pointing	Trial1	pointing/STIM_006.jpg	99
637.464	1.52	1519.5	pointing	Trial1	pointing/STIM_006.jpg	99
642.346	1.144	1144.3	pointing	Trial1	pointing/STIM_006.jpg	99
645.535	1.29	1290.1	pointing	Trial1	pointing/STIM_006.jpg	100
649.42	0.927	926.9	pointing	Trial1	pointing/STIM_006.jpg	99
652.94	1.462	1462.4	pointing	Trial1	pointing/STIM_007.jpg	100
656.84	1.614	1614.1	pointing	Trial1	pointing/STIM_007.jpg	99
661.009	1.159	1159.3	pointing	Trial1	pointing/STIM_007.jpg	99
665.332	1.146	1146.0	pointing	Trial1	pointing/STIM_007.jpg	99
669.702	0.953	953.0	pointing	Trial1	pointing/STIM_007.jpg	99
674.451	1.326	1326.4	pointing	Trial1	pointing/STIM_007.jpg	100
678.078	1.283	1283.4	pointing	Trial1	pointing/STIM_008.jpg	100
681.817	1.461	1460.8	pointing	Trial1	pointing/STIM_008.jpg	99
685.841	1.333	1333.1	pointing	Trial1	pointing/STIM_008.jpg	100
690.306	1.079	1079.3	pointing	Trial1	pointing/STIM_008.jpg	100
695.061	0.977	976.9	pointing	Trial1	pointing/STIM_008.jpg	100
699.916	1.14	1139.7	pointing	Trial1	pointing/STIM_008.jpg	99
703.531	1.368	1367.9	pointing	Trial1	pointing/STIM_009.jpg	100
708.646	1.141	1140.9	pointing	Trial1	pointing/STIM_009.jpg	99
712.604	1.593	1593.1	pointing	Trial1	pointing/STIM_009.jpg	99
717.683	1.156	1155.9	pointing	Trial1	pointing/STIM_009.jpg	100
721.993	1.532	1532.0	pointing	Trial1	pointing/STIM_009.jpg	99
726.578	1.079	1079.2	pointing	Trial1	pointing/STIM_009.jpg	99
730.61	1.045	1044.8	pointing	Trial1	pointing/STIM_010.jpg	100
733.992	1.053	1053.1	pointing	Trial1	pointing/STIM_010.jpg	99
738.733	1.661	1660.6	pointing	Trial1	pointing/STIM_010.jpg	99
743.669	1.216	1215.9	pointing	Trial1	pointing/STIM_010.jpg	100
747.712	1.646	1645.5	pointing	Trial1	pointing/STIM_010.jpg	99
752.045	1.438	1437.5	pointing	Trial1	pointing/STIM_010.jpg	100
757.005	1.123	1123.1	pointing	Trial1	pointing/STIM_011.jpg	100
761.324	1.324	1324.0	pointing	Trial1	pointing/STIM_011.jpg	99
766.35	1.674	1674.5	pointing	Trial1	pointing/STIM_011.jpg	99
770.696	1.426	1426.4	pointing	Trial1	pointing/STIM_011.jpg	99
774.137	1.387	1387.4	pointing	Trial1	pointing/STIM_011.jpg	99
778.527	1.003	1002.9	pointing	Trial1	pointing/STIM_011.jpg	100
781.945	1.937	1937.1	navigation	Trial2	navigation/STIM_000.jpg	99
786.977	3.678	3678.2	navigation	Trial2	navigation/STIM_000.jpg	100
793.796	1.742	1741.7	navigation	Trial2	navigation/STIM_000.jpg	99
798.165	2.393	2392.8	navigation	Trial2	navigation/STIM_000.jpg	100
804.251	3.815	3815.1	navigation	Trial2	navigation/STIM_000.jpg	100
811.92	1.795	1795.4	navigation	Trial2	navigation/STIM_000.jpg	100
817.462	3.204	3203.9	navigation	Trial2	navigation/STIM_001.jpg	99
823.522	4.217	4217.1	navigation	Trial2	navigation/STIM_001.jpg	100
830.888	1.974	1974.1	navigation	Trial2	navigation/STIM_001.jpg	99
835.817	2.914	2913.5	navigation	Trial2	navigation/STIM_001.jpg	100
841.839	2.825	2824.6	navigation	Trial2	navigation/STIM_001.jpg	99
847.834	2.521	2521.1	navigation	Trial2	navigation/STIM_001.jpg	100
852.532	3.018	3018.5	navigation	Trial2	navigation/STIM_002.jpg	99
859.373	2.956	2956.4	navigation	Trial2	navigation/STIM_002.jpg	100
864.502	3.402	3402.1	navigation	Trial2	navigation/STIM_002.jpg	100
871.858	3.564	3564.1	navigation	Trial2	navigation/STIM_002.jpg	99
878.068	3.688	3688.4	navigation	Trial2	navigation/STIM_002.jpg	99
883.889	2.09	2090.5	navigation	Trial2	navigation/STIM_002.jpg	99
889.775	3.392	3392.0	navigation	Trial2	navigation/STIM_003.jpg	100
895.237	1.966	1966.5	navigation	Trial2	navigation/STIM_003.jpg	99
900.725	2.665	2664.7	navigation	Trial2	navigation/STIM_003.jpg	100
907.176	3.635	3635.0	navigation	Trial2	navigation/STIM_003.jpg	100
913.905	1.901	1900.6	navigation	Trial2	navigation/STIM_003.jpg	99
919.241	3.663	3662.9	navigation	Trial2	navigation/STIM_003.jpg	100
925.966	2.94	2940.1	navigation	Trial2	navigation/STIM_004.jpg	99
932.671	3.232	3231.5	navigation	Trial2	navigation/STIM_004.jpg	99
939.625	2.04	2040.0	navigation	Trial2	navigation/STIM_004.jpg	99
945.09	2.365	2365.0	navigation	Trial2	navigation/STIM_004.jpg	100
950.443	2.474	2473.7	navigation	Trial2	navigation/STIM_004.jpg	99
956.75	3.61	3609.6	navigation	Trial2	navigation/STIM_004.jpg	100
963.948	2.931	2931.4	navigation	Trial2	navigation/STIM_005.jpg	100
969.53	2.43	2430.0	navigation	Trial2	navigation/STIM_005.jpg	100
975.17	4.182	4181.8	navigation	Trial2	navigation/STIM_005.jpg	99
983.142	3.433	3432.8	navigation	Trial2	navigation/STIM_005.jpg	99
989.733	3.223	3223.2	navigation	Trial2	navigation/STIM_005.jpg	99
995.528	2.614	2613.5	navigation	Trial2	navigation/STIM_005.jpg	99
1000.229	2.323	2323.2	navigation	Trial2	navigation/STIM_006.jpg	100
1006.501	2.422	2421.6	navigation	Trial2	navigation/STIM_006.jpg	99
1012.506	3.354	3354.2	navigation	Trial2	navigation/STIM_006.jpg	100
1019.836	2.61	2609.7	navigation	Trial2	navigation/STIM_006.jpg	100
1025.951	2.968	2967.8	navigation	Trial2	navigation/STIM_006.jpg	100
1032.743	1.624	1623.7	navigation	Trial2	navigation/STIM_006.jpg	100
1036.695	3.978	3977.6	navigation	Trial2	navigation/STIM_007.jpg	100
1043.975	2.216	2215.7	navigation	Trial2	navigation/STIM_007.jpg	100
1049.145	2.562	2562.0	navigation	Trial2	navigation/STIM_007.jpg	100
1055.027	3.38	3379.9	navigation	Trial2	navigation/STIM_007.jpg	100
1062.09	1.607	1607.2	navigation	Trial2	navigation/STIM_007.jpg	99
1066.345	2.603	2603.0	navigation	Trial2	navigation/STIM_007.jpg	100
1072.645	3.609	3608.6	navigation	Trial2	navigation/STIM_008.jpg	100
1079.232	3.736	3736.3	navigation	Trial2	navigation/STIM_008.jpg	100
1086.527	3.848	3848.5	navigation	Trial2	navigation/STIM_008.jpg	100
1092.485	1.789	1789.1	navigation	Trial2	navigation/STIM_008.jpg	100
1096.73	2.354	2353.5	navigation	Trial2	navigation/STIM_008.jpg	99
1102.697	1.664	1664.0	navigation	Trial2	navigation/STIM_008.jpg	100
1106.529	3.028	3028.1	navigation	Trial2	navigation/STIM_009.jpg	100
1112.483	3.781	3781.2	navigation	Trial2	navigation/STIM_009.jpg	100
1118.555	2.779	2779.2	navigation	Trial2	navigation/STIM_009.jpg	100
1123.873	2.96	2960.3	navigation	Trial2	navigation/STIM_009.jpg	99
1129.97	2.555	2554.9	navigation	Trial2	navigation/STIM_009.jpg	99
1135.416	2.117	2117.4	navigation	Trial2	navigation/STIM_009.jpg	99
1141.494	3.802	3802.0	navigation	Trial2	navigation/STIM_010.jpg	99
1148.135	2.48	2479.8	navigation	Trial2	navigation/STIM_010.jpg	100
1153.816	2.485	2485.2	navigation	Trial2	navigation/STIM_010.jpg	100
1159.219	2.875	2874.8	navigation	Trial2	navigation/STIM_010.jpg	99
1164.372	2.549	2548.8	navigation	Trial2	navigation/STIM_010.jpg	100
1168.975	2.864	2863.8	navigation	Trial2	navigation/STIM_010.jpg	99
1175.547	1.996	1995.5	navigation	Trial2	navigation/STIM_011.jpg	99
1180.399	2.663	2663.4	navigation	Trial2	navigation/STIM_011.jpg	100
1185.973	2.143	2142.6	navigation	Trial2	navigation/STIM_011.jpg	100
1190.119	2.008	2008.2	navigation	Trial2	navigation/STIM_011.jpg	100
1194.717	1.67	1669.9	navigation	Trial2	navigation/STIM_011.jpg	100
1200.297	2.609	2608.7	navigation	Trial2	navigation/STIM_011.jpg	100
1204.985	1.254	1254.2	pointing	Trial2	pointing/STIM_000.jpg	99
1208.352	1.157	1156.6	pointing	Trial2	pointing/STIM_000.jpg	99
1212.28	1.5	1499.6	pointing	Trial2	pointing/STIM_000.jpg	100
1215.964	1.578	1578.1	pointing	Trial2	pointing/STIM_000.jpg	99
1220.029	1.379	1379.0	pointing	Trial2	pointing/STIM_000.jpg	99
1223.701	0.943	942.7	pointing	Trial2	pointing/STIM_000.jpg	100
1227.354	1.156	1156.1	pointing	Trial2	pointing/STIM_001.jpg	100
1231.595	1.239	1238.9	pointing	Trial2	pointing/STIM_001.jpg	99
1236.788	1.082	1082.0	pointing	Trial2	pointing/STIM_001.jpg	100
1241.387	1.185	1184.6	pointing	Trial2	pointing/STIM_001.jpg	100
1246.263	1.179	1179.3	pointing	Trial2	pointing/STIM_001.jpg	99
1251.368	1.449	1449.1	pointing	Trial2	pointing/STIM_001.jpg	100
1255.595	0.991	990.8	pointing	Trial2	pointing/STIM_002.jpg	99
1259.927	1.493	1492.6	pointing	Trial2	pointing/STIM_002.jpg	99
1263.569	1.004	1003.8	pointing	Trial2	pointing/STIM_002.jpg	99
1268.165	1.525	1524.9	pointing	Trial2	pointing/STIM_002.jpg	100
1272.86	1.481	1480.7	pointing	Trial2	pointing/STIM_002.jpg	100
1276.963	1.2	1199.9	pointing	Trial2	pointing/STIM_002.jpg	99
1281.118	1.249	1249.1	pointing	Trial2	pointing/STIM_003.jpg	99
1285.651	1.365	1364.7	pointing	Trial2	pointing/STIM_003.jpg	100
1289.426	1.055	1055.1	pointing	Trial2	pointing/STIM_003.jpg	100
1293.114	1.679	1678.8	pointing	Trial2	pointing/STIM_003.jpg	100
1297.875	0.967	967.1	pointing	Trial2	pointing/STIM_003.jpg	99
1301.208	1.17	1169.8	pointing	Trial2	pointing/STIM_003.jpg	99
1305.116	1.308	1307.6	pointing	Trial2	pointing/STIM_004.jpg	99
1309.675	1.208	1208.3	pointing	Trial2	pointing/STIM_004.jpg	99
1313.758	1.202	1201.8	pointing	Trial2	pointing/STIM_004.jpg	100
1317.573	1.444	1444.5	pointing	Trial2	pointing/STIM_004.jpg	99
1322.299	1.262	1262.2	pointing	Trial2	pointing/STIM_004.jpg	99
1326.355	1.246	1245.8	pointing	Trial2	pointing/STIM_004.jpg	100
1329.658	1.488	1488.3	pointing	Trial2	pointing/STIM_005.jpg	99
1333.814	1.31	1310.3	pointing	Trial2	pointing/STIM_005.jpg	100
1338.84	1.612	1612.0	pointing	Trial2	pointing/STIM_005.jpg	100
1344.067	0.974	974.1	pointing	Trial2	pointing/STIM_005.jpg	100
1348.182	1.07	1070.2	pointing	Trial2	pointing/STIM_005.jpg	100
1352.892	1.061	1060.6	pointing	Trial2	pointing/STIM_005.jpg	99
1356.66	1.143	1142.6	pointing	Trial2	pointing/STIM_006.jpg	99
1359.822	1.641	1641.0	pointing	Trial2	pointing/STIM_006.jpg	100
1363.731	0.996	996.5	pointing	Trial2	pointing/STIM_006.jpg	99
1368.085	1.025	1024.6	pointing	Trial2	pointing/STIM_006.jpg	99
1371.849	1.448	1447.6	pointing	Trial2	pointing/STIM_006.jpg	100
1376.16	1.422	1422.3	pointing	Trial2	pointing/STIM_006.jpg	99
1380.196	1.638	1638.2	pointing	Trial2	pointing/STIM_007.jpg	100
1385.382	1.57	1570.3	pointing	Trial2	pointing/STIM_007.jpg	99
1389.237	1.323	1323.1	pointing	Trial2	pointing/STIM_007.jpg	99
1392.624	1.331	1331.1	pointing	Trial2	pointing/STIM_007.jpg	99
1397.705	1.493	1492.8	pointing	Trial2	pointing/STIM_007.jpg	100
1402.059	1.388	1387.6	pointing	Trial2	pointing/STIM_007.jpg	99
1406.068	1.261	1261.1	pointing	Trial2	pointing/STIM_008.jpg	100
1409.7	0.951	951.0	pointing	Trial2	pointing/STIM_008.jpg	99
1414.344	0.91	910.4	pointing	Trial2	pointing/STIM_008.jpg	99
1418.238	1.426	1426.3	pointing	Trial2	pointing/STIM_008.jpg	99
1423.128	1.256	1255.9	pointing	Trial2	pointing/STIM_008.jpg	100
1426.799	1.541	1541.0	pointing	Trial2	pointing/STIM_008.jpg	100
1430.563	1.556	1555.9	pointing	Trial2	pointing/STIM_009.jpg	100
1434.604	1.675	1674.7	pointing	Trial2	pointing/STIM_009.jpg	99
1440.042	1.149	1148.7	pointing	Trial2	pointing/STIM_009.jpg	99
1443.217	1.072	1071.7	pointing	Trial2	pointing/STIM_009.jpg	100
1446.892	1.131	1131.2	pointing	Trial2	pointing/STIM_009.jpg	100
1450.437	1.084	1084.4	pointing	Trial2	pointing/STIM_009.jpg	100
1454.001	1.679	1678.7	pointing	Trial2	pointing/STIM_010.jpg	100
1458.385	1.672	1672.0	pointing	Trial2	pointing/STIM_010.jpg	100
1462.888	1.537	1537.0	pointing	Trial2	pointing/STIM_010.jpg	100
1466.764	1.486	1486.0	pointing	Trial2	pointing/STIM_010.jpg	100
1471.412	1.203	1203.0	pointing	Trial2	pointing/STIM_010.jpg	99
1476.516	0.925	925.3	pointing	Trial2	pointing/STIM_010.jpg	99
1480.973	1.114	1114.5	pointing	Trial2	pointing/STIM_011.jpg	99
1484.614	0.982	982.1	pointing	Trial2	pointing/STIM_011.jpg	100
1487.729	1.248	1248.2	pointing	Trial2	pointing/STIM_011.jpg	99
1491.548	1.035	1035.4	pointing	Trial2	pointing/STIM_011.jpg	100
1496.148	1.208	1208.4	pointing	Trial2	pointing/STIM_011.jpg	100
1499.876	1.142	1141.6	pointing	Trial2	pointing/STIM_011.jpg	100
1504.898	3.412	3412.1	navigation	Trial3	navigation/STIM_000.jpg	100
1510.791	1.761	1761.2	navigation	Trial3	navigation/STIM_000.jpg	100
1514.991	3.566	3566.1	navigation	Trial3	navigation/STIM_000.jpg	100
1521.426	2.318	2317.5	navigation	Trial3	navigation/STIM_000.jpg	100
1527.067	2.778	2778.1	navigation	Trial3	navigation/STIM_000.jpg	99
1533.456	1.887	1887.1	navigation	Trial3	navigation/STIM_000.jpg	100
1537.566	3.031	3031.0	navigation	Trial3	navigation/STIM_001.jpg	100
1543.29	2.547	2546.6	navigation	Trial3	navigation/STIM_001.jpg	99
1547.96	2.952	2952.5	navigation	Trial3	navigation/STIM_001.jpg	100
1552.977	2.741	2741.0	navigation	Trial3	navigation/STIM_001.jpg	100
1558.35	3.579	3579.1	navigation	Trial3	navigation/STIM_001.jpg	99
1565.274	3.093	3093.2	navigation	Trial3	navigation/STIM_001.jpg	99
1570.668	2.354	2354.5	navigation	Trial3	navigation/STIM_002.jpg	99
1576.627	1.747	1746.9	navigation	Trial3	navigation/STIM_002.jpg	99
1581.445	2.66	2660.0	navigation	Trial3	navigation/STIM_002.jpg	100
1586.253	2.868	2868.0	navigation	Trial3	navigation/STIM_002.jpg	100
1591.274	1.62	1620.3	navigation	Trial3	navigation/STIM_002.jpg	99
1596.059	3.197	3196.7	navigation	Trial3	navigation/STIM_002.jpg	99
1602.45	2.335	2334.8	navigation	Trial3	navigation/STIM_003.jpg	99
1608.738	2.155	2155.4	navigation	Trial3	navigation/STIM_003.jpg	100
1613.141	2.118	2118.3	navigation	Trial3	navigation/STIM_003.jpg	99
1617.398	3.124	3123.5	navigation	Trial3	navigation/STIM_003.jpg	99
1624.386	2.244	2243.9	navigation	Trial3	navigation/STIM_003.jpg	99
1630.03	2.224	2224.5	navigation	Trial3	navigation/STIM_003.jpg	100
1635.326	2.854	2853.9	navigation	Trial3	navigation/STIM_004.jpg	100
1641.129	2.08	2079.8	navigation	Trial3	navigation/STIM_004.jpg	100
1647.09	2.325	2324.8	navigation	Trial3	navigation/STIM_004.jpg	99
1652.397	2.955	2954.7	navigation	Trial3	navigation/STIM_004.jpg	100
1658.841	3.152	3152.2	navigation	Trial3	navigation/STIM_004.jpg	100
1665.804	1.578	1577.7	navigation	Trial3	navigation/STIM_004.jpg	100
1671.289	2.954	2953.8	navigation	Trial3	navigation/STIM_005.jpg	100
1678.015	2.874	2874.2	navigation	Trial3	navigation/STIM_005.jpg	99
1684.786	3.893	3892.7	navigation	Trial3	navigation/STIM_005.jpg	100
1691.476	2.773	2773.3	navigation	Trial3	navigation/STIM_005.jpg	100
1697.928	2.498	2497.6	navigation	Trial3	navigation/STIM_005.jpg	99
1702.763	2.16	2160.0	navigation	Trial3	navigation/STIM_005.jpg	99
1708.755	3.654	3654.2	navigation	Trial3	navigation/STIM_006.jpg	100
1716.216	3.274	3273.6	navigation	Trial3	navigation/STIM_006.jpg	99
1722.601	3.057	3056.7	navigation	Trial3	navigation/STIM_006.jpg	100
1728.926	1.59	1589.8	navigation	Trial3	navigation/STIM_006.jpg	99
1732.999	3.61	3609.5	navigation	Trial3	navigation/STIM_006.jpg	100
1739.983	3.151	3151.3	navigation	Trial3	navigation/STIM_006.jpg	99
1745.507	1.704	1704.1	navigation	Trial3	navigation/STIM_007.jpg	100
1750.548	3.917	3917.1	navigation	Trial3	navigation/STIM_007.jpg	100
1757.424	3.57	3570.3	navigation	Trial3	navigation/STIM_007.jpg	99
1763.926	3.071	3071.4	navigation	Trial3	navigation/STIM_007.jpg	100
1770.444	2.28	2279.7	navigation	Trial3	navigation/STIM_007.jpg	100
1776.502	2.896	2896.3	navigation	Trial3	navigation/STIM_007.jpg	100
1782.577	3.298	3298.5	navigation	Trial3	navigation/STIM_008.jpg	100
1788.25	2.855	2854.7	navigation	Trial3	navigation/STIM_008.jpg	99
1793.641	1.676	1675.7	navigation	Trial3	navigation/STIM_008.jpg	99
1797.984	3.22	3219.9	navigation	Trial3	navigation/STIM_008.jpg	99
1805.011	2.634	2634.0	navigation	Trial3	navigation/STIM_008.jpg	100
1811.007	2.183	2183.3	navigation	Trial3	navigation/STIM_008.jpg	100
1816.132	3.196	3195.6	navigation	Trial3	navigation/STIM_009.jpg	99
1821.43	2.266	2265.8	navigation	Trial3	navigation/STIM_009.jpg	99
1826.947	2.877	2877.0	navigation	Trial3	navigation/STIM_009.jpg	99
1832.961	3.239	3239.4	navigation	Trial3	navigation/STIM_009.jpg	99
1839.279	2.749	2748.8	navigation	Trial3	navigation/STIM_009.jpg	100
1844.479	3.748	3748.4	navigation	Trial3	navigation/STIM_009.jpg	100
1851.154	2.929	2928.9	navigation	Trial3	navigation/STIM_010.jpg	99
1857.926	2.593	2593.0	navigation	Trial3	navigation/STIM_010.jpg	99
1862.542	2.953	2953.3	navigation	Trial3	navigation/STIM_010.jpg	99
1868.293	2.391	2391.4	navigation	Trial3	navigation/STIM_010.jpg	100
1872.826	2.41	2409.5	navigation	Trial3	navigation/STIM_010.jpg	100
1878.258	3.67	3670.4	navigation	Trial3	navigation/STIM_010.jpg	99
1885.757	3.137	3137.1	navigation	Trial3	navigation/STIM_011.jpg	99
1892.794	3.307	3307.0	navigation	Trial3	navigation/STIM_011.jpg	99
1898.216	3.747	3747.2	navigation	Trial3	navigation/STIM_011.jpg	100
1905.462	2.303	2303.4	navigation	Trial3	navigation/STIM_011.jpg	99
1910.379	3.024	3024.3	navigation	Trial3	navigation/STIM_011.jpg	100
1916.133	2.018	2018.0	navigation	Trial3	navigation/STIM_011.jpg	100
1920.344	1.389	1389.3	pointing	Trial3	pointing/STIM_000.jpg	99
1925.363	1.64	1639.9	pointing	Trial3	pointing/STIM_000.jpg	100
1930.886	1.469	1468.8	pointing	Trial3	pointing/STIM_000.jpg	99
1935.595	1.245	1244.6	pointing	Trial3	pointing/STIM_000.jpg	99
1939.235	1.635	1634.6	pointing	Trial3	pointing/STIM_000.jpg	99
1944.573	1.432	1431.8	pointing	Trial3	pointing/STIM_000.jpg	100
1948.464	1.113	1112.7	pointing	Trial3	pointing/STIM_001.jpg	100
1952.23	1.607	1606.8	pointing	Trial3	pointing/STIM_001.jpg	100
1955.917	1.64	1640.0	pointing	Trial3	pointing/STIM_001.jpg	99
1959.854	1.616	1615.9	pointing	Trial3	pointing/STIM_001.jpg	99
1964.862	0.984	984.2	pointing	Trial3	pointing/STIM_001.jpg	99
1968.775	1.328	1327.8	pointing	Trial3	pointing/STIM_001.jpg	99
1972.166	1.056	1056.5	pointing	Trial3	pointing/STIM_002.jpg	100
1975.432	0.928	927.7	pointing	Trial3	pointing/STIM_002.jpg	100
1978.776	1.643	1643.4	pointing	Trial3	pointing/STIM_002.jpg	100
1982.802	1.207	1207.4	pointing	Trial3	pointing/STIM_002.jpg	100
1987.002	1.38	1379.7	pointing	Trial3	pointing/STIM_002.jpg	100
1992.272	1.525	1524.9	pointing	Trial3	pointing/STIM_002.jpg	99
1997.537	1.277	1277.4	pointing	Trial3	pointing/STIM_003.jpg	99
2001.806	1.161	1161.1	pointing	Trial3	pointing/STIM_003.jpg	99
2005.979	1.234	1234.0	pointing	Trial3	pointing/STIM_003.jpg	100
2009.529	1.131	1131.4	pointing	Trial3	pointing/STIM_003.jpg	99
2012.84	1.477	1477.4	pointing	Trial3	pointing/STIM_003.jpg	99
2016.717	1.25	1250.3	pointing	Trial3	pointing/STIM_003.jpg	99
2021.472	1.584	1583.9	pointing	Trial3	pointing/STIM_004.jpg	99
2026.31	0.958	958.1	pointing	Trial3	pointing/STIM_004.jpg	100
2030.372	0.951	950.8	pointing	Trial3	pointing/STIM_004.jpg	100
2033.817	1.54	1539.5	pointing	Trial3	pointing/STIM_004.jpg	99
2037.512	1.593	1593.3	pointing	Trial3	pointing/STIM_004.jpg	100
2041.622	1.206	1206.4	pointing	Trial3	pointing/STIM_004.jpg	100
2045.569	1.477	1476.7	pointing	Trial3	pointing/STIM_005.jpg	99
2050.381	1.672	1672.3	pointing	Trial3	pointing/STIM_005.jpg	99
2054.464	0.899	898.9	pointing	Trial3	pointing/STIM_005.jpg	99
2058.642	1.678	1678.5	pointing	Trial3	pointing/STIM_005.jpg	100
2063.099	1.549	1549.0	pointing	Trial3	pointing/STIM_005.jpg	99
2068.199	1.021	1021.1	pointing	Trial3	pointing/STIM_005.jpg	99
2072.094	1.615	1615.4	pointing	Trial3	pointing/STIM_006.jpg	99
2077.63	1.033	1033.3	pointing	Trial3	pointing/STIM_006.jpg	100
2081.494	1.131	1130.9	pointing	Trial3	pointing/STIM_006.jpg	100
2085.506	1.573	1573.2	pointing	Trial3	pointing/STIM_006.jpg	100
2090.056	1.05	1050.3	pointing	Trial3	pointing/STIM_006.jpg	100
2093.39	0.915	914.9	pointing	Trial3	pointing/STIM_006.jpg	99
2097.603	1.159	1159.3	pointing	Trial3	pointing/STIM_007.jpg	100
2100.783	1.617	1616.7	pointing	Trial3	pointing/STIM_007.jpg	100
2105.986	1.162	1162.0	pointing	Trial3	pointing/STIM_007.jpg	99
2109.308	1.027	1027.1	pointing	Trial3	pointing/STIM_007.jpg	100
2113.283	1.28	1279.6	pointing	Trial3	pointing/STIM_007.jpg	100
2116.587	1.04	1040.0	pointing	Trial3	pointing/STIM_007.jpg	99
2120.741	1.499	1499.4	pointing	Trial3	pointing/STIM_008.jpg	100
2125.601	1.535	1534.7	pointing	Trial3	pointing/STIM_008.jpg	99
2129.331	1.496	1495.6	pointing	Trial3	pointing/STIM_008.jpg	100
2134.79	1.095	1095.3	pointing	Trial3	pointing/STIM_008.jpg	100
2139.609	1.334	1334.4	pointing	Trial3	pointing/STIM_008.jpg	99
2143.757	1.162	1161.7	pointing	Trial3	pointing/STIM_008.jpg	100
2147.567	1.659	1659.0	pointing	Trial3	pointing/STIM_009.jpg	99
2152.075	1.423	1423.4	pointing	Trial3	pointing/STIM_009.jpg	99
2155.819	1.082	1081.6	pointing	Trial3	pointing/STIM_009.jpg	99
2159.168	1.094	1093.5	pointing	Trial3	pointing/STIM_009.jpg	99
2162.803	1.007	1007.0	pointing	Trial3	pointing/STIM_009.jpg	99
2167.467	1.445	1444.9	pointing	Trial3	pointing/STIM_009.jpg	100
2172.597	0.929	929.0	pointing	Trial3	pointing/STIM_010.jpg	99
2175.878	1.661	1661.2	pointing	Trial3	pointing/STIM_010.jpg	100
2180.958	1.098	1097.5	pointing	Trial3	pointing/STIM_010.jpg	99
2184.768	1.12	1119.7	pointing	Trial3	pointing/STIM_010.jpg	100
2188.542	1.303	1302.9	pointing	Trial3	pointing/STIM_010.jpg	99
2192.325	1.286	1285.7	pointing	Trial3	pointing/STIM_010.jpg	99
2196.072	1.085	1084.7	pointing	Trial3	pointing/STIM_011.jpg	99
2200.645	1.341	1341.0	pointing	Trial3	pointing/STIM_011.jpg	99
2205.774	1.131	1130.6	pointing	Trial3	pointing/STIM_011.jpg	99
2209.64	1.604	1603.8	pointing	Trial3	pointing/STIM_011.jpg	99
2214.309	1.646	1646.0	pointing	Trial3	pointing/STIM_011.jpg	100
2219.093	1.114	1113.6	pointing	Trial3	pointing/STIM_011.jpg	100
