onset	duration	response_time_ms	trial_type	learning_stage	stimulus	response_port
0.0	4.58	4580.4	navigation	Trial1	navigation/STIM_000.jpg	100
8.542	3.093	3093.3	navigation	Trial1	navigation/STIM_000.jpg	99
15.699	2.011	2011.3	navigation	Trial1	navigation/STIM_000.jpg	100
20.051	2.945	2945.1	navigation	Trial1	navigation/STIM_000.jpg	100
26.37	1.581	1580.9	navigation	Trial1	navigation/STIM_000.jpg	100
30.018	3.059	3058.8	navigation	Trial1	navigation/STIM_000.jpg	100
35.795	3.635	3635.4	navigation	Trial1	navigation/STIM_001.jpg	99
42.689	4.025	4025.1	navigation	Trial1	navigation/STIM_001.jpg	100
50.476	3.479	3479.2	navigation	Trial1	navigation/STIM_001.jpg	99
56.618	2.597	2597.1	navigation	Trial1	navigation/STIM_001.jpg	100
62.991	3.38	3379.5	navigation	Trial1	navigation/STIM_001.jpg	99
70.014	3.179	3178.7	navigation	Trial1	navigation/STIM_001.jpg	99
76.718	2.696	2695.8	navigation	Trial1	navigation/STIM_002.jpg	100
81.691	2.043	2042.8	navigation	Trial1	navigation/STIM_002.jpg	99
86.511	2.231	2230.6	navigation	Trial1	navigation/STIM_002.jpg	100
92.155	2.48	2480.0	navigation	Trial1	navigation/STIM_002.jpg	100
96.969	3.686	3686.5	navigation	Trial1	navigation/STIM_002.jpg	100
104.369	2.515	2514.6	navigation	Trial1	navigation/STIM_002.jpg	99
109.718	2.359	2358.9	navigation	Trial1	navigation/STIM_003.jpg	99
114.425	3.819	3818.8	navigation	Trial1	navigation/STIM_003.jpg	100
120.62	2.064	2064.4	navigation	Trial1	navigation/STIM_003.jpg	99
125.065	1.795	1795.0	navigation	Trial1	navigation/STIM_003.jpg	100
130.454	2.8	2800.0	navigation	Trial1	navigation/STIM_003.jpg	100
135.837	1.841	1841.1	navigation	Trial1	navigation/STIM_003.jpg	99
140.346	3.282	3282.2	navigation	Trial1	navigation/STIM_004.jpg	99
146.784	2.82	2819.8	navigation	Trial1	navigation/STIM_004.jpg	100
151.78	2.2	2200.5	navigation	Trial1	navigation/STIM_004.jpg	99
157.244	2.713	2713.0	navigation	Trial1	navigation/STIM_004.jpg	99
163.809	2.684	2683.8	navigation	Trial1	navigation/STIM_004.jpg	99
169.058	3.298	3298.5	navigation	Trial1	navigation/STIM_004.jpg	100
175.601	3.98	3980.3	navigation	Trial1	navigation/STIM_005.jpg	100
183.213	4.074	4074.1	navigation	Trial1	navigation/STIM_005.jpg	100
191.434	3.169	3168.7	navigation	Trial1	navigation/STIM_005.jpg	100
197.627	2.661	2660.7	navigation	Trial1	navigation/STIM_005.jpg	100
204.336	3.203	3202.8	navigation	Trial1	navigation/STIM_005.jpg	100
210.944	1.987	1986.9	navigation	Trial1	navigation/STIM_005.jpg	100
216.585	4.305	4304.8	navigation	Trial1	navigation/STIM_006.jpg	99
223.86	2.126	2126.0	navigation	Trial1	navigation/STIM_006.jpg	99
228.693	2.525	2524.9	navigation	Trial1	navigation/STIM_006.jpg	100
233.396	2.714	2713.7	navigation	Trial1	navigation/STIM_006.jpg	99
238.657	2.407	2407.0	navigation	Trial1	navigation/STIM_006.jpg	100
243.414	3.061	3061.0	navigation	Trial1	navigation/STIM_006.jpg	100
249.307	2.561	2560.9	navigation	Trial1	navigation/STIM_007.jpg	99
255.234	3.045	3044.8	navigation	Trial1	navigation/STIM_007.jpg	99
261.002	2.425	2424.9	navigation	Trial1	navigation/STIM_007.jpg	99
266.598	2.12	2119.8	navigation	Trial1	navigation/STIM_007.jpg	100
271.978	2.902	2902.5	navigation	Trial1	navigation/STIM_007.jpg	99
277.535	2.018	2018.3	navigation	Trial1	navigation/STIM_007.jpg	99
283.013	3.822	3822.3	navigation	Trial1	navigation/STIM_008.jpg	100
289.815	3.088	3087.6	navigation	Trial1	navigation/STIM_008.jpg	99
296.104	2.815	2814.7	navigation	Trial1	navigation/STIM_008.jpg	99
302.976	2.098	2097.9	navigation	Trial1	navigation/STIM_008.jpg	100
308.693	2.72	2720.2	navigation	Trial1	navigation/STIM_008.jpg	100
315.239	1.608	1608.5	navigation	Trial1	navigation/STIM_008.jpg	99
319.819	4.405	4405.1	navigation	Trial1	navigation/STIM_009.jpg	100
327.648	3.611	3611.0	navigation	Trial1	navigation/STIM_009.jpg	100
335.086	4.203	4203.0	navigation	Trial1	navigation/STIM_009.jpg	100
342.494	3.252	3252.5	navigation	Trial1	navigation/STIM_009.jpg	100
348.825	2.779	2778.6	navigation	Trial1	navigation/STIM_009.jpg	100
355.31	2.979	2979.1	navigation	Trial1	navigation/STIM_009.jpg	99
362.194	4.289	4288.9	navigation	Trial1	navigation/STIM_010.jpg	99
370.595	3.267	3267.0	navigation	Trial1	navigation/STIM_010.jpg	100
376.329	4.009	4008.9	navigation	Trial1	navigation/STIM_010.jpg	100
384.626	2.508	2507.9	navigation	Trial1	navigation/STIM_010.jpg	99
389.333	2.597	2597.4	navigation	Trial1	navigation/STIM_010.jpg	100
395.485	1.694	1694.3	navigation	Trial1	navigation/STIM_010.jpg	100
399.807	4.243	4242.7	navigation	Trial1	navigation/STIM_011.jpg	99
408.197	3.044	3044.4	navigation	Trial1	navigation/STIM_011.jpg	100
414.997	2.937	2936.8	navigation	Trial1	navigation/STIM_011.jpg	100
420.294	2.413	2413.0	navigation	Trial1	navigation/STIM_011.jpg	100
426.896	2.627	2626.9	navigation	Trial1	navigation/STIM_011.jpg	99
432.642	2.96	2960.2	navigation	Trial1	navigation/STIM_011.jpg	99
438.235	1.39	1390.4	pointing	Trial1	pointing/STIM_000.jpg	99
442.663	1.149	1149.2	pointing	Trial1	pointing/STIM_000.jpg	99
447.378	0.82	820.1	pointing	Trial1	pointing/STIM_000.jpg	100
450.604	0.738	738.5	pointing	Trial1	pointing/STIM_000.jpg	99
453.488	0.869	868.8	pointing	Trial1	pointing/STIM_000.jpg	100
457.538	0.909	909.4	pointing	Trial1	pointing/STIM_000.jpg	100
461.008	1.339	1339.2	pointing	Trial1	pointing/STIM_001.jpg	99
465.144	0.832	832.5	pointing	Trial1	pointing/STIM_001.jpg	99
469.053	1.08	1080.5	pointing	Trial1	pointing/STIM_001.jpg	99
472.902	1.012	1012.0	pointing	Trial1	pointing/STIM_001.jpg	100
476.541	1.132	1131.6	pointing	Trial1	pointing/STIM_001.jpg	100
479.912	1.224	1224.3	pointing	Trial1	pointing/STIM_001.jpg	99
484.719	1.123	1123.1	pointing	Trial1	pointing/STIM_002.jpg	100
488.581	0.885	884.9	pointing	Trial1	pointing/STIM_002.jpg	100
492.893	0.939	938.8	pointing	Trial1	pointing/STIM_002.jpg	100
497.08	1.302	1301.8	pointing	Trial1	pointing/STIM_002.jpg	100
501.136	1.193	1193.4	pointing	Trial1	pointing/STIM_002.jpg	99
505.476	1.365	1365.1	pointing	Trial1	pointing/STIM_002.jpg	100
509.639	1.363	1362.7	pointing	Trial1	pointing/STIM_003.jpg	100
514.262	1.129	1129.4	pointing	Trial1	pointing/STIM_003.jpg	100
517.731	1.243	1243.3	pointing	Trial1	pointing/STIM_003.jpg	100
522.876	0.776	775.6	pointing	Trial1	pointing/STIM_003.jpg	99
527.605	1.271	1270.9	pointing	Trial1	pointing/STIM_003.jpg	99
532.412	0.829	829.2	pointing	Trial1	pointing/STIM_003.jpg	100
535.829	0.766	766.4	pointing	Trial1	pointing/STIM_004.jpg	100
540.067	1.019	1018.7	pointing	Trial1	pointing/STIM_004.jpg	100
544.505	1.362	1362.0	pointing	Trial1	pointing/STIM_004.jpg	99
549.833	0.801	801.1	pointing	Trial1	pointing/STIM_004.jpg	100
554.182	1.113	1112.8	pointing	Trial1	pointing/STIM_004.jpg	99
557.96	0.974	973.8	pointing	Trial1	pointing/STIM_004.jpg	99
561.049	0.931	931.2	pointing	Trial1	pointing/STIM_005.jpg	100
565.579	0.988	987.9	pointing	Trial1	pointing/STIM_005.jpg	100
569.146	1.246	1246.2	pointing	Trial1	pointing/STIM_005.jpg	100
572.976	1.01	1010.3	pointing	Trial1	pointing/STIM_005.jpg	99
576.342	1.064	1064.3	pointing	Trial1	pointing/STIM_005.jpg	100
580.433	0.843	843.3	pointing	Trial1	pointing/STIM_005.jpg	100
583.796	1.407	1407.0	pointing	Trial1	pointing/STIM_006.jpg	99
588.093	1.187	1187.4	pointing	Trial1	pointing/STIM_006.jpg	99
593.166	1.05	1049.5	pointing	Trial1	pointing/STIM_006.jpg	99
596.599	1.254	1254.2	pointing	Trial1	pointing/STIM_006.jpg	99
601.541	1.338	1337.6	pointing	Trial1	pointing/STIM_006.jpg	100
606.154	1.233	1233.4	pointing	Trial1	pointing/STIM_006.jpg	99
610.212	1.16	1160.0	pointing	Trial1	pointing/STIM_007.jpg	100
614.145	1.365	1365.2	pointing	Trial1	pointing/STIM_007.jpg	99
619.022	1.314	1314.5	pointing	Trial1	pointing/STIM_007.jpg	99
624.217	1.284	1284.4	pointing	Trial1	pointing/STIM_007.jpg	99
629.125	0.94	939.7	pointing	Trial1	pointing/STIM_007.jpg	99
633.093	1.054	1054.1	pointing	Trial1	pointing/STIM_007.jpg	100
636.92	1.126	1126.2	pointing	Trial1	pointing/STIM_008.jpg	100
641.586	1.239	1239.4	pointing	Trial1	pointing/STIM_008.jpg	99
645.275	1.398	1398.4	pointing	Trial1	pointing/STIM_008.jpg	100
648.752	0.905	905.2	pointing	Trial1	pointing/STIM_008.jpg	100
652.762	1.111	1110.8	pointing	Trial1	pointing/STIM_008.jpg	100
657.45	1.072	1072.5	pointing	Trial1	pointing/STIM_008.jpg	99
661.925	1.111	1111.1	pointing	Trial1	pointing/STIM_009.jpg	100
666.343	1.192	1192.2	pointing	Trial1	pointing/STIM_009.jpg	99
671.314	1.406	1406.1	pointing	Trial1	pointing/STIM_009.jpg	99
676.555	0.969	969.3	pointing	Trial1	pointing/STIM_009.jpg	100
679.866	1.114	1114.5	pointing	Trial1	pointing/STIM_009.jpg	99
683.075	0.959	959.0	pointing	Trial1	pointing/STIM_009.jpg	99
688.136	1.322	1321.7	pointing	Trial1	pointing/STIM_010.jpg	100
692.186	1.19	1190.3	pointing	Trial1	pointing/STIM_010.jpg	99
697.045	1.42	1420.2	pointing	Trial1	pointing/STIM_010.jpg	99
700.596	1.25	1250.3	pointing	Trial1	pointing/STIM_010.jpg	100
705.627	0.883	882.6	pointing	Trial1	pointing/STIM_010.jpg	99
708.788	1.387	1387.2	pointing	Trial1	pointing/STIM_010.jpg	100
714.227	0.959	959.2	pointing	Trial1	pointing/STIM_011.jpg	100
718.643	1.043	1043.4	pointing	Trial1	pointing/STIM_011.jpg	99
722.748	1.131	1130.8	pointing	Trial1	pointing/STIM_011.jpg	99
727.76	0.847	847.0	pointing	Trial1	pointing/STIM_011.jpg	99
732.25	1.173	1172.6	pointing	Trial1	pointing/STIM_011.jpg	99
736.566	1.144	1144.3	pointing	Trial1	pointing/STIM_011.jpg	100
740.219	3.306	3306.4	navigation	Trial2	navigation/STIM_000.jpg	99
746.039	1.748	1748.2	navigation	Trial2	navigation/STIM_000.jpg	100
751.313	2.802	2802.3	navigation	Trial2	navigation/STIM_000.jpg	99
757.193	1.801	1801.3	navigation	Trial2	navigation/STIM_000.jpg	100
762.988	3.222	3221.9	navigation	Trial2	navigation/STIM_000.jpg	100
770.303	3.147	3147.4	navigation	Trial2	navigation/STIM_000.jpg	100
775.678	2.756	2756.4	navigation	Trial2	navigation/STIM_001.jpg	99
780.995	1.578	1578.1	navigation	Trial2	navigation/STIM_001.jpg	100
785.312	1.624	1624.5	navigation	Trial2	navigation/STIM_001.jpg	99
790.44	3.335	3334.9	navigation	Trial2	navigation/STIM_001.jpg	100
796.145	2.981	2980.7	navigation	Trial2	navigation/STIM_001.jpg	99
801.602	3.064	3063.7	navigation	Trial2	navigation/STIM_001.jpg	100
808.706	3.066	3065.6	navigation	Trial2	navigation/STIM_002.jpg	99
815.353	2.722	2722.2	navigation	Trial2	navigation/STIM_002.jpg	100
821.748	3.471	3471.3	navigation	Trial2	navigation/STIM_002.jpg	100
828.795	1.978	1978.2	navigation	Trial2	navigation/STIM_002.jpg	99
832.971	2.817	2816.7	navigation	Trial2	navigation/STIM_002.jpg	99
839.776	2.516	2515.6	navigation	Trial2	navigation/STIM_002.jpg	99
845.021	2.379	2379.3	navigation	Trial2	navigation/STIM_003.jpg	100
850.37	2.085	2085.0	navigation	Trial2	navigation/STIM_003.jpg	99
855.85	2.012	2011.7	navigation	Trial2	navigation/STIM_003.jpg	100
860.599	1.542	1541.5	navigation	Trial2	navigation/STIM_003.jpg	100
866.232	2.126	2125.8	navigation	Trial2	navigation/STIM_003.jpg	99
871.085	1.471	1471.4	navigation	Trial2	navigation/STIM_003.jpg	100
875.336	2.906	2905.7	navigation	Trial2	navigation/STIM_004.jpg	99
881.378	3.025	3024.6	navigation	Trial2	navigation/STIM_004.jpg	99
887.642	2.017	2017.1	navigation	Trial2	navigation/STIM_004.jpg	99
893.134	2.417	2417.3	navigation	Trial2	navigation/STIM_004.jpg	100
897.771	2.757	2756.7	navigation	Trial2	navigation/STIM_004.jpg	99
902.94	2.63	2629.5	navigation	Trial2	navigation/STIM_004.jpg	100
909.244	2.45	2450.2	navigation	Trial2	navigation/STIM_005.jpg	100
914.468	2.098	2098.2	navigation	Trial2	navigation/STIM_005.jpg	100
919.913	2.158	2157.6	navigation	Trial2	navigation/STIM_005.jpg	99
925.215	1.449	1448.6	navigation	Trial2	navigation/STIM_005.jpg	99
929.602	1.474	1474.3	navigation	Trial2	navigation/STIM_005.jpg	99
934.707	1.929	1928.8	navigation	Trial2	navigation/STIM_005.jpg	99
939.903	2.665	2664.9	navigation	Trial2	navigation/STIM_006.jpg	100
945.218	2.94	2940.2	navigation	Trial2	navigation/STIM_006.jpg	99
951.982	3.146	3146.5	navigation	Trial2	navigation/STIM_006.jpg	100
958.907	2.624	2624.0	navigation	Trial2	navigation/STIM_006.jpg	100
964.599	2.58	2580.0	navigation	Trial2	navigation/STIM_006.jpg	100
969.912	2.092	2092.1	navigation	Trial2	navigation/STIM_006.jpg	100
975.463	3.356	3355.9	navigation	Trial2	navigation/STIM_007.jpg	100
981.782	2.883	2883.4	navigation	Trial2	navigation/STIM_007.jpg	100
988.633	2.5	2500.3	navigation	Trial2	navigation/STIM_007.jpg	100
994.237	3.144	3143.7	navigation	Trial2	navigation/STIM_007.jpg	100
1000.361	2.445	2445.2	navigation	Trial2	navigation/STIM_007.jpg	99
1006.54	3.25	3249.9	navigation	Trial2	navigation/STIM_007.jpg	100
1013.605	3.613	3612.7	navigation	Trial2	navigation/STIM_008.jpg	100
1021.319	2.612	2611.7	navigation	Trial2	navigation/STIM_008.jpg	100
1027.114	1.875	1874.8	navigation	Trial2	navigation/STIM_008.jpg	100
1032.241	3.015	3015.2	navigation	Trial2	navigation/STIM_008.jpg	100
1039.125	2.255	2254.7	navigation	Trial2	navigation/STIM_008.jpg	99
1044.233	1.635	1635.3	navigation	Trial2	navigation/STIM_008.jpg	100
1049.817	1.895	1894.9	navigation	Trial2	navigation/STIM_009.jpg	100
1053.945	1.978	1977.7	navigation	Trial2	navigation/STIM_009.jpg	100
1059.085	2.47	2469.7	navigation	Trial2	navigation/STIM_009.jpg	100
1064.658	3.186	3186.3	navigation	Trial2	navigation/STIM_009.jpg	99
1071.723	2.452	2452.3	navigation	Trial2	navigation/STIM_009.jpg	99
1078.106	3.012	3012.4	navigation	Trial2	navigation/STIM_009.jpg	99
1084.765	3.545	3545.2	navigation	Trial2	navigation/STIM_010.jpg	99
1092.073	2.549	2549.0	navigation	Trial2	navigation/STIM_010.jpg	100
1097.335	1.653	1653.3	navigation	Trial2	navigation/STIM_010.jpg	100
1101.78	3.119	3119.0	navigation	Trial2	navigation/STIM_010.jpg	99
1107.995	1.445	1444.6	navigation	Trial2	navigation/STIM_010.jpg	100
1112.914	1.349	1349.3	navigation	Trial2	navigation/STIM_010.jpg	99
1117.771	3.677	3676.9	navigation	Trial2	navigation/STIM_011.jpg	99
1124.674	3.306	3305.8	navigation	Trial2	navigation/STIM_011.jpg	100
1131.797	2.785	2785.0	navigation	Trial2	navigation/STIM_011.jpg	100
1138.318	3.174	3174.1	navigation	Trial2	navigation/STIM_011.jpg	100
1144.615	3.188	3187.7	navigation	Trial2	navigation/STIM_011.jpg	100
1151.426	3.019	3019.3	navigation	Trial2	navigation/STIM_011.jpg	100
1157.851	1.21	1209.5	pointing	Trial2	pointing/STIM_000.jpg	99
1163.1	0.908	908.4	pointing	Trial2	pointing/STIM_000.jpg	99
1167.1	0.861	860.6	pointing	Trial2	pointing/STIM_000.jpg	100
1170.201	1.334	1333.7	pointing	Trial2	pointing/STIM_000.jpg	99
1175.61	1.393	1393.4	pointing	Trial2	pointing/STIM_000.jpg	99
1181.009	0.999	998.6	pointing	Trial2	pointing/STIM_000.jpg	100
1185.069	1.049	1049.4	pointing	Trial2	pointing/STIM_001.jpg	100
1190.137	1.081	1081.4	pointing	Trial2	pointing/STIM_001.jpg	99
1193.292	1.032	1032.1	pointing	Trial2	pointing/STIM_001.jpg	100
1196.347	1.249	1248.9	pointing	Trial2	pointing/STIM_001.jpg	100
1200.971	0.865	865.0	pointing	Trial2	pointing/STIM_001.jpg	99
1204.096	1.184	1184.4	pointing	Trial2	pointing/STIM_001.jpg	100
1208.941	1.172	1171.8	pointing	Trial2	pointing/STIM_002.jpg	99
1212.527	1.242	1242.5	pointing	Trial2	pointing/STIM_002.jpg	99
1217.652	1.062	1061.9	pointing	Trial2	pointing/STIM_002.jpg	99
1222.584	0.877	876.9	pointing	Trial2	pointing/STIM_002.jpg	100
1225.778	1.096	1095.5	pointing	Trial2	pointing/STIM_002.jpg	100
1229.853	1.092	1092.2	pointing	Trial2	pointing/STIM_002.jpg	99
1233.124	1.266	1266.1	pointing	Trial2	pointing/STIM_003.jpg	99
1236.92	1.075	1075.4	pointing	Trial2	pointing/STIM_003.jpg	100
1240.197	1.014	1013.5	pointing	Trial2	pointing/STIM_003.jpg	100
1244.424	1.358	1358.2	pointing	Trial2	pointing/STIM_003.jpg	100
1249.252	1.166	1165.6	pointing	Trial2	pointing/STIM_003.jpg	99
1253.691	0.892	892.4	pointing	Trial2	pointing/STIM_003.jpg	99
1256.954	1.15	1150.2	pointing	Trial2	pointing/STIM_004.jpg	99
1261.376	1.063	1063.3	pointing	Trial2	pointing/STIM_004.jpg	99
1266.078	1.312	1312.1	pointing	Trial2	pointing/STIM_004.jpg	100
1270.645	1.127	1127.3	pointing	Trial2	pointing/STIM_004.jpg	99
1274.682	1.216	1215.7	pointing	Trial2	pointing/STIM_004.jpg	99
1279.185	0.813	812.8	pointing	Trial2	pointing/STIM_004.jpg	100
1283.047	0.866	865.7	pointing	Trial2	pointing/STIM_005.jpg	99
1286.609	1.036	1036.4	pointing	Trial2	pointing/STIM_005.jpg	100
1291.647	0.724	724.5	pointing	Trial2	pointing/STIM_005.jpg	100
1295.184	1.151	1150.6	pointing	Trial2	pointing/STIM_005.jpg	100
1298.961	1.158	1157.8	pointing	Trial2	pointing/STIM_005.jpg	100
1303.086	1.01	1009.5	pointing	Trial2	pointing/STIM_005.jpg	99
1308.297	1.298	1298.4	pointing	Trial2	pointing/STIM_006.jpg	99
1312.156	0.742	742.0	pointing	Trial2	pointing/STIM_006.jpg	100
1315.744	0.917	917.3	pointing	Trial2	pointing/STIM_006.jpg	99
1320.543	1.293	1292.6	pointing	Trial2	pointing/STIM_006.jpg	99
1325.512	1.008	1008.3	pointing	Trial2	pointing/STIM_006.jpg	100
1328.814	1.172	1172.2	pointing	Trial2	pointing/STIM_006.jpg	99
1333.668	1.1	1099.6	pointing	Trial2	pointing/STIM_007.jpg	100
1337.768	1.406	1405.9	pointing	Trial2	pointing/STIM_007.jpg	99
1341.502	1.224	1223.5	pointing	Trial2	pointing/STIM_007.jpg	99
1345.463	0.906	906.4	pointing	Trial2	pointing/STIM_007.jpg	99
1348.984	1.114	1114.3	pointing	Trial2	pointing/STIM_007.jpg	100
1352.245	1.02	1019.9	pointing	Trial2	pointing/STIM_007.jpg	99
1357.032	1.309	1309.1	pointing	Trial2	pointing/STIM_008.jpg	100
1362.33	1.037	1037.4	pointing	Trial2	pointing/STIM_008.jpg	99
1366.929	1.178	1177.7	pointing	Trial2	pointing/STIM_008.jpg	99
1370.527	1.266	1266.4	pointing	Trial2	pointing/STIM_008.jpg	99
1374.913	1.183	1182.7	pointing	Trial2	pointing/STIM_008.jpg	100
1379.514	0.828	827.5	pointing	Trial2	pointing/STIM_008.jpg	100
1383.022	0.946	945.6	pointing	Trial2	pointing/STIM_009.jpg	100
1386.672	1.241	1240.9	pointing	Trial2	pointing/STIM_009.jpg	99
1390.372	1.028	1027.7	pointing	Trial2	pointing/STIM_009.jpg	99
1395.102	1.086	1086.2	pointing	Trial2	pointing/STIM_009.jpg	100
1399.856	1.218	1218.4	pointing	Trial2	pointing/STIM_009.jpg	100
1404.755	0.874	873.6	pointing	Trial2	pointing/STIM_009.jpg	100
1408.809	0.929	928.7	pointing	Trial2	pointing/STIM_010.jpg	100
1412.567	1.059	1058.9	pointing	Trial2	pointing/STIM_010.jpg	100
1416.911	1.179	1179.4	pointing	Trial2	pointing/STIM_010.jpg	100
1420.75	1.032	1031.7	pointing	Trial2	pointing/STIM_010.jpg	100
1425.483	1.076	1075.6	pointing	Trial2	pointing/STIM_010.jpg	99
1429.385	1.237	1237.1	pointing	Trial2	pointing/STIM_010.jpg	99
1433.502	0.898	897.8	pointing	Trial2	pointing/STIM_011.jpg	99
1437.916	1.336	1335.9	pointing	Trial2	pointing/STIM_011.jpg	100
1442.493	0.812	811.9	pointing	Trial2	pointing/STIM_011.jpg	99
1447.14	0.967	967.2	pointing	Trial2	pointing/STIM_011.jpg	100
1451.176	0.858	857.9	pointing	Trial2	pointing/STIM_011.jpg	100
1455.264	1.156	1155.6	pointing	Trial2	pointing/STIM_011.jpg	100
1459.7	2.823	2822.6	navigation	Trial3	navigation/STIM_000.jpg	100
1464.789	1.555	1555.4	navigation	Trial3	navigation/STIM_000.jpg	100
1469.14	2.235	2235.2	navigation	Trial3	navigation/STIM_000.jpg	100
1475.0	2.584	2583.6	navigation	Trial3	navigation/STIM_000.jpg	100
1480.04	2.025	2025.2	navigation	Trial3	navigation/STIM_000.jpg	99
1484.903	2.29	2289.7	navigation	Trial3	navigation/STIM_000.jpg	100
1490.38	2.959	2959.3	navigation	Trial3	navigation/STIM_001.jpg	100
1496.925	2.574	2574.5	navigation	Trial3	navigation/STIM_001.jpg	99
1502.253	1.429	1429.3	navigation	Trial3	navigation/STIM_001.jpg	100
1506.337	2.561	2560.7	navigation	Trial3	navigation/STIM_001.jpg	100
1512.552	2.5	2499.9	navigation	Trial3	navigation/STIM_001.jpg	99
1518.23	1.947	1947.2	navigation	Trial3	navigation/STIM_001.jpg	99
1522.313	1.315	1315.1	navigation	Trial3	navigation/STIM_002.jpg	99
1526.024	1.522	1521.5	navigation	Trial3	navigation/STIM_002.jpg	99
1530.859	3.285	3284.8	navigation	Trial3	navigation/STIM_002.jpg	100
1536.401	2.98	2979.5	navigation	Trial3	navigation/STIM_002.jpg	100
1542.473	2.26	2259.7	navigation	Trial3	navigation/STIM_002.jpg	99
1548.51	2.534	2533.9	navigation	Trial3	navigation/STIM_002.jpg	99
1553.439	1.584	1583.5	navigation	Trial3	navigation/STIM_003.jpg	99
1557.263	2.673	2672.7	navigation	Trial3	navigation/STIM_003.jpg	100
1564.071	1.497	1496.8	navigation	Trial3	navigation/STIM_003.jpg	99
1569.129	1.89	1889.8	navigation	Trial3	navigation/STIM_003.jpg	99
1573.286	1.832	1832.5	navigation	Trial3	navigation/STIM_003.jpg	99
1578.579	2.506	2505.7	navigation	Trial3	navigation/STIM_003.jpg	100
1584.668	1.883	1883.2	navigation	Trial3	navigation/STIM_004.jpg	100
1590.148	1.485	1484.6	navigation	Trial3	navigation/STIM_004.jpg	100
1594.173	1.763	1762.6	navigation	Trial3	navigation/STIM_004.jpg	99
1599.281	3.061	3061.0	navigation	Trial3	navigation/STIM_004.jpg	100
1605.289	1.901	1900.7	navigation	Trial3	navigation/STIM_004.jpg	100
1610.592	2.168	2168.4	navigation	Trial3	navigation/STIM_004.jpg	100
1615.997	2.156	2156.3	navigation	Trial3	navigation/STIM_005.jpg	100
1621.161	1.536	1536.1	navigation	Trial3	navigation/STIM_005.jpg	99
1625.409	2.033	2033.3	navigation	Trial3	navigation/STIM_005.jpg	100
1630.106	3.083	3083.3	navigation	Trial3	navigation/STIM_005.jpg	100
1636.15	2.903	2902.9	navigation	Trial3	navigation/STIM_005.jpg	99
1642.882	1.994	1994.0	navigation	Trial3	navigation/STIM_005.jpg	99
1648.132	2.596	2596.3	navigation	Trial3	navigation/STIM_006.jpg	100
1653.491	2.608	2608.1	navigation	Trial3	navigation/STIM_006.jpg	99
1659.808	2.944	2944.4	navigation	Trial3	navigation/STIM_006.jpg	100
1666.233	1.65	1650.3	navigation	Trial3	navigation/STIM_006.jpg	99
1670.943	2.062	2061.6	navigation	Trial3	navigation/STIM_006.jpg	100
1676.671	2.271	2270.8	navigation	Trial3	navigation/STIM_006.jpg	99
1681.492	2.226	2225.8	navigation	Trial3	navigation/STIM_007.jpg	100
1687.241	3.036	3035.7	navigation	Trial3	navigation/STIM_007.jpg	100
1693.717	1.43	1429.5	navigation	Trial3	navigation/STIM_007.jpg	99
1697.664	1.533	1533.4	navigation	Trial3	navigation/STIM_007.jpg	100
1702.509	3.126	3126.0	navigation	Trial3	navigation/STIM_007.jpg	100
1709.79	2.507	2507.1	navigation	Trial3	navigation/STIM_007.jpg	100
1714.605	2.9	2900.0	navigation	Trial3	navigation/STIM_008.jpg	100
1720.539	1.437	1436.8	navigation	Trial3	navigation/STIM_008.jpg	99
1724.438	2.479	2478.6	navigation	Trial3	navigation/STIM_008.jpg	99
1730.524	2.724	2723.7	navigation	Trial3	navigation/STIM_008.jpg	99
1736.749	1.975	1974.7	navigation	Trial3	navigation/STIM_008.jpg	100
1741.177	2.706	2706.1	navigation	Trial3	navigation/STIM_008.jpg	100
1746.633	1.514	1513.9	navigation	Trial3	navigation/STIM_009.jpg	99
1751.252	2.426	2426.5	navigation	Trial3	navigation/STIM_009.jpg	99
1757.713	2.08	2080.5	navigation	Trial3	navigation/STIM_009.jpg	99
1763.419	3.242	3241.6	navigation	Trial3	navigation/STIM_009.jpg	99
1770.799	3.184	3183.6	navigation	Trial3	navigation/STIM_009.jpg	100
1777.599	1.911	1910.8	navigation	Trial3	navigation/STIM_009.jpg	100
1782.098	2.855	2854.6	navigation	Trial3	navigation/STIM_010.jpg	99
1787.667	2.646	2646.5	navigation	Trial3	navigation/STIM_010.jpg	99
1793.38	1.403	1402.9	navigation	Trial3	navigation/STIM_010.jpg	99
1797.239	1.271	1270.8	navigation	Trial3	navigation/STIM_010.jpg	100
1801.716	2.607	2607.1	navigation	Trial3	navigation/STIM_010.jpg	100
1808.421	1.491	1491.3	navigation	Trial3	navigation/STIM_010.jpg	99
1813.924	2.121	2120.7	navigation	Trial3	navigation/STIM_011.jpg	99
1818.843	2.989	2989.1	navigation	Trial3	navigation/STIM_011.jpg	99
1824.987	1.826	1825.7	navigation	Trial3	navigation/STIM_011.jpg	100
1829.299	3.045	3044.6	navigation	Trial3	navigation/STIM_011.jpg	99
1835.188	2.353	2352.8	navigation	Trial3	navigation/STIM_011.jpg	100
1840.87	3.282	3281.8	navigation	Trial3	navigation/STIM_011.jpg	100
1846.895	0.933	933.0	pointing	Trial3	pointing/STIM_000.jpg	99
1850.561	1.478	1478.1	pointing	Trial3	pointing/STIM_000.jpg	100
1854.476	1.339	1339.2	pointing	Trial3	pointing/STIM_000.jpg	99
1859.62	1.194	1193.8	pointing	Trial3	pointing/STIM_000.jpg	99
1864.761	1.219	1218.6	pointing	Trial3	pointing/STIM_000.jpg	99
1868.711	1.374	1373.5	pointing	Trial3	pointing/STIM_000.jpg	100
1872.717	1.047	1047.1	pointing	Trial3	pointing/STIM_001.jpg	100
1876.141	1.349	1349.3	pointing	Trial3	pointing/STIM_001.jpg	100
1881.096	1.054	1053.5	pointing	Trial3	pointing/STIM_001.jpg	99
1885.073	1.247	1247.2	pointing	Trial3	pointing/STIM_001.jpg	99
1888.586	0.989	988.8	pointing	Trial3	pointing/STIM_001.jpg	99
1892.852	1.144	1143.7	pointing	Trial3	pointing/STIM_001.jpg	99
1897.303	0.875	875.3	pointing	Trial3	pointing/STIM_002.jpg	100
1901.89	0.927	926.7	pointing	Trial3	pointing/STIM_002.jpg	100
1905.88	1.358	1358.1	pointing	Trial3	pointing/STIM_002.jpg	100
1909.714	0.948	947.9	pointing	Trial3	pointing/STIM_002.jpg	100
1913.556	0.788	788.0	pointing	Trial3	pointing/STIM_002.jpg	100
1917.39	1.159	1159.2	pointing	Trial3	pointing/STIM_002.jpg	99
1921.042	1.334	1334.5	pointing	Trial3	pointing/STIM_003.jpg	99
1925.686	0.781	781.0	pointing	Trial3	pointing/STIM_003.jpg	99
1928.847	1.206	1206.3	pointing	Trial3	pointing/STIM_003.jpg	100
1932.71	1.27	1269.5	pointing	Trial3	pointing/STIM_003.jpg	99
1938.107	0.812	811.5	pointing	Trial3	pointing/STIM_003.jpg	99
1942.254	1.166	1166.1	pointing	Trial3	pointing/STIM_003.jpg	99
1946.232	1.181	1180.9	pointing	Trial3	pointing/STIM_004.jpg	99
1949.497	1.092	1092.5	pointing	Trial3	pointing/STIM_004.jpg	100
1953.101	1.357	1356.6	pointing	Trial3	pointing/STIM_004.jpg	100
1958.323	1.353	1353.3	pointing	Trial3	pointing/STIM_004.jpg	99
1961.835	0.747	746.9	pointing	Trial3	pointing/STIM_004.jpg	100
1965.954	1.07	1069.9	pointing	Trial3	pointing/STIM_004.jpg	100
1969.567	1.426	1425.8	pointing	Trial3	pointing/STIM_005.jpg	99
1973.353	1.067	1066.8	pointing	Trial3	pointing/STIM_005.jpg	99
1977.559	1.025	1024.6	pointing	Trial3	pointing/STIM_005.jpg	99
1981.581	1.064	1064.3	pointing	Trial3	pointing/STIM_005.jpg	100
1986.553	0.768	767.9	pointing	Trial3	pointing/STIM_005.jpg	99
1991.431	1.054	1053.7	pointing	Trial3	pointing/STIM_005.jpg	99
1996.2	0.704	704.0	pointing	Trial3	pointing/STIM_006.jpg	99
2000.074	0.928	927.7	pointing	Trial3	pointing/STIM_006.jpg	100
2003.591	0.928	928.3	pointing	Trial3	pointing/STIM_006.jpg	100
2007.506	1.352	1352.3	pointing	Trial3	pointing/STIM_006.jpg	100
2012.893	0.95	949.5	pointing	Trial3	pointing/STIM_006.jpg	100
2016.438	1.047	1047.0	pointing	Trial3	pointing/STIM_006.jpg	99
2020.679	0.71	710.3	pointing	Trial3	pointing/STIM_007.jpg	100
2025.301	0.838	837.8	pointing	Trial3	pointing/STIM_007.jpg	100
2029.61	0.771	771.0	pointing	Trial3	pointing/STIM_007.jpg	99
2033.806	0.873	872.9	pointing	Trial3	pointing/STIM_007.jpg	100
2038.508	1.0	1000.3	pointing	Trial3	pointing/STIM_007.jpg	100
2042.179	0.765	764.8	pointing	Trial3	pointing/STIM_007.jpg	99
2046.289	0.856	856.4	pointing	Trial3	pointing/STIM_008.jpg	100
2050.236	1.053	1052.7	pointing	Trial3	pointing/STIM_008.jpg	99
2055.252	1.02	1020.2	pointing	Trial3	pointing/STIM_008.jpg	100
2058.608	1.36	1359.8	pointing	Trial3	pointing/STIM_008.jpg	100
2063.943	1.252	1251.6	pointing	Trial3	pointing/STIM_008.jpg	99
2067.52	1.038	1038.2	pointing	Trial3	pointing/STIM_008.jpg	100
2071.879	1.119	1119.2	pointing	Trial3	pointing/STIM_009.jpg	99
2075.839	1.293	1293.3	pointing	Trial3	pointing/STIM_009.jpg	99
2079.557	0.975	974.7	pointing	Trial3	pointing/STIM_009.jpg	99
2084.537	1.175	1174.9	pointing	Trial3	pointing/STIM_009.jpg	99
2089.515	0.782	782.3	pointing	Trial3	pointing/STIM_009.jpg	99
2093.954	1.176	1175.7	pointing	Trial3	pointing/STIM_009.jpg	100
2098.971	0.902	901.5	pointing	Trial3	pointing/STIM_010.jpg	99
2102.309	0.765	765.1	pointing	Trial3	pointing/STIM_010.jpg	100
2106.888	0.999	998.6	pointing	Trial3	pointing/STIM_010.jpg	99
2111.322	0.668	667.9	pointing	Trial3	pointing/STIM_010.jpg	100
2114.99	1.302	1302.0	pointing	Trial3	pointing/STIM_010.jpg	99
2119.34	1.031	1031.4	pointing	Trial3	pointing/STIM_010.jpg	99
2123.857	1.009	1008.6	pointing	Trial3	pointing/STIM_011.jpg	99
2128.16	0.997	997.2	pointing	Trial3	pointing/STIM_011.jpg	99
2132.635	0.914	914.3	pointing	Trial3	pointing/STIM_011.jpg	99
2137.113	1.119	1118.6	pointing	Trial3	pointing/STIM_011.jpg	99
2140.394	1.191	1191.4	pointing	Trial3	pointing/STIM_011.jpg	100
2143.942	1.142	1142.2	pointing	Trial3	pointing/STIM_011.jpg	100
