onset	duration	accuracy	trial_type	learning_stage	stimulus
0.0	4.869	correct	navigation	Trial1	navigation/STIM_000.jpg
8.557	2.912	incorrect	navigation	Trial1	navigation/STIM_000.jpg
15.404	4.989	incorrect	navigation	Trial1	navigation/STIM_000.jpg
22.723	3.795	correct	navigation	Trial1	navigation/STIM_000.jpg
29.036	2.946	correct	navigation	Trial1	navigation/STIM_000.jpg
34.586	3.301	incorrect	navigation	Trial1	navigation/STIM_000.jpg
41.031	5.038	correct	navigation	Trial1	navigation/STIM_001.jpg
49.543	2.942	correct	navigation	Trial1	navigation/STIM_001.jpg
55.072	4.078	correct	navigation	Trial1	navigation/STIM_001.jpg
61.536	2.338	correct	navigation	Trial1	navigation/STIM_001.jpg
65.909	3.416	correct	navigation	Trial1	navigation/STIM_001.jpg
71.898	2.371	correct	navigation	Trial1	navigation/STIM_001.jpg
77.575	2.454	correct	navigation	Trial1	navigation/STIM_002.jpg
82.302	3.081	correct	navigation	Trial1	navigation/STIM_002.jpg
87.655	3.442	correct	navigation	Trial1	navigation/STIM_002.jpg
94.371	2.256	correct	navigation	Trial1	navigation/STIM_002.jpg
100.022	2.268	correct	navigation	Trial1	navigation/STIM_002.jpg
104.687	4.04	correct	navigation	Trial1	navigation/STIM_002.jpg
112.718	4.144	correct	navigation	Trial1	navigation/STIM_003.jpg
119.148	3.479	incorrect	navigation	Trial1	navigation/STIM_003.jpg
125.291	2.065	correct	navigation	Trial1	navigation/STIM_003.jpg
130.701	1.918	correct	navigation	Trial1	navigation/STIM_003.jpg
134.745	4.286	correct	navigation	Trial1	navigation/STIM_003.jpg
141.248	3.891	correct	navigation	Trial1	navigation/STIM_003.jpg
147.757	4.904	correct	navigation	Trial1	navigation/STIM_004.jpg
156.66	5.002	incorrect	navigation	Trial1	navigation/STIM_004.jpg
164.432	3.689	incorrect	navigation	Trial1	navigation/STIM_004.jpg
171.034	2.329	incorrect	navigation	Trial1	navigation/STIM_004.jpg
177.006	3.588	correct	navigation	Trial1	navigation/STIM_004.jpg
184.45	2.645	incorrect	navigation	Trial1	navigation/STIM_004.jpg
190.147	3.971	correct	navigation	Trial1	navigation/STIM_005.jpg
197.548	3.955	correct	navigation	Trial1	navigation/STIM_005.jpg
204.764	3.816	correct	navigation	Trial1	navigation/STIM_005.jpg
211.814	3.982	correct	navigation	Trial1	navigation/STIM_005.jpg
218.872	4.032	correct	navigation	Trial1	navigation/STIM_005.jpg
225.705	3.197	correct	navigation	Trial1	navigation/STIM_005.jpg
231.022	5.247	incorrect	navigation	Trial1	navigation/STIM_006.jpg
239.549	3.038	correct	navigation	Trial1	navigation/STIM_006.jpg
245.895	3.928	correct	navigation	Trial1	navigation/STIM_006.jpg
252.784	3.68	correct	navigation	Trial1	navigation/STIM_006.jpg
259.545	2.704	correct	navigation	Trial1	navigation/STIM_006.jpg
266.192	3.733	correct	navigation	Trial1	navigation/STIM_006.jpg
271.969	4.748	incorrect	navigation	Trial1	navigation/STIM_007.jpg
280.564	3.852	incorrect	navigation	Trial1	navigation/STIM_007.jpg
286.814	4.788	correct	navigation	Trial1	navigation/STIM_007.jpg
294.165	3.332	incorrect	navigation	Trial1	navigation/STIM_007.jpg
300.81	3.464	correct	navigation	Trial1	navigation/STIM_007.jpg
307.784	1.967	correct	navigation	Trial1	navigation/STIM_007.jpg
312.417	5.456	incorrect	navigation	Trial1	navigation/STIM_008.jpg
320.414	2.824	correct	navigation	Trial1	navigation/STIM_008.jpg
326.093	2.634	incorrect	navigation	Trial1	navigation/STIM_008.jpg
332.189	4.292	correct	navigation	Trial1	navigation/STIM_008.jpg
338.725	3.717	correct	navigation	Trial1	navigation/STIM_008.jpg
345.309	4.154	correct	navigation	Trial1	navigation/STIM_008.jpg
352.377	3.958	correct	navigation	Trial1	navigation/STIM_009.jpg
359.519	4.513	correct	navigation	Trial1	navigation/STIM_009.jpg
366.326	4.363	correct	navigation	Trial1	navigation/STIM_009.jpg
374.226	2.804	correct	navigation	Trial1	navigation/STIM_009.jpg
379.99	2.292	correct	navigation	Trial1	navigation/STIM_009.jpg
384.951	3.085	correct	navigation	Trial1	navigation/STIM_009.jpg
390.769	3.445	correct	navigation	Trial1	navigation/STIM_010.jpg
397.804	3.619	incorrect	navigation	Trial1	navigation/STIM_010.jpg
405.358	4.254	incorrect	navigation	Trial1	navigation/STIM_010.jpg
413.009	2.349	incorrect	navigation	Trial1	navigation/STIM_010.jpg
419.321	3.231	correct	navigation	Trial1	navigation/STIM_010.jpg
425.008	3.005	correct	navigation	Trial1	navigation/STIM_010.jpg
430.975	5.514	correct	navigation	Trial1	navigation/STIM_011.jpg
440.038	4.661	incorrect	navigation	Trial1	navigation/STIM_011.jpg
448.329	5.044	correct	navigation	Trial1	navigation/STIM_011.jpg
456.518	4.543	incorrect	navigation	Trial1	navigation/STIM_011.jpg
464.564	4.106	correct	navigation	Trial1	navigation/STIM_011.jpg
472.485	1.881	correct	navigation	Trial1	navigation/STIM_011.jpg
476.638	0.954	correct	pointing	Trial1	pointing/STIM_000.jpg
481.045	1.152	correct	pointing	Trial1	pointing/STIM_000.jpg
486.062	1.228	correct	pointing	Trial1	pointing/STIM_000.jpg
490.726	1.497	correct	pointing	Trial1	pointing/STIM_000.jpg
495.753	1.04	incorrect	pointing	Trial1	pointing/STIM_000.jpg
500.624	1.16	correct	pointing	Trial1	pointing/STIM_000.jpg
503.823	1.24	correct	pointing	Trial1	pointing/STIM_001.jpg
508.544	1.029	correct	pointing	Trial1	pointing/STIM_001.jpg
512.746	0.903	correct	pointing	Trial1	pointing/STIM_001.jpg
516.882	1.302	correct	pointing	Trial1	pointing/STIM_001.jpg
521.137	1.048	correct	pointing	Trial1	pointing/STIM_001.jpg
525.592	1.228	correct	pointing	Trial1	pointing/STIM_001.jpg
529.109	1.427	correct	pointing	Trial1	pointing/STIM_002.jpg
533.946	1.306	correct	pointing	Trial1	pointing/STIM_002.jpg
537.714	0.973	correct	pointing	Trial1	pointing/STIM_002.jpg
542.628	1.307	correct	pointing	Trial1	pointing/STIM_002.jpg
546.875	1.588	correct	pointing	Trial1	pointing/STIM_002.jpg
552.27	1.539	correct	pointing	Trial1	pointing/STIM_002.jpg
555.873	1.308	correct	pointing	Trial1	pointing/STIM_003.jpg
559.933	1.501	correct	pointing	Trial1	pointing/STIM_003.jpg
565.26	0.99	correct	pointing	Trial1	pointing/STIM_003.jpg
568.412	1.48	correct	pointing	Trial1	pointing/STIM_003.jpg
573.563	1.374	correct	pointing	Trial1	pointing/STIM_003.jpg
577.016	0.915	correct	pointing	Trial1	pointing/STIM_003.jpg
580.013	1.47	correct	pointing	Trial1	pointing/STIM_004.jpg
583.966	1.37	correct	pointing	Trial1	pointing/STIM_004.jpg
587.354	1.096	correct	pointing	Trial1	pointing/STIM_004.jpg
591.677	0.929	correct	pointing	Trial1	pointing/STIM_004.jpg
595.016	1.553	correct	pointing	Trial1	pointing/STIM_004.jpg
600.155	1.097	correct	pointing	Trial1	pointing/STIM_004.jpg
603.949	0.909	correct	pointing	Trial1	pointing/STIM_005.jpg
607.693	1.321	correct	pointing	Trial1	pointing/STIM_005.jpg
611.77	1.513	correct	pointing	Trial1	pointing/STIM_005.jpg
615.725	1.627	incorrect	pointing	Trial1	pointing/STIM_005.jpg
620.289	0.973	correct	pointing	Trial1	pointing/STIM_005.jpg
624.862	1.265	correct	pointing	Trial1	pointing/STIM_005.jpg
628.444	1.64	correct	pointing	Trial1	pointing/STIM_006.jpg
633.285	0.992	correct	pointing	Trial1	pointing/STIM_006.jpg
637.464	1.52	correct	pointing	Trial1	pointing/STIM_006.jpg
642.346	1.144	correct	pointing	Trial1	pointing/STIM_006.jpg
645.535	1.29	incorrect	pointing	Trial1	pointing/STIM_006.jpg
649.42	0.927	correct	pointing	Trial1	pointing/STIM_006.jpg
652.94	1.462	correct	pointing	Trial1	pointing/STIM_007.jpg
656.84	1.614	correct	pointing	Trial1	pointing/STIM_007.jpg
661.009	1.159	correct	pointing	Trial1	pointing/STIM_007.jpg
665.332	1.146	correct	pointing	Trial1	pointing/STIM_007.jpg
669.702	0.953	correct	pointing	Trial1	pointing/STIM_007.jpg
674.451	1.326	correct	pointing	Trial1	pointing/STIM_007.jpg
678.078	1.283	correct	pointing	Trial1	pointing/STIM_008.jpg
681.817	1.461	correct	pointing	Trial1	pointing/STIM_008.jpg
685.841	1.333	correct	pointing	Trial1	pointing/STIM_008.jpg
690.306	1.079	correct	pointing	Trial1	pointing/STIM_008.jpg
695.061	0.977	correct	pointing	Trial1	pointing/STIM_008.jpg
699.916	1.14	correct	pointing	Trial1	pointing/STIM_008.jpg
703.531	1.368	correct	pointing	Trial1	pointing/STIM_009.jpg
708.646	1.141	correct	pointing	Trial1	pointing/STIM_009.jpg
712.604	1.593	correct	pointing	Trial1	pointing/STIM_009.jpg
717.683	1.156	correct	pointing	Trial1	pointing/STIM_009.jpg
721.993	1.532	correct	pointing	Trial1	pointing/STIM_009.jpg
726.578	1.079	correct	pointing	Trial1	pointing/STIM_009.jpg
730.61	1.045	correct	pointing	Trial1	pointing/STIM_010.jpg
733.992	1.053	correct	pointing	Trial1	pointing/STIM_010.jpg
738.733	1.661	correct	pointing	Trial1	pointing/STIM_010.jpg
743.669	1.216	correct	pointing	Trial1	pointing/STIM_010.jpg
747.712	1.646	correct	pointing	Trial1	pointing/STIM_010.jpg
752.045	1.438	correct	pointing	Trial1	pointing/STIM_010.jpg
757.005	1.123	correct	pointing	Trial1	pointing/STIM_011.jpg
761.324	1.324	correct	pointing	Trial1	pointing/STIM_011.jpg
766.35	1.674	correct	pointing	Trial1	pointing/STIM_011.jpg
770.696	1.426	correct	pointing	Trial1	pointing/STIM_011.jpg
774.137	1.387	correct	pointing	Trial1	pointing/STIM_011.jpg
778.527	1.003	correct	pointing	Trial1	pointing/STIM_011.jpg
781.945	1.937	correct	navigation	Trial2	navigation/STIM_000.jpg
786.977	3.678	correct	navigation	Trial2	navigation/STIM_000.jpg
793.796	1.742	correct	navigation	Trial2	navigation/STIM_000.jpg
798.165	2.393	incorrect	navigation	Trial2	navigation/STIM_000.jpg
804.251	3.815	correct	navigation	Trial2	navigation/STIM_000.jpg
811.92	1.795	correct	navigation	Trial2	navigation/STIM_000.jpg
817.462	3.204	correct	navigation	Trial2	navigation/STIM_001.jpg
823.522	4.217	correct	navigation	Trial2	navigation/STIM_001.jpg
830.888	1.974	correct	navigation	Trial2	navigation/STIM_001.jpg
835.817	2.914	correct	navigation	Trial2	navigation/STIM_001.jpg
841.839	2.825	correct	navigation	Trial2	navigation/STIM_001.jpg
847.834	2.521	correct	navigation	Trial2	navigation/STIM_001.jpg
852.532	3.018	correct	navigation	Trial2	navigation/STIM_002.jpg
859.373	2.956	correct	navigation	Trial2	navigation/STIM_002.jpg
864.502	3.402	correct	navigation	Trial2	navigation/STIM_002.jpg
871.858	3.564	correct	navigation	Trial2	navigation/STIM_002.jpg
878.068	3.688	incorrect	navigation	Trial2	navigation/STIM_002.jpg
883.889	2.09	correct	navigation	Trial2	navigation/STIM_002.jpg
889.775	3.392	correct	navigation	Trial2	navigation/STIM_003.jpg
895.237	1.966	correct	navigation	Trial2	navigation/STIM_003.jpg
900.725	2.665	incorrect	navigation	Trial2	navigation/STIM_003.jpg
907.176	3.635	correct	navigation	Trial2	navigation/STIM_003.jpg
913.905	1.901	correct	navigation	Trial2	navigation/STIM_003.jpg
919.241	3.663	incorrect	navigation	Trial2	navigation/STIM_003.jpg
925.966	2.94	incorrect	navigation	Trial2	navigation/STIM_004.jpg
932.671	3.232	correct	navigation	Trial2	navigation/STIM_004.jpg
939.625	2.04	correct	navigation	Trial2	navigation/STIM_004.jpg
945.09	2.365	correct	navigation	Trial2	navigation/STIM_004.jpg
950.443	2.474	correct	navigation	Trial2	navigation/STIM_004.jpg
956.75	3.61	incorrect	navigation	Trial2	navigation/STIM_004.jpg
963.948	2.931	correct	navigation	Trial2	navigation/STIM_005.jpg
969.53	2.43	correct	navigation	Trial2	navigation/STIM_005.jpg
975.17	4.182	correct	navigation	Trial2	navigation/STIM_005.jpg
983.142	3.433	correct	navigation	Trial2	navigation/STIM_005.jpg
989.733	3.223	correct	navigation	Trial2	navigation/STIM_005.jpg
995.528	2.614	correct	navigation	Trial2	navigation/STIM_005.jpg
1000.229	2.323	correct	navigation	Trial2	navigation/STIM_006.jpg
1006.501	2.422	correct	navigation	Trial2	navigation/STIM_006.jpg
1012.506	3.354	incorrect	navigation	Trial2	navigation/STIM_006.jpg
1019.836	2.61	incorrect	navigation	Trial2	navigation/STIM_006.jpg
1025.951	2.968	correct	navigation	Trial2	navigation/STIM_006.jpg
1032.743	1.624	correct	navigation	Trial2	navigation/STIM_006.jpg
1036.695	3.978	correct	navigation	Trial2	navigation/STIM_007.jpg
1043.975	2.216	correct	navigation	Trial2	navigation/STIM_007.jpg
1049.145	2.562	correct	navigation	Trial2	navigation/STIM_007.jpg
1055.027	3.38	correct	navigation	Trial2	navigation/STIM_007.jpg
1062.09	1.607	correct	navigation	Trial2	navigation/STIM_007.jpg
1066.345	2.603	correct	navigation	Trial2	navigation/STIM_007.jpg
1072.645	3.609	correct	navigation	Trial2	navigation/STIM_008.jpg
1079.232	3.736	correct	navigation	Trial2	navigation/STIM_008.jpg
1086.527	3.848	correct	navigation	Trial2	navigation/STIM_008.jpg
1092.485	1.789	incorrect	navigation	Trial2	navigation/STIM_008.jpg
1096.73	2.354	correct	navigation	Trial2	navigation/STIM_008.jpg
1102.697	1.664	correct	navigation	Trial2	navigation/STIM_008.jpg
1106.529	3.028	correct	navigation	Trial2	navigation/STIM_009.jpg
1112.483	3.781	correct	navigation	Trial2	navigation/STIM_009.jpg
1118.555	2.779	correct	navigation	Trial2	navigation/STIM_009.jpg
1123.873	2.96	incorrect	navigation	Trial2	navigation/STIM_009.jpg
1129.97	2.555	correct	navigation	Trial2	navigation/STIM_009.jpg
1135.416	2.117	incorrect	navigation	Trial2	navigation/STIM_009.jpg
1141.494	3.802	correct	navigation	Trial2	navigation/STIM_010.jpg
1148.135	2.48	correct	navigation	Trial2	navigation/STIM_010.jpg
1153.816	2.485	correct	navigation	Trial2	navigation/STIM_010.jpg
1159.219	2.875	incorrect	navigation	Trial2	navigation/STIM_010.jpg
1164.372	2.549	correct	navigation	Trial2	navigation/STIM_010.jpg
1168.975	2.864	correct	navigation	Trial2	navigation/STIM_010.jpg
1175.547	1.996	correct	navigation	Trial2	navigation/STIM_011.jpg
1180.399	2.663	correct	navigation	Trial2	navigation/STIM_011.jpg
1185.973	2.143	incorrect	navigation	Trial2	navigation/STIM_011.jpg
1190.119	2.008	incorrect	navigation	Trial2	navigation/STIM_011.jpg
1194.717	1.67	correct	navigation	Trial2	navigation/STIM_011.jpg
1200.297	2.609	correct	navigation	Trial2	navigation/STIM_011.jpg
1204.985	1.254	correct	pointing	Trial2	pointing/STIM_000.jpg
1208.352	1.157	correct	pointing	Trial2	pointing/STIM_000.jpg
1212.28	1.5	correct	pointing	Trial2	pointing/STIM_000.jpg
1215.964	1.578	correct	pointing	Trial2	pointing/STIM_000.jpg
1220.029	1.379	correct	pointing	Trial2	pointing/STIM_000.jpg
1223.701	0.943	correct	pointing	Trial2	pointing/STIM_000.jpg
1227.354	1.156	correct	pointing	Trial2	pointing/STIM_001.jpg
1231.595	1.239	correct	pointing	Trial2	pointing/STIM_001.jpg
1236.788	1.082	correct	pointing	Trial2	pointing/STIM_001.jpg
1241.387	1.185	correct	pointing	Trial2	pointing/STIM_001.jpg
1246.263	1.179	correct	pointing	Trial2	pointing/STIM_001.jpg
1251.368	1.449	correct	pointing	Trial2	pointing/STIM_001.jpg
1255.595	0.991	correct	pointing	Trial2	pointing/STIM_002.jpg
1259.927	1.493	correct	pointing	Trial2	pointing/STIM_002.jpg
1263.569	1.004	correct	pointing	Trial2	pointing/STIM_002.jpg
1268.165	1.525	correct	pointing	Trial2	pointing/STIM_002.jpg
1272.86	1.481	correct	pointing	Trial2	pointing/STIM_002.jpg
1276.963	1.2	correct	pointing	Trial2	pointing/STIM_002.jpg
1281.118	1.249	correct	pointing	Trial2	pointing/STIM_003.jpg
1285.651	1.365	correct	pointing	Trial2	pointing/STIM_003.jpg
1289.426	1.055	correct	pointing	Trial2	pointing/STIM_003.jpg
1293.114	1.679	correct	pointing	Trial2	pointing/STIM_003.jpg
1297.875	0.967	incorrect	pointing	Trial2	pointing/STIM_003.jpg
1301.208	1.17	correct	pointing	Trial2	pointing/STIM_003.jpg
1305.116	1.308	correct	pointing	Trial2	pointing/STIM_004.jpg
1309.675	1.208	correct	pointing	Trial2	pointing/STIM_004.jpg
1313.758	1.202	correct	pointing	Trial2	pointing/STIM_004.jpg
1317.573	1.444	correct	pointing	Trial2	pointing/STIM_004.jpg
1322.299	1.262	correct	pointing	Trial2	pointing/STIM_004.jpg
1326.355	1.246	correct	pointing	Trial2	pointing/STIM_004.jpg
1329.658	1.488	correct	pointing	Trial2	pointing/STIM_005.jpg
1333.814	1.31	correct	pointing	Trial2	pointing/STIM_005.jpg
1338.84	1.612	correct	pointing	Trial2	pointing/STIM_005.jpg
1344.067	0.974	correct	pointing	Trial2	pointing/STIM_005.jpg
1348.182	1.07	correct	pointing	Trial2	pointing/STIM_005.jpg
1352.892	1.061	correct	pointing	Trial2	pointing/STIM_005.jpg
1356.66	1.143	correct	pointing	Trial2	pointing/STIM_006.jpg
1359.822	1.641	correct	pointing	Trial2	pointing/STIM_006.jpg
1363.731	0.996	correct	pointing	Trial2	pointing/STIM_006.jpg
1368.085	1.025	correct	pointing	Trial2	pointing/STIM_006.jpg
1371.849	1.448	correct	pointing	Trial2	pointing/STIM_006.jpg
1376.16	1.422	correct	pointing	Trial2	pointing/STIM_006.jpg
1380.196	1.638	correct	pointing	Trial2	pointing/STIM_007.jpg
1385.382	1.57	correct	pointing	Trial2	pointing/STIM_007.jpg
1389.237	1.323	correct	pointing	Trial2	pointing/STIM_007.jpg
1392.624	1.331	incorrect	pointing	Trial2	pointing/STIM_007.jpg
1397.705	1.493	correct	pointing	Trial2	pointing/STIM_007.jpg
1402.059	1.388	correct	pointing	Trial2	pointing/STIM_007.jpg
1406.068	1.261	correct	pointing	Trial2	pointing/STIM_008.jpg
1409.7	0.951	correct	pointing	Trial2	pointing/STIM_008.jpg
1414.344	0.91	correct	pointing	Trial2	pointing/STIM_008.jpg
1418.238	1.426	correct	pointing	Trial2	pointing/STIM_008.jpg
1423.128	1.256	correct	pointing	Trial2	pointing/STIM_008.jpg
1426.799	1.541	correct	pointing	Trial2	pointing/STIM_008.jpg
1430.563	1.556	correct	pointing	Trial2	pointing/STIM_009.jpg
1434.604	1.675	correct	pointing	Trial2	pointing/STIM_009.jpg
1440.042	1.149	correct	pointing	Trial2	pointing/STIM_009.jpg
1443.217	1.072	correct	pointing	Trial2	pointing/STIM_009.jpg
1446.892	1.131	correct	pointing	Trial2	pointing/STIM_009.jpg
1450.437	1.084	correct	pointing	Trial2	pointing/STIM_009.jpg
1454.001	1.679	correct	pointing	Trial2	pointing/STIM_010.jpg
1458.385	1.672	correct	pointing	Trial2	pointing/STIM_010.jpg
1462.888	1.537	correct	pointing	Trial2	pointing/STIM_010.jpg
1466.764	1.486	correct	pointing	Trial2	pointing/STIM_010.jpg
1471.412	1.203	correct	pointing	Trial2	pointing/STIM_010.jpg
1476.516	0.925	correct	pointing	Trial2	pointing/STIM_010.jpg
1480.973	1.114	correct	pointing	Trial2	pointing/STIM_011.jpg
1484.614	0.982	correct	pointing	Trial2	pointing/STIM_011.jpg
1487.729	1.248	correct	pointing	Trial2	pointing/STIM_011.jpg
1491.548	1.035	correct	pointing	Trial2	pointing/STIM_011.jpg
1496.148	1.208	correct	pointing	Trial2	pointing/STIM_011.jpg
1499.876	1.142	correct	pointing	Trial2	pointing/STIM_011.jpg
1504.898	3.412	correct	navigation	Trial3	navigation/STIM_000.jpg
1510.791	1.761	correct	navigation	Trial3	navigation/STIM_000.jpg
1514.991	3.566	correct	navigation	Trial3	navigation/STIM_000.jpg
1521.426	2.318	correct	navigation	Trial3	navigation/STIM_000.jpg
1527.067	2.778	correct	navigation	Trial3	navigation/STIM_000.jpg
1533.456	1.887	correct	navigation	Trial3	navigation/STIM_000.jpg
1537.566	3.031	correct	navigation	Trial3	navigation/STIM_001.jpg
1543.29	2.547	correct	navigation	Trial3	navigation/STIM_001.jpg
1547.96	2.952	incorrect	navigation	Trial3	navigation/STIM_001.jpg
1552.977	2.741	correct	navigation	Trial3	navigation/STIM_001.jpg
1558.35	3.579	correct	navigation	Trial3	navigation/STIM_001.jpg
1565.274	3.093	correct	navigation	Trial3	navigation/STIM_001.jpg
1570.668	2.354	incorrect	navigation	Trial3	navigation/STIM_002.jpg
1576.627	1.747	correct	navigation	Trial3	navigation/STIM_002.jpg
1581.445	2.66	correct	navigation	Trial3	navigation/STIM_002.jpg
1586.253	2.868	correct	navigation	Trial3	navigation/STIM_002.jpg
1591.274	1.62	incorrect	navigation	Trial3	navigation/STIM_002.jpg
1596.059	3.197	correct	navigation	Trial3	navigation/STIM_002.jpg
1602.45	2.335	correct	navigation	Trial3	navigation/STIM_003.jpg
1608.738	2.155	correct	navigation	Trial3	navigation/STIM_003.jpg
1613.141	2.118	correct	navigation	Trial3	navigation/STIM_003.jpg
1617.398	3.124	correct	navigation	Trial3	navigation/STIM_003.jpg
1624.386	2.244	correct	navigation	Trial3	navigation/STIM_003.jpg
1630.03	2.224	correct	navigation	Trial3	navigation/STIM_003.jpg
1635.326	2.854	correct	navigation	Trial3	navigation/STIM_004.jpg
1641.129	2.08	incorrect	navigation	Trial3	navigation/STIM_004.jpg
1647.09	2.325	correct	navigation	Trial3	navigation/STIM_004.jpg
1652.397	2.955	correct	navigation	Trial3	navigation/STIM_004.jpg
1658.841	3.152	correct	navigation	Trial3	navigation/STIM_004.jpg
1665.804	1.578	correct	navigation	Trial3	navigation/STIM_004.jpg
1671.289	2.954	correct	navigation	Trial3	navigation/STIM_005.jpg
1678.015	2.874	incorrect	navigation	Trial3	navigation/STIM_005.jpg
1684.786	3.893	correct	navigation	Trial3	navigation/STIM_005.jpg
1691.476	2.773	correct	navigation	Trial3	navigation/STIM_005.jpg
1697.928	2.498	correct	navigation	Trial3	navigation/STIM_005.jpg
1702.763	2.16	incorrect	navigation	Trial3	navigation/STIM_005.jpg
1708.755	3.654	incorrect	navigation	Trial3	navigation/STIM_006.jpg
1716.216	3.274	correct	navigation	Trial3	navigation/STIM_006.jpg
1722.601	3.057	correct	navigation	Trial3	navigation/STIM_006.jpg
1728.926	1.59	correct	navigation	Trial3	navigation/STIM_006.jpg
1732.999	3.61	incorrect	navigation	Trial3	navigation/STIM_006.jpg
1739.983	3.151	correct	navigation	Trial3	navigation/STIM_006.jpg
1745.507	1.704	incorrect	navigation	Trial3	navigation/STIM_007.jpg
1750.548	3.917	incorrect	navigation	Trial3	navigation/STIM_007.jpg
1757.424	3.57	correct	navigation	Trial3	navigation/STIM_007.jpg
1763.926	3.071	correct	navigation	Trial3	navigation/STIM_007.jpg
1770.444	2.28	correct	navigation	Trial3	navigation/STIM_007.jpg
1776.502	2.896	correct	navigation	Trial3	navigation/STIM_007.jpg
1782.577	3.298	correct	navigation	Trial3	navigation/STIM_008.jpg
1788.25	2.855	correct	navigation	Trial3	navigation/STIM_008.jpg
1793.641	1.676	correct	navigation	Trial3	navigation/STIM_008.jpg
1797.984	3.22	correct	navigation	Trial3	navigation/STIM_008.jpg
1805.011	2.634	correct	navigation	Trial3	navigation/STIM_008.jpg
1811.007	2.183	correct	navigation	Trial3	navigation/STIM_008.jpg
1816.132	3.196	incorrect	navigation	Trial3	navigation/STIM_009.jpg
1821.43	2.266	correct	navigation	Trial3	navigation/STIM_009.jpg
1826.947	2.877	correct	navigation	Trial3	navigation/STIM_009.jpg
1832.961	3.239	correct	navigation	Trial3	navigation/STIM_009.jpg
1839.279	2.749	correct	navigation	Trial3	navigation/STIM_009.jpg
1844.479	3.748	correct	navigation	Trial3	navigation/STIM_009.jpg
1851.154	2.929	incorrect	navigation	Trial3	navigation/STIM_010.jpg
1857.926	2.593	correct	navigation	Trial3	navigation/STIM_010.jpg
1862.542	2.953	correct	navigation	Trial3	navigation/STIM_010.jpg
1868.293	2.391	correct	navigation	Trial3	navigation/STIM_010.jpg
1872.826	2.41	correct	navigation	Trial3	navigation/STIM_010.jpg
1878.258	3.67	correct	navigation	Trial3	navigation/STIM_010.jpg
1885.757	3.137	correct	navigation	Trial3	navigation/STIM_011.jpg
1892.794	3.307	correct	navigation	Trial3	navigation/STIM_011.jpg
1898.216	3.747	correct	navigation	Trial3	navigation/STIM_011.jpg
1905.462	2.303	correct	navigation	Trial3	navigation/STIM_011.jpg
1910.379	3.024	correct	navigation	Trial3	navigation/STIM_011.jpg
1916.133	2.018	incorrect	navigation	Trial3	navigation/STIM_011.jpg
1920.344	1.389	incorrect	pointing	Trial3	pointing/STIM_000.jpg
1925.363	1.64	correct	pointing	Trial3	pointing/STIM_000.jpg
1930.886	1.469	correct	pointing	Trial3	pointing/STIM_000.jpg
1935.595	1.245	correct	pointing	Trial3	pointing/STIM_000.jpg
1939.235	1.635	correct	pointing	Trial3	pointing/STIM_000.jpg
1944.573	1.432	correct	pointing	Trial3	pointing/STIM_000.jpg
1948.464	1.113	correct	pointing	Trial3	pointing/STIM_001.jpg
1952.23	1.607	correct	pointing	Trial3	pointing/STIM_001.jpg
1955.917	1.64	correct	pointing	Trial3	pointing/STIM_001.jpg
1959.854	1.616	correct	pointing	Trial3	pointing/STIM_001.jpg
1964.862	0.984	correct	pointing	Trial3	pointing/STIM_001.jpg
1968.775	1.328	correct	pointing	Trial3	pointing/STIM_001.jpg
1972.166	1.056	incorrect	pointing	Trial3	pointing/STIM_002.jpg
1975.432	0.928	correct	pointing	Trial3	pointing/STIM_002.jpg
1978.776	1.643	correct	pointing	Trial3	pointing/STIM_002.jpg
1982.802	1.207	correct	pointing	Trial3	pointing/STIM_002.jpg
1987.002	1.38	correct	pointing	Trial3	pointing/STIM_002.jpg
1992.272	1.525	correct	pointing	Trial3	pointing/STIM_002.jpg
1997.537	1.277	correct	pointing	Trial3	pointing/STIM_003.jpg
2001.806	1.161	correct	pointing	Trial3	pointing/STIM_003.jpg
2005.979	1.234	correct	pointing	Trial3	pointing/STIM_003.jpg
2009.529	1.131	correct	pointing	Trial3	pointing/STIM_003.jpg
2012.84	1.477	correct	pointing	Trial3	pointing/STIM_003.jpg
2016.717	1.25	correct	pointing	Trial3	pointing/STIM_003.jpg
2021.472	1.584	correct	pointing	Trial3	pointing/STIM_004.jpg
2026.31	0.958	incorrect	pointing	Trial3	pointing/STIM_004.jpg
2030.372	0.951	correct	pointing	Trial3	pointing/STIM_004.jpg
2033.817	1.54	correct	pointing	Trial3	pointing/STIM_004.jpg
2037.512	1.593	correct	pointing	Trial3	pointing/STIM_004.jpg
2041.622	1.206	correct	pointing	Trial3	pointing/STIM_004.jpg
2045.569	1.477	correct	pointing	Trial3	pointing/STIM_005.jpg
2050.381	1.672	correct	pointing	Trial3	pointing/STIM_005.jpg
2054.464	0.899	correct	pointing	Trial3	pointing/STIM_005.jpg
2058.642	1.678	correct	pointing	Trial3	pointing/STIM_005.jpg
2063.099	1.549	correct	pointing	Trial3	pointing/STIM_005.jpg
2068.199	1.021	correct	pointing	Trial3	pointing/STIM_005.jpg
2072.094	1.615	correct	pointing	Trial3	pointing/STIM_006.jpg
2077.63	1.033	correct	pointing	Trial3	pointing/STIM_006.jpg
2081.494	1.131	correct	pointing	Trial3	pointing/STIM_006.jpg
2085.506	1.573	correct	pointing	Trial3	pointing/STIM_006.jpg
2090.056	1.05	correct	pointing	Trial3	pointing/STIM_006.jpg
2093.39	0.915	correct	pointing	Trial3	pointing/STIM_006.jpg
2097.603	1.159	correct	pointing	Trial3	pointing/STIM_007.jpg
2100.783	1.617	correct	pointing	Trial3	pointing/STIM_007.jpg
2105.986	1.162	correct	pointing	Trial3	pointing/STIM_007.jpg
2109.308	1.027	correct	pointing	Trial3	pointing/STIM_007.jpg
2113.283	1.28	correct	pointing	Trial3	pointing/STIM_007.jpg
2116.587	1.04	correct	pointing	Trial3	pointing/STIM_007.jpg
2120.741	1.499	correct	pointing	Trial3	pointing/STIM_008.jpg
2125.601	1.535	correct	pointing	Trial3	pointing/STIM_008.jpg
2129.331	1.496	correct	pointing	Trial3	pointing/STIM_008.jpg
2134.79	1.095	correct	pointing	Trial3	pointing/STIM_008.jpg
2139.609	1.334	correct	pointing	Trial3	pointing/STIM_008.jpg
2143.757	1.162	correct	pointing	Trial3	pointing/STIM_008.jpg
2147.567	1.659	correct	pointing	Trial3	pointing/STIM_009.jpg
2152.075	1.423	correct	pointing	Trial3	pointing/STIM_009.jpg
2155.819	1.082	correct	pointing	Trial3	pointing/STIM_009.jpg
2159.168	1.094	correct	pointing	Trial3	pointing/STIM_009.jpg
2162.803	1.007	correct	pointing	Trial3	pointing/STIM_009.jpg
2167.467	1.445	correct	pointing	Trial3	pointing/STIM_009.jpg
2172.597	0.929	correct	pointing	Trial3	pointing/STIM_010.jpg
2175.878	1.661	correct	pointing	Trial3	pointing/STIM_010.jpg
2180.958	1.098	correct	pointing	Trial3	pointing/STIM_010.jpg
2184.768	1.12	incorrect	pointing	Trial3	pointing/STIM_010.jpg
2188.542	1.303	correct	pointing	Trial3	pointing/STIM_010.jpg
2192.325	1.286	correct	pointing	Trial3	pointing/STIM_010.jpg
2196.072	1.085	correct	pointing	Trial3	pointing/STIM_011.jpg
2200.645	1.341	incorrect	pointing	Trial3	pointing/STIM_011.jpg
2205.774	1.131	correct	pointing	Trial3	pointing/STIM_011.jpg
2209.64	1.604	correct	pointing	Trial3	pointing/STIM_011.jpg
2214.309	1.646	correct	pointing	Trial3	pointing/STIM_011.jpg
2219.093	1.114	correct	pointing	Trial3	pointing/STIM_011.jpg
