onset	duration	response_time_ms	trial_type	learning_stage	stimulus	response_port
0.0	2.497	2496.9	regulate	Run1	regulate/STIM_000.jpg	99
5.399	2.186	2186.3	regulate	Run1	regulate/STIM_000.jpg	99
11.111	1.573	1572.8	regulate	Run1	regulate/STIM_000.jpg	100
15.929	1.832	1831.5	regulate	Run1	regulate/STIM_000.jpg	99
20.376	2.681	2680.8	regulate	Run1	regulate/STIM_001.jpg	99
26.065	3.054	3053.9	regulate	Run1	regulate/STIM_001.jpg	100
32.456	2.467	2467.1	regulate	Run1	regulate/STIM_001.jpg	99
37.755	2.224	2224.5	regulate	Run1	regulate/STIM_001.jpg	100
42.293	1.901	1901.0	regulate	Run1	regulate/STIM_002.jpg	99
47.474	1.451	1451.1	regulate	Run1	regulate/STIM_002.jpg	100
51.619	1.758	1757.7	regulate	Run1	regulate/STIM_002.jpg	99
57.255	2.091	2091.4	regulate	Run1	regulate/STIM_002.jpg	100
62.923	2.229	2228.7	regulate	Run1	regulate/STIM_003.jpg	100
69.031	1.483	1483.4	regulate	Run1	regulate/STIM_003.jpg	100
73.009	1.797	1797.3	regulate	Run1	regulate/STIM_003.jpg	99
77.011	2.273	2272.6	regulate	Run1	regulate/STIM_003.jpg	99
81.476	1.876	1876.2	regulate	Run1	regulate/STIM_004.jpg	100
85.748	2.646	2646.3	regulate	Run1	regulate/STIM_004.jpg	100
92.316	2.714	2714.3	regulate	Run1	regulate/STIM_004.jpg	99
97.754	2.929	2929.1	regulate	Run1	regulate/STIM_004.jpg	100
103.393	1.966	1966.4	regulate	Run1	regulate/STIM_005.jpg	99
107.463	1.714	1714.2	regulate	Run1	regulate/STIM_005.jpg	99
112.026	1.349	1348.8	regulate	Run1	regulate/STIM_005.jpg	100
116.094	2.878	2877.5	regulate	Run1	regulate/STIM_005.jpg	100
122.144	1.55	1549.9	regulate	Run1	regulate/STIM_006.jpg	99
127.23	2.15	2149.5	regulate	Run1	regulate/STIM_006.jpg	99
132.414	3.09	3090.3	regulate	Run1	regulate/STIM_006.jpg	99
137.888	1.26	1260.4	regulate	Run1	regulate/STIM_006.jpg	99
141.217	2.741	2741.4	regulate	Run1	regulate/STIM_007.jpg	100
147.285	1.99	1990.0	regulate	Run1	regulate/STIM_007.jpg	99
152.487	1.419	1419.1	regulate	Run1	regulate/STIM_007.jpg	99
157.053	2.699	2698.7	regulate	Run1	regulate/STIM_007.jpg	99
163.168	3.096	3095.5	regulate	Run1	regulate/STIM_008.jpg	99
169.122	1.786	1786.4	regulate	Run1	regulate/STIM_008.jpg	99
173.745	2.907	2906.7	regulate	Run1	regulate/STIM_008.jpg	99
180.558	2.232	2232.1	regulate	Run1	regulate/STIM_008.jpg	99
186.771	2.048	2047.8	regulate	Run1	regulate/STIM_009.jpg	100
191.441	2.589	2589.1	regulate	Run1	regulate/STIM_009.jpg	100
196.712	1.649	1648.8	regulate	Run1	regulate/STIM_009.jpg	100
201.418	2.758	2758.5	regulate	Run1	regulate/STIM_009.jpg	100
206.8	1.708	1708.1	regulate	Run1	regulate/STIM_010.jpg	100
211.048	3.008	3008.5	regulate	Run1	regulate/STIM_010.jpg	100
217.287	2.267	2267.3	regulate	Run1	regulate/STIM_010.jpg	99
222.529	1.617	1616.6	regulate	Run1	regulate/STIM_010.jpg	100
227.28	2.106	2106.4	regulate	Run1	regulate/STIM_011.jpg	100
232.243	2.993	2992.8	regulate	Run1	regulate/STIM_011.jpg	99
238.418	2.5	2500.4	regulate	Run1	regulate/STIM_011.jpg	100
244.562	2.619	2619.0	regulate	Run1	regulate/STIM_011.jpg	100
250.165	2.217	2216.6	regulate	Run1	regulate/STIM_012.jpg	100
256.144	2.213	2213.2	regulate	Run1	regulate/STIM_012.jpg	99
261.935	1.374	1373.8	regulate	Run1	regulate/STIM_012.jpg	100
266.59	1.71	1709.7	regulate	Run1	regulate/STIM_012.jpg	100
270.588	2.063	2063.0	regulate	Run1	regulate/STIM_013.jpg	99
275.687	2.883	2883.4	regulate	Run1	regulate/STIM_013.jpg	99
281.476	2.378	2377.5	regulate	Run1	regulate/STIM_013.jpg	99
286.657	1.75	1750.1	regulate	Run1	regulate/STIM_013.jpg	100
290.83	2.401	2401.0	regulate	Run1	regulate/STIM_014.jpg	99
295.262	2.417	2417.1	regulate	Run1	regulate/STIM_014.jpg	100
300.925	2.887	2887.3	regulate	Run1	regulate/STIM_014.jpg	99
306.371	2.794	2794.0	regulate	Run1	regulate/STIM_014.jpg	100
313.108	1.919	1918.8	regulate	Run1	regulate/STIM_015.jpg	100
318.714	2.441	2441.3	regulate	Run1	regulate/STIM_015.jpg	99
323.842	2.158	2158.1	regulate	Run1	regulate/STIM_015.jpg	99
328.949	2.508	2508.4	regulate	Run1	regulate/STIM_015.jpg	100
334.728	2.668	2668.2	regulate	Run1	regulate/STIM_016.jpg	99
340.388	2.737	2737.0	regulate	Run1	regulate/STIM_016.jpg	100
346.887	1.692	1691.5	regulate	Run1	regulate/STIM_016.jpg	100
350.61	2.476	2476.2	regulate	Run1	regulate/STIM_016.jpg	100
355.127	3.247	3247.2	regulate	Run1	regulate/STIM_017.jpg	100
361.84	2.026	2026.0	regulate	Run1	regulate/STIM_017.jpg	100
367.46	2.458	2458.1	regulate	Run1	regulate/STIM_017.jpg	99
373.323	2.077	2076.9	regulate	Run1	regulate/STIM_017.jpg	100
377.635	1.838	1838.1	regulate	Run1	regulate/STIM_018.jpg	100
381.947	1.569	1568.6	regulate	Run1	regulate/STIM_018.jpg	99
386.18	1.945	1944.8	regulate	Run1	regulate/STIM_018.jpg	100
391.943	1.289	1288.8	regulate	Run1	regulate/STIM_018.jpg	99
396.813	2.51	2509.8	regulate	Run1	regulate/STIM_019.jpg	100
402.988	1.712	1712.1	regulate	Run1	regulate/STIM_019.jpg	99
408.45	1.42	1420.0	regulate	Run1	regulate/STIM_019.jpg	100
412.877	2.755	2754.8	regulate	Run1	regulate/STIM_019.jpg	99
418.794	2.873	2873.3	regulate	Run1	regulate/STIM_020.jpg	99
424.938	2.43	2430.3	regulate	Run1	regulate/STIM_020.jpg	99
429.853	2.695	2695.4	regulate	Run1	regulate/STIM_020.jpg	99
436.258	2.561	2561.2	regulate	Run1	regulate/STIM_020.jpg	100
441.82	2.594	2593.8	regulate	Run1	regulate/STIM_021.jpg	99
447.438	1.874	1873.8	regulate	Run1	regulate/STIM_021.jpg	99
451.693	2.451	2451.0	regulate	Run1	regulate/STIM_021.jpg	99
457.135	1.295	1295.3	regulate	Run1	regulate/STIM_021.jpg	100
461.614	2.904	2903.5	regulate	Run1	regulate/STIM_022.jpg	99
468.169	1.464	1464.5	regulate	Run1	regulate/STIM_022.jpg	100
471.735	1.342	1342.5	regulate	Run1	regulate/STIM_022.jpg	100
475.854	2.641	2641.3	regulate	Run1	regulate/STIM_022.jpg	99
482.376	1.58	1579.8	regulate	Run1	regulate/STIM_023.jpg	99
486.607	3.212	3211.6	regulate	Run1	regulate/STIM_023.jpg	99
492.221	1.509	1508.9	regulate	Run1	regulate/STIM_023.jpg	99
496.954	1.682	1682.1	regulate	Run1	regulate/STIM_023.jpg	100
500.827	2.781	2780.7	regulate	Run1	regulate/STIM_024.jpg	99
507.631	2.044	2044.2	regulate	Run1	regulate/STIM_024.jpg	99
511.78	2.567	2566.8	regulate	Run1	regulate/STIM_024.jpg	100
518.206	2.116	2116.4	regulate	Run1	regulate/STIM_024.jpg	100
523.567	3.258	3258.0	regulate	Run1	regulate/STIM_025.jpg	99
530.318	2.712	2711.6	regulate	Run1	regulate/STIM_025.jpg	100
537.01	2.345	2344.8	regulate	Run1	regulate/STIM_025.jpg	99
541.417	2.542	2542.4	regulate	Run1	regulate/STIM_025.jpg	100
546.017	2.333	2332.9	regulate	Run1	regulate/STIM_026.jpg	100
551.945	3.014	3013.5	regulate	Run1	regulate/STIM_026.jpg	99
558.878	2.504	2503.9	regulate	Run1	regulate/STIM_026.jpg	100
564.406	1.709	1708.6	regulate	Run1	regulate/STIM_026.jpg	99
569.979	2.759	2759.0	regulate	Run1	regulate/STIM_027.jpg	99
576.088	1.664	1663.6	regulate	Run1	regulate/STIM_027.jpg	99
579.812	1.706	1705.8	regulate	Run1	regulate/STIM_027.jpg	99
584.675	1.688	1687.8	regulate	Run1	regulate/STIM_027.jpg	99
589.302	3.424	3423.9	regulate	Run1	regulate/STIM_028.jpg	99
595.296	2.579	2578.7	regulate	Run1	regulate/STIM_028.jpg	100
600.337	2.533	2532.6	regulate	Run1	regulate/STIM_028.jpg	100
605.591	1.927	1927.2	regulate	Run1	regulate/STIM_028.jpg	99
611.148	2.404	2404.2	regulate	Run1	regulate/STIM_029.jpg	99
616.338	1.76	1759.6	regulate	Run1	regulate/STIM_029.jpg	99
620.458	2.174	2173.9	regulate	Run1	regulate/STIM_029.jpg	100
626.486	1.779	1779.4	regulate	Run1	regulate/STIM_029.jpg	99
631.163	1.417	1417.3	observe	Run1	observe/STIM_000.jpg	100
635.414	0.898	898.5	observe	Run1	observe/STIM_000.jpg	100
639.261	1.354	1354.5	observe	Run1	observe/STIM_000.jpg	99
644.005	0.999	998.7	observe	Run1	observe/STIM_000.jpg	100
647.746	0.945	944.8	observe	Run1	observe/STIM_001.jpg	100
652.485	1.196	1195.6	observe	Run1	observe/STIM_001.jpg	99
656.798	0.816	815.6	observe	Run1	observe/STIM_001.jpg	99
660.671	0.994	994.1	observe	Run1	observe/STIM_001.jpg	99
664.059	1.047	1047.4	observe	Run1	observe/STIM_002.jpg	99
668.614	1.159	1159.2	observe	Run1	observe/STIM_002.jpg	100
673.119	1.177	1177.3	observe	Run1	observe/STIM_002.jpg	100
678.23	1.132	1132.5	observe	Run1	observe/STIM_002.jpg	100
683.095	1.555	1555.2	observe	Run1	observe/STIM_003.jpg	99
687.948	1.511	1510.9	observe	Run1	observe/STIM_003.jpg	99
692.787	1.23	1229.9	observe	Run1	observe/STIM_003.jpg	99
697.524	1.374	1374.2	observe	Run1	observe/STIM_003.jpg	100
701.01	0.895	894.9	observe	Run1	observe/STIM_004.jpg	99
705.197	1.178	1177.5	observe	Run1	observe/STIM_004.jpg	99
708.41	1.14	1139.7	observe	Run1	observe/STIM_004.jpg	99
713.488	1.315	1315.2	observe	Run1	observe/STIM_004.jpg	99
718.114	1.426	1426.0	observe	Run1	observe/STIM_005.jpg	99
723.091	1.311	1311.4	observe	Run1	observe/STIM_005.jpg	100
726.757	0.844	844.3	observe	Run1	observe/STIM_005.jpg	100
731.142	0.981	981.2	observe	Run1	observe/STIM_005.jpg	99
735.997	1.062	1062.4	observe	Run1	observe/STIM_006.jpg	99
740.297	0.96	960.1	observe	Run1	observe/STIM_006.jpg	99
744.489	1.12	1120.3	observe	Run1	observe/STIM_006.jpg	100
748.459	1.093	1093.2	observe	Run1	observe/STIM_006.jpg	100
753.072	1.416	1415.6	observe	Run1	observe/STIM_007.jpg	100
758.496	1.537	1537.3	observe	Run1	observe/STIM_007.jpg	100
763.768	1.285	1284.7	observe	Run1	observe/STIM_007.jpg	99
768.149	0.943	943.3	observe	Run1	observe/STIM_007.jpg	99
772.846	0.94	940.2	observe	Run1	observe/STIM_008.jpg	99
777.587	0.879	878.8	observe	Run1	observe/STIM_008.jpg	99
782.458	1.424	1424.1	observe	Run1	observe/STIM_008.jpg	100
787.669	0.989	989.0	observe	Run1	observe/STIM_008.jpg	99
792.097	1.384	1383.6	observe	Run1	observe/STIM_009.jpg	99
796.758	1.564	1564.4	observe	Run1	observe/STIM_009.jpg	100
800.374	1.398	1398.5	observe	Run1	observe/STIM_009.jpg	99
805.353	0.818	818.0	observe	Run1	observe/STIM_009.jpg	99
809.243	1.248	1248.3	observe	Run1	observe/STIM_010.jpg	99
813.078	1.394	1393.8	observe	Run1	observe/STIM_010.jpg	100
816.817	1.346	1346.3	observe	Run1	observe/STIM_010.jpg	99
821.467	0.895	894.9	observe	Run1	observe/STIM_010.jpg	100
824.377	1.135	1135.1	observe	Run1	observe/STIM_011.jpg	99
827.789	1.098	1098.2	observe	Run1	observe/STIM_011.jpg	99
832.394	1.35	1349.8	observe	Run1	observe/STIM_011.jpg	99
837.126	1.561	1561.3	observe	Run1	observe/STIM_011.jpg	99
840.807	0.902	902.3	observe	Run1	observe/STIM_012.jpg	100
844.261	1.467	1466.9	observe	Run1	observe/STIM_012.jpg	99
848.475	0.988	987.5	observe	Run1	observe/STIM_012.jpg	100
853.11	1.084	1084.4	observe	Run1	observe/STIM_012.jpg	99
856.536	1.334	1334.2	observe	Run1	observe/STIM_013.jpg	99
860.234	1.525	1525.1	observe	Run1	observe/STIM_013.jpg	100
864.895	1.512	1512.5	observe	Run1	observe/STIM_013.jpg	100
869.505	1.552	1552.2	observe	Run1	observe/STIM_013.jpg	99
873.727	1.526	1526.5	observe	Run1	observe/STIM_014.jpg	100
878.627	1.014	1013.5	observe	Run1	observe/STIM_014.jpg	100
882.297	1.16	1160.2	observe	Run1	observe/STIM_014.jpg	100
885.662	1.039	1038.8	observe	Run1	observe/STIM_014.jpg	100
888.972	1.039	1039.2	observe	Run1	observe/STIM_015.jpg	100
893.913	1.308	1307.9	observe	Run1	observe/STIM_015.jpg	100
898.833	0.974	973.6	observe	Run1	observe/STIM_015.jpg	100
903.439	0.874	874.5	observe	Run1	observe/STIM_015.jpg	99
906.765	0.962	961.7	observe	Run1	observe/STIM_016.jpg	99
910.734	1.105	1104.6	observe	Run1	observe/STIM_016.jpg	100
914.1	0.901	901.0	observe	Run1	observe/STIM_016.jpg	99
918.48	1.204	1203.7	observe	Run1	observe/STIM_016.jpg	100
921.955	0.835	834.6	observe	Run1	observe/STIM_017.jpg	99
926.238	0.997	997.3	observe	Run1	observe/STIM_017.jpg	99
929.994	1.271	1271.1	observe	Run1	observe/STIM_017.jpg	100
933.481	1.431	1431.1	observe	Run1	observe/STIM_017.jpg	100
937.189	0.976	976.2	observe	Run1	observe/STIM_018.jpg	100
941.832	1.157	1157.4	observe	Run1	observe/STIM_018.jpg	99
946.814	1.441	1441.4	observe	Run1	observe/STIM_018.jpg	100
950.88	1.501	1501.2	observe	Run1	observe/STIM_018.jpg	99
956.255	1.314	1314.0	observe	Run1	observe/STIM_019.jpg	99
960.194	1.569	1568.9	observe	Run1	observe/STIM_019.jpg	99
965.723	1.271	1270.9	observe	Run1	observe/STIM_019.jpg	100
970.181	1.076	1075.9	observe	Run1	observe/STIM_019.jpg	100
974.028	2.018	2017.9	regulate	Run2	regulate/STIM_000.jpg	100
978.974	1.66	1660.0	regulate	Run2	regulate/STIM_000.jpg	100
983.408	1.934	1933.5	regulate	Run2	regulate/STIM_000.jpg	100
989.052	1.356	1356.4	regulate	Run2	regulate/STIM_000.jpg	100
994.151	2.455	2454.8	regulate	Run2	regulate/STIM_001.jpg	99
1000.599	2.458	2458.3	regulate	Run2	regulate/STIM_001.jpg	99
1006.891	2.082	2081.8	regulate	Run2	regulate/STIM_001.jpg	100
1011.444	1.896	1895.8	regulate	Run2	regulate/STIM_001.jpg	100
1015.638	2.393	2392.9	regulate	Run2	regulate/STIM_002.jpg	99
1020.62	1.758	1757.9	regulate	Run2	regulate/STIM_002.jpg	99
1024.829	1.715	1714.9	regulate	Run2	regulate/STIM_002.jpg	99
1029.563	1.162	1161.6	regulate	Run2	regulate/STIM_002.jpg	100
1034.337	1.737	1736.8	regulate	Run2	regulate/STIM_003.jpg	99
1038.128	2.529	2529.1	regulate	Run2	regulate/STIM_003.jpg	100
1043.298	1.547	1546.7	regulate	Run2	regulate/STIM_003.jpg	100
1047.35	1.764	1764.1	regulate	Run2	regulate/STIM_003.jpg	100
1051.191	1.936	1936.4	regulate	Run2	regulate/STIM_004.jpg	100
1055.568	1.453	1452.8	regulate	Run2	regulate/STIM_004.jpg	99
1060.871	1.302	1301.5	regulate	Run2	regulate/STIM_004.jpg	100
1064.627	1.969	1968.9	regulate	Run2	regulate/STIM_004.jpg	100
1068.763	2.423	2423.4	regulate	Run2	regulate/STIM_005.jpg	99
1075.179	2.11	2109.8	regulate	Run2	regulate/STIM_005.jpg	99
1079.524	2.143	2142.9	regulate	Run2	regulate/STIM_005.jpg	100
1085.68	1.841	1841.4	regulate	Run2	regulate/STIM_005.jpg	99
1090.383	2.865	2864.9	regulate	Run2	regulate/STIM_006.jpg	99
1097.017	2.143	2142.7	regulate	Run2	regulate/STIM_006.jpg	100
1101.624	1.731	1730.8	regulate	Run2	regulate/STIM_006.jpg	100
1107.185	1.245	1244.7	regulate	Run2	regulate/STIM_006.jpg	100
1111.557	1.455	1455.0	regulate	Run2	regulate/STIM_007.jpg	100
1115.992	1.783	1783.0	regulate	Run2	regulate/STIM_007.jpg	99
1121.216	1.887	1887.0	regulate	Run2	regulate/STIM_007.jpg	99
1125.561	2.172	2172.2	regulate	Run2	regulate/STIM_007.jpg	100
1131.162	2.896	2896.5	regulate	Run2	regulate/STIM_008.jpg	100
1136.295	2.276	2276.2	regulate	Run2	regulate/STIM_008.jpg	99
1142.328	1.643	1642.7	regulate	Run2	regulate/STIM_008.jpg	100
1146.18	1.228	1228.3	regulate	Run2	regulate/STIM_008.jpg	100
1149.752	1.958	1957.5	regulate	Run2	regulate/STIM_009.jpg	100
1154.778	1.352	1352.5	regulate	Run2	regulate/STIM_009.jpg	99
1158.461	1.716	1716.3	regulate	Run2	regulate/STIM_009.jpg	99
1164.148	1.039	1039.1	regulate	Run2	regulate/STIM_009.jpg	99
1168.375	2.698	2698.4	regulate	Run2	regulate/STIM_010.jpg	100
1174.578	1.504	1504.5	regulate	Run2	regulate/STIM_010.jpg	100
1179.586	1.714	1714.2	regulate	Run2	regulate/STIM_010.jpg	99
1184.845	1.579	1578.6	regulate	Run2	regulate/STIM_010.jpg	99
1189.686	1.8	1799.6	regulate	Run2	regulate/STIM_011.jpg	100
1193.519	2.714	2714.4	regulate	Run2	regulate/STIM_011.jpg	100
1199.428	1.555	1555.1	regulate	Run2	regulate/STIM_011.jpg	100
1203.793	1.643	1643.0	regulate	Run2	regulate/STIM_011.jpg	99
1209.298	2.28	2280.2	regulate	Run2	regulate/STIM_012.jpg	100
1213.631	1.793	1793.1	regulate	Run2	regulate/STIM_012.jpg	100
1217.579	1.948	1948.3	regulate	Run2	regulate/STIM_012.jpg	99
1222.497	1.479	1479.4	regulate	Run2	regulate/STIM_012.jpg	100
1227.137	1.676	1676.1	regulate	Run2	regulate/STIM_013.jpg	100
1231.786	2.356	2356.1	regulate	Run2	regulate/STIM_013.jpg	99
1237.874	2.079	2079.2	regulate	Run2	regulate/STIM_013.jpg	99
1242.38	1.126	1126.2	regulate	Run2	regulate/STIM_013.jpg	100
1247.217	1.821	1820.8	regulate	Run2	regulate/STIM_014.jpg	99
1252.131	2.144	2144.2	regulate	Run2	regulate/STIM_014.jpg	100
1258.132	2.297	2297.3	regulate	Run2	regulate/STIM_014.jpg	100
1264.268	1.96	1959.9	regulate	Run2	regulate/STIM_014.jpg	100
1268.27	2.609	2608.7	regulate	Run2	regulate/STIM_015.jpg	100
1272.941	1.666	1665.9	regulate	Run2	regulate/STIM_015.jpg	100
1277.543	2.583	2582.8	regulate	Run2	regulate/STIM_015.jpg	99
1283.019	2.245	2245.3	regulate	Run2	regulate/STIM_015.jpg	99
1289.091	2.153	2153.0	regulate	Run2	regulate/STIM_016.jpg	99
1294.568	2.42	2419.7	regulate	Run2	regulate/STIM_016.jpg	100
1300.195	2.29	2289.5	regulate	Run2	regulate/STIM_016.jpg	100
1305.825	1.358	1357.6	regulate	Run2	regulate/STIM_016.jpg	100
1309.301	1.541	1541.3	regulate	Run2	regulate/STIM_017.jpg	100
1313.487	2.555	2554.7	regulate	Run2	regulate/STIM_017.jpg	99
1319.936	1.172	1171.9	regulate	Run2	regulate/STIM_017.jpg	99
1324.883	2.025	2025.4	regulate	Run2	regulate/STIM_017.jpg	99
1330.22	1.936	1935.7	regulate	Run2	regulate/STIM_018.jpg	99
1335.869	2.55	2550.0	regulate	Run2	regulate/STIM_018.jpg	100
1341.527	1.171	1171.3	regulate	Run2	regulate/STIM_018.jpg	99
1346.437	2.282	2281.8	regulate	Run2	regulate/STIM_018.jpg	99
1352.084	2.603	2603.3	regulate	Run2	regulate/STIM_019.jpg	100
1357.226	1.917	1916.7	regulate	Run2	regulate/STIM_019.jpg	100
1361.326	2.399	2398.6	regulate	Run2	regulate/STIM_019.jpg	99
1366.482	1.245	1244.9	regulate	Run2	regulate/STIM_019.jpg	99
1369.979	1.576	1576.4	regulate	Run2	regulate/STIM_020.jpg	99
1375.393	1.809	1808.9	regulate	Run2	regulate/STIM_020.jpg	99
1380.492	1.3	1299.7	regulate	Run2	regulate/STIM_020.jpg	99
1384.6	1.288	1288.1	regulate	Run2	regulate/STIM_020.jpg	99
1388.941	1.29	1289.8	regulate	Run2	regulate/STIM_021.jpg	99
1393.698	2.237	2237.3	regulate	Run2	regulate/STIM_021.jpg	99
1398.183	1.78	1779.7	regulate	Run2	regulate/STIM_021.jpg	99
1402.216	1.477	1476.8	regulate	Run2	regulate/STIM_021.jpg	100
1407.381	1.844	1843.7	regulate	Run2	regulate/STIM_022.jpg	100
1411.299	2.737	2737.2	regulate	Run2	regulate/STIM_022.jpg	100
1417.194	2.267	2266.6	regulate	Run2	regulate/STIM_022.jpg	99
1423.139	1.429	1429.4	regulate	Run2	regulate/STIM_022.jpg	100
1427.108	2.261	2260.9	regulate	Run2	regulate/STIM_023.jpg	100
1432.529	1.879	1879.1	regulate	Run2	regulate/STIM_023.jpg	99
1436.933	1.291	1290.6	regulate	Run2	regulate/STIM_023.jpg	99
1441.012	1.432	1431.8	regulate	Run2	regulate/STIM_023.jpg	100
1446.156	1.304	1303.5	regulate	Run2	regulate/STIM_024.jpg	100
1450.03	2.302	2301.7	regulate	Run2	regulate/STIM_024.jpg	100
1455.671	1.476	1475.9	regulate	Run2	regulate/STIM_024.jpg	99
1459.803	2.068	2068.3	regulate	Run2	regulate/STIM_024.jpg	99
1465.41	1.439	1438.7	regulate	Run2	regulate/STIM_025.jpg	100
1470.573	2.488	2488.5	regulate	Run2	regulate/STIM_025.jpg	100
1475.091	1.459	1459.1	regulate	Run2	regulate/STIM_025.jpg	99
1479.233	2.248	2247.8	regulate	Run2	regulate/STIM_025.jpg	99
1483.882	2.372	2371.6	regulate	Run2	regulate/STIM_026.jpg	99
1489.467	1.597	1597.3	regulate	Run2	regulate/STIM_026.jpg	99
1494.5	1.471	1471.4	regulate	Run2	regulate/STIM_026.jpg	100
1498.426	1.907	1907.2	regulate	Run2	regulate/STIM_026.jpg	99
1503.126	2.911	2910.6	regulate	Run2	regulate/STIM_027.jpg	100
1508.784	1.971	1970.9	regulate	Run2	regulate/STIM_027.jpg	99
1514.457	1.476	1475.7	regulate	Run2	regulate/STIM_027.jpg	99
1519.323	2.332	2331.6	regulate	Run2	regulate/STIM_027.jpg	100
1525.473	2.232	2232.2	regulate	Run2	regulate/STIM_028.jpg	99
1530.541	2.465	2465.2	regulate	Run2	regulate/STIM_028.jpg	99
1535.547	2.258	2258.5	regulate	Run2	regulate/STIM_028.jpg	100
1540.147	1.446	1446.2	regulate	Run2	regulate/STIM_028.jpg	99
1543.756	1.498	1498.0	regulate	Run2	regulate/STIM_029.jpg	99
1547.427	2.378	2378.4	regulate	Run2	regulate/STIM_029.jpg	99
1553.299	2.454	2454.4	regulate	Run2	regulate/STIM_029.jpg	100
1558.225	1.885	1885.0	regulate	Run2	regulate/STIM_029.jpg	100
1563.306	1.308	1308.0	observe	Run2	observe/STIM_000.jpg	99
1568.427	1.467	1467.2	observe	Run2	observe/STIM_000.jpg	99
1573.725	1.04	1039.7	observe	Run2	observe/STIM_000.jpg	100
1578.242	1.476	1476.1	observe	Run2	observe/STIM_000.jpg	100
1583.083	0.792	792.2	observe	Run2	observe/STIM_001.jpg	99
1587.007	1.083	1083.4	observe	Run2	observe/STIM_001.jpg	100
1592.077	1.431	1430.7	observe	Run2	observe/STIM_001.jpg	99
1596.367	1.035	1034.8	observe	Run2	observe/STIM_001.jpg	99
1600.692	0.902	902.3	observe	Run2	observe/STIM_002.jpg	99
1605.022	1.051	1050.6	observe	Run2	observe/STIM_002.jpg	99
1608.615	0.842	841.7	observe	Run2	observe/STIM_002.jpg	99
1612.459	1.3	1300.4	observe	Run2	observe/STIM_002.jpg	99
1617.544	1.365	1364.6	observe	Run2	observe/STIM_003.jpg	100
1622.088	1.062	1062.2	observe	Run2	observe/STIM_003.jpg	100
1626.569	0.809	808.8	observe	Run2	observe/STIM_003.jpg	99
1629.82	0.919	919.4	observe	Run2	observe/STIM_003.jpg	100
1633.49	1.174	1174.2	observe	Run2	observe/STIM_004.jpg	100
1638.31	0.893	893.0	observe	Run2	observe/STIM_004.jpg	99
1641.943	0.844	844.2	observe	Run2	observe/STIM_004.jpg	99
1645.223	0.935	935.2	observe	Run2	observe/STIM_004.jpg	100
1649.958	0.959	958.7	observe	Run2	observe/STIM_005.jpg	99
1654.657	0.81	809.8	observe	Run2	observe/STIM_005.jpg	99
1658.41	0.847	847.2	observe	Run2	observe/STIM_005.jpg	100
1662.49	0.792	792.1	observe	Run2	observe/STIM_005.jpg	100
1665.894	1.13	1129.6	observe	Run2	observe/STIM_006.jpg	99
1669.55	1.224	1223.6	observe	Run2	observe/STIM_006.jpg	100
1673.614	1.55	1550.0	observe	Run2	observe/STIM_006.jpg	99
1678.601	0.925	925.2	observe	Run2	observe/STIM_006.jpg	100
1683.015	1.165	1164.8	observe	Run2	observe/STIM_007.jpg	99
1686.735	1.351	1350.7	observe	Run2	observe/STIM_007.jpg	100
1690.304	1.544	1544.0	observe	Run2	observe/STIM_007.jpg	100
1694.667	1.04	1040.1	observe	Run2	observe/STIM_007.jpg	99
1699.585	1.581	1580.9	observe	Run2	observe/STIM_008.jpg	100
1704.505	1.259	1259.0	observe	Run2	observe/STIM_008.jpg	100
1709.14	1.474	1473.6	observe	Run2	observe/STIM_008.jpg	100
1713.317	1.238	1237.5	observe	Run2	observe/STIM_008.jpg	100
1718.538	1.397	1397.0	observe	Run2	observe/STIM_009.jpg	99
1723.423	0.83	830.1	observe	Run2	observe/STIM_009.jpg	100
1726.76	0.922	922.3	observe	Run2	observe/STIM_009.jpg	100
1730.496	1.236	1235.6	observe	Run2	observe/STIM_009.jpg	100
1733.875	0.976	976.3	observe	Run2	observe/STIM_010.jpg	100
1737.817	1.514	1513.7	observe	Run2	observe/STIM_010.jpg	100
1742.534	1.507	1507.2	observe	Run2	observe/STIM_010.jpg	99
1747.462	1.502	1502.2	observe	Run2	observe/STIM_010.jpg	100
1752.799	1.259	1259.0	observe	Run2	observe/STIM_011.jpg	99
1757.876	1.227	1226.7	observe	Run2	observe/STIM_011.jpg	99
1762.507	1.087	1087.3	observe	Run2	observe/STIM_011.jpg	99
1766.242	0.85	849.7	observe	Run2	observe/STIM_011.jpg	100
1770.112	1.429	1429.3	observe	Run2	observe/STIM_012.jpg	99
1774.205	1.449	1449.1	observe	Run2	observe/STIM_012.jpg	99
1777.927	1.32	1319.8	observe	Run2	observe/STIM_012.jpg	99
1781.806	1.366	1366.5	observe	Run2	observe/STIM_012.jpg	100
1785.769	0.989	989.0	observe	Run2	observe/STIM_013.jpg	99
1790.659	1.48	1479.8	observe	Run2	observe/STIM_013.jpg	99
1794.324	0.95	950.3	observe	Run2	observe/STIM_013.jpg	99
1797.555	1.221	1221.1	observe	Run2	observe/STIM_013.jpg	99
1801.929	1.034	1033.6	observe	Run2	observe/STIM_014.jpg	99
1805.587	0.843	842.8	observe	Run2	observe/STIM_014.jpg	100
1809.061	1.077	1077.1	observe	Run2	observe/STIM_014.jpg	99
1813.568	1.558	1558.5	observe	Run2	observe/STIM_014.jpg	100
1818.464	1.382	1382.4	observe	Run2	observe/STIM_015.jpg	100
1823.254	1.481	1480.9	observe	Run2	observe/STIM_015.jpg	100
1827.706	0.82	820.4	observe	Run2	observe/STIM_015.jpg	100
1831.781	1.354	1353.9	observe	Run2	observe/STIM_015.jpg	99
1835.688	0.803	803.2	observe	Run2	observe/STIM_016.jpg	100
1839.994	0.969	968.6	observe	Run2	observe/STIM_016.jpg	99
1844.547	0.937	936.9	observe	Run2	observe/STIM_016.jpg	99
1848.535	1.319	1319.1	observe	Run2	observe/STIM_016.jpg	100
1852.284	1.29	1290.1	observe	Run2	observe/STIM_017.jpg	99
1857.078	1.412	1412.3	observe	Run2	observe/STIM_017.jpg	99
1861.088	1.402	1401.7	observe	Run2	observe/STIM_017.jpg	99
1866.226	0.834	834.3	observe	Run2	observe/STIM_017.jpg	100
1869.366	0.886	885.5	observe	Run2	observe/STIM_018.jpg	100
1873.477	1.148	1148.1	observe	Run2	observe/STIM_018.jpg	99
1876.796	0.858	857.7	observe	Run2	observe/STIM_018.jpg	99
1880.004	1.093	1093.3	observe	Run2	observe/STIM_018.jpg	99
1884.095	1.001	1000.7	observe	Run2	observe/STIM_019.jpg	99
1888.208	1.445	1445.2	observe	Run2	observe/STIM_019.jpg	99
1892.584	1.107	1106.7	observe	Run2	observe/STIM_019.jpg	100
1896.684	1.392	1392.1	observe	Run2	observe/STIM_019.jpg	99
1900.21	2.069	2069.3	regulate	Run3	regulate/STIM_000.jpg	100
1905.778	1.544	1544.5	regulate	Run3	regulate/STIM_000.jpg	99
1910.658	1.963	1963.2	regulate	Run3	regulate/STIM_000.jpg	99
1916.619	2.322	2321.7	regulate	Run3	regulate/STIM_000.jpg	99
1921.601	1.864	1864.4	regulate	Run3	regulate/STIM_001.jpg	100
1926.249	1.27	1269.6	regulate	Run3	regulate/STIM_001.jpg	99
1931.345	1.338	1338.1	regulate	Run3	regulate/STIM_001.jpg	99
1935.097	1.503	1503.1	regulate	Run3	regulate/STIM_001.jpg	100
1939.591	1.332	1331.8	regulate	Run3	regulate/STIM_002.jpg	100
1944.704	2.408	2408.3	regulate	Run3	regulate/STIM_002.jpg	99
1950.606	1.357	1357.1	regulate	Run3	regulate/STIM_002.jpg	99
1954.576	1.917	1916.6	regulate	Run3	regulate/STIM_002.jpg	99
1959.633	2.136	2135.8	regulate	Run3	regulate/STIM_003.jpg	100
1964.374	1.725	1725.1	regulate	Run3	regulate/STIM_003.jpg	100
1969.578	1.591	1590.6	regulate	Run3	regulate/STIM_003.jpg	100
1974.403	1.556	1556.3	regulate	Run3	regulate/STIM_003.jpg	100
1978.145	1.619	1619.3	regulate	Run3	regulate/STIM_004.jpg	100
1982.02	2.252	2252.1	regulate	Run3	regulate/STIM_004.jpg	100
1986.886	1.126	1126.4	regulate	Run3	regulate/STIM_004.jpg	99
1991.122	1.827	1826.7	regulate	Run3	regulate/STIM_004.jpg	99
1996.026	2.288	2288.0	regulate	Run3	regulate/STIM_005.jpg	100
2000.566	2.339	2338.9	regulate	Run3	regulate/STIM_005.jpg	100
2006.76	2.062	2061.7	regulate	Run3	regulate/STIM_005.jpg	99
2010.998	1.427	1426.8	regulate	Run3	regulate/STIM_005.jpg	100
2015.27	1.937	1936.7	regulate	Run3	regulate/STIM_006.jpg	99
2020.245	2.128	2127.5	regulate	Run3	regulate/STIM_006.jpg	100
2026.375	1.68	1679.8	regulate	Run3	regulate/STIM_006.jpg	99
2030.707	2.274	2273.6	regulate	Run3	regulate/STIM_006.jpg	99
2035.561	1.089	1088.6	regulate	Run3	regulate/STIM_007.jpg	100
2040.098	2.418	2418.2	regulate	Run3	regulate/STIM_007.jpg	100
2045.599	1.379	1378.7	regulate	Run3	regulate/STIM_007.jpg	99
2050.094	2.244	2243.6	regulate	Run3	regulate/STIM_007.jpg	99
2055.157	1.954	1953.6	regulate	Run3	regulate/STIM_008.jpg	99
2060.616	1.794	1794.1	regulate	Run3	regulate/STIM_008.jpg	99
2065.497	1.195	1194.6	regulate	Run3	regulate/STIM_008.jpg	100
2069.589	1.79	1789.7	regulate	Run3	regulate/STIM_008.jpg	100
2074.401	1.097	1097.2	regulate	Run3	regulate/STIM_009.jpg	99
2078.077	1.365	1364.8	regulate	Run3	regulate/STIM_009.jpg	100
2082.482	1.4	1400.5	regulate	Run3	regulate/STIM_009.jpg	99
2087.162	1.11	1109.8	regulate	Run3	regulate/STIM_009.jpg	100
2091.415	1.107	1107.1	regulate	Run3	regulate/STIM_010.jpg	100
2095.976	1.549	1549.4	regulate	Run3	regulate/STIM_010.jpg	99
2100.909	2.174	2174.3	regulate	Run3	regulate/STIM_010.jpg	100
2106.156	2.015	2014.8	regulate	Run3	regulate/STIM_010.jpg	100
2110.467	1.203	1202.9	regulate	Run3	regulate/STIM_011.jpg	99
2114.263	2.316	2316.3	regulate	Run3	regulate/STIM_011.jpg	100
2119.498	2.18	2180.5	regulate	Run3	regulate/STIM_011.jpg	99
2124.288	1.869	1868.9	regulate	Run3	regulate/STIM_011.jpg	100
2128.833	1.493	1492.8	regulate	Run3	regulate/STIM_012.jpg	100
2134.255	1.58	1580.2	regulate	Run3	regulate/STIM_012.jpg	99
2139.728	1.873	1873.3	regulate	Run3	regulate/STIM_012.jpg	100
2144.467	2.178	2177.8	regulate	Run3	regulate/STIM_012.jpg	99
2149.127	1.998	1997.9	regulate	Run3	regulate/STIM_013.jpg	99
2154.624	1.852	1851.7	regulate	Run3	regulate/STIM_013.jpg	100
2158.864	1.536	1536.5	regulate	Run3	regulate/STIM_013.jpg	99
2162.735	2.401	2401.0	regulate	Run3	regulate/STIM_013.jpg	99
2168.065	1.846	1845.9	regulate	Run3	regulate/STIM_014.jpg	99
2173.274	1.079	1079.1	regulate	Run3	regulate/STIM_014.jpg	100
2176.866	1.272	1272.3	regulate	Run3	regulate/STIM_014.jpg	99
2181.773	2.211	2211.0	regulate	Run3	regulate/STIM_014.jpg	99
2186.382	1.136	1136.5	regulate	Run3	regulate/STIM_015.jpg	99
2189.885	2.211	2211.3	regulate	Run3	regulate/STIM_015.jpg	100
2195.822	2.078	2077.8	regulate	Run3	regulate/STIM_015.jpg	99
2200.631	1.406	1405.9	regulate	Run3	regulate/STIM_015.jpg	100
2205.074	2.303	2302.8	regulate	Run3	regulate/STIM_016.jpg	99
2210.419	1.155	1155.0	regulate	Run3	regulate/STIM_016.jpg	99
2213.598	1.529	1528.6	regulate	Run3	regulate/STIM_016.jpg	100
2217.879	2.085	2084.9	regulate	Run3	regulate/STIM_016.jpg	100
2222.048	1.3	1300.0	regulate	Run3	regulate/STIM_017.jpg	100
2226.092	2.048	2048.0	regulate	Run3	regulate/STIM_017.jpg	100
2230.632	1.97	1970.3	regulate	Run3	regulate/STIM_017.jpg	99
2235.331	1.924	1924.2	regulate	Run3	regulate/STIM_017.jpg	99
2239.443	1.113	1113.1	regulate	Run3	regulate/STIM_018.jpg	99
2243.277	1.809	1809.1	regulate	Run3	regulate/STIM_018.jpg	99
2247.137	1.456	1456.1	regulate	Run3	regulate/STIM_018.jpg	99
2250.97	2.078	2077.6	regulate	Run3	regulate/STIM_018.jpg	99
2255.984	2.348	2347.5	regulate	Run3	regulate/STIM_019.jpg	100
2262.129	1.051	1051.4	regulate	Run3	regulate/STIM_019.jpg	99
2267.186	1.161	1160.6	regulate	Run3	regulate/STIM_019.jpg	100
2271.077	1.258	1257.7	regulate	Run3	regulate/STIM_019.jpg	99
2275.85	1.154	1153.7	regulate	Run3	regulate/STIM_020.jpg	99
2280.755	2.114	2113.9	regulate	Run3	regulate/STIM_020.jpg	100
2285.641	1.442	1442.3	regulate	Run3	regulate/STIM_020.jpg	99
2289.624	1.702	1701.6	regulate	Run3	regulate/STIM_020.jpg	99
2293.72	1.469	1469.4	regulate	Run3	regulate/STIM_021.jpg	99
2298.782	1.436	1436.3	regulate	Run3	regulate/STIM_021.jpg	99
2303.579	2.195	2195.1	regulate	Run3	regulate/STIM_021.jpg	99
2309.59	1.48	1480.2	regulate	Run3	regulate/STIM_021.jpg	100
2313.214	1.575	1575.0	regulate	Run3	regulate/STIM_022.jpg	99
2318.066	1.61	1609.7	regulate	Run3	regulate/STIM_022.jpg	100
2321.761	1.687	1687.1	regulate	Run3	regulate/STIM_022.jpg	100
2326.444	1.825	1825.0	regulate	Run3	regulate/STIM_022.jpg	99
2331.41	1.072	1071.7	regulate	Run3	regulate/STIM_023.jpg	99
2336.468	1.736	1736.4	regulate	Run3	regulate/STIM_023.jpg	100
2341.685	1.305	1304.9	regulate	Run3	regulate/STIM_023.jpg	99
2345.758	2.012	2012.2	regulate	Run3	regulate/STIM_023.jpg	99
2350.099	1.326	1326.2	regulate	Run3	regulate/STIM_024.jpg	100
2353.46	1.746	1745.8	regulate	Run3	regulate/STIM_024.jpg	100
2358.528	1.087	1087.0	regulate	Run3	regulate/STIM_024.jpg	99
2362.598	2.337	2337.3	regulate	Run3	regulate/STIM_024.jpg	100
2368.025	2.203	2202.8	regulate	Run3	regulate/STIM_025.jpg	99
2373.316	1.347	1346.6	regulate	Run3	regulate/STIM_025.jpg	100
2377.814	1.57	1569.6	regulate	Run3	regulate/STIM_025.jpg	100
2382.548	2.039	2038.6	regulate	Run3	regulate/STIM_025.jpg	100
2388.479	1.457	1457.4	regulate	Run3	regulate/STIM_026.jpg	100
2392.382	1.263	1263.1	regulate	Run3	regulate/STIM_026.jpg	100
2396.839	1.4	1399.9	regulate	Run3	regulate/STIM_026.jpg	100
2401.724	1.476	1476.0	regulate	Run3	regulate/STIM_026.jpg	99
2407.137	2.1	2100.0	regulate	Run3	regulate/STIM_027.jpg	100
2412.281	1.041	1041.1	regulate	Run3	regulate/STIM_027.jpg	99
2415.504	1.599	1598.9	regulate	Run3	regulate/STIM_027.jpg	100
2419.643	1.239	1238.8	regulate	Run3	regulate/STIM_027.jpg	100
2423.503	1.698	1698.2	regulate	Run3	regulate/STIM_028.jpg	100
2428.739	2.089	2088.6	regulate	Run3	regulate/STIM_028.jpg	99
2433.124	1.292	1291.9	regulate	Run3	regulate/STIM_028.jpg	100
2438.024	1.072	1072.3	regulate	Run3	regulate/STIM_028.jpg	100
2441.956	1.351	1350.6	regulate	Run3	regulate/STIM_029.jpg	100
2446.782	1.225	1225.1	regulate	Run3	regulate/STIM_029.jpg	100
2451.817	2.27	2270.4	regulate	Run3	regulate/STIM_029.jpg	100
2457.689	1.33	1330.2	regulate	Run3	regulate/STIM_029.jpg	100
2461.483	0.861	861.3	observe	Run3	observe/STIM_000.jpg	100
2466.354	0.875	874.7	observe	Run3	observe/STIM_000.jpg	100
2469.409	1.217	1217.1	observe	Run3	observe/STIM_000.jpg	99
2473.983	0.914	914.0	observe	Run3	observe/STIM_000.jpg	99
2477.64	1.118	1117.9	observe	Run3	observe/STIM_001.jpg	100
2481.524	1.037	1037.3	observe	Run3	observe/STIM_001.jpg	100
2485.896	1.042	1042.4	observe	Run3	observe/STIM_001.jpg	100
2490.906	1.426	1426.4	observe	Run3	observe/STIM_001.jpg	100
2495.422	1.404	1403.7	observe	Run3	observe/STIM_002.jpg	99
2500.67	1.442	1442.5	observe	Run3	observe/STIM_002.jpg	99
2504.845	1.077	1077.4	observe	Run3	observe/STIM_002.jpg	99
2507.98	1.028	1028.1	observe	Run3	observe/STIM_002.jpg	99
2512.963	0.84	840.5	observe	Run3	observe/STIM_003.jpg	100
2516.49	1.132	1131.9	observe	Run3	observe/STIM_003.jpg	100
2521.088	1.581	1580.7	observe	Run3	observe/STIM_003.jpg	100
2526.572	0.944	944.1	observe	Run3	observe/STIM_003.jpg	100
2530.3	1.41	1410.4	observe	Run3	observe/STIM_004.jpg	99
2534.102	1.198	1198.4	observe	Run3	observe/STIM_004.jpg	99
2537.654	1.345	1345.0	observe	Run3	observe/STIM_004.jpg	100
2542.644	1.252	1251.5	observe	Run3	observe/STIM_004.jpg	100
2547.08	1.194	1194.4	observe	Run3	observe/STIM_005.jpg	100
2551.386	1.572	1572.5	observe	Run3	observe/STIM_005.jpg	100
2555.867	0.842	842.3	observe	Run3	observe/STIM_005.jpg	100
2560.348	1.478	1477.8	observe	Run3	observe/STIM_005.jpg	99
2565.671	1.006	1005.8	observe	Run3	observe/STIM_006.jpg	99
2569.188	0.944	943.5	observe	Run3	observe/STIM_006.jpg	99
2573.321	1.47	1469.9	observe	Run3	observe/STIM_006.jpg	99
2577.317	1.32	1319.7	observe	Run3	observe/STIM_006.jpg	100
2582.518	1.466	1466.1	observe	Run3	observe/STIM_007.jpg	100
2586.399	1.047	1046.8	observe	Run3	observe/STIM_007.jpg	100
2589.787	1.206	1205.9	observe	Run3	observe/STIM_007.jpg	99
2593.855	1.236	1235.8	observe	Run3	observe/STIM_007.jpg	100
2598.751	1.031	1031.3	observe	Run3	observe/STIM_008.jpg	99
2602.862	1.005	1004.6	observe	Run3	observe/STIM_008.jpg	100
2606.193	1.084	1083.5	observe	Run3	observe/STIM_008.jpg	99
2611.108	0.922	922.0	observe	Run3	observe/STIM_008.jpg	99
2614.705	0.912	912.0	observe	Run3	observe/STIM_009.jpg	99
2619.079	1.473	1472.8	observe	Run3	observe/STIM_009.jpg	100
2622.902	1.371	1371.2	observe	Run3	observe/STIM_009.jpg	100
2627.627	0.814	813.5	observe	Run3	observe/STIM_009.jpg	99
2632.149	1.327	1326.6	observe	Run3	observe/STIM_010.jpg	100
2637.029	0.944	944.3	observe	Run3	observe/STIM_010.jpg	100
2640.445	1.469	1468.8	observe	Run3	observe/STIM_010.jpg	100
2644.951	1.138	1138.4	observe	Run3	observe/STIM_010.jpg	99
2649.28	1.451	1451.0	observe	Run3	observe/STIM_011.jpg	100
2653.537	0.962	962.2	observe	Run3	observe/STIM_011.jpg	100
2657.538	1.326	1325.7	observe	Run3	observe/STIM_011.jpg	99
2661.086	1.411	1411.3	observe	Run3	observe/STIM_011.jpg	99
2665.413	1.326	1326.5	observe	Run3	observe/STIM_012.jpg	99
2670.596	1.402	1402.5	observe	Run3	observe/STIM_012.jpg	100
2674.718	1.026	1026.4	observe	Run3	observe/STIM_012.jpg	99
2677.961	1.322	1322.2	observe	Run3	observe/STIM_012.jpg	99
2682.893	0.924	924.4	observe	Run3	observe/STIM_013.jpg	100
2686.937	0.993	993.0	observe	Run3	observe/STIM_013.jpg	99
2691.37	1.281	1280.6	observe	Run3	observe/STIM_013.jpg	100
2696.271	0.92	920.2	observe	Run3	observe/STIM_013.jpg	100
2700.925	1.055	1054.9	observe	Run3	observe/STIM_014.jpg	99
2704.659	0.89	889.9	observe	Run3	observe/STIM_014.jpg	99
2709.127	1.217	1217.3	observe	Run3	observe/STIM_014.jpg	99
2713.827	1.194	1193.7	observe	Run3	observe/STIM_014.jpg	100
2718.513	0.818	817.6	observe	Run3	observe/STIM_015.jpg	100
2721.892	1.44	1440.2	observe	Run3	observe/STIM_015.jpg	100
2726.922	0.816	815.8	observe	Run3	observe/STIM_015.jpg	100
2731.617	1.335	1334.7	observe	Run3	observe/STIM_015.jpg	99
2736.648	1.087	1087.4	observe	Run3	observe/STIM_016.jpg	99
2740.442	1.463	1462.9	observe	Run3	observe/STIM_016.jpg	99
2743.958	0.866	866.4	observe	Run3	observe/STIM_016.jpg	100
2748.169	1.1	1100.2	observe	Run3	observe/STIM_016.jpg	99
2752.462	1.064	1063.6	observe	Run3	observe/STIM_017.jpg	99
2756.261	0.916	916.3	observe	Run3	observe/STIM_017.jpg	99
2759.297	1.036	1035.8	observe	Run3	observe/STIM_017.jpg	100
2764.03	0.943	942.7	observe	Run3	observe/STIM_017.jpg	100
2767.669	1.036	1036.4	observe	Run3	observe/STIM_018.jpg	99
2772.503	1.17	1170.3	observe	Run3	observe/STIM_018.jpg	100
2775.936	1.45	1450.4	observe	Run3	observe/STIM_018.jpg	100
2780.675	1.22	1219.5	observe	Run3	observe/STIM_018.jpg	99
2784.185	1.298	1298.3	observe	Run3	observe/STIM_019.jpg	99
2787.647	1.112	1111.7	observe	Run3	observe/STIM_019.jpg	99
2792.498	0.888	887.9	observe	Run3	observe/STIM_019.jpg	100
2796.407	1.09	1090.2	observe	Run3	observe/STIM_019.jpg	99
