onset	duration	accuracy_binary	trial_type	learning_stage	stimulus
0.0	2.497	1	regulate	Run1	regulate/STIM_000.jpg
5.399	2.186	1	regulate	Run1	regulate/STIM_000.jpg
11.111	1.573	0	regulate	Run1	regulate/STIM_000.jpg
15.929	1.832	1	regulate	Run1	regulate/STIM_000.jpg
20.376	2.681	1	regulate	Run1	regulate/STIM_001.jpg
26.065	3.054	1	regulate	Run1	regulate/STIM_001.jpg
32.456	2.467	1	regulate	Run1	regulate/STIM_001.jpg
37.755	2.224	1	regulate	Run1	regulate/STIM_001.jpg
42.293	1.901	0	regulate	Run1	regulate/STIM_002.jpg
47.474	1.451	0	regulate	Run1	regulate/STIM_002.jpg
51.619	1.758	0	regulate	Run1	regulate/STIM_002.jpg
57.255	2.091	1	regulate	Run1	regulate/STIM_002.jpg
62.923	2.229	0	regulate	Run1	regulate/STIM_003.jpg
69.031	1.483	0	regulate	Run1	regulate/STIM_003.jpg
73.009	1.797	1	regulate	Run1	regulate/STIM_003.jpg
77.011	2.273	1	regulate	Run1	regulate/STIM_003.jpg
81.476	1.876	1	regulate	Run1	regulate/STIM_004.jpg
85.748	2.646	1	regulate	Run1	regulate/STIM_004.jpg
92.316	2.714	1	regulate	Run1	regulate/STIM_004.jpg
97.754	2.929	1	regulate	Run1	regulate/STIM_004.jpg
103.393	1.966	0	regulate	Run1	regulate/STIM_005.jpg
107.463	1.714	1	regulate	Run1	regulate/STIM_005.jpg
112.026	1.349	1	regulate	Run1	regulate/STIM_005.jpg
116.094	2.878	1	regulate	Run1	regulate/STIM_005.jpg
122.144	1.55	1	regulate	Run1	regulate/STIM_006.jpg
127.23	2.15	1	regulate	Run1	regulate/STIM_006.jpg
132.414	3.09	1	regulate	Run1	regulate/STIM_006.jpg
137.888	1.26	1	regulate	Run1	regulate/STIM_006.jpg
141.217	2.741	1	regulate	Run1	regulate/STIM_007.jpg
147.285	1.99	1	regulate	Run1	regulate/STIM_007.jpg
152.487	1.419	1	regulate	Run1	regulate/STIM_007.jpg
157.053	2.699	0	regulate	Run1	regulate/STIM_007.jpg
163.168	3.096	1	regulate	Run1	regulate/STIM_008.jpg
169.122	1.786	1	regulate	Run1	regulate/STIM_008.jpg
173.745	2.907	1	regulate	Run1	regulate/STIM_008.jpg
180.558	2.232	0	regulate	Run1	regulate/STIM_008.jpg
186.771	2.048	1	regulate	Run1	regulate/STIM_009.jpg
191.441	2.589	0	regulate	Run1	regulate/STIM_009.jpg
196.712	1.649	0	regulate	Run1	regulate/STIM_009.jpg
201.418	2.758	1	regulate	Run1	regulate/STIM_009.jpg
206.8	1.708	0	regulate	Run1	regulate/STIM_010.jpg
211.048	3.008	1	regulate	Run1	regulate/STIM_010.jpg
217.287	2.267	1	regulate	Run1	regulate/STIM_010.jpg
222.529	1.617	1	regulate	Run1	regulate/STIM_010.jpg
227.28	2.106	1	regulate	Run1	regulate/STIM_011.jpg
232.243	2.993	1	regulate	Run1	regulate/STIM_011.jpg
238.418	2.5	1	regulate	Run1	regulate/STIM_011.jpg
244.562	2.619	1	regulate	Run1	regulate/STIM_011.jpg
250.165	2.217	0	regulate	Run1	regulate/STIM_012.jpg
256.144	2.213	1	regulate	Run1	regulate/STIM_012.jpg
261.935	1.374	0	regulate	Run1	regulate/STIM_012.jpg
266.59	1.71	1	regulate	Run1	regulate/STIM_012.jpg
270.588	2.063	1	regulate	Run1	regulate/STIM_013.jpg
275.687	2.883	1	regulate	Run1	regulate/STIM_013.jpg
281.476	2.378	1	regulate	Run1	regulate/STIM_013.jpg
286.657	1.75	1	regulate	Run1	regulate/STIM_013.jpg
290.83	2.401	1	regulate	Run1	regulate/STIM_014.jpg
295.262	2.417	0	regulate	Run1	regulate/STIM_014.jpg
300.925	2.887	1	regulate	Run1	regulate/STIM_014.jpg
306.371	2.794	0	regulate	Run1	regulate/STIM_014.jpg
313.108	1.919	1	regulate	Run1	regulate/STIM_015.jpg
318.714	2.441	1	regulate	Run1	regulate/STIM_015.jpg
323.842	2.158	1	regulate	Run1	regulate/STIM_015.jpg
328.949	2.508	1	regulate	Run1	regulate/STIM_015.jpg
334.728	2.668	1	regulate	Run1	regulate/STIM_016.jpg
340.388	2.737	1	regulate	Run1	regulate/STIM_016.jpg
346.887	1.692	1	regulate	Run1	regulate/STIM_016.jpg
350.61	2.476	0	regulate	Run1	regulate/STIM_016.jpg
355.127	3.247	1	regulate	Run1	regulate/STIM_017.jpg
361.84	2.026	1	regulate	Run1	regulate/STIM_017.jpg
367.46	2.458	1	regulate	Run1	regulate/STIM_017.jpg
373.323	2.077	1	regulate	Run1	regulate/STIM_017.jpg
377.635	1.838	0	regulate	Run1	regulate/STIM_018.jpg
381.947	1.569	1	regulate	Run1	regulate/STIM_018.jpg
386.18	1.945	0	regulate	Run1	regulate/STIM_018.jpg
391.943	1.289	1	regulate	Run1	regulate/STIM_018.jpg
396.813	2.51	1	regulate	Run1	regulate/STIM_019.jpg
402.988	1.712	1	regulate	Run1	regulate/STIM_019.jpg
408.45	1.42	1	regulate	Run1	regulate/STIM_019.jpg
412.877	2.755	1	regulate	Run1	regulate/STIM_019.jpg
418.794	2.873	0	regulate	Run1	regulate/STIM_020.jpg
424.938	2.43	1	regulate	Run1	regulate/STIM_020.jpg
429.853	2.695	1	regulate	Run1	regulate/STIM_020.jpg
436.258	2.561	1	regulate	Run1	regulate/STIM_020.jpg
441.82	2.594	1	regulate	Run1	regulate/STIM_021.jpg
447.438	1.874	0	regulate	Run1	regulate/STIM_021.jpg
451.693	2.451	1	regulate	Run1	regulate/STIM_021.jpg
457.135	1.295	1	regulate	Run1	regulate/STIM_021.jpg
461.614	2.904	0	regulate	Run1	regulate/STIM_022.jpg
468.169	1.464	0	regulate	Run1	regulate/STIM_022.jpg
471.735	1.342	1	regulate	Run1	regulate/STIM_022.jpg
475.854	2.641	1	regulate	Run1	regulate/STIM_022.jpg
482.376	1.58	0	regulate	Run1	regulate/STIM_023.jpg
486.607	3.212	1	regulate	Run1	regulate/STIM_023.jpg
492.221	1.509	1	regulate	Run1	regulate/STIM_023.jpg
496.954	1.682	1	regulate	Run1	regulate/STIM_023.jpg
500.827	2.781	1	regulate	Run1	regulate/STIM_024.jpg
507.631	2.044	1	regulate	Run1	regulate/STIM_024.jpg
511.78	2.567	1	regulate	Run1	regulate/STIM_024.jpg
518.206	2.116	1	regulate	Run1	regulate/STIM_024.jpg
523.567	3.258	1	regulate	Run1	regulate/STIM_025.jpg
530.318	2.712	1	regulate	Run1	regulate/STIM_025.jpg
537.01	2.345	1	regulate	Run1	regulate/STIM_025.jpg
541.417	2.542	1	regulate	Run1	regulate/STIM_025.jpg
546.017	2.333	1	regulate	Run1	regulate/STIM_026.jpg
551.945	3.014	0	regulate	Run1	regulate/STIM_026.jpg
558.878	2.504	1	regulate	Run1	regulate/STIM_026.jpg
564.406	1.709	1	regulate	Run1	regulate/STIM_026.jpg
569.979	2.759	1	regulate	Run1	regulate/STIM_027.jpg
576.088	1.664	1	regulate	Run1	regulate/STIM_027.jpg
579.812	1.706	1	regulate	Run1	regulate/STIM_027.jpg
584.675	1.688	1	regulate	Run1	regulate/STIM_027.jpg
589.302	3.424	0	regulate	Run1	regulate/STIM_028.jpg
595.296	2.579	1	regulate	Run1	regulate/STIM_028.jpg
600.337	2.533	1	regulate	Run1	regulate/STIM_028.jpg
605.591	1.927	0	regulate	Run1	regulate/STIM_028.jpg
611.148	2.404	1	regulate	Run1	regulate/STIM_029.jpg
616.338	1.76	1	regulate	Run1	regulate/STIM_029.jpg
620.458	2.174	1	regulate	Run1	regulate/STIM_029.jpg
626.486	1.779	1	regulate	Run1	regulate/STIM_029.jpg
631.163	1.417	1	observe	Run1	observe/STIM_000.jpg
635.414	0.898	1	observe	Run1	observe/STIM_000.jpg
639.261	1.354	0	observe	Run1	observe/STIM_000.jpg
644.005	0.999	1	observe	Run1	observe/STIM_000.jpg
647.746	0.945	1	observe	Run1	observe/STIM_001.jpg
652.485	1.196	1	observe	Run1	observe/STIM_001.jpg
656.798	0.816	1	observe	Run1	observe/STIM_001.jpg
660.671	0.994	1	observe	Run1	observe/STIM_001.jpg
664.059	1.047	1	observe	Run1	observe/STIM_002.jpg
668.614	1.159	1	observe	Run1	observe/STIM_002.jpg
673.119	1.177	1	observe	Run1	observe/STIM_002.jpg
678.23	1.132	1	observe	Run1	observe/STIM_002.jpg
683.095	1.555	1	observe	Run1	observe/STIM_003.jpg
687.948	1.511	1	observe	Run1	observe/STIM_003.jpg
692.787	1.23	1	observe	Run1	observe/STIM_003.jpg
697.524	1.374	1	observe	Run1	observe/STIM_003.jpg
701.01	0.895	1	observe	Run1	observe/STIM_004.jpg
705.197	1.178	1	observe	Run1	observe/STIM_004.jpg
708.41	1.14	1	observe	Run1	observe/STIM_004.jpg
713.488	1.315	1	observe	Run1	observe/STIM_004.jpg
718.114	1.426	1	observe	Run1	observe/STIM_005.jpg
723.091	1.311	1	observe	Run1	observe/STIM_005.jpg
726.757	0.844	1	observe	Run1	observe/STIM_005.jpg
731.142	0.981	1	observe	Run1	observe/STIM_005.jpg
735.997	1.062	0	observe	Run1	observe/STIM_006.jpg
740.297	0.96	1	observe	Run1	observe/STIM_006.jpg
744.489	1.12	1	observe	Run1	observe/STIM_006.jpg
748.459	1.093	1	observe	Run1	observe/STIM_006.jpg
753.072	1.416	1	observe	Run1	observe/STIM_007.jpg
758.496	1.537	1	observe	Run1	observe/STIM_007.jpg
763.768	1.285	1	observe	Run1	observe/STIM_007.jpg
768.149	0.943	1	observe	Run1	observe/STIM_007.jpg
772.846	0.94	1	observe	Run1	observe/STIM_008.jpg
777.587	0.879	1	observe	Run1	observe/STIM_008.jpg
782.458	1.424	1	observe	Run1	observe/STIM_008.jpg
787.669	0.989	1	observe	Run1	observe/STIM_008.jpg
792.097	1.384	1	observe	Run1	observe/STIM_009.jpg
796.758	1.564	0	observe	Run1	observe/STIM_009.jpg
800.374	1.398	1	observe	Run1	observe/STIM_009.jpg
805.353	0.818	1	observe	Run1	observe/STIM_009.jpg
809.243	1.248	0	observe	Run1	observe/STIM_010.jpg
813.078	1.394	1	observe	Run1	observe/STIM_010.jpg
816.817	1.346	1	observe	Run1	observe/STIM_010.jpg
821.467	0.895	1	observe	Run1	observe/STIM_010.jpg
824.377	1.135	0	observe	Run1	observe/STIM_011.jpg
827.789	1.098	1	observe	Run1	observe/STIM_011.jpg
832.394	1.35	1	observe	Run1	observe/STIM_011.jpg
837.126	1.561	0	observe	Run1	observe/STIM_011.jpg
840.807	0.902	1	observe	Run1	observe/STIM_012.jpg
844.261	1.467	1	observe	Run1	observe/STIM_012.jpg
848.475	0.988	1	observe	Run1	observe/STIM_012.jpg
853.11	1.084	1	observe	Run1	observe/STIM_012.jpg
856.536	1.334	1	observe	Run1	observe/STIM_013.jpg
860.234	1.525	0	observe	Run1	observe/STIM_013.jpg
864.895	1.512	1	observe	Run1	observe/STIM_013.jpg
869.505	1.552	1	observe	Run1	observe/STIM_013.jpg
873.727	1.526	1	observe	Run1	observe/STIM_014.jpg
878.627	1.014	0	observe	Run1	observe/STIM_014.jpg
882.297	1.16	1	observe	Run1	observe/STIM_014.jpg
885.662	1.039	1	observe	Run1	observe/STIM_014.jpg
888.972	1.039	1	observe	Run1	observe/STIM_015.jpg
893.913	1.308	1	observe	Run1	observe/STIM_015.jpg
898.833	0.974	0	observe	Run1	observe/STIM_015.jpg
903.439	0.874	1	observe	Run1	observe/STIM_015.jpg
906.765	0.962	1	observe	Run1	observe/STIM_016.jpg
910.734	1.105	1	observe	Run1	observe/STIM_016.jpg
914.1	0.901	0	observe	Run1	observe/STIM_016.jpg
918.48	1.204	1	observe	Run1	observe/STIM_016.jpg
921.955	0.835	1	observe	Run1	observe/STIM_017.jpg
926.238	0.997	1	observe	Run1	observe/STIM_017.jpg
929.994	1.271	1	observe	Run1	observe/STIM_017.jpg
933.481	1.431	1	observe	Run1	observe/STIM_017.jpg
937.189	0.976	1	observe	Run1	observe/STIM_018.jpg
941.832	1.157	1	observe	Run1	observe/STIM_018.jpg
946.814	1.441	1	observe	Run1	observe/STIM_018.jpg
950.88	1.501	1	observe	Run1	observe/STIM_018.jpg
956.255	1.314	1	observe	Run1	observe/STIM_019.jpg
960.194	1.569	1	observe	Run1	observe/STIM_019.jpg
965.723	1.271	1	observe	Run1	observe/STIM_019.jpg
970.181	1.076	1	observe	Run1	observe/STIM_019.jpg
974.028	2.018	1	regulate	Run2	regulate/STIM_000.jpg
978.974	1.66	1	regulate	Run2	regulate/STIM_000.jpg
983.408	1.934	1	regulate	Run2	regulate/STIM_000.jpg
989.052	1.356	1	regulate	Run2	regulate/STIM_000.jpg
994.151	2.455	1	regulate	Run2	regulate/STIM_001.jpg
1000.599	2.458	1	regulate	Run2	regulate/STIM_001.jpg
1006.891	2.082	1	regulate	Run2	regulate/STIM_001.jpg
1011.444	1.896	1	regulate	Run2	regulate/STIM_001.jpg
1015.638	2.393	1	regulate	Run2	regulate/STIM_002.jpg
1020.62	1.758	1	regulate	Run2	regulate/STIM_002.jpg
1024.829	1.715	1	regulate	Run2	regulate/STIM_002.jpg
1029.563	1.162	1	regulate	Run2	regulate/STIM_002.jpg
1034.337	1.737	1	regulate	Run2	regulate/STIM_003.jpg
1038.128	2.529	0	regulate	Run2	regulate/STIM_003.jpg
1043.298	1.547	1	regulate	Run2	regulate/STIM_003.jpg
1047.35	1.764	1	regulate	Run2	regulate/STIM_003.jpg
1051.191	1.936	1	regulate	Run2	regulate/STIM_004.jpg
1055.568	1.453	0	regulate	Run2	regulate/STIM_004.jpg
1060.871	1.302	1	regulate	Run2	regulate/STIM_004.jpg
1064.627	1.969	1	regulate	Run2	regulate/STIM_004.jpg
1068.763	2.423	1	regulate	Run2	regulate/STIM_005.jpg
1075.179	2.11	0	regulate	Run2	regulate/STIM_005.jpg
1079.524	2.143	0	regulate	Run2	regulate/STIM_005.jpg
1085.68	1.841	1	regulate	Run2	regulate/STIM_005.jpg
1090.383	2.865	1	regulate	Run2	regulate/STIM_006.jpg
1097.017	2.143	1	regulate	Run2	regulate/STIM_006.jpg
1101.624	1.731	1	regulate	Run2	regulate/STIM_006.jpg
1107.185	1.245	1	regulate	Run2	regulate/STIM_006.jpg
1111.557	1.455	1	regulate	Run2	regulate/STIM_007.jpg
1115.992	1.783	1	regulate	Run2	regulate/STIM_007.jpg
1121.216	1.887	1	regulate	Run2	regulate/STIM_007.jpg
1125.561	2.172	1	regulate	Run2	regulate/STIM_007.jpg
1131.162	2.896	1	regulate	Run2	regulate/STIM_008.jpg
1136.295	2.276	1	regulate	Run2	regulate/STIM_008.jpg
1142.328	1.643	1	regulate	Run2	regulate/STIM_008.jpg
1146.18	1.228	1	regulate	Run2	regulate/STIM_008.jpg
1149.752	1.958	1	regulate	Run2	regulate/STIM_009.jpg
1154.778	1.352	0	regulate	Run2	regulate/STIM_009.jpg
1158.461	1.716	1	regulate	Run2	regulate/STIM_009.jpg
1164.148	1.039	1	regulate	Run2	regulate/STIM_009.jpg
1168.375	2.698	1	regulate	Run2	regulate/STIM_010.jpg
1174.578	1.504	1	regulate	Run2	regulate/STIM_010.jpg
1179.586	1.714	1	regulate	Run2	regulate/STIM_010.jpg
1184.845	1.579	1	regulate	Run2	regulate/STIM_010.jpg
1189.686	1.8	0	regulate	Run2	regulate/STIM_011.jpg
1193.519	2.714	1	regulate	Run2	regulate/STIM_011.jpg
1199.428	1.555	1	regulate	Run2	regulate/STIM_011.jpg
1203.793	1.643	1	regulate	Run2	regulate/STIM_011.jpg
1209.298	2.28	1	regulate	Run2	regulate/STIM_012.jpg
1213.631	1.793	1	regulate	Run2	regulate/STIM_012.jpg
1217.579	1.948	1	regulate	Run2	regulate/STIM_012.jpg
1222.497	1.479	1	regulate	Run2	regulate/STIM_012.jpg
1227.137	1.676	1	regulate	Run2	regulate/STIM_013.jpg
1231.786	2.356	1	regulate	Run2	regulate/STIM_013.jpg
1237.874	2.079	0	regulate	Run2	regulate/STIM_013.jpg
1242.38	1.126	1	regulate	Run2	regulate/STIM_013.jpg
1247.217	1.821	1	regulate	Run2	regulate/STIM_014.jpg
1252.131	2.144	1	regulate	Run2	regulate/STIM_014.jpg
1258.132	2.297	1	regulate	Run2	regulate/STIM_014.jpg
1264.268	1.96	1	regulate	Run2	regulate/STIM_014.jpg
1268.27	2.609	1	regulate	Run2	regulate/STIM_015.jpg
1272.941	1.666	1	regulate	Run2	regulate/STIM_015.jpg
1277.543	2.583	1	regulate	Run2	regulate/STIM_015.jpg
1283.019	2.245	1	regulate	Run2	regulate/STIM_015.jpg
1289.091	2.153	0	regulate	Run2	regulate/STIM_016.jpg
1294.568	2.42	1	regulate	Run2	regulate/STIM_016.jpg
1300.195	2.29	1	regulate	Run2	regulate/STIM_016.jpg
1305.825	1.358	1	regulate	Run2	regulate/STIM_016.jpg
1309.301	1.541	0	regulate	Run2	regulate/STIM_017.jpg
1313.487	2.555	1	regulate	Run2	regulate/STIM_017.jpg
1319.936	1.172	1	regulate	Run2	regulate/STIM_017.jpg
1324.883	2.025	1	regulate	Run2	regulate/STIM_017.jpg
1330.22	1.936	1	regulate	Run2	regulate/STIM_018.jpg
1335.869	2.55	1	regulate	Run2	regulate/STIM_018.jpg
1341.527	1.171	1	regulate	Run2	regulate/STIM_018.jpg
1346.437	2.282	1	regulate	Run2	regulate/STIM_018.jpg
1352.084	2.603	0	regulate	Run2	regulate/STIM_019.jpg
1357.226	1.917	1	regulate	Run2	regulate/STIM_019.jpg
1361.326	2.399	1	regulate	Run2	regulate/STIM_019.jpg
1366.482	1.245	1	regulate	Run2	regulate/STIM_019.jpg
1369.979	1.576	1	regulate	Run2	regulate/STIM_020.jpg
1375.393	1.809	1	regulate	Run2	regulate/STIM_020.jpg
1380.492	1.3	1	regulate	Run2	regulate/STIM_020.jpg
1384.6	1.288	1	regulate	Run2	regulate/STIM_020.jpg
1388.941	1.29	0	regulate	Run2	regulate/STIM_021.jpg
1393.698	2.237	1	regulate	Run2	regulate/STIM_021.jpg
1398.183	1.78	1	regulate	Run2	regulate/STIM_021.jpg
1402.216	1.477	1	regulate	Run2	regulate/STIM_021.jpg
1407.381	1.844	1	regulate	Run2	regulate/STIM_022.jpg
1411.299	2.737	1	regulate	Run2	regulate/STIM_022.jpg
1417.194	2.267	0	regulate	Run2	regulate/STIM_022.jpg
1423.139	1.429	1	regulate	Run2	regulate/STIM_022.jpg
1427.108	2.261	1	regulate	Run2	regulate/STIM_023.jpg
1432.529	1.879	1	regulate	Run2	regulate/STIM_023.jpg
1436.933	1.291	1	regulate	Run2	regulate/STIM_023.jpg
1441.012	1.432	1	regulate	Run2	regulate/STIM_023.jpg
1446.156	1.304	1	regulate	Run2	regulate/STIM_024.jpg
1450.03	2.302	1	regulate	Run2	regulate/STIM_024.jpg
1455.671	1.476	0	regulate	Run2	regulate/STIM_024.jpg
1459.803	2.068	0	regulate	Run2	regulate/STIM_024.jpg
1465.41	1.439	0	regulate	Run2	regulate/STIM_025.jpg
1470.573	2.488	1	regulate	Run2	regulate/STIM_025.jpg
1475.091	1.459	1	regulate	Run2	regulate/STIM_025.jpg
1479.233	2.248	1	regulate	Run2	regulate/STIM_025.jpg
1483.882	2.372	1	regulate	Run2	regulate/STIM_026.jpg
1489.467	1.597	1	regulate	Run2	regulate/STIM_026.jpg
1494.5	1.471	1	regulate	Run2	regulate/STIM_026.jpg
1498.426	1.907	1	regulate	Run2	regulate/STIM_026.jpg
1503.126	2.911	1	regulate	Run2	regulate/STIM_027.jpg
1508.784	1.971	1	regulate	Run2	regulate/STIM_027.jpg
1514.457	1.476	1	regulate	Run2	regulate/STIM_027.jpg
1519.323	2.332	1	regulate	Run2	regulate/STIM_027.jpg
1525.473	2.232	1	regulate	Run2	regulate/STIM_028.jpg
1530.541	2.465	1	regulate	Run2	regulate/STIM_028.jpg
1535.547	2.258	1	regulate	Run2	regulate/STIM_028.jpg
1540.147	1.446	1	regulate	Run2	regulate/STIM_028.jpg
1543.756	1.498	0	regulate	Run2	regulate/STIM_029.jpg
1547.427	2.378	0	regulate	Run2	regulate/STIM_029.jpg
1553.299	2.454	1	regulate	Run2	regulate/STIM_029.jpg
1558.225	1.885	1	regulate	Run2	regulate/STIM_029.jpg
1563.306	1.308	1	observe	Run2	observe/STIM_000.jpg
1568.427	1.467	1	observe	Run2	observe/STIM_000.jpg
1573.725	1.04	1	observe	Run2	observe/STIM_000.jpg
1578.242	1.476	1	observe	Run2	observe/STIM_000.jpg
1583.083	0.792	1	observe	Run2	observe/STIM_001.jpg
1587.007	1.083	1	observe	Run2	observe/STIM_001.jpg
1592.077	1.431	1	observe	Run2	observe/STIM_001.jpg
1596.367	1.035	1	observe	Run2	observe/STIM_001.jpg
1600.692	0.902	1	observe	Run2	observe/STIM_002.jpg
1605.022	1.051	1	observe	Run2	observe/STIM_002.jpg
1608.615	0.842	1	observe	Run2	observe/STIM_002.jpg
1612.459	1.3	1	observe	Run2	observe/STIM_002.jpg
1617.544	1.365	1	observe	Run2	observe/STIM_003.jpg
1622.088	1.062	1	observe	Run2	observe/STIM_003.jpg
1626.569	0.809	1	observe	Run2	observe/STIM_003.jpg
1629.82	0.919	1	observe	Run2	observe/STIM_003.jpg
1633.49	1.174	1	observe	Run2	observe/STIM_004.jpg
1638.31	0.893	1	observe	Run2	observe/STIM_004.jpg
1641.943	0.844	1	observe	Run2	observe/STIM_004.jpg
1645.223	0.935	1	observe	Run2	observe/STIM_004.jpg
1649.958	0.959	1	observe	Run2	observe/STIM_005.jpg
1654.657	0.81	1	observe	Run2	observe/STIM_005.jpg
1658.41	0.847	1	observe	Run2	observe/STIM_005.jpg
1662.49	0.792	1	observe	Run2	observe/STIM_005.jpg
1665.894	1.13	1	observe	Run2	observe/STIM_006.jpg
1669.55	1.224	1	observe	Run2	observe/STIM_006.jpg
1673.614	1.55	1	observe	Run2	observe/STIM_006.jpg
1678.601	0.925	1	observe	Run2	observe/STIM_006.jpg
1683.015	1.165	1	observe	Run2	observe/STIM_007.jpg
1686.735	1.351	1	observe	Run2	observe/STIM_007.jpg
1690.304	1.544	1	observe	Run2	observe/STIM_007.jpg
1694.667	1.04	1	observe	Run2	observe/STIM_007.jpg
1699.585	1.581	0	observe	Run2	observe/STIM_008.jpg
1704.505	1.259	1	observe	Run2	observe/STIM_008.jpg
1709.14	1.474	1	observe	Run2	observe/STIM_008.jpg
1713.317	1.238	0	observe	Run2	observe/STIM_008.jpg
1718.538	1.397	1	observe	Run2	observe/STIM_009.jpg
1723.423	0.83	1	observe	Run2	observe/STIM_009.jpg
1726.76	0.922	1	observe	Run2	observe/STIM_009.jpg
1730.496	1.236	1	observe	Run2	observe/STIM_009.jpg
1733.875	0.976	1	observe	Run2	observe/STIM_010.jpg
1737.817	1.514	1	observe	Run2	observe/STIM_010.jpg
1742.534	1.507	1	observe	Run2	observe/STIM_010.jpg
1747.462	1.502	1	observe	Run2	observe/STIM_010.jpg
1752.799	1.259	1	observe	Run2	observe/STIM_011.jpg
1757.876	1.227	1	observe	Run2	observe/STIM_011.jpg
1762.507	1.087	1	observe	Run2	observe/STIM_011.jpg
1766.242	0.85	1	observe	Run2	observe/STIM_011.jpg
1770.112	1.429	1	observe	Run2	observe/STIM_012.jpg
1774.205	1.449	0	observe	Run2	observe/STIM_012.jpg
1777.927	1.32	0	observe	Run2	observe/STIM_012.jpg
1781.806	1.366	0	observe	Run2	observe/STIM_012.jpg
1785.769	0.989	1	observe	Run2	observe/STIM_013.jpg
1790.659	1.48	1	observe	Run2	observe/STIM_013.jpg
1794.324	0.95	1	observe	Run2	observe/STIM_013.jpg
1797.555	1.221	1	observe	Run2	observe/STIM_013.jpg
1801.929	1.034	1	observe	Run2	observe/STIM_014.jpg
1805.587	0.843	1	observe	Run2	observe/STIM_014.jpg
1809.061	1.077	1	observe	Run2	observe/STIM_014.jpg
1813.568	1.558	0	observe	Run2	observe/STIM_014.jpg
1818.464	1.382	1	observe	Run2	observe/STIM_015.jpg
1823.254	1.481	1	observe	Run2	observe/STIM_015.jpg
1827.706	0.82	1	observe	Run2	observe/STIM_015.jpg
1831.781	1.354	1	observe	Run2	observe/STIM_015.jpg
1835.688	0.803	1	observe	Run2	observe/STIM_016.jpg
1839.994	0.969	1	observe	Run2	observe/STIM_016.jpg
1844.547	0.937	1	observe	Run2	observe/STIM_016.jpg
1848.535	1.319	1	observe	Run2	observe/STIM_016.jpg
1852.284	1.29	1	observe	Run2	observe/STIM_017.jpg
1857.078	1.412	0	observe	Run2	observe/STIM_017.jpg
1861.088	1.402	1	observe	Run2	observe/STIM_017.jpg
1866.226	0.834	1	observe	Run2	observe/STIM_017.jpg
1869.366	0.886	1	observe	Run2	observe/STIM_018.jpg
1873.477	1.148	1	observe	Run2	observe/STIM_018.jpg
1876.796	0.858	0	observe	Run2	observe/STIM_018.jpg
1880.004	1.093	0	observe	Run2	observe/STIM_018.jpg
1884.095	1.001	1	observe	Run2	observe/STIM_019.jpg
1888.208	1.445	0	observe	Run2	observe/STIM_019.jpg
1892.584	1.107	1	observe	Run2	observe/STIM_019.jpg
1896.684	1.392	1	observe	Run2	observe/STIM_019.jpg
1900.21	2.069	0	regulate	Run3	regulate/STIM_000.jpg
1905.778	1.544	1	regulate	Run3	regulate/STIM_000.jpg
1910.658	1.963	1	regulate	Run3	regulate/STIM_000.jpg
1916.619	2.322	1	regulate	Run3	regulate/STIM_000.jpg
1921.601	1.864	1	regulate	Run3	regulate/STIM_001.jpg
1926.249	1.27	1	regulate	Run3	regulate/STIM_001.jpg
1931.345	1.338	1	regulate	Run3	regulate/STIM_001.jpg
1935.097	1.503	1	regulate	Run3	regulate/STIM_001.jpg
1939.591	1.332	1	regulate	Run3	regulate/STIM_002.jpg
1944.704	2.408	1	regulate	Run3	regulate/STIM_002.jpg
1950.606	1.357	1	regulate	Run3	regulate/STIM_002.jpg
1954.576	1.917	1	regulate	Run3	regulate/STIM_002.jpg
1959.633	2.136	1	regulate	Run3	regulate/STIM_003.jpg
1964.374	1.725	1	regulate	Run3	regulate/STIM_003.jpg
1969.578	1.591	1	regulate	Run3	regulate/STIM_003.jpg
1974.403	1.556	1	regulate	Run3	regulate/STIM_003.jpg
1978.145	1.619	1	regulate	Run3	regulate/STIM_004.jpg
1982.02	2.252	1	regulate	Run3	regulate/STIM_004.jpg
1986.886	1.126	1	regulate	Run3	regulate/STIM_004.jpg
1991.122	1.827	1	regulate	Run3	regulate/STIM_004.jpg
1996.026	2.288	1	regulate	Run3	regulate/STIM_005.jpg
2000.566	2.339	1	regulate	Run3	regulate/STIM_005.jpg
2006.76	2.062	1	regulate	Run3	regulate/STIM_005.jpg
2010.998	1.427	1	regulate	Run3	regulate/STIM_005.jpg
2015.27	1.937	1	regulate	Run3	regulate/STIM_006.jpg
2020.245	2.128	1	regulate	Run3	regulate/STIM_006.jpg
2026.375	1.68	1	regulate	Run3	regulate/STIM_006.jpg
2030.707	2.274	1	regulate	Run3	regulate/STIM_006.jpg
2035.561	1.089	1	regulate	Run3	regulate/STIM_007.jpg
2040.098	2.418	1	regulate	Run3	regulate/STIM_007.jpg
2045.599	1.379	1	regulate	Run3	regulate/STIM_007.jpg
2050.094	2.244	1	regulate	Run3	regulate/STIM_007.jpg
2055.157	1.954	1	regulate	Run3	regulate/STIM_008.jpg
2060.616	1.794	1	regulate	Run3	regulate/STIM_008.jpg
2065.497	1.195	1	regulate	Run3	regulate/STIM_008.jpg
2069.589	1.79	1	regulate	Run3	regulate/STIM_008.jpg
2074.401	1.097	1	regulate	Run3	regulate/STIM_009.jpg
2078.077	1.365	1	regulate	Run3	regulate/STIM_009.jpg
2082.482	1.4	1	regulate	Run3	regulate/STIM_009.jpg
2087.162	1.11	1	regulate	Run3	regulate/STIM_009.jpg
2091.415	1.107	1	regulate	Run3	regulate/STIM_010.jpg
2095.976	1.549	1	regulate	Run3	regulate/STIM_010.jpg
2100.909	2.174	1	regulate	Run3	regulate/STIM_010.jpg
2106.156	2.015	1	regulate	Run3	regulate/STIM_010.jpg
2110.467	1.203	1	regulate	Run3	regulate/STIM_011.jpg
2114.263	2.316	1	regulate	Run3	regulate/STIM_011.jpg
2119.498	2.18	1	regulate	Run3	regulate/STIM_011.jpg
2124.288	1.869	1	regulate	Run3	regulate/STIM_011.jpg
2128.833	1.493	0	regulate	Run3	regulate/STIM_012.jpg
2134.255	1.58	1	regulate	Run3	regulate/STIM_012.jpg
2139.728	1.873	0	regulate	Run3	regulate/STIM_012.jpg
2144.467	2.178	1	regulate	Run3	regulate/STIM_012.jpg
2149.127	1.998	1	regulate	Run3	regulate/STIM_013.jpg
2154.624	1.852	1	regulate	Run3	regulate/STIM_013.jpg
2158.864	1.536	1	regulate	Run3	regulate/STIM_013.jpg
2162.735	2.401	1	regulate	Run3	regulate/STIM_013.jpg
2168.065	1.846	1	regulate	Run3	regulate/STIM_014.jpg
2173.274	1.079	1	regulate	Run3	regulate/STIM_014.jpg
2176.866	1.272	1	regulate	Run3	regulate/STIM_014.jpg
2181.773	2.211	1	regulate	Run3	regulate/STIM_014.jpg
2186.382	1.136	1	regulate	Run3	regulate/STIM_015.jpg
2189.885	2.211	1	regulate	Run3	regulate/STIM_015.jpg
2195.822	2.078	1	regulate	Run3	regulate/STIM_015.jpg
2200.631	1.406	1	regulate	Run3	regulate/STIM_015.jpg
2205.074	2.303	1	regulate	Run3	regulate/STIM_016.jpg
2210.419	1.155	1	regulate	Run3	regulate/STIM_016.jpg
2213.598	1.529	1	regulate	Run3	regulate/STIM_016.jpg
2217.879	2.085	1	regulate	Run3	regulate/STIM_016.jpg
2222.048	1.3	1	regulate	Run3	regulate/STIM_017.jpg
2226.092	2.048	0	regulate	Run3	regulate/STIM_017.jpg
2230.632	1.97	1	regulate	Run3	regulate/STIM_017.jpg
2235.331	1.924	1	regulate	Run3	regulate/STIM_017.jpg
2239.443	1.113	1	regulate	Run3	regulate/STIM_018.jpg
2243.277	1.809	1	regulate	Run3	regulate/STIM_018.jpg
2247.137	1.456	1	regulate	Run3	regulate/STIM_018.jpg
2250.97	2.078	1	regulate	Run3	regulate/STIM_018.jpg
2255.984	2.348	1	regulate	Run3	regulate/STIM_019.jpg
2262.129	1.051	1	regulate	Run3	regulate/STIM_019.jpg
2267.186	1.161	1	regulate	Run3	regulate/STIM_019.jpg
2271.077	1.258	1	regulate	Run3	regulate/STIM_019.jpg
2275.85	1.154	1	regulate	Run3	regulate/STIM_020.jpg
2280.755	2.114	1	regulate	Run3	regulate/STIM_020.jpg
2285.641	1.442	1	regulate	Run3	regulate/STIM_020.jpg
2289.624	1.702	1	regulate	Run3	regulate/STIM_020.jpg
2293.72	1.469	1	regulate	Run3	regulate/STIM_021.jpg
2298.782	1.436	1	regulate	Run3	regulate/STIM_021.jpg
2303.579	2.195	1	regulate	Run3	regulate/STIM_021.jpg
2309.59	1.48	1	regulate	Run3	regulate/STIM_021.jpg
2313.214	1.575	1	regulate	Run3	regulate/STIM_022.jpg
2318.066	1.61	1	regulate	Run3	regulate/STIM_022.jpg
2321.761	1.687	0	regulate	Run3	regulate/STIM_022.jpg
2326.444	1.825	1	regulate	Run3	regulate/STIM_022.jpg
2331.41	1.072	1	regulate	Run3	regulate/STIM_023.jpg
2336.468	1.736	1	regulate	Run3	regulate/STIM_023.jpg
2341.685	1.305	0	regulate	Run3	regulate/STIM_023.jpg
2345.758	2.012	1	regulate	Run3	regulate/STIM_023.jpg
2350.099	1.326	1	regulate	Run3	regulate/STIM_024.jpg
2353.46	1.746	1	regulate	Run3	regulate/STIM_024.jpg
2358.528	1.087	1	regulate	Run3	regulate/STIM_024.jpg
2362.598	2.337	1	regulate	Run3	regulate/STIM_024.jpg
2368.025	2.203	1	regulate	Run3	regulate/STIM_025.jpg
2373.316	1.347	1	regulate	Run3	regulate/STIM_025.jpg
2377.814	1.57	1	regulate	Run3	regulate/STIM_025.jpg
2382.548	2.039	1	regulate	Run3	regulate/STIM_025.jpg
2388.479	1.457	1	regulate	Run3	regulate/STIM_026.jpg
2392.382	1.263	1	regulate	Run3	regulate/STIM_026.jpg
2396.839	1.4	1	regulate	Run3	regulate/STIM_026.jpg
2401.724	1.476	1	regulate	Run3	regulate/STIM_026.jpg
2407.137	2.1	0	regulate	Run3	regulate/STIM_027.jpg
2412.281	1.041	1	regulate	Run3	regulate/STIM_027.jpg
2415.504	1.599	1	regulate	Run3	regulate/STIM_027.jpg
2419.643	1.239	1	regulate	Run3	regulate/STIM_027.jpg
2423.503	1.698	1	regulate	Run3	regulate/STIM_028.jpg
2428.739	2.089	1	regulate	Run3	regulate/STIM_028.jpg
2433.124	1.292	1	regulate	Run3	regulate/STIM_028.jpg
2438.024	1.072	1	regulate	Run3	regulate/STIM_028.jpg
2441.956	1.351	0	regulate	Run3	regulate/STIM_029.jpg
2446.782	1.225	1	regulate	Run3	regulate/STIM_029.jpg
2451.817	2.27	1	regulate	Run3	regulate/STIM_029.jpg
2457.689	1.33	1	regulate	Run3	regulate/STIM_029.jpg
2461.483	0.861	1	observe	Run3	observe/STIM_000.jpg
2466.354	0.875	1	observe	Run3	observe/STIM_000.jpg
2469.409	1.217	1	observe	Run3	observe/STIM_000.jpg
2473.983	0.914	1	observe	Run3	observe/STIM_000.jpg
2477.64	1.118	1	observe	Run3	observe/STIM_001.jpg
2481.524	1.037	1	observe	Run3	observe/STIM_001.jpg
2485.896	1.042	0	observe	Run3	observe/STIM_001.jpg
2490.906	1.426	1	observe	Run3	observe/STIM_001.jpg
2495.422	1.404	0	observe	Run3	observe/STIM_002.jpg
2500.67	1.442	1	observe	Run3	observe/STIM_002.jpg
2504.845	1.077	1	observe	Run3	observe/STIM_002.jpg
2507.98	1.028	1	observe	Run3	observe/STIM_002.jpg
2512.963	0.84	1	observe	Run3	observe/STIM_003.jpg
2516.49	1.132	1	observe	Run3	observe/STIM_003.jpg
2521.088	1.581	1	observe	Run3	observe/STIM_003.jpg
2526.572	0.944	1	observe	Run3	observe/STIM_003.jpg
2530.3	1.41	1	observe	Run3	observe/STIM_004.jpg
2534.102	1.198	1	observe	Run3	observe/STIM_004.jpg
2537.654	1.345	1	observe	Run3	observe/STIM_004.jpg
2542.644	1.252	1	observe	Run3	observe/STIM_004.jpg
2547.08	1.194	1	observe	Run3	observe/STIM_005.jpg
2551.386	1.572	1	observe	Run3	observe/STIM_005.jpg
2555.867	0.842	1	observe	Run3	observe/STIM_005.jpg
2560.348	1.478	1	observe	Run3	observe/STIM_005.jpg
2565.671	1.006	1	observe	Run3	observe/STIM_006.jpg
2569.188	0.944	0	observe	Run3	observe/STIM_006.jpg
2573.321	1.47	1	observe	Run3	observe/STIM_006.jpg
2577.317	1.32	1	observe	Run3	observe/STIM_006.jpg
2582.518	1.466	1	observe	Run3	observe/STIM_007.jpg
2586.399	1.047	1	observe	Run3	observe/STIM_007.jpg
2589.787	1.206	1	observe	Run3	observe/STIM_007.jpg
2593.855	1.236	1	observe	Run3	observe/STIM_007.jpg
2598.751	1.031	1	observe	Run3	observe/STIM_008.jpg
2602.862	1.005	1	observe	Run3	observe/STIM_008.jpg
2606.193	1.084	1	observe	Run3	observe/STIM_008.jpg
2611.108	0.922	1	observe	Run3	observe/STIM_008.jpg
2614.705	0.912	1	observe	Run3	observe/STIM_009.jpg
2619.079	1.473	1	observe	Run3	observe/STIM_009.jpg
2622.902	1.371	1	observe	Run3	observe/STIM_009.jpg
2627.627	0.814	1	observe	Run3	observe/STIM_009.jpg
2632.149	1.327	1	observe	Run3	observe/STIM_010.jpg
2637.029	0.944	1	observe	Run3	observe/STIM_010.jpg
2640.445	1.469	0	observe	Run3	observe/STIM_010.jpg
2644.951	1.138	1	observe	Run3	observe/STIM_010.jpg
2649.28	1.451	1	observe	Run3	observe/STIM_011.jpg
2653.537	0.962	1	observe	Run3	observe/STIM_011.jpg
2657.538	1.326	1	observe	Run3	observe/STIM_011.jpg
2661.086	1.411	0	observe	Run3	observe/STIM_011.jpg
2665.413	1.326	1	observe	Run3	observe/STIM_012.jpg
2670.596	1.402	1	observe	Run3	observe/STIM_012.jpg
2674.718	1.026	1	observe	Run3	observe/STIM_012.jpg
2677.961	1.322	1	observe	Run3	observe/STIM_012.jpg
2682.893	0.924	0	observe	Run3	observe/STIM_013.jpg
2686.937	0.993	1	observe	Run3	observe/STIM_013.jpg
2691.37	1.281	1	observe	Run3	observe/STIM_013.jpg
2696.271	0.92	1	observe	Run3	observe/STIM_013.jpg
2700.925	1.055	1	observe	Run3	observe/STIM_014.jpg
2704.659	0.89	0	observe	Run3	observe/STIM_014.jpg
2709.127	1.217	1	observe	Run3	observe/STIM_014.jpg
2713.827	1.194	0	observe	Run3	observe/STIM_014.jpg
2718.513	0.818	1	observe	Run3	observe/STIM_015.jpg
2721.892	1.44	1	observe	Run3	observe/STIM_015.jpg
2726.922	0.816	1	observe	Run3	observe/STIM_015.jpg
2731.617	1.335	1	observe	Run3	observe/STIM_015.jpg
2736.648	1.087	1	observe	Run3	observe/STIM_016.jpg
2740.442	1.463	1	observe	Run3	observe/STIM_016.jpg
2743.958	0.866	0	observe	Run3	observe/STIM_016.jpg
2748.169	1.1	1	observe	Run3	observe/STIM_016.jpg
2752.462	1.064	1	observe	Run3	observe/STIM_017.jpg
2756.261	0.916	1	observe	Run3	observe/STIM_017.jpg
2759.297	1.036	1	observe	Run3	observe/STIM_017.jpg
2764.03	0.943	1	observe	Run3	observe/STIM_017.jpg
2767.669	1.036	0	observe	Run3	observe/STIM_018.jpg
2772.503	1.17	1	observe	Run3	observe/STIM_018.jpg
2775.936	1.45	1	observe	Run3	observe/STIM_018.jpg
2780.675	1.22	1	observe	Run3	observe/STIM_018.jpg
2784.185	1.298	1	observe	Run3	observe/STIM_019.jpg
2787.647	1.112	0	observe	Run3	observe/STIM_019.jpg
2792.498	0.888	0	observe	Run3	observe/STIM_019.jpg
2796.407	1.09	1	observe	Run3	observe/STIM_019.jpg
