onset	duration	response_time_ms	trial_type	learning_stage	stimulus	response_port
0.0	2.152	2151.7	regulate	Run1	regulate/STIM_000.jpg	99
5.072	2.168	2168.5	regulate	Run1	regulate/STIM_000.jpg	99
9.374	1.319	1318.7	regulate	Run1	regulate/STIM_000.jpg	100
14.334	1.75	1749.5	regulate	Run1	regulate/STIM_000.jpg	99
18.952	2.859	2858.9	regulate	Run1	regulate/STIM_001.jpg	99
24.36	2.352	2351.7	regulate	Run1	regulate/STIM_001.jpg	100
29.957	2.534	2534.0	regulate	Run1	regulate/STIM_001.jpg	99
35.551	1.376	1376.5	regulate	Run1	regulate/STIM_001.jpg	100
39.579	2.401	2401.3	regulate	Run1	regulate/STIM_002.jpg	99
45.796	1.573	1573.2	regulate	Run1	regulate/STIM_002.jpg	100
51.196	1.998	1998.4	regulate	Run1	regulate/STIM_002.jpg	99
55.195	1.287	1287.1	regulate	Run1	regulate/STIM_002.jpg	100
60.133	1.945	1945.2	regulate	Run1	regulate/STIM_003.jpg	100
64.867	1.522	1521.6	regulate	Run1	regulate/STIM_003.jpg	100
70.28	2.248	2248.2	regulate	Run1	regulate/STIM_003.jpg	99
74.643	1.903	1903.1	regulate	Run1	regulate/STIM_003.jpg	99
79.515	2.312	2311.8	regulate	Run1	regulate/STIM_004.jpg	100
84.153	2.613	2612.7	regulate	Run1	regulate/STIM_004.jpg	100
90.482	1.143	1143.1	regulate	Run1	regulate/STIM_004.jpg	99
95.537	1.138	1137.6	regulate	Run1	regulate/STIM_004.jpg	100
100.091	2.4	2399.6	regulate	Run1	regulate/STIM_005.jpg	99
105.275	2.148	2147.9	regulate	Run1	regulate/STIM_005.jpg	99
109.624	2.169	2169.3	regulate	Run1	regulate/STIM_005.jpg	100
115.43	1.215	1214.6	regulate	Run1	regulate/STIM_005.jpg	100
118.649	2.464	2464.2	regulate	Run1	regulate/STIM_006.jpg	99
124.287	1.532	1532.3	regulate	Run1	regulate/STIM_006.jpg	99
128.304	1.51	1509.6	regulate	Run1	regulate/STIM_006.jpg	99
132.348	1.98	1980.1	regulate	Run1	regulate/STIM_006.jpg	99
136.422	1.824	1823.9	regulate	Run1	regulate/STIM_007.jpg	100
140.865	2.613	2612.7	regulate	Run1	regulate/STIM_007.jpg	99
145.627	1.174	1173.9	regulate	Run1	regulate/STIM_007.jpg	99
150.213	1.779	1778.6	regulate	Run1	regulate/STIM_007.jpg	99
154.847	2.692	2691.5	regulate	Run1	regulate/STIM_008.jpg	99
160.109	1.847	1846.7	regulate	Run1	regulate/STIM_008.jpg	99
164.628	2.141	2141.4	regulate	Run1	regulate/STIM_008.jpg	99
170.705	2.206	2206.1	regulate	Run1	regulate/STIM_008.jpg	99
176.721	2.372	2371.8	regulate	Run1	regulate/STIM_009.jpg	100
181.119	1.398	1397.9	regulate	Run1	regulate/STIM_009.jpg	100
184.621	2.48	2480.2	regulate	Run1	regulate/STIM_009.jpg	100
190.707	1.903	1902.9	regulate	Run1	regulate/STIM_009.jpg	100
194.884	2.86	2860.4	regulate	Run1	regulate/STIM_010.jpg	100
201.503	1.979	1978.7	regulate	Run1	regulate/STIM_010.jpg	100
206.326	2.412	2411.8	regulate	Run1	regulate/STIM_010.jpg	99
211.126	1.191	1191.0	regulate	Run1	regulate/STIM_010.jpg	100
214.602	2.144	2143.7	regulate	Run1	regulate/STIM_011.jpg	100
220.604	1.92	1920.4	regulate	Run1	regulate/STIM_011.jpg	99
226.233	1.24	1240.2	regulate	Run1	regulate/STIM_011.jpg	100
231.306	2.366	2366.2	regulate	Run1	regulate/STIM_011.jpg	100
235.969	2.456	2455.8	regulate	Run1	regulate/STIM_012.jpg	100
241.405	2.097	2097.4	regulate	Run1	regulate/STIM_012.jpg	99
247.414	2.449	2448.7	regulate	Run1	regulate/STIM_012.jpg	100
252.895	2.18	2179.8	regulate	Run1	regulate/STIM_012.jpg	100
258.333	2.813	2813.4	regulate	Run1	regulate/STIM_013.jpg	99
265.022	2.167	2167.4	regulate	Run1	regulate/STIM_013.jpg	99
269.239	1.621	1621.1	regulate	Run1	regulate/STIM_013.jpg	99
273.962	1.17	1170.1	regulate	Run1	regulate/STIM_013.jpg	100
278.561	2.516	2516.2	regulate	Run1	regulate/STIM_014.jpg	99
284.788	1.304	1304.1	regulate	Run1	regulate/STIM_014.jpg	100
288.793	1.2	1199.7	regulate	Run1	regulate/STIM_014.jpg	99
292.334	2.403	2403.1	regulate	Run1	regulate/STIM_014.jpg	100
298.216	2.751	2751.3	regulate	Run1	regulate/STIM_015.jpg	100
304.35	2.71	2710.2	regulate	Run1	regulate/STIM_015.jpg	99
310.574	2.161	2160.9	regulate	Run1	regulate/STIM_015.jpg	99
315.183	1.875	1875.1	regulate	Run1	regulate/STIM_015.jpg	100
320.347	1.821	1820.8	regulate	Run1	regulate/STIM_016.jpg	99
325.667	2.174	2174.2	regulate	Run1	regulate/STIM_016.jpg	100
331.015	1.416	1416.5	regulate	Run1	regulate/STIM_016.jpg	100
335.986	1.764	1763.6	regulate	Run1	regulate/STIM_016.jpg	100
341.238	1.99	1990.5	regulate	Run1	regulate/STIM_017.jpg	100
345.678	2.704	2703.7	regulate	Run1	regulate/STIM_017.jpg	100
350.483	2.161	2161.4	regulate	Run1	regulate/STIM_017.jpg	99
355.87	1.498	1498.3	regulate	Run1	regulate/STIM_017.jpg	100
360.611	1.598	1598.0	regulate	Run1	regulate/STIM_018.jpg	100
365.67	1.353	1352.9	regulate	Run1	regulate/STIM_018.jpg	99
369.282	1.884	1883.6	regulate	Run1	regulate/STIM_018.jpg	100
374.847	1.274	1273.8	regulate	Run1	regulate/STIM_018.jpg	99
379.618	1.255	1254.8	regulate	Run1	regulate/STIM_019.jpg	100
383.886	1.522	1522.4	regulate	Run1	regulate/STIM_019.jpg	99
388.208	2.06	2059.6	regulate	Run1	regulate/STIM_019.jpg	100
392.735	1.23	1229.7	regulate	Run1	regulate/STIM_019.jpg	99
396.74	2.3	2299.9	regulate	Run1	regulate/STIM_020.jpg	99
403.013	1.918	1918.0	regulate	Run1	regulate/STIM_020.jpg	99
407.537	1.719	1719.1	regulate	Run1	regulate/STIM_020.jpg	99
412.273	1.218	1217.8	regulate	Run1	regulate/STIM_020.jpg	100
416.162	2.68	2680.4	regulate	Run1	regulate/STIM_021.jpg	99
421.616	2.663	2662.8	regulate	Run1	regulate/STIM_021.jpg	99
428.195	1.616	1616.0	regulate	Run1	regulate/STIM_021.jpg	99
431.931	1.707	1706.7	regulate	Run1	regulate/STIM_021.jpg	100
436.188	2.841	2841.1	regulate	Run1	regulate/STIM_022.jpg	99
441.86	2.647	2646.9	regulate	Run1	regulate/STIM_022.jpg	100
446.853	2.299	2298.6	regulate	Run1	regulate/STIM_022.jpg	100
451.435	2.277	2277.3	regulate	Run1	regulate/STIM_022.jpg	99
456.676	2.378	2377.8	regulate	Run1	regulate/STIM_023.jpg	99
462.556	1.345	1344.8	regulate	Run1	regulate/STIM_023.jpg	99
466.657	1.642	1641.5	regulate	Run1	regulate/STIM_023.jpg	99
471.516	2.316	2315.8	regulate	Run1	regulate/STIM_023.jpg	100
477.612	2.196	2195.9	regulate	Run1	regulate/STIM_024.jpg	99
482.003	2.597	2596.8	regulate	Run1	regulate/STIM_024.jpg	99
486.659	1.701	1701.3	regulate	Run1	regulate/STIM_024.jpg	100
492.344	1.151	1151.0	regulate	Run1	regulate/STIM_024.jpg	100
496.249	1.503	1503.0	regulate	Run1	regulate/STIM_025.jpg	99
500.696	1.641	1640.8	regulate	Run1	regulate/STIM_025.jpg	100
505.67	2.126	2126.3	regulate	Run1	regulate/STIM_025.jpg	99
510.026	1.391	1391.2	regulate	Run1	regulate/STIM_025.jpg	100
514.811	1.794	1793.7	regulate	Run1	regulate/STIM_026.jpg	100
519.262	2.414	2414.4	regulate	Run1	regulate/STIM_026.jpg	99
524.362	1.901	1900.8	regulate	Run1	regulate/STIM_026.jpg	100
528.901	1.568	1567.7	regulate	Run1	regulate/STIM_026.jpg	99
532.976	1.852	1852.0	regulate	Run1	regulate/STIM_027.jpg	99
536.865	1.517	1516.7	regulate	Run1	regulate/STIM_027.jpg	99
542.09	2.114	2114.0	regulate	Run1	regulate/STIM_027.jpg	99
546.814	2.211	2210.6	regulate	Run1	regulate/STIM_027.jpg	99
551.616	2.066	2065.8	regulate	Run1	regulate/STIM_028.jpg	99
556.538	2.658	2657.6	regulate	Run1	regulate/STIM_028.jpg	100
561.664	1.246	1246.3	regulate	Run1	regulate/STIM_028.jpg	100
565.675	2.137	2137.0	regulate	Run1	regulate/STIM_028.jpg	99
571.705	1.464	1464.0	regulate	Run1	regulate/STIM_029.jpg	99
575.777	1.612	1612.3	regulate	Run1	regulate/STIM_029.jpg	99
579.645	1.431	1430.7	regulate	Run1	regulate/STIM_029.jpg	100
583.723	1.602	1602.4	regulate	Run1	regulate/STIM_029.jpg	99
588.369	0.748	747.5	observe	Run1	observe/STIM_000.jpg	100
592.744	0.854	853.9	observe	Run1	observe/STIM_000.jpg	100
596.45	1.076	1075.8	observe	Run1	observe/STIM_000.jpg	99
601.516	0.85	850.3	observe	Run1	observe/STIM_000.jpg	100
606.152	1.237	1237.2	observe	Run1	observe/STIM_001.jpg	100
610.558	0.722	722.3	observe	Run1	observe/STIM_001.jpg	99
613.872	0.773	772.8	observe	Run1	observe/STIM_001.jpg	99
617.188	0.8	799.5	observe	Run1	observe/STIM_001.jpg	99
620.679	1.194	1194.4	observe	Run1	observe/STIM_002.jpg	99
624.682	1.083	1083.4	observe	Run1	observe/STIM_002.jpg	100
629.628	1.147	1147.4	observe	Run1	observe/STIM_002.jpg	100
633.812	1.162	1162.0	observe	Run1	observe/STIM_002.jpg	100
637.806	0.86	859.8	observe	Run1	observe/STIM_003.jpg	99
640.926	1.292	1292.3	observe	Run1	observe/STIM_003.jpg	99
645.016	0.69	690.5	observe	Run1	observe/STIM_003.jpg	99
649.561	1.113	1113.2	observe	Run1	observe/STIM_003.jpg	100
653.993	1.045	1045.1	observe	Run1	observe/STIM_004.jpg	99
657.491	0.691	690.8	observe	Run1	observe/STIM_004.jpg	99
661.535	0.966	966.1	observe	Run1	observe/STIM_004.jpg	99
666.104	0.718	718.3	observe	Run1	observe/STIM_004.jpg	99
669.956	0.677	676.6	observe	Run1	observe/STIM_005.jpg	99
674.519	0.944	944.1	observe	Run1	observe/STIM_005.jpg	100
679.205	1.237	1237.3	observe	Run1	observe/STIM_005.jpg	100
684.049	1.163	1162.8	observe	Run1	observe/STIM_005.jpg	99
688.022	1.003	1002.8	observe	Run1	observe/STIM_006.jpg	99
691.471	0.934	933.5	observe	Run1	observe/STIM_006.jpg	99
694.668	0.812	812.0	observe	Run1	observe/STIM_006.jpg	100
697.602	1.056	1055.5	observe	Run1	observe/STIM_006.jpg	100
702.6	1.123	1122.7	observe	Run1	observe/STIM_007.jpg	100
706.763	0.922	921.8	observe	Run1	observe/STIM_007.jpg	100
710.456	1.199	1199.3	observe	Run1	observe/STIM_007.jpg	99
715.029	0.753	753.1	observe	Run1	observe/STIM_007.jpg	99
718.288	0.657	656.9	observe	Run1	observe/STIM_008.jpg	99
722.429	1.253	1253.2	observe	Run1	observe/STIM_008.jpg	99
726.25	1.106	1105.5	observe	Run1	observe/STIM_008.jpg	100
730.921	1.181	1181.2	observe	Run1	observe/STIM_008.jpg	99
734.106	1.233	1232.7	observe	Run1	observe/STIM_009.jpg	99
738.108	0.874	873.6	observe	Run1	observe/STIM_009.jpg	100
742.218	1.266	1266.4	observe	Run1	observe/STIM_009.jpg	99
747.193	1.192	1192.5	observe	Run1	observe/STIM_009.jpg	99
751.208	0.799	798.8	observe	Run1	observe/STIM_010.jpg	99
755.262	0.795	794.6	observe	Run1	observe/STIM_010.jpg	100
759.958	1.213	1213.1	observe	Run1	observe/STIM_010.jpg	99
763.867	0.656	656.1	observe	Run1	observe/STIM_010.jpg	100
766.681	1.001	1001.0	observe	Run1	observe/STIM_011.jpg	99
769.976	1.081	1080.9	observe	Run1	observe/STIM_011.jpg	99
773.713	1.138	1137.7	observe	Run1	observe/STIM_011.jpg	99
778.555	1.257	1257.1	observe	Run1	observe/STIM_011.jpg	99
781.838	1.184	1183.8	observe	Run1	observe/STIM_012.jpg	100
786.187	0.694	693.7	observe	Run1	observe/STIM_012.jpg	99
790.117	1.276	1276.4	observe	Run1	observe/STIM_012.jpg	100
794.541	1.039	1039.2	observe	Run1	observe/STIM_012.jpg	99
799.358	0.808	808.1	observe	Run1	observe/STIM_013.jpg	99
803.222	1.024	1024.4	observe	Run1	observe/STIM_013.jpg	100
806.505	0.735	734.7	observe	Run1	observe/STIM_013.jpg	100
809.398	0.826	826.0	observe	Run1	observe/STIM_013.jpg	99
813.092	0.763	763.4	observe	Run1	observe/STIM_014.jpg	100
816.516	1.001	1000.8	observe	Run1	observe/STIM_014.jpg	100
820.854	1.133	1132.7	observe	Run1	observe/STIM_014.jpg	100
825.161	0.884	884.1	observe	Run1	observe/STIM_014.jpg	100
829.622	1.036	1036.4	observe	Run1	observe/STIM_015.jpg	100
833.905	1.073	1072.9	observe	Run1	observe/STIM_015.jpg	100
837.627	1.159	1158.8	observe	Run1	observe/STIM_015.jpg	100
840.941	0.852	851.8	observe	Run1	observe/STIM_015.jpg	99
844.88	0.672	672.5	observe	Run1	observe/STIM_016.jpg	99
848.207	1.278	1278.4	observe	Run1	observe/STIM_016.jpg	100
852.877	1.079	1079.2	observe	Run1	observe/STIM_016.jpg	99
856.602	0.946	946.5	observe	Run1	observe/STIM_016.jpg	100
860.683	1.225	1224.8	observe	Run1	observe/STIM_017.jpg	99
864.44	0.726	725.5	observe	Run1	observe/STIM_017.jpg	99
868.412	0.832	831.8	observe	Run1	observe/STIM_017.jpg	100
871.342	0.799	798.8	observe	Run1	observe/STIM_017.jpg	100
875.777	0.912	912.2	observe	Run1	observe/STIM_018.jpg	100
878.945	1.244	1244.3	observe	Run1	observe/STIM_018.jpg	99
882.53	1.0	1000.5	observe	Run1	observe/STIM_018.jpg	100
886.761	1.106	1106.2	observe	Run1	observe/STIM_018.jpg	99
891.845	0.906	906.3	observe	Run1	observe/STIM_019.jpg	99
895.197	0.706	705.8	observe	Run1	observe/STIM_019.jpg	99
898.112	1.204	1204.1	observe	Run1	observe/STIM_019.jpg	100
902.078	1.161	1161.3	observe	Run1	observe/STIM_019.jpg	100
905.361	1.627	1627.0	regulate	Run2	regulate/STIM_000.jpg	100
910.117	1.498	1497.9	regulate	Run2	regulate/STIM_000.jpg	100
914.217	1.848	1848.4	regulate	Run2	regulate/STIM_000.jpg	100
919.011	1.027	1027.2	regulate	Run2	regulate/STIM_000.jpg	100
922.59	1.166	1166.0	regulate	Run2	regulate/STIM_001.jpg	99
926.253	1.0	1000.0	regulate	Run2	regulate/STIM_001.jpg	99
929.574	2.054	2054.0	regulate	Run2	regulate/STIM_001.jpg	100
934.942	1.406	1406.3	regulate	Run2	regulate/STIM_001.jpg	100
938.727	1.497	1497.4	regulate	Run2	regulate/STIM_002.jpg	99
943.639	2.019	2019.5	regulate	Run2	regulate/STIM_002.jpg	99
949.218	1.132	1132.3	regulate	Run2	regulate/STIM_002.jpg	99
953.742	1.481	1481.3	regulate	Run2	regulate/STIM_002.jpg	100
957.655	1.662	1662.1	regulate	Run2	regulate/STIM_003.jpg	99
962.812	1.688	1687.6	regulate	Run2	regulate/STIM_003.jpg	100
966.574	1.725	1724.7	regulate	Run2	regulate/STIM_003.jpg	100
972.28	1.112	1112.2	regulate	Run2	regulate/STIM_003.jpg	100
976.752	2.174	2174.4	regulate	Run2	regulate/STIM_004.jpg	100
981.149	2.27	2270.4	regulate	Run2	regulate/STIM_004.jpg	99
986.975	2.104	2104.3	regulate	Run2	regulate/STIM_004.jpg	100
991.954	1.341	1341.2	regulate	Run2	regulate/STIM_004.jpg	100
995.41	1.629	1629.3	regulate	Run2	regulate/STIM_005.jpg	99
1000.751	1.802	1801.9	regulate	Run2	regulate/STIM_005.jpg	99
1005.284	1.86	1859.5	regulate	Run2	regulate/STIM_005.jpg	100
1009.385	1.154	1153.7	regulate	Run2	regulate/STIM_005.jpg	99
1014.083	1.733	1733.0	regulate	Run2	regulate/STIM_006.jpg	99
1019.097	2.064	2063.6	regulate	Run2	regulate/STIM_006.jpg	100
1025.073	1.769	1768.7	regulate	Run2	regulate/STIM_006.jpg	100
1029.288	0.946	946.0	regulate	Run2	regulate/STIM_006.jpg	100
1033.786	1.177	1177.2	regulate	Run2	regulate/STIM_007.jpg	100
1038.515	2.148	2148.5	regulate	Run2	regulate/STIM_007.jpg	99
1043.33	2.045	2044.6	regulate	Run2	regulate/STIM_007.jpg	99
1047.861	1.837	1837.3	regulate	Run2	regulate/STIM_007.jpg	100
1052.05	1.939	1939.4	regulate	Run2	regulate/STIM_008.jpg	100
1056.322	1.595	1595.4	regulate	Run2	regulate/STIM_008.jpg	99
1061.526	1.95	1950.3	regulate	Run2	regulate/STIM_008.jpg	100
1066.27	1.694	1694.3	regulate	Run2	regulate/STIM_008.jpg	100
1070.95	1.159	1159.0	regulate	Run2	regulate/STIM_009.jpg	100
1075.395	1.387	1387.4	regulate	Run2	regulate/STIM_009.jpg	99
1079.882	1.788	1788.0	regulate	Run2	regulate/STIM_009.jpg	99
1084.068	1.812	1811.9	regulate	Run2	regulate/STIM_009.jpg	99
1089.783	1.941	1941.3	regulate	Run2	regulate/STIM_010.jpg	100
1093.913	2.148	2148.5	regulate	Run2	regulate/STIM_010.jpg	100
1099.743	1.652	1652.5	regulate	Run2	regulate/STIM_010.jpg	99
1103.86	1.585	1584.8	regulate	Run2	regulate/STIM_010.jpg	99
1108.154	1.338	1338.4	regulate	Run2	regulate/STIM_011.jpg	100
1112.653	1.424	1423.6	regulate	Run2	regulate/STIM_011.jpg	100
1116.127	1.014	1013.7	regulate	Run2	regulate/STIM_011.jpg	100
1120.595	1.724	1724.0	regulate	Run2	regulate/STIM_011.jpg	99
1124.469	1.88	1880.0	regulate	Run2	regulate/STIM_012.jpg	100
1130.219	1.914	1913.5	regulate	Run2	regulate/STIM_012.jpg	100
1134.148	1.524	1523.6	regulate	Run2	regulate/STIM_012.jpg	99
1138.897	1.995	1994.9	regulate	Run2	regulate/STIM_012.jpg	100
1143.642	2.082	2082.1	regulate	Run2	regulate/STIM_013.jpg	100
1148.313	2.043	2042.6	regulate	Run2	regulate/STIM_013.jpg	99
1153.55	1.191	1190.6	regulate	Run2	regulate/STIM_013.jpg	99
1157.293	1.67	1670.2	regulate	Run2	regulate/STIM_013.jpg	100
1162.624	1.496	1495.7	regulate	Run2	regulate/STIM_014.jpg	99
1168.061	2.121	2120.8	regulate	Run2	regulate/STIM_014.jpg	100
1173.454	1.358	1358.5	regulate	Run2	regulate/STIM_014.jpg	100
1176.901	1.577	1576.7	regulate	Run2	regulate/STIM_014.jpg	100
1181.506	1.475	1474.7	regulate	Run2	regulate/STIM_015.jpg	100
1185.774	1.911	1911.4	regulate	Run2	regulate/STIM_015.jpg	100
1191.014	1.6	1600.0	regulate	Run2	regulate/STIM_015.jpg	99
1195.155	1.79	1789.7	regulate	Run2	regulate/STIM_015.jpg	99
1200.041	1.946	1945.6	regulate	Run2	regulate/STIM_016.jpg	99
1204.7	1.132	1132.5	regulate	Run2	regulate/STIM_016.jpg	100
1208.393	1.712	1712.2	regulate	Run2	regulate/STIM_016.jpg	100
1214.01	1.664	1663.8	regulate	Run2	regulate/STIM_016.jpg	100
1218.674	1.862	1861.6	regulate	Run2	regulate/STIM_017.jpg	100
1223.764	2.29	2290.2	regulate	Run2	regulate/STIM_017.jpg	99
1229.557	2.046	2045.6	regulate	Run2	regulate/STIM_017.jpg	99
1233.81	0.998	998.0	regulate	Run2	regulate/STIM_017.jpg	99
1237.915	1.54	1539.8	regulate	Run2	regulate/STIM_018.jpg	99
1241.523	2.257	2257.0	regulate	Run2	regulate/STIM_018.jpg	100
1246.961	1.5	1500.1	regulate	Run2	regulate/STIM_018.jpg	99
1252.07	1.746	1745.6	regulate	Run2	regulate/STIM_018.jpg	99
1257.318	1.173	1172.9	regulate	Run2	regulate/STIM_019.jpg	100
1262.259	2.137	2137.2	regulate	Run2	regulate/STIM_019.jpg	100
1266.94	1.363	1362.7	regulate	Run2	regulate/STIM_019.jpg	99
1272.177	0.862	861.7	regulate	Run2	regulate/STIM_019.jpg	99
1276.378	2.379	2378.8	regulate	Run2	regulate/STIM_020.jpg	99
1282.374	1.47	1470.1	regulate	Run2	regulate/STIM_020.jpg	99
1286.877	1.049	1049.1	regulate	Run2	regulate/STIM_020.jpg	99
1290.619	1.048	1048.0	regulate	Run2	regulate/STIM_020.jpg	99
1294.506	1.746	1746.1	regulate	Run2	regulate/STIM_021.jpg	99
1299.608	2.221	2221.2	regulate	Run2	regulate/STIM_021.jpg	99
1305.822	1.568	1567.8	regulate	Run2	regulate/STIM_021.jpg	99
1311.137	1.874	1873.8	regulate	Run2	regulate/STIM_021.jpg	100
1315.802	1.278	1278.0	regulate	Run2	regulate/STIM_022.jpg	100
1320.038	2.218	2218.4	regulate	Run2	regulate/STIM_022.jpg	100
1324.47	1.48	1480.3	regulate	Run2	regulate/STIM_022.jpg	99
1328.11	1.938	1937.9	regulate	Run2	regulate/STIM_022.jpg	100
1332.363	2.395	2394.7	regulate	Run2	regulate/STIM_023.jpg	100
1336.884	1.352	1352.5	regulate	Run2	regulate/STIM_023.jpg	99
1341.003	1.016	1015.9	regulate	Run2	regulate/STIM_023.jpg	99
1345.924	1.122	1121.8	regulate	Run2	regulate/STIM_023.jpg	100
1350.268	1.25	1249.8	regulate	Run2	regulate/STIM_024.jpg	100
1354.522	1.413	1413.4	regulate	Run2	regulate/STIM_024.jpg	100
1359.575	1.123	1123.3	regulate	Run2	regulate/STIM_024.jpg	99
1363.334	1.158	1157.9	regulate	Run2	regulate/STIM_024.jpg	99
1366.925	1.613	1612.8	regulate	Run2	regulate/STIM_025.jpg	100
1371.408	1.08	1079.5	regulate	Run2	regulate/STIM_025.jpg	100
1375.91	1.607	1606.8	regulate	Run2	regulate/STIM_025.jpg	99
1379.837	1.187	1187.4	regulate	Run2	regulate/STIM_025.jpg	99
1383.403	1.052	1051.6	regulate	Run2	regulate/STIM_026.jpg	99
1387.599	1.549	1548.6	regulate	Run2	regulate/STIM_026.jpg	99
1392.869	1.784	1784.3	regulate	Run2	regulate/STIM_026.jpg	100
1396.657	1.281	1281.2	regulate	Run2	regulate/STIM_026.jpg	99
1401.591	2.204	2203.7	regulate	Run2	regulate/STIM_027.jpg	100
1406.271	1.824	1824.2	regulate	Run2	regulate/STIM_027.jpg	99
1411.908	1.727	1727.0	regulate	Run2	regulate/STIM_027.jpg	99
1416.447	0.952	952.5	regulate	Run2	regulate/STIM_027.jpg	100
1420.929	2.047	2047.5	regulate	Run2	regulate/STIM_028.jpg	99
1425.177	1.048	1047.9	regulate	Run2	regulate/STIM_028.jpg	99
1429.946	1.921	1921.0	regulate	Run2	regulate/STIM_028.jpg	100
1435.684	1.743	1743.3	regulate	Run2	regulate/STIM_028.jpg	99
1440.348	1.322	1321.8	regulate	Run2	regulate/STIM_029.jpg	99
1444.482	1.044	1043.7	regulate	Run2	regulate/STIM_029.jpg	99
1449.129	1.331	1330.8	regulate	Run2	regulate/STIM_029.jpg	100
1452.828	1.414	1413.8	regulate	Run2	regulate/STIM_029.jpg	100
1457.807	0.976	975.7	observe	Run2	observe/STIM_000.jpg	99
1461.304	0.726	725.5	observe	Run2	observe/STIM_000.jpg	99
1465.486	0.976	976.5	observe	Run2	observe/STIM_000.jpg	100
1468.489	0.789	788.8	observe	Run2	observe/STIM_000.jpg	100
1472.863	1.214	1213.9	observe	Run2	observe/STIM_001.jpg	99
1477.544	1.291	1291.0	observe	Run2	observe/STIM_001.jpg	100
1481.285	1.101	1100.8	observe	Run2	observe/STIM_001.jpg	99
1485.721	0.679	678.8	observe	Run2	observe/STIM_001.jpg	99
1488.813	1.032	1032.3	observe	Run2	observe/STIM_002.jpg	99
1493.048	1.265	1265.2	observe	Run2	observe/STIM_002.jpg	99
1498.245	0.918	917.6	observe	Run2	observe/STIM_002.jpg	99
1501.91	1.218	1217.6	observe	Run2	observe/STIM_002.jpg	99
1506.015	0.854	854.2	observe	Run2	observe/STIM_003.jpg	100
1508.966	0.737	737.1	observe	Run2	observe/STIM_003.jpg	100
1513.379	0.81	810.0	observe	Run2	observe/STIM_003.jpg	99
1518.015	0.681	681.1	observe	Run2	observe/STIM_003.jpg	100
1521.672	1.249	1248.9	observe	Run2	observe/STIM_004.jpg	100
1526.789	0.698	697.6	observe	Run2	observe/STIM_004.jpg	99
1530.998	0.927	926.7	observe	Run2	observe/STIM_004.jpg	99
1534.92	0.694	694.5	observe	Run2	observe/STIM_004.jpg	100
1538.804	0.97	970.1	observe	Run2	observe/STIM_005.jpg	99
1543.491	0.743	743.4	observe	Run2	observe/STIM_005.jpg	99
1546.493	1.182	1181.5	observe	Run2	observe/STIM_005.jpg	100
1550.519	0.772	771.6	observe	Run2	observe/STIM_005.jpg	100
1554.523	0.679	679.3	observe	Run2	observe/STIM_006.jpg	99
1558.178	1.212	1211.8	observe	Run2	observe/STIM_006.jpg	100
1562.334	1.303	1303.2	observe	Run2	observe/STIM_006.jpg	99
1566.364	0.955	955.3	observe	Run2	observe/STIM_006.jpg	100
1570.91	1.078	1078.3	observe	Run2	observe/STIM_007.jpg	99
1575.777	1.144	1144.4	observe	Run2	observe/STIM_007.jpg	100
1580.347	1.25	1249.5	observe	Run2	observe/STIM_007.jpg	100
1583.694	0.656	655.6	observe	Run2	observe/STIM_007.jpg	99
1587.784	1.116	1116.1	observe	Run2	observe/STIM_008.jpg	100
1592.827	1.308	1308.5	observe	Run2	observe/STIM_008.jpg	100
1596.285	1.239	1238.7	observe	Run2	observe/STIM_008.jpg	100
1600.325	1.187	1187.1	observe	Run2	observe/STIM_008.jpg	100
1603.99	0.745	745.1	observe	Run2	observe/STIM_009.jpg	99
1608.163	0.669	668.8	observe	Run2	observe/STIM_009.jpg	100
1612.776	0.733	732.6	observe	Run2	observe/STIM_009.jpg	100
1615.572	1.255	1254.6	observe	Run2	observe/STIM_009.jpg	100
1620.723	1.228	1228.0	observe	Run2	observe/STIM_010.jpg	100
1624.159	1.169	1168.7	observe	Run2	observe/STIM_010.jpg	100
1627.592	1.065	1064.7	observe	Run2	observe/STIM_010.jpg	99
1631.242	1.145	1145.0	observe	Run2	observe/STIM_010.jpg	100
1634.507	0.707	707.1	observe	Run2	observe/STIM_011.jpg	99
1638.014	0.744	744.1	observe	Run2	observe/STIM_011.jpg	99
1642.73	0.694	693.5	observe	Run2	observe/STIM_011.jpg	99
1647.225	1.035	1034.6	observe	Run2	observe/STIM_011.jpg	100
1651.679	1.264	1264.0	observe	Run2	observe/STIM_012.jpg	99
1656.431	1.102	1101.6	observe	Run2	observe/STIM_012.jpg	99
1660.588	1.303	1302.8	observe	Run2	observe/STIM_012.jpg	99
1665.828	1.21	1210.5	observe	Run2	observe/STIM_012.jpg	100
1669.36	0.872	871.8	observe	Run2	observe/STIM_013.jpg	99
1674.217	1.056	1055.5	observe	Run2	observe/STIM_013.jpg	99
1677.392	0.962	962.2	observe	Run2	observe/STIM_013.jpg	99
1681.76	0.893	893.1	observe	Run2	observe/STIM_013.jpg	99
1684.965	1.165	1165.4	observe	Run2	observe/STIM_014.jpg	99
1688.988	0.898	898.0	observe	Run2	observe/STIM_014.jpg	100
1693.706	1.015	1014.8	observe	Run2	observe/STIM_014.jpg	99
1697.712	0.675	674.7	observe	Run2	observe/STIM_014.jpg	100
1701.738	0.71	710.4	observe	Run2	observe/STIM_015.jpg	100
1705.946	0.951	951.4	observe	Run2	observe/STIM_015.jpg	100
1710.879	1.073	1073.1	observe	Run2	observe/STIM_015.jpg	100
1715.755	0.99	990.2	observe	Run2	observe/STIM_015.jpg	99
1719.443	1.208	1208.5	observe	Run2	observe/STIM_016.jpg	100
1724.505	0.736	736.5	observe	Run2	observe/STIM_016.jpg	99
1729.061	0.934	934.5	observe	Run2	observe/STIM_016.jpg	99
1732.325	0.839	839.4	observe	Run2	observe/STIM_016.jpg	100
1735.332	0.818	817.5	observe	Run2	observe/STIM_017.jpg	99
1739.324	0.949	948.8	observe	Run2	observe/STIM_017.jpg	99
1742.411	1.253	1252.6	observe	Run2	observe/STIM_017.jpg	99
1746.494	1.062	1062.4	observe	Run2	observe/STIM_017.jpg	100
1750.535	0.976	976.3	observe	Run2	observe/STIM_018.jpg	100
1753.681	0.942	942.5	observe	Run2	observe/STIM_018.jpg	99
1757.108	1.155	1155.2	observe	Run2	observe/STIM_018.jpg	99
1760.892	0.72	720.1	observe	Run2	observe/STIM_018.jpg	99
1764.27	0.955	954.7	observe	Run2	observe/STIM_019.jpg	99
1767.443	1.202	1201.8	observe	Run2	observe/STIM_019.jpg	99
1772.123	1.033	1032.6	observe	Run2	observe/STIM_019.jpg	100
1777.07	1.265	1264.8	observe	Run2	observe/STIM_019.jpg	99
1780.418	1.227	1226.7	regulate	Run3	regulate/STIM_000.jpg	100
1785.56	1.715	1715.3	regulate	Run3	regulate/STIM_000.jpg	99
1789.339	1.747	1746.9	regulate	Run3	regulate/STIM_000.jpg	99
1794.112	1.971	1971.2	regulate	Run3	regulate/STIM_000.jpg	99
1799.274	1.109	1109.0	regulate	Run3	regulate/STIM_001.jpg	100
1802.672	1.612	1612.0	regulate	Run3	regulate/STIM_001.jpg	99
1807.402	1.173	1173.3	regulate	Run3	regulate/STIM_001.jpg	99
1810.83	1.288	1288.4	regulate	Run3	regulate/STIM_001.jpg	100
1814.981	1.12	1120.4	regulate	Run3	regulate/STIM_002.jpg	100
1818.924	1.102	1102.0	regulate	Run3	regulate/STIM_002.jpg	99
1822.76	1.12	1119.7	regulate	Run3	regulate/STIM_002.jpg	99
1826.012	1.426	1425.8	regulate	Run3	regulate/STIM_002.jpg	99
1830.343	1.801	1801.3	regulate	Run3	regulate/STIM_003.jpg	100
1835.611	0.936	935.6	regulate	Run3	regulate/STIM_003.jpg	100
1839.649	1.99	1989.5	regulate	Run3	regulate/STIM_003.jpg	100
1845.471	1.725	1724.8	regulate	Run3	regulate/STIM_003.jpg	100
1850.375	1.604	1603.8	regulate	Run3	regulate/STIM_004.jpg	100
1855.639	1.355	1355.1	regulate	Run3	regulate/STIM_004.jpg	100
1860.531	1.448	1448.0	regulate	Run3	regulate/STIM_004.jpg	99
1864.135	1.656	1656.3	regulate	Run3	regulate/STIM_004.jpg	99
1867.813	1.47	1470.4	regulate	Run3	regulate/STIM_005.jpg	100
1872.483	1.842	1841.8	regulate	Run3	regulate/STIM_005.jpg	100
1877.359	1.22	1220.2	regulate	Run3	regulate/STIM_005.jpg	99
1882.399	1.81	1810.2	regulate	Run3	regulate/STIM_005.jpg	100
1887.993	2.003	2002.9	regulate	Run3	regulate/STIM_006.jpg	99
1893.77	0.934	934.5	regulate	Run3	regulate/STIM_006.jpg	100
1898.147	0.872	871.8	regulate	Run3	regulate/STIM_006.jpg	99
1901.698	1.41	1409.5	regulate	Run3	regulate/STIM_006.jpg	99
1907.0	1.406	1405.9	regulate	Run3	regulate/STIM_007.jpg	100
1910.444	1.786	1785.5	regulate	Run3	regulate/STIM_007.jpg	100
1915.436	1.655	1654.7	regulate	Run3	regulate/STIM_007.jpg	99
1919.682	1.186	1186.1	regulate	Run3	regulate/STIM_007.jpg	99
1922.988	1.789	1788.9	regulate	Run3	regulate/STIM_008.jpg	99
1928.136	1.106	1105.9	regulate	Run3	regulate/STIM_008.jpg	99
1932.91	1.052	1051.8	regulate	Run3	regulate/STIM_008.jpg	100
1937.75	0.983	982.9	regulate	Run3	regulate/STIM_008.jpg	100
1941.793	1.619	1618.7	regulate	Run3	regulate/STIM_009.jpg	99
1945.447	1.192	1192.0	regulate	Run3	regulate/STIM_009.jpg	100
1949.144	1.918	1918.3	regulate	Run3	regulate/STIM_009.jpg	99
1954.096	1.969	1969.1	regulate	Run3	regulate/STIM_009.jpg	100
1959.397	1.134	1134.5	regulate	Run3	regulate/STIM_010.jpg	100
1963.26	1.072	1071.9	regulate	Run3	regulate/STIM_010.jpg	99
1966.365	1.076	1075.7	regulate	Run3	regulate/STIM_010.jpg	100
1970.725	1.889	1888.9	regulate	Run3	regulate/STIM_010.jpg	100
1975.255	1.845	1845.3	regulate	Run3	regulate/STIM_011.jpg	99
1979.774	1.575	1575.2	regulate	Run3	regulate/STIM_011.jpg	100
1983.936	1.835	1835.1	regulate	Run3	regulate/STIM_011.jpg	99
1989.235	1.578	1577.9	regulate	Run3	regulate/STIM_011.jpg	100
1993.461	1.463	1463.4	regulate	Run3	regulate/STIM_012.jpg	100
1997.243	1.294	1294.0	regulate	Run3	regulate/STIM_012.jpg	99
2000.964	1.283	1283.2	regulate	Run3	regulate/STIM_012.jpg	100
2004.74	1.265	1264.9	regulate	Run3	regulate/STIM_012.jpg	99
2009.115	1.769	1769.0	regulate	Run3	regulate/STIM_013.jpg	99
2013.9	1.358	1358.3	regulate	Run3	regulate/STIM_013.jpg	100
2018.757	1.991	1991.2	regulate	Run3	regulate/STIM_013.jpg	99
2023.576	1.26	1259.8	regulate	Run3	regulate/STIM_013.jpg	99
2028.574	1.387	1386.6	regulate	Run3	regulate/STIM_014.jpg	99
2033.864	1.684	1683.5	regulate	Run3	regulate/STIM_014.jpg	100
2038.209	1.487	1487.2	regulate	Run3	regulate/STIM_014.jpg	99
2041.783	1.052	1052.4	regulate	Run3	regulate/STIM_014.jpg	99
2045.512	0.973	973.2	regulate	Run3	regulate/STIM_015.jpg	99
2050.278	1.783	1783.1	regulate	Run3	regulate/STIM_015.jpg	100
2055.424	0.991	990.7	regulate	Run3	regulate/STIM_015.jpg	99
2060.127	1.335	1334.7	regulate	Run3	regulate/STIM_015.jpg	100
2064.788	1.986	1985.5	regulate	Run3	regulate/STIM_016.jpg	99
2070.487	0.961	961.2	regulate	Run3	regulate/STIM_016.jpg	99
2074.904	1.208	1208.1	regulate	Run3	regulate/STIM_016.jpg	100
2078.169	1.945	1945.0	regulate	Run3	regulate/STIM_016.jpg	100
2083.896	0.907	906.9	regulate	Run3	regulate/STIM_017.jpg	100
2088.402	1.444	1444.4	regulate	Run3	regulate/STIM_017.jpg	100
2093.477	0.916	915.5	regulate	Run3	regulate/STIM_017.jpg	99
2097.158	1.813	1812.7	regulate	Run3	regulate/STIM_017.jpg	99
2102.758	1.799	1798.9	regulate	Run3	regulate/STIM_018.jpg	99
2107.079	1.816	1816.0	regulate	Run3	regulate/STIM_018.jpg	99
2111.923	0.992	991.6	regulate	Run3	regulate/STIM_018.jpg	99
2115.15	1.273	1273.0	regulate	Run3	regulate/STIM_018.jpg	99
2119.203	1.823	1823.0	regulate	Run3	regulate/STIM_019.jpg	100
2123.045	1.81	1810.2	regulate	Run3	regulate/STIM_019.jpg	99
2127.318	1.785	1784.7	regulate	Run3	regulate/STIM_019.jpg	100
2132.689	0.883	882.8	regulate	Run3	regulate/STIM_019.jpg	99
2136.289	0.936	936.0	regulate	Run3	regulate/STIM_020.jpg	99
2139.943	0.949	948.8	regulate	Run3	regulate/STIM_020.jpg	100
2143.288	0.896	896.4	regulate	Run3	regulate/STIM_020.jpg	99
2148.056	1.291	1290.9	regulate	Run3	regulate/STIM_020.jpg	99
2152.229	1.854	1854.2	regulate	Run3	regulate/STIM_021.jpg	99
2157.207	1.296	1295.7	regulate	Run3	regulate/STIM_021.jpg	99
2162.199	0.933	933.1	regulate	Run3	regulate/STIM_021.jpg	99
2165.441	1.427	1427.4	regulate	Run3	regulate/STIM_021.jpg	100
2169.001	0.953	953.1	regulate	Run3	regulate/STIM_022.jpg	99
2173.611	1.163	1163.4	regulate	Run3	regulate/STIM_022.jpg	100
2176.879	1.854	1854.1	regulate	Run3	regulate/STIM_022.jpg	100
2182.18	1.669	1668.8	regulate	Run3	regulate/STIM_022.jpg	99
2186.967	1.519	1518.7	regulate	Run3	regulate/STIM_023.jpg	99
2192.17	1.244	1244.1	regulate	Run3	regulate/STIM_023.jpg	100
2196.4	1.362	1361.7	regulate	Run3	regulate/STIM_023.jpg	99
2201.27	1.864	1864.0	regulate	Run3	regulate/STIM_023.jpg	99
2205.791	1.065	1065.2	regulate	Run3	regulate/STIM_024.jpg	100
2209.988	1.765	1765.3	regulate	Run3	regulate/STIM_024.jpg	100
2214.185	1.468	1468.0	regulate	Run3	regulate/STIM_024.jpg	99
2219.249	1.156	1156.5	regulate	Run3	regulate/STIM_024.jpg	100
2223.822	1.703	1702.6	regulate	Run3	regulate/STIM_025.jpg	99
2229.022	0.991	990.9	regulate	Run3	regulate/STIM_025.jpg	100
2232.633	0.98	979.5	regulate	Run3	regulate/STIM_025.jpg	100
2235.925	1.462	1461.9	regulate	Run3	regulate/STIM_025.jpg	100
2240.343	1.899	1899.1	regulate	Run3	regulate/STIM_026.jpg	100
2246.188	1.576	1576.5	regulate	Run3	regulate/STIM_026.jpg	100
2250.039	1.289	1289.3	regulate	Run3	regulate/STIM_026.jpg	100
2254.706	1.455	1455.3	regulate	Run3	regulate/STIM_026.jpg	99
2259.43	1.978	1977.9	regulate	Run3	regulate/STIM_027.jpg	100
2263.655	1.871	1871.2	regulate	Run3	regulate/STIM_027.jpg	99
2269.04	1.779	1779.1	regulate	Run3	regulate/STIM_027.jpg	100
2273.735	1.484	1483.5	regulate	Run3	regulate/STIM_027.jpg	100
2278.559	1.797	1797.0	regulate	Run3	regulate/STIM_028.jpg	100
2283.446	1.831	1831.3	regulate	Run3	regulate/STIM_028.jpg	99
2288.683	1.465	1464.8	regulate	Run3	regulate/STIM_028.jpg	100
2293.532	1.542	1541.9	regulate	Run3	regulate/STIM_028.jpg	100
2298.858	1.055	1055.2	regulate	Run3	regulate/STIM_029.jpg	100
2302.585	1.413	1413.4	regulate	Run3	regulate/STIM_029.jpg	100
2306.87	1.174	1174.4	regulate	Run3	regulate/STIM_029.jpg	100
2310.161	1.791	1791.4	regulate	Run3	regulate/STIM_029.jpg	100
2315.02	0.709	709.2	observe	Run3	observe/STIM_000.jpg	100
2319.519	1.204	1204.5	observe	Run3	observe/STIM_000.jpg	100
2323.504	0.726	726.2	observe	Run3	observe/STIM_000.jpg	99
2327.145	1.205	1205.3	observe	Run3	observe/STIM_000.jpg	99
2331.07	0.729	728.6	observe	Run3	observe/STIM_001.jpg	100
2335.515	0.832	832.3	observe	Run3	observe/STIM_001.jpg	100
2339.523	0.875	875.3	observe	Run3	observe/STIM_001.jpg	100
2343.22	0.973	972.9	observe	Run3	observe/STIM_001.jpg	100
2347.61	1.118	1117.6	observe	Run3	observe/STIM_002.jpg	99
2351.007	1.088	1088.0	observe	Run3	observe/STIM_002.jpg	99
2354.794	0.916	916.4	observe	Run3	observe/STIM_002.jpg	99
2359.642	0.878	878.4	observe	Run3	observe/STIM_002.jpg	99
2362.778	0.844	844.0	observe	Run3	observe/STIM_003.jpg	100
2366.317	0.676	676.1	observe	Run3	observe/STIM_003.jpg	100
2370.99	1.301	1301.1	observe	Run3	observe/STIM_003.jpg	100
2374.898	1.157	1156.9	observe	Run3	observe/STIM_003.jpg	100
2379.123	0.957	956.7	observe	Run3	observe/STIM_004.jpg	99
2383.421	1.146	1146.5	observe	Run3	observe/STIM_004.jpg	99
2387.012	1.081	1081.2	observe	Run3	observe/STIM_004.jpg	100
2390.232	0.662	661.6	observe	Run3	observe/STIM_004.jpg	100
2394.486	0.808	807.6	observe	Run3	observe/STIM_005.jpg	100
2398.211	0.759	759.1	observe	Run3	observe/STIM_005.jpg	100
2402.812	1.171	1171.2	observe	Run3	observe/STIM_005.jpg	100
2406.889	1.222	1221.9	observe	Run3	observe/STIM_005.jpg	99
2411.377	1.065	1064.6	observe	Run3	observe/STIM_006.jpg	99
2415.91	0.66	660.2	observe	Run3	observe/STIM_006.jpg	99
2419.643	0.794	794.5	observe	Run3	observe/STIM_006.jpg	99
2422.805	1.145	1145.0	observe	Run3	observe/STIM_006.jpg	100
2427.195	0.932	932.1	observe	Run3	observe/STIM_007.jpg	100
2431.979	1.135	1135.1	observe	Run3	observe/STIM_007.jpg	100
2436.532	0.841	841.0	observe	Run3	observe/STIM_007.jpg	99
2439.764	1.004	1003.5	observe	Run3	observe/STIM_007.jpg	100
2444.414	0.74	740.0	observe	Run3	observe/STIM_008.jpg	99
2448.348	1.024	1023.9	observe	Run3	observe/STIM_008.jpg	100
2451.743	0.767	767.2	observe	Run3	observe/STIM_008.jpg	99
2455.556	1.072	1072.4	observe	Run3	observe/STIM_008.jpg	99
2460.547	1.177	1177.4	observe	Run3	observe/STIM_009.jpg	99
2464.931	1.17	1169.7	observe	Run3	observe/STIM_009.jpg	100
2469.534	0.83	829.7	observe	Run3	observe/STIM_009.jpg	100
2472.957	1.259	1258.6	observe	Run3	observe/STIM_009.jpg	99
2477.985	1.013	1013.1	observe	Run3	observe/STIM_010.jpg	100
2481.912	1.201	1201.3	observe	Run3	observe/STIM_010.jpg	100
2485.387	0.68	679.6	observe	Run3	observe/STIM_010.jpg	100
2488.763	1.133	1132.7	observe	Run3	observe/STIM_010.jpg	99
2492.747	0.899	898.8	observe	Run3	observe/STIM_011.jpg	100
2497.309	1.146	1145.6	observe	Run3	observe/STIM_011.jpg	100
2500.497	0.727	727.4	observe	Run3	observe/STIM_011.jpg	99
2504.784	0.7	699.8	observe	Run3	observe/STIM_011.jpg	99
2507.822	1.063	1062.7	observe	Run3	observe/STIM_012.jpg	99
2512.805	0.948	948.3	observe	Run3	observe/STIM_012.jpg	100
2517.446	0.906	905.8	observe	Run3	observe/STIM_012.jpg	99
2521.885	1.039	1038.6	observe	Run3	observe/STIM_012.jpg	99
2525.534	0.921	920.6	observe	Run3	observe/STIM_013.jpg	100
2528.458	0.728	727.7	observe	Run3	observe/STIM_013.jpg	99
2531.451	1.034	1034.1	observe	Run3	observe/STIM_013.jpg	100
2535.984	1.194	1193.5	observe	Run3	observe/STIM_013.jpg	100
2539.926	0.728	727.8	observe	Run3	observe/STIM_014.jpg	99
2544.128	0.879	878.8	observe	Run3	observe/STIM_014.jpg	99
2547.277	0.665	665.2	observe	Run3	observe/STIM_014.jpg	99
2551.713	1.144	1144.0	observe	Run3	observe/STIM_014.jpg	100
2556.441	1.238	1238.0	observe	Run3	observe/STIM_015.jpg	100
2559.772	0.922	922.2	observe	Run3	observe/STIM_015.jpg	100
2564.225	0.826	825.5	observe	Run3	observe/STIM_015.jpg	100
2568.05	0.985	984.9	observe	Run3	observe/STIM_015.jpg	99
2572.688	1.254	1254.1	observe	Run3	observe/STIM_016.jpg	99
2577.848	0.726	725.5	observe	Run3	observe/STIM_016.jpg	99
2582.447	0.666	666.5	observe	Run3	observe/STIM_016.jpg	100
2585.164	1.231	1231.4	observe	Run3	observe/STIM_016.jpg	99
2588.432	0.679	678.9	observe	Run3	observe/STIM_017.jpg	99
2593.1	0.858	858.1	observe	Run3	observe/STIM_017.jpg	99
2596.062	1.18	1180.1	observe	Run3	observe/STIM_017.jpg	100
2599.864	1.123	1123.1	observe	Run3	observe/STIM_017.jpg	100
2603.392	1.305	1305.3	observe	Run3	observe/STIM_018.jpg	99
2608.169	0.976	975.9	observe	Run3	observe/STIM_018.jpg	100
2612.42	0.744	744.4	observe	Run3	observe/STIM_018.jpg	100
2616.732	1.144	1143.9	observe	Run3	observe/STIM_018.jpg	99
2619.883	1.054	1054.3	observe	Run3	observe/STIM_019.jpg	99
2624.387	0.86	860.2	observe	Run3	observe/STIM_019.jpg	99
2628.932	1.209	1209.2	observe	Run3	observe/STIM_019.jpg	100
2632.608	1.05	1049.9	observe	Run3	observe/STIM_019.jpg	99
