onset	duration	response_time_ms	trial_type	learning_stage	stimulus	response_port
0.0	1.217	1216.8	incongruent	Block1	incongruent/STIM_000.jpg	99
4.399	0.663	662.8	incongruent	Block1	incongruent/STIM_000.jpg	99
8.94	0.969	968.8	incongruent	Block1	incongruent/STIM_000.jpg	99
12.124	0.884	883.6	incongruent	Block1	incongruent/STIM_000.jpg	100
15.491	0.598	598.2	incongruent	Block1	incongruent/STIM_000.jpg	99
18.385	1.164	1163.5	incongruent	Block1	incongruent/STIM_001.jpg	100
22.251	1.218	1218.4	incongruent	Block1	incongruent/STIM_001.jpg	99
25.889	0.969	969.0	incongruent	Block1	incongruent/STIM_001.jpg	99
30.307	1.131	1130.7	incongruent	Block1	incongruent/STIM_001.jpg	99
35.21	0.853	853.3	incongruent	Block1	incongruent/STIM_001.jpg	99
39.714	0.754	754.5	incongruent	Block1	incongruent/STIM_002.jpg	99
42.819	0.762	762.0	incongruent	Block1	incongruent/STIM_002.jpg	99
47.345	1.151	1150.8	incongruent	Block1	incongruent/STIM_002.jpg	99
52.327	1.065	1064.7	incongruent	Block1	incongruent/STIM_002.jpg	99
56.235	0.884	883.6	incongruent	Block1	incongruent/STIM_002.jpg	99
60.466	1.386	1385.5	incongruent	Block1	incongruent/STIM_003.jpg	99
65.166	1.058	1058.4	incongruent	Block1	incongruent/STIM_003.jpg	99
68.694	0.932	932.4	incongruent	Block1	incongruent/STIM_003.jpg	100
72.642	1.078	1078.0	incongruent	Block1	incongruent/STIM_003.jpg	99
76.01	0.969	969.3	incongruent	Block1	incongruent/STIM_003.jpg	100
80.438	0.852	851.7	incongruent	Block1	incongruent/STIM_004.jpg	99
84.341	0.682	681.8	incongruent	Block1	incongruent/STIM_004.jpg	99
87.11	1.176	1175.7	incongruent	Block1	incongruent/STIM_004.jpg	100
91.508	1.164	1164.1	incongruent	Block1	incongruent/STIM_004.jpg	99
94.976	1.133	1132.9	incongruent	Block1	incongruent/STIM_004.jpg	100
98.826	0.7	700.5	incongruent	Block1	incongruent/STIM_005.jpg	99
101.951	1.107	1106.7	incongruent	Block1	incongruent/STIM_005.jpg	100
105.586	1.016	1015.7	incongruent	Block1	incongruent/STIM_005.jpg	100
110.263	0.938	937.8	incongruent	Block1	incongruent/STIM_005.jpg	99
115.096	0.824	823.6	incongruent	Block1	incongruent/STIM_005.jpg	100
118.852	1.048	1048.2	incongruent	Block1	incongruent/STIM_006.jpg	99
123.107	0.873	872.9	incongruent	Block1	incongruent/STIM_006.jpg	99
127.803	0.81	810.2	incongruent	Block1	incongruent/STIM_006.jpg	99
130.689	0.916	916.0	incongruent	Block1	incongruent/STIM_006.jpg	100
135.047	1.1	1100.0	incongruent	Block1	incongruent/STIM_006.jpg	99
140.004	0.89	889.5	incongruent	Block1	incongruent/STIM_007.jpg	99
143.548	1.042	1042.4	incongruent	Block1	incongruent/STIM_007.jpg	99
147.368	1.284	1283.7	incongruent	Block1	incongruent/STIM_007.jpg	99
151.497	0.82	819.7	incongruent	Block1	incongruent/STIM_007.jpg	99
154.682	0.806	806.1	incongruent	Block1	incongruent/STIM_007.jpg	99
159.454	1.139	1138.6	incongruent	Block1	incongruent/STIM_008.jpg	99
163.489	0.926	926.4	incongruent	Block1	incongruent/STIM_008.jpg	100
167.245	1.214	1214.5	incongruent	Block1	incongruent/STIM_008.jpg	99
171.572	0.67	670.4	incongruent	Block1	incongruent/STIM_008.jpg	100
175.65	0.624	623.8	incongruent	Block1	incongruent/STIM_008.jpg	100
179.525	1.165	1165.0	incongruent	Block1	incongruent/STIM_009.jpg	100
184.554	1.334	1333.5	incongruent	Block1	incongruent/STIM_009.jpg	99
189.64	1.188	1187.5	incongruent	Block1	incongruent/STIM_009.jpg	100
193.412	0.592	592.0	incongruent	Block1	incongruent/STIM_009.jpg	99
198.003	0.721	721.2	incongruent	Block1	incongruent/STIM_009.jpg	99
201.806	0.817	816.8	incongruent	Block1	incongruent/STIM_010.jpg	100
205.559	0.841	840.6	incongruent	Block1	incongruent/STIM_010.jpg	99
208.682	1.206	1205.6	incongruent	Block1	incongruent/STIM_010.jpg	99
213.616	0.822	822.0	incongruent	Block1	incongruent/STIM_010.jpg	100
217.153	0.914	913.5	incongruent	Block1	incongruent/STIM_010.jpg	100
221.384	0.879	879.0	incongruent	Block1	incongruent/STIM_011.jpg	100
225.965	0.716	715.9	incongruent	Block1	incongruent/STIM_011.jpg	100
229.131	0.625	625.1	incongruent	Block1	incongruent/STIM_011.jpg	100
233.526	1.187	1186.9	incongruent	Block1	incongruent/STIM_011.jpg	100
238.363	0.57	569.8	incongruent	Block1	incongruent/STIM_011.jpg	100
242.015	1.145	1145.3	incongruent	Block1	incongruent/STIM_012.jpg	99
246.691	0.68	680.1	incongruent	Block1	incongruent/STIM_012.jpg	99
250.566	1.143	1143.0	incongruent	Block1	incongruent/STIM_012.jpg	99
253.816	1.01	1010.0	incongruent	Block1	incongruent/STIM_012.jpg	99
257.068	0.54	539.8	incongruent	Block1	incongruent/STIM_012.jpg	99
261.12	0.974	973.8	incongruent	Block1	incongruent/STIM_013.jpg	100
265.926	1.145	1144.6	incongruent	Block1	incongruent/STIM_013.jpg	100
269.385	0.677	677.1	incongruent	Block1	incongruent/STIM_013.jpg	99
273.771	1.222	1222.3	incongruent	Block1	incongruent/STIM_013.jpg	99
277.533	0.752	752.2	incongruent	Block1	incongruent/STIM_013.jpg	99
282.05	0.761	761.0	incongruent	Block1	incongruent/STIM_014.jpg	99
286.566	0.864	864.0	incongruent	Block1	incongruent/STIM_014.jpg	100
291.401	0.629	629.2	incongruent	Block1	incongruent/STIM_014.jpg	99
294.848	1.167	1166.6	incongruent	Block1	incongruent/STIM_014.jpg	100
298.706	1.133	1132.7	incongruent	Block1	incongruent/STIM_014.jpg	100
302.96	0.778	778.0	incongruent	Block1	incongruent/STIM_015.jpg	99
307.07	0.936	935.6	incongruent	Block1	incongruent/STIM_015.jpg	99
310.482	0.784	784.0	incongruent	Block1	incongruent/STIM_015.jpg	99
314.636	1.118	1117.9	incongruent	Block1	incongruent/STIM_015.jpg	100
318.455	0.843	842.8	incongruent	Block1	incongruent/STIM_015.jpg	100
322.277	0.828	828.1	incongruent	Block1	incongruent/STIM_016.jpg	100
326.15	0.684	684.5	incongruent	Block1	incongruent/STIM_016.jpg	100
329.073	0.945	945.2	incongruent	Block1	incongruent/STIM_016.jpg	99
333.94	0.75	750.1	incongruent	Block1	incongruent/STIM_016.jpg	99
337.986	0.906	906.4	incongruent	Block1	incongruent/STIM_016.jpg	100
341.389	0.819	818.8	incongruent	Block1	incongruent/STIM_017.jpg	99
345.494	0.812	812.2	incongruent	Block1	incongruent/STIM_017.jpg	100
348.54	0.984	984.0	incongruent	Block1	incongruent/STIM_017.jpg	100
351.713	1.122	1122.1	incongruent	Block1	incongruent/STIM_017.jpg	99
356.427	0.998	997.8	incongruent	Block1	incongruent/STIM_017.jpg	99
360.627	0.91	910.4	incongruent	Block1	incongruent/STIM_018.jpg	100
363.971	1.322	1322.0	incongruent	Block1	incongruent/STIM_018.jpg	100
368.971	0.87	870.4	incongruent	Block1	incongruent/STIM_018.jpg	99
373.686	0.674	673.6	incongruent	Block1	incongruent/STIM_018.jpg	100
377.335	0.628	627.9	incongruent	Block1	incongruent/STIM_018.jpg	99
381.209	1.072	1072.0	incongruent	Block1	incongruent/STIM_019.jpg	99
385.186	0.962	962.5	incongruent	Block1	incongruent/STIM_019.jpg	99
389.53	0.656	656.1	incongruent	Block1	incongruent/STIM_019.jpg	100
392.329	0.894	894.0	incongruent	Block1	incongruent/STIM_019.jpg	100
396.278	0.545	544.7	incongruent	Block1	incongruent/STIM_019.jpg	99
400.298	0.704	703.8	incongruent	Block1	incongruent/STIM_020.jpg	100
404.416	0.655	655.2	incongruent	Block1	incongruent/STIM_020.jpg	99
409.049	1.296	1296.0	incongruent	Block1	incongruent/STIM_020.jpg	99
413.588	0.718	717.5	incongruent	Block1	incongruent/STIM_020.jpg	99
417.059	0.722	722.4	incongruent	Block1	incongruent/STIM_020.jpg	99
420.492	1.176	1176.3	incongruent	Block1	incongruent/STIM_021.jpg	100
424.445	0.641	641.3	incongruent	Block1	incongruent/STIM_021.jpg	100
427.297	1.291	1291.2	incongruent	Block1	incongruent/STIM_021.jpg	100
430.899	1.176	1175.7	incongruent	Block1	incongruent/STIM_021.jpg	100
435.828	0.981	981.0	incongruent	Block1	incongruent/STIM_021.jpg	99
439.157	0.97	969.6	incongruent	Block1	incongruent/STIM_022.jpg	99
442.228	1.226	1225.5	incongruent	Block1	incongruent/STIM_022.jpg	100
446.07	1.025	1025.2	incongruent	Block1	incongruent/STIM_022.jpg	100
450.509	0.902	901.9	incongruent	Block1	incongruent/STIM_022.jpg	99
454.449	1.132	1132.0	incongruent	Block1	incongruent/STIM_022.jpg	100
458.481	0.94	939.9	incongruent	Block1	incongruent/STIM_023.jpg	99
463.088	0.861	861.3	incongruent	Block1	incongruent/STIM_023.jpg	100
466.705	0.803	802.7	incongruent	Block1	incongruent/STIM_023.jpg	99
470.268	0.689	689.2	incongruent	Block1	incongruent/STIM_023.jpg	100
473.031	0.725	724.6	incongruent	Block1	incongruent/STIM_023.jpg	100
475.937	1.018	1018.0	incongruent	Block1	incongruent/STIM_024.jpg	100
479.54	1.341	1340.7	incongruent	Block1	incongruent/STIM_024.jpg	99
484.051	0.64	640.4	incongruent	Block1	incongruent/STIM_024.jpg	100
488.632	0.614	614.2	incongruent	Block1	incongruent/STIM_024.jpg	99
491.426	0.577	577.3	incongruent	Block1	incongruent/STIM_024.jpg	99
495.312	0.915	915.0	incongruent	Block1	incongruent/STIM_025.jpg	99
498.458	1.04	1039.7	incongruent	Block1	incongruent/STIM_025.jpg	99
501.943	1.266	1266.2	incongruent	Block1	incongruent/STIM_025.jpg	99
506.559	0.573	572.8	incongruent	Block1	incongruent/STIM_025.jpg	100
511.06	0.753	753.2	incongruent	Block1	incongruent/STIM_025.jpg	100
514.369	1.093	1093.3	incongruent	Block1	incongruent/STIM_026.jpg	99
519.119	0.796	796.4	incongruent	Block1	incongruent/STIM_026.jpg	100
522.184	0.855	855.4	incongruent	Block1	incongruent/STIM_026.jpg	99
525.461	0.665	665.2	incongruent	Block1	incongruent/STIM_026.jpg	100
529.143	0.633	632.8	incongruent	Block1	incongruent/STIM_026.jpg	99
532.989	0.852	851.5	incongruent	Block1	incongruent/STIM_027.jpg	99
535.938	1.091	1091.4	incongruent	Block1	incongruent/STIM_027.jpg	100
539.928	1.174	1174.2	incongruent	Block1	incongruent/STIM_027.jpg	99
543.343	0.98	980.2	incongruent	Block1	incongruent/STIM_027.jpg	99
546.587	0.834	834.0	incongruent	Block1	incongruent/STIM_027.jpg	99
551.385	1.414	1414.5	incongruent	Block1	incongruent/STIM_028.jpg	100
556.107	1.351	1351.2	incongruent	Block1	incongruent/STIM_028.jpg	99
560.494	0.687	686.9	incongruent	Block1	incongruent/STIM_028.jpg	100
564.4	1.083	1083.3	incongruent	Block1	incongruent/STIM_028.jpg	100
567.697	0.697	696.9	incongruent	Block1	incongruent/STIM_028.jpg	100
571.943	0.956	956.2	incongruent	Block1	incongruent/STIM_029.jpg	100
576.388	1.051	1051.1	incongruent	Block1	incongruent/STIM_029.jpg	99
581.258	1.114	1114.3	incongruent	Block1	incongruent/STIM_029.jpg	99
585.299	0.84	840.1	incongruent	Block1	incongruent/STIM_029.jpg	99
588.634	1.004	1003.5	incongruent	Block1	incongruent/STIM_029.jpg	99
591.856	0.718	718.1	congruent	Block1	congruent/STIM_000.jpg	99
595.673	0.577	577.4	congruent	Block1	congruent/STIM_000.jpg	100
600.059	0.84	839.9	congruent	Block1	congruent/STIM_000.jpg	99
603.694	0.795	794.9	congruent	Block1	congruent/STIM_000.jpg	100
608.266	0.566	566.1	congruent	Block1	congruent/STIM_000.jpg	99
612.308	0.563	562.9	congruent	Block1	congruent/STIM_001.jpg	100
615.464	0.562	561.6	congruent	Block1	congruent/STIM_001.jpg	99
618.276	0.683	683.3	congruent	Block1	congruent/STIM_001.jpg	100
622.384	0.741	740.6	congruent	Block1	congruent/STIM_001.jpg	99
625.578	0.676	675.5	congruent	Block1	congruent/STIM_001.jpg	100
629.509	0.714	714.0	congruent	Block1	congruent/STIM_002.jpg	99
632.418	0.661	661.0	congruent	Block1	congruent/STIM_002.jpg	99
636.339	0.634	633.8	congruent	Block1	congruent/STIM_002.jpg	100
639.918	0.656	655.6	congruent	Block1	congruent/STIM_002.jpg	99
644.487	0.614	613.9	congruent	Block1	congruent/STIM_002.jpg	99
648.362	0.619	618.6	congruent	Block1	congruent/STIM_003.jpg	99
652.615	0.765	765.2	congruent	Block1	congruent/STIM_003.jpg	99
657.054	0.546	545.9	congruent	Block1	congruent/STIM_003.jpg	99
661.031	0.594	594.5	congruent	Block1	congruent/STIM_003.jpg	100
664.302	0.498	497.6	congruent	Block1	congruent/STIM_003.jpg	99
667.497	0.8	799.9	congruent	Block1	congruent/STIM_004.jpg	100
671.285	0.499	499.3	congruent	Block1	congruent/STIM_004.jpg	100
675.633	0.589	589.3	congruent	Block1	congruent/STIM_004.jpg	99
679.325	0.849	848.7	congruent	Block1	congruent/STIM_004.jpg	99
682.517	0.736	736.4	congruent	Block1	congruent/STIM_004.jpg	99
686.328	0.485	484.8	congruent	Block1	congruent/STIM_005.jpg	99
689.626	0.526	525.5	congruent	Block1	congruent/STIM_005.jpg	100
693.229	0.725	725.1	congruent	Block1	congruent/STIM_005.jpg	99
696.342	0.737	737.3	congruent	Block1	congruent/STIM_005.jpg	100
700.576	0.606	606.3	congruent	Block1	congruent/STIM_005.jpg	99
704.813	0.52	520.0	congruent	Block1	congruent/STIM_006.jpg	100
708.506	0.701	701.0	congruent	Block1	congruent/STIM_006.jpg	99
711.98	0.78	779.6	congruent	Block1	congruent/STIM_006.jpg	99
715.103	0.785	785.2	congruent	Block1	congruent/STIM_006.jpg	99
719.774	0.848	848.5	congruent	Block1	congruent/STIM_006.jpg	99
724.192	0.489	489.4	congruent	Block1	congruent/STIM_007.jpg	100
728.552	0.613	612.6	congruent	Block1	congruent/STIM_007.jpg	99
731.981	0.79	790.2	congruent	Block1	congruent/STIM_007.jpg	99
734.923	0.52	519.8	congruent	Block1	congruent/STIM_007.jpg	100
738.442	0.506	505.7	congruent	Block1	congruent/STIM_007.jpg	99
741.537	0.573	573.1	congruent	Block1	congruent/STIM_008.jpg	100
744.348	0.536	535.7	congruent	Block1	congruent/STIM_008.jpg	99
747.072	0.605	605.1	congruent	Block1	congruent/STIM_008.jpg	99
750.847	0.591	591.0	congruent	Block1	congruent/STIM_008.jpg	99
754.196	0.567	567.1	congruent	Block1	congruent/STIM_008.jpg	99
758.417	0.574	573.5	congruent	Block1	congruent/STIM_009.jpg	100
762.315	0.534	533.7	congruent	Block1	congruent/STIM_009.jpg	99
765.979	0.783	782.7	congruent	Block1	congruent/STIM_009.jpg	100
769.947	0.518	518.5	congruent	Block1	congruent/STIM_009.jpg	99
774.41	0.682	682.4	congruent	Block1	congruent/STIM_009.jpg	100
777.767	0.742	741.5	congruent	Block1	congruent/STIM_010.jpg	100
781.142	0.786	785.7	congruent	Block1	congruent/STIM_010.jpg	99
784.923	0.696	696.2	congruent	Block1	congruent/STIM_010.jpg	99
789.363	0.717	717.1	congruent	Block1	congruent/STIM_010.jpg	100
792.992	0.725	724.9	congruent	Block1	congruent/STIM_010.jpg	99
795.927	0.677	676.6	congruent	Block1	congruent/STIM_011.jpg	100
799.985	0.782	782.4	congruent	Block1	congruent/STIM_011.jpg	99
803.743	0.809	809.3	congruent	Block1	congruent/STIM_011.jpg	99
807.07	0.717	716.7	congruent	Block1	congruent/STIM_011.jpg	100
810.206	0.858	858.5	congruent	Block1	congruent/STIM_011.jpg	99
814.892	0.49	490.5	congruent	Block1	congruent/STIM_012.jpg	99
817.969	0.862	862.5	congruent	Block1	congruent/STIM_012.jpg	100
822.366	0.64	639.5	congruent	Block1	congruent/STIM_012.jpg	99
826.334	0.484	484.1	congruent	Block1	congruent/STIM_012.jpg	99
829.778	0.788	788.5	congruent	Block1	congruent/STIM_012.jpg	99
834.582	0.822	822.3	congruent	Block1	congruent/STIM_013.jpg	100
839.116	0.554	554.0	congruent	Block1	congruent/STIM_013.jpg	100
842.866	0.802	801.6	congruent	Block1	congruent/STIM_013.jpg	100
846.023	0.792	792.3	congruent	Block1	congruent/STIM_013.jpg	100
849.284	0.557	556.6	congruent	Block1	congruent/STIM_013.jpg	100
852.606	0.804	803.7	congruent	Block1	congruent/STIM_014.jpg	99
857.34	0.648	647.6	congruent	Block1	congruent/STIM_014.jpg	100
860.248	0.827	826.9	congruent	Block1	congruent/STIM_014.jpg	100
863.36	0.587	586.9	congruent	Block1	congruent/STIM_014.jpg	99
866.836	0.531	530.7	congruent	Block1	congruent/STIM_014.jpg	100
870.371	0.804	803.8	congruent	Block1	congruent/STIM_015.jpg	100
873.975	0.694	694.2	congruent	Block1	congruent/STIM_015.jpg	100
877.207	0.643	642.6	congruent	Block1	congruent/STIM_015.jpg	99
880.012	0.568	568.2	congruent	Block1	congruent/STIM_015.jpg	99
883.59	0.555	555.1	congruent	Block1	congruent/STIM_015.jpg	99
886.999	0.548	548.3	congruent	Block1	congruent/STIM_016.jpg	100
890.991	0.745	745.1	congruent	Block1	congruent/STIM_016.jpg	100
894.014	0.553	553.3	congruent	Block1	congruent/STIM_016.jpg	99
897.59	0.814	813.6	congruent	Block1	congruent/STIM_016.jpg	100
901.522	0.611	611.2	congruent	Block1	congruent/STIM_016.jpg	100
905.15	0.695	694.6	congruent	Block1	congruent/STIM_017.jpg	99
909.054	0.72	719.9	congruent	Block1	congruent/STIM_017.jpg	100
912.07	0.614	614.5	congruent	Block1	congruent/STIM_017.jpg	99
916.148	0.738	737.9	congruent	Block1	congruent/STIM_017.jpg	99
918.922	0.741	740.6	congruent	Block1	congruent/STIM_017.jpg	100
922.631	0.563	563.3	congruent	Block1	congruent/STIM_018.jpg	100
925.518	0.533	533.4	congruent	Block1	congruent/STIM_018.jpg	99
928.936	0.591	590.6	congruent	Block1	congruent/STIM_018.jpg	99
931.873	0.646	646.5	congruent	Block1	congruent/STIM_018.jpg	100
936.362	0.848	848.4	congruent	Block1	congruent/STIM_018.jpg	100
940.589	0.628	627.8	congruent	Block1	congruent/STIM_019.jpg	100
943.838	0.505	505.5	congruent	Block1	congruent/STIM_019.jpg	100
948.196	0.829	828.9	congruent	Block1	congruent/STIM_019.jpg	100
951.846	0.514	513.9	congruent	Block1	congruent/STIM_019.jpg	100
956.032	0.719	719.4	congruent	Block1	congruent/STIM_019.jpg	100
960.581	0.712	712.3	congruent	Block1	congruent/STIM_020.jpg	100
965.168	0.494	493.9	congruent	Block1	congruent/STIM_020.jpg	100
967.958	0.505	504.8	congruent	Block1	congruent/STIM_020.jpg	100
971.206	0.859	859.0	congruent	Block1	congruent/STIM_020.jpg	99
975.746	0.622	621.8	congruent	Block1	congruent/STIM_020.jpg	99
979.065	0.671	670.6	congruent	Block1	congruent/STIM_021.jpg	100
982.418	0.535	535.2	congruent	Block1	congruent/STIM_021.jpg	99
985.597	0.64	640.2	congruent	Block1	congruent/STIM_021.jpg	100
989.134	0.801	800.8	congruent	Block1	congruent/STIM_021.jpg	99
992.467	0.846	845.7	congruent	Block1	congruent/STIM_021.jpg	100
997.167	0.588	588.2	congruent	Block1	congruent/STIM_022.jpg	99
1001.695	0.547	547.0	congruent	Block1	congruent/STIM_022.jpg	100
1005.327	0.577	577.0	congruent	Block1	congruent/STIM_022.jpg	100
1008.017	0.569	569.1	congruent	Block1	congruent/STIM_022.jpg	99
1011.061	0.638	638.1	congruent	Block1	congruent/STIM_022.jpg	100
1014.352	0.771	771.0	congruent	Block1	congruent/STIM_023.jpg	100
1018.529	0.842	841.8	congruent	Block1	congruent/STIM_023.jpg	99
1021.854	0.754	753.5	congruent	Block1	congruent/STIM_023.jpg	99
1025.531	0.824	824.5	congruent	Block1	congruent/STIM_023.jpg	99
1030.008	0.858	858.3	congruent	Block1	congruent/STIM_023.jpg	100
1034.732	0.649	649.3	congruent	Block1	congruent/STIM_024.jpg	100
1038.312	0.819	819.2	congruent	Block1	congruent/STIM_024.jpg	100
1041.676	0.816	815.7	congruent	Block1	congruent/STIM_024.jpg	99
1045.124	0.614	613.8	congruent	Block1	congruent/STIM_024.jpg	99
1048.476	0.707	707.2	congruent	Block1	congruent/STIM_024.jpg	100
1051.544	0.79	790.5	congruent	Block1	congruent/STIM_025.jpg	100
1054.623	0.492	491.8	congruent	Block1	congruent/STIM_025.jpg	100
1058.819	0.612	611.8	congruent	Block1	congruent/STIM_025.jpg	99
1062.061	0.631	630.7	congruent	Block1	congruent/STIM_025.jpg	100
1065.782	0.731	730.9	congruent	Block1	congruent/STIM_025.jpg	100
1070.388	0.839	838.8	congruent	Block1	congruent/STIM_026.jpg	99
1074.71	0.595	595.4	congruent	Block1	congruent/STIM_026.jpg	99
1078.412	0.507	507.4	congruent	Block1	congruent/STIM_026.jpg	100
1082.924	0.731	730.6	congruent	Block1	congruent/STIM_026.jpg	99
1086.411	0.534	533.5	congruent	Block1	congruent/STIM_026.jpg	100
1090.008	0.754	754.5	congruent	Block1	congruent/STIM_027.jpg	100
1093.019	0.635	634.7	congruent	Block1	congruent/STIM_027.jpg	100
1096.758	0.555	554.7	congruent	Block1	congruent/STIM_027.jpg	100
1099.434	0.702	701.5	congruent	Block1	congruent/STIM_027.jpg	99
1103.176	0.623	622.9	congruent	Block1	congruent/STIM_027.jpg	99
1107.242	0.596	595.7	congruent	Block1	congruent/STIM_028.jpg	100
1111.144	0.687	687.4	congruent	Block1	congruent/STIM_028.jpg	99
1114.088	0.865	864.7	congruent	Block1	congruent/STIM_028.jpg	100
1117.373	0.673	673.3	congruent	Block1	congruent/STIM_028.jpg	100
1120.438	0.727	727.4	congruent	Block1	congruent/STIM_028.jpg	99
1123.807	0.768	767.8	congruent	Block1	congruent/STIM_029.jpg	99
1127.117	0.822	822.4	congruent	Block1	congruent/STIM_029.jpg	100
1130.244	0.72	720.4	congruent	Block1	congruent/STIM_029.jpg	99
1133.135	0.566	566.4	congruent	Block1	congruent/STIM_029.jpg	100
1136.976	0.648	648.5	congruent	Block1	congruent/STIM_029.jpg	100
1140.946	0.704	704.3	incongruent	Block2	incongruent/STIM_000.jpg	100
1143.812	1.014	1014.4	incongruent	Block2	incongruent/STIM_000.jpg	100
1148.824	0.922	921.7	incongruent	Block2	incongruent/STIM_000.jpg	100
1153.059	0.479	478.7	incongruent	Block2	incongruent/STIM_000.jpg	100
1156.274	0.497	496.8	incongruent	Block2	incongruent/STIM_000.jpg	99
1160.548	0.761	760.9	incongruent	Block2	incongruent/STIM_001.jpg	100
1165.262	0.828	827.6	incongruent	Block2	incongruent/STIM_001.jpg	99
1168.772	0.821	820.6	incongruent	Block2	incongruent/STIM_001.jpg	100
1173.111	0.646	646.4	incongruent	Block2	incongruent/STIM_001.jpg	100
1176.989	0.664	664.5	incongruent	Block2	incongruent/STIM_001.jpg	100
1180.365	0.839	839.0	incongruent	Block2	incongruent/STIM_002.jpg	99
1185.133	0.647	646.6	incongruent	Block2	incongruent/STIM_002.jpg	100
1189.756	0.804	803.5	incongruent	Block2	incongruent/STIM_002.jpg	100
1192.704	0.652	651.5	incongruent	Block2	incongruent/STIM_002.jpg	100
1196.07	1.001	1001.2	incongruent	Block2	incongruent/STIM_002.jpg	100
1199.382	0.808	807.6	incongruent	Block2	incongruent/STIM_003.jpg	100
1203.547	0.806	805.9	incongruent	Block2	incongruent/STIM_003.jpg	99
1208.036	0.54	539.6	incongruent	Block2	incongruent/STIM_003.jpg	99
1210.992	0.52	520.3	incongruent	Block2	incongruent/STIM_003.jpg	100
1214.179	0.595	594.7	incongruent	Block2	incongruent/STIM_003.jpg	99
1218.389	1.144	1143.7	incongruent	Block2	incongruent/STIM_004.jpg	99
1221.761	0.832	831.9	incongruent	Block2	incongruent/STIM_004.jpg	100
1226.248	0.837	836.8	incongruent	Block2	incongruent/STIM_004.jpg	100
1230.763	0.768	767.8	incongruent	Block2	incongruent/STIM_004.jpg	100
1234.859	0.893	892.7	incongruent	Block2	incongruent/STIM_004.jpg	99
1239.667	0.936	936.4	incongruent	Block2	incongruent/STIM_005.jpg	100
1243.95	0.545	545.4	incongruent	Block2	incongruent/STIM_005.jpg	99
1247.859	0.544	544.4	incongruent	Block2	incongruent/STIM_005.jpg	100
1251.733	0.902	902.5	incongruent	Block2	incongruent/STIM_005.jpg	99
1256.025	0.661	660.9	incongruent	Block2	incongruent/STIM_005.jpg	100
1259.281	0.592	592.2	incongruent	Block2	incongruent/STIM_006.jpg	100
1263.81	1.145	1145.2	incongruent	Block2	incongruent/STIM_006.jpg	100
1268.065	0.994	993.9	incongruent	Block2	incongruent/STIM_006.jpg	100
1272.638	0.951	950.6	incongruent	Block2	incongruent/STIM_006.jpg	100
1277.31	0.551	550.8	incongruent	Block2	incongruent/STIM_006.jpg	99
1281.184	0.865	864.8	incongruent	Block2	incongruent/STIM_007.jpg	100
1284.934	0.953	952.7	incongruent	Block2	incongruent/STIM_007.jpg	99
1288.914	0.663	662.9	incongruent	Block2	incongruent/STIM_007.jpg	99
1293.287	0.701	700.9	incongruent	Block2	incongruent/STIM_007.jpg	99
1297.862	0.87	870.1	incongruent	Block2	incongruent/STIM_007.jpg	100
1302.223	0.855	855.0	incongruent	Block2	incongruent/STIM_008.jpg	100
1305.399	0.684	683.5	incongruent	Block2	incongruent/STIM_008.jpg	100
1308.374	0.526	526.3	incongruent	Block2	incongruent/STIM_008.jpg	100
1311.825	0.893	892.7	incongruent	Block2	incongruent/STIM_008.jpg	100
1316.159	0.608	608.3	incongruent	Block2	incongruent/STIM_008.jpg	99
1319.082	0.698	697.9	incongruent	Block2	incongruent/STIM_009.jpg	100
1321.915	0.913	912.8	incongruent	Block2	incongruent/STIM_009.jpg	100
1324.865	0.746	745.5	incongruent	Block2	incongruent/STIM_009.jpg	100
1328.496	0.829	829.3	incongruent	Block2	incongruent/STIM_009.jpg	99
1332.458	0.606	605.7	incongruent	Block2	incongruent/STIM_009.jpg	99
1335.952	0.726	725.8	incongruent	Block2	incongruent/STIM_010.jpg	100
1338.752	0.669	669.1	incongruent	Block2	incongruent/STIM_010.jpg	99
1342.29	1.047	1047.4	incongruent	Block2	incongruent/STIM_010.jpg	100
1346.33	0.849	848.9	incongruent	Block2	incongruent/STIM_010.jpg	100
1349.791	0.969	969.1	incongruent	Block2	incongruent/STIM_010.jpg	100
1354.524	0.959	959.2	incongruent	Block2	incongruent/STIM_011.jpg	100
1358.038	0.968	967.5	incongruent	Block2	incongruent/STIM_011.jpg	99
1361.054	1.071	1070.7	incongruent	Block2	incongruent/STIM_011.jpg	99
1365.182	0.477	477.3	incongruent	Block2	incongruent/STIM_011.jpg	99
1369.295	0.708	707.7	incongruent	Block2	incongruent/STIM_011.jpg	99
1372.439	1.088	1088.2	incongruent	Block2	incongruent/STIM_012.jpg	100
1376.911	0.573	573.1	incongruent	Block2	incongruent/STIM_012.jpg	99
1379.726	0.699	699.1	incongruent	Block2	incongruent/STIM_012.jpg	100
1382.865	0.486	485.8	incongruent	Block2	incongruent/STIM_012.jpg	99
1385.537	0.792	792.4	incongruent	Block2	incongruent/STIM_012.jpg	100
1390.196	0.711	710.9	incongruent	Block2	incongruent/STIM_013.jpg	99
1394.264	0.875	875.4	incongruent	Block2	incongruent/STIM_013.jpg	100
1397.284	0.894	894.2	incongruent	Block2	incongruent/STIM_013.jpg	100
1401.569	0.525	524.9	incongruent	Block2	incongruent/STIM_013.jpg	100
1404.57	0.701	700.7	incongruent	Block2	incongruent/STIM_013.jpg	100
1409.183	0.788	787.7	incongruent	Block2	incongruent/STIM_014.jpg	99
1413.222	0.742	741.6	incongruent	Block2	incongruent/STIM_014.jpg	100
1417.133	0.672	672.3	incongruent	Block2	incongruent/STIM_014.jpg	100
1420.17	0.695	695.3	incongruent	Block2	incongruent/STIM_014.jpg	99
1423.158	0.703	702.6	incongruent	Block2	incongruent/STIM_014.jpg	100
1426.224	1.134	1133.9	incongruent	Block2	incongruent/STIM_015.jpg	99
1430.471	0.919	918.6	incongruent	Block2	incongruent/STIM_015.jpg	99
1434.637	0.525	524.7	incongruent	Block2	incongruent/STIM_015.jpg	100
1438.838	0.791	791.0	incongruent	Block2	incongruent/STIM_015.jpg	99
1442.524	0.556	556.4	incongruent	Block2	incongruent/STIM_015.jpg	100
1446.409	1.195	1194.7	incongruent	Block2	incongruent/STIM_016.jpg	99
1450.816	0.697	696.9	incongruent	Block2	incongruent/STIM_016.jpg	99
1454.163	0.556	555.8	incongruent	Block2	incongruent/STIM_016.jpg	99
1458.199	0.916	916.1	incongruent	Block2	incongruent/STIM_016.jpg	100
1461.981	0.722	722.0	incongruent	Block2	incongruent/STIM_016.jpg	99
1465.01	1.063	1063.0	incongruent	Block2	incongruent/STIM_017.jpg	100
1469.691	1.074	1074.1	incongruent	Block2	incongruent/STIM_017.jpg	99
1474.531	0.948	947.8	incongruent	Block2	incongruent/STIM_017.jpg	99
1477.668	0.962	962.1	incongruent	Block2	incongruent/STIM_017.jpg	100
1480.795	0.625	625.3	incongruent	Block2	incongruent/STIM_017.jpg	99
1483.827	0.888	888.4	incongruent	Block2	incongruent/STIM_018.jpg	100
1488.132	0.955	955.3	incongruent	Block2	incongruent/STIM_018.jpg	99
1491.227	0.56	559.7	incongruent	Block2	incongruent/STIM_018.jpg	100
1495.014	0.673	672.6	incongruent	Block2	incongruent/STIM_018.jpg	100
1498.112	0.76	760.0	incongruent	Block2	incongruent/STIM_018.jpg	100
1502.812	1.141	1141.4	incongruent	Block2	incongruent/STIM_019.jpg	99
1507.508	0.659	658.6	incongruent	Block2	incongruent/STIM_019.jpg	99
1511.423	0.53	530.5	incongruent	Block2	incongruent/STIM_019.jpg	100
1514.121	0.732	731.5	incongruent	Block2	incongruent/STIM_019.jpg	100
1517.964	0.959	959.3	incongruent	Block2	incongruent/STIM_019.jpg	100
1521.608	0.626	625.9	incongruent	Block2	incongruent/STIM_020.jpg	99
1525.661	0.872	872.5	incongruent	Block2	incongruent/STIM_020.jpg	100
1530.204	0.886	886.3	incongruent	Block2	incongruent/STIM_020.jpg	99
1534.038	0.846	845.5	incongruent	Block2	incongruent/STIM_020.jpg	100
1538.747	0.654	653.9	incongruent	Block2	incongruent/STIM_020.jpg	99
1543.009	0.628	628.4	incongruent	Block2	incongruent/STIM_021.jpg	99
1545.924	0.751	750.6	incongruent	Block2	incongruent/STIM_021.jpg	100
1549.819	0.95	950.0	incongruent	Block2	incongruent/STIM_021.jpg	99
1554.582	0.71	710.0	incongruent	Block2	incongruent/STIM_021.jpg	100
1558.554	0.528	527.8	incongruent	Block2	incongruent/STIM_021.jpg	99
1562.155	1.074	1074.3	incongruent	Block2	incongruent/STIM_022.jpg	100
1565.937	0.817	816.9	incongruent	Block2	incongruent/STIM_022.jpg	100
1570.226	0.869	869.3	incongruent	Block2	incongruent/STIM_022.jpg	100
1574.824	0.594	593.7	incongruent	Block2	incongruent/STIM_022.jpg	99
1577.73	0.832	832.4	incongruent	Block2	incongruent/STIM_022.jpg	99
1582.104	1.17	1169.7	incongruent	Block2	incongruent/STIM_023.jpg	100
1586.419	0.768	768.1	incongruent	Block2	incongruent/STIM_023.jpg	99
1590.675	0.686	685.5	incongruent	Block2	incongruent/STIM_023.jpg	99
1594.422	0.845	845.3	incongruent	Block2	incongruent/STIM_023.jpg	99
1599.11	0.649	648.8	incongruent	Block2	incongruent/STIM_023.jpg	99
1603.373	0.812	811.9	incongruent	Block2	incongruent/STIM_024.jpg	100
1607.415	0.642	641.6	incongruent	Block2	incongruent/STIM_024.jpg	99
1611.322	0.715	715.1	incongruent	Block2	incongruent/STIM_024.jpg	99
1614.28	0.973	973.2	incongruent	Block2	incongruent/STIM_024.jpg	99
1617.808	0.856	855.6	incongruent	Block2	incongruent/STIM_024.jpg	100
1621.618	1.007	1007.4	incongruent	Block2	incongruent/STIM_025.jpg	100
1625.11	0.906	906.2	incongruent	Block2	incongruent/STIM_025.jpg	99
1629.357	1.015	1014.7	incongruent	Block2	incongruent/STIM_025.jpg	99
1633.277	0.473	472.9	incongruent	Block2	incongruent/STIM_025.jpg	99
1636.273	0.759	759.0	incongruent	Block2	incongruent/STIM_025.jpg	99
1639.267	0.683	683.3	incongruent	Block2	incongruent/STIM_026.jpg	99
1643.338	0.714	713.5	incongruent	Block2	incongruent/STIM_026.jpg	99
1647.211	0.841	840.7	incongruent	Block2	incongruent/STIM_026.jpg	99
1650.178	0.729	728.8	incongruent	Block2	incongruent/STIM_026.jpg	100
1654.75	0.819	819.4	incongruent	Block2	incongruent/STIM_026.jpg	100
1659.145	0.631	631.1	incongruent	Block2	incongruent/STIM_027.jpg	100
1663.566	0.605	604.9	incongruent	Block2	incongruent/STIM_027.jpg	99
1666.322	1.027	1027.0	incongruent	Block2	incongruent/STIM_027.jpg	100
1669.913	0.829	828.7	incongruent	Block2	incongruent/STIM_027.jpg	99
1674.268	0.922	922.0	incongruent	Block2	incongruent/STIM_027.jpg	100
1678.423	0.701	701.2	incongruent	Block2	incongruent/STIM_028.jpg	100
1681.25	0.852	851.6	incongruent	Block2	incongruent/STIM_028.jpg	100
1685.344	0.978	977.6	incongruent	Block2	incongruent/STIM_028.jpg	99
1689.581	0.731	731.0	incongruent	Block2	incongruent/STIM_028.jpg	99
1693.858	0.85	850.3	incongruent	Block2	incongruent/STIM_028.jpg	99
1697.791	0.746	746.3	incongruent	Block2	incongruent/STIM_029.jpg	100
1702.231	1.09	1089.9	incongruent	Block2	incongruent/STIM_029.jpg	99
1706.337	0.575	575.2	incongruent	Block2	incongruent/STIM_029.jpg	100
1709.241	0.6	599.5	incongruent	Block2	incongruent/STIM_029.jpg	99
1712.295	0.967	967.2	incongruent	Block2	incongruent/STIM_029.jpg	100
1717.121	0.791	791.0	congruent	Block2	congruent/STIM_000.jpg	100
1721.38	0.509	509.0	congruent	Block2	congruent/STIM_000.jpg	100
1724.905	0.739	739.3	congruent	Block2	congruent/STIM_000.jpg	100
1728.228	0.776	775.5	congruent	Block2	congruent/STIM_000.jpg	99
1732.277	0.789	788.7	congruent	Block2	congruent/STIM_000.jpg	99
1735.22	0.753	752.7	congruent	Block2	congruent/STIM_001.jpg	99
1739.021	0.703	702.8	congruent	Block2	congruent/STIM_001.jpg	99
1743.523	0.537	536.6	congruent	Block2	congruent/STIM_001.jpg	100
1746.51	0.665	664.7	congruent	Block2	congruent/STIM_001.jpg	99
1749.988	0.669	668.9	congruent	Block2	congruent/STIM_001.jpg	100
1753.106	0.826	825.5	congruent	Block2	congruent/STIM_002.jpg	100
1756.27	0.584	583.7	congruent	Block2	congruent/STIM_002.jpg	100
1759.917	0.577	576.7	congruent	Block2	congruent/STIM_002.jpg	100
1763.028	0.741	741.2	congruent	Block2	congruent/STIM_002.jpg	99
1766.052	0.609	609.1	congruent	Block2	congruent/STIM_002.jpg	100
1768.755	0.713	713.4	congruent	Block2	congruent/STIM_003.jpg	99
1771.791	0.504	503.6	congruent	Block2	congruent/STIM_003.jpg	99
1776.297	0.783	782.6	congruent	Block2	congruent/STIM_003.jpg	99
1779.613	0.665	665.4	congruent	Block2	congruent/STIM_003.jpg	99
1783.031	0.823	822.6	congruent	Block2	congruent/STIM_003.jpg	99
1787.572	0.722	722.4	congruent	Block2	congruent/STIM_004.jpg	99
1790.536	0.634	633.9	congruent	Block2	congruent/STIM_004.jpg	99
1793.325	0.564	564.4	congruent	Block2	congruent/STIM_004.jpg	99
1797.897	0.49	490.5	congruent	Block2	congruent/STIM_004.jpg	100
1801.602	0.854	853.7	congruent	Block2	congruent/STIM_004.jpg	99
1804.697	0.65	649.7	congruent	Block2	congruent/STIM_005.jpg	100
1807.559	0.847	846.6	congruent	Block2	congruent/STIM_005.jpg	99
1810.442	0.824	824.3	congruent	Block2	congruent/STIM_005.jpg	100
1813.762	0.5	499.6	congruent	Block2	congruent/STIM_005.jpg	100
1817.927	0.647	646.8	congruent	Block2	congruent/STIM_005.jpg	99
1822.512	0.704	703.9	congruent	Block2	congruent/STIM_006.jpg	99
1825.909	0.617	616.7	congruent	Block2	congruent/STIM_006.jpg	99
1829.746	0.699	699.3	congruent	Block2	congruent/STIM_006.jpg	99
1833.076	0.635	635.3	congruent	Block2	congruent/STIM_006.jpg	99
1837.68	0.72	720.5	congruent	Block2	congruent/STIM_006.jpg	100
1842.053	0.621	621.0	congruent	Block2	congruent/STIM_007.jpg	99
1846.41	0.754	754.3	congruent	Block2	congruent/STIM_007.jpg	99
1850.816	0.599	598.6	congruent	Block2	congruent/STIM_007.jpg	100
1853.922	0.77	769.8	congruent	Block2	congruent/STIM_007.jpg	100
1858.433	0.658	657.8	congruent	Block2	congruent/STIM_007.jpg	100
1861.409	0.524	523.5	congruent	Block2	congruent/STIM_008.jpg	99
1865.628	0.693	693.1	congruent	Block2	congruent/STIM_008.jpg	100
1869.725	0.834	833.6	congruent	Block2	congruent/STIM_008.jpg	99
1872.908	0.715	714.7	congruent	Block2	congruent/STIM_008.jpg	99
1875.975	0.602	601.8	congruent	Block2	congruent/STIM_008.jpg	99
1880.383	0.708	708.3	congruent	Block2	congruent/STIM_009.jpg	99
1883.551	0.688	687.6	congruent	Block2	congruent/STIM_009.jpg	99
1888.132	0.634	634.1	congruent	Block2	congruent/STIM_009.jpg	99
1892.703	0.532	532.5	congruent	Block2	congruent/STIM_009.jpg	100
1897.063	0.83	829.7	congruent	Block2	congruent/STIM_009.jpg	100
1901.716	0.489	489.1	congruent	Block2	congruent/STIM_010.jpg	100
1906.184	0.553	552.9	congruent	Block2	congruent/STIM_010.jpg	99
1909.428	0.6	600.0	congruent	Block2	congruent/STIM_010.jpg	100
1912.978	0.506	506.4	congruent	Block2	congruent/STIM_010.jpg	99
1915.836	0.525	525.4	congruent	Block2	congruent/STIM_010.jpg	100
1918.954	0.624	624.2	congruent	Block2	congruent/STIM_011.jpg	99
1921.618	0.639	639.0	congruent	Block2	congruent/STIM_011.jpg	99
1925.277	0.785	784.9	congruent	Block2	congruent/STIM_011.jpg	100
1929.347	0.663	662.6	congruent	Block2	congruent/STIM_011.jpg	99
1932.278	0.778	778.0	congruent	Block2	congruent/STIM_011.jpg	100
1936.19	0.815	815.4	congruent	Block2	congruent/STIM_012.jpg	99
1939.958	0.641	641.3	congruent	Block2	congruent/STIM_012.jpg	99
1943.124	0.627	627.0	congruent	Block2	congruent/STIM_012.jpg	99
1946.506	0.624	624.4	congruent	Block2	congruent/STIM_012.jpg	99
1950.424	0.624	623.6	congruent	Block2	congruent/STIM_012.jpg	100
1953.145	0.792	792.0	congruent	Block2	congruent/STIM_013.jpg	100
1956.77	0.579	579.4	congruent	Block2	congruent/STIM_013.jpg	100
1959.967	0.505	504.9	congruent	Block2	congruent/STIM_013.jpg	99
1963.574	0.834	833.8	congruent	Block2	congruent/STIM_013.jpg	100
1967.002	0.505	505.0	congruent	Block2	congruent/STIM_013.jpg	99
1969.799	0.749	749.4	congruent	Block2	congruent/STIM_014.jpg	100
1973.572	0.803	803.3	congruent	Block2	congruent/STIM_014.jpg	99
1978.105	0.553	552.6	congruent	Block2	congruent/STIM_014.jpg	100
1981.383	0.591	591.3	congruent	Block2	congruent/STIM_014.jpg	100
1985.57	0.765	765.4	congruent	Block2	congruent/STIM_014.jpg	99
1988.879	0.643	642.8	congruent	Block2	congruent/STIM_015.jpg	99
1991.818	0.506	505.9	congruent	Block2	congruent/STIM_015.jpg	100
1995.964	0.694	693.9	congruent	Block2	congruent/STIM_015.jpg	100
1999.205	0.78	780.3	congruent	Block2	congruent/STIM_015.jpg	99
2003.138	0.55	550.1	congruent	Block2	congruent/STIM_015.jpg	99
2006.42	0.601	600.9	congruent	Block2	congruent/STIM_016.jpg	100
2010.643	0.751	751.0	congruent	Block2	congruent/STIM_016.jpg	100
2013.677	0.655	654.8	congruent	Block2	congruent/STIM_016.jpg	100
2017.334	0.834	833.7	congruent	Block2	congruent/STIM_016.jpg	99
2021.5	0.823	823.0	congruent	Block2	congruent/STIM_016.jpg	99
2025.156	0.579	579.1	congruent	Block2	congruent/STIM_017.jpg	100
2028.759	0.84	840.3	congruent	Block2	congruent/STIM_017.jpg	100
2032.85	0.623	623.1	congruent	Block2	congruent/STIM_017.jpg	99
2035.956	0.568	568.4	congruent	Block2	congruent/STIM_017.jpg	99
2040.154	0.712	711.7	congruent	Block2	congruent/STIM_017.jpg	99
2043.272	0.497	497.4	congruent	Block2	congruent/STIM_018.jpg	100
2046.45	0.537	537.1	congruent	Block2	congruent/STIM_018.jpg	100
2049.26	0.688	688.3	congruent	Block2	congruent/STIM_018.jpg	100
2052.216	0.552	551.9	congruent	Block2	congruent/STIM_018.jpg	99
2056.279	0.678	677.7	congruent	Block2	congruent/STIM_018.jpg	100
2058.995	0.592	592.4	congruent	Block2	congruent/STIM_019.jpg	100
2061.656	0.84	840.2	congruent	Block2	congruent/STIM_019.jpg	100
2065.45	0.541	541.0	congruent	Block2	congruent/STIM_019.jpg	100
2069.554	0.498	498.0	congruent	Block2	congruent/STIM_019.jpg	99
2072.681	0.8	799.9	congruent	Block2	congruent/STIM_019.jpg	99
2075.846	0.768	767.6	congruent	Block2	congruent/STIM_020.jpg	99
2079.286	0.682	682.3	congruent	Block2	congruent/STIM_020.jpg	100
2082.54	0.482	482.2	congruent	Block2	congruent/STIM_020.jpg	100
2085.865	0.588	587.8	congruent	Block2	congruent/STIM_020.jpg	100
2088.677	0.624	624.1	congruent	Block2	congruent/STIM_020.jpg	99
2093.196	0.806	806.5	congruent	Block2	congruent/STIM_021.jpg	100
2098.014	0.674	673.8	congruent	Block2	congruent/STIM_021.jpg	100
2101.64	0.731	731.4	congruent	Block2	congruent/STIM_021.jpg	100
2106.364	0.86	860.5	congruent	Block2	congruent/STIM_021.jpg	99
2109.613	0.618	618.0	congruent	Block2	congruent/STIM_021.jpg	99
2113.87	0.64	640.3	congruent	Block2	congruent/STIM_022.jpg	100
2117.891	0.689	689.1	congruent	Block2	congruent/STIM_022.jpg	99
2121.591	0.616	615.8	congruent	Block2	congruent/STIM_022.jpg	99
2125.033	0.864	864.4	congruent	Block2	congruent/STIM_022.jpg	99
2129.206	0.728	727.9	congruent	Block2	congruent/STIM_022.jpg	99
2133.483	0.571	571.4	congruent	Block2	congruent/STIM_023.jpg	99
2136.564	0.694	694.0	congruent	Block2	congruent/STIM_023.jpg	100
2140.407	0.52	519.8	congruent	Block2	congruent/STIM_023.jpg	99
2144.481	0.758	757.8	congruent	Block2	congruent/STIM_023.jpg	100
2149.18	0.784	784.4	congruent	Block2	congruent/STIM_023.jpg	100
2153.721	0.568	567.8	congruent	Block2	congruent/STIM_024.jpg	99
2156.893	0.745	744.7	congruent	Block2	congruent/STIM_024.jpg	99
2159.725	0.744	743.7	congruent	Block2	congruent/STIM_024.jpg	99
2162.837	0.602	601.7	congruent	Block2	congruent/STIM_024.jpg	100
2167.179	0.611	610.8	congruent	Block2	congruent/STIM_024.jpg	100
2169.885	0.528	527.5	congruent	Block2	congruent/STIM_025.jpg	100
2174.165	0.834	833.6	congruent	Block2	congruent/STIM_025.jpg	100
2177.25	0.622	622.2	congruent	Block2	congruent/STIM_025.jpg	99
2181.866	0.841	841.4	congruent	Block2	congruent/STIM_025.jpg	100
2185.335	0.49	489.5	congruent	Block2	congruent/STIM_025.jpg	99
2188.11	0.514	514.4	congruent	Block2	congruent/STIM_026.jpg	100
2191.273	0.78	779.7	congruent	Block2	congruent/STIM_026.jpg	99
2194.242	0.513	512.9	congruent	Block2	congruent/STIM_026.jpg	100
2197.732	0.543	542.7	congruent	Block2	congruent/STIM_026.jpg	99
2201.568	0.494	493.9	congruent	Block2	congruent/STIM_026.jpg	99
2204.214	0.739	739.1	congruent	Block2	congruent/STIM_027.jpg	100
2207.868	0.68	679.6	congruent	Block2	congruent/STIM_027.jpg	100
2211.927	0.75	750.0	congruent	Block2	congruent/STIM_027.jpg	99
2214.871	0.556	556.1	congruent	Block2	congruent/STIM_027.jpg	100
2217.814	0.855	855.3	congruent	Block2	congruent/STIM_027.jpg	100
2221.614	0.657	657.4	congruent	Block2	congruent/STIM_028.jpg	100
2225.538	0.738	737.6	congruent	Block2	congruent/STIM_028.jpg	100
2229.665	0.695	695.2	congruent	Block2	congruent/STIM_028.jpg	100
2233.027	0.683	682.7	congruent	Block2	congruent/STIM_028.jpg	99
2237.676	0.802	802.3	congruent	Block2	congruent/STIM_028.jpg	99
2242.194	0.736	736.5	congruent	Block2	congruent/STIM_029.jpg	99
2245.991	0.554	553.7	congruent	Block2	congruent/STIM_029.jpg	99
2248.573	0.606	606.1	congruent	Block2	congruent/STIM_029.jpg	99
2252.077	0.796	795.5	congruent	Block2	congruent/STIM_029.jpg	99
2256.85	0.666	666.3	congruent	Block2	congruent/STIM_029.jpg	99
2261.066	0.788	788.3	incongruent	Block3	incongruent/STIM_000.jpg	100
2265.032	0.571	571.1	incongruent	Block3	incongruent/STIM_000.jpg	100
2267.626	0.487	487.0	incongruent	Block3	incongruent/STIM_000.jpg	100
2270.335	0.66	660.4	incongruent	Block3	incongruent/STIM_000.jpg	100
2274.954	0.661	661.1	incongruent	Block3	incongruent/STIM_000.jpg	100
2277.715	0.938	937.7	incongruent	Block3	incongruent/STIM_001.jpg	100
2280.815	0.896	895.6	incongruent	Block3	incongruent/STIM_001.jpg	100
2285.69	0.694	693.8	incongruent	Block3	incongruent/STIM_001.jpg	100
2288.611	0.79	790.0	incongruent	Block3	incongruent/STIM_001.jpg	100
2292.429	0.817	817.1	incongruent	Block3	incongruent/STIM_001.jpg	99
2295.592	0.692	691.5	incongruent	Block3	incongruent/STIM_002.jpg	99
2299.601	0.536	536.5	incongruent	Block3	incongruent/STIM_002.jpg	99
2304.131	0.524	523.8	incongruent	Block3	incongruent/STIM_002.jpg	99
2308.476	0.521	520.6	incongruent	Block3	incongruent/STIM_002.jpg	100
2311.91	0.62	620.5	incongruent	Block3	incongruent/STIM_002.jpg	100
2314.928	0.851	850.6	incongruent	Block3	incongruent/STIM_003.jpg	99
2317.972	0.695	694.8	incongruent	Block3	incongruent/STIM_003.jpg	100
2321.068	0.561	561.0	incongruent	Block3	incongruent/STIM_003.jpg	100
2324.14	0.605	604.8	incongruent	Block3	incongruent/STIM_003.jpg	99
2327.788	0.82	820.2	incongruent	Block3	incongruent/STIM_003.jpg	99
2331.243	0.708	707.5	incongruent	Block3	incongruent/STIM_004.jpg	100
2334.351	0.893	893.2	incongruent	Block3	incongruent/STIM_004.jpg	99
2337.672	0.934	933.5	incongruent	Block3	incongruent/STIM_004.jpg	100
2341.916	0.786	785.9	incongruent	Block3	incongruent/STIM_004.jpg	99
2344.745	0.808	808.4	incongruent	Block3	incongruent/STIM_004.jpg	100
2348.376	0.964	964.4	incongruent	Block3	incongruent/STIM_005.jpg	100
2351.592	0.785	784.8	incongruent	Block3	incongruent/STIM_005.jpg	99
2355.748	0.472	472.3	incongruent	Block3	incongruent/STIM_005.jpg	100
2359.109	0.833	833.2	incongruent	Block3	incongruent/STIM_005.jpg	99
2363.194	0.837	837.0	incongruent	Block3	incongruent/STIM_005.jpg	100
2367.124	0.522	522.4	incongruent	Block3	incongruent/STIM_006.jpg	100
2370.317	0.611	610.6	incongruent	Block3	incongruent/STIM_006.jpg	100
2374.063	0.901	900.7	incongruent	Block3	incongruent/STIM_006.jpg	100
2377.913	0.524	524.2	incongruent	Block3	incongruent/STIM_006.jpg	100
2381.616	0.495	494.8	incongruent	Block3	incongruent/STIM_006.jpg	100
2386.073	0.516	516.2	incongruent	Block3	incongruent/STIM_007.jpg	99
2389.608	0.998	997.9	incongruent	Block3	incongruent/STIM_007.jpg	99
2392.926	0.967	966.9	incongruent	Block3	incongruent/STIM_007.jpg	100
2397.484	0.757	757.4	incongruent	Block3	incongruent/STIM_007.jpg	99
2400.683	0.592	592.0	incongruent	Block3	incongruent/STIM_007.jpg	99
2403.77	0.662	661.6	incongruent	Block3	incongruent/STIM_008.jpg	99
2407.702	0.513	512.6	incongruent	Block3	incongruent/STIM_008.jpg	100
2410.319	0.732	731.5	incongruent	Block3	incongruent/STIM_008.jpg	100
2413.403	0.896	896.5	incongruent	Block3	incongruent/STIM_008.jpg	100
2417.035	0.715	714.9	incongruent	Block3	incongruent/STIM_008.jpg	100
2420.682	0.726	725.8	incongruent	Block3	incongruent/STIM_009.jpg	100
2423.561	0.999	999.0	incongruent	Block3	incongruent/STIM_009.jpg	100
2427.848	0.905	904.6	incongruent	Block3	incongruent/STIM_009.jpg	100
2431.37	0.783	783.1	incongruent	Block3	incongruent/STIM_009.jpg	99
2435.47	0.583	583.1	incongruent	Block3	incongruent/STIM_009.jpg	99
2438.819	0.629	629.1	incongruent	Block3	incongruent/STIM_010.jpg	99
2441.488	0.86	859.6	incongruent	Block3	incongruent/STIM_010.jpg	99
2444.425	0.691	691.3	incongruent	Block3	incongruent/STIM_010.jpg	99
2448.317	0.939	938.8	incongruent	Block3	incongruent/STIM_010.jpg	99
2452.411	0.478	477.9	incongruent	Block3	incongruent/STIM_010.jpg	99
2455.882	0.78	780.4	incongruent	Block3	incongruent/STIM_011.jpg	100
2459.308	0.889	888.7	incongruent	Block3	incongruent/STIM_011.jpg	99
2462.961	0.561	560.8	incongruent	Block3	incongruent/STIM_011.jpg	99
2467.382	0.975	975.3	incongruent	Block3	incongruent/STIM_011.jpg	99
2471.491	0.619	619.1	incongruent	Block3	incongruent/STIM_011.jpg	100
2474.182	0.816	815.7	incongruent	Block3	incongruent/STIM_012.jpg	99
2477.6	0.683	682.8	incongruent	Block3	incongruent/STIM_012.jpg	100
2481.309	0.481	481.2	incongruent	Block3	incongruent/STIM_012.jpg	99
2485.173	0.709	708.7	incongruent	Block3	incongruent/STIM_012.jpg	100
2488.026	0.596	596.3	incongruent	Block3	incongruent/STIM_012.jpg	100
2490.662	0.683	682.7	incongruent	Block3	incongruent/STIM_013.jpg	99
2495.286	0.69	690.5	incongruent	Block3	incongruent/STIM_013.jpg	99
2498.307	0.846	846.0	incongruent	Block3	incongruent/STIM_013.jpg	100
2502.502	0.606	606.0	incongruent	Block3	incongruent/STIM_013.jpg	100
2505.194	0.757	756.6	incongruent	Block3	incongruent/STIM_013.jpg	100
2509.852	0.963	962.8	incongruent	Block3	incongruent/STIM_014.jpg	99
2513.233	0.481	481.0	incongruent	Block3	incongruent/STIM_014.jpg	100
2517.54	0.944	944.1	incongruent	Block3	incongruent/STIM_014.jpg	100
2520.803	0.517	516.8	incongruent	Block3	incongruent/STIM_014.jpg	99
2524.755	0.8	800.3	incongruent	Block3	incongruent/STIM_014.jpg	100
2528.789	0.748	747.7	incongruent	Block3	incongruent/STIM_015.jpg	99
2533.13	0.7	699.5	incongruent	Block3	incongruent/STIM_015.jpg	99
2536.659	0.652	652.0	incongruent	Block3	incongruent/STIM_015.jpg	99
2540.23	0.486	486.3	incongruent	Block3	incongruent/STIM_015.jpg	99
2544.707	0.97	969.6	incongruent	Block3	incongruent/STIM_015.jpg	99
2547.953	0.752	751.6	incongruent	Block3	incongruent/STIM_016.jpg	99
2552.425	0.579	579.0	incongruent	Block3	incongruent/STIM_016.jpg	100
2555.923	0.904	903.6	incongruent	Block3	incongruent/STIM_016.jpg	100
2560.444	0.906	906.5	incongruent	Block3	incongruent/STIM_016.jpg	99
2563.808	0.52	519.7	incongruent	Block3	incongruent/STIM_016.jpg	100
2566.794	1.0	1000.1	incongruent	Block3	incongruent/STIM_017.jpg	100
2570.489	0.755	755.3	incongruent	Block3	incongruent/STIM_017.jpg	99
2574.849	0.586	585.6	incongruent	Block3	incongruent/STIM_017.jpg	99
2578.517	0.566	565.5	incongruent	Block3	incongruent/STIM_017.jpg	99
2582.873	0.516	516.5	incongruent	Block3	incongruent/STIM_017.jpg	100
2586.815	0.538	537.7	incongruent	Block3	incongruent/STIM_018.jpg	100
2589.384	0.948	948.2	incongruent	Block3	incongruent/STIM_018.jpg	99
2592.976	0.567	566.6	incongruent	Block3	incongruent/STIM_018.jpg	99
2596.904	0.527	527.0	incongruent	Block3	incongruent/STIM_018.jpg	99
2600.753	0.946	946.5	incongruent	Block3	incongruent/STIM_018.jpg	100
2604.768	0.855	855.1	incongruent	Block3	incongruent/STIM_019.jpg	100
2608.017	0.815	815.1	incongruent	Block3	incongruent/STIM_019.jpg	100
2610.961	0.679	679.4	incongruent	Block3	incongruent/STIM_019.jpg	100
2614.195	0.82	819.8	incongruent	Block3	incongruent/STIM_019.jpg	99
2618.046	0.961	961.1	incongruent	Block3	incongruent/STIM_019.jpg	100
2621.948	0.546	545.5	incongruent	Block3	incongruent/STIM_020.jpg	100
2625.015	0.546	546.0	incongruent	Block3	incongruent/STIM_020.jpg	100
2629.082	0.476	476.5	incongruent	Block3	incongruent/STIM_020.jpg	99
2633.336	0.661	661.4	incongruent	Block3	incongruent/STIM_020.jpg	99
2637.051	0.493	493.4	incongruent	Block3	incongruent/STIM_020.jpg	100
2640.664	1.0	999.6	incongruent	Block3	incongruent/STIM_021.jpg	100
2644.957	0.83	830.5	incongruent	Block3	incongruent/STIM_021.jpg	99
2648.588	0.614	614.2	incongruent	Block3	incongruent/STIM_021.jpg	99
2651.962	0.722	722.1	incongruent	Block3	incongruent/STIM_021.jpg	100
2655.608	0.485	484.9	incongruent	Block3	incongruent/STIM_021.jpg	99
2658.586	0.977	976.6	incongruent	Block3	incongruent/STIM_022.jpg	100
2661.771	0.972	971.5	incongruent	Block3	incongruent/STIM_022.jpg	99
2666.347	0.482	482.5	incongruent	Block3	incongruent/STIM_022.jpg	99
2670.668	0.896	896.0	incongruent	Block3	incongruent/STIM_022.jpg	100
2674.317	0.684	684.3	incongruent	Block3	incongruent/STIM_022.jpg	100
2677.469	0.779	778.7	incongruent	Block3	incongruent/STIM_023.jpg	99
2681.934	0.736	736.2	incongruent	Block3	incongruent/STIM_023.jpg	99
2686.584	0.618	617.9	incongruent	Block3	incongruent/STIM_023.jpg	100
2690.699	0.756	755.5	incongruent	Block3	incongruent/STIM_023.jpg	99
2693.748	0.759	759.0	incongruent	Block3	incongruent/STIM_023.jpg	100
2698.12	0.602	601.8	incongruent	Block3	incongruent/STIM_024.jpg	99
2702.358	0.708	707.5	incongruent	Block3	incongruent/STIM_024.jpg	99
2706.948	0.846	845.9	incongruent	Block3	incongruent/STIM_024.jpg	99
2710.305	0.874	874.0	incongruent	Block3	incongruent/STIM_024.jpg	99
2713.289	0.736	736.1	incongruent	Block3	incongruent/STIM_024.jpg	99
2716.751	0.535	535.4	incongruent	Block3	incongruent/STIM_025.jpg	99
2719.882	0.641	640.6	incongruent	Block3	incongruent/STIM_025.jpg	99
2724.134	0.741	740.7	incongruent	Block3	incongruent/STIM_025.jpg	99
2727.916	0.957	956.7	incongruent	Block3	incongruent/STIM_025.jpg	100
2731.709	0.505	505.4	incongruent	Block3	incongruent/STIM_025.jpg	99
2735.363	0.687	687.4	incongruent	Block3	incongruent/STIM_026.jpg	99
2738.885	0.808	808.2	incongruent	Block3	incongruent/STIM_026.jpg	99
2742.127	0.698	698.1	incongruent	Block3	incongruent/STIM_026.jpg	100
2746.792	0.802	802.5	incongruent	Block3	incongruent/STIM_026.jpg	100
2749.884	0.479	479.4	incongruent	Block3	incongruent/STIM_026.jpg	100
2752.595	0.728	728.0	incongruent	Block3	incongruent/STIM_027.jpg	99
2756.242	0.75	750.3	incongruent	Block3	incongruent/STIM_027.jpg	99
2760.161	0.525	525.3	incongruent	Block3	incongruent/STIM_027.jpg	100
2764.112	0.654	654.0	incongruent	Block3	incongruent/STIM_027.jpg	99
2767.363	0.51	510.0	incongruent	Block3	incongruent/STIM_027.jpg	99
2771.703	1.007	1007.1	incongruent	Block3	incongruent/STIM_028.jpg	100
2776.212	0.958	957.8	incongruent	Block3	incongruent/STIM_028.jpg	100
2780.388	0.797	796.9	incongruent	Block3	incongruent/STIM_028.jpg	99
2783.949	0.859	859.4	incongruent	Block3	incongruent/STIM_028.jpg	100
2786.902	0.532	532.1	incongruent	Block3	incongruent/STIM_028.jpg	99
2790.463	0.991	991.0	incongruent	Block3	incongruent/STIM_029.jpg	99
2794.052	0.634	633.7	incongruent	Block3	incongruent/STIM_029.jpg	100
2796.838	0.762	762.1	incongruent	Block3	incongruent/STIM_029.jpg	99
2800.533	0.855	854.9	incongruent	Block3	incongruent/STIM_029.jpg	99
2804.771	0.588	588.2	incongruent	Block3	incongruent/STIM_029.jpg	99
2808.462	0.702	702.0	congruent	Block3	congruent/STIM_000.jpg	99
2811.969	0.611	611.0	congruent	Block3	congruent/STIM_000.jpg	99
2815.397	0.538	538.1	congruent	Block3	congruent/STIM_000.jpg	99
2819.501	0.734	734.1	congruent	Block3	congruent/STIM_000.jpg	99
2822.815	0.534	534.0	congruent	Block3	congruent/STIM_000.jpg	100
2825.67	0.792	791.5	congruent	Block3	congruent/STIM_001.jpg	100
2829.072	0.614	613.7	congruent	Block3	congruent/STIM_001.jpg	100
2832.975	0.655	654.6	congruent	Block3	congruent/STIM_001.jpg	99
2835.86	0.749	748.9	congruent	Block3	congruent/STIM_001.jpg	99
2839.864	0.54	539.9	congruent	Block3	congruent/STIM_001.jpg	99
2842.725	0.776	775.5	congruent	Block3	congruent/STIM_002.jpg	99
2846.834	0.763	763.3	congruent	Block3	congruent/STIM_002.jpg	100
2850.567	0.801	800.7	congruent	Block3	congruent/STIM_002.jpg	99
2853.487	0.703	702.9	congruent	Block3	congruent/STIM_002.jpg	100
2857.177	0.691	690.9	congruent	Block3	congruent/STIM_002.jpg	100
2861.161	0.523	523.0	congruent	Block3	congruent/STIM_003.jpg	100
2864.873	0.64	640.2	congruent	Block3	congruent/STIM_003.jpg	100
2869.514	0.815	814.9	congruent	Block3	congruent/STIM_003.jpg	99
2874.062	0.582	582.0	congruent	Block3	congruent/STIM_003.jpg	99
2877.923	0.787	786.8	congruent	Block3	congruent/STIM_003.jpg	100
2881.322	0.604	603.8	congruent	Block3	congruent/STIM_004.jpg	99
2884.096	0.568	567.8	congruent	Block3	congruent/STIM_004.jpg	100
2887.374	0.517	516.9	congruent	Block3	congruent/STIM_004.jpg	100
2891.254	0.839	839.3	congruent	Block3	congruent/STIM_004.jpg	100
2895.235	0.804	804.3	congruent	Block3	congruent/STIM_004.jpg	100
2898.456	0.766	766.3	congruent	Block3	congruent/STIM_005.jpg	99
2902.333	0.511	510.9	congruent	Block3	congruent/STIM_005.jpg	99
2904.909	0.859	858.9	congruent	Block3	congruent/STIM_005.jpg	99
2908.903	0.834	834.3	congruent	Block3	congruent/STIM_005.jpg	100
2913.321	0.487	487.2	congruent	Block3	congruent/STIM_005.jpg	100
2917.791	0.653	652.8	congruent	Block3	congruent/STIM_006.jpg	99
2922.026	0.772	771.8	congruent	Block3	congruent/STIM_006.jpg	99
2925.09	0.76	760.5	congruent	Block3	congruent/STIM_006.jpg	99
2929.618	0.567	566.8	congruent	Block3	congruent/STIM_006.jpg	100
2933.566	0.655	655.1	congruent	Block3	congruent/STIM_006.jpg	100
2937.609	0.612	612.4	congruent	Block3	congruent/STIM_007.jpg	100
2941.247	0.856	855.7	congruent	Block3	congruent/STIM_007.jpg	100
2944.982	0.764	763.7	congruent	Block3	congruent/STIM_007.jpg	99
2949.087	0.691	690.9	congruent	Block3	congruent/STIM_007.jpg	100
2953.056	0.745	745.3	congruent	Block3	congruent/STIM_007.jpg	99
2957.131	0.559	558.8	congruent	Block3	congruent/STIM_008.jpg	100
2960.44	0.801	800.6	congruent	Block3	congruent/STIM_008.jpg	100
2963.78	0.529	529.4	congruent	Block3	congruent/STIM_008.jpg	100
2968.287	0.694	694.5	congruent	Block3	congruent/STIM_008.jpg	99
2972.762	0.51	509.7	congruent	Block3	congruent/STIM_008.jpg	100
2976.525	0.656	656.5	congruent	Block3	congruent/STIM_009.jpg	99
2979.648	0.584	584.2	congruent	Block3	congruent/STIM_009.jpg	99
2983.102	0.634	633.9	congruent	Block3	congruent/STIM_009.jpg	99
2987.473	0.817	817.0	congruent	Block3	congruent/STIM_009.jpg	100
2990.962	0.527	527.2	congruent	Block3	congruent/STIM_009.jpg	99
2994.722	0.83	830.0	congruent	Block3	congruent/STIM_010.jpg	100
2998.065	0.64	639.9	congruent	Block3	congruent/STIM_010.jpg	99
3002.076	0.787	787.1	congruent	Block3	congruent/STIM_010.jpg	99
3006.082	0.864	864.1	congruent	Block3	congruent/STIM_010.jpg	99
3010.816	0.486	485.8	congruent	Block3	congruent/STIM_010.jpg	99
3014.994	0.733	733.4	congruent	Block3	congruent/STIM_011.jpg	99
3019.424	0.803	802.9	congruent	Block3	congruent/STIM_011.jpg	100
3023.216	0.746	745.7	congruent	Block3	congruent/STIM_011.jpg	99
3027.226	0.71	709.6	congruent	Block3	congruent/STIM_011.jpg	99
3031.399	0.61	610.4	congruent	Block3	congruent/STIM_011.jpg	99
3035.445	0.538	537.8	congruent	Block3	congruent/STIM_012.jpg	99
3038.744	0.727	726.9	congruent	Block3	congruent/STIM_012.jpg	100
3041.582	0.646	645.5	congruent	Block3	congruent/STIM_012.jpg	100
3045.519	0.7	700.4	congruent	Block3	congruent/STIM_012.jpg	100
3049.42	0.797	796.6	congruent	Block3	congruent/STIM_012.jpg	99
3053.378	0.755	754.7	congruent	Block3	congruent/STIM_013.jpg	100
3057.507	0.589	588.8	congruent	Block3	congruent/STIM_013.jpg	99
3061.927	0.667	666.8	congruent	Block3	congruent/STIM_013.jpg	100
3065.507	0.829	829.4	congruent	Block3	congruent/STIM_013.jpg	100
3069.692	0.558	558.0	congruent	Block3	congruent/STIM_013.jpg	99
3074.067	0.725	724.9	congruent	Block3	congruent/STIM_014.jpg	99
3076.927	0.798	798.0	congruent	Block3	congruent/STIM_014.jpg	100
3081.132	0.799	798.8	congruent	Block3	congruent/STIM_014.jpg	100
3085.437	0.705	705.2	congruent	Block3	congruent/STIM_014.jpg	100
3089.442	0.74	739.5	congruent	Block3	congruent/STIM_014.jpg	99
3093.538	0.757	757.3	congruent	Block3	congruent/STIM_015.jpg	100
3097.068	0.569	569.4	congruent	Block3	congruent/STIM_015.jpg	99
3101.581	0.825	825.0	congruent	Block3	congruent/STIM_015.jpg	99
3106.137	0.546	545.9	congruent	Block3	congruent/STIM_015.jpg	99
3108.766	0.514	513.6	congruent	Block3	congruent/STIM_015.jpg	100
3112.821	0.849	849.2	congruent	Block3	congruent/STIM_016.jpg	99
3116.389	0.737	737.2	congruent	Block3	congruent/STIM_016.jpg	100
3120.387	0.653	652.7	congruent	Block3	congruent/STIM_016.jpg	100
3123.437	0.727	727.0	congruent	Block3	congruent/STIM_016.jpg	100
3126.735	0.709	709.0	congruent	Block3	congruent/STIM_016.jpg	99
3130.393	0.71	709.8	congruent	Block3	congruent/STIM_017.jpg	99
3134.434	0.613	613.3	congruent	Block3	congruent/STIM_017.jpg	99
3137.444	0.84	840.4	congruent	Block3	congruent/STIM_017.jpg	99
3142.218	0.657	657.2	congruent	Block3	congruent/STIM_017.jpg	100
3146.645	0.783	782.7	congruent	Block3	congruent/STIM_017.jpg	100
3151.043	0.508	508.2	congruent	Block3	congruent/STIM_018.jpg	100
3155.144	0.502	502.4	congruent	Block3	congruent/STIM_018.jpg	100
3159.306	0.542	541.8	congruent	Block3	congruent/STIM_018.jpg	100
3163.628	0.854	854.5	congruent	Block3	congruent/STIM_018.jpg	100
3166.801	0.596	596.3	congruent	Block3	congruent/STIM_018.jpg	99
3171.231	0.71	710.1	congruent	Block3	congruent/STIM_019.jpg	100
3174.265	0.819	818.6	congruent	Block3	congruent/STIM_019.jpg	99
3178.907	0.691	691.2	congruent	Block3	congruent/STIM_019.jpg	100
3182.036	0.739	738.8	congruent	Block3	congruent/STIM_019.jpg	100
3185.872	0.732	732.4	congruent	Block3	congruent/STIM_019.jpg	100
3189.074	0.785	785.2	congruent	Block3	congruent/STIM_020.jpg	99
3193.095	0.864	863.5	congruent	Block3	congruent/STIM_020.jpg	99
3196.415	0.717	717.0	congruent	Block3	congruent/STIM_020.jpg	100
3199.287	0.716	716.3	congruent	Block3	congruent/STIM_020.jpg	100
3202.27	0.5	499.9	congruent	Block3	congruent/STIM_020.jpg	99
3206.727	0.698	698.4	congruent	Block3	congruent/STIM_021.jpg	100
3209.537	0.742	742.2	congruent	Block3	congruent/STIM_021.jpg	100
3213.145	0.596	595.8	congruent	Block3	congruent/STIM_021.jpg	100
3215.818	0.771	770.8	congruent	Block3	congruent/STIM_021.jpg	99
3220.222	0.503	503.0	congruent	Block3	congruent/STIM_021.jpg	99
3224.392	0.559	559.4	congruent	Block3	congruent/STIM_022.jpg	99
3228.746	0.498	498.0	congruent	Block3	congruent/STIM_022.jpg	100
3231.528	0.777	777.4	congruent	Block3	congruent/STIM_022.jpg	100
3236.277	0.633	633.4	congruent	Block3	congruent/STIM_022.jpg	99
3239.768	0.569	569.1	congruent	Block3	congruent/STIM_022.jpg	99
3243.797	0.502	502.2	congruent	Block3	congruent/STIM_023.jpg	100
3246.973	0.494	493.9	congruent	Block3	congruent/STIM_023.jpg	100
3249.728	0.807	807.0	congruent	Block3	congruent/STIM_023.jpg	100
3253.793	0.818	818.5	congruent	Block3	congruent/STIM_023.jpg	100
3258.557	0.721	721.2	congruent	Block3	congruent/STIM_023.jpg	100
3262.782	0.533	533.4	congruent	Block3	congruent/STIM_024.jpg	99
3266.546	0.487	487.2	congruent	Block3	congruent/STIM_024.jpg	100
3270.27	0.833	833.0	congruent	Block3	congruent/STIM_024.jpg	99
3274.555	0.511	511.0	congruent	Block3	congruent/STIM_024.jpg	99
3278.956	0.64	639.7	congruent	Block3	congruent/STIM_024.jpg	99
3282.547	0.754	754.5	congruent	Block3	congruent/STIM_025.jpg	100
3286.935	0.586	585.5	congruent	Block3	congruent/STIM_025.jpg	100
3291.528	0.865	865.2	congruent	Block3	congruent/STIM_025.jpg	100
3295.912	0.835	835.3	congruent	Block3	congruent/STIM_025.jpg	99
3300.66	0.533	533.4	congruent	Block3	congruent/STIM_025.jpg	100
3305.081	0.746	746.5	congruent	Block3	congruent/STIM_026.jpg	100
3309.293	0.639	638.7	congruent	Block3	congruent/STIM_026.jpg	100
3313.575	0.551	551.4	congruent	Block3	congruent/STIM_026.jpg	100
3317.522	0.509	508.8	congruent	Block3	congruent/STIM_026.jpg	100
3321.441	0.794	794.2	congruent	Block3	congruent/STIM_026.jpg	100
3324.527	0.692	692.3	congruent	Block3	congruent/STIM_027.jpg	99
3328.975	0.751	750.6	congruent	Block3	congruent/STIM_027.jpg	100
3332.74	0.557	556.8	congruent	Block3	congruent/STIM_027.jpg	99
3335.483	0.529	528.9	congruent	Block3	congruent/STIM_027.jpg	100
3339.124	0.67	669.5	congruent	Block3	congruent/STIM_027.jpg	100
3342.176	0.849	849.2	congruent	Block3	congruent/STIM_028.jpg	99
3346.024	0.514	514.1	congruent	Block3	congruent/STIM_028.jpg	99
3350.216	0.79	789.9	congruent	Block3	congruent/STIM_028.jpg	99
3354.247	0.498	498.0	congruent	Block3	congruent/STIM_028.jpg	100
3358.488	0.775	774.6	congruent	Block3	congruent/STIM_028.jpg	100
3361.378	0.611	611.3	congruent	Block3	congruent/STIM_029.jpg	99
3364.171	0.863	863.2	congruent	Block3	congruent/STIM_029.jpg	100
3367.472	0.526	525.5	congruent	Block3	congruent/STIM_029.jpg	100
3371.501	0.823	822.9	congruent	Block3	congruent/STIM_029.jpg	100
3374.597	0.506	506.2	congruent	Block3	congruent/STIM_029.jpg	100
