onset	duration	accuracy	trial_type	learning_stage	stimulus
0.0	0.939	correct	incongruent	Block1	incongruent/STIM_000.jpg
4.468	0.837	correct	incongruent	Block1	incongruent/STIM_000.jpg
7.752	0.918	correct	incongruent	Block1	incongruent/STIM_000.jpg
11.459	0.82	correct	incongruent	Block1	incongruent/STIM_000.jpg
15.473	0.687	correct	incongruent	Block1	incongruent/STIM_000.jpg
20.048	1.465	correct	incongruent	Block1	incongruent/STIM_001.jpg
25.104	1.489	correct	incongruent	Block1	incongruent/STIM_001.jpg
30.008	0.844	correct	incongruent	Block1	incongruent/STIM_001.jpg
33.076	0.835	correct	incongruent	Block1	incongruent/STIM_001.jpg
37.145	1.171	correct	incongruent	Block1	incongruent/STIM_001.jpg
41.392	1.491	incorrect	incongruent	Block1	incongruent/STIM_002.jpg
45.666	1.185	correct	incongruent	Block1	incongruent/STIM_002.jpg
50.077	1.313	correct	incongruent	Block1	incongruent/STIM_002.jpg
54.444	1.164	correct	incongruent	Block1	incongruent/STIM_002.jpg
59.253	0.739	correct	incongruent	Block1	incongruent/STIM_002.jpg
62.817	0.814	correct	incongruent	Block1	incongruent/STIM_003.jpg
67.215	1.002	correct	incongruent	Block1	incongruent/STIM_003.jpg
71.402	1.417	correct	incongruent	Block1	incongruent/STIM_003.jpg
76.509	0.799	correct	incongruent	Block1	incongruent/STIM_003.jpg
81.114	0.74	correct	incongruent	Block1	incongruent/STIM_003.jpg
85.662	0.989	correct	incongruent	Block1	incongruent/STIM_004.jpg
90.338	1.413	correct	incongruent	Block1	incongruent/STIM_004.jpg
94.569	1.298	correct	incongruent	Block1	incongruent/STIM_004.jpg
98.567	1.076	correct	incongruent	Block1	incongruent/STIM_004.jpg
102.179	0.862	correct	incongruent	Block1	incongruent/STIM_004.jpg
105.954	0.836	correct	incongruent	Block1	incongruent/STIM_005.jpg
109.335	1.061	correct	incongruent	Block1	incongruent/STIM_005.jpg
113.8	1.469	correct	incongruent	Block1	incongruent/STIM_005.jpg
119.2	1.222	correct	incongruent	Block1	incongruent/STIM_005.jpg
123.259	1.226	correct	incongruent	Block1	incongruent/STIM_005.jpg
127.969	0.806	correct	incongruent	Block1	incongruent/STIM_006.jpg
130.942	0.893	correct	incongruent	Block1	incongruent/STIM_006.jpg
135.448	0.908	correct	incongruent	Block1	incongruent/STIM_006.jpg
140.152	1.216	correct	incongruent	Block1	incongruent/STIM_006.jpg
143.386	1.024	correct	incongruent	Block1	incongruent/STIM_006.jpg
148.022	1.016	correct	incongruent	Block1	incongruent/STIM_007.jpg
152.653	0.959	correct	incongruent	Block1	incongruent/STIM_007.jpg
156.62	1.304	correct	incongruent	Block1	incongruent/STIM_007.jpg
161.532	0.844	correct	incongruent	Block1	incongruent/STIM_007.jpg
165.852	0.91	correct	incongruent	Block1	incongruent/STIM_007.jpg
170.26	1.47	correct	incongruent	Block1	incongruent/STIM_008.jpg
174.684	0.939	correct	incongruent	Block1	incongruent/STIM_008.jpg
178.127	0.887	incorrect	incongruent	Block1	incongruent/STIM_008.jpg
182.88	1.287	correct	incongruent	Block1	incongruent/STIM_008.jpg
187.631	0.646	correct	incongruent	Block1	incongruent/STIM_008.jpg
191.369	1.448	correct	incongruent	Block1	incongruent/STIM_009.jpg
194.979	1.521	correct	incongruent	Block1	incongruent/STIM_009.jpg
199.379	1.167	correct	incongruent	Block1	incongruent/STIM_009.jpg
203.104	1.32	correct	incongruent	Block1	incongruent/STIM_009.jpg
207.528	0.937	correct	incongruent	Block1	incongruent/STIM_009.jpg
211.087	1.166	correct	incongruent	Block1	incongruent/STIM_010.jpg
215.374	1.492	correct	incongruent	Block1	incongruent/STIM_010.jpg
220.757	1.409	correct	incongruent	Block1	incongruent/STIM_010.jpg
225.905	0.777	correct	incongruent	Block1	incongruent/STIM_010.jpg
229.988	1.27	correct	incongruent	Block1	incongruent/STIM_010.jpg
234.341	0.921	correct	incongruent	Block1	incongruent/STIM_011.jpg
237.363	0.873	correct	incongruent	Block1	incongruent/STIM_011.jpg
241.956	1.067	correct	incongruent	Block1	incongruent/STIM_011.jpg
245.493	1.197	correct	incongruent	Block1	incongruent/STIM_011.jpg
248.892	0.627	correct	incongruent	Block1	incongruent/STIM_011.jpg
251.823	1.119	correct	incongruent	Block1	incongruent/STIM_012.jpg
256.521	1.422	correct	incongruent	Block1	incongruent/STIM_012.jpg
259.988	1.431	correct	incongruent	Block1	incongruent/STIM_012.jpg
264.071	1.248	correct	incongruent	Block1	incongruent/STIM_012.jpg
268.667	1.158	correct	incongruent	Block1	incongruent/STIM_012.jpg
272.779	1.013	correct	incongruent	Block1	incongruent/STIM_013.jpg
276.126	1.415	correct	incongruent	Block1	incongruent/STIM_013.jpg
281.061	1.472	correct	incongruent	Block1	incongruent/STIM_013.jpg
285.979	1.351	correct	incongruent	Block1	incongruent/STIM_013.jpg
290.981	1.001	correct	incongruent	Block1	incongruent/STIM_013.jpg
294.223	0.802	correct	incongruent	Block1	incongruent/STIM_014.jpg
297.041	0.816	correct	incongruent	Block1	incongruent/STIM_014.jpg
300.215	1.376	correct	incongruent	Block1	incongruent/STIM_014.jpg
304.366	1.208	correct	incongruent	Block1	incongruent/STIM_014.jpg
308.768	0.744	correct	incongruent	Block1	incongruent/STIM_014.jpg
312.579	1.028	correct	incongruent	Block1	incongruent/STIM_015.jpg
315.697	0.933	correct	incongruent	Block1	incongruent/STIM_015.jpg
319.815	1.099	correct	incongruent	Block1	incongruent/STIM_015.jpg
323.573	1.078	correct	incongruent	Block1	incongruent/STIM_015.jpg
328.467	1.009	correct	incongruent	Block1	incongruent/STIM_015.jpg
333.215	1.116	correct	incongruent	Block1	incongruent/STIM_016.jpg
336.855	1.451	correct	incongruent	Block1	incongruent/STIM_016.jpg
340.874	1.474	incorrect	incongruent	Block1	incongruent/STIM_016.jpg
346.006	0.731	correct	incongruent	Block1	incongruent/STIM_016.jpg
349.601	1.179	correct	incongruent	Block1	incongruent/STIM_016.jpg
354.447	1.17	correct	incongruent	Block1	incongruent/STIM_017.jpg
359.581	0.778	correct	incongruent	Block1	incongruent/STIM_017.jpg
363.099	0.976	correct	incongruent	Block1	incongruent/STIM_017.jpg
367.801	1.133	correct	incongruent	Block1	incongruent/STIM_017.jpg
371.925	0.654	correct	incongruent	Block1	incongruent/STIM_017.jpg
375.429	1.172	correct	incongruent	Block1	incongruent/STIM_018.jpg
378.762	1.132	correct	incongruent	Block1	incongruent/STIM_018.jpg
382.262	0.742	correct	incongruent	Block1	incongruent/STIM_018.jpg
386.977	1.356	correct	incongruent	Block1	incongruent/STIM_018.jpg
390.782	0.771	incorrect	incongruent	Block1	incongruent/STIM_018.jpg
394.23	0.938	correct	incongruent	Block1	incongruent/STIM_019.jpg
397.516	1.294	correct	incongruent	Block1	incongruent/STIM_019.jpg
401.974	1.051	correct	incongruent	Block1	incongruent/STIM_019.jpg
405.69	0.728	correct	incongruent	Block1	incongruent/STIM_019.jpg
409.305	1.226	correct	incongruent	Block1	incongruent/STIM_019.jpg
412.681	1.027	correct	incongruent	Block1	incongruent/STIM_020.jpg
416.344	1.028	correct	incongruent	Block1	incongruent/STIM_020.jpg
419.875	1.453	correct	incongruent	Block1	incongruent/STIM_020.jpg
423.981	1.249	correct	incongruent	Block1	incongruent/STIM_020.jpg
428.016	1.146	correct	incongruent	Block1	incongruent/STIM_020.jpg
432.114	1.388	correct	incongruent	Block1	incongruent/STIM_021.jpg
435.616	1.346	correct	incongruent	Block1	incongruent/STIM_021.jpg
439.405	1.12	correct	incongruent	Block1	incongruent/STIM_021.jpg
443.374	1.001	correct	incongruent	Block1	incongruent/STIM_021.jpg
446.425	0.737	correct	incongruent	Block1	incongruent/STIM_021.jpg
450.952	1.199	correct	incongruent	Block1	incongruent/STIM_022.jpg
455.789	0.738	correct	incongruent	Block1	incongruent/STIM_022.jpg
460.526	1.445	correct	incongruent	Block1	incongruent/STIM_022.jpg
465.703	1.257	correct	incongruent	Block1	incongruent/STIM_022.jpg
469.651	0.995	correct	incongruent	Block1	incongruent/STIM_022.jpg
472.797	1.551	correct	incongruent	Block1	incongruent/STIM_023.jpg
476.41	0.938	correct	incongruent	Block1	incongruent/STIM_023.jpg
481.102	1.0	correct	incongruent	Block1	incongruent/STIM_023.jpg
485.758	0.896	correct	incongruent	Block1	incongruent/STIM_023.jpg
489.429	0.738	correct	incongruent	Block1	incongruent/STIM_023.jpg
492.887	1.069	correct	incongruent	Block1	incongruent/STIM_024.jpg
497.431	1.12	correct	incongruent	Block1	incongruent/STIM_024.jpg
502.258	1.437	correct	incongruent	Block1	incongruent/STIM_024.jpg
505.723	0.872	correct	incongruent	Block1	incongruent/STIM_024.jpg
509.338	0.729	correct	incongruent	Block1	incongruent/STIM_024.jpg
513.647	1.077	correct	incongruent	Block1	incongruent/STIM_025.jpg
516.892	0.868	correct	incongruent	Block1	incongruent/STIM_025.jpg
521.407	0.92	correct	incongruent	Block1	incongruent/STIM_025.jpg
526.29	1.17	correct	incongruent	Block1	incongruent/STIM_025.jpg
529.574	1.017	correct	incongruent	Block1	incongruent/STIM_025.jpg
534.339	0.921	correct	incongruent	Block1	incongruent/STIM_026.jpg
537.402	0.742	correct	incongruent	Block1	incongruent/STIM_026.jpg
541.797	0.752	correct	incongruent	Block1	incongruent/STIM_026.jpg
546.159	1.169	correct	incongruent	Block1	incongruent/STIM_026.jpg
550.134	0.664	correct	incongruent	Block1	incongruent/STIM_026.jpg
554.512	1.271	correct	incongruent	Block1	incongruent/STIM_027.jpg
559.28	1.545	incorrect	incongruent	Block1	incongruent/STIM_027.jpg
563.395	1.117	correct	incongruent	Block1	incongruent/STIM_027.jpg
568.04	1.268	correct	incongruent	Block1	incongruent/STIM_027.jpg
571.408	0.886	correct	incongruent	Block1	incongruent/STIM_027.jpg
575.157	0.774	correct	incongruent	Block1	incongruent/STIM_028.jpg
579.753	1.217	correct	incongruent	Block1	incongruent/STIM_028.jpg
584.252	1.161	correct	incongruent	Block1	incongruent/STIM_028.jpg
588.779	1.233	correct	incongruent	Block1	incongruent/STIM_028.jpg
592.681	0.614	correct	incongruent	Block1	incongruent/STIM_028.jpg
596.241	1.528	incorrect	incongruent	Block1	incongruent/STIM_029.jpg
600.834	1.245	correct	incongruent	Block1	incongruent/STIM_029.jpg
604.563	1.066	correct	incongruent	Block1	incongruent/STIM_029.jpg
608.433	1.196	correct	incongruent	Block1	incongruent/STIM_029.jpg
612.925	1.141	correct	incongruent	Block1	incongruent/STIM_029.jpg
617.262	0.624	correct	congruent	Block1	congruent/STIM_000.jpg
621.224	0.693	correct	congruent	Block1	congruent/STIM_000.jpg
624.045	0.595	correct	congruent	Block1	congruent/STIM_000.jpg
628.432	0.69	correct	congruent	Block1	congruent/STIM_000.jpg
631.838	0.875	correct	congruent	Block1	congruent/STIM_000.jpg
636.267	0.791	correct	congruent	Block1	congruent/STIM_001.jpg
639.688	0.679	correct	congruent	Block1	congruent/STIM_001.jpg
643.266	0.813	correct	congruent	Block1	congruent/STIM_001.jpg
647.243	0.673	correct	congruent	Block1	congruent/STIM_001.jpg
650.08	0.61	correct	congruent	Block1	congruent/STIM_001.jpg
654.065	0.808	correct	congruent	Block1	congruent/STIM_002.jpg
657.115	0.789	correct	congruent	Block1	congruent/STIM_002.jpg
661.286	0.951	correct	congruent	Block1	congruent/STIM_002.jpg
664.5	0.828	correct	congruent	Block1	congruent/STIM_002.jpg
668.164	0.822	correct	congruent	Block1	congruent/STIM_002.jpg
672.242	0.962	correct	congruent	Block1	congruent/STIM_003.jpg
676.946	0.635	correct	congruent	Block1	congruent/STIM_003.jpg
680.014	0.824	correct	congruent	Block1	congruent/STIM_003.jpg
684.749	0.636	correct	congruent	Block1	congruent/STIM_003.jpg
689.076	0.789	correct	congruent	Block1	congruent/STIM_003.jpg
691.976	0.676	correct	congruent	Block1	congruent/STIM_004.jpg
694.763	0.754	correct	congruent	Block1	congruent/STIM_004.jpg
698.369	0.82	correct	congruent	Block1	congruent/STIM_004.jpg
702.571	0.945	correct	congruent	Block1	congruent/STIM_004.jpg
707.307	0.754	correct	congruent	Block1	congruent/STIM_004.jpg
711.132	0.77	correct	congruent	Block1	congruent/STIM_005.jpg
715.691	0.729	correct	congruent	Block1	congruent/STIM_005.jpg
720.276	0.846	correct	congruent	Block1	congruent/STIM_005.jpg
724.475	0.737	correct	congruent	Block1	congruent/STIM_005.jpg
727.386	0.799	correct	congruent	Block1	congruent/STIM_005.jpg
731.299	0.654	correct	congruent	Block1	congruent/STIM_006.jpg
735.03	0.946	correct	congruent	Block1	congruent/STIM_006.jpg
738.265	0.582	correct	congruent	Block1	congruent/STIM_006.jpg
741.22	0.71	correct	congruent	Block1	congruent/STIM_006.jpg
745.734	0.754	correct	congruent	Block1	congruent/STIM_006.jpg
750.384	0.722	correct	congruent	Block1	congruent/STIM_007.jpg
754.324	0.93	correct	congruent	Block1	congruent/STIM_007.jpg
757.965	0.573	correct	congruent	Block1	congruent/STIM_007.jpg
762.451	0.652	correct	congruent	Block1	congruent/STIM_007.jpg
766.607	0.642	correct	congruent	Block1	congruent/STIM_007.jpg
771.119	0.747	correct	congruent	Block1	congruent/STIM_008.jpg
774.493	0.68	correct	congruent	Block1	congruent/STIM_008.jpg
777.907	0.713	correct	congruent	Block1	congruent/STIM_008.jpg
782.592	0.858	correct	congruent	Block1	congruent/STIM_008.jpg
785.649	0.691	correct	congruent	Block1	congruent/STIM_008.jpg
788.954	0.717	correct	congruent	Block1	congruent/STIM_009.jpg
792.498	0.692	correct	congruent	Block1	congruent/STIM_009.jpg
796.524	0.564	correct	congruent	Block1	congruent/STIM_009.jpg
800.124	0.632	correct	congruent	Block1	congruent/STIM_009.jpg
804.649	0.617	correct	congruent	Block1	congruent/STIM_009.jpg
808.057	0.583	correct	congruent	Block1	congruent/STIM_010.jpg
812.541	0.563	correct	congruent	Block1	congruent/STIM_010.jpg
815.386	0.646	correct	congruent	Block1	congruent/STIM_010.jpg
818.798	0.98	correct	congruent	Block1	congruent/STIM_010.jpg
823.435	0.807	correct	congruent	Block1	congruent/STIM_010.jpg
827.933	0.883	correct	congruent	Block1	congruent/STIM_011.jpg
831.133	0.889	correct	congruent	Block1	congruent/STIM_011.jpg
835.813	0.894	correct	congruent	Block1	congruent/STIM_011.jpg
839.763	0.665	correct	congruent	Block1	congruent/STIM_011.jpg
843.5	0.855	correct	congruent	Block1	congruent/STIM_011.jpg
847.309	0.698	correct	congruent	Block1	congruent/STIM_012.jpg
851.101	0.868	correct	congruent	Block1	congruent/STIM_012.jpg
854.051	0.626	correct	congruent	Block1	congruent/STIM_012.jpg
858.327	0.67	correct	congruent	Block1	congruent/STIM_012.jpg
862.926	0.685	correct	congruent	Block1	congruent/STIM_012.jpg
866.792	0.878	correct	congruent	Block1	congruent/STIM_013.jpg
869.72	0.572	correct	congruent	Block1	congruent/STIM_013.jpg
872.398	0.619	correct	congruent	Block1	congruent/STIM_013.jpg
876.068	0.568	correct	congruent	Block1	congruent/STIM_013.jpg
878.676	0.725	correct	congruent	Block1	congruent/STIM_013.jpg
882.913	0.816	correct	congruent	Block1	congruent/STIM_014.jpg
885.809	0.68	correct	congruent	Block1	congruent/STIM_014.jpg
889.84	0.756	correct	congruent	Block1	congruent/STIM_014.jpg
894.086	0.676	correct	congruent	Block1	congruent/STIM_014.jpg
897.563	0.981	correct	congruent	Block1	congruent/STIM_014.jpg
901.617	0.824	correct	congruent	Block1	congruent/STIM_015.jpg
905.531	0.823	correct	congruent	Block1	congruent/STIM_015.jpg
909.307	0.915	correct	congruent	Block1	congruent/STIM_015.jpg
913.034	0.844	correct	congruent	Block1	congruent/STIM_015.jpg
917.572	0.773	correct	congruent	Block1	congruent/STIM_015.jpg
921.588	0.628	correct	congruent	Block1	congruent/STIM_016.jpg
924.91	0.841	correct	congruent	Block1	congruent/STIM_016.jpg
927.996	0.552	correct	congruent	Block1	congruent/STIM_016.jpg
931.681	0.677	correct	congruent	Block1	congruent/STIM_016.jpg
934.803	0.722	correct	congruent	Block1	congruent/STIM_016.jpg
937.819	0.707	correct	congruent	Block1	congruent/STIM_017.jpg
940.578	0.963	correct	congruent	Block1	congruent/STIM_017.jpg
944.278	0.855	correct	congruent	Block1	congruent/STIM_017.jpg
947.852	0.926	correct	congruent	Block1	congruent/STIM_017.jpg
951.606	0.912	correct	congruent	Block1	congruent/STIM_017.jpg
955.895	0.688	correct	congruent	Block1	congruent/STIM_018.jpg
958.624	0.96	correct	congruent	Block1	congruent/STIM_018.jpg
961.746	0.91	correct	congruent	Block1	congruent/STIM_018.jpg
965.985	0.933	correct	congruent	Block1	congruent/STIM_018.jpg
968.956	0.786	correct	congruent	Block1	congruent/STIM_018.jpg
971.866	0.933	correct	congruent	Block1	congruent/STIM_019.jpg
976.565	0.596	correct	congruent	Block1	congruent/STIM_019.jpg
979.978	0.596	correct	congruent	Block1	congruent/STIM_019.jpg
983.129	0.978	correct	congruent	Block1	congruent/STIM_019.jpg
987.774	0.698	correct	congruent	Block1	congruent/STIM_019.jpg
992.388	0.616	correct	congruent	Block1	congruent/STIM_020.jpg
995.023	0.601	correct	congruent	Block1	congruent/STIM_020.jpg
998.332	0.776	correct	congruent	Block1	congruent/STIM_020.jpg
1002.482	0.846	correct	congruent	Block1	congruent/STIM_020.jpg
1006.139	0.638	correct	congruent	Block1	congruent/STIM_020.jpg
1010.074	0.786	correct	congruent	Block1	congruent/STIM_021.jpg
1013.17	0.944	correct	congruent	Block1	congruent/STIM_021.jpg
1016.697	0.772	correct	congruent	Block1	congruent/STIM_021.jpg
1020.018	0.572	correct	congruent	Block1	congruent/STIM_021.jpg
1024.277	0.743	correct	congruent	Block1	congruent/STIM_021.jpg
1028.486	0.649	correct	congruent	Block1	congruent/STIM_022.jpg
1031.63	0.906	correct	congruent	Block1	congruent/STIM_022.jpg
1035.199	0.805	correct	congruent	Block1	congruent/STIM_022.jpg
1039.626	0.704	correct	congruent	Block1	congruent/STIM_022.jpg
1044.107	0.933	correct	congruent	Block1	congruent/STIM_022.jpg
1047.538	0.712	correct	congruent	Block1	congruent/STIM_023.jpg
1050.366	0.897	correct	congruent	Block1	congruent/STIM_023.jpg
1054.82	0.815	correct	congruent	Block1	congruent/STIM_023.jpg
1058.098	0.68	correct	congruent	Block1	congruent/STIM_023.jpg
1061.214	0.68	correct	congruent	Block1	congruent/STIM_023.jpg
1063.945	0.92	correct	congruent	Block1	congruent/STIM_024.jpg
1067.355	0.64	correct	congruent	Block1	congruent/STIM_024.jpg
1070.015	0.978	correct	congruent	Block1	congruent/STIM_024.jpg
1074.541	0.829	correct	congruent	Block1	congruent/STIM_024.jpg
1078.887	0.571	correct	congruent	Block1	congruent/STIM_024.jpg
1081.502	0.644	correct	congruent	Block1	congruent/STIM_025.jpg
1085.212	0.61	correct	congruent	Block1	congruent/STIM_025.jpg
1088.134	0.906	correct	congruent	Block1	congruent/STIM_025.jpg
1091.956	0.896	correct	congruent	Block1	congruent/STIM_025.jpg
1096.385	0.862	correct	congruent	Block1	congruent/STIM_025.jpg
1100.485	0.824	correct	congruent	Block1	congruent/STIM_026.jpg
1104.909	0.73	correct	congruent	Block1	congruent/STIM_026.jpg
1107.974	0.548	correct	congruent	Block1	congruent/STIM_026.jpg
1112.243	0.695	correct	congruent	Block1	congruent/STIM_026.jpg
1115.858	0.906	correct	congruent	Block1	congruent/STIM_026.jpg
1120.362	0.587	correct	congruent	Block1	congruent/STIM_027.jpg
1123.619	0.918	correct	congruent	Block1	congruent/STIM_027.jpg
1128.188	0.63	correct	congruent	Block1	congruent/STIM_027.jpg
1131.938	0.93	correct	congruent	Block1	congruent/STIM_027.jpg
1135.069	0.698	correct	congruent	Block1	congruent/STIM_027.jpg
1138.516	0.764	correct	congruent	Block1	congruent/STIM_028.jpg
1142.353	0.887	correct	congruent	Block1	congruent/STIM_028.jpg
1146.595	0.564	correct	congruent	Block1	congruent/STIM_028.jpg
1150.274	0.791	correct	congruent	Block1	congruent/STIM_028.jpg
1153.795	0.708	correct	congruent	Block1	congruent/STIM_028.jpg
1158.191	0.94	correct	congruent	Block1	congruent/STIM_029.jpg
1161.883	0.635	correct	congruent	Block1	congruent/STIM_029.jpg
1165.021	0.56	correct	congruent	Block1	congruent/STIM_029.jpg
1168.963	0.944	correct	congruent	Block1	congruent/STIM_029.jpg
1172.471	0.951	correct	congruent	Block1	congruent/STIM_029.jpg
1175.477	0.991	incorrect	incongruent	Block2	incongruent/STIM_000.jpg
1179.838	1.138	correct	incongruent	Block2	incongruent/STIM_000.jpg
1184.625	0.706	correct	incongruent	Block2	incongruent/STIM_000.jpg
1187.556	1.049	correct	incongruent	Block2	incongruent/STIM_000.jpg
1192.044	0.866	correct	incongruent	Block2	incongruent/STIM_000.jpg
1196.282	1.268	correct	incongruent	Block2	incongruent/STIM_001.jpg
1200.016	1.095	correct	incongruent	Block2	incongruent/STIM_001.jpg
1203.163	1.181	correct	incongruent	Block2	incongruent/STIM_001.jpg
1208.205	0.968	correct	incongruent	Block2	incongruent/STIM_001.jpg
1212.053	0.698	correct	incongruent	Block2	incongruent/STIM_001.jpg
1216.534	1.352	correct	incongruent	Block2	incongruent/STIM_002.jpg
1220.431	0.79	correct	incongruent	Block2	incongruent/STIM_002.jpg
1224.246	0.807	correct	incongruent	Block2	incongruent/STIM_002.jpg
1228.123	0.562	correct	incongruent	Block2	incongruent/STIM_002.jpg
1231.751	1.044	correct	incongruent	Block2	incongruent/STIM_002.jpg
1236.535	1.266	correct	incongruent	Block2	incongruent/STIM_003.jpg
1241.078	0.931	correct	incongruent	Block2	incongruent/STIM_003.jpg
1244.088	1.165	correct	incongruent	Block2	incongruent/STIM_003.jpg
1248.837	0.794	correct	incongruent	Block2	incongruent/STIM_003.jpg
1252.178	0.602	correct	incongruent	Block2	incongruent/STIM_003.jpg
1255.384	0.804	correct	incongruent	Block2	incongruent/STIM_004.jpg
1258.817	0.98	correct	incongruent	Block2	incongruent/STIM_004.jpg
1262.931	1.163	correct	incongruent	Block2	incongruent/STIM_004.jpg
1266.595	0.57	correct	incongruent	Block2	incongruent/STIM_004.jpg
1269.31	0.78	correct	incongruent	Block2	incongruent/STIM_004.jpg
1272.931	0.764	correct	incongruent	Block2	incongruent/STIM_005.jpg
1276.892	1.122	correct	incongruent	Block2	incongruent/STIM_005.jpg
1281.036	0.688	correct	incongruent	Block2	incongruent/STIM_005.jpg
1285.466	0.657	correct	incongruent	Block2	incongruent/STIM_005.jpg
1289.116	0.88	correct	incongruent	Block2	incongruent/STIM_005.jpg
1293.089	0.829	correct	incongruent	Block2	incongruent/STIM_006.jpg
1296.159	0.785	correct	incongruent	Block2	incongruent/STIM_006.jpg
1300.019	0.885	correct	incongruent	Block2	incongruent/STIM_006.jpg
1303.871	1.148	correct	incongruent	Block2	incongruent/STIM_006.jpg
1308.616	0.995	correct	incongruent	Block2	incongruent/STIM_006.jpg
1313.265	0.778	correct	incongruent	Block2	incongruent/STIM_007.jpg
1317.676	1.084	correct	incongruent	Block2	incongruent/STIM_007.jpg
1322.162	0.947	correct	incongruent	Block2	incongruent/STIM_007.jpg
1325.434	1.047	correct	incongruent	Block2	incongruent/STIM_007.jpg
1328.591	1.108	correct	incongruent	Block2	incongruent/STIM_007.jpg
1332.316	0.866	correct	incongruent	Block2	incongruent/STIM_008.jpg
1336.482	0.787	correct	incongruent	Block2	incongruent/STIM_008.jpg
1341.23	1.156	correct	incongruent	Block2	incongruent/STIM_008.jpg
1345.094	0.59	correct	incongruent	Block2	incongruent/STIM_008.jpg
1348.559	1.131	correct	incongruent	Block2	incongruent/STIM_008.jpg
1353.0	1.017	correct	incongruent	Block2	incongruent/STIM_009.jpg
1356.355	0.905	correct	incongruent	Block2	incongruent/STIM_009.jpg
1360.007	0.648	correct	incongruent	Block2	incongruent/STIM_009.jpg
1363.756	0.592	correct	incongruent	Block2	incongruent/STIM_009.jpg
1368.273	1.101	correct	incongruent	Block2	incongruent/STIM_009.jpg
1372.996	1.368	correct	incongruent	Block2	incongruent/STIM_010.jpg
1377.172	0.725	correct	incongruent	Block2	incongruent/STIM_010.jpg
1380.386	0.995	correct	incongruent	Block2	incongruent/STIM_010.jpg
1384.781	1.115	correct	incongruent	Block2	incongruent/STIM_010.jpg
1388.211	1.056	correct	incongruent	Block2	incongruent/STIM_010.jpg
1392.8	0.949	correct	incongruent	Block2	incongruent/STIM_011.jpg
1397.043	0.636	correct	incongruent	Block2	incongruent/STIM_011.jpg
1400.402	1.189	correct	incongruent	Block2	incongruent/STIM_011.jpg
1405.037	0.608	correct	incongruent	Block2	incongruent/STIM_011.jpg
1409.642	0.638	correct	incongruent	Block2	incongruent/STIM_011.jpg
1413.818	0.886	correct	incongruent	Block2	incongruent/STIM_012.jpg
1418.218	0.879	correct	incongruent	Block2	incongruent/STIM_012.jpg
1422.056	1.12	correct	incongruent	Block2	incongruent/STIM_012.jpg
1425.853	0.571	correct	incongruent	Block2	incongruent/STIM_012.jpg
1430.352	1.055	correct	incongruent	Block2	incongruent/STIM_012.jpg
1434.72	1.16	correct	incongruent	Block2	incongruent/STIM_013.jpg
1438.852	0.773	correct	incongruent	Block2	incongruent/STIM_013.jpg
1443.112	0.633	correct	incongruent	Block2	incongruent/STIM_013.jpg
1446.748	0.913	correct	incongruent	Block2	incongruent/STIM_013.jpg
1449.96	0.976	correct	incongruent	Block2	incongruent/STIM_013.jpg
1454.9	0.864	correct	incongruent	Block2	incongruent/STIM_014.jpg
1458.794	0.935	correct	incongruent	Block2	incongruent/STIM_014.jpg
1463.618	0.622	correct	incongruent	Block2	incongruent/STIM_014.jpg
1467.682	1.022	correct	incongruent	Block2	incongruent/STIM_014.jpg
1471.706	0.841	correct	incongruent	Block2	incongruent/STIM_014.jpg
1476.524	1.336	correct	incongruent	Block2	incongruent/STIM_015.jpg
1481.434	0.716	correct	incongruent	Block2	incongruent/STIM_015.jpg
1485.911	0.92	correct	incongruent	Block2	incongruent/STIM_015.jpg
1489.874	0.743	correct	incongruent	Block2	incongruent/STIM_015.jpg
1492.955	1.134	correct	incongruent	Block2	incongruent/STIM_015.jpg
1497.004	0.834	correct	incongruent	Block2	incongruent/STIM_016.jpg
1501.471	1.252	correct	incongruent	Block2	incongruent/STIM_016.jpg
1506.664	1.199	correct	incongruent	Block2	incongruent/STIM_016.jpg
1510.938	0.81	correct	incongruent	Block2	incongruent/STIM_016.jpg
1515.099	0.91	correct	incongruent	Block2	incongruent/STIM_016.jpg
1518.589	1.264	correct	incongruent	Block2	incongruent/STIM_017.jpg
1523.848	1.148	correct	incongruent	Block2	incongruent/STIM_017.jpg
1528.85	0.678	correct	incongruent	Block2	incongruent/STIM_017.jpg
1532.187	1.054	correct	incongruent	Block2	incongruent/STIM_017.jpg
1535.925	0.961	correct	incongruent	Block2	incongruent/STIM_017.jpg
1538.97	0.966	correct	incongruent	Block2	incongruent/STIM_018.jpg
1543.433	0.773	correct	incongruent	Block2	incongruent/STIM_018.jpg
1546.857	0.788	correct	incongruent	Block2	incongruent/STIM_018.jpg
1551.366	1.086	correct	incongruent	Block2	incongruent/STIM_018.jpg
1555.272	0.834	correct	incongruent	Block2	incongruent/STIM_018.jpg
1558.688	1.221	correct	incongruent	Block2	incongruent/STIM_019.jpg
1562.238	1.303	correct	incongruent	Block2	incongruent/STIM_019.jpg
1566.617	1.001	correct	incongruent	Block2	incongruent/STIM_019.jpg
1570.274	0.588	correct	incongruent	Block2	incongruent/STIM_019.jpg
1573.996	0.558	correct	incongruent	Block2	incongruent/STIM_019.jpg
1577.13	1.035	correct	incongruent	Block2	incongruent/STIM_020.jpg
1581.656	0.638	correct	incongruent	Block2	incongruent/STIM_020.jpg
1584.507	1.071	correct	incongruent	Block2	incongruent/STIM_020.jpg
1588.212	1.046	correct	incongruent	Block2	incongruent/STIM_020.jpg
1593.053	0.829	correct	incongruent	Block2	incongruent/STIM_020.jpg
1597.389	0.733	correct	incongruent	Block2	incongruent/STIM_021.jpg
1601.24	0.943	correct	incongruent	Block2	incongruent/STIM_021.jpg
1605.106	1.048	correct	incongruent	Block2	incongruent/STIM_021.jpg
1608.249	0.888	correct	incongruent	Block2	incongruent/STIM_021.jpg
1611.159	0.561	correct	incongruent	Block2	incongruent/STIM_021.jpg
1615.428	0.93	correct	incongruent	Block2	incongruent/STIM_022.jpg
1618.884	1.204	correct	incongruent	Block2	incongruent/STIM_022.jpg
1622.493	0.998	correct	incongruent	Block2	incongruent/STIM_022.jpg
1625.836	1.1	correct	incongruent	Block2	incongruent/STIM_022.jpg
1630.307	0.922	correct	incongruent	Block2	incongruent/STIM_022.jpg
1635.051	0.777	correct	incongruent	Block2	incongruent/STIM_023.jpg
1638.647	0.696	correct	incongruent	Block2	incongruent/STIM_023.jpg
1642.017	0.981	incorrect	incongruent	Block2	incongruent/STIM_023.jpg
1646.109	0.682	correct	incongruent	Block2	incongruent/STIM_023.jpg
1649.221	1.0	correct	incongruent	Block2	incongruent/STIM_023.jpg
1653.176	0.684	correct	incongruent	Block2	incongruent/STIM_024.jpg
1656.328	1.017	correct	incongruent	Block2	incongruent/STIM_024.jpg
1660.457	0.779	correct	incongruent	Block2	incongruent/STIM_024.jpg
1664.708	0.901	correct	incongruent	Block2	incongruent/STIM_024.jpg
1668.657	0.619	correct	incongruent	Block2	incongruent/STIM_024.jpg
1671.347	0.976	correct	incongruent	Block2	incongruent/STIM_025.jpg
1674.6	0.873	correct	incongruent	Block2	incongruent/STIM_025.jpg
1677.651	1.188	correct	incongruent	Block2	incongruent/STIM_025.jpg
1681.253	0.731	correct	incongruent	Block2	incongruent/STIM_025.jpg
1685.805	0.575	correct	incongruent	Block2	incongruent/STIM_025.jpg
1689.264	0.896	correct	incongruent	Block2	incongruent/STIM_026.jpg
1692.704	1.006	correct	incongruent	Block2	incongruent/STIM_026.jpg
1697.211	1.075	correct	incongruent	Block2	incongruent/STIM_026.jpg
1701.505	0.583	correct	incongruent	Block2	incongruent/STIM_026.jpg
1704.352	1.134	correct	incongruent	Block2	incongruent/STIM_026.jpg
1709.109	0.889	correct	incongruent	Block2	incongruent/STIM_027.jpg
1712.139	0.655	correct	incongruent	Block2	incongruent/STIM_027.jpg
1716.166	0.878	correct	incongruent	Block2	incongruent/STIM_027.jpg
1720.164	0.95	correct	incongruent	Block2	incongruent/STIM_027.jpg
1724.199	0.792	correct	incongruent	Block2	incongruent/STIM_027.jpg
1728.849	1.15	correct	incongruent	Block2	incongruent/STIM_028.jpg
1733.309	0.739	correct	incongruent	Block2	incongruent/STIM_028.jpg
1737.588	0.881	correct	incongruent	Block2	incongruent/STIM_028.jpg
1742.457	0.875	correct	incongruent	Block2	incongruent/STIM_028.jpg
1745.52	0.619	correct	incongruent	Block2	incongruent/STIM_028.jpg
1749.263	1.074	correct	incongruent	Block2	incongruent/STIM_029.jpg
1753.554	1.17	correct	incongruent	Block2	incongruent/STIM_029.jpg
1756.87	0.877	correct	incongruent	Block2	incongruent/STIM_029.jpg
1760.871	0.996	correct	incongruent	Block2	incongruent/STIM_029.jpg
1764.953	0.822	correct	incongruent	Block2	incongruent/STIM_029.jpg
1769.585	0.898	correct	congruent	Block2	congruent/STIM_000.jpg
1774.448	0.655	correct	congruent	Block2	congruent/STIM_000.jpg
1777.459	0.969	correct	congruent	Block2	congruent/STIM_000.jpg
1781.308	0.93	correct	congruent	Block2	congruent/STIM_000.jpg
1784.643	0.741	correct	congruent	Block2	congruent/STIM_000.jpg
1787.801	0.886	correct	congruent	Block2	congruent/STIM_001.jpg
1792.444	0.727	correct	congruent	Block2	congruent/STIM_001.jpg
1796.073	0.588	correct	congruent	Block2	congruent/STIM_001.jpg
1798.842	0.634	correct	congruent	Block2	congruent/STIM_001.jpg
1802.705	0.728	correct	congruent	Block2	congruent/STIM_001.jpg
1806.138	0.622	correct	congruent	Block2	congruent/STIM_002.jpg
1810.685	0.861	correct	congruent	Block2	congruent/STIM_002.jpg
1814.898	0.852	correct	congruent	Block2	congruent/STIM_002.jpg
1819.684	0.923	correct	congruent	Block2	congruent/STIM_002.jpg
1823.224	0.752	correct	congruent	Block2	congruent/STIM_002.jpg
1826.676	0.749	correct	congruent	Block2	congruent/STIM_003.jpg
1829.858	0.664	correct	congruent	Block2	congruent/STIM_003.jpg
1834.233	0.813	correct	congruent	Block2	congruent/STIM_003.jpg
1838.16	0.966	correct	congruent	Block2	congruent/STIM_003.jpg
1841.653	0.978	correct	congruent	Block2	congruent/STIM_003.jpg
1845.707	0.737	correct	congruent	Block2	congruent/STIM_004.jpg
1848.484	0.824	correct	congruent	Block2	congruent/STIM_004.jpg
1851.642	0.747	correct	congruent	Block2	congruent/STIM_004.jpg
1854.681	0.627	correct	congruent	Block2	congruent/STIM_004.jpg
1858.02	0.934	correct	congruent	Block2	congruent/STIM_004.jpg
1861.578	0.661	correct	congruent	Block2	congruent/STIM_005.jpg
1864.421	0.876	correct	congruent	Block2	congruent/STIM_005.jpg
1867.532	0.792	correct	congruent	Block2	congruent/STIM_005.jpg
1871.371	0.906	correct	congruent	Block2	congruent/STIM_005.jpg
1875.852	0.565	correct	congruent	Block2	congruent/STIM_005.jpg
1879.525	0.817	correct	congruent	Block2	congruent/STIM_006.jpg
1883.885	0.972	correct	congruent	Block2	congruent/STIM_006.jpg
1887.515	0.924	correct	congruent	Block2	congruent/STIM_006.jpg
1891.165	0.776	correct	congruent	Block2	congruent/STIM_006.jpg
1894.805	0.576	correct	congruent	Block2	congruent/STIM_006.jpg
1898.612	0.974	correct	congruent	Block2	congruent/STIM_007.jpg
1903.324	0.772	correct	congruent	Block2	congruent/STIM_007.jpg
1907.418	0.978	correct	congruent	Block2	congruent/STIM_007.jpg
1910.586	0.814	correct	congruent	Block2	congruent/STIM_007.jpg
1913.635	0.899	correct	congruent	Block2	congruent/STIM_007.jpg
1917.195	0.905	correct	congruent	Block2	congruent/STIM_008.jpg
1921.116	0.879	correct	congruent	Block2	congruent/STIM_008.jpg
1925.574	0.696	correct	congruent	Block2	congruent/STIM_008.jpg
1929.05	0.957	correct	congruent	Block2	congruent/STIM_008.jpg
1933.191	0.8	correct	congruent	Block2	congruent/STIM_008.jpg
1937.719	0.77	correct	congruent	Block2	congruent/STIM_009.jpg
1941.854	0.603	correct	congruent	Block2	congruent/STIM_009.jpg
1944.569	0.628	correct	congruent	Block2	congruent/STIM_009.jpg
1947.807	0.642	correct	congruent	Block2	congruent/STIM_009.jpg
1952.266	0.698	correct	congruent	Block2	congruent/STIM_009.jpg
1956.627	0.975	correct	congruent	Block2	congruent/STIM_010.jpg
1960.327	0.806	correct	congruent	Block2	congruent/STIM_010.jpg
1964.97	0.553	correct	congruent	Block2	congruent/STIM_010.jpg
1968.951	0.6	correct	congruent	Block2	congruent/STIM_010.jpg
1972.611	0.656	correct	congruent	Block2	congruent/STIM_010.jpg
1977.081	0.889	correct	congruent	Block2	congruent/STIM_011.jpg
1980.232	0.7	correct	congruent	Block2	congruent/STIM_011.jpg
1983.104	0.872	correct	congruent	Block2	congruent/STIM_011.jpg
1987.62	0.564	correct	congruent	Block2	congruent/STIM_011.jpg
1990.328	0.881	correct	congruent	Block2	congruent/STIM_011.jpg
1993.854	0.984	correct	congruent	Block2	congruent/STIM_012.jpg
1998.049	0.703	correct	congruent	Block2	congruent/STIM_012.jpg
2001.32	0.58	correct	congruent	Block2	congruent/STIM_012.jpg
2004.377	0.814	correct	congruent	Block2	congruent/STIM_012.jpg
2007.935	0.895	correct	congruent	Block2	congruent/STIM_012.jpg
2011.577	0.91	correct	congruent	Block2	congruent/STIM_013.jpg
2016.078	0.576	correct	congruent	Block2	congruent/STIM_013.jpg
2020.492	0.947	correct	congruent	Block2	congruent/STIM_013.jpg
2023.745	0.763	correct	congruent	Block2	congruent/STIM_013.jpg
2027.089	0.557	correct	congruent	Block2	congruent/STIM_013.jpg
2029.68	0.924	correct	congruent	Block2	congruent/STIM_014.jpg
2034.278	0.733	correct	congruent	Block2	congruent/STIM_014.jpg
2037.885	0.794	correct	congruent	Block2	congruent/STIM_014.jpg
2041.149	0.707	correct	congruent	Block2	congruent/STIM_014.jpg
2043.864	0.963	correct	congruent	Block2	congruent/STIM_014.jpg
2046.977	0.902	correct	congruent	Block2	congruent/STIM_015.jpg
2051.874	0.616	correct	congruent	Block2	congruent/STIM_015.jpg
2054.775	0.748	correct	congruent	Block2	congruent/STIM_015.jpg
2058.214	0.56	correct	congruent	Block2	congruent/STIM_015.jpg
2061.3	0.725	correct	congruent	Block2	congruent/STIM_015.jpg
2065.016	0.811	correct	congruent	Block2	congruent/STIM_016.jpg
2069.232	0.935	correct	congruent	Block2	congruent/STIM_016.jpg
2073.954	0.719	correct	congruent	Block2	congruent/STIM_016.jpg
2077.567	0.752	correct	congruent	Block2	congruent/STIM_016.jpg
2081.817	0.693	correct	congruent	Block2	congruent/STIM_016.jpg
2084.608	0.564	correct	congruent	Block2	congruent/STIM_017.jpg
2087.372	0.796	correct	congruent	Block2	congruent/STIM_017.jpg
2090.987	0.943	correct	congruent	Block2	congruent/STIM_017.jpg
2094.61	0.874	correct	congruent	Block2	congruent/STIM_017.jpg
2098.801	0.554	correct	congruent	Block2	congruent/STIM_017.jpg
2102.971	0.728	correct	congruent	Block2	congruent/STIM_018.jpg
2106.805	0.936	correct	congruent	Block2	congruent/STIM_018.jpg
2109.943	0.933	correct	congruent	Block2	congruent/STIM_018.jpg
2114.208	0.701	correct	congruent	Block2	congruent/STIM_018.jpg
2117.17	0.686	correct	congruent	Block2	congruent/STIM_018.jpg
2121.167	0.747	correct	congruent	Block2	congruent/STIM_019.jpg
2124.465	0.966	correct	congruent	Block2	congruent/STIM_019.jpg
2127.644	0.767	correct	congruent	Block2	congruent/STIM_019.jpg
2130.525	0.849	correct	congruent	Block2	congruent/STIM_019.jpg
2135.327	0.877	correct	congruent	Block2	congruent/STIM_019.jpg
2139.873	0.908	correct	congruent	Block2	congruent/STIM_020.jpg
2143.977	0.672	correct	congruent	Block2	congruent/STIM_020.jpg
2147.93	0.925	correct	congruent	Block2	congruent/STIM_020.jpg
2150.952	0.581	correct	congruent	Block2	congruent/STIM_020.jpg
2154.075	0.701	correct	congruent	Block2	congruent/STIM_020.jpg
2157.091	0.876	correct	congruent	Block2	congruent/STIM_021.jpg
2160.61	0.586	correct	congruent	Block2	congruent/STIM_021.jpg
2163.59	0.976	correct	congruent	Block2	congruent/STIM_021.jpg
2168.563	0.974	correct	congruent	Block2	congruent/STIM_021.jpg
2173.128	0.767	correct	congruent	Block2	congruent/STIM_021.jpg
2177.272	0.917	correct	congruent	Block2	congruent/STIM_022.jpg
2180.353	0.558	correct	congruent	Block2	congruent/STIM_022.jpg
2183.924	0.767	correct	congruent	Block2	congruent/STIM_022.jpg
2186.857	0.74	correct	congruent	Block2	congruent/STIM_022.jpg
2191.034	0.95	correct	congruent	Block2	congruent/STIM_022.jpg
2195.195	0.745	correct	congruent	Block2	congruent/STIM_023.jpg
2198.928	0.836	correct	congruent	Block2	congruent/STIM_023.jpg
2203.335	0.584	correct	congruent	Block2	congruent/STIM_023.jpg
2206.576	0.836	correct	congruent	Block2	congruent/STIM_023.jpg
2210.131	0.908	correct	congruent	Block2	congruent/STIM_023.jpg
2214.978	0.857	correct	congruent	Block2	congruent/STIM_024.jpg
2218.101	0.644	correct	congruent	Block2	congruent/STIM_024.jpg
2222.088	0.971	correct	congruent	Block2	congruent/STIM_024.jpg
2225.423	0.777	correct	congruent	Block2	congruent/STIM_024.jpg
2229.359	0.562	correct	congruent	Block2	congruent/STIM_024.jpg
2232.483	0.559	correct	congruent	Block2	congruent/STIM_025.jpg
2235.158	0.806	correct	congruent	Block2	congruent/STIM_025.jpg
2239.703	0.985	correct	congruent	Block2	congruent/STIM_025.jpg
2243.357	0.966	correct	congruent	Block2	congruent/STIM_025.jpg
2246.605	0.849	correct	congruent	Block2	congruent/STIM_025.jpg
2250.012	0.783	correct	congruent	Block2	congruent/STIM_026.jpg
2253.176	0.704	correct	congruent	Block2	congruent/STIM_026.jpg
2257.376	0.977	correct	congruent	Block2	congruent/STIM_026.jpg
2260.418	0.95	correct	congruent	Block2	congruent/STIM_026.jpg
2265.011	0.731	correct	congruent	Block2	congruent/STIM_026.jpg
2269.292	0.928	correct	congruent	Block2	congruent/STIM_027.jpg
2273.73	0.976	correct	congruent	Block2	congruent/STIM_027.jpg
2277.24	0.815	correct	congruent	Block2	congruent/STIM_027.jpg
2281.795	0.64	correct	congruent	Block2	congruent/STIM_027.jpg
2286.223	0.766	correct	congruent	Block2	congruent/STIM_027.jpg
2290.239	0.629	correct	congruent	Block2	congruent/STIM_028.jpg
2293.217	0.574	correct	congruent	Block2	congruent/STIM_028.jpg
2296.036	0.729	correct	congruent	Block2	congruent/STIM_028.jpg
2299.93	0.574	correct	congruent	Block2	congruent/STIM_028.jpg
2303.862	0.911	correct	congruent	Block2	congruent/STIM_028.jpg
2307.141	0.894	correct	congruent	Block2	congruent/STIM_029.jpg
2311.434	0.904	correct	congruent	Block2	congruent/STIM_029.jpg
2315.614	0.548	correct	congruent	Block2	congruent/STIM_029.jpg
2318.845	0.583	correct	congruent	Block2	congruent/STIM_029.jpg
2321.796	0.648	correct	congruent	Block2	congruent/STIM_029.jpg
2324.88	0.787	correct	incongruent	Block3	incongruent/STIM_000.jpg
2329.297	0.937	correct	incongruent	Block3	incongruent/STIM_000.jpg
2333.206	0.899	correct	incongruent	Block3	incongruent/STIM_000.jpg
2337.943	0.556	correct	incongruent	Block3	incongruent/STIM_000.jpg
2341.476	0.571	correct	incongruent	Block3	incongruent/STIM_000.jpg
2345.051	0.624	correct	incongruent	Block3	incongruent/STIM_001.jpg
2348.05	0.619	correct	incongruent	Block3	incongruent/STIM_001.jpg
2351.294	1.048	correct	incongruent	Block3	incongruent/STIM_001.jpg
2355.286	0.96	correct	incongruent	Block3	incongruent/STIM_001.jpg
2359.212	0.986	correct	incongruent	Block3	incongruent/STIM_001.jpg
2363.404	1.077	correct	incongruent	Block3	incongruent/STIM_002.jpg
2367.745	1.089	correct	incongruent	Block3	incongruent/STIM_002.jpg
2371.842	1.057	correct	incongruent	Block3	incongruent/STIM_002.jpg
2375.91	1.089	correct	incongruent	Block3	incongruent/STIM_002.jpg
2380.257	0.782	correct	incongruent	Block3	incongruent/STIM_002.jpg
2384.764	0.936	incorrect	incongruent	Block3	incongruent/STIM_003.jpg
2388.232	1.045	correct	incongruent	Block3	incongruent/STIM_003.jpg
2391.627	0.706	correct	incongruent	Block3	incongruent/STIM_003.jpg
2394.667	0.778	incorrect	incongruent	Block3	incongruent/STIM_003.jpg
2398.135	0.756	incorrect	incongruent	Block3	incongruent/STIM_003.jpg
2401.996	0.982	correct	incongruent	Block3	incongruent/STIM_004.jpg
2406.597	0.987	correct	incongruent	Block3	incongruent/STIM_004.jpg
2410.592	0.981	correct	incongruent	Block3	incongruent/STIM_004.jpg
2415.477	0.77	correct	incongruent	Block3	incongruent/STIM_004.jpg
2419.721	0.94	correct	incongruent	Block3	incongruent/STIM_004.jpg
2422.912	0.715	correct	incongruent	Block3	incongruent/STIM_005.jpg
2425.877	0.548	correct	incongruent	Block3	incongruent/STIM_005.jpg
2429.728	1.033	correct	incongruent	Block3	incongruent/STIM_005.jpg
2432.97	0.928	correct	incongruent	Block3	incongruent/STIM_005.jpg
2437.579	0.991	correct	incongruent	Block3	incongruent/STIM_005.jpg
2441.371	0.599	correct	incongruent	Block3	incongruent/STIM_006.jpg
2444.789	0.589	correct	incongruent	Block3	incongruent/STIM_006.jpg
2447.401	0.8	correct	incongruent	Block3	incongruent/STIM_006.jpg
2451.341	0.622	correct	incongruent	Block3	incongruent/STIM_006.jpg
2455.679	0.821	correct	incongruent	Block3	incongruent/STIM_006.jpg
2460.21	0.694	correct	incongruent	Block3	incongruent/STIM_007.jpg
2464.002	0.57	correct	incongruent	Block3	incongruent/STIM_007.jpg
2467.032	0.783	correct	incongruent	Block3	incongruent/STIM_007.jpg
2470.789	0.972	correct	incongruent	Block3	incongruent/STIM_007.jpg
2475.209	0.643	correct	incongruent	Block3	incongruent/STIM_007.jpg
2479.595	0.953	correct	incongruent	Block3	incongruent/STIM_008.jpg
2483.782	0.617	correct	incongruent	Block3	incongruent/STIM_008.jpg
2487.031	1.004	correct	incongruent	Block3	incongruent/STIM_008.jpg
2490.372	1.149	correct	incongruent	Block3	incongruent/STIM_008.jpg
2493.799	0.885	correct	incongruent	Block3	incongruent/STIM_008.jpg
2498.213	0.838	correct	incongruent	Block3	incongruent/STIM_009.jpg
2501.401	1.057	correct	incongruent	Block3	incongruent/STIM_009.jpg
2504.873	0.913	correct	incongruent	Block3	incongruent/STIM_009.jpg
2509.368	1.114	correct	incongruent	Block3	incongruent/STIM_009.jpg
2514.025	0.562	correct	incongruent	Block3	incongruent/STIM_009.jpg
2516.686	0.818	correct	incongruent	Block3	incongruent/STIM_010.jpg
2521.451	1.113	correct	incongruent	Block3	incongruent/STIM_010.jpg
2524.907	0.821	correct	incongruent	Block3	incongruent/STIM_010.jpg
2528.25	0.589	correct	incongruent	Block3	incongruent/STIM_010.jpg
2532.28	1.014	correct	incongruent	Block3	incongruent/STIM_010.jpg
2537.095	0.932	correct	incongruent	Block3	incongruent/STIM_011.jpg
2540.485	0.897	correct	incongruent	Block3	incongruent/STIM_011.jpg
2544.657	0.905	correct	incongruent	Block3	incongruent/STIM_011.jpg
2547.584	1.092	correct	incongruent	Block3	incongruent/STIM_011.jpg
2552.236	0.551	correct	incongruent	Block3	incongruent/STIM_011.jpg
2556.449	0.896	correct	incongruent	Block3	incongruent/STIM_012.jpg
2560.039	0.951	correct	incongruent	Block3	incongruent/STIM_012.jpg
2563.64	1.004	correct	incongruent	Block3	incongruent/STIM_012.jpg
2568.27	0.814	correct	incongruent	Block3	incongruent/STIM_012.jpg
2572.906	0.691	correct	incongruent	Block3	incongruent/STIM_012.jpg
2575.895	1.079	correct	incongruent	Block3	incongruent/STIM_013.jpg
2580.646	0.551	correct	incongruent	Block3	incongruent/STIM_013.jpg
2584.71	0.92	correct	incongruent	Block3	incongruent/STIM_013.jpg
2589.085	0.94	correct	incongruent	Block3	incongruent/STIM_013.jpg
2593.44	0.737	correct	incongruent	Block3	incongruent/STIM_013.jpg
2596.412	0.948	correct	incongruent	Block3	incongruent/STIM_014.jpg
2601.239	1.118	correct	incongruent	Block3	incongruent/STIM_014.jpg
2605.707	0.73	correct	incongruent	Block3	incongruent/STIM_014.jpg
2609.148	1.108	correct	incongruent	Block3	incongruent/STIM_014.jpg
2613.947	0.691	correct	incongruent	Block3	incongruent/STIM_014.jpg
2617.656	0.654	correct	incongruent	Block3	incongruent/STIM_015.jpg
2621.247	0.641	correct	incongruent	Block3	incongruent/STIM_015.jpg
2624.637	0.701	correct	incongruent	Block3	incongruent/STIM_015.jpg
2628.423	0.92	correct	incongruent	Block3	incongruent/STIM_015.jpg
2631.656	0.987	correct	incongruent	Block3	incongruent/STIM_015.jpg
2635.434	0.815	correct	incongruent	Block3	incongruent/STIM_016.jpg
2639.981	1.069	correct	incongruent	Block3	incongruent/STIM_016.jpg
2643.902	0.581	correct	incongruent	Block3	incongruent/STIM_016.jpg
2647.529	0.614	correct	incongruent	Block3	incongruent/STIM_016.jpg
2651.051	0.815	correct	incongruent	Block3	incongruent/STIM_016.jpg
2655.632	1.061	correct	incongruent	Block3	incongruent/STIM_017.jpg
2660.397	0.887	correct	incongruent	Block3	incongruent/STIM_017.jpg
2665.06	0.753	correct	incongruent	Block3	incongruent/STIM_017.jpg
2669.814	0.668	correct	incongruent	Block3	incongruent/STIM_017.jpg
2673.804	1.149	correct	incongruent	Block3	incongruent/STIM_017.jpg
2677.803	1.122	correct	incongruent	Block3	incongruent/STIM_018.jpg
2682.686	0.888	correct	incongruent	Block3	incongruent/STIM_018.jpg
2687.434	0.682	correct	incongruent	Block3	incongruent/STIM_018.jpg
2691.999	0.565	correct	incongruent	Block3	incongruent/STIM_018.jpg
2695.541	0.812	correct	incongruent	Block3	incongruent/STIM_018.jpg
2699.722	0.67	correct	incongruent	Block3	incongruent/STIM_019.jpg
2703.363	0.941	correct	incongruent	Block3	incongruent/STIM_019.jpg
2706.897	0.722	correct	incongruent	Block3	incongruent/STIM_019.jpg
2710.115	0.724	correct	incongruent	Block3	incongruent/STIM_019.jpg
2713.675	0.635	correct	incongruent	Block3	incongruent/STIM_019.jpg
2716.426	0.728	incorrect	incongruent	Block3	incongruent/STIM_020.jpg
2720.81	0.99	correct	incongruent	Block3	incongruent/STIM_020.jpg
2724.721	0.705	correct	incongruent	Block3	incongruent/STIM_020.jpg
2729.193	0.939	correct	incongruent	Block3	incongruent/STIM_020.jpg
2732.198	0.961	correct	incongruent	Block3	incongruent/STIM_020.jpg
2736.192	0.898	correct	incongruent	Block3	incongruent/STIM_021.jpg
2740.463	0.882	correct	incongruent	Block3	incongruent/STIM_021.jpg
2744.97	0.574	correct	incongruent	Block3	incongruent/STIM_021.jpg
2749.095	0.706	correct	incongruent	Block3	incongruent/STIM_021.jpg
2752.446	0.764	correct	incongruent	Block3	incongruent/STIM_021.jpg
2755.215	0.601	correct	incongruent	Block3	incongruent/STIM_022.jpg
2758.335	0.594	correct	incongruent	Block3	incongruent/STIM_022.jpg
2761.987	0.997	correct	incongruent	Block3	incongruent/STIM_022.jpg
2766.705	0.695	correct	incongruent	Block3	incongruent/STIM_022.jpg
2769.734	0.793	correct	incongruent	Block3	incongruent/STIM_022.jpg
2773.335	0.843	correct	incongruent	Block3	incongruent/STIM_023.jpg
2777.661	0.802	incorrect	incongruent	Block3	incongruent/STIM_023.jpg
2781.157	0.945	correct	incongruent	Block3	incongruent/STIM_023.jpg
2784.887	0.56	correct	incongruent	Block3	incongruent/STIM_023.jpg
2789.015	0.627	correct	incongruent	Block3	incongruent/STIM_023.jpg
2791.985	0.547	correct	incongruent	Block3	incongruent/STIM_024.jpg
2794.812	1.141	correct	incongruent	Block3	incongruent/STIM_024.jpg
2799.13	0.693	correct	incongruent	Block3	incongruent/STIM_024.jpg
2803.036	0.611	correct	incongruent	Block3	incongruent/STIM_024.jpg
2806.176	0.73	correct	incongruent	Block3	incongruent/STIM_024.jpg
2810.193	0.654	correct	incongruent	Block3	incongruent/STIM_025.jpg
2814.301	0.701	correct	incongruent	Block3	incongruent/STIM_025.jpg
2817.302	0.583	correct	incongruent	Block3	incongruent/STIM_025.jpg
2821.868	0.898	correct	incongruent	Block3	incongruent/STIM_025.jpg
2825.897	0.669	correct	incongruent	Block3	incongruent/STIM_025.jpg
2829.254	0.594	correct	incongruent	Block3	incongruent/STIM_026.jpg
2833.662	1.007	correct	incongruent	Block3	incongruent/STIM_026.jpg
2838.441	1.012	correct	incongruent	Block3	incongruent/STIM_026.jpg
2842.857	1.118	correct	incongruent	Block3	incongruent/STIM_026.jpg
2846.44	0.817	correct	incongruent	Block3	incongruent/STIM_026.jpg
2850.195	0.664	correct	incongruent	Block3	incongruent/STIM_027.jpg
2854.425	0.558	correct	incongruent	Block3	incongruent/STIM_027.jpg
2857.781	0.823	correct	incongruent	Block3	incongruent/STIM_027.jpg
2861.691	0.612	correct	incongruent	Block3	incongruent/STIM_027.jpg
2864.754	1.097	correct	incongruent	Block3	incongruent/STIM_027.jpg
2869.603	0.943	correct	incongruent	Block3	incongruent/STIM_028.jpg
2873.934	0.834	correct	incongruent	Block3	incongruent/STIM_028.jpg
2877.768	0.97	correct	incongruent	Block3	incongruent/STIM_028.jpg
2882.238	0.602	correct	incongruent	Block3	incongruent/STIM_028.jpg
2885.744	1.022	correct	incongruent	Block3	incongruent/STIM_028.jpg
2888.945	0.707	correct	incongruent	Block3	incongruent/STIM_029.jpg
2893.567	0.765	correct	incongruent	Block3	incongruent/STIM_029.jpg
2896.728	1.144	correct	incongruent	Block3	incongruent/STIM_029.jpg
2900.405	0.691	correct	incongruent	Block3	incongruent/STIM_029.jpg
2903.777	0.568	correct	incongruent	Block3	incongruent/STIM_029.jpg
2906.842	0.964	correct	congruent	Block3	congruent/STIM_000.jpg
2911.392	0.565	correct	congruent	Block3	congruent/STIM_000.jpg
2915.333	0.904	correct	congruent	Block3	congruent/STIM_000.jpg
2918.382	0.696	correct	congruent	Block3	congruent/STIM_000.jpg
2921.775	0.594	correct	congruent	Block3	congruent/STIM_000.jpg
2925.32	0.869	correct	congruent	Block3	congruent/STIM_001.jpg
2929.824	0.639	correct	congruent	Block3	congruent/STIM_001.jpg
2933.123	0.854	incorrect	congruent	Block3	congruent/STIM_001.jpg
2936.39	0.897	correct	congruent	Block3	congruent/STIM_001.jpg
2940.328	0.788	correct	congruent	Block3	congruent/STIM_001.jpg
2943.478	0.592	correct	congruent	Block3	congruent/STIM_002.jpg
2947.186	0.893	correct	congruent	Block3	congruent/STIM_002.jpg
2951.552	0.634	correct	congruent	Block3	congruent/STIM_002.jpg
2954.832	0.813	correct	congruent	Block3	congruent/STIM_002.jpg
2958.343	0.818	correct	congruent	Block3	congruent/STIM_002.jpg
2961.234	0.803	correct	congruent	Block3	congruent/STIM_003.jpg
2964.101	0.552	correct	congruent	Block3	congruent/STIM_003.jpg
2966.958	0.682	correct	congruent	Block3	congruent/STIM_003.jpg
2970.522	0.624	correct	congruent	Block3	congruent/STIM_003.jpg
2974.04	0.617	correct	congruent	Block3	congruent/STIM_003.jpg
2978.252	0.604	correct	congruent	Block3	congruent/STIM_004.jpg
2980.978	0.965	correct	congruent	Block3	congruent/STIM_004.jpg
2985.099	0.638	correct	congruent	Block3	congruent/STIM_004.jpg
2988.001	0.922	correct	congruent	Block3	congruent/STIM_004.jpg
2992.917	0.658	correct	congruent	Block3	congruent/STIM_004.jpg
2996.794	0.872	correct	congruent	Block3	congruent/STIM_005.jpg
3001.077	0.576	correct	congruent	Block3	congruent/STIM_005.jpg
3004.401	0.742	correct	congruent	Block3	congruent/STIM_005.jpg
3009.089	0.727	correct	congruent	Block3	congruent/STIM_005.jpg
3012.142	0.803	correct	congruent	Block3	congruent/STIM_005.jpg
3015.421	0.831	correct	congruent	Block3	congruent/STIM_006.jpg
3019.344	0.592	correct	congruent	Block3	congruent/STIM_006.jpg
3022.611	0.812	correct	congruent	Block3	congruent/STIM_006.jpg
3025.956	0.673	correct	congruent	Block3	congruent/STIM_006.jpg
3029.425	0.635	correct	congruent	Block3	congruent/STIM_006.jpg
3032.284	0.558	incorrect	congruent	Block3	congruent/STIM_007.jpg
3035.497	0.768	correct	congruent	Block3	congruent/STIM_007.jpg
3039.793	0.646	correct	congruent	Block3	congruent/STIM_007.jpg
3043.115	0.784	correct	congruent	Block3	congruent/STIM_007.jpg
3045.958	0.894	correct	congruent	Block3	congruent/STIM_007.jpg
3049.788	0.722	incorrect	congruent	Block3	congruent/STIM_008.jpg
3054.484	0.779	correct	congruent	Block3	congruent/STIM_008.jpg
3057.772	0.813	correct	congruent	Block3	congruent/STIM_008.jpg
3061.271	0.682	correct	congruent	Block3	congruent/STIM_008.jpg
3064.654	0.738	correct	congruent	Block3	congruent/STIM_008.jpg
3068.474	0.934	correct	congruent	Block3	congruent/STIM_009.jpg
3072.679	0.845	correct	congruent	Block3	congruent/STIM_009.jpg
3076.816	0.865	correct	congruent	Block3	congruent/STIM_009.jpg
3079.99	0.614	correct	congruent	Block3	congruent/STIM_009.jpg
3083.705	0.682	correct	congruent	Block3	congruent/STIM_009.jpg
3087.281	0.936	correct	congruent	Block3	congruent/STIM_010.jpg
3092.04	0.672	correct	congruent	Block3	congruent/STIM_010.jpg
3095.528	0.7	correct	congruent	Block3	congruent/STIM_010.jpg
3099.515	0.829	correct	congruent	Block3	congruent/STIM_010.jpg
3103.386	0.694	correct	congruent	Block3	congruent/STIM_010.jpg
3107.682	0.726	correct	congruent	Block3	congruent/STIM_011.jpg
3112.181	0.679	correct	congruent	Block3	congruent/STIM_011.jpg
3115.654	0.712	correct	congruent	Block3	congruent/STIM_011.jpg
3119.127	0.906	correct	congruent	Block3	congruent/STIM_011.jpg
3123.282	0.807	correct	congruent	Block3	congruent/STIM_011.jpg
3126.417	0.837	correct	congruent	Block3	congruent/STIM_012.jpg
3129.392	0.868	correct	congruent	Block3	congruent/STIM_012.jpg
3133.946	0.745	correct	congruent	Block3	congruent/STIM_012.jpg
3138.643	0.895	correct	congruent	Block3	congruent/STIM_012.jpg
3143.265	0.773	correct	congruent	Block3	congruent/STIM_012.jpg
3146.593	0.861	correct	congruent	Block3	congruent/STIM_013.jpg
3150.951	0.598	correct	congruent	Block3	congruent/STIM_013.jpg
3155.111	0.931	incorrect	congruent	Block3	congruent/STIM_013.jpg
3159.114	0.936	correct	congruent	Block3	congruent/STIM_013.jpg
3162.841	0.916	correct	congruent	Block3	congruent/STIM_013.jpg
3167.1	0.575	correct	congruent	Block3	congruent/STIM_014.jpg
3170.918	0.73	correct	congruent	Block3	congruent/STIM_014.jpg
3174.893	0.629	correct	congruent	Block3	congruent/STIM_014.jpg
3179.305	0.895	correct	congruent	Block3	congruent/STIM_014.jpg
3184.09	0.656	correct	congruent	Block3	congruent/STIM_014.jpg
3188.527	0.916	correct	congruent	Block3	congruent/STIM_015.jpg
3191.453	0.923	correct	congruent	Block3	congruent/STIM_015.jpg
3196.017	0.881	correct	congruent	Block3	congruent/STIM_015.jpg
3200.74	0.937	correct	congruent	Block3	congruent/STIM_015.jpg
3204.766	0.793	correct	congruent	Block3	congruent/STIM_015.jpg
3209.218	0.979	correct	congruent	Block3	congruent/STIM_016.jpg
3213.713	0.847	correct	congruent	Block3	congruent/STIM_016.jpg
3217.645	0.623	correct	congruent	Block3	congruent/STIM_016.jpg
3221.965	0.753	correct	congruent	Block3	congruent/STIM_016.jpg
3225.21	0.88	correct	congruent	Block3	congruent/STIM_016.jpg
3228.65	0.594	correct	congruent	Block3	congruent/STIM_017.jpg
3232.879	0.586	correct	congruent	Block3	congruent/STIM_017.jpg
3236.303	0.967	correct	congruent	Block3	congruent/STIM_017.jpg
3239.803	0.931	correct	congruent	Block3	congruent/STIM_017.jpg
3243.262	0.662	correct	congruent	Block3	congruent/STIM_017.jpg
3246.783	0.598	correct	congruent	Block3	congruent/STIM_018.jpg
3250.022	0.668	correct	congruent	Block3	congruent/STIM_018.jpg
3252.801	0.889	correct	congruent	Block3	congruent/STIM_018.jpg
3256.161	0.752	correct	congruent	Block3	congruent/STIM_018.jpg
3259.817	0.728	correct	congruent	Block3	congruent/STIM_018.jpg
3264.237	0.797	correct	congruent	Block3	congruent/STIM_019.jpg
3267.753	0.801	correct	congruent	Block3	congruent/STIM_019.jpg
3271.111	0.72	correct	congruent	Block3	congruent/STIM_019.jpg
3274.379	0.63	correct	congruent	Block3	congruent/STIM_019.jpg
3277.923	0.624	correct	congruent	Block3	congruent/STIM_019.jpg
3281.453	0.863	correct	congruent	Block3	congruent/STIM_020.jpg
3284.345	0.874	correct	congruent	Block3	congruent/STIM_020.jpg
3288.707	0.642	correct	congruent	Block3	congruent/STIM_020.jpg
3292.869	0.947	correct	congruent	Block3	congruent/STIM_020.jpg
3296.476	0.839	correct	congruent	Block3	congruent/STIM_020.jpg
3301.035	0.806	correct	congruent	Block3	congruent/STIM_021.jpg
3305.05	0.708	correct	congruent	Block3	congruent/STIM_021.jpg
3309.52	0.951	correct	congruent	Block3	congruent/STIM_021.jpg
3312.768	0.96	correct	congruent	Block3	congruent/STIM_021.jpg
3317.392	0.722	correct	congruent	Block3	congruent/STIM_021.jpg
3321.637	0.743	correct	congruent	Block3	congruent/STIM_022.jpg
3325.365	0.879	correct	congruent	Block3	congruent/STIM_022.jpg
3328.821	0.685	correct	congruent	Block3	congruent/STIM_022.jpg
3332.233	0.758	correct	congruent	Block3	congruent/STIM_022.jpg
3335.467	0.656	correct	congruent	Block3	congruent/STIM_022.jpg
3338.305	0.595	correct	congruent	Block3	congruent/STIM_023.jpg
3342.506	0.701	correct	congruent	Block3	congruent/STIM_023.jpg
3345.796	0.557	correct	congruent	Block3	congruent/STIM_023.jpg
3348.393	0.74	correct	congruent	Block3	congruent/STIM_023.jpg
3351.327	0.569	correct	congruent	Block3	congruent/STIM_023.jpg
3355.152	0.722	correct	congruent	Block3	congruent/STIM_024.jpg
3358.743	0.773	correct	congruent	Block3	congruent/STIM_024.jpg
3361.706	0.749	correct	congruent	Block3	congruent/STIM_024.jpg
3366.372	0.744	correct	congruent	Block3	congruent/STIM_024.jpg
3370.906	0.798	correct	congruent	Block3	congruent/STIM_024.jpg
3374.037	0.694	correct	congruent	Block3	congruent/STIM_025.jpg
3377.398	0.764	correct	congruent	Block3	congruent/STIM_025.jpg
3381.227	0.607	correct	congruent	Block3	congruent/STIM_025.jpg
3385.23	0.827	correct	congruent	Block3	congruent/STIM_025.jpg
3388.557	0.569	correct	congruent	Block3	congruent/STIM_025.jpg
3392.0	0.913	correct	congruent	Block3	congruent/STIM_026.jpg
3396.747	0.754	correct	congruent	Block3	congruent/STIM_026.jpg
3400.182	0.727	correct	congruent	Block3	congruent/STIM_026.jpg
3403.833	0.772	correct	congruent	Block3	congruent/STIM_026.jpg
3407.109	0.559	correct	congruent	Block3	congruent/STIM_026.jpg
3411.607	0.949	correct	congruent	Block3	congruent/STIM_027.jpg
3414.832	0.614	correct	congruent	Block3	congruent/STIM_027.jpg
3418.469	0.714	correct	congruent	Block3	congruent/STIM_027.jpg
3421.286	0.892	correct	congruent	Block3	congruent/STIM_027.jpg
3424.855	0.864	correct	congruent	Block3	congruent/STIM_027.jpg
3429.299	0.814	correct	congruent	Block3	congruent/STIM_028.jpg
3433.868	0.904	correct	congruent	Block3	congruent/STIM_028.jpg
3438.767	0.663	correct	congruent	Block3	congruent/STIM_028.jpg
3441.682	0.716	correct	congruent	Block3	congruent/STIM_028.jpg
3444.716	0.566	correct	congruent	Block3	congruent/STIM_028.jpg
3448.663	0.746	correct	congruent	Block3	congruent/STIM_029.jpg
3452.662	0.582	correct	congruent	Block3	congruent/STIM_029.jpg
3456.957	0.557	correct	congruent	Block3	congruent/STIM_029.jpg
3461.028	0.722	correct	congruent	Block3	congruent/STIM_029.jpg
3464.839	0.941	correct	congruent	Block3	congruent/STIM_029.jpg
