onset	duration	accuracy	trial_type	learning_stage	stimulus
0.0	1.443	incorrect	generate	Run1	generate/STIM_000.jpg
5.063	1.688	correct	generate	Run1	generate/STIM_000.jpg
9.334	1.212	correct	generate	Run1	generate/STIM_000.jpg
13.869	2.825	correct	generate	Run1	generate/STIM_000.jpg
19.398	2.698	correct	generate	Run1	generate/STIM_000.jpg
25.503	1.718	correct	generate	Run1	generate/STIM_001.jpg
29.093	3.114	incorrect	generate	Run1	generate/STIM_001.jpg
34.542	2.143	correct	generate	Run1	generate/STIM_001.jpg
40.335	2.377	correct	generate	Run1	generate/STIM_001.jpg
44.953	1.183	correct	generate	Run1	generate/STIM_001.jpg
49.567	1.974	incorrect	generate	Run1	generate/STIM_002.jpg
53.463	2.08	correct	generate	Run1	generate/STIM_002.jpg
58.206	2.023	correct	generate	Run1	generate/STIM_002.jpg
62.41	1.514	correct	generate	Run1	generate/STIM_002.jpg
67.522	2.158	correct	generate	Run1	generate/STIM_002.jpg
72.983	1.806	correct	generate	Run1	generate/STIM_003.jpg
76.732	1.54	correct	generate	Run1	generate/STIM_003.jpg
81.881	2.578	correct	generate	Run1	generate/STIM_003.jpg
86.425	1.664	correct	generate	Run1	generate/STIM_003.jpg
90.907	2.61	correct	generate	Run1	generate/STIM_003.jpg
97.18	2.358	incorrect	generate	Run1	generate/STIM_004.jpg
102.849	1.557	incorrect	generate	Run1	generate/STIM_004.jpg
107.131	1.456	correct	generate	Run1	generate/STIM_004.jpg
111.157	1.713	correct	generate	Run1	generate/STIM_004.jpg
115.146	1.233	incorrect	generate	Run1	generate/STIM_004.jpg
119.626	2.096	incorrect	generate	Run1	generate/STIM_005.jpg
124.333	2.693	correct	generate	Run1	generate/STIM_005.jpg
129.508	1.934	incorrect	generate	Run1	generate/STIM_005.jpg
133.365	1.492	correct	generate	Run1	generate/STIM_005.jpg
137.683	1.527	correct	generate	Run1	generate/STIM_005.jpg
141.273	3.068	correct	generate	Run1	generate/STIM_006.jpg
146.013	3.002	correct	generate	Run1	generate/STIM_006.jpg
152.357	1.289	incorrect	generate	Run1	generate/STIM_006.jpg
156.304	1.517	correct	generate	Run1	generate/STIM_006.jpg
161.295	1.381	correct	generate	Run1	generate/STIM_006.jpg
166.356	2.531	correct	generate	Run1	generate/STIM_007.jpg
171.91	1.863	correct	generate	Run1	generate/STIM_007.jpg
176.609	2.534	correct	generate	Run1	generate/STIM_007.jpg
181.036	1.558	correct	generate	Run1	generate/STIM_007.jpg
185.751	1.458	correct	generate	Run1	generate/STIM_007.jpg
190.369	2.583	correct	generate	Run1	generate/STIM_008.jpg
195.646	2.853	correct	generate	Run1	generate/STIM_008.jpg
201.472	2.163	correct	generate	Run1	generate/STIM_008.jpg
206.494	1.456	incorrect	generate	Run1	generate/STIM_008.jpg
210.728	1.13	correct	generate	Run1	generate/STIM_008.jpg
214.809	1.809	incorrect	generate	Run1	generate/STIM_009.jpg
218.836	2.656	correct	generate	Run1	generate/STIM_009.jpg
224.503	2.654	correct	generate	Run1	generate/STIM_009.jpg
229.174	2.665	correct	generate	Run1	generate/STIM_009.jpg
233.952	1.28	correct	generate	Run1	generate/STIM_009.jpg
239.098	1.583	incorrect	generate	Run1	generate/STIM_010.jpg
243.709	1.807	correct	generate	Run1	generate/STIM_010.jpg
248.253	2.952	correct	generate	Run1	generate/STIM_010.jpg
253.557	2.599	incorrect	generate	Run1	generate/STIM_010.jpg
258.71	1.648	correct	generate	Run1	generate/STIM_010.jpg
263.532	1.755	incorrect	generate	Run1	generate/STIM_011.jpg
267.755	2.075	incorrect	generate	Run1	generate/STIM_011.jpg
271.745	1.904	incorrect	generate	Run1	generate/STIM_011.jpg
275.496	2.602	correct	generate	Run1	generate/STIM_011.jpg
280.215	1.554	correct	generate	Run1	generate/STIM_011.jpg
284.256	2.494	incorrect	generate	Run1	generate/STIM_012.jpg
289.669	1.368	incorrect	generate	Run1	generate/STIM_012.jpg
293.426	1.287	correct	generate	Run1	generate/STIM_012.jpg
297.24	2.574	correct	generate	Run1	generate/STIM_012.jpg
301.938	2.099	correct	generate	Run1	generate/STIM_012.jpg
307.022	2.2	correct	generate	Run1	generate/STIM_013.jpg
311.197	2.446	correct	generate	Run1	generate/STIM_013.jpg
316.729	2.061	incorrect	generate	Run1	generate/STIM_013.jpg
320.816	2.679	correct	generate	Run1	generate/STIM_013.jpg
326.013	2.345	correct	generate	Run1	generate/STIM_013.jpg
330.539	2.777	incorrect	generate	Run1	generate/STIM_014.jpg
336.254	2.455	incorrect	generate	Run1	generate/STIM_014.jpg
341.301	1.544	incorrect	generate	Run1	generate/STIM_014.jpg
345.988	2.721	correct	generate	Run1	generate/STIM_014.jpg
350.351	1.207	correct	generate	Run1	generate/STIM_014.jpg
354.738	1.674	correct	generate	Run1	generate/STIM_015.jpg
358.727	1.575	incorrect	generate	Run1	generate/STIM_015.jpg
362.161	1.359	incorrect	generate	Run1	generate/STIM_015.jpg
366.624	1.863	correct	generate	Run1	generate/STIM_015.jpg
371.036	1.737	incorrect	generate	Run1	generate/STIM_015.jpg
374.756	2.812	correct	generate	Run1	generate/STIM_016.jpg
380.659	2.029	correct	generate	Run1	generate/STIM_016.jpg
386.163	2.998	correct	generate	Run1	generate/STIM_016.jpg
390.875	1.338	correct	generate	Run1	generate/STIM_016.jpg
395.895	2.324	correct	generate	Run1	generate/STIM_016.jpg
400.008	2.941	incorrect	generate	Run1	generate/STIM_017.jpg
406.334	1.841	correct	generate	Run1	generate/STIM_017.jpg
411.477	2.383	correct	generate	Run1	generate/STIM_017.jpg
416.668	1.77	incorrect	generate	Run1	generate/STIM_017.jpg
421.432	1.689	correct	generate	Run1	generate/STIM_017.jpg
425.09	3.412	correct	generate	Run1	generate/STIM_018.jpg
431.507	1.954	correct	generate	Run1	generate/STIM_018.jpg
435.485	3.011	correct	generate	Run1	generate/STIM_018.jpg
440.741	1.268	incorrect	generate	Run1	generate/STIM_018.jpg
445.442	2.333	correct	generate	Run1	generate/STIM_018.jpg
449.641	1.838	correct	generate	Run1	generate/STIM_019.jpg
454.716	1.658	correct	generate	Run1	generate/STIM_019.jpg
458.369	2.083	incorrect	generate	Run1	generate/STIM_019.jpg
463.022	2.75	correct	generate	Run1	generate/STIM_019.jpg
468.643	1.583	correct	generate	Run1	generate/STIM_019.jpg
472.243	3.202	correct	generate	Run1	generate/STIM_020.jpg
479.018	2.963	incorrect	generate	Run1	generate/STIM_020.jpg
485.303	1.597	correct	generate	Run1	generate/STIM_020.jpg
489.064	1.97	correct	generate	Run1	generate/STIM_020.jpg
493.43	2.31	correct	generate	Run1	generate/STIM_020.jpg
499.524	2.817	incorrect	generate	Run1	generate/STIM_021.jpg
505.299	2.87	incorrect	generate	Run1	generate/STIM_021.jpg
509.978	2.573	correct	generate	Run1	generate/STIM_021.jpg
515.296	2.214	correct	generate	Run1	generate/STIM_021.jpg
520.481	2.577	correct	generate	Run1	generate/STIM_021.jpg
524.973	3.106	incorrect	generate	Run1	generate/STIM_022.jpg
530.458	2.643	incorrect	generate	Run1	generate/STIM_022.jpg
536.644	2.659	correct	generate	Run1	generate/STIM_022.jpg
542.361	1.746	correct	generate	Run1	generate/STIM_022.jpg
547.19	2.48	correct	generate	Run1	generate/STIM_022.jpg
552.846	2.242	incorrect	generate	Run1	generate/STIM_023.jpg
557.356	1.574	correct	generate	Run1	generate/STIM_023.jpg
562.285	1.583	correct	generate	Run1	generate/STIM_023.jpg
567.434	2.031	correct	generate	Run1	generate/STIM_023.jpg
572.644	2.499	correct	generate	Run1	generate/STIM_023.jpg
576.975	2.296	correct	generate	Run1	generate/STIM_024.jpg
581.268	1.608	correct	generate	Run1	generate/STIM_024.jpg
585.905	1.504	correct	generate	Run1	generate/STIM_024.jpg
589.624	1.646	correct	generate	Run1	generate/STIM_024.jpg
594.575	2.369	correct	generate	Run1	generate/STIM_024.jpg
600.297	0.901	correct	repeat	Run1	repeat/STIM_000.jpg
604.464	0.779	correct	repeat	Run1	repeat/STIM_000.jpg
608.409	0.627	correct	repeat	Run1	repeat/STIM_000.jpg
612.143	0.854	correct	repeat	Run1	repeat/STIM_000.jpg
616.315	0.579	correct	repeat	Run1	repeat/STIM_000.jpg
620.33	0.956	correct	repeat	Run1	repeat/STIM_001.jpg
624.776	0.597	correct	repeat	Run1	repeat/STIM_001.jpg
627.895	0.63	correct	repeat	Run1	repeat/STIM_001.jpg
632.057	0.989	correct	repeat	Run1	repeat/STIM_001.jpg
636.063	0.649	correct	repeat	Run1	repeat/STIM_001.jpg
639.592	0.746	correct	repeat	Run1	repeat/STIM_002.jpg
643.545	0.878	correct	repeat	Run1	repeat/STIM_002.jpg
647.211	0.962	correct	repeat	Run1	repeat/STIM_002.jpg
650.833	0.601	correct	repeat	Run1	repeat/STIM_002.jpg
655.407	0.76	correct	repeat	Run1	repeat/STIM_002.jpg
658.637	0.721	correct	repeat	Run1	repeat/STIM_003.jpg
661.485	0.665	correct	repeat	Run1	repeat/STIM_003.jpg
665.047	1.112	correct	repeat	Run1	repeat/STIM_003.jpg
668.568	0.666	correct	repeat	Run1	repeat/STIM_003.jpg
672.923	0.724	correct	repeat	Run1	repeat/STIM_003.jpg
677.016	0.875	correct	repeat	Run1	repeat/STIM_004.jpg
681.341	0.918	correct	repeat	Run1	repeat/STIM_004.jpg
684.943	0.998	correct	repeat	Run1	repeat/STIM_004.jpg
687.916	0.591	correct	repeat	Run1	repeat/STIM_004.jpg
692.255	0.85	correct	repeat	Run1	repeat/STIM_004.jpg
695.614	0.628	incorrect	repeat	Run1	repeat/STIM_005.jpg
699.806	0.908	correct	repeat	Run1	repeat/STIM_005.jpg
702.722	0.622	correct	repeat	Run1	repeat/STIM_005.jpg
706.885	0.858	correct	repeat	Run1	repeat/STIM_005.jpg
710.355	0.896	correct	repeat	Run1	repeat/STIM_005.jpg
713.873	1.154	correct	repeat	Run1	repeat/STIM_006.jpg
717.696	0.785	correct	repeat	Run1	repeat/STIM_006.jpg
722.28	0.738	correct	repeat	Run1	repeat/STIM_006.jpg
726.799	1.197	correct	repeat	Run1	repeat/STIM_006.jpg
729.913	0.721	correct	repeat	Run1	repeat/STIM_006.jpg
733.91	0.738	correct	repeat	Run1	repeat/STIM_007.jpg
738.004	0.536	correct	repeat	Run1	repeat/STIM_007.jpg
740.814	0.857	incorrect	repeat	Run1	repeat/STIM_007.jpg
745.378	0.908	correct	repeat	Run1	repeat/STIM_007.jpg
749.884	0.782	correct	repeat	Run1	repeat/STIM_007.jpg
754.319	0.528	correct	repeat	Run1	repeat/STIM_008.jpg
758.765	0.699	correct	repeat	Run1	repeat/STIM_008.jpg
761.835	0.863	correct	repeat	Run1	repeat/STIM_008.jpg
765.06	0.898	correct	repeat	Run1	repeat/STIM_008.jpg
769.622	0.764	correct	repeat	Run1	repeat/STIM_008.jpg
773.97	0.834	correct	repeat	Run1	repeat/STIM_009.jpg
778.185	0.707	correct	repeat	Run1	repeat/STIM_009.jpg
781.042	0.852	incorrect	repeat	Run1	repeat/STIM_009.jpg
785.018	0.859	correct	repeat	Run1	repeat/STIM_009.jpg
789.657	0.624	correct	repeat	Run1	repeat/STIM_009.jpg
792.371	1.146	correct	repeat	Run1	repeat/STIM_010.jpg
797.342	0.979	correct	repeat	Run1	repeat/STIM_010.jpg
801.117	0.858	incorrect	repeat	Run1	repeat/STIM_010.jpg
805.033	1.014	correct	repeat	Run1	repeat/STIM_010.jpg
808.726	0.846	correct	repeat	Run1	repeat/STIM_010.jpg
812.626	0.922	correct	repeat	Run1	repeat/STIM_011.jpg
816.152	0.956	correct	repeat	Run1	repeat/STIM_011.jpg
819.914	1.036	correct	repeat	Run1	repeat/STIM_011.jpg
822.958	0.542	correct	repeat	Run1	repeat/STIM_011.jpg
826.037	0.998	correct	repeat	Run1	repeat/STIM_011.jpg
830.414	0.648	correct	repeat	Run1	repeat/STIM_012.jpg
833.27	1.033	correct	repeat	Run1	repeat/STIM_012.jpg
837.41	1.091	correct	repeat	Run1	repeat/STIM_012.jpg
840.992	0.842	correct	repeat	Run1	repeat/STIM_012.jpg
844.535	0.618	correct	repeat	Run1	repeat/STIM_012.jpg
848.397	0.991	correct	repeat	Run1	repeat/STIM_013.jpg
851.318	1.111	correct	repeat	Run1	repeat/STIM_013.jpg
855.641	0.958	correct	repeat	Run1	repeat/STIM_013.jpg
859.143	1.176	correct	repeat	Run1	repeat/STIM_013.jpg
864.121	1.163	correct	repeat	Run1	repeat/STIM_013.jpg
867.65	0.77	correct	repeat	Run1	repeat/STIM_014.jpg
871.694	0.799	correct	repeat	Run1	repeat/STIM_014.jpg
875.629	0.939	correct	repeat	Run1	repeat/STIM_014.jpg
879.13	0.694	correct	repeat	Run1	repeat/STIM_014.jpg
882.235	0.941	correct	repeat	Run1	repeat/STIM_014.jpg
885.893	2.822	correct	generate	Run2	generate/STIM_000.jpg
890.526	2.292	correct	generate	Run2	generate/STIM_000.jpg
896.127	1.791	correct	generate	Run2	generate/STIM_000.jpg
899.943	2.276	correct	generate	Run2	generate/STIM_000.jpg
904.305	1.146	correct	generate	Run2	generate/STIM_000.jpg
909.299	1.406	correct	generate	Run2	generate/STIM_001.jpg
913.773	2.009	correct	generate	Run2	generate/STIM_001.jpg
919.624	1.908	correct	generate	Run2	generate/STIM_001.jpg
924.47	1.474	incorrect	generate	Run2	generate/STIM_001.jpg
929.551	2.173	incorrect	generate	Run2	generate/STIM_001.jpg
934.733	1.669	correct	generate	Run2	generate/STIM_002.jpg
939.529	1.474	correct	generate	Run2	generate/STIM_002.jpg
942.995	1.62	correct	generate	Run2	generate/STIM_002.jpg
947.652	1.253	incorrect	generate	Run2	generate/STIM_002.jpg
952.699	1.244	correct	generate	Run2	generate/STIM_002.jpg
956.145	1.298	incorrect	generate	Run2	generate/STIM_003.jpg
961.208	2.269	correct	generate	Run2	generate/STIM_003.jpg
965.973	1.233	correct	generate	Run2	generate/STIM_003.jpg
970.499	1.631	correct	generate	Run2	generate/STIM_003.jpg
974.62	1.604	correct	generate	Run2	generate/STIM_003.jpg
979.803	2.55	correct	generate	Run2	generate/STIM_004.jpg
985.603	1.361	correct	generate	Run2	generate/STIM_004.jpg
988.782	2.177	correct	generate	Run2	generate/STIM_004.jpg
994.317	1.561	correct	generate	Run2	generate/STIM_004.jpg
997.893	1.81	correct	generate	Run2	generate/STIM_004.jpg
1002.601	2.409	correct	generate	Run2	generate/STIM_005.jpg
1007.91	1.363	incorrect	generate	Run2	generate/STIM_005.jpg
1012.285	1.229	correct	generate	Run2	generate/STIM_005.jpg
1017.238	2.313	correct	generate	Run2	generate/STIM_005.jpg
1022.276	1.374	correct	generate	Run2	generate/STIM_005.jpg
1026.836	1.872	correct	generate	Run2	generate/STIM_006.jpg
1031.319	2.442	correct	generate	Run2	generate/STIM_006.jpg
1036.082	1.71	correct	generate	Run2	generate/STIM_006.jpg
1041.66	1.613	correct	generate	Run2	generate/STIM_006.jpg
1045.598	1.024	incorrect	generate	Run2	generate/STIM_006.jpg
1049.293	2.104	correct	generate	Run2	generate/STIM_007.jpg
1054.954	1.537	correct	generate	Run2	generate/STIM_007.jpg
1059.145	0.99	correct	generate	Run2	generate/STIM_007.jpg
1062.099	2.156	correct	generate	Run2	generate/STIM_007.jpg
1067.893	1.361	incorrect	generate	Run2	generate/STIM_007.jpg
1072.151	1.288	correct	generate	Run2	generate/STIM_008.jpg
1076.291	2.206	correct	generate	Run2	generate/STIM_008.jpg
1080.292	2.175	correct	generate	Run2	generate/STIM_008.jpg
1084.911	1.126	correct	generate	Run2	generate/STIM_008.jpg
1089.16	1.025	incorrect	generate	Run2	generate/STIM_008.jpg
1092.911	1.969	correct	generate	Run2	generate/STIM_009.jpg
1098.335	1.271	correct	generate	Run2	generate/STIM_009.jpg
1102.426	1.71	correct	generate	Run2	generate/STIM_009.jpg
1106.292	2.27	correct	generate	Run2	generate/STIM_009.jpg
1111.292	1.211	correct	generate	Run2	generate/STIM_009.jpg
1114.392	1.868	incorrect	generate	Run2	generate/STIM_010.jpg
1118.382	1.364	correct	generate	Run2	generate/STIM_010.jpg
1123.38	1.254	correct	generate	Run2	generate/STIM_010.jpg
1127.681	1.674	correct	generate	Run2	generate/STIM_010.jpg
1131.895	1.358	correct	generate	Run2	generate/STIM_010.jpg
1136.322	1.595	correct	generate	Run2	generate/STIM_011.jpg
1141.609	1.176	incorrect	generate	Run2	generate/STIM_011.jpg
1145.207	1.186	correct	generate	Run2	generate/STIM_011.jpg
1149.935	1.756	correct	generate	Run2	generate/STIM_011.jpg
1153.821	1.489	correct	generate	Run2	generate/STIM_011.jpg
1158.222	2.164	incorrect	generate	Run2	generate/STIM_012.jpg
1163.559	1.241	correct	generate	Run2	generate/STIM_012.jpg
1168.247	2.064	correct	generate	Run2	generate/STIM_012.jpg
1173.783	1.967	correct	generate	Run2	generate/STIM_012.jpg
1179.228	1.647	correct	generate	Run2	generate/STIM_012.jpg
1184.322	1.419	correct	generate	Run2	generate/STIM_013.jpg
1188.037	1.565	correct	generate	Run2	generate/STIM_013.jpg
1192.122	2.134	correct	generate	Run2	generate/STIM_013.jpg
1196.062	1.687	correct	generate	Run2	generate/STIM_013.jpg
1200.819	2.0	correct	generate	Run2	generate/STIM_013.jpg
1204.809	2.517	correct	generate	Run2	generate/STIM_014.jpg
1209.593	1.134	correct	generate	Run2	generate/STIM_014.jpg
1212.902	1.78	correct	generate	Run2	generate/STIM_014.jpg
1218.034	1.143	correct	generate	Run2	generate/STIM_014.jpg
1221.776	1.512	correct	generate	Run2	generate/STIM_014.jpg
1226.719	2.615	incorrect	generate	Run2	generate/STIM_015.jpg
1231.569	1.192	correct	generate	Run2	generate/STIM_015.jpg
1236.064	2.03	correct	generate	Run2	generate/STIM_015.jpg
1241.419	1.975	correct	generate	Run2	generate/STIM_015.jpg
1246.511	1.349	correct	generate	Run2	generate/STIM_015.jpg
1250.963	2.156	correct	generate	Run2	generate/STIM_016.jpg
1256.796	1.318	correct	generate	Run2	generate/STIM_016.jpg
1260.62	1.334	correct	generate	Run2	generate/STIM_016.jpg
1265.689	1.154	correct	generate	Run2	generate/STIM_016.jpg
1270.499	0.999	correct	generate	Run2	generate/STIM_016.jpg
1275.274	1.584	correct	generate	Run2	generate/STIM_017.jpg
1278.937	1.402	correct	generate	Run2	generate/STIM_017.jpg
1283.797	1.281	incorrect	generate	Run2	generate/STIM_017.jpg
1288.511	1.924	correct	generate	Run2	generate/STIM_017.jpg
1293.975	2.211	incorrect	generate	Run2	generate/STIM_017.jpg
1297.996	2.329	correct	generate	Run2	generate/STIM_018.jpg
1302.095	1.597	correct	generate	Run2	generate/STIM_018.jpg
1306.823	2.379	correct	generate	Run2	generate/STIM_018.jpg
1312.499	1.534	correct	generate	Run2	generate/STIM_018.jpg
1315.84	0.854	correct	generate	Run2	generate/STIM_018.jpg
1319.07	2.586	correct	generate	Run2	generate/STIM_019.jpg
1325.147	1.463	correct	generate	Run2	generate/STIM_019.jpg
1329.544	2.279	incorrect	generate	Run2	generate/STIM_019.jpg
1335.463	1.247	correct	generate	Run2	generate/STIM_019.jpg
1340.313	1.076	correct	generate	Run2	generate/STIM_019.jpg
1344.279	1.324	correct	generate	Run2	generate/STIM_020.jpg
1347.716	1.359	correct	generate	Run2	generate/STIM_020.jpg
1351.088	1.887	incorrect	generate	Run2	generate/STIM_020.jpg
1356.727	1.255	correct	generate	Run2	generate/STIM_020.jpg
1360.123	2.289	correct	generate	Run2	generate/STIM_020.jpg
1365.585	1.392	correct	generate	Run2	generate/STIM_021.jpg
1370.319	1.384	correct	generate	Run2	generate/STIM_021.jpg
1374.154	2.048	correct	generate	Run2	generate/STIM_021.jpg
1378.121	1.824	correct	generate	Run2	generate/STIM_021.jpg
1381.835	1.152	correct	generate	Run2	generate/STIM_021.jpg
1385.76	1.344	correct	generate	Run2	generate/STIM_022.jpg
1389.877	1.268	correct	generate	Run2	generate/STIM_022.jpg
1393.713	1.809	correct	generate	Run2	generate/STIM_022.jpg
1399.081	1.912	correct	generate	Run2	generate/STIM_022.jpg
1403.89	1.532	correct	generate	Run2	generate/STIM_022.jpg
1407.549	1.618	correct	generate	Run2	generate/STIM_023.jpg
1412.938	2.132	incorrect	generate	Run2	generate/STIM_023.jpg
1418.315	2.195	incorrect	generate	Run2	generate/STIM_023.jpg
1424.148	2.067	correct	generate	Run2	generate/STIM_023.jpg
1429.668	2.263	correct	generate	Run2	generate/STIM_023.jpg
1433.863	1.844	correct	generate	Run2	generate/STIM_024.jpg
1438.109	1.796	correct	generate	Run2	generate/STIM_024.jpg
1442.4	2.226	incorrect	generate	Run2	generate/STIM_024.jpg
1446.863	1.78	incorrect	generate	Run2	generate/STIM_024.jpg
1451.592	1.213	correct	generate	Run2	generate/STIM_024.jpg
1456.554	0.728	correct	repeat	Run2	repeat/STIM_000.jpg
1460.552	0.984	correct	repeat	Run2	repeat/STIM_000.jpg
1465.247	0.962	correct	repeat	Run2	repeat/STIM_000.jpg
1469.935	0.701	correct	repeat	Run2	repeat/STIM_000.jpg
1474.485	0.579	correct	repeat	Run2	repeat/STIM_000.jpg
1478.387	0.641	correct	repeat	Run2	repeat/STIM_001.jpg
1481.719	1.138	correct	repeat	Run2	repeat/STIM_001.jpg
1486.159	0.88	correct	repeat	Run2	repeat/STIM_001.jpg
1490.573	0.745	correct	repeat	Run2	repeat/STIM_001.jpg
1493.45	0.655	correct	repeat	Run2	repeat/STIM_001.jpg
1496.441	0.691	correct	repeat	Run2	repeat/STIM_002.jpg
1500.378	1.096	correct	repeat	Run2	repeat/STIM_002.jpg
1504.113	0.903	correct	repeat	Run2	repeat/STIM_002.jpg
1507.692	0.612	correct	repeat	Run2	repeat/STIM_002.jpg
1511.985	1.085	correct	repeat	Run2	repeat/STIM_002.jpg
1515.1	1.038	incorrect	repeat	Run2	repeat/STIM_003.jpg
1518.315	0.582	correct	repeat	Run2	repeat/STIM_003.jpg
1520.932	0.99	correct	repeat	Run2	repeat/STIM_003.jpg
1525.537	0.956	correct	repeat	Run2	repeat/STIM_003.jpg
1529.72	0.677	correct	repeat	Run2	repeat/STIM_003.jpg
1532.761	0.807	correct	repeat	Run2	repeat/STIM_004.jpg
1536.566	0.615	correct	repeat	Run2	repeat/STIM_004.jpg
1540.652	0.89	correct	repeat	Run2	repeat/STIM_004.jpg
1544.434	0.687	correct	repeat	Run2	repeat/STIM_004.jpg
1548.129	0.821	correct	repeat	Run2	repeat/STIM_004.jpg
1551.484	1.142	correct	repeat	Run2	repeat/STIM_005.jpg
1555.52	0.94	correct	repeat	Run2	repeat/STIM_005.jpg
1559.223	0.815	correct	repeat	Run2	repeat/STIM_005.jpg
1563.753	0.897	correct	repeat	Run2	repeat/STIM_005.jpg
1567.791	0.989	correct	repeat	Run2	repeat/STIM_005.jpg
1572.287	0.56	correct	repeat	Run2	repeat/STIM_006.jpg
1576.67	0.987	correct	repeat	Run2	repeat/STIM_006.jpg
1580.373	0.852	correct	repeat	Run2	repeat/STIM_006.jpg
1583.222	0.892	correct	repeat	Run2	repeat/STIM_006.jpg
1587.592	1.151	correct	repeat	Run2	repeat/STIM_006.jpg
1592.524	1.045	correct	repeat	Run2	repeat/STIM_007.jpg
1596.196	0.961	correct	repeat	Run2	repeat/STIM_007.jpg
1600.528	0.843	correct	repeat	Run2	repeat/STIM_007.jpg
1603.487	0.792	correct	repeat	Run2	repeat/STIM_007.jpg
1606.413	0.731	correct	repeat	Run2	repeat/STIM_007.jpg
1610.195	0.888	correct	repeat	Run2	repeat/STIM_008.jpg
1614.803	0.972	incorrect	repeat	Run2	repeat/STIM_008.jpg
1619.467	1.055	correct	repeat	Run2	repeat/STIM_008.jpg
1623.13	0.862	correct	repeat	Run2	repeat/STIM_008.jpg
1627.284	0.591	correct	repeat	Run2	repeat/STIM_008.jpg
1631.146	0.937	correct	repeat	Run2	repeat/STIM_009.jpg
1634.376	0.912	correct	repeat	Run2	repeat/STIM_009.jpg
1637.965	0.762	correct	repeat	Run2	repeat/STIM_009.jpg
1642.091	0.906	correct	repeat	Run2	repeat/STIM_009.jpg
1645.825	1.108	correct	repeat	Run2	repeat/STIM_009.jpg
1649.533	0.574	correct	repeat	Run2	repeat/STIM_010.jpg
1653.692	0.644	correct	repeat	Run2	repeat/STIM_010.jpg
1656.934	0.609	correct	repeat	Run2	repeat/STIM_010.jpg
1661.47	0.924	correct	repeat	Run2	repeat/STIM_010.jpg
1665.59	1.082	correct	repeat	Run2	repeat/STIM_010.jpg
1668.617	0.628	correct	repeat	Run2	repeat/STIM_011.jpg
1672.438	0.52	correct	repeat	Run2	repeat/STIM_011.jpg
1675.736	0.563	correct	repeat	Run2	repeat/STIM_011.jpg
1680.149	1.064	correct	repeat	Run2	repeat/STIM_011.jpg
1683.761	0.697	correct	repeat	Run2	repeat/STIM_011.jpg
1687.174	0.825	correct	repeat	Run2	repeat/STIM_012.jpg
1690.916	0.719	correct	repeat	Run2	repeat/STIM_012.jpg
1695.188	0.67	correct	repeat	Run2	repeat/STIM_012.jpg
1698.191	1.07	correct	repeat	Run2	repeat/STIM_012.jpg
1703.076	0.675	correct	repeat	Run2	repeat/STIM_012.jpg
1706.906	0.795	incorrect	repeat	Run2	repeat/STIM_013.jpg
1709.647	0.758	correct	repeat	Run2	repeat/STIM_013.jpg
1713.014	0.714	correct	repeat	Run2	repeat/STIM_013.jpg
1716.207	0.57	correct	repeat	Run2	repeat/STIM_013.jpg
1719.007	0.587	correct	repeat	Run2	repeat/STIM_013.jpg
1721.621	0.966	correct	repeat	Run2	repeat/STIM_014.jpg
1726.475	0.766	correct	repeat	Run2	repeat/STIM_014.jpg
1730.254	0.599	correct	repeat	Run2	repeat/STIM_014.jpg
1733.741	0.724	correct	repeat	Run2	repeat/STIM_014.jpg
1738.322	0.486	incorrect	repeat	Run2	repeat/STIM_014.jpg
1741.8	1.829	correct	generate	Run3	generate/STIM_000.jpg
1746.701	1.598	incorrect	generate	Run3	generate/STIM_000.jpg
1751.005	1.428	correct	generate	Run3	generate/STIM_000.jpg
1756.168	1.653	correct	generate	Run3	generate/STIM_000.jpg
1759.719	1.987	correct	generate	Run3	generate/STIM_000.jpg
1764.164	1.268	correct	generate	Run3	generate/STIM_001.jpg
1767.799	1.792	correct	generate	Run3	generate/STIM_001.jpg
1773.155	1.891	incorrect	generate	Run3	generate/STIM_001.jpg
1777.61	2.216	correct	generate	Run3	generate/STIM_001.jpg
1783.189	0.958	correct	generate	Run3	generate/STIM_001.jpg
1787.074	1.575	correct	generate	Run3	generate/STIM_002.jpg
1792.273	1.352	correct	generate	Run3	generate/STIM_002.jpg
1796.36	0.972	correct	generate	Run3	generate/STIM_002.jpg
1799.5	1.977	correct	generate	Run3	generate/STIM_002.jpg
1804.443	1.226	correct	generate	Run3	generate/STIM_002.jpg
1807.934	1.149	correct	generate	Run3	generate/STIM_003.jpg
1811.722	1.241	correct	generate	Run3	generate/STIM_003.jpg
1816.219	1.534	correct	generate	Run3	generate/STIM_003.jpg
1820.477	1.899	correct	generate	Run3	generate/STIM_003.jpg
1825.793	1.003	correct	generate	Run3	generate/STIM_003.jpg
1830.021	2.295	correct	generate	Run3	generate/STIM_004.jpg
1835.002	1.744	correct	generate	Run3	generate/STIM_004.jpg
1840.398	1.502	correct	generate	Run3	generate/STIM_004.jpg
1845.322	2.123	correct	generate	Run3	generate/STIM_004.jpg
1850.02	2.257	correct	generate	Run3	generate/STIM_004.jpg
1855.256	1.594	correct	generate	Run3	generate/STIM_005.jpg
1859.389	1.62	correct	generate	Run3	generate/STIM_005.jpg
1863.647	1.895	correct	generate	Run3	generate/STIM_005.jpg
1869.09	2.017	correct	generate	Run3	generate/STIM_005.jpg
1873.147	2.22	correct	generate	Run3	generate/STIM_005.jpg
1877.621	1.712	correct	generate	Run3	generate/STIM_006.jpg
1882.102	1.258	correct	generate	Run3	generate/STIM_006.jpg
1885.807	1.321	correct	generate	Run3	generate/STIM_006.jpg
1889.801	1.212	correct	generate	Run3	generate/STIM_006.jpg
1894.61	2.117	incorrect	generate	Run3	generate/STIM_006.jpg
1899.509	2.335	correct	generate	Run3	generate/STIM_007.jpg
1904.353	1.516	correct	generate	Run3	generate/STIM_007.jpg
1908.032	2.087	correct	generate	Run3	generate/STIM_007.jpg
1913.145	1.122	correct	generate	Run3	generate/STIM_007.jpg
1917.77	1.107	correct	generate	Run3	generate/STIM_007.jpg
1922.377	2.114	correct	generate	Run3	generate/STIM_008.jpg
1927.421	1.361	correct	generate	Run3	generate/STIM_008.jpg
1931.874	1.566	correct	generate	Run3	generate/STIM_008.jpg
1937.058	1.355	correct	generate	Run3	generate/STIM_008.jpg
1941.779	1.471	correct	generate	Run3	generate/STIM_008.jpg
1945.836	1.124	incorrect	generate	Run3	generate/STIM_009.jpg
1950.304	1.958	correct	generate	Run3	generate/STIM_009.jpg
1954.597	1.855	correct	generate	Run3	generate/STIM_009.jpg
1958.419	2.056	correct	generate	Run3	generate/STIM_009.jpg
1962.843	1.064	correct	generate	Run3	generate/STIM_009.jpg
1966.113	1.249	correct	generate	Run3	generate/STIM_010.jpg
1970.34	1.632	correct	generate	Run3	generate/STIM_010.jpg
1974.474	1.043	correct	generate	Run3	generate/STIM_010.jpg
1978.375	1.597	correct	generate	Run3	generate/STIM_010.jpg
1983.135	2.119	correct	generate	Run3	generate/STIM_010.jpg
1988.444	1.546	correct	generate	Run3	generate/STIM_011.jpg
1992.292	1.711	correct	generate	Run3	generate/STIM_011.jpg
1997.507	1.014	correct	generate	Run3	generate/STIM_011.jpg
2000.586	2.186	correct	generate	Run3	generate/STIM_011.jpg
2005.388	1.888	correct	generate	Run3	generate/STIM_011.jpg
2010.099	1.12	correct	generate	Run3	generate/STIM_012.jpg
2013.131	1.267	correct	generate	Run3	generate/STIM_012.jpg
2016.774	1.833	correct	generate	Run3	generate/STIM_012.jpg
2021.019	1.096	correct	generate	Run3	generate/STIM_012.jpg
2025.093	1.688	correct	generate	Run3	generate/STIM_012.jpg
2029.045	1.128	correct	generate	Run3	generate/STIM_013.jpg
2033.339	1.751	incorrect	generate	Run3	generate/STIM_013.jpg
2037.578	2.193	incorrect	generate	Run3	generate/STIM_013.jpg
2041.688	2.226	correct	generate	Run3	generate/STIM_013.jpg
2046.676	1.873	incorrect	generate	Run3	generate/STIM_013.jpg
2050.684	1.458	correct	generate	Run3	generate/STIM_014.jpg
2054.788	2.268	correct	generate	Run3	generate/STIM_014.jpg
2060.243	1.135	correct	generate	Run3	generate/STIM_014.jpg
2065.265	2.268	incorrect	generate	Run3	generate/STIM_014.jpg
2071.075	1.874	incorrect	generate	Run3	generate/STIM_014.jpg
2074.722	2.197	correct	generate	Run3	generate/STIM_015.jpg
2078.879	1.406	incorrect	generate	Run3	generate/STIM_015.jpg
2084.154	1.953	correct	generate	Run3	generate/STIM_015.jpg
2088.966	1.221	correct	generate	Run3	generate/STIM_015.jpg
2092.146	1.339	correct	generate	Run3	generate/STIM_015.jpg
2096.953	2.209	correct	generate	Run3	generate/STIM_016.jpg
2102.185	1.616	correct	generate	Run3	generate/STIM_016.jpg
2106.562	1.557	correct	generate	Run3	generate/STIM_016.jpg
2110.497	1.076	correct	generate	Run3	generate/STIM_016.jpg
2114.894	1.634	correct	generate	Run3	generate/STIM_016.jpg
2118.693	2.409	correct	generate	Run3	generate/STIM_017.jpg
2123.981	1.956	correct	generate	Run3	generate/STIM_017.jpg
2128.605	1.383	correct	generate	Run3	generate/STIM_017.jpg
2131.975	2.109	correct	generate	Run3	generate/STIM_017.jpg
2136.614	1.068	correct	generate	Run3	generate/STIM_017.jpg
2141.201	1.125	correct	generate	Run3	generate/STIM_018.jpg
2145.424	1.63	correct	generate	Run3	generate/STIM_018.jpg
2150.746	1.508	correct	generate	Run3	generate/STIM_018.jpg
2155.255	1.302	correct	generate	Run3	generate/STIM_018.jpg
2160.009	1.936	correct	generate	Run3	generate/STIM_018.jpg
2165.088	1.595	correct	generate	Run3	generate/STIM_019.jpg
2169.725	1.703	correct	generate	Run3	generate/STIM_019.jpg
2173.842	1.306	incorrect	generate	Run3	generate/STIM_019.jpg
2178.716	1.219	correct	generate	Run3	generate/STIM_019.jpg
2183.778	1.704	correct	generate	Run3	generate/STIM_019.jpg
2188.212	1.242	correct	generate	Run3	generate/STIM_020.jpg
2192.227	1.274	correct	generate	Run3	generate/STIM_020.jpg
2195.631	1.308	correct	generate	Run3	generate/STIM_020.jpg
2200.408	1.168	correct	generate	Run3	generate/STIM_020.jpg
2203.629	1.599	correct	generate	Run3	generate/STIM_020.jpg
2207.057	2.278	correct	generate	Run3	generate/STIM_021.jpg
2211.798	1.537	correct	generate	Run3	generate/STIM_021.jpg
2215.59	1.945	correct	generate	Run3	generate/STIM_021.jpg
2221.011	1.354	correct	generate	Run3	generate/STIM_021.jpg
2225.721	1.901	incorrect	generate	Run3	generate/STIM_021.jpg
2229.939	1.495	correct	generate	Run3	generate/STIM_022.jpg
2234.69	1.045	incorrect	generate	Run3	generate/STIM_022.jpg
2239.253	1.61	correct	generate	Run3	generate/STIM_022.jpg
2243.995	1.647	correct	generate	Run3	generate/STIM_022.jpg
2248.489	1.468	correct	generate	Run3	generate/STIM_022.jpg
2252.183	1.027	correct	generate	Run3	generate/STIM_023.jpg
2256.59	1.786	correct	generate	Run3	generate/STIM_023.jpg
2261.186	1.904	correct	generate	Run3	generate/STIM_023.jpg
2266.506	2.005	correct	generate	Run3	generate/STIM_023.jpg
2271.913	1.555	correct	generate	Run3	generate/STIM_023.jpg
2277.051	1.083	correct	generate	Run3	generate/STIM_024.jpg
2281.67	2.026	correct	generate	Run3	generate/STIM_024.jpg
2285.595	1.127	correct	generate	Run3	generate/STIM_024.jpg
2289.672	1.311	correct	generate	Run3	generate/STIM_024.jpg
2294.617	1.232	correct	generate	Run3	generate/STIM_024.jpg
2297.743	0.661	correct	repeat	Run3	repeat/STIM_000.jpg
2302.106	1.092	correct	repeat	Run3	repeat/STIM_000.jpg
2306.899	0.767	correct	repeat	Run3	repeat/STIM_000.jpg
2311.404	0.825	correct	repeat	Run3	repeat/STIM_000.jpg
2315.893	0.697	correct	repeat	Run3	repeat/STIM_000.jpg
2319.209	0.681	correct	repeat	Run3	repeat/STIM_001.jpg
2323.062	0.899	correct	repeat	Run3	repeat/STIM_001.jpg
2327.529	1.016	correct	repeat	Run3	repeat/STIM_001.jpg
2331.851	1.096	correct	repeat	Run3	repeat/STIM_001.jpg
2336.754	1.103	correct	repeat	Run3	repeat/STIM_001.jpg
2340.37	0.706	correct	repeat	Run3	repeat/STIM_002.jpg
2343.347	0.729	correct	repeat	Run3	repeat/STIM_002.jpg
2346.437	1.013	correct	repeat	Run3	repeat/STIM_002.jpg
2349.819	0.822	correct	repeat	Run3	repeat/STIM_002.jpg
2354.408	0.881	correct	repeat	Run3	repeat/STIM_002.jpg
2357.298	1.085	correct	repeat	Run3	repeat/STIM_003.jpg
2360.718	0.81	correct	repeat	Run3	repeat/STIM_003.jpg
2364.807	0.696	correct	repeat	Run3	repeat/STIM_003.jpg
2369.279	0.79	correct	repeat	Run3	repeat/STIM_003.jpg
2372.598	0.606	correct	repeat	Run3	repeat/STIM_003.jpg
2375.497	0.706	correct	repeat	Run3	repeat/STIM_004.jpg
2379.631	0.821	correct	repeat	Run3	repeat/STIM_004.jpg
2382.81	0.688	correct	repeat	Run3	repeat/STIM_004.jpg
2386.695	0.769	correct	repeat	Run3	repeat/STIM_004.jpg
2390.107	0.887	correct	repeat	Run3	repeat/STIM_004.jpg
2393.506	1.118	correct	repeat	Run3	repeat/STIM_005.jpg
2397.475	0.669	correct	repeat	Run3	repeat/STIM_005.jpg
2401.356	1.052	correct	repeat	Run3	repeat/STIM_005.jpg
2405.242	0.827	correct	repeat	Run3	repeat/STIM_005.jpg
2407.923	0.797	correct	repeat	Run3	repeat/STIM_005.jpg
2411.713	0.591	correct	repeat	Run3	repeat/STIM_006.jpg
2414.61	0.802	correct	repeat	Run3	repeat/STIM_006.jpg
2417.376	0.815	correct	repeat	Run3	repeat/STIM_006.jpg
2422.093	0.513	correct	repeat	Run3	repeat/STIM_006.jpg
2426.482	0.938	correct	repeat	Run3	repeat/STIM_006.jpg
2430.273	0.546	correct	repeat	Run3	repeat/STIM_007.jpg
2433.092	0.59	correct	repeat	Run3	repeat/STIM_007.jpg
2436.297	0.984	correct	repeat	Run3	repeat/STIM_007.jpg
2440.709	0.985	incorrect	repeat	Run3	repeat/STIM_007.jpg
2444.237	0.603	correct	repeat	Run3	repeat/STIM_007.jpg
2447.485	0.631	correct	repeat	Run3	repeat/STIM_008.jpg
2450.493	0.754	correct	repeat	Run3	repeat/STIM_008.jpg
2454.752	0.985	correct	repeat	Run3	repeat/STIM_008.jpg
2457.864	0.617	correct	repeat	Run3	repeat/STIM_008.jpg
2462.236	0.778	correct	repeat	Run3	repeat/STIM_008.jpg
2465.344	0.946	correct	repeat	Run3	repeat/STIM_009.jpg
2469.175	0.724	correct	repeat	Run3	repeat/STIM_009.jpg
2472.163	1.19	correct	repeat	Run3	repeat/STIM_009.jpg
2477.045	1.175	correct	repeat	Run3	repeat/STIM_009.jpg
2481.501	0.73	correct	repeat	Run3	repeat/STIM_009.jpg
2485.504	0.722	correct	repeat	Run3	repeat/STIM_010.jpg
2489.635	1.118	correct	repeat	Run3	repeat/STIM_010.jpg
2492.967	0.553	correct	repeat	Run3	repeat/STIM_010.jpg
2496.163	0.643	correct	repeat	Run3	repeat/STIM_010.jpg
2500.566	0.711	correct	repeat	Run3	repeat/STIM_010.jpg
2503.535	0.666	correct	repeat	Run3	repeat/STIM_011.jpg
2506.796	0.766	correct	repeat	Run3	repeat/STIM_011.jpg
2509.768	0.595	correct	repeat	Run3	repeat/STIM_011.jpg
2512.501	0.681	correct	repeat	Run3	repeat/STIM_011.jpg
2516.197	0.876	correct	repeat	Run3	repeat/STIM_011.jpg
2520.728	1.059	correct	repeat	Run3	repeat/STIM_012.jpg
2524.631	1.114	correct	repeat	Run3	repeat/STIM_012.jpg
2528.819	1.044	correct	repeat	Run3	repeat/STIM_012.jpg
2533.261	0.835	correct	repeat	Run3	repeat/STIM_012.jpg
2536.596	1.113	correct	repeat	Run3	repeat/STIM_012.jpg
2539.677	0.872	correct	repeat	Run3	repeat/STIM_013.jpg
2542.8	1.115	correct	repeat	Run3	repeat/STIM_013.jpg
2547.035	0.668	correct	repeat	Run3	repeat/STIM_013.jpg
2551.078	0.936	correct	repeat	Run3	repeat/STIM_013.jpg
2554.678	0.697	correct	repeat	Run3	repeat/STIM_013.jpg
2557.786	0.674	correct	repeat	Run3	repeat/STIM_014.jpg
2560.407	0.977	correct	repeat	Run3	repeat/STIM_014.jpg
2564.502	0.979	correct	repeat	Run3	repeat/STIM_014.jpg
2567.6	0.622	correct	repeat	Run3	repeat/STIM_014.jpg
2571.898	0.831	correct	repeat	Run3	repeat/STIM_014.jpg
2574.791	1.887	correct	generate	Run4	generate/STIM_000.jpg
2579.059	2.284	correct	generate	Run4	generate/STIM_000.jpg
2584.021	1.502	correct	generate	Run4	generate/STIM_000.jpg
2588.991	1.847	correct	generate	Run4	generate/STIM_000.jpg
2594.513	1.129	correct	generate	Run4	generate/STIM_000.jpg
2598.455	1.935	correct	generate	Run4	generate/STIM_001.jpg
2602.571	1.028	correct	generate	Run4	generate/STIM_001.jpg
2606.73	1.46	correct	generate	Run4	generate/STIM_001.jpg
2611.344	1.892	correct	generate	Run4	generate/STIM_001.jpg
2615.822	1.176	correct	generate	Run4	generate/STIM_001.jpg
2619.027	1.457	correct	generate	Run4	generate/STIM_002.jpg
2623.573	1.746	correct	generate	Run4	generate/STIM_002.jpg
2627.538	2.032	correct	generate	Run4	generate/STIM_002.jpg
2632.241	1.336	correct	generate	Run4	generate/STIM_002.jpg
2635.572	1.364	correct	generate	Run4	generate/STIM_002.jpg
2638.912	2.041	correct	generate	Run4	generate/STIM_003.jpg
2643.57	1.663	correct	generate	Run4	generate/STIM_003.jpg
2648.491	1.82	correct	generate	Run4	generate/STIM_003.jpg
2652.132	1.708	correct	generate	Run4	generate/STIM_003.jpg
2656.793	1.988	correct	generate	Run4	generate/STIM_003.jpg
2660.974	0.848	incorrect	generate	Run4	generate/STIM_004.jpg
2664.401	1.731	correct	generate	Run4	generate/STIM_004.jpg
2669.345	1.385	correct	generate	Run4	generate/STIM_004.jpg
2674.322	1.509	correct	generate	Run4	generate/STIM_004.jpg
2678.397	2.359	correct	generate	Run4	generate/STIM_004.jpg
2683.642	1.803	correct	generate	Run4	generate/STIM_005.jpg
2687.45	2.258	correct	generate	Run4	generate/STIM_005.jpg
2692.087	1.803	correct	generate	Run4	generate/STIM_005.jpg
2696.971	1.874	correct	generate	Run4	generate/STIM_005.jpg
2701.82	1.008	correct	generate	Run4	generate/STIM_005.jpg
2706.073	1.99	correct	generate	Run4	generate/STIM_006.jpg
2710.524	1.493	correct	generate	Run4	generate/STIM_006.jpg
2714.063	1.926	correct	generate	Run4	generate/STIM_006.jpg
2718.192	1.617	correct	generate	Run4	generate/STIM_006.jpg
2721.754	1.732	correct	generate	Run4	generate/STIM_006.jpg
2726.258	1.451	correct	generate	Run4	generate/STIM_007.jpg
2731.473	1.863	correct	generate	Run4	generate/STIM_007.jpg
2736.893	1.3	correct	generate	Run4	generate/STIM_007.jpg
2741.243	1.272	correct	generate	Run4	generate/STIM_007.jpg
2745.478	1.68	correct	generate	Run4	generate/STIM_007.jpg
2750.824	1.657	correct	generate	Run4	generate/STIM_008.jpg
2755.21	1.413	correct	generate	Run4	generate/STIM_008.jpg
2760.232	1.936	correct	generate	Run4	generate/STIM_008.jpg
2765.137	1.766	correct	generate	Run4	generate/STIM_008.jpg
2769.193	1.33	correct	generate	Run4	generate/STIM_008.jpg
2773.801	2.139	correct	generate	Run4	generate/STIM_009.jpg
2778.345	1.281	correct	generate	Run4	generate/STIM_009.jpg
2781.807	1.888	correct	generate	Run4	generate/STIM_009.jpg
2787.05	1.067	correct	generate	Run4	generate/STIM_009.jpg
2791.807	1.417	correct	generate	Run4	generate/STIM_009.jpg
2796.117	1.26	correct	generate	Run4	generate/STIM_010.jpg
2801.067	1.942	correct	generate	Run4	generate/STIM_010.jpg
2805.468	1.058	correct	generate	Run4	generate/STIM_010.jpg
2808.496	1.665	correct	generate	Run4	generate/STIM_010.jpg
2812.643	1.788	correct	generate	Run4	generate/STIM_010.jpg
2817.848	1.622	incorrect	generate	Run4	generate/STIM_011.jpg
2822.805	1.367	correct	generate	Run4	generate/STIM_011.jpg
2827.507	1.308	correct	generate	Run4	generate/STIM_011.jpg
2832.298	2.156	correct	generate	Run4	generate/STIM_011.jpg
2838.15	1.64	correct	generate	Run4	generate/STIM_011.jpg
2843.543	1.209	correct	generate	Run4	generate/STIM_012.jpg
2847.439	1.842	correct	generate	Run4	generate/STIM_012.jpg
2851.663	1.098	correct	generate	Run4	generate/STIM_012.jpg
2856.645	1.144	correct	generate	Run4	generate/STIM_012.jpg
2860.144	1.511	correct	generate	Run4	generate/STIM_012.jpg
2864.629	1.824	correct	generate	Run4	generate/STIM_013.jpg
2868.872	1.245	correct	generate	Run4	generate/STIM_013.jpg
2871.974	2.205	correct	generate	Run4	generate/STIM_013.jpg
2876.512	0.912	correct	generate	Run4	generate/STIM_013.jpg
2880.451	0.872	correct	generate	Run4	generate/STIM_013.jpg
2884.044	1.149	correct	generate	Run4	generate/STIM_014.jpg
2887.76	1.518	correct	generate	Run4	generate/STIM_014.jpg
2891.881	1.11	correct	generate	Run4	generate/STIM_014.jpg
2895.467	1.525	correct	generate	Run4	generate/STIM_014.jpg
2899.675	1.904	correct	generate	Run4	generate/STIM_014.jpg
2904.074	1.522	correct	generate	Run4	generate/STIM_015.jpg
2907.941	1.793	correct	generate	Run4	generate/STIM_015.jpg
2911.946	1.52	correct	generate	Run4	generate/STIM_015.jpg
2916.398	1.83	correct	generate	Run4	generate/STIM_015.jpg
2921.346	2.275	correct	generate	Run4	generate/STIM_015.jpg
2927.265	0.94	correct	generate	Run4	generate/STIM_016.jpg
2931.983	1.37	correct	generate	Run4	generate/STIM_016.jpg
2936.388	2.117	correct	generate	Run4	generate/STIM_016.jpg
2940.999	1.772	correct	generate	Run4	generate/STIM_016.jpg
2945.736	2.012	correct	generate	Run4	generate/STIM_016.jpg
2950.61	1.632	correct	generate	Run4	generate/STIM_017.jpg
2955.207	1.569	correct	generate	Run4	generate/STIM_017.jpg
2960.298	1.442	correct	generate	Run4	generate/STIM_017.jpg
2965.452	1.118	correct	generate	Run4	generate/STIM_017.jpg
2969.496	1.412	correct	generate	Run4	generate/STIM_017.jpg
2974.167	1.785	correct	generate	Run4	generate/STIM_018.jpg
2978.441	1.217	correct	generate	Run4	generate/STIM_018.jpg
2983.352	1.792	correct	generate	Run4	generate/STIM_018.jpg
2988.154	1.203	correct	generate	Run4	generate/STIM_018.jpg
2992.701	2.181	correct	generate	Run4	generate/STIM_018.jpg
2998.422	1.055	correct	generate	Run4	generate/STIM_019.jpg
3003.044	1.77	correct	generate	Run4	generate/STIM_019.jpg
3007.121	1.79	correct	generate	Run4	generate/STIM_019.jpg
3010.986	1.506	correct	generate	Run4	generate/STIM_019.jpg
3015.743	1.836	correct	generate	Run4	generate/STIM_019.jpg
3021.147	1.646	correct	generate	Run4	generate/STIM_020.jpg
3026.078	1.634	correct	generate	Run4	generate/STIM_020.jpg
3031.281	1.337	correct	generate	Run4	generate/STIM_020.jpg
3034.631	1.169	correct	generate	Run4	generate/STIM_020.jpg
3038.978	2.278	correct	generate	Run4	generate/STIM_020.jpg
3044.918	2.188	correct	generate	Run4	generate/STIM_021.jpg
3050.081	1.264	correct	generate	Run4	generate/STIM_021.jpg
3054.573	2.178	correct	generate	Run4	generate/STIM_021.jpg
3060.072	2.014	correct	generate	Run4	generate/STIM_021.jpg
3064.168	1.196	correct	generate	Run4	generate/STIM_021.jpg
3068.679	1.882	correct	generate	Run4	generate/STIM_022.jpg
3072.976	1.857	correct	generate	Run4	generate/STIM_022.jpg
3077.447	2.247	correct	generate	Run4	generate/STIM_022.jpg
3082.804	1.914	correct	generate	Run4	generate/STIM_022.jpg
3087.456	1.082	correct	generate	Run4	generate/STIM_022.jpg
3091.42	1.213	correct	generate	Run4	generate/STIM_023.jpg
3096.04	1.558	correct	generate	Run4	generate/STIM_023.jpg
3100.35	1.838	correct	generate	Run4	generate/STIM_023.jpg
3104.685	2.331	correct	generate	Run4	generate/STIM_023.jpg
3108.797	1.597	correct	generate	Run4	generate/STIM_023.jpg
3114.173	1.271	correct	generate	Run4	generate/STIM_024.jpg
3118.797	1.663	correct	generate	Run4	generate/STIM_024.jpg
3122.726	1.328	correct	generate	Run4	generate/STIM_024.jpg
3126.281	2.157	correct	generate	Run4	generate/STIM_024.jpg
3131.451	1.804	correct	generate	Run4	generate/STIM_024.jpg
3135.541	0.925	correct	repeat	Run4	repeat/STIM_000.jpg
3139.958	0.886	correct	repeat	Run4	repeat/STIM_000.jpg
3143.363	0.979	correct	repeat	Run4	repeat/STIM_000.jpg
3147.272	1.066	correct	repeat	Run4	repeat/STIM_000.jpg
3150.224	0.956	correct	repeat	Run4	repeat/STIM_000.jpg
3153.239	0.843	correct	repeat	Run4	repeat/STIM_001.jpg
3156.771	1.109	correct	repeat	Run4	repeat/STIM_001.jpg
3160.757	0.846	correct	repeat	Run4	repeat/STIM_001.jpg
3163.623	0.766	correct	repeat	Run4	repeat/STIM_001.jpg
3166.605	1.045	correct	repeat	Run4	repeat/STIM_001.jpg
3171.156	0.611	correct	repeat	Run4	repeat/STIM_002.jpg
3174.948	0.594	correct	repeat	Run4	repeat/STIM_002.jpg
3178.717	0.662	correct	repeat	Run4	repeat/STIM_002.jpg
3182.522	0.936	correct	repeat	Run4	repeat/STIM_002.jpg
3186.674	0.59	correct	repeat	Run4	repeat/STIM_002.jpg
3190.174	1.061	correct	repeat	Run4	repeat/STIM_003.jpg
3194.564	0.758	incorrect	repeat	Run4	repeat/STIM_003.jpg
3197.473	1.076	correct	repeat	Run4	repeat/STIM_003.jpg
3200.955	0.589	incorrect	repeat	Run4	repeat/STIM_003.jpg
3205.156	0.986	incorrect	repeat	Run4	repeat/STIM_003.jpg
3207.993	0.81	correct	repeat	Run4	repeat/STIM_004.jpg
3211.898	0.517	correct	repeat	Run4	repeat/STIM_004.jpg
3214.751	0.754	correct	repeat	Run4	repeat/STIM_004.jpg
3218.81	1.008	correct	repeat	Run4	repeat/STIM_004.jpg
3223.59	0.757	incorrect	repeat	Run4	repeat/STIM_004.jpg
3227.339	0.947	correct	repeat	Run4	repeat/STIM_005.jpg
3231.066	0.766	correct	repeat	Run4	repeat/STIM_005.jpg
3233.823	0.788	correct	repeat	Run4	repeat/STIM_005.jpg
3237.438	0.986	correct	repeat	Run4	repeat/STIM_005.jpg
3241.854	0.668	correct	repeat	Run4	repeat/STIM_005.jpg
3244.649	0.97	correct	repeat	Run4	repeat/STIM_006.jpg
3247.934	1.001	correct	repeat	Run4	repeat/STIM_006.jpg
3252.136	0.776	correct	repeat	Run4	repeat/STIM_006.jpg
3255.837	0.866	correct	repeat	Run4	repeat/STIM_006.jpg
3259.224	0.646	correct	repeat	Run4	repeat/STIM_006.jpg
3262.155	0.67	correct	repeat	Run4	repeat/STIM_007.jpg
3265.452	0.792	correct	repeat	Run4	repeat/STIM_007.jpg
3269.101	0.992	correct	repeat	Run4	repeat/STIM_007.jpg
3273.099	1.024	correct	repeat	Run4	repeat/STIM_007.jpg
3276.695	0.888	correct	repeat	Run4	repeat/STIM_007.jpg
3280.065	0.765	correct	repeat	Run4	repeat/STIM_008.jpg
3282.984	0.898	correct	repeat	Run4	repeat/STIM_008.jpg
3287.446	0.555	correct	repeat	Run4	repeat/STIM_008.jpg
3291.703	0.985	correct	repeat	Run4	repeat/STIM_008.jpg
3294.637	0.881	correct	repeat	Run4	repeat/STIM_008.jpg
3297.754	0.75	correct	repeat	Run4	repeat/STIM_009.jpg
3302.128	1.031	correct	repeat	Run4	repeat/STIM_009.jpg
3305.229	0.61	correct	repeat	Run4	repeat/STIM_009.jpg
3309.665	1.16	correct	repeat	Run4	repeat/STIM_009.jpg
3314.352	0.567	correct	repeat	Run4	repeat/STIM_009.jpg
3317.879	0.561	correct	repeat	Run4	repeat/STIM_010.jpg
3321.791	1.032	correct	repeat	Run4	repeat/STIM_010.jpg
3325.756	0.626	correct	repeat	Run4	repeat/STIM_010.jpg
3329.729	1.071	correct	repeat	Run4	repeat/STIM_010.jpg
3332.804	0.99	correct	repeat	Run4	repeat/STIM_010.jpg
3336.62	0.671	correct	repeat	Run4	repeat/STIM_011.jpg
3340.624	0.933	correct	repeat	Run4	repeat/STIM_011.jpg
3343.739	0.671	incorrect	repeat	Run4	repeat/STIM_011.jpg
3346.946	0.941	correct	repeat	Run4	repeat/STIM_011.jpg
3350.745	0.874	correct	repeat	Run4	repeat/STIM_011.jpg
3354.55	1.028	correct	repeat	Run4	repeat/STIM_012.jpg
3359.177	0.74	correct	repeat	Run4	repeat/STIM_012.jpg
3362.337	0.926	correct	repeat	Run4	repeat/STIM_012.jpg
3366.949	0.56	correct	repeat	Run4	repeat/STIM_012.jpg
3370.616	1.075	correct	repeat	Run4	repeat/STIM_012.jpg
3374.718	1.004	correct	repeat	Run4	repeat/STIM_013.jpg
3378.406	1.037	correct	repeat	Run4	repeat/STIM_013.jpg
3382.592	0.937	correct	repeat	Run4	repeat/STIM_013.jpg
3387.407	1.03	correct	repeat	Run4	repeat/STIM_013.jpg
3391.825	1.111	correct	repeat	Run4	repeat/STIM_013.jpg
3396.063	1.066	correct	repeat	Run4	repeat/STIM_014.jpg
3400.018	0.979	correct	repeat	Run4	repeat/STIM_014.jpg
3403.812	1.112	correct	repeat	Run4	repeat/STIM_014.jpg
3406.807	0.649	correct	repeat	Run4	repeat/STIM_014.jpg
3410.166	0.789	correct	repeat	Run4	repeat/STIM_014.jpg
