onset	duration	response_time_ms	trial_type	learning_stage	stimulus	response_port
0.0	1.617	1616.7	generate	Run1	generate/STIM_000.jpg	99
3.806	2.67	2670.4	generate	Run1	generate/STIM_000.jpg	100
9.553	2.341	2341.0	generate	Run1	generate/STIM_000.jpg	100
14.501	2.095	2095.3	generate	Run1	generate/STIM_000.jpg	99
18.85	1.235	1234.8	generate	Run1	generate/STIM_000.jpg	99
23.863	1.744	1744.0	generate	Run1	generate/STIM_001.jpg	100
27.918	1.812	1812.0	generate	Run1	generate/STIM_001.jpg	100
32.895	1.521	1521.3	generate	Run1	generate/STIM_001.jpg	100
36.975	1.637	1636.8	generate	Run1	generate/STIM_001.jpg	100
41.168	1.995	1995.1	generate	Run1	generate/STIM_001.jpg	100
46.075	1.587	1586.8	generate	Run1	generate/STIM_002.jpg	100
50.025	1.259	1258.9	generate	Run1	generate/STIM_002.jpg	99
53.29	2.185	2185.1	generate	Run1	generate/STIM_002.jpg	99
58.505	1.979	1979.0	generate	Run1	generate/STIM_002.jpg	100
62.961	1.442	1442.1	generate	Run1	generate/STIM_002.jpg	100
67.168	2.794	2794.4	generate	Run1	generate/STIM_003.jpg	100
73.243	1.086	1086.5	generate	Run1	generate/STIM_003.jpg	100
77.404	2.275	2275.1	generate	Run1	generate/STIM_003.jpg	99
83.663	1.285	1285.0	generate	Run1	generate/STIM_003.jpg	99
88.833	1.057	1057.3	generate	Run1	generate/STIM_003.jpg	100
92.513	2.806	2806.4	generate	Run1	generate/STIM_004.jpg	100
97.917	1.163	1163.1	generate	Run1	generate/STIM_004.jpg	100
102.918	2.03	2029.8	generate	Run1	generate/STIM_004.jpg	100
107.274	1.105	1105.0	generate	Run1	generate/STIM_004.jpg	99
111.001	1.404	1404.4	generate	Run1	generate/STIM_004.jpg	100
115.32	1.907	1906.9	generate	Run1	generate/STIM_005.jpg	100
119.902	2.334	2334.3	generate	Run1	generate/STIM_005.jpg	99
125.208	1.62	1620.3	generate	Run1	generate/STIM_005.jpg	99
129.097	1.021	1020.8	generate	Run1	generate/STIM_005.jpg	100
133.184	1.542	1541.9	generate	Run1	generate/STIM_005.jpg	100
138.593	2.7	2699.7	generate	Run1	generate/STIM_006.jpg	100
143.78	1.973	1973.3	generate	Run1	generate/STIM_006.jpg	100
147.915	2.457	2457.4	generate	Run1	generate/STIM_006.jpg	99
152.696	2.19	2189.6	generate	Run1	generate/STIM_006.jpg	99
158.782	2.008	2007.6	generate	Run1	generate/STIM_006.jpg	99
163.185	2.214	2214.3	generate	Run1	generate/STIM_007.jpg	99
168.13	1.238	1237.7	generate	Run1	generate/STIM_007.jpg	100
171.678	1.823	1823.4	generate	Run1	generate/STIM_007.jpg	100
175.838	1.889	1889.1	generate	Run1	generate/STIM_007.jpg	100
179.822	1.832	1832.0	generate	Run1	generate/STIM_007.jpg	99
183.683	1.957	1957.4	generate	Run1	generate/STIM_008.jpg	100
189.221	1.998	1997.5	generate	Run1	generate/STIM_008.jpg	99
194.566	2.195	2195.1	generate	Run1	generate/STIM_008.jpg	100
199.379	1.243	1243.0	generate	Run1	generate/STIM_008.jpg	99
203.929	1.178	1178.1	generate	Run1	generate/STIM_008.jpg	100
208.748	1.673	1672.9	generate	Run1	generate/STIM_009.jpg	100
214.266	2.323	2322.6	generate	Run1	generate/STIM_009.jpg	99
219.869	2.063	2063.3	generate	Run1	generate/STIM_009.jpg	99
224.645	1.253	1253.2	generate	Run1	generate/STIM_009.jpg	99
229.496	1.141	1140.8	generate	Run1	generate/STIM_009.jpg	100
234.625	2.621	2620.8	generate	Run1	generate/STIM_010.jpg	99
240.373	2.198	2198.1	generate	Run1	generate/STIM_010.jpg	99
245.844	2.27	2270.4	generate	Run1	generate/STIM_010.jpg	100
251.225	1.441	1441.3	generate	Run1	generate/STIM_010.jpg	99
255.381	1.713	1712.6	generate	Run1	generate/STIM_010.jpg	100
259.16	1.204	1203.8	generate	Run1	generate/STIM_011.jpg	99
263.734	2.413	2412.8	generate	Run1	generate/STIM_011.jpg	99
268.204	1.39	1390.3	generate	Run1	generate/STIM_011.jpg	100
273.231	2.102	2102.3	generate	Run1	generate/STIM_011.jpg	100
278.772	1.52	1520.2	generate	Run1	generate/STIM_011.jpg	99
283.516	1.694	1693.9	generate	Run1	generate/STIM_012.jpg	99
288.474	2.188	2188.5	generate	Run1	generate/STIM_012.jpg	99
293.378	2.064	2064.2	generate	Run1	generate/STIM_012.jpg	100
297.645	1.16	1160.3	generate	Run1	generate/STIM_012.jpg	100
302.513	1.17	1169.9	generate	Run1	generate/STIM_012.jpg	100
307.35	2.428	2427.5	generate	Run1	generate/STIM_013.jpg	100
313.643	1.967	1966.9	generate	Run1	generate/STIM_013.jpg	100
318.531	2.49	2490.4	generate	Run1	generate/STIM_013.jpg	100
324.502	1.717	1716.7	generate	Run1	generate/STIM_013.jpg	99
329.804	1.888	1887.5	generate	Run1	generate/STIM_013.jpg	99
335.292	2.558	2557.6	generate	Run1	generate/STIM_014.jpg	99
340.284	1.222	1222.0	generate	Run1	generate/STIM_014.jpg	99
344.228	1.964	1963.8	generate	Run1	generate/STIM_014.jpg	100
348.901	1.465	1464.8	generate	Run1	generate/STIM_014.jpg	99
353.127	0.94	939.6	generate	Run1	generate/STIM_014.jpg	100
356.404	2.33	2330.3	generate	Run1	generate/STIM_015.jpg	100
361.004	1.497	1497.3	generate	Run1	generate/STIM_015.jpg	99
364.991	1.027	1027.3	generate	Run1	generate/STIM_015.jpg	99
369.828	0.971	970.6	generate	Run1	generate/STIM_015.jpg	99
373.751	1.756	1755.7	generate	Run1	generate/STIM_015.jpg	100
378.198	1.807	1806.7	generate	Run1	generate/STIM_016.jpg	99
382.556	1.503	1503.0	generate	Run1	generate/STIM_016.jpg	100
386.332	1.621	1621.1	generate	Run1	generate/STIM_016.jpg	100
390.076	2.243	2243.3	generate	Run1	generate/STIM_016.jpg	100
395.749	1.532	1531.5	generate	Run1	generate/STIM_016.jpg	100
400.444	2.398	2397.5	generate	Run1	generate/STIM_017.jpg	100
405.648	2.482	2482.2	generate	Run1	generate/STIM_017.jpg	99
410.703	1.569	1569.4	generate	Run1	generate/STIM_017.jpg	100
415.05	1.711	1711.3	generate	Run1	generate/STIM_017.jpg	99
420.25	1.684	1684.0	generate	Run1	generate/STIM_017.jpg	100
425.747	1.544	1544.2	generate	Run1	generate/STIM_018.jpg	100
430.871	2.449	2449.0	generate	Run1	generate/STIM_018.jpg	99
437.271	1.497	1497.4	generate	Run1	generate/STIM_018.jpg	99
442.492	2.216	2216.3	generate	Run1	generate/STIM_018.jpg	100
447.677	1.478	1478.1	generate	Run1	generate/STIM_018.jpg	100
452.593	2.836	2836.1	generate	Run1	generate/STIM_019.jpg	99
457.955	1.711	1711.1	generate	Run1	generate/STIM_019.jpg	100
462.807	1.588	1587.7	generate	Run1	generate/STIM_019.jpg	99
467.742	1.246	1246.3	generate	Run1	generate/STIM_019.jpg	100
471.45	1.968	1968.3	generate	Run1	generate/STIM_019.jpg	100
476.062	2.162	2161.8	generate	Run1	generate/STIM_020.jpg	100
481.359	1.202	1202.3	generate	Run1	generate/STIM_020.jpg	100
486.358	1.094	1093.9	generate	Run1	generate/STIM_020.jpg	99
490.654	1.567	1567.3	generate	Run1	generate/STIM_020.jpg	99
494.988	0.978	978.1	generate	Run1	generate/STIM_020.jpg	99
498.74	2.356	2355.7	generate	Run1	generate/STIM_021.jpg	99
504.33	1.792	1792.5	generate	Run1	generate/STIM_021.jpg	99
508.699	1.298	1297.5	generate	Run1	generate/STIM_021.jpg	100
513.946	1.569	1569.3	generate	Run1	generate/STIM_021.jpg	100
517.703	1.576	1575.7	generate	Run1	generate/STIM_021.jpg	100
521.334	2.719	2718.6	generate	Run1	generate/STIM_022.jpg	99
527.444	2.447	2446.6	generate	Run1	generate/STIM_022.jpg	99
532.768	1.123	1123.2	generate	Run1	generate/STIM_022.jpg	99
536.15	1.044	1043.5	generate	Run1	generate/STIM_022.jpg	100
540.616	1.153	1153.4	generate	Run1	generate/STIM_022.jpg	100
545.152	2.044	2044.1	generate	Run1	generate/STIM_023.jpg	99
549.843	1.574	1574.0	generate	Run1	generate/STIM_023.jpg	99
554.404	1.3	1299.8	generate	Run1	generate/STIM_023.jpg	100
559.506	2.119	2119.0	generate	Run1	generate/STIM_023.jpg	99
565.371	2.116	2116.2	generate	Run1	generate/STIM_023.jpg	99
570.93	2.162	2161.6	generate	Run1	generate/STIM_024.jpg	99
576.072	2.594	2594.5	generate	Run1	generate/STIM_024.jpg	99
582.355	1.374	1374.4	generate	Run1	generate/STIM_024.jpg	100
586.799	1.106	1105.9	generate	Run1	generate/STIM_024.jpg	100
590.126	1.146	1146.3	generate	Run1	generate/STIM_024.jpg	100
594.811	0.889	888.8	repeat	Run1	repeat/STIM_000.jpg	99
597.874	0.802	802.0	repeat	Run1	repeat/STIM_000.jpg	100
601.701	0.773	773.2	repeat	Run1	repeat/STIM_000.jpg	99
605.047	0.523	522.8	repeat	Run1	repeat/STIM_000.jpg	99
609.411	0.522	522.4	repeat	Run1	repeat/STIM_000.jpg	99
613.132	0.71	709.6	repeat	Run1	repeat/STIM_001.jpg	99
617.699	0.799	799.3	repeat	Run1	repeat/STIM_001.jpg	100
620.91	0.585	585.2	repeat	Run1	repeat/STIM_001.jpg	99
625.258	0.788	788.3	repeat	Run1	repeat/STIM_001.jpg	99
629.862	0.81	809.7	repeat	Run1	repeat/STIM_001.jpg	99
633.744	0.576	576.4	repeat	Run1	repeat/STIM_002.jpg	100
637.533	0.734	734.5	repeat	Run1	repeat/STIM_002.jpg	100
640.624	0.758	757.6	repeat	Run1	repeat/STIM_002.jpg	100
644.405	0.697	697.1	repeat	Run1	repeat/STIM_002.jpg	100
648.05	0.59	590.1	repeat	Run1	repeat/STIM_002.jpg	99
651.77	0.66	660.1	repeat	Run1	repeat/STIM_003.jpg	99
656.374	0.912	911.6	repeat	Run1	repeat/STIM_003.jpg	100
659.628	0.937	937.4	repeat	Run1	repeat/STIM_003.jpg	100
662.668	0.904	904.5	repeat	Run1	repeat/STIM_003.jpg	100
666.087	0.881	881.2	repeat	Run1	repeat/STIM_003.jpg	99
670.481	0.597	597.1	repeat	Run1	repeat/STIM_004.jpg	100
674.535	0.754	753.5	repeat	Run1	repeat/STIM_004.jpg	100
679.242	0.635	634.6	repeat	Run1	repeat/STIM_004.jpg	99
682.024	0.888	888.3	repeat	Run1	repeat/STIM_004.jpg	100
686.718	0.511	511.0	repeat	Run1	repeat/STIM_004.jpg	100
691.049	0.741	740.6	repeat	Run1	repeat/STIM_005.jpg	100
693.884	0.757	757.1	repeat	Run1	repeat/STIM_005.jpg	99
697.243	0.618	618.0	repeat	Run1	repeat/STIM_005.jpg	99
701.755	0.727	727.1	repeat	Run1	repeat/STIM_005.jpg	100
705.815	0.841	841.0	repeat	Run1	repeat/STIM_005.jpg	99
709.39	0.488	487.8	repeat	Run1	repeat/STIM_006.jpg	100
712.458	0.88	879.6	repeat	Run1	repeat/STIM_006.jpg	100
716.196	0.566	566.4	repeat	Run1	repeat/STIM_006.jpg	99
719.928	0.527	526.8	repeat	Run1	repeat/STIM_006.jpg	100
724.258	0.852	852.4	repeat	Run1	repeat/STIM_006.jpg	99
728.076	0.794	793.5	repeat	Run1	repeat/STIM_007.jpg	100
731.096	0.683	682.6	repeat	Run1	repeat/STIM_007.jpg	99
735.193	0.694	693.6	repeat	Run1	repeat/STIM_007.jpg	99
738.589	0.766	765.8	repeat	Run1	repeat/STIM_007.jpg	99
741.399	0.584	584.5	repeat	Run1	repeat/STIM_007.jpg	99
745.552	0.687	686.7	repeat	Run1	repeat/STIM_008.jpg	100
750.214	0.854	854.5	repeat	Run1	repeat/STIM_008.jpg	100
753.734	0.793	792.8	repeat	Run1	repeat/STIM_008.jpg	99
757.526	0.769	768.7	repeat	Run1	repeat/STIM_008.jpg	99
761.375	0.733	733.3	repeat	Run1	repeat/STIM_008.jpg	100
765.785	0.865	864.7	repeat	Run1	repeat/STIM_009.jpg	99
770.603	0.846	846.5	repeat	Run1	repeat/STIM_009.jpg	99
773.918	0.692	691.7	repeat	Run1	repeat/STIM_009.jpg	99
777.512	0.706	705.9	repeat	Run1	repeat/STIM_009.jpg	100
782.17	0.822	821.9	repeat	Run1	repeat/STIM_009.jpg	99
785.833	0.632	632.5	repeat	Run1	repeat/STIM_010.jpg	100
789.567	0.619	618.9	repeat	Run1	repeat/STIM_010.jpg	100
793.484	0.78	779.8	repeat	Run1	repeat/STIM_010.jpg	100
797.4	0.792	791.8	repeat	Run1	repeat/STIM_010.jpg	100
801.301	0.78	779.9	repeat	Run1	repeat/STIM_010.jpg	100
804.592	0.75	750.0	repeat	Run1	repeat/STIM_011.jpg	100
807.866	0.694	693.6	repeat	Run1	repeat/STIM_011.jpg	99
811.537	0.886	885.9	repeat	Run1	repeat/STIM_011.jpg	99
815.193	0.813	813.2	repeat	Run1	repeat/STIM_011.jpg	100
819.133	0.754	754.4	repeat	Run1	repeat/STIM_011.jpg	100
823.594	0.481	480.6	repeat	Run1	repeat/STIM_012.jpg	99
827.728	0.79	790.3	repeat	Run1	repeat/STIM_012.jpg	99
831.544	0.61	609.8	repeat	Run1	repeat/STIM_012.jpg	100
835.562	0.633	632.6	repeat	Run1	repeat/STIM_012.jpg	100
838.327	0.531	531.2	repeat	Run1	repeat/STIM_012.jpg	99
842.84	0.944	943.9	repeat	Run1	repeat/STIM_013.jpg	100
847.313	0.906	906.1	repeat	Run1	repeat/STIM_013.jpg	99
850.916	0.939	938.9	repeat	Run1	repeat/STIM_013.jpg	100
854.637	0.487	487.4	repeat	Run1	repeat/STIM_013.jpg	99
858.684	0.89	889.9	repeat	Run1	repeat/STIM_013.jpg	99
861.708	0.819	818.6	repeat	Run1	repeat/STIM_014.jpg	100
864.697	0.7	699.7	repeat	Run1	repeat/STIM_014.jpg	99
868.996	0.936	936.3	repeat	Run1	repeat/STIM_014.jpg	100
872.909	0.498	498.2	repeat	Run1	repeat/STIM_014.jpg	100
876.28	0.7	699.5	repeat	Run1	repeat/STIM_014.jpg	99
880.345	2.394	2393.9	generate	Run2	generate/STIM_000.jpg	99
885.919	2.027	2027.0	generate	Run2	generate/STIM_000.jpg	99
889.976	2.094	2093.5	generate	Run2	generate/STIM_000.jpg	99
895.772	1.731	1731.3	generate	Run2	generate/STIM_000.jpg	100
901.254	1.023	1022.8	generate	Run2	generate/STIM_000.jpg	100
904.891	1.161	1161.4	generate	Run2	generate/STIM_001.jpg	99
908.421	1.185	1184.7	generate	Run2	generate/STIM_001.jpg	100
912.247	2.057	2057.3	generate	Run2	generate/STIM_001.jpg	100
917.975	1.593	1593.1	generate	Run2	generate/STIM_001.jpg	100
923.41	1.221	1221.3	generate	Run2	generate/STIM_001.jpg	100
928.418	1.408	1407.9	generate	Run2	generate/STIM_002.jpg	100
932.298	2.186	2186.3	generate	Run2	generate/STIM_002.jpg	100
937.997	1.758	1757.9	generate	Run2	generate/STIM_002.jpg	100
941.958	1.905	1905.2	generate	Run2	generate/STIM_002.jpg	99
947.437	1.818	1817.6	generate	Run2	generate/STIM_002.jpg	100
953.179	2.362	2362.3	generate	Run2	generate/STIM_003.jpg	99
958.822	1.989	1988.9	generate	Run2	generate/STIM_003.jpg	99
962.87	1.333	1333.3	generate	Run2	generate/STIM_003.jpg	99
966.604	1.84	1839.8	generate	Run2	generate/STIM_003.jpg	99
972.034	1.407	1407.1	generate	Run2	generate/STIM_003.jpg	99
975.517	1.124	1124.2	generate	Run2	generate/STIM_004.jpg	99
978.893	2.133	2132.8	generate	Run2	generate/STIM_004.jpg	100
983.283	0.88	879.6	generate	Run2	generate/STIM_004.jpg	100
987.443	1.185	1184.9	generate	Run2	generate/STIM_004.jpg	99
991.644	1.659	1659.1	generate	Run2	generate/STIM_004.jpg	99
996.611	1.677	1676.8	generate	Run2	generate/STIM_005.jpg	100
1001.715	1.742	1742.3	generate	Run2	generate/STIM_005.jpg	99
1006.721	1.619	1618.7	generate	Run2	generate/STIM_005.jpg	100
1011.123	1.592	1592.3	generate	Run2	generate/STIM_005.jpg	100
1016.514	1.514	1514.1	generate	Run2	generate/STIM_005.jpg	100
1020.183	1.794	1793.9	generate	Run2	generate/STIM_006.jpg	100
1024.784	1.116	1116.1	generate	Run2	generate/STIM_006.jpg	100
1028.079	1.171	1170.7	generate	Run2	generate/STIM_006.jpg	100
1032.939	1.255	1254.6	generate	Run2	generate/STIM_006.jpg	100
1036.46	1.092	1092.4	generate	Run2	generate/STIM_006.jpg	100
1041.182	2.383	2382.9	generate	Run2	generate/STIM_007.jpg	99
1046.446	0.948	948.2	generate	Run2	generate/STIM_007.jpg	100
1050.265	1.913	1912.6	generate	Run2	generate/STIM_007.jpg	99
1054.585	1.51	1509.7	generate	Run2	generate/STIM_007.jpg	100
1059.34	0.849	848.9	generate	Run2	generate/STIM_007.jpg	100
1062.529	2.329	2329.0	generate	Run2	generate/STIM_008.jpg	100
1067.411	1.688	1687.6	generate	Run2	generate/STIM_008.jpg	100
1072.707	0.862	861.6	generate	Run2	generate/STIM_008.jpg	100
1076.175	1.268	1268.1	generate	Run2	generate/STIM_008.jpg	100
1080.926	1.833	1832.6	generate	Run2	generate/STIM_008.jpg	99
1086.678	1.369	1368.6	generate	Run2	generate/STIM_009.jpg	99
1090.33	1.372	1372.3	generate	Run2	generate/STIM_009.jpg	99
1095.43	1.825	1824.6	generate	Run2	generate/STIM_009.jpg	99
1099.894	1.983	1982.7	generate	Run2	generate/STIM_009.jpg	99
1103.935	0.932	931.8	generate	Run2	generate/STIM_009.jpg	100
1108.454	1.513	1512.6	generate	Run2	generate/STIM_010.jpg	100
1111.974	1.136	1136.4	generate	Run2	generate/STIM_010.jpg	100
1115.816	1.386	1386.1	generate	Run2	generate/STIM_010.jpg	99
1121.09	1.088	1088.3	generate	Run2	generate/STIM_010.jpg	100
1124.998	0.996	996.2	generate	Run2	generate/STIM_010.jpg	99
1128.701	1.764	1763.9	generate	Run2	generate/STIM_011.jpg	100
1133.938	1.641	1640.6	generate	Run2	generate/STIM_011.jpg	100
1137.886	0.985	985.2	generate	Run2	generate/STIM_011.jpg	100
1141.696	1.766	1766.3	generate	Run2	generate/STIM_011.jpg	100
1145.994	1.926	1926.3	generate	Run2	generate/STIM_011.jpg	100
1151.889	1.725	1724.7	generate	Run2	generate/STIM_012.jpg	99
1156.349	1.785	1784.9	generate	Run2	generate/STIM_012.jpg	100
1161.526	1.909	1908.6	generate	Run2	generate/STIM_012.jpg	100
1165.645	1.867	1867.0	generate	Run2	generate/STIM_012.jpg	99
1170.082	1.888	1887.6	generate	Run2	generate/STIM_012.jpg	100
1174.184	1.859	1859.0	generate	Run2	generate/STIM_013.jpg	99
1178.525	1.566	1565.5	generate	Run2	generate/STIM_013.jpg	100
1182.444	1.189	1189.2	generate	Run2	generate/STIM_013.jpg	100
1186.187	1.335	1335.4	generate	Run2	generate/STIM_013.jpg	100
1191.171	1.076	1075.5	generate	Run2	generate/STIM_013.jpg	99
1194.828	1.375	1375.1	generate	Run2	generate/STIM_014.jpg	99
1200.084	0.942	941.9	generate	Run2	generate/STIM_014.jpg	100
1203.744	1.093	1092.9	generate	Run2	generate/STIM_014.jpg	100
1207.407	1.813	1813.1	generate	Run2	generate/STIM_014.jpg	100
1211.894	1.945	1945.2	generate	Run2	generate/STIM_014.jpg	99
1216.292	1.651	1651.3	generate	Run2	generate/STIM_015.jpg	100
1220.962	1.593	1593.0	generate	Run2	generate/STIM_015.jpg	99
1225.404	1.744	1744.0	generate	Run2	generate/STIM_015.jpg	100
1230.742	1.529	1529.4	generate	Run2	generate/STIM_015.jpg	99
1235.325	1.471	1471.0	generate	Run2	generate/STIM_015.jpg	100
1240.511	1.274	1274.4	generate	Run2	generate/STIM_016.jpg	100
1244.741	2.078	2077.7	generate	Run2	generate/STIM_016.jpg	99
1249.189	1.723	1723.0	generate	Run2	generate/STIM_016.jpg	99
1253.244	1.094	1094.0	generate	Run2	generate/STIM_016.jpg	99
1257.611	1.927	1927.1	generate	Run2	generate/STIM_016.jpg	100
1263.003	1.122	1121.8	generate	Run2	generate/STIM_017.jpg	99
1267.969	1.408	1407.8	generate	Run2	generate/STIM_017.jpg	99
1273.284	2.044	2043.9	generate	Run2	generate/STIM_017.jpg	99
1278.241	1.066	1065.7	generate	Run2	generate/STIM_017.jpg	100
1281.344	0.978	978.3	generate	Run2	generate/STIM_017.jpg	99
1285.226	1.573	1573.0	generate	Run2	generate/STIM_018.jpg	99
1290.216	1.973	1973.2	generate	Run2	generate/STIM_018.jpg	99
1295.413	1.177	1176.6	generate	Run2	generate/STIM_018.jpg	99
1299.894	1.556	1556.5	generate	Run2	generate/STIM_018.jpg	99
1305.372	1.359	1359.4	generate	Run2	generate/STIM_018.jpg	99
1310.195	1.251	1250.8	generate	Run2	generate/STIM_019.jpg	100
1314.329	1.838	1837.5	generate	Run2	generate/STIM_019.jpg	100
1319.514	1.262	1262.4	generate	Run2	generate/STIM_019.jpg	100
1323.607	1.369	1368.6	generate	Run2	generate/STIM_019.jpg	100
1328.614	0.872	871.7	generate	Run2	generate/STIM_019.jpg	99
1332.593	2.3	2299.9	generate	Run2	generate/STIM_020.jpg	99
1338.01	1.933	1932.9	generate	Run2	generate/STIM_020.jpg	100
1342.905	1.063	1062.7	generate	Run2	generate/STIM_020.jpg	100
1346.06	1.628	1627.9	generate	Run2	generate/STIM_020.jpg	100
1351.664	1.633	1633.1	generate	Run2	generate/STIM_020.jpg	100
1355.326	2.027	2027.3	generate	Run2	generate/STIM_021.jpg	99
1359.76	1.123	1122.6	generate	Run2	generate/STIM_021.jpg	99
1364.726	1.74	1740.0	generate	Run2	generate/STIM_021.jpg	99
1368.581	0.935	935.1	generate	Run2	generate/STIM_021.jpg	99
1372.404	1.933	1933.2	generate	Run2	generate/STIM_021.jpg	99
1377.089	2.072	2072.0	generate	Run2	generate/STIM_022.jpg	100
1382.896	1.216	1215.6	generate	Run2	generate/STIM_022.jpg	100
1386.663	2.071	2070.9	generate	Run2	generate/STIM_022.jpg	99
1391.716	0.803	802.8	generate	Run2	generate/STIM_022.jpg	100
1394.95	1.304	1303.8	generate	Run2	generate/STIM_022.jpg	100
1399.649	1.703	1703.1	generate	Run2	generate/STIM_023.jpg	100
1404.929	1.214	1213.6	generate	Run2	generate/STIM_023.jpg	99
1409.059	1.883	1883.0	generate	Run2	generate/STIM_023.jpg	100
1414.759	0.869	869.4	generate	Run2	generate/STIM_023.jpg	99
1417.863	1.677	1677.1	generate	Run2	generate/STIM_023.jpg	99
1422.926	1.545	1545.3	generate	Run2	generate/STIM_024.jpg	100
1427.532	1.502	1502.2	generate	Run2	generate/STIM_024.jpg	99
1431.823	1.456	1456.5	generate	Run2	generate/STIM_024.jpg	100
1436.207	1.854	1854.3	generate	Run2	generate/STIM_024.jpg	100
1440.789	1.892	1891.5	generate	Run2	generate/STIM_024.jpg	100
1446.051	0.658	658.1	repeat	Run2	repeat/STIM_000.jpg	99
1449.127	0.526	526.0	repeat	Run2	repeat/STIM_000.jpg	99
1452.632	0.836	835.9	repeat	Run2	repeat/STIM_000.jpg	99
1455.641	0.92	920.5	repeat	Run2	repeat/STIM_000.jpg	100
1459.413	0.53	530.5	repeat	Run2	repeat/STIM_000.jpg	99
1462.369	0.528	528.2	repeat	Run2	repeat/STIM_001.jpg	100
1466.875	0.721	720.8	repeat	Run2	repeat/STIM_001.jpg	100
1471.283	0.862	861.8	repeat	Run2	repeat/STIM_001.jpg	99
1474.707	0.796	795.5	repeat	Run2	repeat/STIM_001.jpg	100
1479.132	0.67	669.5	repeat	Run2	repeat/STIM_001.jpg	99
1481.855	0.478	477.9	repeat	Run2	repeat/STIM_002.jpg	99
1484.657	0.845	844.6	repeat	Run2	repeat/STIM_002.jpg	99
1488.538	0.793	792.8	repeat	Run2	repeat/STIM_002.jpg	99
1492.546	0.933	933.3	repeat	Run2	repeat/STIM_002.jpg	99
1496.314	0.8	800.0	repeat	Run2	repeat/STIM_002.jpg	99
1499.319	0.633	633.2	repeat	Run2	repeat/STIM_003.jpg	99
1503.676	0.507	506.7	repeat	Run2	repeat/STIM_003.jpg	100
1507.123	0.565	564.6	repeat	Run2	repeat/STIM_003.jpg	99
1511.657	0.549	549.0	repeat	Run2	repeat/STIM_003.jpg	100
1514.745	0.506	506.0	repeat	Run2	repeat/STIM_003.jpg	99
1518.434	0.73	729.6	repeat	Run2	repeat/STIM_004.jpg	100
1522.816	0.818	818.2	repeat	Run2	repeat/STIM_004.jpg	99
1526.927	0.587	586.8	repeat	Run2	repeat/STIM_004.jpg	99
1529.63	0.667	667.0	repeat	Run2	repeat/STIM_004.jpg	99
1532.865	0.831	830.6	repeat	Run2	repeat/STIM_004.jpg	99
1535.95	0.594	594.4	repeat	Run2	repeat/STIM_005.jpg	100
1539.724	0.826	825.7	repeat	Run2	repeat/STIM_005.jpg	99
1543.325	0.605	604.7	repeat	Run2	repeat/STIM_005.jpg	100
1547.668	0.91	910.5	repeat	Run2	repeat/STIM_005.jpg	99
1551.549	0.939	938.8	repeat	Run2	repeat/STIM_005.jpg	99
1555.081	0.946	945.9	repeat	Run2	repeat/STIM_006.jpg	99
1558.48	0.79	789.7	repeat	Run2	repeat/STIM_006.jpg	100
1562.673	0.678	678.2	repeat	Run2	repeat/STIM_006.jpg	100
1567.322	0.722	722.5	repeat	Run2	repeat/STIM_006.jpg	99
1570.784	0.923	923.1	repeat	Run2	repeat/STIM_006.jpg	99
1574.003	0.889	888.6	repeat	Run2	repeat/STIM_007.jpg	100
1577.092	0.621	621.1	repeat	Run2	repeat/STIM_007.jpg	99
1579.715	0.517	517.0	repeat	Run2	repeat/STIM_007.jpg	100
1582.589	0.621	621.4	repeat	Run2	repeat/STIM_007.jpg	100
1586.459	0.508	507.7	repeat	Run2	repeat/STIM_007.jpg	99
1589.461	0.848	847.9	repeat	Run2	repeat/STIM_008.jpg	99
1592.886	0.626	625.8	repeat	Run2	repeat/STIM_008.jpg	100
1596.472	0.814	814.1	repeat	Run2	repeat/STIM_008.jpg	100
1600.2	0.714	713.6	repeat	Run2	repeat/STIM_008.jpg	100
1602.915	0.913	912.8	repeat	Run2	repeat/STIM_008.jpg	100
1606.205	0.82	819.7	repeat	Run2	repeat/STIM_009.jpg	99
1610.73	0.696	695.5	repeat	Run2	repeat/STIM_009.jpg	99
1614.87	0.645	644.7	repeat	Run2	repeat/STIM_009.jpg	99
1617.58	0.897	896.7	repeat	Run2	repeat/STIM_009.jpg	100
1621.943	0.589	588.7	repeat	Run2	repeat/STIM_009.jpg	99
1626.313	0.774	774.0	repeat	Run2	repeat/STIM_010.jpg	99
1630.812	0.581	581.2	repeat	Run2	repeat/STIM_010.jpg	99
1633.664	0.895	895.1	repeat	Run2	repeat/STIM_010.jpg	99
1637.639	0.728	727.6	repeat	Run2	repeat/STIM_010.jpg	100
1641.601	0.878	877.5	repeat	Run2	repeat/STIM_010.jpg	99
1644.591	0.497	497.3	repeat	Run2	repeat/STIM_011.jpg	99
1648.703	0.796	796.5	repeat	Run2	repeat/STIM_011.jpg	99
1651.85	0.669	669.4	repeat	Run2	repeat/STIM_011.jpg	99
1655.369	0.787	786.7	repeat	Run2	repeat/STIM_011.jpg	100
1658.927	0.78	780.0	repeat	Run2	repeat/STIM_011.jpg	100
1662.618	0.697	697.2	repeat	Run2	repeat/STIM_012.jpg	99
1667.058	0.914	913.9	repeat	Run2	repeat/STIM_012.jpg	99
1671.891	0.5	500.3	repeat	Run2	repeat/STIM_012.jpg	99
1674.437	0.619	619.4	repeat	Run2	repeat/STIM_012.jpg	99
1677.63	0.932	932.3	repeat	Run2	repeat/STIM_012.jpg	99
1681.706	0.882	881.5	repeat	Run2	repeat/STIM_013.jpg	99
1684.717	0.512	512.0	repeat	Run2	repeat/STIM_013.jpg	100
1689.057	0.542	542.0	repeat	Run2	repeat/STIM_013.jpg	99
1692.025	0.522	522.2	repeat	Run2	repeat/STIM_013.jpg	100
1694.872	0.511	511.4	repeat	Run2	repeat/STIM_013.jpg	100
1698.838	0.667	667.2	repeat	Run2	repeat/STIM_014.jpg	99
1702.373	0.861	860.9	repeat	Run2	repeat/STIM_014.jpg	100
1705.272	0.57	570.1	repeat	Run2	repeat/STIM_014.jpg	100
1709.653	0.797	797.3	repeat	Run2	repeat/STIM_014.jpg	99
1712.488	0.75	749.6	repeat	Run2	repeat/STIM_014.jpg	99
1715.401	1.943	1942.8	generate	Run3	generate/STIM_000.jpg	100
1720.265	1.056	1056.1	generate	Run3	generate/STIM_000.jpg	100
1724.27	1.512	1512.2	generate	Run3	generate/STIM_000.jpg	99
1728.642	1.402	1402.2	generate	Run3	generate/STIM_000.jpg	99
1732.505	1.556	1556.5	generate	Run3	generate/STIM_000.jpg	99
1736.737	1.194	1194.1	generate	Run3	generate/STIM_001.jpg	100
1741.568	1.37	1369.5	generate	Run3	generate/STIM_001.jpg	99
1745.788	1.281	1280.7	generate	Run3	generate/STIM_001.jpg	99
1750.997	1.414	1413.7	generate	Run3	generate/STIM_001.jpg	100
1755.127	1.857	1857.4	generate	Run3	generate/STIM_001.jpg	99
1759.829	1.957	1957.1	generate	Run3	generate/STIM_002.jpg	99
1764.58	1.769	1769.4	generate	Run3	generate/STIM_002.jpg	100
1770.344	1.466	1466.5	generate	Run3	generate/STIM_002.jpg	99
1774.243	1.22	1220.0	generate	Run3	generate/STIM_002.jpg	99
1778.375	0.954	954.1	generate	Run3	generate/STIM_002.jpg	100
1782.891	1.159	1159.4	generate	Run3	generate/STIM_003.jpg	99
1787.494	0.818	817.6	generate	Run3	generate/STIM_003.jpg	99
1792.032	1.961	1960.7	generate	Run3	generate/STIM_003.jpg	100
1797.706	0.979	978.8	generate	Run3	generate/STIM_003.jpg	99
1802.658	1.492	1492.4	generate	Run3	generate/STIM_003.jpg	99
1807.377	1.009	1008.7	generate	Run3	generate/STIM_004.jpg	100
1812.323	1.245	1245.0	generate	Run3	generate/STIM_004.jpg	99
1817.117	0.857	857.4	generate	Run3	generate/STIM_004.jpg	100
1820.71	1.818	1818.1	generate	Run3	generate/STIM_004.jpg	99
1825.712	1.858	1857.5	generate	Run3	generate/STIM_004.jpg	99
1831.384	1.482	1482.1	generate	Run3	generate/STIM_005.jpg	99
1835.741	1.122	1121.6	generate	Run3	generate/STIM_005.jpg	99
1838.966	1.511	1510.8	generate	Run3	generate/STIM_005.jpg	100
1844.248	1.267	1267.4	generate	Run3	generate/STIM_005.jpg	99
1848.388	1.571	1571.4	generate	Run3	generate/STIM_005.jpg	100
1852.591	1.672	1671.6	generate	Run3	generate/STIM_006.jpg	99
1857.076	1.965	1965.4	generate	Run3	generate/STIM_006.jpg	100
1861.899	1.649	1649.3	generate	Run3	generate/STIM_006.jpg	99
1867.421	1.238	1237.6	generate	Run3	generate/STIM_006.jpg	99
1871.623	1.336	1335.9	generate	Run3	generate/STIM_006.jpg	100
1876.047	0.844	843.9	generate	Run3	generate/STIM_007.jpg	100
1880.146	0.996	996.3	generate	Run3	generate/STIM_007.jpg	99
1883.871	1.284	1284.4	generate	Run3	generate/STIM_007.jpg	99
1888.51	1.864	1864.2	generate	Run3	generate/STIM_007.jpg	100
1893.358	1.543	1542.9	generate	Run3	generate/STIM_007.jpg	100
1897.004	1.509	1508.9	generate	Run3	generate/STIM_008.jpg	99
1900.992	1.989	1988.8	generate	Run3	generate/STIM_008.jpg	100
1905.016	1.559	1559.2	generate	Run3	generate/STIM_008.jpg	99
1909.417	1.969	1969.4	generate	Run3	generate/STIM_008.jpg	99
1914.682	1.11	1109.8	generate	Run3	generate/STIM_008.jpg	100
1919.325	0.819	819.2	generate	Run3	generate/STIM_009.jpg	99
1922.853	1.966	1965.9	generate	Run3	generate/STIM_009.jpg	100
1927.311	1.009	1009.3	generate	Run3	generate/STIM_009.jpg	99
1931.273	1.669	1668.9	generate	Run3	generate/STIM_009.jpg	100
1936.257	0.886	886.1	generate	Run3	generate/STIM_009.jpg	100
1939.986	1.547	1546.9	generate	Run3	generate/STIM_010.jpg	99
1943.624	1.523	1523.3	generate	Run3	generate/STIM_010.jpg	99
1948.24	1.917	1917.1	generate	Run3	generate/STIM_010.jpg	99
1953.455	1.579	1578.6	generate	Run3	generate/STIM_010.jpg	100
1958.02	1.222	1221.8	generate	Run3	generate/STIM_010.jpg	100
1962.379	1.622	1622.3	generate	Run3	generate/STIM_011.jpg	100
1966.172	1.504	1504.0	generate	Run3	generate/STIM_011.jpg	99
1970.826	0.812	812.4	generate	Run3	generate/STIM_011.jpg	99
1974.188	1.732	1732.3	generate	Run3	generate/STIM_011.jpg	99
1979.095	1.077	1077.2	generate	Run3	generate/STIM_011.jpg	100
1983.488	1.706	1706.1	generate	Run3	generate/STIM_012.jpg	100
1988.022	1.201	1201.3	generate	Run3	generate/STIM_012.jpg	100
1991.71	1.716	1715.8	generate	Run3	generate/STIM_012.jpg	99
1997.107	0.853	853.3	generate	Run3	generate/STIM_012.jpg	99
2001.653	0.986	986.2	generate	Run3	generate/STIM_012.jpg	99
2006.15	1.014	1013.6	generate	Run3	generate/STIM_013.jpg	99
2010.311	1.498	1498.1	generate	Run3	generate/STIM_013.jpg	99
2015.067	1.778	1777.7	generate	Run3	generate/STIM_013.jpg	99
2019.26	1.77	1769.7	generate	Run3	generate/STIM_013.jpg	100
2023.187	1.12	1120.1	generate	Run3	generate/STIM_013.jpg	99
2027.38	1.525	1524.6	generate	Run3	generate/STIM_014.jpg	100
2031.288	1.168	1167.7	generate	Run3	generate/STIM_014.jpg	99
2036.227	1.665	1665.4	generate	Run3	generate/STIM_014.jpg	99
2039.983	1.4	1400.3	generate	Run3	generate/STIM_014.jpg	100
2044.689	1.14	1140.4	generate	Run3	generate/STIM_014.jpg	100
2048.43	0.962	961.5	generate	Run3	generate/STIM_015.jpg	100
2051.653	1.828	1827.9	generate	Run3	generate/STIM_015.jpg	100
2056.433	0.86	860.5	generate	Run3	generate/STIM_015.jpg	100
2059.565	1.639	1639.2	generate	Run3	generate/STIM_015.jpg	99
2064.479	1.034	1033.8	generate	Run3	generate/STIM_015.jpg	99
2068.653	1.952	1952.3	generate	Run3	generate/STIM_016.jpg	100
2073.71	1.161	1160.7	generate	Run3	generate/STIM_016.jpg	99
2077.067	1.709	1708.9	generate	Run3	generate/STIM_016.jpg	99
2082.027	1.633	1632.6	generate	Run3	generate/STIM_016.jpg	100
2086.662	1.006	1005.8	generate	Run3	generate/STIM_016.jpg	100
2090.848	1.117	1117.2	generate	Run3	generate/STIM_017.jpg	100
2094.25	1.341	1341.1	generate	Run3	generate/STIM_017.jpg	100
2097.638	1.301	1300.8	generate	Run3	generate/STIM_017.jpg	100
2101.076	1.982	1982.3	generate	Run3	generate/STIM_017.jpg	99
2105.17	1.529	1528.6	generate	Run3	generate/STIM_017.jpg	100
2110.252	1.537	1537.4	generate	Run3	generate/STIM_018.jpg	100
2114.399	1.188	1188.4	generate	Run3	generate/STIM_018.jpg	99
2118.965	0.903	903.1	generate	Run3	generate/STIM_018.jpg	100
2123.02	1.28	1280.3	generate	Run3	generate/STIM_018.jpg	100
2127.955	1.035	1034.8	generate	Run3	generate/STIM_018.jpg	100
2131.696	1.201	1201.3	generate	Run3	generate/STIM_019.jpg	99
2135.355	0.816	816.1	generate	Run3	generate/STIM_019.jpg	99
2139.822	1.116	1116.5	generate	Run3	generate/STIM_019.jpg	99
2143.228	1.258	1258.3	generate	Run3	generate/STIM_019.jpg	100
2148.099	1.28	1280.1	generate	Run3	generate/STIM_019.jpg	100
2151.487	1.896	1896.2	generate	Run3	generate/STIM_020.jpg	99
2155.415	1.079	1078.8	generate	Run3	generate/STIM_020.jpg	99
2159.012	1.76	1760.2	generate	Run3	generate/STIM_020.jpg	99
2164.459	1.264	1263.7	generate	Run3	generate/STIM_020.jpg	100
2168.796	1.013	1012.8	generate	Run3	generate/STIM_020.jpg	99
2172.132	1.058	1057.7	generate	Run3	generate/STIM_021.jpg	99
2176.755	1.633	1632.6	generate	Run3	generate/STIM_021.jpg	99
2180.974	1.462	1462.0	generate	Run3	generate/STIM_021.jpg	99
2185.794	1.627	1627.1	generate	Run3	generate/STIM_021.jpg	100
2189.657	0.894	894.3	generate	Run3	generate/STIM_021.jpg	100
2193.774	1.097	1097.1	generate	Run3	generate/STIM_022.jpg	100
2198.154	1.975	1975.4	generate	Run3	generate/STIM_022.jpg	99
2204.106	0.975	975.0	generate	Run3	generate/STIM_022.jpg	100
2208.732	1.257	1256.8	generate	Run3	generate/STIM_022.jpg	99
2212.196	0.94	940.2	generate	Run3	generate/STIM_022.jpg	99
2215.521	1.662	1661.5	generate	Run3	generate/STIM_023.jpg	99
2219.927	0.853	852.6	generate	Run3	generate/STIM_023.jpg	100
2224.051	1.114	1113.6	generate	Run3	generate/STIM_023.jpg	100
2228.03	1.065	1065.3	generate	Run3	generate/STIM_023.jpg	99
2231.874	1.643	1642.8	generate	Run3	generate/STIM_023.jpg	99
2235.872	1.566	1565.6	generate	Run3	generate/STIM_024.jpg	100
2239.626	1.156	1156.0	generate	Run3	generate/STIM_024.jpg	99
2243.689	1.768	1768.1	generate	Run3	generate/STIM_024.jpg	99
2248.688	1.198	1198.1	generate	Run3	generate/STIM_024.jpg	99
2253.363	1.954	1953.5	generate	Run3	generate/STIM_024.jpg	99
2258.546	0.778	777.7	repeat	Run3	repeat/STIM_000.jpg	99
2263.053	0.918	917.7	repeat	Run3	repeat/STIM_000.jpg	99
2267.717	0.912	911.7	repeat	Run3	repeat/STIM_000.jpg	100
2270.739	0.577	577.1	repeat	Run3	repeat/STIM_000.jpg	100
2275.082	0.868	868.4	repeat	Run3	repeat/STIM_000.jpg	100
2279.744	0.912	911.6	repeat	Run3	repeat/STIM_001.jpg	100
2282.697	0.62	620.0	repeat	Run3	repeat/STIM_001.jpg	100
2286.599	0.538	538.3	repeat	Run3	repeat/STIM_001.jpg	99
2290.935	0.794	794.4	repeat	Run3	repeat/STIM_001.jpg	100
2294.634	0.813	813.2	repeat	Run3	repeat/STIM_001.jpg	100
2298.507	0.801	801.4	repeat	Run3	repeat/STIM_002.jpg	100
2302.295	0.802	801.5	repeat	Run3	repeat/STIM_002.jpg	100
2306.51	0.856	855.9	repeat	Run3	repeat/STIM_002.jpg	100
2309.81	0.722	722.1	repeat	Run3	repeat/STIM_002.jpg	99
2314.453	0.939	939.2	repeat	Run3	repeat/STIM_002.jpg	99
2317.987	0.906	906.0	repeat	Run3	repeat/STIM_003.jpg	99
2322.647	0.507	507.0	repeat	Run3	repeat/STIM_003.jpg	100
2326.054	0.903	903.0	repeat	Run3	repeat/STIM_003.jpg	100
2329.118	0.872	872.4	repeat	Run3	repeat/STIM_003.jpg	100
2332.146	0.808	807.7	repeat	Run3	repeat/STIM_003.jpg	100
2335.451	0.869	869.1	repeat	Run3	repeat/STIM_004.jpg	99
2339.56	0.909	908.6	repeat	Run3	repeat/STIM_004.jpg	100
2344.286	0.594	594.1	repeat	Run3	repeat/STIM_004.jpg	99
2347.826	0.786	785.6	repeat	Run3	repeat/STIM_004.jpg	100
2352.048	0.845	845.3	repeat	Run3	repeat/STIM_004.jpg	99
2356.284	0.488	487.6	repeat	Run3	repeat/STIM_005.jpg	100
2360.61	0.748	747.5	repeat	Run3	repeat/STIM_005.jpg	100
2364.153	0.88	879.9	repeat	Run3	repeat/STIM_005.jpg	100
2368.862	0.484	484.0	repeat	Run3	repeat/STIM_005.jpg	100
2371.713	0.65	650.3	repeat	Run3	repeat/STIM_005.jpg	100
2375.929	0.706	706.0	repeat	Run3	repeat/STIM_006.jpg	100
2379.2	0.846	845.9	repeat	Run3	repeat/STIM_006.jpg	100
2383.039	0.759	759.3	repeat	Run3	repeat/STIM_006.jpg	100
2387.632	0.634	633.5	repeat	Run3	repeat/STIM_006.jpg	99
2390.603	0.694	694.1	repeat	Run3	repeat/STIM_006.jpg	99
2393.521	0.864	863.5	repeat	Run3	repeat/STIM_007.jpg	100
2397.401	0.553	552.9	repeat	Run3	repeat/STIM_007.jpg	99
2400.731	0.505	505.0	repeat	Run3	repeat/STIM_007.jpg	99
2404.304	0.923	923.4	repeat	Run3	repeat/STIM_007.jpg	99
2409.213	0.481	480.9	repeat	Run3	repeat/STIM_007.jpg	100
2412.526	0.941	941.2	repeat	Run3	repeat/STIM_008.jpg	99
2416.537	0.614	613.5	repeat	Run3	repeat/STIM_008.jpg	99
2420.111	0.793	792.6	repeat	Run3	repeat/STIM_008.jpg	100
2423.137	0.775	774.6	repeat	Run3	repeat/STIM_008.jpg	100
2426.589	0.903	902.9	repeat	Run3	repeat/STIM_008.jpg	99
2431.288	0.708	707.6	repeat	Run3	repeat/STIM_009.jpg	100
2435.755	0.526	526.1	repeat	Run3	repeat/STIM_009.jpg	99
2440.055	0.496	495.9	repeat	Run3	repeat/STIM_009.jpg	100
2443.324	0.509	509.3	repeat	Run3	repeat/STIM_009.jpg	99
2446.57	0.8	800.5	repeat	Run3	repeat/STIM_009.jpg	100
2449.607	0.697	696.9	repeat	Run3	repeat/STIM_010.jpg	100
2452.914	0.887	886.6	repeat	Run3	repeat/STIM_010.jpg	99
2457.339	0.873	873.4	repeat	Run3	repeat/STIM_010.jpg	100
2460.76	0.746	745.6	repeat	Run3	repeat/STIM_010.jpg	99
2464.111	0.57	570.5	repeat	Run3	repeat/STIM_010.jpg	99
2467.585	0.868	868.4	repeat	Run3	repeat/STIM_011.jpg	99
2471.303	0.899	899.1	repeat	Run3	repeat/STIM_011.jpg	100
2474.41	0.739	738.6	repeat	Run3	repeat/STIM_011.jpg	100
2478.591	0.722	721.8	repeat	Run3	repeat/STIM_011.jpg	99
2483.287	0.657	656.7	repeat	Run3	repeat/STIM_011.jpg	99
2487.823	0.562	562.5	repeat	Run3	repeat/STIM_012.jpg	100
2491.385	0.483	483.3	repeat	Run3	repeat/STIM_012.jpg	99
2495.451	0.789	788.9	repeat	Run3	repeat/STIM_012.jpg	100
2500.14	0.866	866.5	repeat	Run3	repeat/STIM_012.jpg	99
2504.084	0.894	893.9	repeat	Run3	repeat/STIM_012.jpg	99
2508.762	0.6	600.3	repeat	Run3	repeat/STIM_013.jpg	100
2511.394	0.533	532.8	repeat	Run3	repeat/STIM_013.jpg	99
2514.326	0.657	656.7	repeat	Run3	repeat/STIM_013.jpg	100
2517.562	0.87	870.1	repeat	Run3	repeat/STIM_013.jpg	100
2521.282	0.795	795.2	repeat	Run3	repeat/STIM_013.jpg	99
2525.561	0.644	644.2	repeat	Run3	repeat/STIM_014.jpg	100
2529.257	0.714	714.1	repeat	Run3	repeat/STIM_014.jpg	100
2533.654	0.892	892.2	repeat	Run3	repeat/STIM_014.jpg	99
2537.807	0.942	942.2	repeat	Run3	repeat/STIM_014.jpg	99
2541.505	0.731	731.3	repeat	Run3	repeat/STIM_014.jpg	100
2545.497	1.757	1757.4	generate	Run4	generate/STIM_000.jpg	100
2550.079	1.747	1747.4	generate	Run4	generate/STIM_000.jpg	99
2555.627	1.513	1513.1	generate	Run4	generate/STIM_000.jpg	100
2560.922	1.353	1352.6	generate	Run4	generate/STIM_000.jpg	99
2564.395	0.934	934.4	generate	Run4	generate/STIM_000.jpg	100
2567.574	1.681	1681.1	generate	Run4	generate/STIM_001.jpg	99
2572.357	1.302	1301.6	generate	Run4	generate/STIM_001.jpg	99
2576.392	1.639	1639.1	generate	Run4	generate/STIM_001.jpg	100
2581.996	1.16	1159.5	generate	Run4	generate/STIM_001.jpg	100
2585.65	1.586	1585.6	generate	Run4	generate/STIM_001.jpg	100
2590.428	1.985	1985.1	generate	Run4	generate/STIM_002.jpg	100
2595.444	1.268	1267.6	generate	Run4	generate/STIM_002.jpg	100
2599.299	1.353	1352.7	generate	Run4	generate/STIM_002.jpg	100
2604.497	1.89	1890.4	generate	Run4	generate/STIM_002.jpg	100
2609.767	1.064	1064.5	generate	Run4	generate/STIM_002.jpg	100
2613.61	1.572	1572.4	generate	Run4	generate/STIM_003.jpg	99
2619.08	1.54	1540.4	generate	Run4	generate/STIM_003.jpg	100
2623.99	0.928	928.3	generate	Run4	generate/STIM_003.jpg	100
2627.682	0.921	921.4	generate	Run4	generate/STIM_003.jpg	99
2630.62	1.746	1746.5	generate	Run4	generate/STIM_003.jpg	99
2634.373	0.806	806.0	generate	Run4	generate/STIM_004.jpg	99
2638.211	0.897	897.4	generate	Run4	generate/STIM_004.jpg	100
2641.639	1.547	1547.3	generate	Run4	generate/STIM_004.jpg	100
2646.619	1.676	1676.5	generate	Run4	generate/STIM_004.jpg	99
2650.652	1.716	1715.9	generate	Run4	generate/STIM_004.jpg	100
2654.917	1.356	1356.3	generate	Run4	generate/STIM_005.jpg	100
2658.984	1.061	1061.3	generate	Run4	generate/STIM_005.jpg	100
2662.234	1.13	1129.7	generate	Run4	generate/STIM_005.jpg	99
2667.282	1.784	1784.0	generate	Run4	generate/STIM_005.jpg	99
2672.667	1.405	1404.8	generate	Run4	generate/STIM_005.jpg	99
2677.344	1.04	1040.2	generate	Run4	generate/STIM_006.jpg	99
2682.155	1.102	1101.7	generate	Run4	generate/STIM_006.jpg	100
2686.101	1.377	1376.6	generate	Run4	generate/STIM_006.jpg	100
2691.273	1.129	1128.7	generate	Run4	generate/STIM_006.jpg	100
2695.11	1.186	1185.8	generate	Run4	generate/STIM_006.jpg	99
2699.496	1.327	1326.7	generate	Run4	generate/STIM_007.jpg	99
2703.697	1.272	1271.9	generate	Run4	generate/STIM_007.jpg	99
2708.483	1.11	1109.6	generate	Run4	generate/STIM_007.jpg	100
2713.338	1.583	1583.0	generate	Run4	generate/STIM_007.jpg	99
2718.524	1.474	1473.8	generate	Run4	generate/STIM_007.jpg	99
2723.399	1.283	1283.1	generate	Run4	generate/STIM_008.jpg	99
2728.004	1.2	1199.7	generate	Run4	generate/STIM_008.jpg	99
2732.168	1.397	1397.4	generate	Run4	generate/STIM_008.jpg	100
2736.825	1.447	1447.3	generate	Run4	generate/STIM_008.jpg	99
2741.262	1.244	1244.3	generate	Run4	generate/STIM_008.jpg	100
2744.682	1.062	1062.4	generate	Run4	generate/STIM_009.jpg	99
2748.536	1.393	1392.9	generate	Run4	generate/STIM_009.jpg	100
2752.829	1.391	1391.3	generate	Run4	generate/STIM_009.jpg	99
2757.911	1.033	1032.6	generate	Run4	generate/STIM_009.jpg	99
2762.407	1.344	1343.9	generate	Run4	generate/STIM_009.jpg	99
2767.279	1.479	1479.0	generate	Run4	generate/STIM_010.jpg	99
2772.526	1.512	1511.8	generate	Run4	generate/STIM_010.jpg	100
2777.374	1.578	1578.1	generate	Run4	generate/STIM_010.jpg	100
2782.132	1.665	1665.3	generate	Run4	generate/STIM_010.jpg	99
2787.057	0.9	899.9	generate	Run4	generate/STIM_010.jpg	99
2790.919	1.097	1097.4	generate	Run4	generate/STIM_011.jpg	100
2794.512	1.822	1821.5	generate	Run4	generate/STIM_011.jpg	100
2799.021	1.293	1293.3	generate	Run4	generate/STIM_011.jpg	99
2804.072	1.831	1830.7	generate	Run4	generate/STIM_011.jpg	100
2809.282	1.262	1262.2	generate	Run4	generate/STIM_011.jpg	100
2812.793	1.078	1078.5	generate	Run4	generate/STIM_012.jpg	100
2817.267	0.936	936.5	generate	Run4	generate/STIM_012.jpg	100
2821.265	0.802	802.0	generate	Run4	generate/STIM_012.jpg	100
2824.531	1.89	1890.1	generate	Run4	generate/STIM_012.jpg	100
2829.48	1.402	1401.9	generate	Run4	generate/STIM_012.jpg	100
2833.186	0.802	802.5	generate	Run4	generate/STIM_013.jpg	99
2837.919	0.853	853.0	generate	Run4	generate/STIM_013.jpg	99
2841.154	1.074	1074.0	generate	Run4	generate/STIM_013.jpg	99
2844.642	1.613	1613.3	generate	Run4	generate/STIM_013.jpg	100
2848.876	1.969	1969.0	generate	Run4	generate/STIM_013.jpg	99
2853.039	1.664	1663.5	generate	Run4	generate/STIM_014.jpg	99
2857.73	1.691	1690.6	generate	Run4	generate/STIM_014.jpg	99
2863.169	1.173	1172.9	generate	Run4	generate/STIM_014.jpg	99
2867.403	1.688	1687.6	generate	Run4	generate/STIM_014.jpg	100
2872.866	1.268	1267.7	generate	Run4	generate/STIM_014.jpg	100
2877.48	1.165	1164.7	generate	Run4	generate/STIM_015.jpg	99
2882.487	1.985	1984.8	generate	Run4	generate/STIM_015.jpg	99
2887.039	1.046	1046.0	generate	Run4	generate/STIM_015.jpg	100
2890.614	0.935	934.6	generate	Run4	generate/STIM_015.jpg	100
2894.225	0.955	954.8	generate	Run4	generate/STIM_015.jpg	99
2897.535	1.652	1651.7	generate	Run4	generate/STIM_016.jpg	100
2901.377	1.21	1210.0	generate	Run4	generate/STIM_016.jpg	99
2905.106	1.301	1301.4	generate	Run4	generate/STIM_016.jpg	99
2909.135	1.791	1790.8	generate	Run4	generate/STIM_016.jpg	99
2914.07	0.957	957.0	generate	Run4	generate/STIM_016.jpg	99
2918.345	0.956	956.3	generate	Run4	generate/STIM_017.jpg	99
2922.063	1.344	1344.0	generate	Run4	generate/STIM_017.jpg	100
2926.235	0.997	996.6	generate	Run4	generate/STIM_017.jpg	99
2929.805	0.996	996.4	generate	Run4	generate/STIM_017.jpg	99
2933.869	1.412	1412.5	generate	Run4	generate/STIM_017.jpg	100
2937.473	1.631	1631.2	generate	Run4	generate/STIM_018.jpg	100
2941.882	0.8	799.8	generate	Run4	generate/STIM_018.jpg	100
2946.109	1.571	1570.9	generate	Run4	generate/STIM_018.jpg	99
2951.442	1.008	1008.0	generate	Run4	generate/STIM_018.jpg	100
2955.812	1.236	1236.3	generate	Run4	generate/STIM_018.jpg	99
2960.885	1.083	1083.4	generate	Run4	generate/STIM_019.jpg	99
2965.79	1.19	1190.5	generate	Run4	generate/STIM_019.jpg	99
2969.255	1.926	1925.9	generate	Run4	generate/STIM_019.jpg	99
2973.821	1.005	1004.8	generate	Run4	generate/STIM_019.jpg	100
2978.022	1.347	1346.8	generate	Run4	generate/STIM_019.jpg	99
2982.765	1.649	1649.4	generate	Run4	generate/STIM_020.jpg	100
2987.756	1.856	1855.5	generate	Run4	generate/STIM_020.jpg	99
2992.633	1.174	1173.5	generate	Run4	generate/STIM_020.jpg	99
2995.971	1.717	1716.7	generate	Run4	generate/STIM_020.jpg	100
3001.507	1.974	1974.4	generate	Run4	generate/STIM_020.jpg	99
3006.841	0.932	932.0	generate	Run4	generate/STIM_021.jpg	99
3010.356	0.829	828.9	generate	Run4	generate/STIM_021.jpg	100
3014.115	1.21	1209.9	generate	Run4	generate/STIM_021.jpg	100
3017.842	1.214	1214.5	generate	Run4	generate/STIM_021.jpg	100
3022.029	1.772	1771.7	generate	Run4	generate/STIM_021.jpg	100
3025.841	1.138	1138.0	generate	Run4	generate/STIM_022.jpg	100
3030.907	1.784	1784.2	generate	Run4	generate/STIM_022.jpg	100
3035.913	0.88	880.4	generate	Run4	generate/STIM_022.jpg	100
3040.406	1.837	1836.9	generate	Run4	generate/STIM_022.jpg	100
3045.106	0.996	996.4	generate	Run4	generate/STIM_022.jpg	99
3049.428	1.312	1312.5	generate	Run4	generate/STIM_023.jpg	99
3054.739	1.645	1645.0	generate	Run4	generate/STIM_023.jpg	99
3058.815	0.836	835.7	generate	Run4	generate/STIM_023.jpg	100
3062.265	1.253	1252.8	generate	Run4	generate/STIM_023.jpg	100
3065.678	1.152	1151.7	generate	Run4	generate/STIM_023.jpg	99
3070.379	1.372	1372.3	generate	Run4	generate/STIM_024.jpg	99
3075.544	1.857	1857.1	generate	Run4	generate/STIM_024.jpg	99
3080.429	1.261	1261.2	generate	Run4	generate/STIM_024.jpg	100
3084.168	1.726	1725.9	generate	Run4	generate/STIM_024.jpg	99
3089.286	1.462	1461.6	generate	Run4	generate/STIM_024.jpg	99
3093.483	0.666	666.1	repeat	Run4	repeat/STIM_000.jpg	99
3097.342	0.483	482.7	repeat	Run4	repeat/STIM_000.jpg	100
3100.166	0.892	892.5	repeat	Run4	repeat/STIM_000.jpg	100
3104.046	0.826	825.8	repeat	Run4	repeat/STIM_000.jpg	100
3107.899	0.591	590.7	repeat	Run4	repeat/STIM_000.jpg	99
3110.648	0.64	640.5	repeat	Run4	repeat/STIM_001.jpg	99
3113.782	0.889	889.0	repeat	Run4	repeat/STIM_001.jpg	99
3117.74	0.732	732.5	repeat	Run4	repeat/STIM_001.jpg	100
3121.406	0.636	635.7	repeat	Run4	repeat/STIM_001.jpg	100
3124.974	0.796	795.8	repeat	Run4	repeat/STIM_001.jpg	99
3128.322	0.786	785.8	repeat	Run4	repeat/STIM_002.jpg	100
3132.81	0.777	776.8	repeat	Run4	repeat/STIM_002.jpg	100
3137.285	0.682	682.2	repeat	Run4	repeat/STIM_002.jpg	99
3140.895	0.82	820.5	repeat	Run4	repeat/STIM_002.jpg	100
3144.662	0.479	479.3	repeat	Run4	repeat/STIM_002.jpg	99
3147.959	0.61	609.9	repeat	Run4	repeat/STIM_003.jpg	100
3150.595	0.633	632.7	repeat	Run4	repeat/STIM_003.jpg	99
3153.455	0.753	752.6	repeat	Run4	repeat/STIM_003.jpg	99
3157.671	0.784	784.1	repeat	Run4	repeat/STIM_003.jpg	100
3161.511	0.747	747.4	repeat	Run4	repeat/STIM_003.jpg	100
3165.318	0.77	770.3	repeat	Run4	repeat/STIM_004.jpg	100
3168.759	0.504	503.8	repeat	Run4	repeat/STIM_004.jpg	99
3172.403	0.892	892.0	repeat	Run4	repeat/STIM_004.jpg	99
3175.558	0.709	708.9	repeat	Run4	repeat/STIM_004.jpg	100
3178.504	0.911	911.3	repeat	Run4	repeat/STIM_004.jpg	99
3181.858	0.93	929.9	repeat	Run4	repeat/STIM_005.jpg	99
3186.214	0.843	842.8	repeat	Run4	repeat/STIM_005.jpg	99
3189.413	0.716	716.1	repeat	Run4	repeat/STIM_005.jpg	100
3192.858	0.822	822.3	repeat	Run4	repeat/STIM_005.jpg	99
3197.042	0.68	680.2	repeat	Run4	repeat/STIM_005.jpg	99
3201.489	0.883	883.4	repeat	Run4	repeat/STIM_006.jpg	100
3204.878	0.727	727.4	repeat	Run4	repeat/STIM_006.jpg	99
3208.125	0.775	774.7	repeat	Run4	repeat/STIM_006.jpg	99
3211.862	0.871	870.7	repeat	Run4	repeat/STIM_006.jpg	99
3216.128	0.787	787.2	repeat	Run4	repeat/STIM_006.jpg	100
3219.151	0.522	522.3	repeat	Run4	repeat/STIM_007.jpg	99
3223.003	0.494	494.2	repeat	Run4	repeat/STIM_007.jpg	99
3225.607	0.583	583.1	repeat	Run4	repeat/STIM_007.jpg	100
3229.009	0.781	781.4	repeat	Run4	repeat/STIM_007.jpg	100
3232.029	0.728	728.4	repeat	Run4	repeat/STIM_007.jpg	99
3234.888	0.878	877.7	repeat	Run4	repeat/STIM_008.jpg	100
3239.591	0.915	914.8	repeat	Run4	repeat/STIM_008.jpg	99
3244.412	0.782	782.3	repeat	Run4	repeat/STIM_008.jpg	100
3247.973	0.789	788.9	repeat	Run4	repeat/STIM_008.jpg	99
3251.915	0.484	484.2	repeat	Run4	repeat/STIM_008.jpg	99
3255.547	0.601	601.1	repeat	Run4	repeat/STIM_009.jpg	99
3259.073	0.528	527.8	repeat	Run4	repeat/STIM_009.jpg	99
3263.408	0.669	668.6	repeat	Run4	repeat/STIM_009.jpg	100
3267.849	0.639	638.9	repeat	Run4	repeat/STIM_009.jpg	99
3270.964	0.647	646.6	repeat	Run4	repeat/STIM_009.jpg	99
3274.12	0.831	830.8	repeat	Run4	repeat/STIM_010.jpg	99
3278.642	0.609	609.1	repeat	Run4	repeat/STIM_010.jpg	99
3281.716	0.614	614.3	repeat	Run4	repeat/STIM_010.jpg	100
3285.785	0.937	937.4	repeat	Run4	repeat/STIM_010.jpg	99
3290.12	0.57	570.0	repeat	Run4	repeat/STIM_010.jpg	99
3292.823	0.744	743.9	repeat	Run4	repeat/STIM_011.jpg	99
3297.552	0.767	767.0	repeat	Run4	repeat/STIM_011.jpg	99
3301.752	0.72	720.4	repeat	Run4	repeat/STIM_011.jpg	100
3304.738	0.687	687.2	repeat	Run4	repeat/STIM_011.jpg	100
3309.27	0.483	483.3	repeat	Run4	repeat/STIM_011.jpg	100
3311.997	0.852	852.3	repeat	Run4	repeat/STIM_012.jpg	99
3316.603	0.853	853.3	repeat	Run4	repeat/STIM_012.jpg	100
3320.599	0.742	741.6	repeat	Run4	repeat/STIM_012.jpg	99
3324.157	0.486	486.0	repeat	Run4	repeat/STIM_012.jpg	100
3328.604	0.773	772.6	repeat	Run4	repeat/STIM_012.jpg	100
3331.776	0.918	917.7	repeat	Run4	repeat/STIM_013.jpg	99
3334.729	0.493	492.7	repeat	Run4	repeat/STIM_013.jpg	99
3338.765	0.672	672.5	repeat	Run4	repeat/STIM_013.jpg	99
3341.486	0.926	926.1	repeat	Run4	repeat/STIM_013.jpg	100
3344.702	0.886	885.6	repeat	Run4	repeat/STIM_013.jpg	100
3347.941	0.904	903.9	repeat	Run4	repeat/STIM_014.jpg	99
3352.325	0.604	603.8	repeat	Run4	repeat/STIM_014.jpg	99
3355.411	0.593	592.9	repeat	Run4	repeat/STIM_014.jpg	100
3359.528	0.814	814.3	repeat	Run4	repeat/STIM_014.jpg	100
3363.689	0.794	793.7	repeat	Run4	repeat/STIM_014.jpg	100
