onset	duration	accuracy_binary	trial_type	learning_stage	stimulus
0.0	1.617	0	generate	Run1	generate/STIM_000.jpg
3.806	2.67	1	generate	Run1	generate/STIM_000.jpg
9.553	2.341	1	generate	Run1	generate/STIM_000.jpg
14.501	2.095	1	generate	Run1	generate/STIM_000.jpg
18.85	1.235	1	generate	Run1	generate/STIM_000.jpg
23.863	1.744	1	generate	Run1	generate/STIM_001.jpg
27.918	1.812	0	generate	Run1	generate/STIM_001.jpg
32.895	1.521	1	generate	Run1	generate/STIM_001.jpg
36.975	1.637	1	generate	Run1	generate/STIM_001.jpg
41.168	1.995	1	generate	Run1	generate/STIM_001.jpg
46.075	1.587	0	generate	Run1	generate/STIM_002.jpg
50.025	1.259	1	generate	Run1	generate/STIM_002.jpg
53.29	2.185	1	generate	Run1	generate/STIM_002.jpg
58.505	1.979	1	generate	Run1	generate/STIM_002.jpg
62.961	1.442	1	generate	Run1	generate/STIM_002.jpg
67.168	2.794	1	generate	Run1	generate/STIM_003.jpg
73.243	1.086	1	generate	Run1	generate/STIM_003.jpg
77.404	2.275	1	generate	Run1	generate/STIM_003.jpg
83.663	1.285	1	generate	Run1	generate/STIM_003.jpg
88.833	1.057	1	generate	Run1	generate/STIM_003.jpg
92.513	2.806	1	generate	Run1	generate/STIM_004.jpg
97.917	1.163	1	generate	Run1	generate/STIM_004.jpg
102.918	2.03	1	generate	Run1	generate/STIM_004.jpg
107.274	1.105	1	generate	Run1	generate/STIM_004.jpg
111.001	1.404	1	generate	Run1	generate/STIM_004.jpg
115.32	1.907	0	generate	Run1	generate/STIM_005.jpg
119.902	2.334	1	generate	Run1	generate/STIM_005.jpg
125.208	1.62	1	generate	Run1	generate/STIM_005.jpg
129.097	1.021	1	generate	Run1	generate/STIM_005.jpg
133.184	1.542	1	generate	Run1	generate/STIM_005.jpg
138.593	2.7	1	generate	Run1	generate/STIM_006.jpg
143.78	1.973	1	generate	Run1	generate/STIM_006.jpg
147.915	2.457	1	generate	Run1	generate/STIM_006.jpg
152.696	2.19	0	generate	Run1	generate/STIM_006.jpg
158.782	2.008	1	generate	Run1	generate/STIM_006.jpg
163.185	2.214	1	generate	Run1	generate/STIM_007.jpg
168.13	1.238	1	generate	Run1	generate/STIM_007.jpg
171.678	1.823	1	generate	Run1	generate/STIM_007.jpg
175.838	1.889	1	generate	Run1	generate/STIM_007.jpg
179.822	1.832	0	generate	Run1	generate/STIM_007.jpg
183.683	1.957	1	generate	Run1	generate/STIM_008.jpg
189.221	1.998	1	generate	Run1	generate/STIM_008.jpg
194.566	2.195	1	generate	Run1	generate/STIM_008.jpg
199.379	1.243	0	generate	Run1	generate/STIM_008.jpg
203.929	1.178	1	generate	Run1	generate/STIM_008.jpg
208.748	1.673	1	generate	Run1	generate/STIM_009.jpg
214.266	2.323	1	generate	Run1	generate/STIM_009.jpg
219.869	2.063	1	generate	Run1	generate/STIM_009.jpg
224.645	1.253	1	generate	Run1	generate/STIM_009.jpg
229.496	1.141	1	generate	Run1	generate/STIM_009.jpg
234.625	2.621	0	generate	Run1	generate/STIM_010.jpg
240.373	2.198	1	generate	Run1	generate/STIM_010.jpg
245.844	2.27	1	generate	Run1	generate/STIM_010.jpg
251.225	1.441	1	generate	Run1	generate/STIM_010.jpg
255.381	1.713	1	generate	Run1	generate/STIM_010.jpg
259.16	1.204	1	generate	Run1	generate/STIM_011.jpg
263.734	2.413	0	generate	Run1	generate/STIM_011.jpg
268.204	1.39	0	generate	Run1	generate/STIM_011.jpg
273.231	2.102	1	generate	Run1	generate/STIM_011.jpg
278.772	1.52	1	generate	Run1	generate/STIM_011.jpg
283.516	1.694	0	generate	Run1	generate/STIM_012.jpg
288.474	2.188	0	generate	Run1	generate/STIM_012.jpg
293.378	2.064	1	generate	Run1	generate/STIM_012.jpg
297.645	1.16	1	generate	Run1	generate/STIM_012.jpg
302.513	1.17	1	generate	Run1	generate/STIM_012.jpg
307.35	2.428	1	generate	Run1	generate/STIM_013.jpg
313.643	1.967	1	generate	Run1	generate/STIM_013.jpg
318.531	2.49	0	generate	Run1	generate/STIM_013.jpg
324.502	1.717	1	generate	Run1	generate/STIM_013.jpg
329.804	1.888	1	generate	Run1	generate/STIM_013.jpg
335.292	2.558	0	generate	Run1	generate/STIM_014.jpg
340.284	1.222	0	generate	Run1	generate/STIM_014.jpg
344.228	1.964	0	generate	Run1	generate/STIM_014.jpg
348.901	1.465	1	generate	Run1	generate/STIM_014.jpg
353.127	0.94	1	generate	Run1	generate/STIM_014.jpg
356.404	2.33	1	generate	Run1	generate/STIM_015.jpg
361.004	1.497	0	generate	Run1	generate/STIM_015.jpg
364.991	1.027	0	generate	Run1	generate/STIM_015.jpg
369.828	0.971	1	generate	Run1	generate/STIM_015.jpg
373.751	1.756	1	generate	Run1	generate/STIM_015.jpg
378.198	1.807	1	generate	Run1	generate/STIM_016.jpg
382.556	1.503	1	generate	Run1	generate/STIM_016.jpg
386.332	1.621	1	generate	Run1	generate/STIM_016.jpg
390.076	2.243	1	generate	Run1	generate/STIM_016.jpg
395.749	1.532	1	generate	Run1	generate/STIM_016.jpg
400.444	2.398	0	generate	Run1	generate/STIM_017.jpg
405.648	2.482	1	generate	Run1	generate/STIM_017.jpg
410.703	1.569	1	generate	Run1	generate/STIM_017.jpg
415.05	1.711	0	generate	Run1	generate/STIM_017.jpg
420.25	1.684	1	generate	Run1	generate/STIM_017.jpg
425.747	1.544	1	generate	Run1	generate/STIM_018.jpg
430.871	2.449	1	generate	Run1	generate/STIM_018.jpg
437.271	1.497	1	generate	Run1	generate/STIM_018.jpg
442.492	2.216	1	generate	Run1	generate/STIM_018.jpg
447.677	1.478	1	generate	Run1	generate/STIM_018.jpg
452.593	2.836	1	generate	Run1	generate/STIM_019.jpg
457.955	1.711	1	generate	Run1	generate/STIM_019.jpg
462.807	1.588	0	generate	Run1	generate/STIM_019.jpg
467.742	1.246	1	generate	Run1	generate/STIM_019.jpg
471.45	1.968	1	generate	Run1	generate/STIM_019.jpg
476.062	2.162	1	generate	Run1	generate/STIM_020.jpg
481.359	1.202	0	generate	Run1	generate/STIM_020.jpg
486.358	1.094	1	generate	Run1	generate/STIM_020.jpg
490.654	1.567	1	generate	Run1	generate/STIM_020.jpg
494.988	0.978	1	generate	Run1	generate/STIM_020.jpg
498.74	2.356	1	generate	Run1	generate/STIM_021.jpg
504.33	1.792	0	generate	Run1	generate/STIM_021.jpg
508.699	1.298	1	generate	Run1	generate/STIM_021.jpg
513.946	1.569	1	generate	Run1	generate/STIM_021.jpg
517.703	1.576	1	generate	Run1	generate/STIM_021.jpg
521.334	2.719	0	generate	Run1	generate/STIM_022.jpg
527.444	2.447	0	generate	Run1	generate/STIM_022.jpg
532.768	1.123	1	generate	Run1	generate/STIM_022.jpg
536.15	1.044	1	generate	Run1	generate/STIM_022.jpg
540.616	1.153	1	generate	Run1	generate/STIM_022.jpg
545.152	2.044	0	generate	Run1	generate/STIM_023.jpg
549.843	1.574	1	generate	Run1	generate/STIM_023.jpg
554.404	1.3	1	generate	Run1	generate/STIM_023.jpg
559.506	2.119	1	generate	Run1	generate/STIM_023.jpg
565.371	2.116	1	generate	Run1	generate/STIM_023.jpg
570.93	2.162	1	generate	Run1	generate/STIM_024.jpg
576.072	2.594	1	generate	Run1	generate/STIM_024.jpg
582.355	1.374	1	generate	Run1	generate/STIM_024.jpg
586.799	1.106	1	generate	Run1	generate/STIM_024.jpg
590.126	1.146	0	generate	Run1	generate/STIM_024.jpg
594.811	0.889	1	repeat	Run1	repeat/STIM_000.jpg
597.874	0.802	1	repeat	Run1	repeat/STIM_000.jpg
601.701	0.773	1	repeat	Run1	repeat/STIM_000.jpg
605.047	0.523	1	repeat	Run1	repeat/STIM_000.jpg
609.411	0.522	1	repeat	Run1	repeat/STIM_000.jpg
613.132	0.71	1	repeat	Run1	repeat/STIM_001.jpg
617.699	0.799	1	repeat	Run1	repeat/STIM_001.jpg
620.91	0.585	1	repeat	Run1	repeat/STIM_001.jpg
625.258	0.788	1	repeat	Run1	repeat/STIM_001.jpg
629.862	0.81	1	repeat	Run1	repeat/STIM_001.jpg
633.744	0.576	1	repeat	Run1	repeat/STIM_002.jpg
637.533	0.734	1	repeat	Run1	repeat/STIM_002.jpg
640.624	0.758	1	repeat	Run1	repeat/STIM_002.jpg
644.405	0.697	1	repeat	Run1	repeat/STIM_002.jpg
648.05	0.59	1	repeat	Run1	repeat/STIM_002.jpg
651.77	0.66	1	repeat	Run1	repeat/STIM_003.jpg
656.374	0.912	1	repeat	Run1	repeat/STIM_003.jpg
659.628	0.937	1	repeat	Run1	repeat/STIM_003.jpg
662.668	0.904	1	repeat	Run1	repeat/STIM_003.jpg
666.087	0.881	1	repeat	Run1	repeat/STIM_003.jpg
670.481	0.597	1	repeat	Run1	repeat/STIM_004.jpg
674.535	0.754	1	repeat	Run1	repeat/STIM_004.jpg
679.242	0.635	1	repeat	Run1	repeat/STIM_004.jpg
682.024	0.888	1	repeat	Run1	repeat/STIM_004.jpg
686.718	0.511	1	repeat	Run1	repeat/STIM_004.jpg
691.049	0.741	0	repeat	Run1	repeat/STIM_005.jpg
693.884	0.757	1	repeat	Run1	repeat/STIM_005.jpg
697.243	0.618	1	repeat	Run1	repeat/STIM_005.jpg
701.755	0.727	1	repeat	Run1	repeat/STIM_005.jpg
705.815	0.841	1	repeat	Run1	repeat/STIM_005.jpg
709.39	0.488	1	repeat	Run1	repeat/STIM_006.jpg
712.458	0.88	1	repeat	Run1	repeat/STIM_006.jpg
716.196	0.566	1	repeat	Run1	repeat/STIM_006.jpg
719.928	0.527	1	repeat	Run1	repeat/STIM_006.jpg
724.258	0.852	1	repeat	Run1	repeat/STIM_006.jpg
728.076	0.794	1	repeat	Run1	repeat/STIM_007.jpg
731.096	0.683	1	repeat	Run1	repeat/STIM_007.jpg
735.193	0.694	0	repeat	Run1	repeat/STIM_007.jpg
738.589	0.766	1	repeat	Run1	repeat/STIM_007.jpg
741.399	0.584	1	repeat	Run1	repeat/STIM_007.jpg
745.552	0.687	1	repeat	Run1	repeat/STIM_008.jpg
750.214	0.854	1	repeat	Run1	repeat/STIM_008.jpg
753.734	0.793	1	repeat	Run1	repeat/STIM_008.jpg
757.526	0.769	1	repeat	Run1	repeat/STIM_008.jpg
761.375	0.733	1	repeat	Run1	repeat/STIM_008.jpg
765.785	0.865	1	repeat	Run1	repeat/STIM_009.jpg
770.603	0.846	1	repeat	Run1	repeat/STIM_009.jpg
773.918	0.692	1	repeat	Run1	repeat/STIM_009.jpg
777.512	0.706	1	repeat	Run1	repeat/STIM_009.jpg
782.17	0.822	1	repeat	Run1	repeat/STIM_009.jpg
785.833	0.632	1	repeat	Run1	repeat/STIM_010.jpg
789.567	0.619	1	repeat	Run1	repeat/STIM_010.jpg
793.484	0.78	1	repeat	Run1	repeat/STIM_010.jpg
797.4	0.792	1	repeat	Run1	repeat/STIM_010.jpg
801.301	0.78	1	repeat	Run1	repeat/STIM_010.jpg
804.592	0.75	1	repeat	Run1	repeat/STIM_011.jpg
807.866	0.694	1	repeat	Run1	repeat/STIM_011.jpg
811.537	0.886	1	repeat	Run1	repeat/STIM_011.jpg
815.193	0.813	1	repeat	Run1	repeat/STIM_011.jpg
819.133	0.754	1	repeat	Run1	repeat/STIM_011.jpg
823.594	0.481	1	repeat	Run1	repeat/STIM_012.jpg
827.728	0.79	1	repeat	Run1	repeat/STIM_012.jpg
831.544	0.61	1	repeat	Run1	repeat/STIM_012.jpg
835.562	0.633	1	repeat	Run1	repeat/STIM_012.jpg
838.327	0.531	1	repeat	Run1	repeat/STIM_012.jpg
842.84	0.944	1	repeat	Run1	repeat/STIM_013.jpg
847.313	0.906	0	repeat	Run1	repeat/STIM_013.jpg
850.916	0.939	1	repeat	Run1	repeat/STIM_013.jpg
854.637	0.487	1	repeat	Run1	repeat/STIM_013.jpg
858.684	0.89	1	repeat	Run1	repeat/STIM_013.jpg
861.708	0.819	1	repeat	Run1	repeat/STIM_014.jpg
864.697	0.7	1	repeat	Run1	repeat/STIM_014.jpg
868.996	0.936	1	repeat	Run1	repeat/STIM_014.jpg
872.909	0.498	1	repeat	Run1	repeat/STIM_014.jpg
876.28	0.7	0	repeat	Run1	repeat/STIM_014.jpg
880.345	2.394	1	generate	Run2	generate/STIM_000.jpg
885.919	2.027	1	generate	Run2	generate/STIM_000.jpg
889.976	2.094	1	generate	Run2	generate/STIM_000.jpg
895.772	1.731	1	generate	Run2	generate/STIM_000.jpg
901.254	1.023	1	generate	Run2	generate/STIM_000.jpg
904.891	1.161	0	generate	Run2	generate/STIM_001.jpg
908.421	1.185	1	generate	Run2	generate/STIM_001.jpg
912.247	2.057	1	generate	Run2	generate/STIM_001.jpg
917.975	1.593	0	generate	Run2	generate/STIM_001.jpg
923.41	1.221	0	generate	Run2	generate/STIM_001.jpg
928.418	1.408	1	generate	Run2	generate/STIM_002.jpg
932.298	2.186	0	generate	Run2	generate/STIM_002.jpg
937.997	1.758	1	generate	Run2	generate/STIM_002.jpg
941.958	1.905	0	generate	Run2	generate/STIM_002.jpg
947.437	1.818	1	generate	Run2	generate/STIM_002.jpg
953.179	2.362	1	generate	Run2	generate/STIM_003.jpg
958.822	1.989	1	generate	Run2	generate/STIM_003.jpg
962.87	1.333	1	generate	Run2	generate/STIM_003.jpg
966.604	1.84	1	generate	Run2	generate/STIM_003.jpg
972.034	1.407	1	generate	Run2	generate/STIM_003.jpg
975.517	1.124	1	generate	Run2	generate/STIM_004.jpg
978.893	2.133	1	generate	Run2	generate/STIM_004.jpg
983.283	0.88	1	generate	Run2	generate/STIM_004.jpg
987.443	1.185	1	generate	Run2	generate/STIM_004.jpg
991.644	1.659	1	generate	Run2	generate/STIM_004.jpg
996.611	1.677	1	generate	Run2	generate/STIM_005.jpg
1001.715	1.742	0	generate	Run2	generate/STIM_005.jpg
1006.721	1.619	1	generate	Run2	generate/STIM_005.jpg
1011.123	1.592	1	generate	Run2	generate/STIM_005.jpg
1016.514	1.514	1	generate	Run2	generate/STIM_005.jpg
1020.183	1.794	1	generate	Run2	generate/STIM_006.jpg
1024.784	1.116	1	generate	Run2	generate/STIM_006.jpg
1028.079	1.171	1	generate	Run2	generate/STIM_006.jpg
1032.939	1.255	1	generate	Run2	generate/STIM_006.jpg
1036.46	1.092	0	generate	Run2	generate/STIM_006.jpg
1041.182	2.383	1	generate	Run2	generate/STIM_007.jpg
1046.446	0.948	1	generate	Run2	generate/STIM_007.jpg
1050.265	1.913	1	generate	Run2	generate/STIM_007.jpg
1054.585	1.51	1	generate	Run2	generate/STIM_007.jpg
1059.34	0.849	0	generate	Run2	generate/STIM_007.jpg
1062.529	2.329	1	generate	Run2	generate/STIM_008.jpg
1067.411	1.688	1	generate	Run2	generate/STIM_008.jpg
1072.707	0.862	1	generate	Run2	generate/STIM_008.jpg
1076.175	1.268	1	generate	Run2	generate/STIM_008.jpg
1080.926	1.833	1	generate	Run2	generate/STIM_008.jpg
1086.678	1.369	1	generate	Run2	generate/STIM_009.jpg
1090.33	1.372	1	generate	Run2	generate/STIM_009.jpg
1095.43	1.825	1	generate	Run2	generate/STIM_009.jpg
1099.894	1.983	1	generate	Run2	generate/STIM_009.jpg
1103.935	0.932	1	generate	Run2	generate/STIM_009.jpg
1108.454	1.513	1	generate	Run2	generate/STIM_010.jpg
1111.974	1.136	1	generate	Run2	generate/STIM_010.jpg
1115.816	1.386	1	generate	Run2	generate/STIM_010.jpg
1121.09	1.088	1	generate	Run2	generate/STIM_010.jpg
1124.998	0.996	1	generate	Run2	generate/STIM_010.jpg
1128.701	1.764	1	generate	Run2	generate/STIM_011.jpg
1133.938	1.641	0	generate	Run2	generate/STIM_011.jpg
1137.886	0.985	1	generate	Run2	generate/STIM_011.jpg
1141.696	1.766	1	generate	Run2	generate/STIM_011.jpg
1145.994	1.926	1	generate	Run2	generate/STIM_011.jpg
1151.889	1.725	0	generate	Run2	generate/STIM_012.jpg
1156.349	1.785	1	generate	Run2	generate/STIM_012.jpg
1161.526	1.909	1	generate	Run2	generate/STIM_012.jpg
1165.645	1.867	1	generate	Run2	generate/STIM_012.jpg
1170.082	1.888	1	generate	Run2	generate/STIM_012.jpg
1174.184	1.859	1	generate	Run2	generate/STIM_013.jpg
1178.525	1.566	0	generate	Run2	generate/STIM_013.jpg
1182.444	1.189	1	generate	Run2	generate/STIM_013.jpg
1186.187	1.335	1	generate	Run2	generate/STIM_013.jpg
1191.171	1.076	1	generate	Run2	generate/STIM_013.jpg
1194.828	1.375	1	generate	Run2	generate/STIM_014.jpg
1200.084	0.942	1	generate	Run2	generate/STIM_014.jpg
1203.744	1.093	1	generate	Run2	generate/STIM_014.jpg
1207.407	1.813	1	generate	Run2	generate/STIM_014.jpg
1211.894	1.945	1	generate	Run2	generate/STIM_014.jpg
1216.292	1.651	0	generate	Run2	generate/STIM_015.jpg
1220.962	1.593	0	generate	Run2	generate/STIM_015.jpg
1225.404	1.744	1	generate	Run2	generate/STIM_015.jpg
1230.742	1.529	1	generate	Run2	generate/STIM_015.jpg
1235.325	1.471	1	generate	Run2	generate/STIM_015.jpg
1240.511	1.274	1	generate	Run2	generate/STIM_016.jpg
1244.741	2.078	1	generate	Run2	generate/STIM_016.jpg
1249.189	1.723	1	generate	Run2	generate/STIM_016.jpg
1253.244	1.094	1	generate	Run2	generate/STIM_016.jpg
1257.611	1.927	1	generate	Run2	generate/STIM_016.jpg
1263.003	1.122	1	generate	Run2	generate/STIM_017.jpg
1267.969	1.408	1	generate	Run2	generate/STIM_017.jpg
1273.284	2.044	1	generate	Run2	generate/STIM_017.jpg
1278.241	1.066	1	generate	Run2	generate/STIM_017.jpg
1281.344	0.978	1	generate	Run2	generate/STIM_017.jpg
1285.226	1.573	1	generate	Run2	generate/STIM_018.jpg
1290.216	1.973	0	generate	Run2	generate/STIM_018.jpg
1295.413	1.177	1	generate	Run2	generate/STIM_018.jpg
1299.894	1.556	1	generate	Run2	generate/STIM_018.jpg
1305.372	1.359	1	generate	Run2	generate/STIM_018.jpg
1310.195	1.251	1	generate	Run2	generate/STIM_019.jpg
1314.329	1.838	1	generate	Run2	generate/STIM_019.jpg
1319.514	1.262	0	generate	Run2	generate/STIM_019.jpg
1323.607	1.369	1	generate	Run2	generate/STIM_019.jpg
1328.614	0.872	1	generate	Run2	generate/STIM_019.jpg
1332.593	2.3	1	generate	Run2	generate/STIM_020.jpg
1338.01	1.933	1	generate	Run2	generate/STIM_020.jpg
1342.905	1.063	0	generate	Run2	generate/STIM_020.jpg
1346.06	1.628	1	generate	Run2	generate/STIM_020.jpg
1351.664	1.633	1	generate	Run2	generate/STIM_020.jpg
1355.326	2.027	1	generate	Run2	generate/STIM_021.jpg
1359.76	1.123	1	generate	Run2	generate/STIM_021.jpg
1364.726	1.74	1	generate	Run2	generate/STIM_021.jpg
1368.581	0.935	1	generate	Run2	generate/STIM_021.jpg
1372.404	1.933	1	generate	Run2	generate/STIM_021.jpg
1377.089	2.072	0	generate	Run2	generate/STIM_022.jpg
1382.896	1.216	1	generate	Run2	generate/STIM_022.jpg
1386.663	2.071	1	generate	Run2	generate/STIM_022.jpg
1391.716	0.803	1	generate	Run2	generate/STIM_022.jpg
1394.95	1.304	1	generate	Run2	generate/STIM_022.jpg
1399.649	1.703	1	generate	Run2	generate/STIM_023.jpg
1404.929	1.214	0	generate	Run2	generate/STIM_023.jpg
1409.059	1.883	0	generate	Run2	generate/STIM_023.jpg
1414.759	0.869	1	generate	Run2	generate/STIM_023.jpg
1417.863	1.677	1	generate	Run2	generate/STIM_023.jpg
1422.926	1.545	1	generate	Run2	generate/STIM_024.jpg
1427.532	1.502	1	generate	Run2	generate/STIM_024.jpg
1431.823	1.456	1	generate	Run2	generate/STIM_024.jpg
1436.207	1.854	0	generate	Run2	generate/STIM_024.jpg
1440.789	1.892	1	generate	Run2	generate/STIM_024.jpg
1446.051	0.658	1	repeat	Run2	repeat/STIM_000.jpg
1449.127	0.526	1	repeat	Run2	repeat/STIM_000.jpg
1452.632	0.836	1	repeat	Run2	repeat/STIM_000.jpg
1455.641	0.92	1	repeat	Run2	repeat/STIM_000.jpg
1459.413	0.53	1	repeat	Run2	repeat/STIM_000.jpg
1462.369	0.528	1	repeat	Run2	repeat/STIM_001.jpg
1466.875	0.721	1	repeat	Run2	repeat/STIM_001.jpg
1471.283	0.862	1	repeat	Run2	repeat/STIM_001.jpg
1474.707	0.796	1	repeat	Run2	repeat/STIM_001.jpg
1479.132	0.67	1	repeat	Run2	repeat/STIM_001.jpg
1481.855	0.478	1	repeat	Run2	repeat/STIM_002.jpg
1484.657	0.845	1	repeat	Run2	repeat/STIM_002.jpg
1488.538	0.793	1	repeat	Run2	repeat/STIM_002.jpg
1492.546	0.933	1	repeat	Run2	repeat/STIM_002.jpg
1496.314	0.8	1	repeat	Run2	repeat/STIM_002.jpg
1499.319	0.633	0	repeat	Run2	repeat/STIM_003.jpg
1503.676	0.507	1	repeat	Run2	repeat/STIM_003.jpg
1507.123	0.565	1	repeat	Run2	repeat/STIM_003.jpg
1511.657	0.549	1	repeat	Run2	repeat/STIM_003.jpg
1514.745	0.506	1	repeat	Run2	repeat/STIM_003.jpg
1518.434	0.73	1	repeat	Run2	repeat/STIM_004.jpg
1522.816	0.818	1	repeat	Run2	repeat/STIM_004.jpg
1526.927	0.587	1	repeat	Run2	repeat/STIM_004.jpg
1529.63	0.667	1	repeat	Run2	repeat/STIM_004.jpg
1532.865	0.831	1	repeat	Run2	repeat/STIM_004.jpg
1535.95	0.594	1	repeat	Run2	repeat/STIM_005.jpg
1539.724	0.826	1	repeat	Run2	repeat/STIM_005.jpg
1543.325	0.605	1	repeat	Run2	repeat/STIM_005.jpg
1547.668	0.91	1	repeat	Run2	repeat/STIM_005.jpg
1551.549	0.939	1	repeat	Run2	repeat/STIM_005.jpg
1555.081	0.946	1	repeat	Run2	repeat/STIM_006.jpg
1558.48	0.79	1	repeat	Run2	repeat/STIM_006.jpg
1562.673	0.678	1	repeat	Run2	repeat/STIM_006.jpg
1567.322	0.722	1	repeat	Run2	repeat/STIM_006.jpg
1570.784	0.923	1	repeat	Run2	repeat/STIM_006.jpg
1574.003	0.889	1	repeat	Run2	repeat/STIM_007.jpg
1577.092	0.621	1	repeat	Run2	repeat/STIM_007.jpg
1579.715	0.517	1	repeat	Run2	repeat/STIM_007.jpg
1582.589	0.621	1	repeat	Run2	repeat/STIM_007.jpg
1586.459	0.508	1	repeat	Run2	repeat/STIM_007.jpg
1589.461	0.848	1	repeat	Run2	repeat/STIM_008.jpg
1592.886	0.626	0	repeat	Run2	repeat/STIM_008.jpg
1596.472	0.814	1	repeat	Run2	repeat/STIM_008.jpg
1600.2	0.714	1	repeat	Run2	repeat/STIM_008.jpg
1602.915	0.913	1	repeat	Run2	repeat/STIM_008.jpg
1606.205	0.82	1	repeat	Run2	repeat/STIM_009.jpg
1610.73	0.696	1	repeat	Run2	repeat/STIM_009.jpg
1614.87	0.645	1	repeat	Run2	repeat/STIM_009.jpg
1617.58	0.897	1	repeat	Run2	repeat/STIM_009.jpg
1621.943	0.589	1	repeat	Run2	repeat/STIM_009.jpg
1626.313	0.774	1	repeat	Run2	repeat/STIM_010.jpg
1630.812	0.581	1	repeat	Run2	repeat/STIM_010.jpg
1633.664	0.895	1	repeat	Run2	repeat/STIM_010.jpg
1637.639	0.728	1	repeat	Run2	repeat/STIM_010.jpg
1641.601	0.878	1	repeat	Run2	repeat/STIM_010.jpg
1644.591	0.497	1	repeat	Run2	repeat/STIM_011.jpg
1648.703	0.796	1	repeat	Run2	repeat/STIM_011.jpg
1651.85	0.669	1	repeat	Run2	repeat/STIM_011.jpg
1655.369	0.787	1	repeat	Run2	repeat/STIM_011.jpg
1658.927	0.78	1	repeat	Run2	repeat/STIM_011.jpg
1662.618	0.697	1	repeat	Run2	repeat/STIM_012.jpg
1667.058	0.914	1	repeat	Run2	repeat/STIM_012.jpg
1671.891	0.5	1	repeat	Run2	repeat/STIM_012.jpg
1674.437	0.619	1	repeat	Run2	repeat/STIM_012.jpg
1677.63	0.932	1	repeat	Run2	repeat/STIM_012.jpg
1681.706	0.882	0	repeat	Run2	repeat/STIM_013.jpg
1684.717	0.512	1	repeat	Run2	repeat/STIM_013.jpg
1689.057	0.542	1	repeat	Run2	repeat/STIM_013.jpg
1692.025	0.522	1	repeat	Run2	repeat/STIM_013.jpg
1694.872	0.511	1	repeat	Run2	repeat/STIM_013.jpg
1698.838	0.667	1	repeat	Run2	repeat/STIM_014.jpg
1702.373	0.861	1	repeat	Run2	repeat/STIM_014.jpg
1705.272	0.57	1	repeat	Run2	repeat/STIM_014.jpg
1709.653	0.797	1	repeat	Run2	repeat/STIM_014.jpg
1712.488	0.75	1	repeat	Run2	repeat/STIM_014.jpg
1715.401	1.943	1	generate	Run3	generate/STIM_000.jpg
1720.265	1.056	0	generate	Run3	generate/STIM_000.jpg
1724.27	1.512	1	generate	Run3	generate/STIM_000.jpg
1728.642	1.402	1	generate	Run3	generate/STIM_000.jpg
1732.505	1.556	1	generate	Run3	generate/STIM_000.jpg
1736.737	1.194	1	generate	Run3	generate/STIM_001.jpg
1741.568	1.37	1	generate	Run3	generate/STIM_001.jpg
1745.788	1.281	0	generate	Run3	generate/STIM_001.jpg
1750.997	1.414	1	generate	Run3	generate/STIM_001.jpg
1755.127	1.857	1	generate	Run3	generate/STIM_001.jpg
1759.829	1.957	1	generate	Run3	generate/STIM_002.jpg
1764.58	1.769	1	generate	Run3	generate/STIM_002.jpg
1770.344	1.466	1	generate	Run3	generate/STIM_002.jpg
1774.243	1.22	1	generate	Run3	generate/STIM_002.jpg
1778.375	0.954	1	generate	Run3	generate/STIM_002.jpg
1782.891	1.159	1	generate	Run3	generate/STIM_003.jpg
1787.494	0.818	1	generate	Run3	generate/STIM_003.jpg
1792.032	1.961	1	generate	Run3	generate/STIM_003.jpg
1797.706	0.979	1	generate	Run3	generate/STIM_003.jpg
1802.658	1.492	1	generate	Run3	generate/STIM_003.jpg
1807.377	1.009	1	generate	Run3	generate/STIM_004.jpg
1812.323	1.245	1	generate	Run3	generate/STIM_004.jpg
1817.117	0.857	1	generate	Run3	generate/STIM_004.jpg
1820.71	1.818	1	generate	Run3	generate/STIM_004.jpg
1825.712	1.858	1	generate	Run3	generate/STIM_004.jpg
1831.384	1.482	1	generate	Run3	generate/STIM_005.jpg
1835.741	1.122	1	generate	Run3	generate/STIM_005.jpg
1838.966	1.511	1	generate	Run3	generate/STIM_005.jpg
1844.248	1.267	1	generate	Run3	generate/STIM_005.jpg
1848.388	1.571	1	generate	Run3	generate/STIM_005.jpg
1852.591	1.672	1	generate	Run3	generate/STIM_006.jpg
1857.076	1.965	1	generate	Run3	generate/STIM_006.jpg
1861.899	1.649	1	generate	Run3	generate/STIM_006.jpg
1867.421	1.238	1	generate	Run3	generate/STIM_006.jpg
1871.623	1.336	0	generate	Run3	generate/STIM_006.jpg
1876.047	0.844	1	generate	Run3	generate/STIM_007.jpg
1880.146	0.996	1	generate	Run3	generate/STIM_007.jpg
1883.871	1.284	1	generate	Run3	generate/STIM_007.jpg
1888.51	1.864	1	generate	Run3	generate/STIM_007.jpg
1893.358	1.543	1	generate	Run3	generate/STIM_007.jpg
1897.004	1.509	1	generate	Run3	generate/STIM_008.jpg
1900.992	1.989	1	generate	Run3	generate/STIM_008.jpg
1905.016	1.559	0	generate	Run3	generate/STIM_008.jpg
1909.417	1.969	1	generate	Run3	generate/STIM_008.jpg
1914.682	1.11	1	generate	Run3	generate/STIM_008.jpg
1919.325	0.819	0	generate	Run3	generate/STIM_009.jpg
1922.853	1.966	1	generate	Run3	generate/STIM_009.jpg
1927.311	1.009	1	generate	Run3	generate/STIM_009.jpg
1931.273	1.669	1	generate	Run3	generate/STIM_009.jpg
1936.257	0.886	1	generate	Run3	generate/STIM_009.jpg
1939.986	1.547	0	generate	Run3	generate/STIM_010.jpg
1943.624	1.523	1	generate	Run3	generate/STIM_010.jpg
1948.24	1.917	1	generate	Run3	generate/STIM_010.jpg
1953.455	1.579	1	generate	Run3	generate/STIM_010.jpg
1958.02	1.222	1	generate	Run3	generate/STIM_010.jpg
1962.379	1.622	1	generate	Run3	generate/STIM_011.jpg
1966.172	1.504	1	generate	Run3	generate/STIM_011.jpg
1970.826	0.812	1	generate	Run3	generate/STIM_011.jpg
1974.188	1.732	1	generate	Run3	generate/STIM_011.jpg
1979.095	1.077	1	generate	Run3	generate/STIM_011.jpg
1983.488	1.706	1	generate	Run3	generate/STIM_012.jpg
1988.022	1.201	1	generate	Run3	generate/STIM_012.jpg
1991.71	1.716	1	generate	Run3	generate/STIM_012.jpg
1997.107	0.853	1	generate	Run3	generate/STIM_012.jpg
2001.653	0.986	1	generate	Run3	generate/STIM_012.jpg
2006.15	1.014	1	generate	Run3	generate/STIM_013.jpg
2010.311	1.498	1	generate	Run3	generate/STIM_013.jpg
2015.067	1.778	0	generate	Run3	generate/STIM_013.jpg
2019.26	1.77	1	generate	Run3	generate/STIM_013.jpg
2023.187	1.12	0	generate	Run3	generate/STIM_013.jpg
2027.38	1.525	1	generate	Run3	generate/STIM_014.jpg
2031.288	1.168	1	generate	Run3	generate/STIM_014.jpg
2036.227	1.665	1	generate	Run3	generate/STIM_014.jpg
2039.983	1.4	0	generate	Run3	generate/STIM_014.jpg
2044.689	1.14	0	generate	Run3	generate/STIM_014.jpg
2048.43	0.962	1	generate	Run3	generate/STIM_015.jpg
2051.653	1.828	0	generate	Run3	generate/STIM_015.jpg
2056.433	0.86	1	generate	Run3	generate/STIM_015.jpg
2059.565	1.639	1	generate	Run3	generate/STIM_015.jpg
2064.479	1.034	1	generate	Run3	generate/STIM_015.jpg
2068.653	1.952	1	generate	Run3	generate/STIM_016.jpg
2073.71	1.161	1	generate	Run3	generate/STIM_016.jpg
2077.067	1.709	1	generate	Run3	generate/STIM_016.jpg
2082.027	1.633	1	generate	Run3	generate/STIM_016.jpg
2086.662	1.006	1	generate	Run3	generate/STIM_016.jpg
2090.848	1.117	1	generate	Run3	generate/STIM_017.jpg
2094.25	1.341	1	generate	Run3	generate/STIM_017.jpg
2097.638	1.301	1	generate	Run3	generate/STIM_017.jpg
2101.076	1.982	1	generate	Run3	generate/STIM_017.jpg
2105.17	1.529	1	generate	Run3	generate/STIM_017.jpg
2110.252	1.537	1	generate	Run3	generate/STIM_018.jpg
2114.399	1.188	1	generate	Run3	generate/STIM_018.jpg
2118.965	0.903	1	generate	Run3	generate/STIM_018.jpg
2123.02	1.28	1	generate	Run3	generate/STIM_018.jpg
2127.955	1.035	1	generate	Run3	generate/STIM_018.jpg
2131.696	1.201	1	generate	Run3	generate/STIM_019.jpg
2135.355	0.816	1	generate	Run3	generate/STIM_019.jpg
2139.822	1.116	0	generate	Run3	generate/STIM_019.jpg
2143.228	1.258	1	generate	Run3	generate/STIM_019.jpg
2148.099	1.28	1	generate	Run3	generate/STIM_019.jpg
2151.487	1.896	1	generate	Run3	generate/STIM_020.jpg
2155.415	1.079	1	generate	Run3	generate/STIM_020.jpg
2159.012	1.76	1	generate	Run3	generate/STIM_020.jpg
2164.459	1.264	1	generate	Run3	generate/STIM_020.jpg
2168.796	1.013	1	generate	Run3	generate/STIM_020.jpg
2172.132	1.058	1	generate	Run3	generate/STIM_021.jpg
2176.755	1.633	1	generate	Run3	generate/STIM_021.jpg
2180.974	1.462	1	generate	Run3	generate/STIM_021.jpg
2185.794	1.627	1	generate	Run3	generate/STIM_021.jpg
2189.657	0.894	1	generate	Run3	generate/STIM_021.jpg
2193.774	1.097	1	generate	Run3	generate/STIM_022.jpg
2198.154	1.975	0	generate	Run3	generate/STIM_022.jpg
2204.106	0.975	1	generate	Run3	generate/STIM_022.jpg
2208.732	1.257	1	generate	Run3	generate/STIM_022.jpg
2212.196	0.94	1	generate	Run3	generate/STIM_022.jpg
2215.521	1.662	1	generate	Run3	generate/STIM_023.jpg
2219.927	0.853	1	generate	Run3	generate/STIM_023.jpg
2224.051	1.114	1	generate	Run3	generate/STIM_023.jpg
2228.03	1.065	1	generate	Run3	generate/STIM_023.jpg
2231.874	1.643	1	generate	Run3	generate/STIM_023.jpg
2235.872	1.566	1	generate	Run3	generate/STIM_024.jpg
2239.626	1.156	1	generate	Run3	generate/STIM_024.jpg
2243.689	1.768	1	generate	Run3	generate/STIM_024.jpg
2248.688	1.198	1	generate	Run3	generate/STIM_024.jpg
2253.363	1.954	1	generate	Run3	generate/STIM_024.jpg
2258.546	0.778	1	repeat	Run3	repeat/STIM_000.jpg
2263.053	0.918	1	repeat	Run3	repeat/STIM_000.jpg
2267.717	0.912	1	repeat	Run3	repeat/STIM_000.jpg
2270.739	0.577	1	repeat	Run3	repeat/STIM_000.jpg
2275.082	0.868	1	repeat	Run3	repeat/STIM_000.jpg
2279.744	0.912	1	repeat	Run3	repeat/STIM_001.jpg
2282.697	0.62	1	repeat	Run3	repeat/STIM_001.jpg
2286.599	0.538	1	repeat	Run3	repeat/STIM_001.jpg
2290.935	0.794	1	repeat	Run3	repeat/STIM_001.jpg
2294.634	0.813	1	repeat	Run3	repeat/STIM_001.jpg
2298.507	0.801	1	repeat	Run3	repeat/STIM_002.jpg
2302.295	0.802	1	repeat	Run3	repeat/STIM_002.jpg
2306.51	0.856	1	repeat	Run3	repeat/STIM_002.jpg
2309.81	0.722	1	repeat	Run3	repeat/STIM_002.jpg
2314.453	0.939	1	repeat	Run3	repeat/STIM_002.jpg
2317.987	0.906	1	repeat	Run3	repeat/STIM_003.jpg
2322.647	0.507	1	repeat	Run3	repeat/STIM_003.jpg
2326.054	0.903	1	repeat	Run3	repeat/STIM_003.jpg
2329.118	0.872	1	repeat	Run3	repeat/STIM_003.jpg
2332.146	0.808	1	repeat	Run3	repeat/STIM_003.jpg
2335.451	0.869	1	repeat	Run3	repeat/STIM_004.jpg
2339.56	0.909	1	repeat	Run3	repeat/STIM_004.jpg
2344.286	0.594	1	repeat	Run3	repeat/STIM_004.jpg
2347.826	0.786	1	repeat	Run3	repeat/STIM_004.jpg
2352.048	0.845	1	repeat	Run3	repeat/STIM_004.jpg
2356.284	0.488	1	repeat	Run3	repeat/STIM_005.jpg
2360.61	0.748	1	repeat	Run3	repeat/STIM_005.jpg
2364.153	0.88	1	repeat	Run3	repeat/STIM_005.jpg
2368.862	0.484	1	repeat	Run3	repeat/STIM_005.jpg
2371.713	0.65	1	repeat	Run3	repeat/STIM_005.jpg
2375.929	0.706	1	repeat	Run3	repeat/STIM_006.jpg
2379.2	0.846	1	repeat	Run3	repeat/STIM_006.jpg
2383.039	0.759	1	repeat	Run3	repeat/STIM_006.jpg
2387.632	0.634	1	repeat	Run3	repeat/STIM_006.jpg
2390.603	0.694	1	repeat	Run3	repeat/STIM_006.jpg
2393.521	0.864	1	repeat	Run3	repeat/STIM_007.jpg
2397.401	0.553	1	repeat	Run3	repeat/STIM_007.jpg
2400.731	0.505	1	repeat	Run3	repeat/STIM_007.jpg
2404.304	0.923	1	repeat	Run3	repeat/STIM_007.jpg
2409.213	0.481	1	repeat	Run3	repeat/STIM_007.jpg
2412.526	0.941	1	repeat	Run3	repeat/STIM_008.jpg
2416.537	0.614	1	repeat	Run3	repeat/STIM_008.jpg
2420.111	0.793	1	repeat	Run3	repeat/STIM_008.jpg
2423.137	0.775	1	repeat	Run3	repeat/STIM_008.jpg
2426.589	0.903	1	repeat	Run3	repeat/STIM_008.jpg
2431.288	0.708	1	repeat	Run3	repeat/STIM_009.jpg
2435.755	0.526	1	repeat	Run3	repeat/STIM_009.jpg
2440.055	0.496	1	repeat	Run3	repeat/STIM_009.jpg
2443.324	0.509	1	repeat	Run3	repeat/STIM_009.jpg
2446.57	0.8	1	repeat	Run3	repeat/STIM_009.jpg
2449.607	0.697	1	repeat	Run3	repeat/STIM_010.jpg
2452.914	0.887	1	repeat	Run3	repeat/STIM_010.jpg
2457.339	0.873	1	repeat	Run3	repeat/STIM_010.jpg
2460.76	0.746	1	repeat	Run3	repeat/STIM_010.jpg
2464.111	0.57	1	repeat	Run3	repeat/STIM_010.jpg
2467.585	0.868	1	repeat	Run3	repeat/STIM_011.jpg
2471.303	0.899	1	repeat	Run3	repeat/STIM_011.jpg
2474.41	0.739	1	repeat	Run3	repeat/STIM_011.jpg
2478.591	0.722	1	repeat	Run3	repeat/STIM_011.jpg
2483.287	0.657	1	repeat	Run3	repeat/STIM_011.jpg
2487.823	0.562	1	repeat	Run3	repeat/STIM_012.jpg
2491.385	0.483	1	repeat	Run3	repeat/STIM_012.jpg
2495.451	0.789	1	repeat	Run3	repeat/STIM_012.jpg
2500.14	0.866	1	repeat	Run3	repeat/STIM_012.jpg
2504.084	0.894	1	repeat	Run3	repeat/STIM_012.jpg
2508.762	0.6	1	repeat	Run3	repeat/STIM_013.jpg
2511.394	0.533	1	repeat	Run3	repeat/STIM_013.jpg
2514.326	0.657	1	repeat	Run3	repeat/STIM_013.jpg
2517.562	0.87	1	repeat	Run3	repeat/STIM_013.jpg
2521.282	0.795	1	repeat	Run3	repeat/STIM_013.jpg
2525.561	0.644	1	repeat	Run3	repeat/STIM_014.jpg
2529.257	0.714	1	repeat	Run3	repeat/STIM_014.jpg
2533.654	0.892	1	repeat	Run3	repeat/STIM_014.jpg
2537.807	0.942	1	repeat	Run3	repeat/STIM_014.jpg
2541.505	0.731	1	repeat	Run3	repeat/STIM_014.jpg
2545.497	1.757	1	generate	Run4	generate/STIM_000.jpg
2550.079	1.747	1	generate	Run4	generate/STIM_000.jpg
2555.627	1.513	1	generate	Run4	generate/STIM_000.jpg
2560.922	1.353	1	generate	Run4	generate/STIM_000.jpg
2564.395	0.934	1	generate	Run4	generate/STIM_000.jpg
2567.574	1.681	1	generate	Run4	generate/STIM_001.jpg
2572.357	1.302	1	generate	Run4	generate/STIM_001.jpg
2576.392	1.639	1	generate	Run4	generate/STIM_001.jpg
2581.996	1.16	1	generate	Run4	generate/STIM_001.jpg
2585.65	1.586	1	generate	Run4	generate/STIM_001.jpg
2590.428	1.985	1	generate	Run4	generate/STIM_002.jpg
2595.444	1.268	1	generate	Run4	generate/STIM_002.jpg
2599.299	1.353	1	generate	Run4	generate/STIM_002.jpg
2604.497	1.89	1	generate	Run4	generate/STIM_002.jpg
2609.767	1.064	1	generate	Run4	generate/STIM_002.jpg
2613.61	1.572	0	generate	Run4	generate/STIM_003.jpg
2619.08	1.54	1	generate	Run4	generate/STIM_003.jpg
2623.99	0.928	1	generate	Run4	generate/STIM_003.jpg
2627.682	0.921	1	generate	Run4	generate/STIM_003.jpg
2630.62	1.746	1	generate	Run4	generate/STIM_003.jpg
2634.373	0.806	0	generate	Run4	generate/STIM_004.jpg
2638.211	0.897	1	generate	Run4	generate/STIM_004.jpg
2641.639	1.547	1	generate	Run4	generate/STIM_004.jpg
2646.619	1.676	1	generate	Run4	generate/STIM_004.jpg
2650.652	1.716	1	generate	Run4	generate/STIM_004.jpg
2654.917	1.356	1	generate	Run4	generate/STIM_005.jpg
2658.984	1.061	1	generate	Run4	generate/STIM_005.jpg
2662.234	1.13	1	generate	Run4	generate/STIM_005.jpg
2667.282	1.784	1	generate	Run4	generate/STIM_005.jpg
2672.667	1.405	1	generate	Run4	generate/STIM_005.jpg
2677.344	1.04	1	generate	Run4	generate/STIM_006.jpg
2682.155	1.102	1	generate	Run4	generate/STIM_006.jpg
2686.101	1.377	1	generate	Run4	generate/STIM_006.jpg
2691.273	1.129	1	generate	Run4	generate/STIM_006.jpg
2695.11	1.186	1	generate	Run4	generate/STIM_006.jpg
2699.496	1.327	1	generate	Run4	generate/STIM_007.jpg
2703.697	1.272	1	generate	Run4	generate/STIM_007.jpg
2708.483	1.11	1	generate	Run4	generate/STIM_007.jpg
2713.338	1.583	1	generate	Run4	generate/STIM_007.jpg
2718.524	1.474	1	generate	Run4	generate/STIM_007.jpg
2723.399	1.283	1	generate	Run4	generate/STIM_008.jpg
2728.004	1.2	1	generate	Run4	generate/STIM_008.jpg
2732.168	1.397	1	generate	Run4	generate/STIM_008.jpg
2736.825	1.447	1	generate	Run4	generate/STIM_008.jpg
2741.262	1.244	1	generate	Run4	generate/STIM_008.jpg
2744.682	1.062	1	generate	Run4	generate/STIM_009.jpg
2748.536	1.393	1	generate	Run4	generate/STIM_009.jpg
2752.829	1.391	1	generate	Run4	generate/STIM_009.jpg
2757.911	1.033	1	generate	Run4	generate/STIM_009.jpg
2762.407	1.344	1	generate	Run4	generate/STIM_009.jpg
2767.279	1.479	1	generate	Run4	generate/STIM_010.jpg
2772.526	1.512	1	generate	Run4	generate/STIM_010.jpg
2777.374	1.578	1	generate	Run4	generate/STIM_010.jpg
2782.132	1.665	1	generate	Run4	generate/STIM_010.jpg
2787.057	0.9	1	generate	Run4	generate/STIM_010.jpg
2790.919	1.097	0	generate	Run4	generate/STIM_011.jpg
2794.512	1.822	1	generate	Run4	generate/STIM_011.jpg
2799.021	1.293	1	generate	Run4	generate/STIM_011.jpg
2804.072	1.831	1	generate	Run4	generate/STIM_011.jpg
2809.282	1.262	1	generate	Run4	generate/STIM_011.jpg
2812.793	1.078	1	generate	Run4	generate/STIM_012.jpg
2817.267	0.936	1	generate	Run4	generate/STIM_012.jpg
2821.265	0.802	1	generate	Run4	generate/STIM_012.jpg
2824.531	1.89	1	generate	Run4	generate/STIM_012.jpg
2829.48	1.402	1	generate	Run4	generate/STIM_012.jpg
2833.186	0.802	1	generate	Run4	generate/STIM_013.jpg
2837.919	0.853	0	generate	Run4	generate/STIM_013.jpg
2841.154	1.074	1	generate	Run4	generate/STIM_013.jpg
2844.642	1.613	1	generate	Run4	generate/STIM_013.jpg
2848.876	1.969	1	generate	Run4	generate/STIM_013.jpg
2853.039	1.664	1	generate	Run4	generate/STIM_014.jpg
2857.73	1.691	1	generate	Run4	generate/STIM_014.jpg
2863.169	1.173	1	generate	Run4	generate/STIM_014.jpg
2867.403	1.688	1	generate	Run4	generate/STIM_014.jpg
2872.866	1.268	1	generate	Run4	generate/STIM_014.jpg
2877.48	1.165	1	generate	Run4	generate/STIM_015.jpg
2882.487	1.985	1	generate	Run4	generate/STIM_015.jpg
2887.039	1.046	1	generate	Run4	generate/STIM_015.jpg
2890.614	0.935	1	generate	Run4	generate/STIM_015.jpg
2894.225	0.955	1	generate	Run4	generate/STIM_015.jpg
2897.535	1.652	1	generate	Run4	generate/STIM_016.jpg
2901.377	1.21	1	generate	Run4	generate/STIM_016.jpg
2905.106	1.301	1	generate	Run4	generate/STIM_016.jpg
2909.135	1.791	1	generate	Run4	generate/STIM_016.jpg
2914.07	0.957	1	generate	Run4	generate/STIM_016.jpg
2918.345	0.956	1	generate	Run4	generate/STIM_017.jpg
2922.063	1.344	1	generate	Run4	generate/STIM_017.jpg
2926.235	0.997	1	generate	Run4	generate/STIM_017.jpg
2929.805	0.996	1	generate	Run4	generate/STIM_017.jpg
2933.869	1.412	1	generate	Run4	generate/STIM_017.jpg
2937.473	1.631	1	generate	Run4	generate/STIM_018.jpg
2941.882	0.8	1	generate	Run4	generate/STIM_018.jpg
2946.109	1.571	1	generate	Run4	generate/STIM_018.jpg
2951.442	1.008	1	generate	Run4	generate/STIM_018.jpg
2955.812	1.236	1	generate	Run4	generate/STIM_018.jpg
2960.885	1.083	1	generate	Run4	generate/STIM_019.jpg
2965.79	1.19	1	generate	Run4	generate/STIM_019.jpg
2969.255	1.926	1	generate	Run4	generate/STIM_019.jpg
2973.821	1.005	1	generate	Run4	generate/STIM_019.jpg
2978.022	1.347	1	generate	Run4	generate/STIM_019.jpg
2982.765	1.649	1	generate	Run4	generate/STIM_020.jpg
2987.756	1.856	1	generate	Run4	generate/STIM_020.jpg
2992.633	1.174	1	generate	Run4	generate/STIM_020.jpg
2995.971	1.717	1	generate	Run4	generate/STIM_020.jpg
3001.507	1.974	1	generate	Run4	generate/STIM_020.jpg
3006.841	0.932	1	generate	Run4	generate/STIM_021.jpg
3010.356	0.829	1	generate	Run4	generate/STIM_021.jpg
3014.115	1.21	1	generate	Run4	generate/STIM_021.jpg
3017.842	1.214	1	generate	Run4	generate/STIM_021.jpg
3022.029	1.772	1	generate	Run4	generate/STIM_021.jpg
3025.841	1.138	1	generate	Run4	generate/STIM_022.jpg
3030.907	1.784	0	generate	Run4	generate/STIM_022.jpg
3035.913	0.88	1	generate	Run4	generate/STIM_022.jpg
3040.406	1.837	1	generate	Run4	generate/STIM_022.jpg
3045.106	0.996	1	generate	Run4	generate/STIM_022.jpg
3049.428	1.312	1	generate	Run4	generate/STIM_023.jpg
3054.739	1.645	1	generate	Run4	generate/STIM_023.jpg
3058.815	0.836	1	generate	Run4	generate/STIM_023.jpg
3062.265	1.253	1	generate	Run4	generate/STIM_023.jpg
3065.678	1.152	1	generate	Run4	generate/STIM_023.jpg
3070.379	1.372	1	generate	Run4	generate/STIM_024.jpg
3075.544	1.857	1	generate	Run4	generate/STIM_024.jpg
3080.429	1.261	1	generate	Run4	generate/STIM_024.jpg
3084.168	1.726	1	generate	Run4	generate/STIM_024.jpg
3089.286	1.462	1	generate	Run4	generate/STIM_024.jpg
3093.483	0.666	1	repeat	Run4	repeat/STIM_000.jpg
3097.342	0.483	1	repeat	Run4	repeat/STIM_000.jpg
3100.166	0.892	1	repeat	Run4	repeat/STIM_000.jpg
3104.046	0.826	1	repeat	Run4	repeat/STIM_000.jpg
3107.899	0.591	1	repeat	Run4	repeat/STIM_000.jpg
3110.648	0.64	1	repeat	Run4	repeat/STIM_001.jpg
3113.782	0.889	1	repeat	Run4	repeat/STIM_001.jpg
3117.74	0.732	1	repeat	Run4	repeat/STIM_001.jpg
3121.406	0.636	1	repeat	Run4	repeat/STIM_001.jpg
3124.974	0.796	1	repeat	Run4	repeat/STIM_001.jpg
3128.322	0.786	1	repeat	Run4	repeat/STIM_002.jpg
3132.81	0.777	1	repeat	Run4	repeat/STIM_002.jpg
3137.285	0.682	1	repeat	Run4	repeat/STIM_002.jpg
3140.895	0.82	1	repeat	Run4	repeat/STIM_002.jpg
3144.662	0.479	1	repeat	Run4	repeat/STIM_002.jpg
3147.959	0.61	1	repeat	Run4	repeat/STIM_003.jpg
3150.595	0.633	0	repeat	Run4	repeat/STIM_003.jpg
3153.455	0.753	1	repeat	Run4	repeat/STIM_003.jpg
3157.671	0.784	1	repeat	Run4	repeat/STIM_003.jpg
3161.511	0.747	1	repeat	Run4	repeat/STIM_003.jpg
3165.318	0.77	1	repeat	Run4	repeat/STIM_004.jpg
3168.759	0.504	1	repeat	Run4	repeat/STIM_004.jpg
3172.403	0.892	1	repeat	Run4	repeat/STIM_004.jpg
3175.558	0.709	1	repeat	Run4	repeat/STIM_004.jpg
3178.504	0.911	1	repeat	Run4	repeat/STIM_004.jpg
3181.858	0.93	1	repeat	Run4	repeat/STIM_005.jpg
3186.214	0.843	1	repeat	Run4	repeat/STIM_005.jpg
3189.413	0.716	1	repeat	Run4	repeat/STIM_005.jpg
3192.858	0.822	1	repeat	Run4	repeat/STIM_005.jpg
3197.042	0.68	1	repeat	Run4	repeat/STIM_005.jpg
3201.489	0.883	1	repeat	Run4	repeat/STIM_006.jpg
3204.878	0.727	1	repeat	Run4	repeat/STIM_006.jpg
3208.125	0.775	1	repeat	Run4	repeat/STIM_006.jpg
3211.862	0.871	1	repeat	Run4	repeat/STIM_006.jpg
3216.128	0.787	1	repeat	Run4	repeat/STIM_006.jpg
3219.151	0.522	1	repeat	Run4	repeat/STIM_007.jpg
3223.003	0.494	1	repeat	Run4	repeat/STIM_007.jpg
3225.607	0.583	1	repeat	Run4	repeat/STIM_007.jpg
3229.009	0.781	1	repeat	Run4	repeat/STIM_007.jpg
3232.029	0.728	1	repeat	Run4	repeat/STIM_007.jpg
3234.888	0.878	1	repeat	Run4	repeat/STIM_008.jpg
3239.591	0.915	1	repeat	Run4	repeat/STIM_008.jpg
3244.412	0.782	1	repeat	Run4	repeat/STIM_008.jpg
3247.973	0.789	1	repeat	Run4	repeat/STIM_008.jpg
3251.915	0.484	1	repeat	Run4	repeat/STIM_008.jpg
3255.547	0.601	1	repeat	Run4	repeat/STIM_009.jpg
3259.073	0.528	1	repeat	Run4	repeat/STIM_009.jpg
3263.408	0.669	1	repeat	Run4	repeat/STIM_009.jpg
3267.849	0.639	1	repeat	Run4	repeat/STIM_009.jpg
3270.964	0.647	1	repeat	Run4	repeat/STIM_009.jpg
3274.12	0.831	1	repeat	Run4	repeat/STIM_010.jpg
3278.642	0.609	1	repeat	Run4	repeat/STIM_010.jpg
3281.716	0.614	1	repeat	Run4	repeat/STIM_010.jpg
3285.785	0.937	1	repeat	Run4	repeat/STIM_010.jpg
3290.12	0.57	1	repeat	Run4	repeat/STIM_010.jpg
3292.823	0.744	1	repeat	Run4	repeat/STIM_011.jpg
3297.552	0.767	1	repeat	Run4	repeat/STIM_011.jpg
3301.752	0.72	0	repeat	Run4	repeat/STIM_011.jpg
3304.738	0.687	1	repeat	Run4	repeat/STIM_011.jpg
3309.27	0.483	1	repeat	Run4	repeat/STIM_011.jpg
3311.997	0.852	1	repeat	Run4	repeat/STIM_012.jpg
3316.603	0.853	1	repeat	Run4	repeat/STIM_012.jpg
3320.599	0.742	1	repeat	Run4	repeat/STIM_012.jpg
3324.157	0.486	1	repeat	Run4	repeat/STIM_012.jpg
3328.604	0.773	1	repeat	Run4	repeat/STIM_012.jpg
3331.776	0.918	1	repeat	Run4	repeat/STIM_013.jpg
3334.729	0.493	1	repeat	Run4	repeat/STIM_013.jpg
3338.765	0.672	1	repeat	Run4	repeat/STIM_013.jpg
3341.486	0.926	1	repeat	Run4	repeat/STIM_013.jpg
3344.702	0.886	1	repeat	Run4	repeat/STIM_013.jpg
3347.941	0.904	1	repeat	Run4	repeat/STIM_014.jpg
3352.325	0.604	1	repeat	Run4	repeat/STIM_014.jpg
3355.411	0.593	1	repeat	Run4	repeat/STIM_014.jpg
3359.528	0.814	1	repeat	Run4	repeat/STIM_014.jpg
3363.689	0.794	1	repeat	Run4	repeat/STIM_014.jpg
