onset	duration	response_time_ms	trial_type	learning_stage	stimulus	response_port
0.0	2.474	2473.7	generate	Run1	generate/STIM_000.jpg	99
4.854	3.066	3065.8	generate	Run1	generate/STIM_000.jpg	99
11.268	2.454	2453.7	generate	Run1	generate/STIM_000.jpg	99
17.008	2.862	2861.7	generate	Run1	generate/STIM_000.jpg	100
22.813	2.42	2420.2	generate	Run1	generate/STIM_000.jpg	99
27.512	3.763	3763.4	generate	Run1	generate/STIM_001.jpg	100
34.61	2.236	2235.7	generate	Run1	generate/STIM_001.jpg	100
39.929	2.036	2035.9	generate	Run1	generate/STIM_001.jpg	100
44.865	3.208	3207.5	generate	Run1	generate/STIM_001.jpg	100
50.99	1.306	1306.2	generate	Run1	generate/STIM_001.jpg	99
56.187	2.087	2087.3	generate	Run1	generate/STIM_002.jpg	99
61.849	3.023	3022.7	generate	Run1	generate/STIM_002.jpg	99
67.305	2.388	2387.9	generate	Run1	generate/STIM_002.jpg	100
72.175	3.3	3300.5	generate	Run1	generate/STIM_002.jpg	99
78.717	1.673	1673.4	generate	Run1	generate/STIM_002.jpg	100
83.775	2.901	2900.9	generate	Run1	generate/STIM_003.jpg	100
89.454	2.741	2741.0	generate	Run1	generate/STIM_003.jpg	99
95.387	1.94	1940.1	generate	Run1	generate/STIM_003.jpg	99
101.256	2.553	2553.0	generate	Run1	generate/STIM_003.jpg	99
106.02	2.002	2002.2	generate	Run1	generate/STIM_003.jpg	99
111.769	3.308	3308.0	generate	Run1	generate/STIM_004.jpg	99
118.93	1.699	1699.4	generate	Run1	generate/STIM_004.jpg	99
123.44	2.045	2045.3	generate	Run1	generate/STIM_004.jpg	100
129.262	1.938	1937.9	generate	Run1	generate/STIM_004.jpg	100
134.224	3.017	3017.3	generate	Run1	generate/STIM_004.jpg	99
141.037	2.099	2098.6	generate	Run1	generate/STIM_005.jpg	100
146.683	2.704	2704.0	generate	Run1	generate/STIM_005.jpg	99
151.944	1.533	1532.6	generate	Run1	generate/STIM_005.jpg	100
156.116	1.765	1765.4	generate	Run1	generate/STIM_005.jpg	99
160.349	2.44	2440.2	generate	Run1	generate/STIM_005.jpg	100
166.257	3.03	3029.8	generate	Run1	generate/STIM_006.jpg	100
173.137	2.238	2237.9	generate	Run1	generate/STIM_006.jpg	99
177.783	1.943	1943.3	generate	Run1	generate/STIM_006.jpg	99
182.509	3.061	3061.1	generate	Run1	generate/STIM_006.jpg	100
188.765	2.917	2917.2	generate	Run1	generate/STIM_006.jpg	99
194.134	1.989	1988.6	generate	Run1	generate/STIM_007.jpg	100
198.401	3.257	3256.9	generate	Run1	generate/STIM_007.jpg	100
204.093	2.593	2593.0	generate	Run1	generate/STIM_007.jpg	100
209.134	1.731	1730.8	generate	Run1	generate/STIM_007.jpg	99
214.159	2.99	2990.5	generate	Run1	generate/STIM_007.jpg	100
221.119	2.736	2735.9	generate	Run1	generate/STIM_008.jpg	99
226.497	2.422	2421.8	generate	Run1	generate/STIM_008.jpg	99
231.815	2.819	2819.1	generate	Run1	generate/STIM_008.jpg	100
237.035	2.262	2262.5	generate	Run1	generate/STIM_008.jpg	100
242.186	1.398	1397.6	generate	Run1	generate/STIM_008.jpg	100
246.263	2.449	2449.2	generate	Run1	generate/STIM_009.jpg	99
251.578	1.807	1807.1	generate	Run1	generate/STIM_009.jpg	100
257.044	3.429	3428.8	generate	Run1	generate/STIM_009.jpg	99
264.384	1.372	1371.6	generate	Run1	generate/STIM_009.jpg	99
267.759	2.053	2053.2	generate	Run1	generate/STIM_009.jpg	100
273.246	3.768	3768.0	generate	Run1	generate/STIM_010.jpg	100
280.583	2.543	2542.9	generate	Run1	generate/STIM_010.jpg	99
285.942	3.154	3154.2	generate	Run1	generate/STIM_010.jpg	99
291.838	2.697	2697.3	generate	Run1	generate/STIM_010.jpg	100
296.84	1.419	1418.9	generate	Run1	generate/STIM_010.jpg	100
301.824	2.652	2652.0	generate	Run1	generate/STIM_011.jpg	100
307.693	1.873	1873.4	generate	Run1	generate/STIM_011.jpg	100
312.085	3.395	3395.3	generate	Run1	generate/STIM_011.jpg	100
317.827	1.524	1523.8	generate	Run1	generate/STIM_011.jpg	100
321.988	3.132	3131.8	generate	Run1	generate/STIM_011.jpg	100
327.622	2.124	2123.6	generate	Run1	generate/STIM_012.jpg	100
331.878	2.255	2254.7	generate	Run1	generate/STIM_012.jpg	100
337.787	2.676	2675.7	generate	Run1	generate/STIM_012.jpg	99
343.229	2.946	2945.9	generate	Run1	generate/STIM_012.jpg	99
348.492	2.566	2566.0	generate	Run1	generate/STIM_012.jpg	100
353.82	2.249	2248.7	generate	Run1	generate/STIM_013.jpg	99
359.049	2.573	2572.7	generate	Run1	generate/STIM_013.jpg	100
365.505	2.944	2944.0	generate	Run1	generate/STIM_013.jpg	100
371.769	2.728	2728.1	generate	Run1	generate/STIM_013.jpg	100
377.544	2.938	2937.7	generate	Run1	generate/STIM_013.jpg	99
383.931	2.491	2491.4	generate	Run1	generate/STIM_014.jpg	100
390.071	2.718	2717.8	generate	Run1	generate/STIM_014.jpg	100
396.283	2.941	2940.7	generate	Run1	generate/STIM_014.jpg	100
402.068	2.658	2658.0	generate	Run1	generate/STIM_014.jpg	100
408.25	2.969	2968.7	generate	Run1	generate/STIM_014.jpg	99
414.812	2.378	2377.9	generate	Run1	generate/STIM_015.jpg	99
419.287	2.629	2629.0	generate	Run1	generate/STIM_015.jpg	100
425.348	1.893	1893.1	generate	Run1	generate/STIM_015.jpg	99
430.507	2.646	2645.6	generate	Run1	generate/STIM_015.jpg	99
436.993	1.527	1527.0	generate	Run1	generate/STIM_015.jpg	99
441.611	1.881	1881.3	generate	Run1	generate/STIM_016.jpg	99
447.161	2.516	2516.4	generate	Run1	generate/STIM_016.jpg	100
453.533	3.48	3479.7	generate	Run1	generate/STIM_016.jpg	99
460.645	2.33	2329.5	generate	Run1	generate/STIM_016.jpg	99
466.217	2.528	2528.3	generate	Run1	generate/STIM_016.jpg	99
471.929	2.335	2334.6	generate	Run1	generate/STIM_017.jpg	99
478.008	2.033	2032.7	generate	Run1	generate/STIM_017.jpg	99
483.837	1.79	1790.1	generate	Run1	generate/STIM_017.jpg	100
488.872	2.437	2436.9	generate	Run1	generate/STIM_017.jpg	100
493.865	2.956	2955.6	generate	Run1	generate/STIM_017.jpg	100
499.322	2.123	2123.1	generate	Run1	generate/STIM_018.jpg	100
503.828	1.751	1751.1	generate	Run1	generate/STIM_018.jpg	100
507.682	1.496	1495.9	generate	Run1	generate/STIM_018.jpg	99
511.621	2.134	2133.9	generate	Run1	generate/STIM_018.jpg	99
515.954	1.827	1827.3	generate	Run1	generate/STIM_018.jpg	100
520.041	2.584	2584.1	generate	Run1	generate/STIM_019.jpg	99
526.437	3.342	3341.6	generate	Run1	generate/STIM_019.jpg	99
532.47	2.867	2867.3	generate	Run1	generate/STIM_019.jpg	99
538.268	2.478	2477.7	generate	Run1	generate/STIM_019.jpg	99
544.231	1.499	1499.3	generate	Run1	generate/STIM_019.jpg	99
548.571	1.642	1641.5	generate	Run1	generate/STIM_020.jpg	100
552.984	3.518	3517.8	generate	Run1	generate/STIM_020.jpg	100
558.868	2.61	2610.0	generate	Run1	generate/STIM_020.jpg	100
564.354	1.378	1378.3	generate	Run1	generate/STIM_020.jpg	100
568.24	1.575	1574.9	generate	Run1	generate/STIM_020.jpg	99
573.591	3.199	3199.3	generate	Run1	generate/STIM_021.jpg	99
580.023	2.642	2642.1	generate	Run1	generate/STIM_021.jpg	99
585.332	1.46	1460.1	generate	Run1	generate/STIM_021.jpg	99
589.869	3.216	3215.8	generate	Run1	generate/STIM_021.jpg	100
596.451	1.82	1819.5	generate	Run1	generate/STIM_021.jpg	99
601.225	3.822	3822.5	generate	Run1	generate/STIM_022.jpg	100
608.928	1.838	1838.3	generate	Run1	generate/STIM_022.jpg	99
614.131	3.574	3574.0	generate	Run1	generate/STIM_022.jpg	99
621.029	2.074	2074.5	generate	Run1	generate/STIM_022.jpg	99
626.88	3.006	3005.5	generate	Run1	generate/STIM_022.jpg	99
631.975	2.195	2195.0	generate	Run1	generate/STIM_023.jpg	99
637.977	2.665	2665.1	generate	Run1	generate/STIM_023.jpg	100
643.971	3.214	3214.5	generate	Run1	generate/STIM_023.jpg	99
650.433	3.105	3105.1	generate	Run1	generate/STIM_023.jpg	100
655.772	1.649	1648.7	generate	Run1	generate/STIM_023.jpg	99
660.103	3.586	3586.5	generate	Run1	generate/STIM_024.jpg	99
666.659	2.18	2179.6	generate	Run1	generate/STIM_024.jpg	100
672.271	2.502	2502.0	generate	Run1	generate/STIM_024.jpg	99
678.327	2.04	2040.1	generate	Run1	generate/STIM_024.jpg	99
683.234	2.43	2430.3	generate	Run1	generate/STIM_024.jpg	99
689.191	1.25	1250.3	repeat	Run1	repeat/STIM_000.jpg	99
693.171	0.957	957.1	repeat	Run1	repeat/STIM_000.jpg	100
697.29	0.998	998.5	repeat	Run1	repeat/STIM_000.jpg	99
700.593	1.268	1268.2	repeat	Run1	repeat/STIM_000.jpg	100
704.718	0.783	782.8	repeat	Run1	repeat/STIM_000.jpg	100
709.309	0.707	706.7	repeat	Run1	repeat/STIM_001.jpg	100
713.246	0.798	797.7	repeat	Run1	repeat/STIM_001.jpg	99
716.869	1.168	1168.2	repeat	Run1	repeat/STIM_001.jpg	100
720.762	1.302	1301.6	repeat	Run1	repeat/STIM_001.jpg	100
725.818	1.201	1200.7	repeat	Run1	repeat/STIM_001.jpg	99
730.547	0.779	778.6	repeat	Run1	repeat/STIM_002.jpg	99
734.936	0.942	941.7	repeat	Run1	repeat/STIM_002.jpg	100
738.043	1.183	1183.0	repeat	Run1	repeat/STIM_002.jpg	99
741.694	1.047	1046.8	repeat	Run1	repeat/STIM_002.jpg	100
745.439	1.063	1063.1	repeat	Run1	repeat/STIM_002.jpg	100
748.823	1.08	1080.5	repeat	Run1	repeat/STIM_003.jpg	99
752.855	0.678	677.5	repeat	Run1	repeat/STIM_003.jpg	100
756.711	1.066	1066.2	repeat	Run1	repeat/STIM_003.jpg	99
761.438	0.797	796.8	repeat	Run1	repeat/STIM_003.jpg	99
764.531	0.852	852.0	repeat	Run1	repeat/STIM_003.jpg	99
768.519	0.837	836.9	repeat	Run1	repeat/STIM_004.jpg	99
772.649	1.314	1313.7	repeat	Run1	repeat/STIM_004.jpg	100
776.235	1.333	1332.9	repeat	Run1	repeat/STIM_004.jpg	100
780.45	1.252	1252.4	repeat	Run1	repeat/STIM_004.jpg	99
784.108	0.887	886.9	repeat	Run1	repeat/STIM_004.jpg	99
788.357	1.214	1213.9	repeat	Run1	repeat/STIM_005.jpg	100
792.801	1.134	1134.0	repeat	Run1	repeat/STIM_005.jpg	100
797.552	0.804	803.9	repeat	Run1	repeat/STIM_005.jpg	100
800.535	0.672	672.0	repeat	Run1	repeat/STIM_005.jpg	99
803.655	1.196	1195.9	repeat	Run1	repeat/STIM_005.jpg	100
807.418	0.735	735.3	repeat	Run1	repeat/STIM_006.jpg	100
810.169	0.743	742.9	repeat	Run1	repeat/STIM_006.jpg	100
813.798	0.75	750.5	repeat	Run1	repeat/STIM_006.jpg	99
817.434	1.168	1168.1	repeat	Run1	repeat/STIM_006.jpg	100
820.692	1.096	1095.6	repeat	Run1	repeat/STIM_006.jpg	99
824.39	1.009	1008.9	repeat	Run1	repeat/STIM_007.jpg	100
828.872	1.318	1318.0	repeat	Run1	repeat/STIM_007.jpg	99
834.181	0.951	950.6	repeat	Run1	repeat/STIM_007.jpg	100
837.656	1.24	1239.9	repeat	Run1	repeat/STIM_007.jpg	99
841.967	1.15	1150.4	repeat	Run1	repeat/STIM_007.jpg	100
845.741	0.917	916.8	repeat	Run1	repeat/STIM_008.jpg	100
849.402	0.928	928.1	repeat	Run1	repeat/STIM_008.jpg	99
853.05	0.975	974.9	repeat	Run1	repeat/STIM_008.jpg	99
856.382	0.771	771.1	repeat	Run1	repeat/STIM_008.jpg	100
860.91	0.672	672.1	repeat	Run1	repeat/STIM_008.jpg	99
864.066	0.962	962.4	repeat	Run1	repeat/STIM_009.jpg	99
868.308	0.685	684.7	repeat	Run1	repeat/STIM_009.jpg	100
871.837	0.94	939.7	repeat	Run1	repeat/STIM_009.jpg	99
875.664	1.166	1166.2	repeat	Run1	repeat/STIM_009.jpg	100
879.961	1.33	1330.3	repeat	Run1	repeat/STIM_009.jpg	100
883.687	0.917	917.1	repeat	Run1	repeat/STIM_010.jpg	99
887.899	1.302	1302.5	repeat	Run1	repeat/STIM_010.jpg	99
891.655	1.277	1276.9	repeat	Run1	repeat/STIM_010.jpg	100
896.087	0.912	912.2	repeat	Run1	repeat/STIM_010.jpg	99
899.264	0.721	721.1	repeat	Run1	repeat/STIM_010.jpg	99
903.41	1.219	1219.2	repeat	Run1	repeat/STIM_011.jpg	100
906.814	1.168	1167.7	repeat	Run1	repeat/STIM_011.jpg	99
911.595	1.079	1079.2	repeat	Run1	repeat/STIM_011.jpg	100
915.418	0.949	949.4	repeat	Run1	repeat/STIM_011.jpg	100
919.686	0.794	793.8	repeat	Run1	repeat/STIM_011.jpg	100
923.56	1.179	1179.3	repeat	Run1	repeat/STIM_012.jpg	99
927.442	0.758	757.7	repeat	Run1	repeat/STIM_012.jpg	99
930.432	1.008	1008.0	repeat	Run1	repeat/STIM_012.jpg	100
934.292	0.823	823.2	repeat	Run1	repeat/STIM_012.jpg	100
937.992	0.995	994.8	repeat	Run1	repeat/STIM_012.jpg	99
941.939	0.955	954.9	repeat	Run1	repeat/STIM_013.jpg	100
945.119	0.808	807.9	repeat	Run1	repeat/STIM_013.jpg	100
948.268	1.026	1025.8	repeat	Run1	repeat/STIM_013.jpg	99
951.521	1.004	1003.8	repeat	Run1	repeat/STIM_013.jpg	100
954.871	1.042	1041.6	repeat	Run1	repeat/STIM_013.jpg	100
959.594	0.722	722.3	repeat	Run1	repeat/STIM_014.jpg	100
963.706	1.088	1087.7	repeat	Run1	repeat/STIM_014.jpg	100
968.096	1.093	1093.0	repeat	Run1	repeat/STIM_014.jpg	99
971.436	1.103	1102.7	repeat	Run1	repeat/STIM_014.jpg	99
974.83	0.95	949.8	repeat	Run1	repeat/STIM_014.jpg	100
979.335	2.058	2058.3	generate	Run2	generate/STIM_000.jpg	99
984.347	2.222	2221.6	generate	Run2	generate/STIM_000.jpg	100
990.065	1.378	1378.3	generate	Run2	generate/STIM_000.jpg	100
993.848	1.774	1773.8	generate	Run2	generate/STIM_000.jpg	99
999.043	2.561	2561.1	generate	Run2	generate/STIM_000.jpg	99
1004.669	2.813	2813.4	generate	Run2	generate/STIM_001.jpg	99
1009.661	2.912	2911.7	generate	Run2	generate/STIM_001.jpg	100
1015.782	2.385	2384.7	generate	Run2	generate/STIM_001.jpg	99
1020.541	1.72	1720.4	generate	Run2	generate/STIM_001.jpg	99
1025.919	1.705	1705.2	generate	Run2	generate/STIM_001.jpg	99
1031.581	3.028	3028.2	generate	Run2	generate/STIM_002.jpg	100
1038.348	3.062	3061.8	generate	Run2	generate/STIM_002.jpg	99
1044.061	1.902	1902.2	generate	Run2	generate/STIM_002.jpg	100
1049.946	2.293	2293.2	generate	Run2	generate/STIM_002.jpg	99
1055.911	1.453	1452.8	generate	Run2	generate/STIM_002.jpg	100
1059.538	2.042	2042.3	generate	Run2	generate/STIM_003.jpg	100
1064.425	1.464	1463.7	generate	Run2	generate/STIM_003.jpg	99
1069.684	1.871	1870.7	generate	Run2	generate/STIM_003.jpg	99
1073.821	2.415	2414.6	generate	Run2	generate/STIM_003.jpg	99
1078.564	1.71	1709.7	generate	Run2	generate/STIM_003.jpg	99
1082.367	3.166	3165.9	generate	Run2	generate/STIM_004.jpg	99
1088.612	3.073	3073.1	generate	Run2	generate/STIM_004.jpg	99
1095.07	1.844	1843.9	generate	Run2	generate/STIM_004.jpg	99
1100.192	1.192	1192.2	generate	Run2	generate/STIM_004.jpg	99
1104.289	1.904	1903.9	generate	Run2	generate/STIM_004.jpg	100
1108.578	1.848	1848.5	generate	Run2	generate/STIM_005.jpg	99
1114.145	3.04	3040.0	generate	Run2	generate/STIM_005.jpg	100
1121.023	1.516	1516.1	generate	Run2	generate/STIM_005.jpg	99
1126.01	1.927	1926.7	generate	Run2	generate/STIM_005.jpg	99
1130.029	2.207	2206.7	generate	Run2	generate/STIM_005.jpg	100
1136.152	2.529	2528.8	generate	Run2	generate/STIM_006.jpg	100
1142.476	2.076	2076.4	generate	Run2	generate/STIM_006.jpg	99
1148.519	1.883	1883.2	generate	Run2	generate/STIM_006.jpg	100
1152.755	1.527	1526.8	generate	Run2	generate/STIM_006.jpg	100
1158.113	1.863	1863.1	generate	Run2	generate/STIM_006.jpg	99
1163.386	1.732	1732.3	generate	Run2	generate/STIM_007.jpg	100
1168.629	1.456	1456.5	generate	Run2	generate/STIM_007.jpg	99
1173.725	1.588	1587.8	generate	Run2	generate/STIM_007.jpg	100
1178.723	1.497	1496.9	generate	Run2	generate/STIM_007.jpg	99
1183.791	2.79	2790.4	generate	Run2	generate/STIM_007.jpg	100
1189.903	2.22	2219.8	generate	Run2	generate/STIM_008.jpg	100
1195.398	1.805	1804.7	generate	Run2	generate/STIM_008.jpg	99
1199.339	2.823	2823.0	generate	Run2	generate/STIM_008.jpg	100
1206.085	1.418	1417.8	generate	Run2	generate/STIM_008.jpg	99
1210.368	1.74	1740.4	generate	Run2	generate/STIM_008.jpg	99
1215.118	2.509	2508.8	generate	Run2	generate/STIM_009.jpg	99
1220.409	2.001	2000.9	generate	Run2	generate/STIM_009.jpg	99
1225.83	1.371	1370.8	generate	Run2	generate/STIM_009.jpg	100
1231.172	2.078	2077.7	generate	Run2	generate/STIM_009.jpg	99
1236.972	1.778	1778.2	generate	Run2	generate/STIM_009.jpg	100
1241.439	2.875	2874.8	generate	Run2	generate/STIM_010.jpg	100
1246.824	1.487	1486.7	generate	Run2	generate/STIM_010.jpg	100
1252.271	1.607	1606.8	generate	Run2	generate/STIM_010.jpg	99
1256.377	2.701	2701.0	generate	Run2	generate/STIM_010.jpg	99
1261.166	2.719	2719.2	generate	Run2	generate/STIM_010.jpg	100
1267.213	2.925	2925.2	generate	Run2	generate/STIM_011.jpg	100
1273.674	2.936	2935.5	generate	Run2	generate/STIM_011.jpg	99
1280.297	1.498	1498.4	generate	Run2	generate/STIM_011.jpg	99
1285.471	1.249	1249.2	generate	Run2	generate/STIM_011.jpg	100
1289.577	2.59	2589.8	generate	Run2	generate/STIM_011.jpg	99
1296.121	3.245	3245.0	generate	Run2	generate/STIM_012.jpg	99
1302.461	1.961	1961.2	generate	Run2	generate/STIM_012.jpg	99
1307.115	2.721	2720.9	generate	Run2	generate/STIM_012.jpg	99
1313.613	2.472	2471.7	generate	Run2	generate/STIM_012.jpg	100
1319.582	1.656	1656.5	generate	Run2	generate/STIM_012.jpg	100
1323.35	3.099	3098.7	generate	Run2	generate/STIM_013.jpg	100
1329.677	2.664	2664.1	generate	Run2	generate/STIM_013.jpg	100
1334.47	1.335	1334.7	generate	Run2	generate/STIM_013.jpg	99
1339.472	1.846	1846.4	generate	Run2	generate/STIM_013.jpg	100
1344.542	1.397	1397.0	generate	Run2	generate/STIM_013.jpg	99
1348.509	1.554	1553.6	generate	Run2	generate/STIM_014.jpg	100
1352.862	2.681	2681.3	generate	Run2	generate/STIM_014.jpg	99
1358.158	1.737	1737.2	generate	Run2	generate/STIM_014.jpg	100
1363.3	1.495	1494.6	generate	Run2	generate/STIM_014.jpg	99
1368.091	1.872	1871.7	generate	Run2	generate/STIM_014.jpg	99
1372.523	3.145	3145.0	generate	Run2	generate/STIM_015.jpg	100
1378.586	1.719	1719.3	generate	Run2	generate/STIM_015.jpg	99
1382.687	1.851	1851.3	generate	Run2	generate/STIM_015.jpg	100
1387.67	2.197	2196.8	generate	Run2	generate/STIM_015.jpg	100
1393.214	2.129	2128.6	generate	Run2	generate/STIM_015.jpg	100
1398.614	3.062	3061.9	generate	Run2	generate/STIM_016.jpg	100
1403.691	2.332	2331.5	generate	Run2	generate/STIM_016.jpg	99
1408.794	1.516	1516.1	generate	Run2	generate/STIM_016.jpg	99
1413.858	2.468	2467.6	generate	Run2	generate/STIM_016.jpg	100
1419.198	1.502	1501.5	generate	Run2	generate/STIM_016.jpg	100
1424.014	1.745	1744.6	generate	Run2	generate/STIM_017.jpg	100
1428.177	1.596	1596.5	generate	Run2	generate/STIM_017.jpg	99
1432.279	1.458	1457.5	generate	Run2	generate/STIM_017.jpg	99
1436.904	2.53	2529.9	generate	Run2	generate/STIM_017.jpg	100
1442.419	1.579	1579.0	generate	Run2	generate/STIM_017.jpg	99
1447.587	2.563	2563.1	generate	Run2	generate/STIM_018.jpg	99
1453.014	1.554	1553.8	generate	Run2	generate/STIM_018.jpg	100
1456.705	2.386	2385.8	generate	Run2	generate/STIM_018.jpg	99
1462.936	2.807	2807.2	generate	Run2	generate/STIM_018.jpg	99
1468.893	2.159	2159.2	generate	Run2	generate/STIM_018.jpg	99
1474.222	2.299	2299.2	generate	Run2	generate/STIM_019.jpg	100
1478.637	2.387	2386.7	generate	Run2	generate/STIM_019.jpg	100
1484.433	1.666	1666.3	generate	Run2	generate/STIM_019.jpg	99
1489.769	2.438	2438.1	generate	Run2	generate/STIM_019.jpg	99
1495.97	2.697	2696.8	generate	Run2	generate/STIM_019.jpg	99
1501.02	2.319	2319.0	generate	Run2	generate/STIM_020.jpg	100
1506.082	1.655	1655.0	generate	Run2	generate/STIM_020.jpg	100
1510.748	1.682	1682.1	generate	Run2	generate/STIM_020.jpg	99
1515.907	1.556	1555.9	generate	Run2	generate/STIM_020.jpg	99
1520.07	1.679	1679.4	generate	Run2	generate/STIM_020.jpg	99
1525.327	3.035	3034.8	generate	Run2	generate/STIM_021.jpg	100
1530.526	2.949	2949.1	generate	Run2	generate/STIM_021.jpg	100
1536.783	1.436	1436.0	generate	Run2	generate/STIM_021.jpg	100
1541.643	1.905	1905.4	generate	Run2	generate/STIM_021.jpg	100
1546.442	1.444	1443.5	generate	Run2	generate/STIM_021.jpg	99
1550.759	2.45	2449.7	generate	Run2	generate/STIM_022.jpg	99
1556.204	3.084	3083.6	generate	Run2	generate/STIM_022.jpg	99
1562.54	2.739	2738.8	generate	Run2	generate/STIM_022.jpg	99
1568.32	1.686	1686.4	generate	Run2	generate/STIM_022.jpg	99
1572.498	1.211	1211.4	generate	Run2	generate/STIM_022.jpg	99
1576.706	2.623	2623.2	generate	Run2	generate/STIM_023.jpg	99
1581.921	2.386	2385.5	generate	Run2	generate/STIM_023.jpg	100
1586.345	1.248	1248.3	generate	Run2	generate/STIM_023.jpg	99
1591.513	2.089	2089.4	generate	Run2	generate/STIM_023.jpg	100
1596.379	2.664	2663.7	generate	Run2	generate/STIM_023.jpg	100
1601.185	1.454	1453.7	generate	Run2	generate/STIM_024.jpg	99
1606.056	2.599	2598.9	generate	Run2	generate/STIM_024.jpg	99
1612.088	2.72	2720.4	generate	Run2	generate/STIM_024.jpg	99
1618.468	1.932	1931.6	generate	Run2	generate/STIM_024.jpg	99
1623.687	2.643	2643.2	generate	Run2	generate/STIM_024.jpg	100
1630.124	0.85	849.8	repeat	Run2	repeat/STIM_000.jpg	100
1634.342	0.852	852.3	repeat	Run2	repeat/STIM_000.jpg	100
1637.221	0.804	804.2	repeat	Run2	repeat/STIM_000.jpg	99
1640.63	1.085	1084.9	repeat	Run2	repeat/STIM_000.jpg	99
1643.973	1.142	1142.5	repeat	Run2	repeat/STIM_000.jpg	100
1648.066	1.307	1306.9	repeat	Run2	repeat/STIM_001.jpg	99
1651.38	1.234	1234.1	repeat	Run2	repeat/STIM_001.jpg	100
1655.15	1.169	1168.7	repeat	Run2	repeat/STIM_001.jpg	100
1658.765	0.777	777.2	repeat	Run2	repeat/STIM_001.jpg	100
1662.957	0.863	862.7	repeat	Run2	repeat/STIM_001.jpg	99
1666.204	0.788	787.7	repeat	Run2	repeat/STIM_002.jpg	100
1669.632	0.833	833.2	repeat	Run2	repeat/STIM_002.jpg	99
1673.682	1.275	1274.6	repeat	Run2	repeat/STIM_002.jpg	99
1677.364	0.985	984.9	repeat	Run2	repeat/STIM_002.jpg	100
1681.847	0.861	861.1	repeat	Run2	repeat/STIM_002.jpg	100
1685.253	1.257	1256.6	repeat	Run2	repeat/STIM_003.jpg	99
1690.038	1.187	1187.0	repeat	Run2	repeat/STIM_003.jpg	99
1693.356	0.697	696.6	repeat	Run2	repeat/STIM_003.jpg	100
1696.429	1.234	1233.9	repeat	Run2	repeat/STIM_003.jpg	100
1701.354	0.765	764.7	repeat	Run2	repeat/STIM_003.jpg	99
1705.565	0.715	715.0	repeat	Run2	repeat/STIM_004.jpg	100
1708.546	1.267	1267.2	repeat	Run2	repeat/STIM_004.jpg	100
1713.674	0.727	727.1	repeat	Run2	repeat/STIM_004.jpg	100
1716.929	0.907	906.7	repeat	Run2	repeat/STIM_004.jpg	100
1720.302	0.737	737.2	repeat	Run2	repeat/STIM_004.jpg	99
1724.212	0.983	983.0	repeat	Run2	repeat/STIM_005.jpg	100
1728.737	1.279	1278.9	repeat	Run2	repeat/STIM_005.jpg	100
1732.422	0.822	822.0	repeat	Run2	repeat/STIM_005.jpg	99
1735.535	1.303	1303.1	repeat	Run2	repeat/STIM_005.jpg	100
1739.306	1.152	1152.3	repeat	Run2	repeat/STIM_005.jpg	99
1743.822	0.835	835.0	repeat	Run2	repeat/STIM_006.jpg	99
1748.181	0.967	967.2	repeat	Run2	repeat/STIM_006.jpg	100
1751.231	1.002	1002.5	repeat	Run2	repeat/STIM_006.jpg	100
1754.726	0.919	919.1	repeat	Run2	repeat/STIM_006.jpg	100
1757.976	1.128	1127.8	repeat	Run2	repeat/STIM_006.jpg	99
1761.67	1.196	1195.6	repeat	Run2	repeat/STIM_007.jpg	99
1766.612	0.865	864.8	repeat	Run2	repeat/STIM_007.jpg	99
1770.548	0.905	904.6	repeat	Run2	repeat/STIM_007.jpg	100
1773.812	1.032	1032.5	repeat	Run2	repeat/STIM_007.jpg	100
1777.108	0.905	905.3	repeat	Run2	repeat/STIM_007.jpg	100
1781.461	0.705	704.8	repeat	Run2	repeat/STIM_008.jpg	99
1786.137	0.796	796.2	repeat	Run2	repeat/STIM_008.jpg	99
1790.85	1.004	1003.7	repeat	Run2	repeat/STIM_008.jpg	99
1795.456	0.86	860.2	repeat	Run2	repeat/STIM_008.jpg	100
1800.114	1.154	1154.3	repeat	Run2	repeat/STIM_008.jpg	100
1803.92	1.256	1255.7	repeat	Run2	repeat/STIM_009.jpg	100
1808.896	0.831	831.2	repeat	Run2	repeat/STIM_009.jpg	100
1813.449	1.093	1092.8	repeat	Run2	repeat/STIM_009.jpg	99
1817.241	0.79	790.3	repeat	Run2	repeat/STIM_009.jpg	99
1820.637	0.729	729.1	repeat	Run2	repeat/STIM_009.jpg	99
1825.071	0.678	678.0	repeat	Run2	repeat/STIM_010.jpg	99
1827.912	0.841	840.8	repeat	Run2	repeat/STIM_010.jpg	100
1831.775	0.925	924.8	repeat	Run2	repeat/STIM_010.jpg	99
1836.459	0.942	941.8	repeat	Run2	repeat/STIM_010.jpg	100
1839.785	1.164	1164.0	repeat	Run2	repeat/STIM_010.jpg	99
1844.225	1.152	1151.6	repeat	Run2	repeat/STIM_011.jpg	100
1847.858	1.282	1282.4	repeat	Run2	repeat/STIM_011.jpg	99
1851.965	0.813	813.1	repeat	Run2	repeat/STIM_011.jpg	99
1856.547	0.777	776.7	repeat	Run2	repeat/STIM_011.jpg	100
1859.349	1.168	1168.1	repeat	Run2	repeat/STIM_011.jpg	99
1863.525	0.733	733.3	repeat	Run2	repeat/STIM_012.jpg	99
1866.516	1.251	1251.3	repeat	Run2	repeat/STIM_012.jpg	99
1869.803	0.791	791.2	repeat	Run2	repeat/STIM_012.jpg	100
1874.373	0.969	968.7	repeat	Run2	repeat/STIM_012.jpg	99
1878.799	1.334	1333.6	repeat	Run2	repeat/STIM_012.jpg	100
1883.795	1.07	1069.7	repeat	Run2	repeat/STIM_013.jpg	100
1887.748	1.315	1314.9	repeat	Run2	repeat/STIM_013.jpg	99
1891.674	0.952	951.9	repeat	Run2	repeat/STIM_013.jpg	100
1895.573	1.247	1247.2	repeat	Run2	repeat/STIM_013.jpg	99
1900.433	0.835	835.4	repeat	Run2	repeat/STIM_013.jpg	100
1904.49	1.27	1270.2	repeat	Run2	repeat/STIM_014.jpg	100
1909.379	1.123	1122.6	repeat	Run2	repeat/STIM_014.jpg	99
1914.016	0.755	755.4	repeat	Run2	repeat/STIM_014.jpg	99
1916.877	1.24	1240.5	repeat	Run2	repeat/STIM_014.jpg	100
1921.409	1.122	1121.8	repeat	Run2	repeat/STIM_014.jpg	99
1924.634	1.543	1542.6	generate	Run3	generate/STIM_000.jpg	100
1929.811	1.484	1483.6	generate	Run3	generate/STIM_000.jpg	100
1934.006	2.562	2561.9	generate	Run3	generate/STIM_000.jpg	99
1939.395	1.31	1309.7	generate	Run3	generate/STIM_000.jpg	99
1943.06	1.833	1832.9	generate	Run3	generate/STIM_000.jpg	99
1948.076	2.731	2730.7	generate	Run3	generate/STIM_001.jpg	99
1953.229	2.143	2143.3	generate	Run3	generate/STIM_001.jpg	100
1957.943	1.296	1296.2	generate	Run3	generate/STIM_001.jpg	99
1961.4	2.805	2805.1	generate	Run3	generate/STIM_001.jpg	100
1966.903	2.379	2379.4	generate	Run3	generate/STIM_001.jpg	100
1972.265	1.762	1762.2	generate	Run3	generate/STIM_002.jpg	100
1977.646	1.753	1753.0	generate	Run3	generate/STIM_002.jpg	99
1981.636	1.384	1383.9	generate	Run3	generate/STIM_002.jpg	99
1986.913	2.076	2076.2	generate	Run3	generate/STIM_002.jpg	100
1991.752	2.01	2010.1	generate	Run3	generate/STIM_002.jpg	99
1997.39	1.207	1206.7	generate	Run3	generate/STIM_003.jpg	100
2002.47	2.406	2405.9	generate	Run3	generate/STIM_003.jpg	100
2007.38	1.237	1236.6	generate	Run3	generate/STIM_003.jpg	99
2010.803	1.774	1773.5	generate	Run3	generate/STIM_003.jpg	100
2014.748	2.084	2084.1	generate	Run3	generate/STIM_003.jpg	99
2019.038	1.167	1166.8	generate	Run3	generate/STIM_004.jpg	99
2022.877	1.329	1329.3	generate	Run3	generate/STIM_004.jpg	99
2027.582	2.579	2579.3	generate	Run3	generate/STIM_004.jpg	100
2033.067	2.167	2167.2	generate	Run3	generate/STIM_004.jpg	100
2038.174	1.81	1810.1	generate	Run3	generate/STIM_004.jpg	99
2042.875	2.552	2551.9	generate	Run3	generate/STIM_005.jpg	100
2048.462	1.818	1818.4	generate	Run3	generate/STIM_005.jpg	100
2053.246	2.301	2300.6	generate	Run3	generate/STIM_005.jpg	100
2057.836	1.169	1169.4	generate	Run3	generate/STIM_005.jpg	100
2061.427	1.265	1265.2	generate	Run3	generate/STIM_005.jpg	100
2066.611	1.568	1568.1	generate	Run3	generate/STIM_006.jpg	99
2071.003	2.688	2687.5	generate	Run3	generate/STIM_006.jpg	99
2077.083	2.609	2609.4	generate	Run3	generate/STIM_006.jpg	99
2082.348	2.57	2570.0	generate	Run3	generate/STIM_006.jpg	100
2086.946	1.285	1284.8	generate	Run3	generate/STIM_006.jpg	100
2092.147	2.045	2045.3	generate	Run3	generate/STIM_007.jpg	100
2097.577	2.185	2185.3	generate	Run3	generate/STIM_007.jpg	99
2102.12	2.473	2472.7	generate	Run3	generate/STIM_007.jpg	100
2107.408	1.355	1354.9	generate	Run3	generate/STIM_007.jpg	99
2112.221	1.517	1517.4	generate	Run3	generate/STIM_007.jpg	99
2117.022	1.314	1313.6	generate	Run3	generate/STIM_008.jpg	100
2120.841	2.492	2492.0	generate	Run3	generate/STIM_008.jpg	100
2126.156	1.983	1983.4	generate	Run3	generate/STIM_008.jpg	99
2131.942	2.247	2246.9	generate	Run3	generate/STIM_008.jpg	99
2137.948	1.388	1388.2	generate	Run3	generate/STIM_008.jpg	99
2142.955	2.792	2792.5	generate	Run3	generate/STIM_009.jpg	100
2148.318	2.447	2446.6	generate	Run3	generate/STIM_009.jpg	100
2153.552	2.622	2622.2	generate	Run3	generate/STIM_009.jpg	100
2159.718	2.778	2777.9	generate	Run3	generate/STIM_009.jpg	100
2166.265	2.431	2430.7	generate	Run3	generate/STIM_009.jpg	99
2172.107	2.576	2576.3	generate	Run3	generate/STIM_010.jpg	99
2178.551	1.599	1599.3	generate	Run3	generate/STIM_010.jpg	100
2183.706	1.948	1947.6	generate	Run3	generate/STIM_010.jpg	100
2189.538	2.342	2342.5	generate	Run3	generate/STIM_010.jpg	99
2195.657	1.62	1619.8	generate	Run3	generate/STIM_010.jpg	100
2200.887	1.208	1208.4	generate	Run3	generate/STIM_011.jpg	100
2205.811	1.766	1766.0	generate	Run3	generate/STIM_011.jpg	99
2210.661	2.275	2275.3	generate	Run3	generate/STIM_011.jpg	100
2216.359	2.513	2512.7	generate	Run3	generate/STIM_011.jpg	99
2222.017	1.443	1442.7	generate	Run3	generate/STIM_011.jpg	99
2227.435	2.614	2613.9	generate	Run3	generate/STIM_012.jpg	100
2233.807	2.71	2709.5	generate	Run3	generate/STIM_012.jpg	100
2238.749	2.605	2604.9	generate	Run3	generate/STIM_012.jpg	99
2244.546	1.494	1493.5	generate	Run3	generate/STIM_012.jpg	99
2248.983	2.66	2659.5	generate	Run3	generate/STIM_012.jpg	99
2254.936	1.438	1437.9	generate	Run3	generate/STIM_013.jpg	100
2259.038	2.03	2029.8	generate	Run3	generate/STIM_013.jpg	99
2263.358	1.576	1575.5	generate	Run3	generate/STIM_013.jpg	100
2268.605	1.395	1395.2	generate	Run3	generate/STIM_013.jpg	100
2272.014	1.636	1636.1	generate	Run3	generate/STIM_013.jpg	100
2276.422	2.331	2330.6	generate	Run3	generate/STIM_014.jpg	100
2280.923	2.128	2127.6	generate	Run3	generate/STIM_014.jpg	100
2285.975	1.626	1626.2	generate	Run3	generate/STIM_014.jpg	99
2290.465	1.645	1645.4	generate	Run3	generate/STIM_014.jpg	100
2295.916	2.488	2488.5	generate	Run3	generate/STIM_014.jpg	99
2301.649	2.702	2701.5	generate	Run3	generate/STIM_015.jpg	100
2308.143	2.247	2247.1	generate	Run3	generate/STIM_015.jpg	100
2313.082	1.432	1431.7	generate	Run3	generate/STIM_015.jpg	100
2318.017	1.898	1897.5	generate	Run3	generate/STIM_015.jpg	99
2322.391	1.776	1776.3	generate	Run3	generate/STIM_015.jpg	100
2327.404	1.514	1514.2	generate	Run3	generate/STIM_016.jpg	100
2332.433	2.138	2137.9	generate	Run3	generate/STIM_016.jpg	100
2337.62	1.681	1681.2	generate	Run3	generate/STIM_016.jpg	99
2342.426	1.661	1660.8	generate	Run3	generate/STIM_016.jpg	99
2348.087	2.038	2038.3	generate	Run3	generate/STIM_016.jpg	99
2353.849	2.122	2121.5	generate	Run3	generate/STIM_017.jpg	100
2358.907	2.093	2093.0	generate	Run3	generate/STIM_017.jpg	100
2364.475	2.24	2240.5	generate	Run3	generate/STIM_017.jpg	99
2368.874	1.505	1504.8	generate	Run3	generate/STIM_017.jpg	100
2372.996	1.337	1336.7	generate	Run3	generate/STIM_017.jpg	100
2376.806	2.066	2066.4	generate	Run3	generate/STIM_018.jpg	100
2381.501	2.583	2583.1	generate	Run3	generate/STIM_018.jpg	100
2387.934	1.163	1163.2	generate	Run3	generate/STIM_018.jpg	99
2392.754	2.322	2321.9	generate	Run3	generate/STIM_018.jpg	100
2398.46	1.335	1334.6	generate	Run3	generate/STIM_018.jpg	100
2401.798	1.175	1175.0	generate	Run3	generate/STIM_019.jpg	100
2406.912	2.484	2484.3	generate	Run3	generate/STIM_019.jpg	100
2412.808	2.546	2546.2	generate	Run3	generate/STIM_019.jpg	100
2418.37	2.449	2448.8	generate	Run3	generate/STIM_019.jpg	99
2423.758	1.987	1987.4	generate	Run3	generate/STIM_019.jpg	100
2427.917	1.439	1439.0	generate	Run3	generate/STIM_020.jpg	99
2433.082	1.64	1639.5	generate	Run3	generate/STIM_020.jpg	99
2436.981	2.702	2701.6	generate	Run3	generate/STIM_020.jpg	99
2443.057	2.397	2397.0	generate	Run3	generate/STIM_020.jpg	100
2449.403	2.013	2012.5	generate	Run3	generate/STIM_020.jpg	100
2454.839	1.36	1360.0	generate	Run3	generate/STIM_021.jpg	100
2458.613	1.174	1174.2	generate	Run3	generate/STIM_021.jpg	100
2463.484	2.667	2667.3	generate	Run3	generate/STIM_021.jpg	100
2469.065	2.693	2692.7	generate	Run3	generate/STIM_021.jpg	99
2474.307	1.186	1185.8	generate	Run3	generate/STIM_021.jpg	100
2477.77	2.482	2482.3	generate	Run3	generate/STIM_022.jpg	99
2483.662	2.172	2172.5	generate	Run3	generate/STIM_022.jpg	100
2489.579	1.734	1734.5	generate	Run3	generate/STIM_022.jpg	100
2494.42	2.326	2325.5	generate	Run3	generate/STIM_022.jpg	100
2500.258	2.408	2408.3	generate	Run3	generate/STIM_022.jpg	99
2504.848	1.442	1442.5	generate	Run3	generate/STIM_023.jpg	99
2508.655	2.629	2629.4	generate	Run3	generate/STIM_023.jpg	100
2514.89	1.242	1242.0	generate	Run3	generate/STIM_023.jpg	100
2519.683	1.13	1130.2	generate	Run3	generate/STIM_023.jpg	99
2523.927	2.78	2780.3	generate	Run3	generate/STIM_023.jpg	99
2530.708	1.925	1924.6	generate	Run3	generate/STIM_024.jpg	99
2535.922	1.461	1460.9	generate	Run3	generate/STIM_024.jpg	99
2540.931	1.493	1493.0	generate	Run3	generate/STIM_024.jpg	99
2546.094	1.356	1356.3	generate	Run3	generate/STIM_024.jpg	100
2550.838	1.391	1390.8	generate	Run3	generate/STIM_024.jpg	100
2555.468	0.683	682.6	repeat	Run3	repeat/STIM_000.jpg	99
2558.581	0.88	880.5	repeat	Run3	repeat/STIM_000.jpg	100
2563.146	0.774	773.7	repeat	Run3	repeat/STIM_000.jpg	99
2567.435	1.306	1305.6	repeat	Run3	repeat/STIM_000.jpg	100
2572.415	0.859	859.3	repeat	Run3	repeat/STIM_000.jpg	99
2576.808	0.723	723.3	repeat	Run3	repeat/STIM_001.jpg	100
2580.126	1.116	1116.1	repeat	Run3	repeat/STIM_001.jpg	100
2584.659	1.259	1259.4	repeat	Run3	repeat/STIM_001.jpg	99
2588.737	1.309	1309.1	repeat	Run3	repeat/STIM_001.jpg	100
2592.199	0.722	721.9	repeat	Run3	repeat/STIM_001.jpg	100
2595.321	0.79	790.2	repeat	Run3	repeat/STIM_002.jpg	99
2598.719	1.269	1269.2	repeat	Run3	repeat/STIM_002.jpg	100
2603.459	0.936	936.0	repeat	Run3	repeat/STIM_002.jpg	100
2607.836	0.759	758.7	repeat	Run3	repeat/STIM_002.jpg	99
2611.922	0.806	806.5	repeat	Run3	repeat/STIM_002.jpg	99
2615.654	0.981	981.2	repeat	Run3	repeat/STIM_003.jpg	100
2619.424	1.194	1194.2	repeat	Run3	repeat/STIM_003.jpg	99
2624.604	1.087	1087.4	repeat	Run3	repeat/STIM_003.jpg	100
2629.059	0.907	907.0	repeat	Run3	repeat/STIM_003.jpg	100
2633.241	0.848	847.7	repeat	Run3	repeat/STIM_003.jpg	100
2636.519	0.819	818.7	repeat	Run3	repeat/STIM_004.jpg	99
2640.039	0.942	942.5	repeat	Run3	repeat/STIM_004.jpg	100
2644.161	1.002	1002.4	repeat	Run3	repeat/STIM_004.jpg	99
2647.704	0.888	888.5	repeat	Run3	repeat/STIM_004.jpg	99
2651.866	1.179	1179.2	repeat	Run3	repeat/STIM_004.jpg	99
2655.875	1.049	1048.6	repeat	Run3	repeat/STIM_005.jpg	100
2660.379	1.115	1114.7	repeat	Run3	repeat/STIM_005.jpg	100
2665.371	1.1	1099.6	repeat	Run3	repeat/STIM_005.jpg	100
2670.074	1.1	1100.1	repeat	Run3	repeat/STIM_005.jpg	100
2673.868	0.852	851.7	repeat	Run3	repeat/STIM_005.jpg	100
2677.577	0.999	999.1	repeat	Run3	repeat/STIM_006.jpg	100
2682.423	0.844	843.7	repeat	Run3	repeat/STIM_006.jpg	100
2686.861	0.808	808.4	repeat	Run3	repeat/STIM_006.jpg	99
2689.791	0.872	872.3	repeat	Run3	repeat/STIM_006.jpg	99
2694.661	1.25	1249.6	repeat	Run3	repeat/STIM_006.jpg	99
2698.02	1.207	1207.0	repeat	Run3	repeat/STIM_007.jpg	99
2702.535	0.671	670.9	repeat	Run3	repeat/STIM_007.jpg	99
2705.531	0.85	850.4	repeat	Run3	repeat/STIM_007.jpg	100
2709.588	1.216	1216.0	repeat	Run3	repeat/STIM_007.jpg	100
2713.222	1.194	1193.8	repeat	Run3	repeat/STIM_007.jpg	100
2717.416	1.07	1070.5	repeat	Run3	repeat/STIM_008.jpg	99
2721.581	1.034	1033.5	repeat	Run3	repeat/STIM_008.jpg	100
2726.563	0.889	888.6	repeat	Run3	repeat/STIM_008.jpg	100
2729.933	0.986	986.1	repeat	Run3	repeat/STIM_008.jpg	99
2733.748	0.883	882.6	repeat	Run3	repeat/STIM_008.jpg	99
2737.14	0.925	924.7	repeat	Run3	repeat/STIM_009.jpg	99
2741.541	1.246	1245.6	repeat	Run3	repeat/STIM_009.jpg	100
2746.099	1.286	1285.9	repeat	Run3	repeat/STIM_009.jpg	99
2749.745	0.714	714.1	repeat	Run3	repeat/STIM_009.jpg	99
2752.567	0.943	943.0	repeat	Run3	repeat/STIM_009.jpg	100
2756.288	0.751	750.6	repeat	Run3	repeat/STIM_010.jpg	99
2759.084	0.784	783.8	repeat	Run3	repeat/STIM_010.jpg	100
2762.862	1.194	1193.5	repeat	Run3	repeat/STIM_010.jpg	100
2767.755	1.011	1010.8	repeat	Run3	repeat/STIM_010.jpg	99
2772.025	0.897	897.4	repeat	Run3	repeat/STIM_010.jpg	100
2775.243	1.102	1101.9	repeat	Run3	repeat/STIM_011.jpg	99
2779.522	0.726	725.6	repeat	Run3	repeat/STIM_011.jpg	100
2783.756	1.056	1056.0	repeat	Run3	repeat/STIM_011.jpg	100
2787.538	1.063	1063.4	repeat	Run3	repeat/STIM_011.jpg	100
2791.693	1.017	1017.1	repeat	Run3	repeat/STIM_011.jpg	100
2795.702	1.001	1001.3	repeat	Run3	repeat/STIM_012.jpg	99
2800.153	1.066	1065.5	repeat	Run3	repeat/STIM_012.jpg	100
2804.547	1.097	1097.1	repeat	Run3	repeat/STIM_012.jpg	100
2807.947	0.991	991.3	repeat	Run3	repeat/STIM_012.jpg	99
2812.089	1.174	1174.4	repeat	Run3	repeat/STIM_012.jpg	100
2815.513	1.312	1312.5	repeat	Run3	repeat/STIM_013.jpg	100
2819.184	0.829	829.2	repeat	Run3	repeat/STIM_013.jpg	100
2823.219	1.231	1231.1	repeat	Run3	repeat/STIM_013.jpg	99
2827.203	1.287	1287.1	repeat	Run3	repeat/STIM_013.jpg	100
2830.959	1.084	1083.6	repeat	Run3	repeat/STIM_013.jpg	100
2836.018	1.101	1100.7	repeat	Run3	repeat/STIM_014.jpg	99
2840.527	1.066	1066.2	repeat	Run3	repeat/STIM_014.jpg	99
2845.575	0.718	718.1	repeat	Run3	repeat/STIM_014.jpg	100
2849.937	1.214	1213.7	repeat	Run3	repeat/STIM_014.jpg	100
2853.342	1.157	1157.3	repeat	Run3	repeat/STIM_014.jpg	99
2857.194	2.8	2800.0	generate	Run4	generate/STIM_000.jpg	99
2862.873	1.888	1888.1	generate	Run4	generate/STIM_000.jpg	100
2867.798	2.231	2230.9	generate	Run4	generate/STIM_000.jpg	100
2873.751	2.562	2562.2	generate	Run4	generate/STIM_000.jpg	100
2878.994	1.361	1360.9	generate	Run4	generate/STIM_000.jpg	100
2882.843	2.672	2671.9	generate	Run4	generate/STIM_001.jpg	100
2888.551	1.435	1435.1	generate	Run4	generate/STIM_001.jpg	100
2893.32	2.572	2572.4	generate	Run4	generate/STIM_001.jpg	99
2899.026	2.304	2304.3	generate	Run4	generate/STIM_001.jpg	100
2904.736	1.602	1602.1	generate	Run4	generate/STIM_001.jpg	100
2908.724	2.724	2723.5	generate	Run4	generate/STIM_002.jpg	99
2914.646	2.1	2099.8	generate	Run4	generate/STIM_002.jpg	99
2920.232	1.315	1314.9	generate	Run4	generate/STIM_002.jpg	99
2925.108	1.517	1517.3	generate	Run4	generate/STIM_002.jpg	100
2930.242	2.363	2362.7	generate	Run4	generate/STIM_002.jpg	100
2935.425	1.189	1188.9	generate	Run4	generate/STIM_003.jpg	100
2940.484	2.641	2641.1	generate	Run4	generate/STIM_003.jpg	99
2946.773	1.744	1744.5	generate	Run4	generate/STIM_003.jpg	100
2952.191	2.5	2500.3	generate	Run4	generate/STIM_003.jpg	100
2957.188	2.632	2631.6	generate	Run4	generate/STIM_003.jpg	100
2962.967	1.209	1208.7	generate	Run4	generate/STIM_004.jpg	99
2967.171	1.191	1190.7	generate	Run4	generate/STIM_004.jpg	100
2971.903	2.189	2189.1	generate	Run4	generate/STIM_004.jpg	99
2976.155	2.153	2152.7	generate	Run4	generate/STIM_004.jpg	100
2981.861	2.064	2064.4	generate	Run4	generate/STIM_004.jpg	100
2987.827	1.42	1420.5	generate	Run4	generate/STIM_005.jpg	100
2991.912	1.36	1360.2	generate	Run4	generate/STIM_005.jpg	99
2997.01	2.056	2056.5	generate	Run4	generate/STIM_005.jpg	100
3002.914	1.657	1656.9	generate	Run4	generate/STIM_005.jpg	100
3008.381	2.415	2414.6	generate	Run4	generate/STIM_005.jpg	99
3014.439	2.489	2489.4	generate	Run4	generate/STIM_006.jpg	99
3018.969	1.184	1183.5	generate	Run4	generate/STIM_006.jpg	100
3024.033	2.005	2004.7	generate	Run4	generate/STIM_006.jpg	99
3028.68	2.72	2719.8	generate	Run4	generate/STIM_006.jpg	100
3034.27	1.184	1184.2	generate	Run4	generate/STIM_006.jpg	99
3037.995	1.627	1626.6	generate	Run4	generate/STIM_007.jpg	99
3042.258	2.152	2151.9	generate	Run4	generate/STIM_007.jpg	100
3048.329	1.767	1766.8	generate	Run4	generate/STIM_007.jpg	99
3053.772	1.589	1588.7	generate	Run4	generate/STIM_007.jpg	99
3058.863	1.691	1691.2	generate	Run4	generate/STIM_007.jpg	100
3064.534	1.376	1375.8	generate	Run4	generate/STIM_008.jpg	99
3068.781	2.252	2252.5	generate	Run4	generate/STIM_008.jpg	99
3074.529	2.242	2242.5	generate	Run4	generate/STIM_008.jpg	99
3079.124	1.356	1356.3	generate	Run4	generate/STIM_008.jpg	100
3083.526	1.358	1358.1	generate	Run4	generate/STIM_008.jpg	99
3088.854	2.317	2317.0	generate	Run4	generate/STIM_009.jpg	99
3094.511	1.437	1436.7	generate	Run4	generate/STIM_009.jpg	100
3099.917	1.338	1337.8	generate	Run4	generate/STIM_009.jpg	99
3103.306	2.479	2479.0	generate	Run4	generate/STIM_009.jpg	100
3109.739	1.585	1584.7	generate	Run4	generate/STIM_009.jpg	100
3113.823	1.364	1363.6	generate	Run4	generate/STIM_010.jpg	100
3117.22	1.201	1201.2	generate	Run4	generate/STIM_010.jpg	99
3122.342	2.557	2557.0	generate	Run4	generate/STIM_010.jpg	99
3128.867	1.777	1777.2	generate	Run4	generate/STIM_010.jpg	100
3133.376	2.123	2123.3	generate	Run4	generate/STIM_010.jpg	99
3138.09	2.339	2338.7	generate	Run4	generate/STIM_011.jpg	99
3144.385	1.508	1508.1	generate	Run4	generate/STIM_011.jpg	100
3148.957	1.405	1405.2	generate	Run4	generate/STIM_011.jpg	100
3154.229	2.776	2776.2	generate	Run4	generate/STIM_011.jpg	99
3160.932	1.891	1891.3	generate	Run4	generate/STIM_011.jpg	100
3165.046	1.281	1280.7	generate	Run4	generate/STIM_012.jpg	100
3169.373	1.791	1790.6	generate	Run4	generate/STIM_012.jpg	100
3173.43	1.737	1736.6	generate	Run4	generate/STIM_012.jpg	100
3178.854	1.961	1961.3	generate	Run4	generate/STIM_012.jpg	100
3183.308	1.237	1237.1	generate	Run4	generate/STIM_012.jpg	99
3188.301	2.243	2243.1	generate	Run4	generate/STIM_013.jpg	100
3193.628	2.729	2728.6	generate	Run4	generate/STIM_013.jpg	100
3198.598	1.635	1635.0	generate	Run4	generate/STIM_013.jpg	100
3202.959	2.243	2243.3	generate	Run4	generate/STIM_013.jpg	100
3208.651	2.687	2686.8	generate	Run4	generate/STIM_013.jpg	100
3213.605	1.435	1434.9	generate	Run4	generate/STIM_014.jpg	99
3218.916	1.479	1478.6	generate	Run4	generate/STIM_014.jpg	100
3222.626	2.375	2375.3	generate	Run4	generate/STIM_014.jpg	100
3227.354	2.788	2788.4	generate	Run4	generate/STIM_014.jpg	100
3232.243	2.744	2744.3	generate	Run4	generate/STIM_014.jpg	99
3238.411	2.46	2460.1	generate	Run4	generate/STIM_015.jpg	99
3244.629	2.028	2027.9	generate	Run4	generate/STIM_015.jpg	99
3249.679	1.83	1829.9	generate	Run4	generate/STIM_015.jpg	100
3255.078	2.282	2282.2	generate	Run4	generate/STIM_015.jpg	99
3261.275	1.901	1900.6	generate	Run4	generate/STIM_015.jpg	100
3265.848	1.657	1657.4	generate	Run4	generate/STIM_016.jpg	99
3269.995	1.901	1900.9	generate	Run4	generate/STIM_016.jpg	100
3275.18	2.216	2216.4	generate	Run4	generate/STIM_016.jpg	100
3279.633	1.919	1919.2	generate	Run4	generate/STIM_016.jpg	99
3284.351	1.806	1806.2	generate	Run4	generate/STIM_016.jpg	99
3289.411	1.766	1766.5	generate	Run4	generate/STIM_017.jpg	99
3294.978	2.312	2311.5	generate	Run4	generate/STIM_017.jpg	100
3300.718	2.541	2541.4	generate	Run4	generate/STIM_017.jpg	100
3306.946	1.811	1811.2	generate	Run4	generate/STIM_017.jpg	100
3311.519	1.452	1451.6	generate	Run4	generate/STIM_017.jpg	99
3315.556	2.075	2074.7	generate	Run4	generate/STIM_018.jpg	100
3319.983	2.788	2788.4	generate	Run4	generate/STIM_018.jpg	99
3325.808	1.422	1421.6	generate	Run4	generate/STIM_018.jpg	100
3330.764	1.602	1602.1	generate	Run4	generate/STIM_018.jpg	100
3334.398	2.567	2567.0	generate	Run4	generate/STIM_018.jpg	99
3340.213	2.238	2238.1	generate	Run4	generate/STIM_019.jpg	99
3345.544	2.159	2158.6	generate	Run4	generate/STIM_019.jpg	100
3350.214	2.29	2289.6	generate	Run4	generate/STIM_019.jpg	100
3356.489	2.671	2670.6	generate	Run4	generate/STIM_019.jpg	99
3362.991	2.292	2292.1	generate	Run4	generate/STIM_019.jpg	100
3367.965	2.117	2117.4	generate	Run4	generate/STIM_020.jpg	99
3373.73	1.708	1708.4	generate	Run4	generate/STIM_020.jpg	100
3378.84	2.477	2477.0	generate	Run4	generate/STIM_020.jpg	100
3383.423	2.324	2323.5	generate	Run4	generate/STIM_020.jpg	99
3388.818	1.49	1490.0	generate	Run4	generate/STIM_020.jpg	99
3392.385	2.777	2777.0	generate	Run4	generate/STIM_021.jpg	99
3399.15	2.421	2421.0	generate	Run4	generate/STIM_021.jpg	99
3405.035	1.845	1844.6	generate	Run4	generate/STIM_021.jpg	99
3410.769	2.101	2101.4	generate	Run4	generate/STIM_021.jpg	100
3414.908	1.374	1374.3	generate	Run4	generate/STIM_021.jpg	100
3419.3	1.712	1711.6	generate	Run4	generate/STIM_022.jpg	99
3423.22	1.513	1512.7	generate	Run4	generate/STIM_022.jpg	100
3427.071	2.747	2746.7	generate	Run4	generate/STIM_022.jpg	99
3432.246	2.466	2466.1	generate	Run4	generate/STIM_022.jpg	100
3438.073	2.753	2752.7	generate	Run4	generate/STIM_022.jpg	100
3444.667	1.452	1451.6	generate	Run4	generate/STIM_023.jpg	99
3449.023	2.715	2715.4	generate	Run4	generate/STIM_023.jpg	99
3454.162	2.652	2651.5	generate	Run4	generate/STIM_023.jpg	99
3459.571	1.675	1675.2	generate	Run4	generate/STIM_023.jpg	99
3463.46	2.377	2376.9	generate	Run4	generate/STIM_023.jpg	100
3469.068	1.245	1244.6	generate	Run4	generate/STIM_024.jpg	99
3472.665	1.738	1738.3	generate	Run4	generate/STIM_024.jpg	99
3476.531	2.783	2782.6	generate	Run4	generate/STIM_024.jpg	100
3482.957	2.71	2710.1	generate	Run4	generate/STIM_024.jpg	99
3489.057	1.357	1357.1	generate	Run4	generate/STIM_024.jpg	100
3492.637	1.015	1015.4	repeat	Run4	repeat/STIM_000.jpg	100
3495.953	0.697	696.6	repeat	Run4	repeat/STIM_000.jpg	99
3498.992	0.976	976.0	repeat	Run4	repeat/STIM_000.jpg	99
3502.085	1.02	1020.0	repeat	Run4	repeat/STIM_000.jpg	99
3506.581	1.023	1022.7	repeat	Run4	repeat/STIM_000.jpg	99
3510.835	1.102	1101.7	repeat	Run4	repeat/STIM_001.jpg	100
3515.474	1.195	1194.9	repeat	Run4	repeat/STIM_001.jpg	99
3518.889	0.681	681.3	repeat	Run4	repeat/STIM_001.jpg	100
3521.944	1.066	1066.4	repeat	Run4	repeat/STIM_001.jpg	99
3526.787	1.084	1083.7	repeat	Run4	repeat/STIM_001.jpg	99
3531.692	1.099	1098.7	repeat	Run4	repeat/STIM_002.jpg	99
3534.94	0.978	978.3	repeat	Run4	repeat/STIM_002.jpg	100
3539.494	1.148	1148.2	repeat	Run4	repeat/STIM_002.jpg	100
3544.09	1.071	1071.2	repeat	Run4	repeat/STIM_002.jpg	100
3547.599	0.986	985.5	repeat	Run4	repeat/STIM_002.jpg	99
3550.744	1.155	1154.7	repeat	Run4	repeat/STIM_003.jpg	100
3554.541	1.095	1094.8	repeat	Run4	repeat/STIM_003.jpg	100
3558.215	1.136	1136.0	repeat	Run4	repeat/STIM_003.jpg	99
3562.717	1.198	1197.8	repeat	Run4	repeat/STIM_003.jpg	99
3567.911	1.016	1015.6	repeat	Run4	repeat/STIM_003.jpg	99
3570.972	1.193	1193.2	repeat	Run4	repeat/STIM_004.jpg	99
3575.236	0.886	886.4	repeat	Run4	repeat/STIM_004.jpg	100
3579.982	1.102	1102.1	repeat	Run4	repeat/STIM_004.jpg	100
3584.391	0.926	926.5	repeat	Run4	repeat/STIM_004.jpg	99
3588.376	1.062	1062.0	repeat	Run4	repeat/STIM_004.jpg	100
3592.342	0.694	694.2	repeat	Run4	repeat/STIM_005.jpg	99
3596.041	1.118	1118.1	repeat	Run4	repeat/STIM_005.jpg	99
3599.815	0.847	846.7	repeat	Run4	repeat/STIM_005.jpg	100
3603.723	0.712	712.2	repeat	Run4	repeat/STIM_005.jpg	99
3606.639	0.93	930.5	repeat	Run4	repeat/STIM_005.jpg	100
3611.438	0.838	837.9	repeat	Run4	repeat/STIM_006.jpg	99
3616.135	1.021	1021.1	repeat	Run4	repeat/STIM_006.jpg	99
3619.768	1.084	1084.4	repeat	Run4	repeat/STIM_006.jpg	100
3624.56	1.064	1064.4	repeat	Run4	repeat/STIM_006.jpg	99
3628.825	1.076	1075.5	repeat	Run4	repeat/STIM_006.jpg	100
3632.004	0.975	975.2	repeat	Run4	repeat/STIM_007.jpg	100
3636.848	1.272	1272.0	repeat	Run4	repeat/STIM_007.jpg	99
3641.946	1.25	1250.0	repeat	Run4	repeat/STIM_007.jpg	100
3647.101	1.012	1011.7	repeat	Run4	repeat/STIM_007.jpg	99
3652.036	1.291	1291.2	repeat	Run4	repeat/STIM_007.jpg	100
3655.963	0.966	966.4	repeat	Run4	repeat/STIM_008.jpg	99
3659.165	1.127	1126.6	repeat	Run4	repeat/STIM_008.jpg	99
3663.514	0.865	864.6	repeat	Run4	repeat/STIM_008.jpg	99
3667.733	0.847	847.2	repeat	Run4	repeat/STIM_008.jpg	100
3672.42	1.162	1162.4	repeat	Run4	repeat/STIM_008.jpg	100
3676.02	0.888	888.2	repeat	Run4	repeat/STIM_009.jpg	99
3679.087	0.808	808.4	repeat	Run4	repeat/STIM_009.jpg	99
3683.09	1.225	1224.6	repeat	Run4	repeat/STIM_009.jpg	100
3688.083	0.935	935.2	repeat	Run4	repeat/STIM_009.jpg	99
3691.461	1.323	1322.7	repeat	Run4	repeat/STIM_009.jpg	99
3695.52	0.731	730.9	repeat	Run4	repeat/STIM_010.jpg	100
3698.334	0.916	915.8	repeat	Run4	repeat/STIM_010.jpg	99
3701.888	0.766	765.8	repeat	Run4	repeat/STIM_010.jpg	100
3705.315	0.85	849.9	repeat	Run4	repeat/STIM_010.jpg	100
3708.993	0.847	847.0	repeat	Run4	repeat/STIM_010.jpg	99
3712.426	1.107	1106.6	repeat	Run4	repeat/STIM_011.jpg	100
3717.285	0.769	768.7	repeat	Run4	repeat/STIM_011.jpg	99
3721.552	1.284	1284.0	repeat	Run4	repeat/STIM_011.jpg	99
3724.98	1.127	1127.0	repeat	Run4	repeat/STIM_011.jpg	99
3728.963	1.124	1123.8	repeat	Run4	repeat/STIM_011.jpg	99
3733.122	0.886	886.0	repeat	Run4	repeat/STIM_012.jpg	99
3736.333	0.98	980.3	repeat	Run4	repeat/STIM_012.jpg	100
3739.86	0.945	945.2	repeat	Run4	repeat/STIM_012.jpg	100
3742.848	1.245	1244.8	repeat	Run4	repeat/STIM_012.jpg	99
3746.787	0.868	867.5	repeat	Run4	repeat/STIM_012.jpg	99
3751.436	0.702	702.0	repeat	Run4	repeat/STIM_013.jpg	100
3754.681	0.762	762.1	repeat	Run4	repeat/STIM_013.jpg	99
3757.656	1.023	1023.1	repeat	Run4	repeat/STIM_013.jpg	100
3761.791	0.874	873.8	repeat	Run4	repeat/STIM_013.jpg	99
3765.689	1.032	1032.1	repeat	Run4	repeat/STIM_013.jpg	100
3769.105	0.731	731.0	repeat	Run4	repeat/STIM_014.jpg	99
3773.687	1.161	1161.2	repeat	Run4	repeat/STIM_014.jpg	100
3778.141	1.036	1035.8	repeat	Run4	repeat/STIM_014.jpg	100
3782.653	0.789	788.7	repeat	Run4	repeat/STIM_014.jpg	99
3787.257	1.077	1076.9	repeat	Run4	repeat/STIM_014.jpg	100
