onset	duration	accuracy	trial_type	learning_stage	stimulus
0.0	1.22	correct	generate	Run1	generate/STIM_000.jpg
4.766	2.326	correct	generate	Run1	generate/STIM_000.jpg
10.446	2.203	correct	generate	Run1	generate/STIM_000.jpg
15.229	1.38	correct	generate	Run1	generate/STIM_000.jpg
19.605	2.35	correct	generate	Run1	generate/STIM_000.jpg
24.253	1.784	correct	generate	Run1	generate/STIM_001.jpg
29.907	2.226	correct	generate	Run1	generate/STIM_001.jpg
34.758	1.707	correct	generate	Run1	generate/STIM_001.jpg
39.728	2.132	incorrect	generate	Run1	generate/STIM_001.jpg
45.664	2.062	correct	generate	Run1	generate/STIM_001.jpg
51.494	1.571	correct	generate	Run1	generate/STIM_002.jpg
55.688	1.2	correct	generate	Run1	generate/STIM_002.jpg
59.686	1.762	correct	generate	Run1	generate/STIM_002.jpg
64.685	1.139	correct	generate	Run1	generate/STIM_002.jpg
69.488	1.95	incorrect	generate	Run1	generate/STIM_002.jpg
74.141	1.96	correct	generate	Run1	generate/STIM_003.jpg
80.05	2.4	correct	generate	Run1	generate/STIM_003.jpg
86.162	1.289	correct	generate	Run1	generate/STIM_003.jpg
90.523	1.073	correct	generate	Run1	generate/STIM_003.jpg
94.377	2.418	correct	generate	Run1	generate/STIM_003.jpg
100.559	1.273	incorrect	generate	Run1	generate/STIM_004.jpg
104.157	2.11	correct	generate	Run1	generate/STIM_004.jpg
109.989	1.958	correct	generate	Run1	generate/STIM_004.jpg
115.815	1.106	incorrect	generate	Run1	generate/STIM_004.jpg
119.831	2.029	incorrect	generate	Run1	generate/STIM_004.jpg
124.997	1.991	correct	generate	Run1	generate/STIM_005.jpg
129.623	2.249	correct	generate	Run1	generate/STIM_005.jpg
135.373	1.581	correct	generate	Run1	generate/STIM_005.jpg
140.18	1.28	correct	generate	Run1	generate/STIM_005.jpg
143.528	2.165	correct	generate	Run1	generate/STIM_005.jpg
148.894	1.489	incorrect	generate	Run1	generate/STIM_006.jpg
152.9	1.3	correct	generate	Run1	generate/STIM_006.jpg
157.831	2.579	correct	generate	Run1	generate/STIM_006.jpg
162.846	2.431	correct	generate	Run1	generate/STIM_006.jpg
168.452	2.172	correct	generate	Run1	generate/STIM_006.jpg
173.697	1.499	correct	generate	Run1	generate/STIM_007.jpg
177.882	1.204	incorrect	generate	Run1	generate/STIM_007.jpg
181.735	1.236	correct	generate	Run1	generate/STIM_007.jpg
185.769	1.196	correct	generate	Run1	generate/STIM_007.jpg
190.002	2.411	correct	generate	Run1	generate/STIM_007.jpg
195.997	1.656	correct	generate	Run1	generate/STIM_008.jpg
201.369	2.182	correct	generate	Run1	generate/STIM_008.jpg
207.18	2.134	correct	generate	Run1	generate/STIM_008.jpg
211.95	1.668	correct	generate	Run1	generate/STIM_008.jpg
216.283	1.679	correct	generate	Run1	generate/STIM_008.jpg
221.636	2.648	correct	generate	Run1	generate/STIM_009.jpg
228.211	2.13	correct	generate	Run1	generate/STIM_009.jpg
232.988	1.574	correct	generate	Run1	generate/STIM_009.jpg
238.446	1.231	correct	generate	Run1	generate/STIM_009.jpg
242.089	1.243	correct	generate	Run1	generate/STIM_009.jpg
247.12	2.273	correct	generate	Run1	generate/STIM_010.jpg
252.543	1.599	correct	generate	Run1	generate/STIM_010.jpg
257.727	2.104	correct	generate	Run1	generate/STIM_010.jpg
262.033	1.865	correct	generate	Run1	generate/STIM_010.jpg
267.802	2.274	correct	generate	Run1	generate/STIM_010.jpg
272.977	1.237	correct	generate	Run1	generate/STIM_011.jpg
276.852	2.201	correct	generate	Run1	generate/STIM_011.jpg
281.808	2.053	incorrect	generate	Run1	generate/STIM_011.jpg
286.063	1.189	correct	generate	Run1	generate/STIM_011.jpg
289.887	1.915	correct	generate	Run1	generate/STIM_011.jpg
295.766	2.804	correct	generate	Run1	generate/STIM_012.jpg
301.794	1.947	incorrect	generate	Run1	generate/STIM_012.jpg
306.218	1.294	incorrect	generate	Run1	generate/STIM_012.jpg
309.806	1.525	correct	generate	Run1	generate/STIM_012.jpg
314.419	2.063	incorrect	generate	Run1	generate/STIM_012.jpg
319.879	2.244	correct	generate	Run1	generate/STIM_013.jpg
324.149	1.934	correct	generate	Run1	generate/STIM_013.jpg
328.207	2.619	correct	generate	Run1	generate/STIM_013.jpg
333.355	1.163	correct	generate	Run1	generate/STIM_013.jpg
338.385	1.207	correct	generate	Run1	generate/STIM_013.jpg
343.409	2.272	correct	generate	Run1	generate/STIM_014.jpg
349.258	1.764	incorrect	generate	Run1	generate/STIM_014.jpg
354.25	2.453	correct	generate	Run1	generate/STIM_014.jpg
360.106	1.866	incorrect	generate	Run1	generate/STIM_014.jpg
364.504	1.598	correct	generate	Run1	generate/STIM_014.jpg
368.348	1.278	correct	generate	Run1	generate/STIM_015.jpg
372.453	2.32	correct	generate	Run1	generate/STIM_015.jpg
377.61	1.613	correct	generate	Run1	generate/STIM_015.jpg
383.186	2.377	correct	generate	Run1	generate/STIM_015.jpg
387.606	1.93	correct	generate	Run1	generate/STIM_015.jpg
391.694	1.77	incorrect	generate	Run1	generate/STIM_016.jpg
395.518	2.538	correct	generate	Run1	generate/STIM_016.jpg
401.215	2.209	correct	generate	Run1	generate/STIM_016.jpg
406.737	1.106	correct	generate	Run1	generate/STIM_016.jpg
410.629	2.041	correct	generate	Run1	generate/STIM_016.jpg
414.89	1.508	correct	generate	Run1	generate/STIM_017.jpg
420.367	2.618	correct	generate	Run1	generate/STIM_017.jpg
425.979	1.812	incorrect	generate	Run1	generate/STIM_017.jpg
429.884	1.377	correct	generate	Run1	generate/STIM_017.jpg
433.705	1.833	correct	generate	Run1	generate/STIM_017.jpg
438.059	2.656	correct	generate	Run1	generate/STIM_018.jpg
443.067	1.844	correct	generate	Run1	generate/STIM_018.jpg
447.945	1.121	correct	generate	Run1	generate/STIM_018.jpg
452.198	2.435	incorrect	generate	Run1	generate/STIM_018.jpg
457.915	1.63	correct	generate	Run1	generate/STIM_018.jpg
461.91	1.782	correct	generate	Run1	generate/STIM_019.jpg
465.706	2.521	correct	generate	Run1	generate/STIM_019.jpg
471.384	1.978	correct	generate	Run1	generate/STIM_019.jpg
476.926	1.028	correct	generate	Run1	generate/STIM_019.jpg
480.538	1.318	correct	generate	Run1	generate/STIM_019.jpg
484.418	1.779	correct	generate	Run1	generate/STIM_020.jpg
488.796	1.92	incorrect	generate	Run1	generate/STIM_020.jpg
494.494	2.644	correct	generate	Run1	generate/STIM_020.jpg
499.297	2.107	correct	generate	Run1	generate/STIM_020.jpg
505.335	2.122	correct	generate	Run1	generate/STIM_020.jpg
510.997	1.423	correct	generate	Run1	generate/STIM_021.jpg
515.518	1.47	correct	generate	Run1	generate/STIM_021.jpg
519.213	1.167	correct	generate	Run1	generate/STIM_021.jpg
523.274	1.734	correct	generate	Run1	generate/STIM_021.jpg
527.814	2.224	incorrect	generate	Run1	generate/STIM_021.jpg
533.269	2.059	incorrect	generate	Run1	generate/STIM_022.jpg
537.962	1.932	correct	generate	Run1	generate/STIM_022.jpg
542.986	2.104	correct	generate	Run1	generate/STIM_022.jpg
547.84	1.45	correct	generate	Run1	generate/STIM_022.jpg
553.178	1.301	incorrect	generate	Run1	generate/STIM_022.jpg
558.161	2.254	correct	generate	Run1	generate/STIM_023.jpg
564.067	1.78	incorrect	generate	Run1	generate/STIM_023.jpg
567.88	1.576	correct	generate	Run1	generate/STIM_023.jpg
573.23	1.954	correct	generate	Run1	generate/STIM_023.jpg
578.2	1.258	correct	generate	Run1	generate/STIM_023.jpg
582.964	1.955	correct	generate	Run1	generate/STIM_024.jpg
587.476	2.44	incorrect	generate	Run1	generate/STIM_024.jpg
592.602	1.244	correct	generate	Run1	generate/STIM_024.jpg
596.73	1.098	correct	generate	Run1	generate/STIM_024.jpg
599.903	1.682	correct	generate	Run1	generate/STIM_024.jpg
605.398	0.66	correct	repeat	Run1	repeat/STIM_000.jpg
610.023	0.641	correct	repeat	Run1	repeat/STIM_000.jpg
613.003	0.645	correct	repeat	Run1	repeat/STIM_000.jpg
615.777	0.601	correct	repeat	Run1	repeat/STIM_000.jpg
618.921	0.65	correct	repeat	Run1	repeat/STIM_000.jpg
622.43	0.734	correct	repeat	Run1	repeat/STIM_001.jpg
626.349	0.898	correct	repeat	Run1	repeat/STIM_001.jpg
631.124	0.972	correct	repeat	Run1	repeat/STIM_001.jpg
635.792	0.585	correct	repeat	Run1	repeat/STIM_001.jpg
639.243	0.626	correct	repeat	Run1	repeat/STIM_001.jpg
642.226	0.727	correct	repeat	Run1	repeat/STIM_002.jpg
645.743	0.785	correct	repeat	Run1	repeat/STIM_002.jpg
648.634	0.749	correct	repeat	Run1	repeat/STIM_002.jpg
651.579	0.841	correct	repeat	Run1	repeat/STIM_002.jpg
655.099	0.534	correct	repeat	Run1	repeat/STIM_002.jpg
659.178	0.807	correct	repeat	Run1	repeat/STIM_003.jpg
662.481	0.79	correct	repeat	Run1	repeat/STIM_003.jpg
666.897	0.769	correct	repeat	Run1	repeat/STIM_003.jpg
671.302	0.899	incorrect	repeat	Run1	repeat/STIM_003.jpg
675.728	1.003	correct	repeat	Run1	repeat/STIM_003.jpg
679.246	0.928	correct	repeat	Run1	repeat/STIM_004.jpg
682.633	0.796	correct	repeat	Run1	repeat/STIM_004.jpg
686.102	0.972	correct	repeat	Run1	repeat/STIM_004.jpg
690.586	0.963	correct	repeat	Run1	repeat/STIM_004.jpg
694.342	0.672	correct	repeat	Run1	repeat/STIM_004.jpg
697.766	0.551	correct	repeat	Run1	repeat/STIM_005.jpg
701.06	0.655	correct	repeat	Run1	repeat/STIM_005.jpg
704.103	0.693	correct	repeat	Run1	repeat/STIM_005.jpg
708.141	0.725	correct	repeat	Run1	repeat/STIM_005.jpg
710.901	0.965	correct	repeat	Run1	repeat/STIM_005.jpg
715.412	0.552	correct	repeat	Run1	repeat/STIM_006.jpg
719.207	0.622	incorrect	repeat	Run1	repeat/STIM_006.jpg
723.623	0.814	correct	repeat	Run1	repeat/STIM_006.jpg
727.48	0.934	correct	repeat	Run1	repeat/STIM_006.jpg
730.902	0.639	correct	repeat	Run1	repeat/STIM_006.jpg
734.787	0.902	correct	repeat	Run1	repeat/STIM_007.jpg
738.524	0.675	incorrect	repeat	Run1	repeat/STIM_007.jpg
742.857	0.716	correct	repeat	Run1	repeat/STIM_007.jpg
747.15	0.885	correct	repeat	Run1	repeat/STIM_007.jpg
750.951	0.588	correct	repeat	Run1	repeat/STIM_007.jpg
753.88	0.587	correct	repeat	Run1	repeat/STIM_008.jpg
757.373	0.9	correct	repeat	Run1	repeat/STIM_008.jpg
761.026	0.626	correct	repeat	Run1	repeat/STIM_008.jpg
764.283	0.568	correct	repeat	Run1	repeat/STIM_008.jpg
768.695	0.85	correct	repeat	Run1	repeat/STIM_008.jpg
771.953	0.927	correct	repeat	Run1	repeat/STIM_009.jpg
775.209	0.85	correct	repeat	Run1	repeat/STIM_009.jpg
779.549	0.584	correct	repeat	Run1	repeat/STIM_009.jpg
783.494	0.635	correct	repeat	Run1	repeat/STIM_009.jpg
786.624	0.646	correct	repeat	Run1	repeat/STIM_009.jpg
790.279	0.849	correct	repeat	Run1	repeat/STIM_010.jpg
793.883	0.673	correct	repeat	Run1	repeat/STIM_010.jpg
798.162	0.758	correct	repeat	Run1	repeat/STIM_010.jpg
801.267	0.717	correct	repeat	Run1	repeat/STIM_010.jpg
805.256	0.917	correct	repeat	Run1	repeat/STIM_010.jpg
808.619	0.531	correct	repeat	Run1	repeat/STIM_011.jpg
812.698	1.006	correct	repeat	Run1	repeat/STIM_011.jpg
817.129	0.7	correct	repeat	Run1	repeat/STIM_011.jpg
821.032	0.627	correct	repeat	Run1	repeat/STIM_011.jpg
825.636	0.927	correct	repeat	Run1	repeat/STIM_011.jpg
828.913	0.89	correct	repeat	Run1	repeat/STIM_012.jpg
833.146	0.779	correct	repeat	Run1	repeat/STIM_012.jpg
836.807	0.694	correct	repeat	Run1	repeat/STIM_012.jpg
839.769	0.975	correct	repeat	Run1	repeat/STIM_012.jpg
843.809	0.949	incorrect	repeat	Run1	repeat/STIM_012.jpg
848.065	0.567	correct	repeat	Run1	repeat/STIM_013.jpg
850.778	0.917	correct	repeat	Run1	repeat/STIM_013.jpg
854.06	0.804	correct	repeat	Run1	repeat/STIM_013.jpg
857.012	0.667	incorrect	repeat	Run1	repeat/STIM_013.jpg
861.521	0.549	correct	repeat	Run1	repeat/STIM_013.jpg
866.04	0.938	correct	repeat	Run1	repeat/STIM_014.jpg
869.596	0.547	correct	repeat	Run1	repeat/STIM_014.jpg
872.2	0.777	correct	repeat	Run1	repeat/STIM_014.jpg
875.211	0.568	correct	repeat	Run1	repeat/STIM_014.jpg
878.154	0.617	correct	repeat	Run1	repeat/STIM_014.jpg
881.119	1.099	incorrect	generate	Run2	generate/STIM_000.jpg
885.179	2.077	correct	generate	Run2	generate/STIM_000.jpg
890.464	1.994	correct	generate	Run2	generate/STIM_000.jpg
895.185	1.065	incorrect	generate	Run2	generate/STIM_000.jpg
900.231	0.87	correct	generate	Run2	generate/STIM_000.jpg
904.966	2.168	incorrect	generate	Run2	generate/STIM_001.jpg
909.536	1.724	correct	generate	Run2	generate/STIM_001.jpg
914.099	2.042	correct	generate	Run2	generate/STIM_001.jpg
919.019	1.563	correct	generate	Run2	generate/STIM_001.jpg
923.472	1.978	correct	generate	Run2	generate/STIM_001.jpg
928.291	1.654	incorrect	generate	Run2	generate/STIM_002.jpg
933.4	2.165	correct	generate	Run2	generate/STIM_002.jpg
937.787	1.346	correct	generate	Run2	generate/STIM_002.jpg
942.77	1.983	correct	generate	Run2	generate/STIM_002.jpg
948.04	1.705	correct	generate	Run2	generate/STIM_002.jpg
952.048	1.719	correct	generate	Run2	generate/STIM_003.jpg
957.035	1.412	incorrect	generate	Run2	generate/STIM_003.jpg
962.047	1.415	correct	generate	Run2	generate/STIM_003.jpg
966.974	1.626	correct	generate	Run2	generate/STIM_003.jpg
972.529	1.229	correct	generate	Run2	generate/STIM_003.jpg
976.138	2.416	correct	generate	Run2	generate/STIM_004.jpg
980.961	1.027	correct	generate	Run2	generate/STIM_004.jpg
985.31	1.711	correct	generate	Run2	generate/STIM_004.jpg
989.445	1.728	correct	generate	Run2	generate/STIM_004.jpg
994.868	1.3	correct	generate	Run2	generate/STIM_004.jpg
1000.118	1.586	correct	generate	Run2	generate/STIM_005.jpg
1004.689	1.5	correct	generate	Run2	generate/STIM_005.jpg
1008.275	0.921	incorrect	generate	Run2	generate/STIM_005.jpg
1012.987	1.33	correct	generate	Run2	generate/STIM_005.jpg
1017.726	1.15	correct	generate	Run2	generate/STIM_005.jpg
1021.284	2.381	correct	generate	Run2	generate/STIM_006.jpg
1026.61	2.385	correct	generate	Run2	generate/STIM_006.jpg
1031.053	1.463	correct	generate	Run2	generate/STIM_006.jpg
1034.853	1.856	correct	generate	Run2	generate/STIM_006.jpg
1039.354	1.975	correct	generate	Run2	generate/STIM_006.jpg
1045.231	1.415	correct	generate	Run2	generate/STIM_007.jpg
1049.252	1.825	incorrect	generate	Run2	generate/STIM_007.jpg
1054.713	1.377	correct	generate	Run2	generate/STIM_007.jpg
1060.05	1.798	correct	generate	Run2	generate/STIM_007.jpg
1065.743	1.948	correct	generate	Run2	generate/STIM_007.jpg
1070.604	1.976	incorrect	generate	Run2	generate/STIM_008.jpg
1075.536	2.391	correct	generate	Run2	generate/STIM_008.jpg
1081.104	1.364	correct	generate	Run2	generate/STIM_008.jpg
1085.983	0.993	correct	generate	Run2	generate/STIM_008.jpg
1090.601	1.391	correct	generate	Run2	generate/STIM_008.jpg
1095.081	1.932	correct	generate	Run2	generate/STIM_009.jpg
1099.907	1.734	correct	generate	Run2	generate/STIM_009.jpg
1103.89	1.809	correct	generate	Run2	generate/STIM_009.jpg
1107.767	1.853	correct	generate	Run2	generate/STIM_009.jpg
1112.722	0.906	correct	generate	Run2	generate/STIM_009.jpg
1117.243	2.465	correct	generate	Run2	generate/STIM_010.jpg
1122.309	1.449	correct	generate	Run2	generate/STIM_010.jpg
1126.92	1.117	incorrect	generate	Run2	generate/STIM_010.jpg
1130.786	1.041	correct	generate	Run2	generate/STIM_010.jpg
1134.55	1.049	correct	generate	Run2	generate/STIM_010.jpg
1139.303	1.452	incorrect	generate	Run2	generate/STIM_011.jpg
1143.603	1.097	correct	generate	Run2	generate/STIM_011.jpg
1147.653	2.042	correct	generate	Run2	generate/STIM_011.jpg
1153.408	1.789	incorrect	generate	Run2	generate/STIM_011.jpg
1157.204	1.072	correct	generate	Run2	generate/STIM_011.jpg
1160.844	1.707	correct	generate	Run2	generate/STIM_012.jpg
1164.54	2.336	correct	generate	Run2	generate/STIM_012.jpg
1170.171	1.484	correct	generate	Run2	generate/STIM_012.jpg
1174.645	1.633	correct	generate	Run2	generate/STIM_012.jpg
1178.618	1.056	correct	generate	Run2	generate/STIM_012.jpg
1183.618	2.315	correct	generate	Run2	generate/STIM_013.jpg
1189.435	1.748	correct	generate	Run2	generate/STIM_013.jpg
1194.641	2.035	incorrect	generate	Run2	generate/STIM_013.jpg
1200.587	1.258	incorrect	generate	Run2	generate/STIM_013.jpg
1203.961	1.394	correct	generate	Run2	generate/STIM_013.jpg
1208.882	2.485	incorrect	generate	Run2	generate/STIM_014.jpg
1213.474	2.059	incorrect	generate	Run2	generate/STIM_014.jpg
1219.1	1.972	correct	generate	Run2	generate/STIM_014.jpg
1224.171	1.412	correct	generate	Run2	generate/STIM_014.jpg
1228.289	1.701	correct	generate	Run2	generate/STIM_014.jpg
1233.303	2.309	correct	generate	Run2	generate/STIM_015.jpg
1237.907	2.374	correct	generate	Run2	generate/STIM_015.jpg
1242.952	2.121	correct	generate	Run2	generate/STIM_015.jpg
1247.374	1.648	correct	generate	Run2	generate/STIM_015.jpg
1252.367	1.64	correct	generate	Run2	generate/STIM_015.jpg
1256.401	2.308	correct	generate	Run2	generate/STIM_016.jpg
1261.312	1.432	correct	generate	Run2	generate/STIM_016.jpg
1266.397	1.477	correct	generate	Run2	generate/STIM_016.jpg
1271.263	1.75	correct	generate	Run2	generate/STIM_016.jpg
1275.869	1.909	incorrect	generate	Run2	generate/STIM_016.jpg
1281.02	2.281	correct	generate	Run2	generate/STIM_017.jpg
1287.217	2.27	incorrect	generate	Run2	generate/STIM_017.jpg
1291.591	2.057	correct	generate	Run2	generate/STIM_017.jpg
1296.009	1.126	correct	generate	Run2	generate/STIM_017.jpg
1300.994	1.8	correct	generate	Run2	generate/STIM_017.jpg
1304.873	1.419	correct	generate	Run2	generate/STIM_018.jpg
1310.017	1.64	correct	generate	Run2	generate/STIM_018.jpg
1315.471	0.909	incorrect	generate	Run2	generate/STIM_018.jpg
1318.869	1.093	correct	generate	Run2	generate/STIM_018.jpg
1321.976	1.736	correct	generate	Run2	generate/STIM_018.jpg
1326.662	1.502	incorrect	generate	Run2	generate/STIM_019.jpg
1331.159	1.735	correct	generate	Run2	generate/STIM_019.jpg
1336.545	1.25	correct	generate	Run2	generate/STIM_019.jpg
1341.341	2.075	correct	generate	Run2	generate/STIM_019.jpg
1345.482	1.903	correct	generate	Run2	generate/STIM_019.jpg
1349.597	1.261	correct	generate	Run2	generate/STIM_020.jpg
1353.712	2.029	correct	generate	Run2	generate/STIM_020.jpg
1359.363	1.668	incorrect	generate	Run2	generate/STIM_020.jpg
1363.513	1.788	incorrect	generate	Run2	generate/STIM_020.jpg
1367.766	1.156	correct	generate	Run2	generate/STIM_020.jpg
1371.807	2.482	correct	generate	Run2	generate/STIM_021.jpg
1376.634	2.188	correct	generate	Run2	generate/STIM_021.jpg
1380.986	2.11	correct	generate	Run2	generate/STIM_021.jpg
1385.681	1.494	correct	generate	Run2	generate/STIM_021.jpg
1390.051	1.986	correct	generate	Run2	generate/STIM_021.jpg
1394.352	2.059	correct	generate	Run2	generate/STIM_022.jpg
1398.423	1.067	correct	generate	Run2	generate/STIM_022.jpg
1403.092	1.325	correct	generate	Run2	generate/STIM_022.jpg
1408.008	1.044	correct	generate	Run2	generate/STIM_022.jpg
1411.617	1.789	correct	generate	Run2	generate/STIM_022.jpg
1416.889	2.139	correct	generate	Run2	generate/STIM_023.jpg
1421.619	1.145	correct	generate	Run2	generate/STIM_023.jpg
1426.196	2.228	incorrect	generate	Run2	generate/STIM_023.jpg
1431.14	1.174	correct	generate	Run2	generate/STIM_023.jpg
1435.783	1.238	correct	generate	Run2	generate/STIM_023.jpg
1440.459	2.063	incorrect	generate	Run2	generate/STIM_024.jpg
1446.413	1.656	incorrect	generate	Run2	generate/STIM_024.jpg
1451.068	0.945	correct	generate	Run2	generate/STIM_024.jpg
1454.546	1.421	correct	generate	Run2	generate/STIM_024.jpg
1459.623	1.809	correct	generate	Run2	generate/STIM_024.jpg
1464.886	0.824	correct	repeat	Run2	repeat/STIM_000.jpg
1469.293	0.927	correct	repeat	Run2	repeat/STIM_000.jpg
1473.575	0.794	correct	repeat	Run2	repeat/STIM_000.jpg
1477.179	0.683	correct	repeat	Run2	repeat/STIM_000.jpg
1479.87	0.718	correct	repeat	Run2	repeat/STIM_000.jpg
1483.313	0.527	correct	repeat	Run2	repeat/STIM_001.jpg
1486.556	0.771	correct	repeat	Run2	repeat/STIM_001.jpg
1489.802	0.659	correct	repeat	Run2	repeat/STIM_001.jpg
1492.599	0.833	correct	repeat	Run2	repeat/STIM_001.jpg
1496.992	0.883	correct	repeat	Run2	repeat/STIM_001.jpg
1501.324	0.907	correct	repeat	Run2	repeat/STIM_002.jpg
1504.6	0.94	correct	repeat	Run2	repeat/STIM_002.jpg
1508.366	0.566	correct	repeat	Run2	repeat/STIM_002.jpg
1511.471	0.876	correct	repeat	Run2	repeat/STIM_002.jpg
1516.294	0.781	correct	repeat	Run2	repeat/STIM_002.jpg
1520.419	0.784	correct	repeat	Run2	repeat/STIM_003.jpg
1524.995	0.934	correct	repeat	Run2	repeat/STIM_003.jpg
1529.159	0.76	correct	repeat	Run2	repeat/STIM_003.jpg
1533.768	0.592	correct	repeat	Run2	repeat/STIM_003.jpg
1538.136	0.709	correct	repeat	Run2	repeat/STIM_003.jpg
1542.357	0.83	correct	repeat	Run2	repeat/STIM_004.jpg
1547.065	1.004	correct	repeat	Run2	repeat/STIM_004.jpg
1551.708	0.549	correct	repeat	Run2	repeat/STIM_004.jpg
1556.086	0.589	correct	repeat	Run2	repeat/STIM_004.jpg
1559.582	0.812	correct	repeat	Run2	repeat/STIM_004.jpg
1564.194	0.734	correct	repeat	Run2	repeat/STIM_005.jpg
1567.367	0.515	correct	repeat	Run2	repeat/STIM_005.jpg
1571.379	0.592	correct	repeat	Run2	repeat/STIM_005.jpg
1575.039	0.935	correct	repeat	Run2	repeat/STIM_005.jpg
1579.671	0.73	correct	repeat	Run2	repeat/STIM_005.jpg
1582.996	0.855	correct	repeat	Run2	repeat/STIM_006.jpg
1586.321	0.626	correct	repeat	Run2	repeat/STIM_006.jpg
1590.2	0.803	correct	repeat	Run2	repeat/STIM_006.jpg
1593.044	0.552	correct	repeat	Run2	repeat/STIM_006.jpg
1597.314	0.588	correct	repeat	Run2	repeat/STIM_006.jpg
1600.11	0.753	correct	repeat	Run2	repeat/STIM_007.jpg
1603.491	0.84	correct	repeat	Run2	repeat/STIM_007.jpg
1608.073	1.007	incorrect	repeat	Run2	repeat/STIM_007.jpg
1611.683	0.533	correct	repeat	Run2	repeat/STIM_007.jpg
1616.134	0.915	correct	repeat	Run2	repeat/STIM_007.jpg
1619.66	0.723	incorrect	repeat	Run2	repeat/STIM_008.jpg
1623.679	0.61	correct	repeat	Run2	repeat/STIM_008.jpg
1626.408	0.77	correct	repeat	Run2	repeat/STIM_008.jpg
1630.05	0.957	correct	repeat	Run2	repeat/STIM_008.jpg
1634.247	0.578	correct	repeat	Run2	repeat/STIM_008.jpg
1638.099	0.897	correct	repeat	Run2	repeat/STIM_009.jpg
1641.73	0.96	correct	repeat	Run2	repeat/STIM_009.jpg
1645.013	0.82	correct	repeat	Run2	repeat/STIM_009.jpg
1648.013	0.576	correct	repeat	Run2	repeat/STIM_009.jpg
1652.054	0.903	incorrect	repeat	Run2	repeat/STIM_009.jpg
1655.122	0.706	correct	repeat	Run2	repeat/STIM_010.jpg
1658.082	0.582	correct	repeat	Run2	repeat/STIM_010.jpg
1662.353	0.999	correct	repeat	Run2	repeat/STIM_010.jpg
1667.315	0.528	incorrect	repeat	Run2	repeat/STIM_010.jpg
1671.187	0.65	correct	repeat	Run2	repeat/STIM_010.jpg
1673.875	0.688	correct	repeat	Run2	repeat/STIM_011.jpg
1677.811	0.798	correct	repeat	Run2	repeat/STIM_011.jpg
1681.728	0.52	correct	repeat	Run2	repeat/STIM_011.jpg
1684.972	0.942	correct	repeat	Run2	repeat/STIM_011.jpg
1688.912	0.943	correct	repeat	Run2	repeat/STIM_011.jpg
1692.09	0.697	correct	repeat	Run2	repeat/STIM_012.jpg
1695.742	0.874	correct	repeat	Run2	repeat/STIM_012.jpg
1699.513	0.542	correct	repeat	Run2	repeat/STIM_012.jpg
1703.447	0.652	correct	repeat	Run2	repeat/STIM_012.jpg
1706.967	0.933	correct	repeat	Run2	repeat/STIM_012.jpg
1710.928	0.711	correct	repeat	Run2	repeat/STIM_013.jpg
1713.953	0.79	correct	repeat	Run2	repeat/STIM_013.jpg
1717.52	0.667	correct	repeat	Run2	repeat/STIM_013.jpg
1720.65	0.509	correct	repeat	Run2	repeat/STIM_013.jpg
1724.554	0.744	correct	repeat	Run2	repeat/STIM_013.jpg
1728.754	0.815	correct	repeat	Run2	repeat/STIM_014.jpg
1732.224	0.9	correct	repeat	Run2	repeat/STIM_014.jpg
1736.555	0.617	correct	repeat	Run2	repeat/STIM_014.jpg
1739.497	0.933	correct	repeat	Run2	repeat/STIM_014.jpg
1742.988	0.52	correct	repeat	Run2	repeat/STIM_014.jpg
1746.142	1.666	correct	generate	Run3	generate/STIM_000.jpg
1750.84	1.103	correct	generate	Run3	generate/STIM_000.jpg
1755.66	1.45	correct	generate	Run3	generate/STIM_000.jpg
1759.552	0.954	correct	generate	Run3	generate/STIM_000.jpg
1762.803	1.535	correct	generate	Run3	generate/STIM_000.jpg
1767.635	0.997	incorrect	generate	Run3	generate/STIM_001.jpg
1772.556	1.383	correct	generate	Run3	generate/STIM_001.jpg
1776.98	1.553	correct	generate	Run3	generate/STIM_001.jpg
1781.707	1.929	correct	generate	Run3	generate/STIM_001.jpg
1785.796	1.271	correct	generate	Run3	generate/STIM_001.jpg
1790.367	1.291	correct	generate	Run3	generate/STIM_002.jpg
1794.753	1.843	correct	generate	Run3	generate/STIM_002.jpg
1798.78	1.26	correct	generate	Run3	generate/STIM_002.jpg
1803.926	1.974	correct	generate	Run3	generate/STIM_002.jpg
1809.729	1.933	correct	generate	Run3	generate/STIM_002.jpg
1815.43	1.22	correct	generate	Run3	generate/STIM_003.jpg
1819.669	1.387	correct	generate	Run3	generate/STIM_003.jpg
1823.193	1.683	correct	generate	Run3	generate/STIM_003.jpg
1827.961	1.773	correct	generate	Run3	generate/STIM_003.jpg
1831.862	1.62	correct	generate	Run3	generate/STIM_003.jpg
1835.515	1.028	correct	generate	Run3	generate/STIM_004.jpg
1839.082	1.784	correct	generate	Run3	generate/STIM_004.jpg
1842.905	2.048	incorrect	generate	Run3	generate/STIM_004.jpg
1848.379	0.867	correct	generate	Run3	generate/STIM_004.jpg
1852.376	1.189	correct	generate	Run3	generate/STIM_004.jpg
1856.277	1.57	correct	generate	Run3	generate/STIM_005.jpg
1860.373	1.838	incorrect	generate	Run3	generate/STIM_005.jpg
1864.574	1.305	correct	generate	Run3	generate/STIM_005.jpg
1869.161	0.875	correct	generate	Run3	generate/STIM_005.jpg
1873.464	1.857	correct	generate	Run3	generate/STIM_005.jpg
1877.827	1.038	correct	generate	Run3	generate/STIM_006.jpg
1882.492	1.472	correct	generate	Run3	generate/STIM_006.jpg
1886.431	1.922	correct	generate	Run3	generate/STIM_006.jpg
1890.871	1.48	correct	generate	Run3	generate/STIM_006.jpg
1895.402	1.326	correct	generate	Run3	generate/STIM_006.jpg
1899.346	1.9	correct	generate	Run3	generate/STIM_007.jpg
1903.523	1.559	correct	generate	Run3	generate/STIM_007.jpg
1908.953	1.798	correct	generate	Run3	generate/STIM_007.jpg
1913.537	1.33	correct	generate	Run3	generate/STIM_007.jpg
1917.807	1.668	correct	generate	Run3	generate/STIM_007.jpg
1921.749	1.038	correct	generate	Run3	generate/STIM_008.jpg
1925.045	1.397	correct	generate	Run3	generate/STIM_008.jpg
1929.919	1.039	correct	generate	Run3	generate/STIM_008.jpg
1933.352	1.885	correct	generate	Run3	generate/STIM_008.jpg
1938.142	0.987	correct	generate	Run3	generate/STIM_008.jpg
1943.026	1.35	correct	generate	Run3	generate/STIM_009.jpg
1947.895	1.416	correct	generate	Run3	generate/STIM_009.jpg
1952.51	1.394	incorrect	generate	Run3	generate/STIM_009.jpg
1956.773	1.566	correct	generate	Run3	generate/STIM_009.jpg
1962.324	1.3	correct	generate	Run3	generate/STIM_009.jpg
1966.826	1.691	correct	generate	Run3	generate/STIM_010.jpg
1972.22	0.974	correct	generate	Run3	generate/STIM_010.jpg
1976.539	0.882	correct	generate	Run3	generate/STIM_010.jpg
1979.54	1.508	correct	generate	Run3	generate/STIM_010.jpg
1983.068	1.943	incorrect	generate	Run3	generate/STIM_010.jpg
1988.354	1.534	correct	generate	Run3	generate/STIM_011.jpg
1992.457	1.502	correct	generate	Run3	generate/STIM_011.jpg
1997.246	1.048	correct	generate	Run3	generate/STIM_011.jpg
2002.166	2.03	correct	generate	Run3	generate/STIM_011.jpg
2006.478	1.8	correct	generate	Run3	generate/STIM_011.jpg
2010.691	1.368	incorrect	generate	Run3	generate/STIM_012.jpg
2014.802	1.041	correct	generate	Run3	generate/STIM_012.jpg
2018.94	1.626	correct	generate	Run3	generate/STIM_012.jpg
2023.38	1.901	correct	generate	Run3	generate/STIM_012.jpg
2027.961	1.898	incorrect	generate	Run3	generate/STIM_012.jpg
2032.067	1.088	correct	generate	Run3	generate/STIM_013.jpg
2035.747	1.494	correct	generate	Run3	generate/STIM_013.jpg
2039.345	2.079	correct	generate	Run3	generate/STIM_013.jpg
2045.175	1.518	correct	generate	Run3	generate/STIM_013.jpg
2049.172	1.889	correct	generate	Run3	generate/STIM_013.jpg
2053.602	1.793	incorrect	generate	Run3	generate/STIM_014.jpg
2058.441	1.409	correct	generate	Run3	generate/STIM_014.jpg
2062.443	0.995	correct	generate	Run3	generate/STIM_014.jpg
2067.07	1.612	correct	generate	Run3	generate/STIM_014.jpg
2072.443	2.059	correct	generate	Run3	generate/STIM_014.jpg
2077.505	1.929	correct	generate	Run3	generate/STIM_015.jpg
2081.92	1.484	correct	generate	Run3	generate/STIM_015.jpg
2086.824	1.253	correct	generate	Run3	generate/STIM_015.jpg
2091.101	0.888	correct	generate	Run3	generate/STIM_015.jpg
2095.865	1.664	correct	generate	Run3	generate/STIM_015.jpg
2101.096	1.966	correct	generate	Run3	generate/STIM_016.jpg
2105.132	1.282	correct	generate	Run3	generate/STIM_016.jpg
2109.952	1.973	correct	generate	Run3	generate/STIM_016.jpg
2115.541	1.532	correct	generate	Run3	generate/STIM_016.jpg
2120.066	1.72	correct	generate	Run3	generate/STIM_016.jpg
2124.25	1.255	correct	generate	Run3	generate/STIM_017.jpg
2129.282	0.934	correct	generate	Run3	generate/STIM_017.jpg
2133.668	1.957	correct	generate	Run3	generate/STIM_017.jpg
2138.941	1.131	correct	generate	Run3	generate/STIM_017.jpg
2143.949	1.397	correct	generate	Run3	generate/STIM_017.jpg
2148.524	1.694	correct	generate	Run3	generate/STIM_018.jpg
2152.978	2.059	correct	generate	Run3	generate/STIM_018.jpg
2157.951	2.077	correct	generate	Run3	generate/STIM_018.jpg
2162.21	2.01	correct	generate	Run3	generate/STIM_018.jpg
2167.491	0.857	correct	generate	Run3	generate/STIM_018.jpg
2170.673	1.798	correct	generate	Run3	generate/STIM_019.jpg
2176.013	1.255	correct	generate	Run3	generate/STIM_019.jpg
2180.146	1.366	incorrect	generate	Run3	generate/STIM_019.jpg
2184.393	1.427	correct	generate	Run3	generate/STIM_019.jpg
2188.42	0.887	correct	generate	Run3	generate/STIM_019.jpg
2192.52	1.396	correct	generate	Run3	generate/STIM_020.jpg
2196.074	1.549	correct	generate	Run3	generate/STIM_020.jpg
2201.248	1.218	correct	generate	Run3	generate/STIM_020.jpg
2206.367	1.246	correct	generate	Run3	generate/STIM_020.jpg
2209.735	1.268	correct	generate	Run3	generate/STIM_020.jpg
2213.961	1.255	correct	generate	Run3	generate/STIM_021.jpg
2218.892	1.309	correct	generate	Run3	generate/STIM_021.jpg
2222.249	1.141	correct	generate	Run3	generate/STIM_021.jpg
2226.482	1.054	incorrect	generate	Run3	generate/STIM_021.jpg
2230.584	1.868	correct	generate	Run3	generate/STIM_021.jpg
2236.005	0.973	correct	generate	Run3	generate/STIM_022.jpg
2239.544	1.381	correct	generate	Run3	generate/STIM_022.jpg
2244.665	2.113	correct	generate	Run3	generate/STIM_022.jpg
2249.466	2.016	correct	generate	Run3	generate/STIM_022.jpg
2255.292	2.029	correct	generate	Run3	generate/STIM_022.jpg
2261.259	1.262	correct	generate	Run3	generate/STIM_023.jpg
2264.575	1.15	correct	generate	Run3	generate/STIM_023.jpg
2267.736	1.82	correct	generate	Run3	generate/STIM_023.jpg
2272.289	2.009	correct	generate	Run3	generate/STIM_023.jpg
2276.992	1.33	correct	generate	Run3	generate/STIM_023.jpg
2282.063	1.723	incorrect	generate	Run3	generate/STIM_024.jpg
2286.167	1.7	correct	generate	Run3	generate/STIM_024.jpg
2291.128	1.344	correct	generate	Run3	generate/STIM_024.jpg
2295.164	1.383	correct	generate	Run3	generate/STIM_024.jpg
2298.899	0.856	correct	generate	Run3	generate/STIM_024.jpg
2303.64	0.803	correct	repeat	Run3	repeat/STIM_000.jpg
2306.579	0.535	correct	repeat	Run3	repeat/STIM_000.jpg
2309.492	0.888	correct	repeat	Run3	repeat/STIM_000.jpg
2314.274	0.824	correct	repeat	Run3	repeat/STIM_000.jpg
2317.486	0.897	correct	repeat	Run3	repeat/STIM_000.jpg
2321.906	0.852	correct	repeat	Run3	repeat/STIM_001.jpg
2324.979	0.758	incorrect	repeat	Run3	repeat/STIM_001.jpg
2328.585	0.933	correct	repeat	Run3	repeat/STIM_001.jpg
2333.057	0.737	correct	repeat	Run3	repeat/STIM_001.jpg
2336.537	0.72	correct	repeat	Run3	repeat/STIM_001.jpg
2339.62	0.812	correct	repeat	Run3	repeat/STIM_002.jpg
2342.555	0.859	correct	repeat	Run3	repeat/STIM_002.jpg
2345.925	0.978	correct	repeat	Run3	repeat/STIM_002.jpg
2349.842	0.561	correct	repeat	Run3	repeat/STIM_002.jpg
2352.612	0.86	incorrect	repeat	Run3	repeat/STIM_002.jpg
2357.328	0.677	correct	repeat	Run3	repeat/STIM_003.jpg
2360.429	0.865	correct	repeat	Run3	repeat/STIM_003.jpg
2363.378	0.698	correct	repeat	Run3	repeat/STIM_003.jpg
2367.071	0.622	correct	repeat	Run3	repeat/STIM_003.jpg
2370.194	0.545	correct	repeat	Run3	repeat/STIM_003.jpg
2374.46	0.892	correct	repeat	Run3	repeat/STIM_004.jpg
2378.623	0.666	incorrect	repeat	Run3	repeat/STIM_004.jpg
2382.475	0.856	incorrect	repeat	Run3	repeat/STIM_004.jpg
2387.166	0.662	correct	repeat	Run3	repeat/STIM_004.jpg
2390.676	0.763	incorrect	repeat	Run3	repeat/STIM_004.jpg
2394.238	0.803	correct	repeat	Run3	repeat/STIM_005.jpg
2398.643	0.806	correct	repeat	Run3	repeat/STIM_005.jpg
2401.903	0.759	correct	repeat	Run3	repeat/STIM_005.jpg
2406.166	0.578	correct	repeat	Run3	repeat/STIM_005.jpg
2410.543	0.943	correct	repeat	Run3	repeat/STIM_005.jpg
2415.281	0.789	correct	repeat	Run3	repeat/STIM_006.jpg
2418.888	0.805	correct	repeat	Run3	repeat/STIM_006.jpg
2422.005	0.528	correct	repeat	Run3	repeat/STIM_006.jpg
2424.557	0.562	correct	repeat	Run3	repeat/STIM_006.jpg
2427.379	0.507	correct	repeat	Run3	repeat/STIM_006.jpg
2430.214	0.975	correct	repeat	Run3	repeat/STIM_007.jpg
2434.076	0.812	incorrect	repeat	Run3	repeat/STIM_007.jpg
2437.818	0.828	correct	repeat	Run3	repeat/STIM_007.jpg
2442.614	0.999	correct	repeat	Run3	repeat/STIM_007.jpg
2447.084	0.648	correct	repeat	Run3	repeat/STIM_007.jpg
2451.094	0.537	correct	repeat	Run3	repeat/STIM_008.jpg
2453.791	0.645	correct	repeat	Run3	repeat/STIM_008.jpg
2458.083	0.848	correct	repeat	Run3	repeat/STIM_008.jpg
2461.082	0.589	correct	repeat	Run3	repeat/STIM_008.jpg
2464.471	0.788	correct	repeat	Run3	repeat/STIM_008.jpg
2467.705	0.76	correct	repeat	Run3	repeat/STIM_009.jpg
2470.955	0.621	correct	repeat	Run3	repeat/STIM_009.jpg
2475.438	0.996	correct	repeat	Run3	repeat/STIM_009.jpg
2479.245	0.99	correct	repeat	Run3	repeat/STIM_009.jpg
2483.873	0.775	correct	repeat	Run3	repeat/STIM_009.jpg
2488.323	0.865	correct	repeat	Run3	repeat/STIM_010.jpg
2492.88	0.727	correct	repeat	Run3	repeat/STIM_010.jpg
2496.865	0.654	correct	repeat	Run3	repeat/STIM_010.jpg
2499.916	0.998	correct	repeat	Run3	repeat/STIM_010.jpg
2504.348	1.006	correct	repeat	Run3	repeat/STIM_010.jpg
2507.526	0.573	correct	repeat	Run3	repeat/STIM_011.jpg
2511.846	0.885	correct	repeat	Run3	repeat/STIM_011.jpg
2515.554	0.83	correct	repeat	Run3	repeat/STIM_011.jpg
2519.867	0.683	correct	repeat	Run3	repeat/STIM_011.jpg
2522.896	0.813	correct	repeat	Run3	repeat/STIM_011.jpg
2526.174	0.896	correct	repeat	Run3	repeat/STIM_012.jpg
2529.387	0.523	correct	repeat	Run3	repeat/STIM_012.jpg
2532.53	0.828	correct	repeat	Run3	repeat/STIM_012.jpg
2536.179	0.926	correct	repeat	Run3	repeat/STIM_012.jpg
2539.223	0.714	correct	repeat	Run3	repeat/STIM_012.jpg
2543.85	0.887	correct	repeat	Run3	repeat/STIM_013.jpg
2548.397	0.694	correct	repeat	Run3	repeat/STIM_013.jpg
2551.928	0.695	correct	repeat	Run3	repeat/STIM_013.jpg
2555.571	0.978	correct	repeat	Run3	repeat/STIM_013.jpg
2559.626	0.607	correct	repeat	Run3	repeat/STIM_013.jpg
2562.794	0.537	correct	repeat	Run3	repeat/STIM_014.jpg
2566.747	0.735	correct	repeat	Run3	repeat/STIM_014.jpg
2570.211	0.52	correct	repeat	Run3	repeat/STIM_014.jpg
2573.21	0.867	correct	repeat	Run3	repeat/STIM_014.jpg
2577.028	0.786	correct	repeat	Run3	repeat/STIM_014.jpg
2580.338	0.89	correct	generate	Run4	generate/STIM_000.jpg
2584.1	1.875	correct	generate	Run4	generate/STIM_000.jpg
2588.797	1.887	correct	generate	Run4	generate/STIM_000.jpg
2594.641	1.657	correct	generate	Run4	generate/STIM_000.jpg
2599.637	2.098	correct	generate	Run4	generate/STIM_000.jpg
2604.438	1.16	correct	generate	Run4	generate/STIM_001.jpg
2608.673	1.529	correct	generate	Run4	generate/STIM_001.jpg
2612.654	1.789	correct	generate	Run4	generate/STIM_001.jpg
2617.005	1.449	correct	generate	Run4	generate/STIM_001.jpg
2621.744	1.866	correct	generate	Run4	generate/STIM_001.jpg
2625.667	1.535	correct	generate	Run4	generate/STIM_002.jpg
2629.945	1.567	correct	generate	Run4	generate/STIM_002.jpg
2633.696	1.348	correct	generate	Run4	generate/STIM_002.jpg
2637.49	1.975	correct	generate	Run4	generate/STIM_002.jpg
2642.688	2.114	correct	generate	Run4	generate/STIM_002.jpg
2648.262	0.982	correct	generate	Run4	generate/STIM_003.jpg
2652.12	2.11	correct	generate	Run4	generate/STIM_003.jpg
2657.98	1.82	correct	generate	Run4	generate/STIM_003.jpg
2662.712	1.609	correct	generate	Run4	generate/STIM_003.jpg
2667.155	1.12	correct	generate	Run4	generate/STIM_003.jpg
2671.688	1.669	correct	generate	Run4	generate/STIM_004.jpg
2676.181	1.355	correct	generate	Run4	generate/STIM_004.jpg
2680.592	1.128	correct	generate	Run4	generate/STIM_004.jpg
2684.128	0.981	correct	generate	Run4	generate/STIM_004.jpg
2689.013	0.89	incorrect	generate	Run4	generate/STIM_004.jpg
2692.937	1.688	correct	generate	Run4	generate/STIM_005.jpg
2696.789	1.556	correct	generate	Run4	generate/STIM_005.jpg
2700.934	0.974	correct	generate	Run4	generate/STIM_005.jpg
2705.727	1.756	incorrect	generate	Run4	generate/STIM_005.jpg
2710.918	1.549	correct	generate	Run4	generate/STIM_005.jpg
2716.162	1.952	correct	generate	Run4	generate/STIM_006.jpg
2721.777	1.769	correct	generate	Run4	generate/STIM_006.jpg
2725.983	0.961	correct	generate	Run4	generate/STIM_006.jpg
2729.602	1.093	correct	generate	Run4	generate/STIM_006.jpg
2732.998	0.872	correct	generate	Run4	generate/STIM_006.jpg
2736.404	1.828	correct	generate	Run4	generate/STIM_007.jpg
2741.591	1.379	correct	generate	Run4	generate/STIM_007.jpg
2746.302	1.919	correct	generate	Run4	generate/STIM_007.jpg
2751.774	0.876	correct	generate	Run4	generate/STIM_007.jpg
2755.904	1.179	correct	generate	Run4	generate/STIM_007.jpg
2759.574	2.07	correct	generate	Run4	generate/STIM_008.jpg
2763.902	1.559	correct	generate	Run4	generate/STIM_008.jpg
2769.421	2.069	correct	generate	Run4	generate/STIM_008.jpg
2773.654	0.953	correct	generate	Run4	generate/STIM_008.jpg
2778.108	1.966	correct	generate	Run4	generate/STIM_008.jpg
2783.538	1.783	correct	generate	Run4	generate/STIM_009.jpg
2787.499	1.748	correct	generate	Run4	generate/STIM_009.jpg
2791.336	1.831	correct	generate	Run4	generate/STIM_009.jpg
2795.703	1.021	correct	generate	Run4	generate/STIM_009.jpg
2799.048	0.932	correct	generate	Run4	generate/STIM_009.jpg
2802.082	1.373	incorrect	generate	Run4	generate/STIM_010.jpg
2806.578	2.063	correct	generate	Run4	generate/STIM_010.jpg
2810.879	1.274	correct	generate	Run4	generate/STIM_010.jpg
2815.877	1.308	correct	generate	Run4	generate/STIM_010.jpg
2821.151	1.674	correct	generate	Run4	generate/STIM_010.jpg
2825.818	1.222	correct	generate	Run4	generate/STIM_011.jpg
2829.251	1.387	correct	generate	Run4	generate/STIM_011.jpg
2833.892	1.851	correct	generate	Run4	generate/STIM_011.jpg
2839.341	1.566	incorrect	generate	Run4	generate/STIM_011.jpg
2843.845	1.966	correct	generate	Run4	generate/STIM_011.jpg
2848.936	1.153	correct	generate	Run4	generate/STIM_012.jpg
2854.034	2.101	correct	generate	Run4	generate/STIM_012.jpg
2858.527	1.2	correct	generate	Run4	generate/STIM_012.jpg
2863.256	1.985	correct	generate	Run4	generate/STIM_012.jpg
2868.222	1.055	correct	generate	Run4	generate/STIM_012.jpg
2873.196	1.626	correct	generate	Run4	generate/STIM_013.jpg
2878.18	1.482	correct	generate	Run4	generate/STIM_013.jpg
2882.07	1.572	correct	generate	Run4	generate/STIM_013.jpg
2887.028	1.406	correct	generate	Run4	generate/STIM_013.jpg
2892.043	1.458	correct	generate	Run4	generate/STIM_013.jpg
2896.733	1.947	correct	generate	Run4	generate/STIM_014.jpg
2901.964	1.497	correct	generate	Run4	generate/STIM_014.jpg
2905.521	1.394	correct	generate	Run4	generate/STIM_014.jpg
2909.11	1.439	correct	generate	Run4	generate/STIM_014.jpg
2912.907	0.871	correct	generate	Run4	generate/STIM_014.jpg
2916.903	0.971	correct	generate	Run4	generate/STIM_015.jpg
2920.735	1.513	correct	generate	Run4	generate/STIM_015.jpg
2924.901	0.991	correct	generate	Run4	generate/STIM_015.jpg
2929.77	0.884	correct	generate	Run4	generate/STIM_015.jpg
2932.936	1.698	correct	generate	Run4	generate/STIM_015.jpg
2937.689	1.492	correct	generate	Run4	generate/STIM_016.jpg
2942.246	1.261	correct	generate	Run4	generate/STIM_016.jpg
2946.757	1.113	correct	generate	Run4	generate/STIM_016.jpg
2949.979	1.622	correct	generate	Run4	generate/STIM_016.jpg
2954.096	1.968	correct	generate	Run4	generate/STIM_016.jpg
2959.756	1.892	correct	generate	Run4	generate/STIM_017.jpg
2964.178	1.111	incorrect	generate	Run4	generate/STIM_017.jpg
2968.403	1.552	correct	generate	Run4	generate/STIM_017.jpg
2973.51	1.307	correct	generate	Run4	generate/STIM_017.jpg
2978.772	1.808	correct	generate	Run4	generate/STIM_017.jpg
2982.868	1.593	correct	generate	Run4	generate/STIM_018.jpg
2987.126	1.139	correct	generate	Run4	generate/STIM_018.jpg
2991.982	1.482	correct	generate	Run4	generate/STIM_018.jpg
2995.859	1.509	correct	generate	Run4	generate/STIM_018.jpg
3000.231	2.013	correct	generate	Run4	generate/STIM_018.jpg
3006.163	1.552	correct	generate	Run4	generate/STIM_019.jpg
3011.37	1.114	correct	generate	Run4	generate/STIM_019.jpg
3014.513	0.993	correct	generate	Run4	generate/STIM_019.jpg
3018.643	1.414	correct	generate	Run4	generate/STIM_019.jpg
3022.576	1.163	correct	generate	Run4	generate/STIM_019.jpg
3026.502	1.357	correct	generate	Run4	generate/STIM_020.jpg
3030.476	1.216	correct	generate	Run4	generate/STIM_020.jpg
3033.954	1.731	correct	generate	Run4	generate/STIM_020.jpg
3038.538	1.44	correct	generate	Run4	generate/STIM_020.jpg
3042.776	2.015	correct	generate	Run4	generate/STIM_020.jpg
3047.681	1.788	correct	generate	Run4	generate/STIM_021.jpg
3051.459	1.699	correct	generate	Run4	generate/STIM_021.jpg
3055.268	1.376	correct	generate	Run4	generate/STIM_021.jpg
3058.807	1.831	correct	generate	Run4	generate/STIM_021.jpg
3064.486	1.732	correct	generate	Run4	generate/STIM_021.jpg
3068.878	0.902	correct	generate	Run4	generate/STIM_022.jpg
3072.586	1.512	correct	generate	Run4	generate/STIM_022.jpg
3077.006	0.861	correct	generate	Run4	generate/STIM_022.jpg
3081.767	1.42	correct	generate	Run4	generate/STIM_022.jpg
3086.148	1.115	correct	generate	Run4	generate/STIM_022.jpg
3089.485	1.801	correct	generate	Run4	generate/STIM_023.jpg
3093.414	1.186	correct	generate	Run4	generate/STIM_023.jpg
3097.749	1.276	correct	generate	Run4	generate/STIM_023.jpg
3101.244	1.272	correct	generate	Run4	generate/STIM_023.jpg
3104.993	1.92	correct	generate	Run4	generate/STIM_023.jpg
3110.223	1.48	correct	generate	Run4	generate/STIM_024.jpg
3114.863	0.889	incorrect	generate	Run4	generate/STIM_024.jpg
3118.277	1.8	correct	generate	Run4	generate/STIM_024.jpg
3123.61	1.358	correct	generate	Run4	generate/STIM_024.jpg
3127.762	1.534	correct	generate	Run4	generate/STIM_024.jpg
3131.479	0.938	correct	repeat	Run4	repeat/STIM_000.jpg
3134.874	0.931	incorrect	repeat	Run4	repeat/STIM_000.jpg
3138.555	0.985	correct	repeat	Run4	repeat/STIM_000.jpg
3142.042	0.961	correct	repeat	Run4	repeat/STIM_000.jpg
3146.98	0.507	correct	repeat	Run4	repeat/STIM_000.jpg
3149.869	0.673	correct	repeat	Run4	repeat/STIM_001.jpg
3152.642	0.639	correct	repeat	Run4	repeat/STIM_001.jpg
3156.462	0.639	correct	repeat	Run4	repeat/STIM_001.jpg
3160.154	0.843	correct	repeat	Run4	repeat/STIM_001.jpg
3164.811	0.613	correct	repeat	Run4	repeat/STIM_001.jpg
3168.772	0.692	correct	repeat	Run4	repeat/STIM_002.jpg
3173.072	0.803	correct	repeat	Run4	repeat/STIM_002.jpg
3176.551	0.868	correct	repeat	Run4	repeat/STIM_002.jpg
3181.277	0.693	correct	repeat	Run4	repeat/STIM_002.jpg
3185.79	0.797	correct	repeat	Run4	repeat/STIM_002.jpg
3188.745	0.695	correct	repeat	Run4	repeat/STIM_003.jpg
3191.554	0.698	correct	repeat	Run4	repeat/STIM_003.jpg
3194.775	0.623	correct	repeat	Run4	repeat/STIM_003.jpg
3198.919	0.591	correct	repeat	Run4	repeat/STIM_003.jpg
3203.1	0.965	correct	repeat	Run4	repeat/STIM_003.jpg
3206.692	0.964	correct	repeat	Run4	repeat/STIM_004.jpg
3211.028	0.781	correct	repeat	Run4	repeat/STIM_004.jpg
3214.58	0.743	correct	repeat	Run4	repeat/STIM_004.jpg
3218.042	0.993	correct	repeat	Run4	repeat/STIM_004.jpg
3221.757	0.696	correct	repeat	Run4	repeat/STIM_004.jpg
3225.015	0.974	correct	repeat	Run4	repeat/STIM_005.jpg
3229.425	0.823	correct	repeat	Run4	repeat/STIM_005.jpg
3232.714	0.745	correct	repeat	Run4	repeat/STIM_005.jpg
3235.625	0.748	correct	repeat	Run4	repeat/STIM_005.jpg
3238.9	0.853	correct	repeat	Run4	repeat/STIM_005.jpg
3242.54	0.708	correct	repeat	Run4	repeat/STIM_006.jpg
3246.254	0.779	correct	repeat	Run4	repeat/STIM_006.jpg
3250.247	0.737	correct	repeat	Run4	repeat/STIM_006.jpg
3254.298	0.669	correct	repeat	Run4	repeat/STIM_006.jpg
3258.127	0.97	correct	repeat	Run4	repeat/STIM_006.jpg
3261.513	0.726	correct	repeat	Run4	repeat/STIM_007.jpg
3265.346	0.696	correct	repeat	Run4	repeat/STIM_007.jpg
3268.814	0.848	correct	repeat	Run4	repeat/STIM_007.jpg
3271.658	0.618	correct	repeat	Run4	repeat/STIM_007.jpg
3275.701	0.701	correct	repeat	Run4	repeat/STIM_007.jpg
3278.425	0.816	correct	repeat	Run4	repeat/STIM_008.jpg
3282.196	0.651	correct	repeat	Run4	repeat/STIM_008.jpg
3286.457	0.996	correct	repeat	Run4	repeat/STIM_008.jpg
3290.997	0.739	correct	repeat	Run4	repeat/STIM_008.jpg
3294.898	0.523	correct	repeat	Run4	repeat/STIM_008.jpg
3297.45	0.784	correct	repeat	Run4	repeat/STIM_009.jpg
3302.012	0.646	correct	repeat	Run4	repeat/STIM_009.jpg
3305.808	0.995	correct	repeat	Run4	repeat/STIM_009.jpg
3308.989	0.711	correct	repeat	Run4	repeat/STIM_009.jpg
3312.305	0.631	correct	repeat	Run4	repeat/STIM_009.jpg
3316.611	0.559	correct	repeat	Run4	repeat/STIM_010.jpg
3319.917	0.883	correct	repeat	Run4	repeat/STIM_010.jpg
3324.316	0.718	correct	repeat	Run4	repeat/STIM_010.jpg
3327.498	0.972	correct	repeat	Run4	repeat/STIM_010.jpg
3330.615	0.945	correct	repeat	Run4	repeat/STIM_010.jpg
3335.063	0.997	correct	repeat	Run4	repeat/STIM_011.jpg
3338.1	0.623	correct	repeat	Run4	repeat/STIM_011.jpg
3341.782	0.677	correct	repeat	Run4	repeat/STIM_011.jpg
3344.682	0.923	correct	repeat	Run4	repeat/STIM_011.jpg
3348.541	0.966	correct	repeat	Run4	repeat/STIM_011.jpg
3352.477	0.705	correct	repeat	Run4	repeat/STIM_012.jpg
3355.994	0.689	correct	repeat	Run4	repeat/STIM_012.jpg
3359.55	0.628	correct	repeat	Run4	repeat/STIM_012.jpg
3363.028	0.96	correct	repeat	Run4	repeat/STIM_012.jpg
3366.149	0.948	incorrect	repeat	Run4	repeat/STIM_012.jpg
3369.354	0.58	correct	repeat	Run4	repeat/STIM_013.jpg
3373.163	0.846	correct	repeat	Run4	repeat/STIM_013.jpg
3377.743	0.792	incorrect	repeat	Run4	repeat/STIM_013.jpg
3382.463	0.959	correct	repeat	Run4	repeat/STIM_013.jpg
3387.21	0.974	correct	repeat	Run4	repeat/STIM_013.jpg
3391.753	0.516	correct	repeat	Run4	repeat/STIM_014.jpg
3394.753	0.936	correct	repeat	Run4	repeat/STIM_014.jpg
3398.915	0.821	correct	repeat	Run4	repeat/STIM_014.jpg
3402.568	0.937	incorrect	repeat	Run4	repeat/STIM_014.jpg
3407.185	0.798	correct	repeat	Run4	repeat/STIM_014.jpg
