onset	duration	response_time_ms	trial_type	learning_stage	stimulus	response_port
0.0	1.22	1219.8	generate	Run1	generate/STIM_000.jpg	99
4.766	2.326	2326.5	generate	Run1	generate/STIM_000.jpg	99
10.446	2.203	2203.0	generate	Run1	generate/STIM_000.jpg	99
15.229	1.38	1380.5	generate	Run1	generate/STIM_000.jpg	100
19.605	2.35	2349.5	generate	Run1	generate/STIM_000.jpg	99
24.253	1.784	1783.7	generate	Run1	generate/STIM_001.jpg	100
29.907	2.226	2226.1	generate	Run1	generate/STIM_001.jpg	100
34.758	1.707	1706.6	generate	Run1	generate/STIM_001.jpg	100
39.728	2.132	2132.5	generate	Run1	generate/STIM_001.jpg	100
45.664	2.062	2062.2	generate	Run1	generate/STIM_001.jpg	99
51.494	1.571	1571.0	generate	Run1	generate/STIM_002.jpg	99
55.688	1.2	1200.1	generate	Run1	generate/STIM_002.jpg	99
59.686	1.762	1762.5	generate	Run1	generate/STIM_002.jpg	100
64.685	1.139	1138.8	generate	Run1	generate/STIM_002.jpg	99
69.488	1.95	1949.9	generate	Run1	generate/STIM_002.jpg	100
74.141	1.96	1960.4	generate	Run1	generate/STIM_003.jpg	100
80.05	2.4	2400.1	generate	Run1	generate/STIM_003.jpg	99
86.162	1.289	1288.7	generate	Run1	generate/STIM_003.jpg	99
90.523	1.073	1073.2	generate	Run1	generate/STIM_003.jpg	99
94.377	2.418	2418.3	generate	Run1	generate/STIM_003.jpg	99
100.559	1.273	1273.3	generate	Run1	generate/STIM_004.jpg	99
104.157	2.11	2110.2	generate	Run1	generate/STIM_004.jpg	99
109.989	1.958	1957.9	generate	Run1	generate/STIM_004.jpg	100
115.815	1.106	1106.3	generate	Run1	generate/STIM_004.jpg	100
119.831	2.029	2028.7	generate	Run1	generate/STIM_004.jpg	99
124.997	1.991	1991.1	generate	Run1	generate/STIM_005.jpg	100
129.623	2.249	2249.0	generate	Run1	generate/STIM_005.jpg	99
135.373	1.581	1581.1	generate	Run1	generate/STIM_005.jpg	100
140.18	1.28	1280.4	generate	Run1	generate/STIM_005.jpg	99
143.528	2.165	2164.8	generate	Run1	generate/STIM_005.jpg	100
148.894	1.489	1488.7	generate	Run1	generate/STIM_006.jpg	100
152.9	1.3	1299.5	generate	Run1	generate/STIM_006.jpg	99
157.831	2.579	2578.9	generate	Run1	generate/STIM_006.jpg	99
162.846	2.431	2430.7	generate	Run1	generate/STIM_006.jpg	100
168.452	2.172	2172.1	generate	Run1	generate/STIM_006.jpg	99
173.697	1.499	1499.4	generate	Run1	generate/STIM_007.jpg	100
177.882	1.204	1203.9	generate	Run1	generate/STIM_007.jpg	100
181.735	1.236	1235.7	generate	Run1	generate/STIM_007.jpg	100
185.769	1.196	1196.4	generate	Run1	generate/STIM_007.jpg	99
190.002	2.411	2411.0	generate	Run1	generate/STIM_007.jpg	100
195.997	1.656	1655.8	generate	Run1	generate/STIM_008.jpg	99
201.369	2.182	2181.5	generate	Run1	generate/STIM_008.jpg	99
207.18	2.134	2133.5	generate	Run1	generate/STIM_008.jpg	100
211.95	1.668	1668.5	generate	Run1	generate/STIM_008.jpg	100
216.283	1.679	1678.7	generate	Run1	generate/STIM_008.jpg	100
221.636	2.648	2647.9	generate	Run1	generate/STIM_009.jpg	99
228.211	2.13	2130.2	generate	Run1	generate/STIM_009.jpg	100
232.988	1.574	1573.9	generate	Run1	generate/STIM_009.jpg	99
238.446	1.231	1231.1	generate	Run1	generate/STIM_009.jpg	99
242.089	1.243	1243.4	generate	Run1	generate/STIM_009.jpg	100
247.12	2.273	2273.2	generate	Run1	generate/STIM_010.jpg	100
252.543	1.599	1598.9	generate	Run1	generate/STIM_010.jpg	99
257.727	2.104	2104.4	generate	Run1	generate/STIM_010.jpg	99
262.033	1.865	1865.0	generate	Run1	generate/STIM_010.jpg	100
267.802	2.274	2273.9	generate	Run1	generate/STIM_010.jpg	100
272.977	1.237	1237.1	generate	Run1	generate/STIM_011.jpg	100
276.852	2.201	2200.8	generate	Run1	generate/STIM_011.jpg	100
281.808	2.053	2053.3	generate	Run1	generate/STIM_011.jpg	100
286.063	1.189	1189.2	generate	Run1	generate/STIM_011.jpg	100
289.887	1.915	1915.1	generate	Run1	generate/STIM_011.jpg	100
295.766	2.804	2804.0	generate	Run1	generate/STIM_012.jpg	100
301.794	1.947	1947.0	generate	Run1	generate/STIM_012.jpg	100
306.218	1.294	1293.7	generate	Run1	generate/STIM_012.jpg	99
309.806	1.525	1525.3	generate	Run1	generate/STIM_012.jpg	99
314.419	2.063	2062.7	generate	Run1	generate/STIM_012.jpg	100
319.879	2.244	2243.5	generate	Run1	generate/STIM_013.jpg	99
324.149	1.934	1934.1	generate	Run1	generate/STIM_013.jpg	100
328.207	2.619	2618.7	generate	Run1	generate/STIM_013.jpg	100
333.355	1.163	1162.9	generate	Run1	generate/STIM_013.jpg	100
338.385	1.207	1207.4	generate	Run1	generate/STIM_013.jpg	99
343.409	2.272	2271.5	generate	Run1	generate/STIM_014.jpg	100
349.258	1.764	1763.7	generate	Run1	generate/STIM_014.jpg	100
354.25	2.453	2452.6	generate	Run1	generate/STIM_014.jpg	100
360.106	1.866	1866.3	generate	Run1	generate/STIM_014.jpg	100
364.504	1.598	1597.7	generate	Run1	generate/STIM_014.jpg	99
368.348	1.278	1277.9	generate	Run1	generate/STIM_015.jpg	99
372.453	2.32	2319.9	generate	Run1	generate/STIM_015.jpg	100
377.61	1.613	1612.8	generate	Run1	generate/STIM_015.jpg	99
383.186	2.377	2376.6	generate	Run1	generate/STIM_015.jpg	99
387.606	1.93	1930.2	generate	Run1	generate/STIM_015.jpg	99
391.694	1.77	1770.2	generate	Run1	generate/STIM_016.jpg	99
395.518	2.538	2538.2	generate	Run1	generate/STIM_016.jpg	100
401.215	2.209	2209.2	generate	Run1	generate/STIM_016.jpg	99
406.737	1.106	1105.8	generate	Run1	generate/STIM_016.jpg	99
410.629	2.041	2041.3	generate	Run1	generate/STIM_016.jpg	99
414.89	1.508	1507.8	generate	Run1	generate/STIM_017.jpg	99
420.367	2.618	2618.0	generate	Run1	generate/STIM_017.jpg	99
425.979	1.812	1812.2	generate	Run1	generate/STIM_017.jpg	100
429.884	1.377	1376.8	generate	Run1	generate/STIM_017.jpg	100
433.705	1.833	1833.1	generate	Run1	generate/STIM_017.jpg	100
438.059	2.656	2655.7	generate	Run1	generate/STIM_018.jpg	100
443.067	1.844	1843.6	generate	Run1	generate/STIM_018.jpg	100
447.945	1.121	1121.2	generate	Run1	generate/STIM_018.jpg	99
452.198	2.435	2435.4	generate	Run1	generate/STIM_018.jpg	99
457.915	1.63	1629.8	generate	Run1	generate/STIM_018.jpg	100
461.91	1.782	1782.4	generate	Run1	generate/STIM_019.jpg	99
465.706	2.521	2521.4	generate	Run1	generate/STIM_019.jpg	99
471.384	1.978	1978.4	generate	Run1	generate/STIM_019.jpg	99
476.926	1.028	1028.4	generate	Run1	generate/STIM_019.jpg	99
480.538	1.318	1317.6	generate	Run1	generate/STIM_019.jpg	99
484.418	1.779	1779.2	generate	Run1	generate/STIM_020.jpg	100
488.796	1.92	1919.6	generate	Run1	generate/STIM_020.jpg	100
494.494	2.644	2643.6	generate	Run1	generate/STIM_020.jpg	100
499.297	2.107	2106.9	generate	Run1	generate/STIM_020.jpg	100
505.335	2.122	2122.5	generate	Run1	generate/STIM_020.jpg	99
510.997	1.423	1423.1	generate	Run1	generate/STIM_021.jpg	99
515.518	1.47	1470.5	generate	Run1	generate/STIM_021.jpg	99
519.213	1.167	1166.7	generate	Run1	generate/STIM_021.jpg	99
523.274	1.734	1733.7	generate	Run1	generate/STIM_021.jpg	100
527.814	2.224	2224.5	generate	Run1	generate/STIM_021.jpg	99
533.269	2.059	2058.9	generate	Run1	generate/STIM_022.jpg	100
537.962	1.932	1931.6	generate	Run1	generate/STIM_022.jpg	99
542.986	2.104	2103.5	generate	Run1	generate/STIM_022.jpg	99
547.84	1.45	1450.4	generate	Run1	generate/STIM_022.jpg	99
553.178	1.301	1301.1	generate	Run1	generate/STIM_022.jpg	99
558.161	2.254	2253.9	generate	Run1	generate/STIM_023.jpg	99
564.067	1.78	1779.5	generate	Run1	generate/STIM_023.jpg	100
567.88	1.576	1575.5	generate	Run1	generate/STIM_023.jpg	99
573.23	1.954	1953.5	generate	Run1	generate/STIM_023.jpg	100
578.2	1.258	1258.3	generate	Run1	generate/STIM_023.jpg	99
582.964	1.955	1955.1	generate	Run1	generate/STIM_024.jpg	99
587.476	2.44	2439.7	generate	Run1	generate/STIM_024.jpg	100
592.602	1.244	1243.8	generate	Run1	generate/STIM_024.jpg	99
596.73	1.098	1098.3	generate	Run1	generate/STIM_024.jpg	99
599.903	1.682	1682.2	generate	Run1	generate/STIM_024.jpg	99
605.398	0.66	660.5	repeat	Run1	repeat/STIM_000.jpg	99
610.023	0.641	641.3	repeat	Run1	repeat/STIM_000.jpg	100
613.003	0.645	645.2	repeat	Run1	repeat/STIM_000.jpg	99
615.777	0.601	601.1	repeat	Run1	repeat/STIM_000.jpg	100
618.921	0.65	650.5	repeat	Run1	repeat/STIM_000.jpg	100
622.43	0.734	733.5	repeat	Run1	repeat/STIM_001.jpg	100
626.349	0.898	897.6	repeat	Run1	repeat/STIM_001.jpg	99
631.124	0.972	972.0	repeat	Run1	repeat/STIM_001.jpg	100
635.792	0.585	585.2	repeat	Run1	repeat/STIM_001.jpg	100
639.243	0.626	626.3	repeat	Run1	repeat/STIM_001.jpg	99
642.226	0.727	727.1	repeat	Run1	repeat/STIM_002.jpg	99
645.743	0.785	785.2	repeat	Run1	repeat/STIM_002.jpg	100
648.634	0.749	748.8	repeat	Run1	repeat/STIM_002.jpg	99
651.579	0.841	840.7	repeat	Run1	repeat/STIM_002.jpg	100
655.099	0.534	533.6	repeat	Run1	repeat/STIM_002.jpg	100
659.178	0.807	807.4	repeat	Run1	repeat/STIM_003.jpg	99
662.481	0.79	789.6	repeat	Run1	repeat/STIM_003.jpg	100
666.897	0.769	769.4	repeat	Run1	repeat/STIM_003.jpg	99
671.302	0.899	899.4	repeat	Run1	repeat/STIM_003.jpg	99
675.728	1.003	1003.0	repeat	Run1	repeat/STIM_003.jpg	99
679.246	0.928	927.5	repeat	Run1	repeat/STIM_004.jpg	99
682.633	0.796	795.7	repeat	Run1	repeat/STIM_004.jpg	100
686.102	0.972	972.0	repeat	Run1	repeat/STIM_004.jpg	100
690.586	0.963	963.1	repeat	Run1	repeat/STIM_004.jpg	99
694.342	0.672	672.3	repeat	Run1	repeat/STIM_004.jpg	99
697.766	0.551	551.2	repeat	Run1	repeat/STIM_005.jpg	100
701.06	0.655	654.6	repeat	Run1	repeat/STIM_005.jpg	100
704.103	0.693	693.0	repeat	Run1	repeat/STIM_005.jpg	100
708.141	0.725	725.4	repeat	Run1	repeat/STIM_005.jpg	99
710.901	0.965	964.9	repeat	Run1	repeat/STIM_005.jpg	100
715.412	0.552	552.4	repeat	Run1	repeat/STIM_006.jpg	100
719.207	0.622	621.8	repeat	Run1	repeat/STIM_006.jpg	100
723.623	0.814	814.1	repeat	Run1	repeat/STIM_006.jpg	99
727.48	0.934	934.0	repeat	Run1	repeat/STIM_006.jpg	100
730.902	0.639	638.6	repeat	Run1	repeat/STIM_006.jpg	99
734.787	0.902	902.0	repeat	Run1	repeat/STIM_007.jpg	100
738.524	0.675	675.4	repeat	Run1	repeat/STIM_007.jpg	99
742.857	0.716	715.7	repeat	Run1	repeat/STIM_007.jpg	100
747.15	0.885	884.7	repeat	Run1	repeat/STIM_007.jpg	99
750.951	0.588	587.6	repeat	Run1	repeat/STIM_007.jpg	100
753.88	0.587	586.8	repeat	Run1	repeat/STIM_008.jpg	100
757.373	0.9	900.0	repeat	Run1	repeat/STIM_008.jpg	99
761.026	0.626	625.6	repeat	Run1	repeat/STIM_008.jpg	99
764.283	0.568	568.1	repeat	Run1	repeat/STIM_008.jpg	100
768.695	0.85	849.8	repeat	Run1	repeat/STIM_008.jpg	99
771.953	0.927	926.9	repeat	Run1	repeat/STIM_009.jpg	99
775.209	0.85	850.4	repeat	Run1	repeat/STIM_009.jpg	100
779.549	0.584	584.1	repeat	Run1	repeat/STIM_009.jpg	99
783.494	0.635	635.2	repeat	Run1	repeat/STIM_009.jpg	100
786.624	0.646	646.0	repeat	Run1	repeat/STIM_009.jpg	100
790.279	0.849	848.8	repeat	Run1	repeat/STIM_010.jpg	99
793.883	0.673	672.8	repeat	Run1	repeat/STIM_010.jpg	99
798.162	0.758	758.5	repeat	Run1	repeat/STIM_010.jpg	100
801.267	0.717	717.2	repeat	Run1	repeat/STIM_010.jpg	99
805.256	0.917	917.4	repeat	Run1	repeat/STIM_010.jpg	99
808.619	0.531	531.2	repeat	Run1	repeat/STIM_011.jpg	100
812.698	1.006	1006.0	repeat	Run1	repeat/STIM_011.jpg	99
817.129	0.7	700.3	repeat	Run1	repeat/STIM_011.jpg	100
821.032	0.627	626.8	repeat	Run1	repeat/STIM_011.jpg	100
825.636	0.927	926.9	repeat	Run1	repeat/STIM_011.jpg	100
828.913	0.89	889.5	repeat	Run1	repeat/STIM_012.jpg	99
833.146	0.779	778.8	repeat	Run1	repeat/STIM_012.jpg	99
836.807	0.694	693.7	repeat	Run1	repeat/STIM_012.jpg	100
839.769	0.975	974.6	repeat	Run1	repeat/STIM_012.jpg	100
843.809	0.949	949.2	repeat	Run1	repeat/STIM_012.jpg	99
848.065	0.567	567.1	repeat	Run1	repeat/STIM_013.jpg	100
850.778	0.917	917.4	repeat	Run1	repeat/STIM_013.jpg	100
854.06	0.804	804.3	repeat	Run1	repeat/STIM_013.jpg	99
857.012	0.667	666.8	repeat	Run1	repeat/STIM_013.jpg	100
861.521	0.549	548.7	repeat	Run1	repeat/STIM_013.jpg	100
866.04	0.938	937.9	repeat	Run1	repeat/STIM_014.jpg	100
869.596	0.547	546.7	repeat	Run1	repeat/STIM_014.jpg	100
872.2	0.777	776.9	repeat	Run1	repeat/STIM_014.jpg	99
875.211	0.568	568.5	repeat	Run1	repeat/STIM_014.jpg	99
878.154	0.617	616.7	repeat	Run1	repeat/STIM_014.jpg	100
881.119	1.099	1099.3	generate	Run2	generate/STIM_000.jpg	99
885.179	2.077	2077.0	generate	Run2	generate/STIM_000.jpg	100
890.464	1.994	1994.4	generate	Run2	generate/STIM_000.jpg	100
895.185	1.065	1064.9	generate	Run2	generate/STIM_000.jpg	99
900.231	0.87	869.6	generate	Run2	generate/STIM_000.jpg	99
904.966	2.168	2167.6	generate	Run2	generate/STIM_001.jpg	99
909.536	1.724	1724.5	generate	Run2	generate/STIM_001.jpg	100
914.099	2.042	2041.9	generate	Run2	generate/STIM_001.jpg	99
919.019	1.563	1563.3	generate	Run2	generate/STIM_001.jpg	99
923.472	1.978	1977.6	generate	Run2	generate/STIM_001.jpg	99
928.291	1.654	1654.2	generate	Run2	generate/STIM_002.jpg	100
933.4	2.165	2164.6	generate	Run2	generate/STIM_002.jpg	99
937.787	1.346	1346.3	generate	Run2	generate/STIM_002.jpg	100
942.77	1.983	1983.3	generate	Run2	generate/STIM_002.jpg	99
948.04	1.705	1704.6	generate	Run2	generate/STIM_002.jpg	100
952.048	1.719	1719.0	generate	Run2	generate/STIM_003.jpg	100
957.035	1.412	1411.9	generate	Run2	generate/STIM_003.jpg	99
962.047	1.415	1415.0	generate	Run2	generate/STIM_003.jpg	99
966.974	1.626	1625.9	generate	Run2	generate/STIM_003.jpg	99
972.529	1.229	1229.0	generate	Run2	generate/STIM_003.jpg	99
976.138	2.416	2416.0	generate	Run2	generate/STIM_004.jpg	99
980.961	1.027	1027.2	generate	Run2	generate/STIM_004.jpg	99
985.31	1.711	1711.3	generate	Run2	generate/STIM_004.jpg	99
989.445	1.728	1728.4	generate	Run2	generate/STIM_004.jpg	99
994.868	1.3	1299.6	generate	Run2	generate/STIM_004.jpg	100
1000.118	1.586	1586.3	generate	Run2	generate/STIM_005.jpg	99
1004.689	1.5	1500.4	generate	Run2	generate/STIM_005.jpg	100
1008.275	0.921	920.8	generate	Run2	generate/STIM_005.jpg	99
1012.987	1.33	1330.5	generate	Run2	generate/STIM_005.jpg	99
1017.726	1.15	1149.8	generate	Run2	generate/STIM_005.jpg	100
1021.284	2.381	2380.7	generate	Run2	generate/STIM_006.jpg	100
1026.61	2.385	2384.6	generate	Run2	generate/STIM_006.jpg	99
1031.053	1.463	1463.4	generate	Run2	generate/STIM_006.jpg	100
1034.853	1.856	1856.0	generate	Run2	generate/STIM_006.jpg	100
1039.354	1.975	1974.9	generate	Run2	generate/STIM_006.jpg	99
1045.231	1.415	1414.6	generate	Run2	generate/STIM_007.jpg	100
1049.252	1.825	1825.1	generate	Run2	generate/STIM_007.jpg	99
1054.713	1.377	1376.8	generate	Run2	generate/STIM_007.jpg	100
1060.05	1.798	1798.4	generate	Run2	generate/STIM_007.jpg	99
1065.743	1.948	1948.1	generate	Run2	generate/STIM_007.jpg	100
1070.604	1.976	1975.5	generate	Run2	generate/STIM_008.jpg	100
1075.536	2.391	2391.0	generate	Run2	generate/STIM_008.jpg	99
1081.104	1.364	1363.5	generate	Run2	generate/STIM_008.jpg	100
1085.983	0.993	992.9	generate	Run2	generate/STIM_008.jpg	99
1090.601	1.391	1391.0	generate	Run2	generate/STIM_008.jpg	99
1095.081	1.932	1932.5	generate	Run2	generate/STIM_009.jpg	99
1099.907	1.734	1734.4	generate	Run2	generate/STIM_009.jpg	99
1103.89	1.809	1808.8	generate	Run2	generate/STIM_009.jpg	100
1107.767	1.853	1853.0	generate	Run2	generate/STIM_009.jpg	99
1112.722	0.906	906.4	generate	Run2	generate/STIM_009.jpg	100
1117.243	2.465	2465.2	generate	Run2	generate/STIM_010.jpg	100
1122.309	1.449	1449.4	generate	Run2	generate/STIM_010.jpg	100
1126.92	1.117	1116.7	generate	Run2	generate/STIM_010.jpg	99
1130.786	1.041	1041.4	generate	Run2	generate/STIM_010.jpg	99
1134.55	1.049	1049.2	generate	Run2	generate/STIM_010.jpg	100
1139.303	1.452	1451.8	generate	Run2	generate/STIM_011.jpg	100
1143.603	1.097	1096.9	generate	Run2	generate/STIM_011.jpg	99
1147.653	2.042	2042.5	generate	Run2	generate/STIM_011.jpg	99
1153.408	1.789	1789.0	generate	Run2	generate/STIM_011.jpg	100
1157.204	1.072	1072.2	generate	Run2	generate/STIM_011.jpg	99
1160.844	1.707	1707.2	generate	Run2	generate/STIM_012.jpg	99
1164.54	2.336	2335.7	generate	Run2	generate/STIM_012.jpg	99
1170.171	1.484	1483.9	generate	Run2	generate/STIM_012.jpg	99
1174.645	1.633	1632.6	generate	Run2	generate/STIM_012.jpg	100
1178.618	1.056	1056.2	generate	Run2	generate/STIM_012.jpg	100
1183.618	2.315	2314.7	generate	Run2	generate/STIM_013.jpg	100
1189.435	1.748	1748.3	generate	Run2	generate/STIM_013.jpg	100
1194.641	2.035	2034.8	generate	Run2	generate/STIM_013.jpg	99
1200.587	1.258	1257.9	generate	Run2	generate/STIM_013.jpg	100
1203.961	1.394	1393.5	generate	Run2	generate/STIM_013.jpg	99
1208.882	2.485	2485.0	generate	Run2	generate/STIM_014.jpg	100
1213.474	2.059	2059.4	generate	Run2	generate/STIM_014.jpg	99
1219.1	1.972	1972.5	generate	Run2	generate/STIM_014.jpg	100
1224.171	1.412	1412.2	generate	Run2	generate/STIM_014.jpg	99
1228.289	1.701	1701.1	generate	Run2	generate/STIM_014.jpg	99
1233.303	2.309	2309.0	generate	Run2	generate/STIM_015.jpg	100
1237.907	2.374	2374.1	generate	Run2	generate/STIM_015.jpg	99
1242.952	2.121	2121.1	generate	Run2	generate/STIM_015.jpg	100
1247.374	1.648	1647.9	generate	Run2	generate/STIM_015.jpg	100
1252.367	1.64	1640.4	generate	Run2	generate/STIM_015.jpg	100
1256.401	2.308	2308.4	generate	Run2	generate/STIM_016.jpg	100
1261.312	1.432	1431.8	generate	Run2	generate/STIM_016.jpg	99
1266.397	1.477	1476.8	generate	Run2	generate/STIM_016.jpg	99
1271.263	1.75	1749.5	generate	Run2	generate/STIM_016.jpg	100
1275.869	1.909	1908.9	generate	Run2	generate/STIM_016.jpg	100
1281.02	2.281	2281.0	generate	Run2	generate/STIM_017.jpg	100
1287.217	2.27	2270.1	generate	Run2	generate/STIM_017.jpg	99
1291.591	2.057	2057.0	generate	Run2	generate/STIM_017.jpg	99
1296.009	1.126	1126.3	generate	Run2	generate/STIM_017.jpg	100
1300.994	1.8	1799.5	generate	Run2	generate/STIM_017.jpg	99
1304.873	1.419	1418.8	generate	Run2	generate/STIM_018.jpg	99
1310.017	1.64	1640.1	generate	Run2	generate/STIM_018.jpg	100
1315.471	0.909	909.3	generate	Run2	generate/STIM_018.jpg	99
1318.869	1.093	1093.2	generate	Run2	generate/STIM_018.jpg	99
1321.976	1.736	1736.2	generate	Run2	generate/STIM_018.jpg	99
1326.662	1.502	1501.5	generate	Run2	generate/STIM_019.jpg	100
1331.159	1.735	1734.9	generate	Run2	generate/STIM_019.jpg	100
1336.545	1.25	1249.9	generate	Run2	generate/STIM_019.jpg	99
1341.341	2.075	2075.2	generate	Run2	generate/STIM_019.jpg	99
1345.482	1.903	1903.2	generate	Run2	generate/STIM_019.jpg	99
1349.597	1.261	1260.7	generate	Run2	generate/STIM_020.jpg	100
1353.712	2.029	2028.8	generate	Run2	generate/STIM_020.jpg	100
1359.363	1.668	1667.7	generate	Run2	generate/STIM_020.jpg	99
1363.513	1.788	1787.6	generate	Run2	generate/STIM_020.jpg	99
1367.766	1.156	1155.5	generate	Run2	generate/STIM_020.jpg	99
1371.807	2.482	2481.9	generate	Run2	generate/STIM_021.jpg	100
1376.634	2.188	2187.8	generate	Run2	generate/STIM_021.jpg	100
1380.986	2.11	2109.9	generate	Run2	generate/STIM_021.jpg	100
1385.681	1.494	1494.2	generate	Run2	generate/STIM_021.jpg	100
1390.051	1.986	1986.0	generate	Run2	generate/STIM_021.jpg	99
1394.352	2.059	2059.0	generate	Run2	generate/STIM_022.jpg	99
1398.423	1.067	1067.3	generate	Run2	generate/STIM_022.jpg	99
1403.092	1.325	1324.8	generate	Run2	generate/STIM_022.jpg	99
1408.008	1.044	1043.7	generate	Run2	generate/STIM_022.jpg	99
1411.617	1.789	1789.3	generate	Run2	generate/STIM_022.jpg	99
1416.889	2.139	2139.4	generate	Run2	generate/STIM_023.jpg	99
1421.619	1.145	1144.6	generate	Run2	generate/STIM_023.jpg	100
1426.196	2.228	2228.1	generate	Run2	generate/STIM_023.jpg	99
1431.14	1.174	1173.6	generate	Run2	generate/STIM_023.jpg	100
1435.783	1.238	1237.7	generate	Run2	generate/STIM_023.jpg	100
1440.459	2.063	2063.2	generate	Run2	generate/STIM_024.jpg	99
1446.413	1.656	1656.3	generate	Run2	generate/STIM_024.jpg	99
1451.068	0.945	945.3	generate	Run2	generate/STIM_024.jpg	99
1454.546	1.421	1421.4	generate	Run2	generate/STIM_024.jpg	99
1459.623	1.809	1808.9	generate	Run2	generate/STIM_024.jpg	100
1464.886	0.824	824.4	repeat	Run2	repeat/STIM_000.jpg	100
1469.293	0.927	926.9	repeat	Run2	repeat/STIM_000.jpg	100
1473.575	0.794	794.4	repeat	Run2	repeat/STIM_000.jpg	99
1477.179	0.683	682.7	repeat	Run2	repeat/STIM_000.jpg	99
1479.87	0.718	717.7	repeat	Run2	repeat/STIM_000.jpg	100
1483.313	0.527	526.6	repeat	Run2	repeat/STIM_001.jpg	99
1486.556	0.771	771.3	repeat	Run2	repeat/STIM_001.jpg	100
1489.802	0.659	658.6	repeat	Run2	repeat/STIM_001.jpg	100
1492.599	0.833	833.1	repeat	Run2	repeat/STIM_001.jpg	100
1496.992	0.883	882.6	repeat	Run2	repeat/STIM_001.jpg	99
1501.324	0.907	907.1	repeat	Run2	repeat/STIM_002.jpg	100
1504.6	0.94	939.7	repeat	Run2	repeat/STIM_002.jpg	99
1508.366	0.566	566.0	repeat	Run2	repeat/STIM_002.jpg	99
1511.471	0.876	876.3	repeat	Run2	repeat/STIM_002.jpg	100
1516.294	0.781	780.7	repeat	Run2	repeat/STIM_002.jpg	100
1520.419	0.784	784.5	repeat	Run2	repeat/STIM_003.jpg	99
1524.995	0.934	933.9	repeat	Run2	repeat/STIM_003.jpg	99
1529.159	0.76	759.9	repeat	Run2	repeat/STIM_003.jpg	100
1533.768	0.592	592.3	repeat	Run2	repeat/STIM_003.jpg	100
1538.136	0.709	708.6	repeat	Run2	repeat/STIM_003.jpg	99
1542.357	0.83	830.5	repeat	Run2	repeat/STIM_004.jpg	100
1547.065	1.004	1003.5	repeat	Run2	repeat/STIM_004.jpg	100
1551.708	0.549	548.6	repeat	Run2	repeat/STIM_004.jpg	100
1556.086	0.589	588.7	repeat	Run2	repeat/STIM_004.jpg	100
1559.582	0.812	811.6	repeat	Run2	repeat/STIM_004.jpg	99
1564.194	0.734	733.6	repeat	Run2	repeat/STIM_005.jpg	100
1567.367	0.515	514.9	repeat	Run2	repeat/STIM_005.jpg	100
1571.379	0.592	592.5	repeat	Run2	repeat/STIM_005.jpg	99
1575.039	0.935	934.6	repeat	Run2	repeat/STIM_005.jpg	100
1579.671	0.73	729.5	repeat	Run2	repeat/STIM_005.jpg	99
1582.996	0.855	854.6	repeat	Run2	repeat/STIM_006.jpg	99
1586.321	0.626	626.3	repeat	Run2	repeat/STIM_006.jpg	100
1590.2	0.803	803.1	repeat	Run2	repeat/STIM_006.jpg	100
1593.044	0.552	552.4	repeat	Run2	repeat/STIM_006.jpg	100
1597.314	0.588	588.2	repeat	Run2	repeat/STIM_006.jpg	99
1600.11	0.753	752.7	repeat	Run2	repeat/STIM_007.jpg	99
1603.491	0.84	840.3	repeat	Run2	repeat/STIM_007.jpg	99
1608.073	1.007	1007.2	repeat	Run2	repeat/STIM_007.jpg	100
1611.683	0.533	533.1	repeat	Run2	repeat/STIM_007.jpg	100
1616.134	0.915	915.1	repeat	Run2	repeat/STIM_007.jpg	100
1619.66	0.723	722.9	repeat	Run2	repeat/STIM_008.jpg	99
1623.679	0.61	610.0	repeat	Run2	repeat/STIM_008.jpg	99
1626.408	0.77	770.2	repeat	Run2	repeat/STIM_008.jpg	99
1630.05	0.957	957.2	repeat	Run2	repeat/STIM_008.jpg	100
1634.247	0.578	577.8	repeat	Run2	repeat/STIM_008.jpg	100
1638.099	0.897	897.3	repeat	Run2	repeat/STIM_009.jpg	100
1641.73	0.96	960.1	repeat	Run2	repeat/STIM_009.jpg	100
1645.013	0.82	819.8	repeat	Run2	repeat/STIM_009.jpg	99
1648.013	0.576	575.5	repeat	Run2	repeat/STIM_009.jpg	99
1652.054	0.903	902.9	repeat	Run2	repeat/STIM_009.jpg	99
1655.122	0.706	705.8	repeat	Run2	repeat/STIM_010.jpg	99
1658.082	0.582	582.1	repeat	Run2	repeat/STIM_010.jpg	100
1662.353	0.999	999.1	repeat	Run2	repeat/STIM_010.jpg	99
1667.315	0.528	528.1	repeat	Run2	repeat/STIM_010.jpg	100
1671.187	0.65	650.4	repeat	Run2	repeat/STIM_010.jpg	99
1673.875	0.688	688.5	repeat	Run2	repeat/STIM_011.jpg	100
1677.811	0.798	798.4	repeat	Run2	repeat/STIM_011.jpg	99
1681.728	0.52	519.5	repeat	Run2	repeat/STIM_011.jpg	99
1684.972	0.942	942.3	repeat	Run2	repeat/STIM_011.jpg	100
1688.912	0.943	943.1	repeat	Run2	repeat/STIM_011.jpg	99
1692.09	0.697	696.6	repeat	Run2	repeat/STIM_012.jpg	99
1695.742	0.874	873.8	repeat	Run2	repeat/STIM_012.jpg	99
1699.513	0.542	541.8	repeat	Run2	repeat/STIM_012.jpg	100
1703.447	0.652	652.2	repeat	Run2	repeat/STIM_012.jpg	99
1706.967	0.933	933.0	repeat	Run2	repeat/STIM_012.jpg	100
1710.928	0.711	711.4	repeat	Run2	repeat/STIM_013.jpg	100
1713.953	0.79	789.7	repeat	Run2	repeat/STIM_013.jpg	99
1717.52	0.667	666.8	repeat	Run2	repeat/STIM_013.jpg	100
1720.65	0.509	508.9	repeat	Run2	repeat/STIM_013.jpg	99
1724.554	0.744	743.8	repeat	Run2	repeat/STIM_013.jpg	100
1728.754	0.815	815.2	repeat	Run2	repeat/STIM_014.jpg	100
1732.224	0.9	899.9	repeat	Run2	repeat/STIM_014.jpg	99
1736.555	0.617	617.0	repeat	Run2	repeat/STIM_014.jpg	99
1739.497	0.933	933.2	repeat	Run2	repeat/STIM_014.jpg	100
1742.988	0.52	520.1	repeat	Run2	repeat/STIM_014.jpg	99
1746.142	1.666	1666.3	generate	Run3	generate/STIM_000.jpg	100
1750.84	1.103	1102.8	generate	Run3	generate/STIM_000.jpg	100
1755.66	1.45	1449.6	generate	Run3	generate/STIM_000.jpg	99
1759.552	0.954	953.9	generate	Run3	generate/STIM_000.jpg	99
1762.803	1.535	1534.6	generate	Run3	generate/STIM_000.jpg	99
1767.635	0.997	996.9	generate	Run3	generate/STIM_001.jpg	99
1772.556	1.383	1383.4	generate	Run3	generate/STIM_001.jpg	100
1776.98	1.553	1553.4	generate	Run3	generate/STIM_001.jpg	99
1781.707	1.929	1929.4	generate	Run3	generate/STIM_001.jpg	100
1785.796	1.271	1271.2	generate	Run3	generate/STIM_001.jpg	100
1790.367	1.291	1290.6	generate	Run3	generate/STIM_002.jpg	100
1794.753	1.843	1842.9	generate	Run3	generate/STIM_002.jpg	99
1798.78	1.26	1259.6	generate	Run3	generate/STIM_002.jpg	99
1803.926	1.974	1974.0	generate	Run3	generate/STIM_002.jpg	100
1809.729	1.933	1932.7	generate	Run3	generate/STIM_002.jpg	99
1815.43	1.22	1220.1	generate	Run3	generate/STIM_003.jpg	100
1819.669	1.387	1386.7	generate	Run3	generate/STIM_003.jpg	100
1823.193	1.683	1682.6	generate	Run3	generate/STIM_003.jpg	99
1827.961	1.773	1773.2	generate	Run3	generate/STIM_003.jpg	100
1831.862	1.62	1619.6	generate	Run3	generate/STIM_003.jpg	99
1835.515	1.028	1028.1	generate	Run3	generate/STIM_004.jpg	99
1839.082	1.784	1783.6	generate	Run3	generate/STIM_004.jpg	99
1842.905	2.048	2047.9	generate	Run3	generate/STIM_004.jpg	100
1848.379	0.867	867.0	generate	Run3	generate/STIM_004.jpg	100
1852.376	1.189	1189.2	generate	Run3	generate/STIM_004.jpg	99
1856.277	1.57	1569.7	generate	Run3	generate/STIM_005.jpg	100
1860.373	1.838	1837.6	generate	Run3	generate/STIM_005.jpg	100
1864.574	1.305	1305.4	generate	Run3	generate/STIM_005.jpg	100
1869.161	0.875	875.3	generate	Run3	generate/STIM_005.jpg	100
1873.464	1.857	1857.3	generate	Run3	generate/STIM_005.jpg	100
1877.827	1.038	1038.5	generate	Run3	generate/STIM_006.jpg	99
1882.492	1.472	1471.8	generate	Run3	generate/STIM_006.jpg	99
1886.431	1.922	1921.8	generate	Run3	generate/STIM_006.jpg	99
1890.871	1.48	1480.3	generate	Run3	generate/STIM_006.jpg	100
1895.402	1.326	1326.0	generate	Run3	generate/STIM_006.jpg	100
1899.346	1.9	1900.0	generate	Run3	generate/STIM_007.jpg	100
1903.523	1.559	1558.8	generate	Run3	generate/STIM_007.jpg	99
1908.953	1.798	1798.5	generate	Run3	generate/STIM_007.jpg	100
1913.537	1.33	1329.5	generate	Run3	generate/STIM_007.jpg	99
1917.807	1.668	1668.0	generate	Run3	generate/STIM_007.jpg	99
1921.749	1.038	1038.1	generate	Run3	generate/STIM_008.jpg	100
1925.045	1.397	1396.8	generate	Run3	generate/STIM_008.jpg	100
1929.919	1.039	1039.2	generate	Run3	generate/STIM_008.jpg	99
1933.352	1.885	1885.2	generate	Run3	generate/STIM_008.jpg	99
1938.142	0.987	987.2	generate	Run3	generate/STIM_008.jpg	99
1943.026	1.35	1350.4	generate	Run3	generate/STIM_009.jpg	100
1947.895	1.416	1416.1	generate	Run3	generate/STIM_009.jpg	100
1952.51	1.394	1394.4	generate	Run3	generate/STIM_009.jpg	100
1956.773	1.566	1566.4	generate	Run3	generate/STIM_009.jpg	100
1962.324	1.3	1300.0	generate	Run3	generate/STIM_009.jpg	99
1966.826	1.691	1691.0	generate	Run3	generate/STIM_010.jpg	99
1972.22	0.974	974.3	generate	Run3	generate/STIM_010.jpg	100
1976.539	0.882	882.0	generate	Run3	generate/STIM_010.jpg	100
1979.54	1.508	1508.5	generate	Run3	generate/STIM_010.jpg	99
1983.068	1.943	1942.8	generate	Run3	generate/STIM_010.jpg	100
1988.354	1.534	1534.1	generate	Run3	generate/STIM_011.jpg	100
1992.457	1.502	1502.2	generate	Run3	generate/STIM_011.jpg	99
1997.246	1.048	1048.2	generate	Run3	generate/STIM_011.jpg	100
2002.166	2.03	2029.7	generate	Run3	generate/STIM_011.jpg	99
2006.478	1.8	1800.4	generate	Run3	generate/STIM_011.jpg	99
2010.691	1.368	1368.1	generate	Run3	generate/STIM_012.jpg	100
2014.802	1.041	1041.0	generate	Run3	generate/STIM_012.jpg	100
2018.94	1.626	1626.2	generate	Run3	generate/STIM_012.jpg	99
2023.38	1.901	1900.8	generate	Run3	generate/STIM_012.jpg	99
2027.961	1.898	1897.6	generate	Run3	generate/STIM_012.jpg	99
2032.067	1.088	1088.2	generate	Run3	generate/STIM_013.jpg	100
2035.747	1.494	1493.8	generate	Run3	generate/STIM_013.jpg	99
2039.345	2.079	2079.2	generate	Run3	generate/STIM_013.jpg	100
2045.175	1.518	1518.2	generate	Run3	generate/STIM_013.jpg	100
2049.172	1.889	1888.8	generate	Run3	generate/STIM_013.jpg	100
2053.602	1.793	1793.3	generate	Run3	generate/STIM_014.jpg	100
2058.441	1.409	1408.7	generate	Run3	generate/STIM_014.jpg	100
2062.443	0.995	995.0	generate	Run3	generate/STIM_014.jpg	99
2067.07	1.612	1612.5	generate	Run3	generate/STIM_014.jpg	100
2072.443	2.059	2058.9	generate	Run3	generate/STIM_014.jpg	99
2077.505	1.929	1929.1	generate	Run3	generate/STIM_015.jpg	100
2081.92	1.484	1483.7	generate	Run3	generate/STIM_015.jpg	100
2086.824	1.253	1253.4	generate	Run3	generate/STIM_015.jpg	100
2091.101	0.888	888.5	generate	Run3	generate/STIM_015.jpg	99
2095.865	1.664	1663.7	generate	Run3	generate/STIM_015.jpg	100
2101.096	1.966	1966.0	generate	Run3	generate/STIM_016.jpg	100
2105.132	1.282	1282.2	generate	Run3	generate/STIM_016.jpg	100
2109.952	1.973	1973.0	generate	Run3	generate/STIM_016.jpg	99
2115.541	1.532	1531.7	generate	Run3	generate/STIM_016.jpg	99
2120.066	1.72	1719.7	generate	Run3	generate/STIM_016.jpg	99
2124.25	1.255	1254.6	generate	Run3	generate/STIM_017.jpg	100
2129.282	0.934	933.8	generate	Run3	generate/STIM_017.jpg	100
2133.668	1.957	1956.6	generate	Run3	generate/STIM_017.jpg	99
2138.941	1.131	1131.4	generate	Run3	generate/STIM_017.jpg	100
2143.949	1.397	1397.0	generate	Run3	generate/STIM_017.jpg	100
2148.524	1.694	1694.4	generate	Run3	generate/STIM_018.jpg	100
2152.978	2.059	2059.3	generate	Run3	generate/STIM_018.jpg	100
2157.951	2.077	2076.8	generate	Run3	generate/STIM_018.jpg	99
2162.21	2.01	2010.4	generate	Run3	generate/STIM_018.jpg	100
2167.491	0.857	856.9	generate	Run3	generate/STIM_018.jpg	100
2170.673	1.798	1797.5	generate	Run3	generate/STIM_019.jpg	100
2176.013	1.255	1255.0	generate	Run3	generate/STIM_019.jpg	100
2180.146	1.366	1365.8	generate	Run3	generate/STIM_019.jpg	100
2184.393	1.427	1426.7	generate	Run3	generate/STIM_019.jpg	99
2188.42	0.887	886.8	generate	Run3	generate/STIM_019.jpg	100
2192.52	1.396	1396.1	generate	Run3	generate/STIM_020.jpg	99
2196.074	1.549	1548.6	generate	Run3	generate/STIM_020.jpg	99
2201.248	1.218	1218.0	generate	Run3	generate/STIM_020.jpg	99
2206.367	1.246	1245.6	generate	Run3	generate/STIM_020.jpg	100
2209.735	1.268	1267.9	generate	Run3	generate/STIM_020.jpg	100
2213.961	1.255	1254.7	generate	Run3	generate/STIM_021.jpg	100
2218.892	1.309	1309.0	generate	Run3	generate/STIM_021.jpg	100
2222.249	1.141	1141.4	generate	Run3	generate/STIM_021.jpg	100
2226.482	1.054	1053.8	generate	Run3	generate/STIM_021.jpg	99
2230.584	1.868	1868.3	generate	Run3	generate/STIM_021.jpg	100
2236.005	0.973	972.6	generate	Run3	generate/STIM_022.jpg	99
2239.544	1.381	1381.3	generate	Run3	generate/STIM_022.jpg	100
2244.665	2.113	2113.1	generate	Run3	generate/STIM_022.jpg	100
2249.466	2.016	2015.7	generate	Run3	generate/STIM_022.jpg	100
2255.292	2.029	2028.6	generate	Run3	generate/STIM_022.jpg	99
2261.259	1.262	1261.5	generate	Run3	generate/STIM_023.jpg	99
2264.575	1.15	1149.8	generate	Run3	generate/STIM_023.jpg	100
2267.736	1.82	1819.5	generate	Run3	generate/STIM_023.jpg	100
2272.289	2.009	2009.3	generate	Run3	generate/STIM_023.jpg	99
2276.992	1.33	1330.4	generate	Run3	generate/STIM_023.jpg	99
2282.063	1.723	1723.2	generate	Run3	generate/STIM_024.jpg	99
2286.167	1.7	1700.5	generate	Run3	generate/STIM_024.jpg	99
2291.128	1.344	1344.4	generate	Run3	generate/STIM_024.jpg	99
2295.164	1.383	1383.3	generate	Run3	generate/STIM_024.jpg	100
2298.899	0.856	856.1	generate	Run3	generate/STIM_024.jpg	100
2303.64	0.803	802.7	repeat	Run3	repeat/STIM_000.jpg	99
2306.579	0.535	534.8	repeat	Run3	repeat/STIM_000.jpg	100
2309.492	0.888	887.9	repeat	Run3	repeat/STIM_000.jpg	99
2314.274	0.824	824.4	repeat	Run3	repeat/STIM_000.jpg	100
2317.486	0.897	896.7	repeat	Run3	repeat/STIM_000.jpg	99
2321.906	0.852	851.8	repeat	Run3	repeat/STIM_001.jpg	100
2324.979	0.758	757.5	repeat	Run3	repeat/STIM_001.jpg	100
2328.585	0.933	933.4	repeat	Run3	repeat/STIM_001.jpg	99
2333.057	0.737	736.8	repeat	Run3	repeat/STIM_001.jpg	100
2336.537	0.72	719.6	repeat	Run3	repeat/STIM_001.jpg	100
2339.62	0.812	811.5	repeat	Run3	repeat/STIM_002.jpg	99
2342.555	0.859	859.3	repeat	Run3	repeat/STIM_002.jpg	100
2345.925	0.978	977.7	repeat	Run3	repeat/STIM_002.jpg	100
2349.842	0.561	561.3	repeat	Run3	repeat/STIM_002.jpg	99
2352.612	0.86	860.3	repeat	Run3	repeat/STIM_002.jpg	99
2357.328	0.677	677.3	repeat	Run3	repeat/STIM_003.jpg	100
2360.429	0.865	865.0	repeat	Run3	repeat/STIM_003.jpg	99
2363.378	0.698	698.5	repeat	Run3	repeat/STIM_003.jpg	100
2367.071	0.622	621.7	repeat	Run3	repeat/STIM_003.jpg	100
2370.194	0.545	544.6	repeat	Run3	repeat/STIM_003.jpg	100
2374.46	0.892	892.1	repeat	Run3	repeat/STIM_004.jpg	99
2378.623	0.666	666.4	repeat	Run3	repeat/STIM_004.jpg	100
2382.475	0.856	855.6	repeat	Run3	repeat/STIM_004.jpg	99
2387.166	0.662	662.0	repeat	Run3	repeat/STIM_004.jpg	99
2390.676	0.763	763.1	repeat	Run3	repeat/STIM_004.jpg	99
2394.238	0.803	802.9	repeat	Run3	repeat/STIM_005.jpg	100
2398.643	0.806	806.2	repeat	Run3	repeat/STIM_005.jpg	100
2401.903	0.759	759.2	repeat	Run3	repeat/STIM_005.jpg	100
2406.166	0.578	578.2	repeat	Run3	repeat/STIM_005.jpg	100
2410.543	0.943	942.6	repeat	Run3	repeat/STIM_005.jpg	100
2415.281	0.789	789.1	repeat	Run3	repeat/STIM_006.jpg	100
2418.888	0.805	805.4	repeat	Run3	repeat/STIM_006.jpg	100
2422.005	0.528	527.6	repeat	Run3	repeat/STIM_006.jpg	99
2424.557	0.562	562.2	repeat	Run3	repeat/STIM_006.jpg	99
2427.379	0.507	507.3	repeat	Run3	repeat/STIM_006.jpg	99
2430.214	0.975	974.9	repeat	Run3	repeat/STIM_007.jpg	99
2434.076	0.812	811.9	repeat	Run3	repeat/STIM_007.jpg	99
2437.818	0.828	827.7	repeat	Run3	repeat/STIM_007.jpg	100
2442.614	0.999	999.4	repeat	Run3	repeat/STIM_007.jpg	100
2447.084	0.648	648.0	repeat	Run3	repeat/STIM_007.jpg	100
2451.094	0.537	536.8	repeat	Run3	repeat/STIM_008.jpg	99
2453.791	0.645	644.8	repeat	Run3	repeat/STIM_008.jpg	100
2458.083	0.848	847.5	repeat	Run3	repeat/STIM_008.jpg	100
2461.082	0.589	588.8	repeat	Run3	repeat/STIM_008.jpg	99
2464.471	0.788	787.5	repeat	Run3	repeat/STIM_008.jpg	99
2467.705	0.76	760.5	repeat	Run3	repeat/STIM_009.jpg	99
2470.955	0.621	621.1	repeat	Run3	repeat/STIM_009.jpg	100
2475.438	0.996	995.8	repeat	Run3	repeat/STIM_009.jpg	99
2479.245	0.99	990.2	repeat	Run3	repeat/STIM_009.jpg	99
2483.873	0.775	775.4	repeat	Run3	repeat/STIM_009.jpg	100
2488.323	0.865	864.7	repeat	Run3	repeat/STIM_010.jpg	99
2492.88	0.727	727.2	repeat	Run3	repeat/STIM_010.jpg	100
2496.865	0.654	654.4	repeat	Run3	repeat/STIM_010.jpg	100
2499.916	0.998	998.4	repeat	Run3	repeat/STIM_010.jpg	99
2504.348	1.006	1006.3	repeat	Run3	repeat/STIM_010.jpg	100
2507.526	0.573	573.4	repeat	Run3	repeat/STIM_011.jpg	99
2511.846	0.885	885.4	repeat	Run3	repeat/STIM_011.jpg	100
2515.554	0.83	830.1	repeat	Run3	repeat/STIM_011.jpg	100
2519.867	0.683	682.6	repeat	Run3	repeat/STIM_011.jpg	100
2522.896	0.813	812.8	repeat	Run3	repeat/STIM_011.jpg	100
2526.174	0.896	895.9	repeat	Run3	repeat/STIM_012.jpg	99
2529.387	0.523	522.6	repeat	Run3	repeat/STIM_012.jpg	100
2532.53	0.828	827.7	repeat	Run3	repeat/STIM_012.jpg	100
2536.179	0.926	925.9	repeat	Run3	repeat/STIM_012.jpg	99
2539.223	0.714	713.6	repeat	Run3	repeat/STIM_012.jpg	100
2543.85	0.887	887.1	repeat	Run3	repeat/STIM_013.jpg	100
2548.397	0.694	694.3	repeat	Run3	repeat/STIM_013.jpg	100
2551.928	0.695	695.2	repeat	Run3	repeat/STIM_013.jpg	99
2555.571	0.978	978.2	repeat	Run3	repeat/STIM_013.jpg	100
2559.626	0.607	607.4	repeat	Run3	repeat/STIM_013.jpg	100
2562.794	0.537	536.9	repeat	Run3	repeat/STIM_014.jpg	99
2566.747	0.735	734.6	repeat	Run3	repeat/STIM_014.jpg	99
2570.211	0.52	519.6	repeat	Run3	repeat/STIM_014.jpg	100
2573.21	0.867	866.6	repeat	Run3	repeat/STIM_014.jpg	100
2577.028	0.786	785.9	repeat	Run3	repeat/STIM_014.jpg	99
2580.338	0.89	890.5	generate	Run4	generate/STIM_000.jpg	99
2584.1	1.875	1875.3	generate	Run4	generate/STIM_000.jpg	100
2588.797	1.887	1887.0	generate	Run4	generate/STIM_000.jpg	100
2594.641	1.657	1657.1	generate	Run4	generate/STIM_000.jpg	100
2599.637	2.098	2097.8	generate	Run4	generate/STIM_000.jpg	100
2604.438	1.16	1160.1	generate	Run4	generate/STIM_001.jpg	100
2608.673	1.529	1528.7	generate	Run4	generate/STIM_001.jpg	100
2612.654	1.789	1788.6	generate	Run4	generate/STIM_001.jpg	99
2617.005	1.449	1448.7	generate	Run4	generate/STIM_001.jpg	100
2621.744	1.866	1866.1	generate	Run4	generate/STIM_001.jpg	100
2625.667	1.535	1535.3	generate	Run4	generate/STIM_002.jpg	99
2629.945	1.567	1566.9	generate	Run4	generate/STIM_002.jpg	99
2633.696	1.348	1347.9	generate	Run4	generate/STIM_002.jpg	99
2637.49	1.975	1974.8	generate	Run4	generate/STIM_002.jpg	100
2642.688	2.114	2113.9	generate	Run4	generate/STIM_002.jpg	100
2648.262	0.982	982.2	generate	Run4	generate/STIM_003.jpg	100
2652.12	2.11	2110.1	generate	Run4	generate/STIM_003.jpg	99
2657.98	1.82	1819.5	generate	Run4	generate/STIM_003.jpg	100
2662.712	1.609	1609.0	generate	Run4	generate/STIM_003.jpg	100
2667.155	1.12	1120.3	generate	Run4	generate/STIM_003.jpg	100
2671.688	1.669	1668.6	generate	Run4	generate/STIM_004.jpg	99
2676.181	1.355	1354.9	generate	Run4	generate/STIM_004.jpg	100
2680.592	1.128	1128.3	generate	Run4	generate/STIM_004.jpg	99
2684.128	0.981	981.0	generate	Run4	generate/STIM_004.jpg	100
2689.013	0.89	890.4	generate	Run4	generate/STIM_004.jpg	100
2692.937	1.688	1688.2	generate	Run4	generate/STIM_005.jpg	100
2696.789	1.556	1556.3	generate	Run4	generate/STIM_005.jpg	99
2700.934	0.974	974.1	generate	Run4	generate/STIM_005.jpg	100
2705.727	1.756	1756.0	generate	Run4	generate/STIM_005.jpg	100
2710.918	1.549	1548.6	generate	Run4	generate/STIM_005.jpg	99
2716.162	1.952	1951.5	generate	Run4	generate/STIM_006.jpg	99
2721.777	1.769	1768.6	generate	Run4	generate/STIM_006.jpg	100
2725.983	0.961	960.6	generate	Run4	generate/STIM_006.jpg	99
2729.602	1.093	1092.7	generate	Run4	generate/STIM_006.jpg	100
2732.998	0.872	871.5	generate	Run4	generate/STIM_006.jpg	99
2736.404	1.828	1827.9	generate	Run4	generate/STIM_007.jpg	99
2741.591	1.379	1378.7	generate	Run4	generate/STIM_007.jpg	100
2746.302	1.919	1919.4	generate	Run4	generate/STIM_007.jpg	99
2751.774	0.876	876.3	generate	Run4	generate/STIM_007.jpg	99
2755.904	1.179	1179.1	generate	Run4	generate/STIM_007.jpg	100
2759.574	2.07	2070.0	generate	Run4	generate/STIM_008.jpg	99
2763.902	1.559	1559.2	generate	Run4	generate/STIM_008.jpg	99
2769.421	2.069	2069.0	generate	Run4	generate/STIM_008.jpg	99
2773.654	0.953	952.6	generate	Run4	generate/STIM_008.jpg	100
2778.108	1.966	1965.8	generate	Run4	generate/STIM_008.jpg	99
2783.538	1.783	1782.8	generate	Run4	generate/STIM_009.jpg	99
2787.499	1.748	1747.5	generate	Run4	generate/STIM_009.jpg	100
2791.336	1.831	1830.9	generate	Run4	generate/STIM_009.jpg	99
2795.703	1.021	1020.9	generate	Run4	generate/STIM_009.jpg	100
2799.048	0.932	932.3	generate	Run4	generate/STIM_009.jpg	100
2802.082	1.373	1372.6	generate	Run4	generate/STIM_010.jpg	100
2806.578	2.063	2063.4	generate	Run4	generate/STIM_010.jpg	99
2810.879	1.274	1273.6	generate	Run4	generate/STIM_010.jpg	99
2815.877	1.308	1308.0	generate	Run4	generate/STIM_010.jpg	100
2821.151	1.674	1673.9	generate	Run4	generate/STIM_010.jpg	99
2825.818	1.222	1221.8	generate	Run4	generate/STIM_011.jpg	99
2829.251	1.387	1387.0	generate	Run4	generate/STIM_011.jpg	100
2833.892	1.851	1850.8	generate	Run4	generate/STIM_011.jpg	100
2839.341	1.566	1566.3	generate	Run4	generate/STIM_011.jpg	99
2843.845	1.966	1966.0	generate	Run4	generate/STIM_011.jpg	100
2848.936	1.153	1153.0	generate	Run4	generate/STIM_012.jpg	100
2854.034	2.101	2101.2	generate	Run4	generate/STIM_012.jpg	100
2858.527	1.2	1199.9	generate	Run4	generate/STIM_012.jpg	100
2863.256	1.985	1985.3	generate	Run4	generate/STIM_012.jpg	100
2868.222	1.055	1054.6	generate	Run4	generate/STIM_012.jpg	99
2873.196	1.626	1626.1	generate	Run4	generate/STIM_013.jpg	100
2878.18	1.482	1482.5	generate	Run4	generate/STIM_013.jpg	100
2882.07	1.572	1571.6	generate	Run4	generate/STIM_013.jpg	100
2887.028	1.406	1405.6	generate	Run4	generate/STIM_013.jpg	100
2892.043	1.458	1458.3	generate	Run4	generate/STIM_013.jpg	100
2896.733	1.947	1947.3	generate	Run4	generate/STIM_014.jpg	99
2901.964	1.497	1497.4	generate	Run4	generate/STIM_014.jpg	100
2905.521	1.394	1394.2	generate	Run4	generate/STIM_014.jpg	100
2909.11	1.439	1439.3	generate	Run4	generate/STIM_014.jpg	100
2912.907	0.871	871.4	generate	Run4	generate/STIM_014.jpg	99
2916.903	0.971	971.4	generate	Run4	generate/STIM_015.jpg	99
2920.735	1.513	1512.7	generate	Run4	generate/STIM_015.jpg	99
2924.901	0.991	991.2	generate	Run4	generate/STIM_015.jpg	100
2929.77	0.884	884.0	generate	Run4	generate/STIM_015.jpg	99
2932.936	1.698	1697.6	generate	Run4	generate/STIM_015.jpg	100
2937.689	1.492	1491.7	generate	Run4	generate/STIM_016.jpg	99
2942.246	1.261	1260.8	generate	Run4	generate/STIM_016.jpg	100
2946.757	1.113	1112.9	generate	Run4	generate/STIM_016.jpg	100
2949.979	1.622	1622.2	generate	Run4	generate/STIM_016.jpg	99
2954.096	1.968	1968.3	generate	Run4	generate/STIM_016.jpg	99
2959.756	1.892	1892.3	generate	Run4	generate/STIM_017.jpg	99
2964.178	1.111	1110.9	generate	Run4	generate/STIM_017.jpg	100
2968.403	1.552	1552.4	generate	Run4	generate/STIM_017.jpg	100
2973.51	1.307	1307.4	generate	Run4	generate/STIM_017.jpg	100
2978.772	1.808	1808.3	generate	Run4	generate/STIM_017.jpg	99
2982.868	1.593	1592.6	generate	Run4	generate/STIM_018.jpg	100
2987.126	1.139	1139.4	generate	Run4	generate/STIM_018.jpg	99
2991.982	1.482	1482.5	generate	Run4	generate/STIM_018.jpg	100
2995.859	1.509	1509.2	generate	Run4	generate/STIM_018.jpg	100
3000.231	2.013	2012.9	generate	Run4	generate/STIM_018.jpg	99
3006.163	1.552	1552.3	generate	Run4	generate/STIM_019.jpg	99
3011.37	1.114	1114.3	generate	Run4	generate/STIM_019.jpg	100
3014.513	0.993	992.8	generate	Run4	generate/STIM_019.jpg	100
3018.643	1.414	1414.4	generate	Run4	generate/STIM_019.jpg	99
3022.576	1.163	1163.4	generate	Run4	generate/STIM_019.jpg	100
3026.502	1.357	1357.2	generate	Run4	generate/STIM_020.jpg	99
3030.476	1.216	1216.1	generate	Run4	generate/STIM_020.jpg	100
3033.954	1.731	1731.0	generate	Run4	generate/STIM_020.jpg	100
3038.538	1.44	1440.2	generate	Run4	generate/STIM_020.jpg	99
3042.776	2.015	2015.1	generate	Run4	generate/STIM_020.jpg	99
3047.681	1.788	1787.8	generate	Run4	generate/STIM_021.jpg	99
3051.459	1.699	1698.7	generate	Run4	generate/STIM_021.jpg	99
3055.268	1.376	1375.6	generate	Run4	generate/STIM_021.jpg	99
3058.807	1.831	1830.7	generate	Run4	generate/STIM_021.jpg	100
3064.486	1.732	1731.6	generate	Run4	generate/STIM_021.jpg	100
3068.878	0.902	901.9	generate	Run4	generate/STIM_022.jpg	99
3072.586	1.512	1512.3	generate	Run4	generate/STIM_022.jpg	100
3077.006	0.861	860.7	generate	Run4	generate/STIM_022.jpg	99
3081.767	1.42	1419.7	generate	Run4	generate/STIM_022.jpg	100
3086.148	1.115	1115.3	generate	Run4	generate/STIM_022.jpg	100
3089.485	1.801	1801.0	generate	Run4	generate/STIM_023.jpg	99
3093.414	1.186	1185.8	generate	Run4	generate/STIM_023.jpg	99
3097.749	1.276	1275.6	generate	Run4	generate/STIM_023.jpg	99
3101.244	1.272	1272.5	generate	Run4	generate/STIM_023.jpg	99
3104.993	1.92	1919.7	generate	Run4	generate/STIM_023.jpg	100
3110.223	1.48	1479.7	generate	Run4	generate/STIM_024.jpg	99
3114.863	0.889	888.9	generate	Run4	generate/STIM_024.jpg	99
3118.277	1.8	1799.6	generate	Run4	generate/STIM_024.jpg	100
3123.61	1.358	1358.4	generate	Run4	generate/STIM_024.jpg	99
3127.762	1.534	1534.1	generate	Run4	generate/STIM_024.jpg	100
3131.479	0.938	938.3	repeat	Run4	repeat/STIM_000.jpg	100
3134.874	0.931	931.2	repeat	Run4	repeat/STIM_000.jpg	99
3138.555	0.985	985.1	repeat	Run4	repeat/STIM_000.jpg	99
3142.042	0.961	961.3	repeat	Run4	repeat/STIM_000.jpg	99
3146.98	0.507	506.9	repeat	Run4	repeat/STIM_000.jpg	99
3149.869	0.673	673.1	repeat	Run4	repeat/STIM_001.jpg	100
3152.642	0.639	638.7	repeat	Run4	repeat/STIM_001.jpg	99
3156.462	0.639	638.9	repeat	Run4	repeat/STIM_001.jpg	100
3160.154	0.843	842.8	repeat	Run4	repeat/STIM_001.jpg	99
3164.811	0.613	612.6	repeat	Run4	repeat/STIM_001.jpg	99
3168.772	0.692	692.1	repeat	Run4	repeat/STIM_002.jpg	99
3173.072	0.803	803.1	repeat	Run4	repeat/STIM_002.jpg	100
3176.551	0.868	868.1	repeat	Run4	repeat/STIM_002.jpg	100
3181.277	0.693	693.0	repeat	Run4	repeat/STIM_002.jpg	100
3185.79	0.797	797.2	repeat	Run4	repeat/STIM_002.jpg	99
3188.745	0.695	694.9	repeat	Run4	repeat/STIM_003.jpg	100
3191.554	0.698	697.5	repeat	Run4	repeat/STIM_003.jpg	100
3194.775	0.623	623.0	repeat	Run4	repeat/STIM_003.jpg	99
3198.919	0.591	591.1	repeat	Run4	repeat/STIM_003.jpg	99
3203.1	0.965	965.4	repeat	Run4	repeat/STIM_003.jpg	99
3206.692	0.964	963.6	repeat	Run4	repeat/STIM_004.jpg	99
3211.028	0.781	781.3	repeat	Run4	repeat/STIM_004.jpg	100
3214.58	0.743	743.3	repeat	Run4	repeat/STIM_004.jpg	100
3218.042	0.993	992.9	repeat	Run4	repeat/STIM_004.jpg	99
3221.757	0.696	696.4	repeat	Run4	repeat/STIM_004.jpg	100
3225.015	0.974	974.3	repeat	Run4	repeat/STIM_005.jpg	99
3229.425	0.823	823.2	repeat	Run4	repeat/STIM_005.jpg	99
3232.714	0.745	745.2	repeat	Run4	repeat/STIM_005.jpg	100
3235.625	0.748	748.4	repeat	Run4	repeat/STIM_005.jpg	99
3238.9	0.853	853.1	repeat	Run4	repeat/STIM_005.jpg	100
3242.54	0.708	707.7	repeat	Run4	repeat/STIM_006.jpg	99
3246.254	0.779	779.2	repeat	Run4	repeat/STIM_006.jpg	99
3250.247	0.737	737.3	repeat	Run4	repeat/STIM_006.jpg	100
3254.298	0.669	668.9	repeat	Run4	repeat/STIM_006.jpg	99
3258.127	0.97	970.4	repeat	Run4	repeat/STIM_006.jpg	100
3261.513	0.726	726.1	repeat	Run4	repeat/STIM_007.jpg	100
3265.346	0.696	696.4	repeat	Run4	repeat/STIM_007.jpg	99
3268.814	0.848	848.3	repeat	Run4	repeat/STIM_007.jpg	100
3271.658	0.618	618.2	repeat	Run4	repeat/STIM_007.jpg	99
3275.701	0.701	701.3	repeat	Run4	repeat/STIM_007.jpg	100
3278.425	0.816	816.4	repeat	Run4	repeat/STIM_008.jpg	99
3282.196	0.651	650.7	repeat	Run4	repeat/STIM_008.jpg	99
3286.457	0.996	996.1	repeat	Run4	repeat/STIM_008.jpg	99
3290.997	0.739	739.2	repeat	Run4	repeat/STIM_008.jpg	100
3294.898	0.523	522.7	repeat	Run4	repeat/STIM_008.jpg	100
3297.45	0.784	783.9	repeat	Run4	repeat/STIM_009.jpg	99
3302.012	0.646	646.3	repeat	Run4	repeat/STIM_009.jpg	99
3305.808	0.995	994.8	repeat	Run4	repeat/STIM_009.jpg	100
3308.989	0.711	710.8	repeat	Run4	repeat/STIM_009.jpg	99
3312.305	0.631	631.2	repeat	Run4	repeat/STIM_009.jpg	99
3316.611	0.559	558.9	repeat	Run4	repeat/STIM_010.jpg	100
3319.917	0.883	883.0	repeat	Run4	repeat/STIM_010.jpg	99
3324.316	0.718	718.3	repeat	Run4	repeat/STIM_010.jpg	100
3327.498	0.972	972.1	repeat	Run4	repeat/STIM_010.jpg	100
3330.615	0.945	945.0	repeat	Run4	repeat/STIM_010.jpg	99
3335.063	0.997	996.7	repeat	Run4	repeat/STIM_011.jpg	100
3338.1	0.623	622.6	repeat	Run4	repeat/STIM_011.jpg	99
3341.782	0.677	677.0	repeat	Run4	repeat/STIM_011.jpg	99
3344.682	0.923	922.8	repeat	Run4	repeat/STIM_011.jpg	99
3348.541	0.966	966.3	repeat	Run4	repeat/STIM_011.jpg	99
3352.477	0.705	704.6	repeat	Run4	repeat/STIM_012.jpg	99
3355.994	0.689	689.4	repeat	Run4	repeat/STIM_012.jpg	100
3359.55	0.628	628.4	repeat	Run4	repeat/STIM_012.jpg	100
3363.028	0.96	959.7	repeat	Run4	repeat/STIM_012.jpg	99
3366.149	0.948	948.3	repeat	Run4	repeat/STIM_012.jpg	99
3369.354	0.58	579.7	repeat	Run4	repeat/STIM_013.jpg	100
3373.163	0.846	846.0	repeat	Run4	repeat/STIM_013.jpg	99
3377.743	0.792	792.0	repeat	Run4	repeat/STIM_013.jpg	100
3382.463	0.959	959.3	repeat	Run4	repeat/STIM_013.jpg	99
3387.21	0.974	973.6	repeat	Run4	repeat/STIM_013.jpg	100
3391.753	0.516	515.5	repeat	Run4	repeat/STIM_014.jpg	99
3394.753	0.936	936.1	repeat	Run4	repeat/STIM_014.jpg	100
3398.915	0.821	820.8	repeat	Run4	repeat/STIM_014.jpg	100
3402.568	0.937	937.3	repeat	Run4	repeat/STIM_014.jpg	99
3407.185	0.798	797.7	repeat	Run4	repeat/STIM_014.jpg	100
