onset	duration	accuracy	trial_type	learning_stage	stimulus
0.0	2.474	correct	generate	Run1	generate/STIM_000.jpg
4.854	3.066	correct	generate	Run1	generate/STIM_000.jpg
11.268	2.454	incorrect	generate	Run1	generate/STIM_000.jpg
17.008	2.862	correct	generate	Run1	generate/STIM_000.jpg
22.813	2.42	correct	generate	Run1	generate/STIM_000.jpg
27.512	3.763	correct	generate	Run1	generate/STIM_001.jpg
34.61	2.236	incorrect	generate	Run1	generate/STIM_001.jpg
39.929	2.036	correct	generate	Run1	generate/STIM_001.jpg
44.865	3.208	incorrect	generate	Run1	generate/STIM_001.jpg
50.99	1.306	correct	generate	Run1	generate/STIM_001.jpg
56.187	2.087	incorrect	generate	Run1	generate/STIM_002.jpg
61.849	3.023	correct	generate	Run1	generate/STIM_002.jpg
67.305	2.388	correct	generate	Run1	generate/STIM_002.jpg
72.175	3.3	correct	generate	Run1	generate/STIM_002.jpg
78.717	1.673	incorrect	generate	Run1	generate/STIM_002.jpg
83.775	2.901	correct	generate	Run1	generate/STIM_003.jpg
89.454	2.741	incorrect	generate	Run1	generate/STIM_003.jpg
95.387	1.94	correct	generate	Run1	generate/STIM_003.jpg
101.256	2.553	correct	generate	Run1	generate/STIM_003.jpg
106.02	2.002	correct	generate	Run1	generate/STIM_003.jpg
111.769	3.308	incorrect	generate	Run1	generate/STIM_004.jpg
118.93	1.699	correct	generate	Run1	generate/STIM_004.jpg
123.44	2.045	correct	generate	Run1	generate/STIM_004.jpg
129.262	1.938	incorrect	generate	Run1	generate/STIM_004.jpg
134.224	3.017	incorrect	generate	Run1	generate/STIM_004.jpg
141.037	2.099	correct	generate	Run1	generate/STIM_005.jpg
146.683	2.704	correct	generate	Run1	generate/STIM_005.jpg
151.944	1.533	correct	generate	Run1	generate/STIM_005.jpg
156.116	1.765	correct	generate	Run1	generate/STIM_005.jpg
160.349	2.44	correct	generate	Run1	generate/STIM_005.jpg
166.257	3.03	incorrect	generate	Run1	generate/STIM_006.jpg
173.137	2.238	correct	generate	Run1	generate/STIM_006.jpg
177.783	1.943	correct	generate	Run1	generate/STIM_006.jpg
182.509	3.061	incorrect	generate	Run1	generate/STIM_006.jpg
188.765	2.917	incorrect	generate	Run1	generate/STIM_006.jpg
194.134	1.989	correct	generate	Run1	generate/STIM_007.jpg
198.401	3.257	incorrect	generate	Run1	generate/STIM_007.jpg
204.093	2.593	correct	generate	Run1	generate/STIM_007.jpg
209.134	1.731	incorrect	generate	Run1	generate/STIM_007.jpg
214.159	2.99	correct	generate	Run1	generate/STIM_007.jpg
221.119	2.736	correct	generate	Run1	generate/STIM_008.jpg
226.497	2.422	correct	generate	Run1	generate/STIM_008.jpg
231.815	2.819	correct	generate	Run1	generate/STIM_008.jpg
237.035	2.262	incorrect	generate	Run1	generate/STIM_008.jpg
242.186	1.398	correct	generate	Run1	generate/STIM_008.jpg
246.263	2.449	correct	generate	Run1	generate/STIM_009.jpg
251.578	1.807	correct	generate	Run1	generate/STIM_009.jpg
257.044	3.429	correct	generate	Run1	generate/STIM_009.jpg
264.384	1.372	correct	generate	Run1	generate/STIM_009.jpg
267.759	2.053	correct	generate	Run1	generate/STIM_009.jpg
273.246	3.768	correct	generate	Run1	generate/STIM_010.jpg
280.583	2.543	correct	generate	Run1	generate/STIM_010.jpg
285.942	3.154	correct	generate	Run1	generate/STIM_010.jpg
291.838	2.697	correct	generate	Run1	generate/STIM_010.jpg
296.84	1.419	correct	generate	Run1	generate/STIM_010.jpg
301.824	2.652	correct	generate	Run1	generate/STIM_011.jpg
307.693	1.873	correct	generate	Run1	generate/STIM_011.jpg
312.085	3.395	correct	generate	Run1	generate/STIM_011.jpg
317.827	1.524	correct	generate	Run1	generate/STIM_011.jpg
321.988	3.132	correct	generate	Run1	generate/STIM_011.jpg
327.622	2.124	correct	generate	Run1	generate/STIM_012.jpg
331.878	2.255	incorrect	generate	Run1	generate/STIM_012.jpg
337.787	2.676	incorrect	generate	Run1	generate/STIM_012.jpg
343.229	2.946	correct	generate	Run1	generate/STIM_012.jpg
348.492	2.566	incorrect	generate	Run1	generate/STIM_012.jpg
353.82	2.249	correct	generate	Run1	generate/STIM_013.jpg
359.049	2.573	correct	generate	Run1	generate/STIM_013.jpg
365.505	2.944	correct	generate	Run1	generate/STIM_013.jpg
371.769	2.728	incorrect	generate	Run1	generate/STIM_013.jpg
377.544	2.938	correct	generate	Run1	generate/STIM_013.jpg
383.931	2.491	correct	generate	Run1	generate/STIM_014.jpg
390.071	2.718	incorrect	generate	Run1	generate/STIM_014.jpg
396.283	2.941	correct	generate	Run1	generate/STIM_014.jpg
402.068	2.658	correct	generate	Run1	generate/STIM_014.jpg
408.25	2.969	correct	generate	Run1	generate/STIM_014.jpg
414.812	2.378	correct	generate	Run1	generate/STIM_015.jpg
419.287	2.629	correct	generate	Run1	generate/STIM_015.jpg
425.348	1.893	correct	generate	Run1	generate/STIM_015.jpg
430.507	2.646	correct	generate	Run1	generate/STIM_015.jpg
436.993	1.527	correct	generate	Run1	generate/STIM_015.jpg
441.611	1.881	incorrect	generate	Run1	generate/STIM_016.jpg
447.161	2.516	incorrect	generate	Run1	generate/STIM_016.jpg
453.533	3.48	correct	generate	Run1	generate/STIM_016.jpg
460.645	2.33	correct	generate	Run1	generate/STIM_016.jpg
466.217	2.528	correct	generate	Run1	generate/STIM_016.jpg
471.929	2.335	correct	generate	Run1	generate/STIM_017.jpg
478.008	2.033	correct	generate	Run1	generate/STIM_017.jpg
483.837	1.79	correct	generate	Run1	generate/STIM_017.jpg
488.872	2.437	correct	generate	Run1	generate/STIM_017.jpg
493.865	2.956	correct	generate	Run1	generate/STIM_017.jpg
499.322	2.123	correct	generate	Run1	generate/STIM_018.jpg
503.828	1.751	correct	generate	Run1	generate/STIM_018.jpg
507.682	1.496	incorrect	generate	Run1	generate/STIM_018.jpg
511.621	2.134	correct	generate	Run1	generate/STIM_018.jpg
515.954	1.827	incorrect	generate	Run1	generate/STIM_018.jpg
520.041	2.584	correct	generate	Run1	generate/STIM_019.jpg
526.437	3.342	incorrect	generate	Run1	generate/STIM_019.jpg
532.47	2.867	incorrect	generate	Run1	generate/STIM_019.jpg
538.268	2.478	correct	generate	Run1	generate/STIM_019.jpg
544.231	1.499	correct	generate	Run1	generate/STIM_019.jpg
548.571	1.642	correct	generate	Run1	generate/STIM_020.jpg
552.984	3.518	correct	generate	Run1	generate/STIM_020.jpg
558.868	2.61	correct	generate	Run1	generate/STIM_020.jpg
564.354	1.378	correct	generate	Run1	generate/STIM_020.jpg
568.24	1.575	correct	generate	Run1	generate/STIM_020.jpg
573.591	3.199	correct	generate	Run1	generate/STIM_021.jpg
580.023	2.642	correct	generate	Run1	generate/STIM_021.jpg
585.332	1.46	correct	generate	Run1	generate/STIM_021.jpg
589.869	3.216	correct	generate	Run1	generate/STIM_021.jpg
596.451	1.82	incorrect	generate	Run1	generate/STIM_021.jpg
601.225	3.822	incorrect	generate	Run1	generate/STIM_022.jpg
608.928	1.838	correct	generate	Run1	generate/STIM_022.jpg
614.131	3.574	correct	generate	Run1	generate/STIM_022.jpg
621.029	2.074	correct	generate	Run1	generate/STIM_022.jpg
626.88	3.006	incorrect	generate	Run1	generate/STIM_022.jpg
631.975	2.195	correct	generate	Run1	generate/STIM_023.jpg
637.977	2.665	incorrect	generate	Run1	generate/STIM_023.jpg
643.971	3.214	incorrect	generate	Run1	generate/STIM_023.jpg
650.433	3.105	correct	generate	Run1	generate/STIM_023.jpg
655.772	1.649	correct	generate	Run1	generate/STIM_023.jpg
660.103	3.586	correct	generate	Run1	generate/STIM_024.jpg
666.659	2.18	incorrect	generate	Run1	generate/STIM_024.jpg
672.271	2.502	incorrect	generate	Run1	generate/STIM_024.jpg
678.327	2.04	correct	generate	Run1	generate/STIM_024.jpg
683.234	2.43	correct	generate	Run1	generate/STIM_024.jpg
689.191	1.25	correct	repeat	Run1	repeat/STIM_000.jpg
693.171	0.957	correct	repeat	Run1	repeat/STIM_000.jpg
697.29	0.998	correct	repeat	Run1	repeat/STIM_000.jpg
700.593	1.268	correct	repeat	Run1	repeat/STIM_000.jpg
704.718	0.783	correct	repeat	Run1	repeat/STIM_000.jpg
709.309	0.707	correct	repeat	Run1	repeat/STIM_001.jpg
713.246	0.798	correct	repeat	Run1	repeat/STIM_001.jpg
716.869	1.168	correct	repeat	Run1	repeat/STIM_001.jpg
720.762	1.302	correct	repeat	Run1	repeat/STIM_001.jpg
725.818	1.201	correct	repeat	Run1	repeat/STIM_001.jpg
730.547	0.779	correct	repeat	Run1	repeat/STIM_002.jpg
734.936	0.942	correct	repeat	Run1	repeat/STIM_002.jpg
738.043	1.183	correct	repeat	Run1	repeat/STIM_002.jpg
741.694	1.047	correct	repeat	Run1	repeat/STIM_002.jpg
745.439	1.063	correct	repeat	Run1	repeat/STIM_002.jpg
748.823	1.08	correct	repeat	Run1	repeat/STIM_003.jpg
752.855	0.678	correct	repeat	Run1	repeat/STIM_003.jpg
756.711	1.066	correct	repeat	Run1	repeat/STIM_003.jpg
761.438	0.797	incorrect	repeat	Run1	repeat/STIM_003.jpg
764.531	0.852	correct	repeat	Run1	repeat/STIM_003.jpg
768.519	0.837	correct	repeat	Run1	repeat/STIM_004.jpg
772.649	1.314	correct	repeat	Run1	repeat/STIM_004.jpg
776.235	1.333	correct	repeat	Run1	repeat/STIM_004.jpg
780.45	1.252	correct	repeat	Run1	repeat/STIM_004.jpg
784.108	0.887	correct	repeat	Run1	repeat/STIM_004.jpg
788.357	1.214	correct	repeat	Run1	repeat/STIM_005.jpg
792.801	1.134	correct	repeat	Run1	repeat/STIM_005.jpg
797.552	0.804	correct	repeat	Run1	repeat/STIM_005.jpg
800.535	0.672	correct	repeat	Run1	repeat/STIM_005.jpg
803.655	1.196	correct	repeat	Run1	repeat/STIM_005.jpg
807.418	0.735	correct	repeat	Run1	repeat/STIM_006.jpg
810.169	0.743	incorrect	repeat	Run1	repeat/STIM_006.jpg
813.798	0.75	correct	repeat	Run1	repeat/STIM_006.jpg
817.434	1.168	correct	repeat	Run1	repeat/STIM_006.jpg
820.692	1.096	correct	repeat	Run1	repeat/STIM_006.jpg
824.39	1.009	correct	repeat	Run1	repeat/STIM_007.jpg
828.872	1.318	incorrect	repeat	Run1	repeat/STIM_007.jpg
834.181	0.951	correct	repeat	Run1	repeat/STIM_007.jpg
837.656	1.24	correct	repeat	Run1	repeat/STIM_007.jpg
841.967	1.15	correct	repeat	Run1	repeat/STIM_007.jpg
845.741	0.917	correct	repeat	Run1	repeat/STIM_008.jpg
849.402	0.928	correct	repeat	Run1	repeat/STIM_008.jpg
853.05	0.975	correct	repeat	Run1	repeat/STIM_008.jpg
856.382	0.771	correct	repeat	Run1	repeat/STIM_008.jpg
860.91	0.672	correct	repeat	Run1	repeat/STIM_008.jpg
864.066	0.962	correct	repeat	Run1	repeat/STIM_009.jpg
868.308	0.685	correct	repeat	Run1	repeat/STIM_009.jpg
871.837	0.94	correct	repeat	Run1	repeat/STIM_009.jpg
875.664	1.166	correct	repeat	Run1	repeat/STIM_009.jpg
879.961	1.33	correct	repeat	Run1	repeat/STIM_009.jpg
883.687	0.917	correct	repeat	Run1	repeat/STIM_010.jpg
887.899	1.302	correct	repeat	Run1	repeat/STIM_010.jpg
891.655	1.277	incorrect	repeat	Run1	repeat/STIM_010.jpg
896.087	0.912	correct	repeat	Run1	repeat/STIM_010.jpg
899.264	0.721	correct	repeat	Run1	repeat/STIM_010.jpg
903.41	1.219	correct	repeat	Run1	repeat/STIM_011.jpg
906.814	1.168	correct	repeat	Run1	repeat/STIM_011.jpg
911.595	1.079	correct	repeat	Run1	repeat/STIM_011.jpg
915.418	0.949	correct	repeat	Run1	repeat/STIM_011.jpg
919.686	0.794	correct	repeat	Run1	repeat/STIM_011.jpg
923.56	1.179	correct	repeat	Run1	repeat/STIM_012.jpg
927.442	0.758	correct	repeat	Run1	repeat/STIM_012.jpg
930.432	1.008	correct	repeat	Run1	repeat/STIM_012.jpg
934.292	0.823	correct	repeat	Run1	repeat/STIM_012.jpg
937.992	0.995	incorrect	repeat	Run1	repeat/STIM_012.jpg
941.939	0.955	correct	repeat	Run1	repeat/STIM_013.jpg
945.119	0.808	correct	repeat	Run1	repeat/STIM_013.jpg
948.268	1.026	correct	repeat	Run1	repeat/STIM_013.jpg
951.521	1.004	incorrect	repeat	Run1	repeat/STIM_013.jpg
954.871	1.042	correct	repeat	Run1	repeat/STIM_013.jpg
959.594	0.722	incorrect	repeat	Run1	repeat/STIM_014.jpg
963.706	1.088	correct	repeat	Run1	repeat/STIM_014.jpg
968.096	1.093	correct	repeat	Run1	repeat/STIM_014.jpg
971.436	1.103	correct	repeat	Run1	repeat/STIM_014.jpg
974.83	0.95	correct	repeat	Run1	repeat/STIM_014.jpg
979.335	2.058	correct	generate	Run2	generate/STIM_000.jpg
984.347	2.222	incorrect	generate	Run2	generate/STIM_000.jpg
990.065	1.378	correct	generate	Run2	generate/STIM_000.jpg
993.848	1.774	incorrect	generate	Run2	generate/STIM_000.jpg
999.043	2.561	incorrect	generate	Run2	generate/STIM_000.jpg
1004.669	2.813	incorrect	generate	Run2	generate/STIM_001.jpg
1009.661	2.912	incorrect	generate	Run2	generate/STIM_001.jpg
1015.782	2.385	correct	generate	Run2	generate/STIM_001.jpg
1020.541	1.72	correct	generate	Run2	generate/STIM_001.jpg
1025.919	1.705	correct	generate	Run2	generate/STIM_001.jpg
1031.581	3.028	incorrect	generate	Run2	generate/STIM_002.jpg
1038.348	3.062	correct	generate	Run2	generate/STIM_002.jpg
1044.061	1.902	correct	generate	Run2	generate/STIM_002.jpg
1049.946	2.293	correct	generate	Run2	generate/STIM_002.jpg
1055.911	1.453	correct	generate	Run2	generate/STIM_002.jpg
1059.538	2.042	correct	generate	Run2	generate/STIM_003.jpg
1064.425	1.464	incorrect	generate	Run2	generate/STIM_003.jpg
1069.684	1.871	correct	generate	Run2	generate/STIM_003.jpg
1073.821	2.415	correct	generate	Run2	generate/STIM_003.jpg
1078.564	1.71	correct	generate	Run2	generate/STIM_003.jpg
1082.367	3.166	correct	generate	Run2	generate/STIM_004.jpg
1088.612	3.073	correct	generate	Run2	generate/STIM_004.jpg
1095.07	1.844	correct	generate	Run2	generate/STIM_004.jpg
1100.192	1.192	correct	generate	Run2	generate/STIM_004.jpg
1104.289	1.904	correct	generate	Run2	generate/STIM_004.jpg
1108.578	1.848	correct	generate	Run2	generate/STIM_005.jpg
1114.145	3.04	correct	generate	Run2	generate/STIM_005.jpg
1121.023	1.516	correct	generate	Run2	generate/STIM_005.jpg
1126.01	1.927	correct	generate	Run2	generate/STIM_005.jpg
1130.029	2.207	correct	generate	Run2	generate/STIM_005.jpg
1136.152	2.529	correct	generate	Run2	generate/STIM_006.jpg
1142.476	2.076	correct	generate	Run2	generate/STIM_006.jpg
1148.519	1.883	correct	generate	Run2	generate/STIM_006.jpg
1152.755	1.527	correct	generate	Run2	generate/STIM_006.jpg
1158.113	1.863	correct	generate	Run2	generate/STIM_006.jpg
1163.386	1.732	correct	generate	Run2	generate/STIM_007.jpg
1168.629	1.456	incorrect	generate	Run2	generate/STIM_007.jpg
1173.725	1.588	correct	generate	Run2	generate/STIM_007.jpg
1178.723	1.497	correct	generate	Run2	generate/STIM_007.jpg
1183.791	2.79	correct	generate	Run2	generate/STIM_007.jpg
1189.903	2.22	incorrect	generate	Run2	generate/STIM_008.jpg
1195.398	1.805	correct	generate	Run2	generate/STIM_008.jpg
1199.339	2.823	correct	generate	Run2	generate/STIM_008.jpg
1206.085	1.418	correct	generate	Run2	generate/STIM_008.jpg
1210.368	1.74	correct	generate	Run2	generate/STIM_008.jpg
1215.118	2.509	incorrect	generate	Run2	generate/STIM_009.jpg
1220.409	2.001	correct	generate	Run2	generate/STIM_009.jpg
1225.83	1.371	correct	generate	Run2	generate/STIM_009.jpg
1231.172	2.078	correct	generate	Run2	generate/STIM_009.jpg
1236.972	1.778	correct	generate	Run2	generate/STIM_009.jpg
1241.439	2.875	correct	generate	Run2	generate/STIM_010.jpg
1246.824	1.487	correct	generate	Run2	generate/STIM_010.jpg
1252.271	1.607	incorrect	generate	Run2	generate/STIM_010.jpg
1256.377	2.701	correct	generate	Run2	generate/STIM_010.jpg
1261.166	2.719	correct	generate	Run2	generate/STIM_010.jpg
1267.213	2.925	incorrect	generate	Run2	generate/STIM_011.jpg
1273.674	2.936	correct	generate	Run2	generate/STIM_011.jpg
1280.297	1.498	correct	generate	Run2	generate/STIM_011.jpg
1285.471	1.249	incorrect	generate	Run2	generate/STIM_011.jpg
1289.577	2.59	correct	generate	Run2	generate/STIM_011.jpg
1296.121	3.245	correct	generate	Run2	generate/STIM_012.jpg
1302.461	1.961	correct	generate	Run2	generate/STIM_012.jpg
1307.115	2.721	correct	generate	Run2	generate/STIM_012.jpg
1313.613	2.472	correct	generate	Run2	generate/STIM_012.jpg
1319.582	1.656	correct	generate	Run2	generate/STIM_012.jpg
1323.35	3.099	correct	generate	Run2	generate/STIM_013.jpg
1329.677	2.664	correct	generate	Run2	generate/STIM_013.jpg
1334.47	1.335	incorrect	generate	Run2	generate/STIM_013.jpg
1339.472	1.846	incorrect	generate	Run2	generate/STIM_013.jpg
1344.542	1.397	correct	generate	Run2	generate/STIM_013.jpg
1348.509	1.554	correct	generate	Run2	generate/STIM_014.jpg
1352.862	2.681	incorrect	generate	Run2	generate/STIM_014.jpg
1358.158	1.737	correct	generate	Run2	generate/STIM_014.jpg
1363.3	1.495	correct	generate	Run2	generate/STIM_014.jpg
1368.091	1.872	correct	generate	Run2	generate/STIM_014.jpg
1372.523	3.145	correct	generate	Run2	generate/STIM_015.jpg
1378.586	1.719	correct	generate	Run2	generate/STIM_015.jpg
1382.687	1.851	correct	generate	Run2	generate/STIM_015.jpg
1387.67	2.197	correct	generate	Run2	generate/STIM_015.jpg
1393.214	2.129	correct	generate	Run2	generate/STIM_015.jpg
1398.614	3.062	correct	generate	Run2	generate/STIM_016.jpg
1403.691	2.332	correct	generate	Run2	generate/STIM_016.jpg
1408.794	1.516	correct	generate	Run2	generate/STIM_016.jpg
1413.858	2.468	correct	generate	Run2	generate/STIM_016.jpg
1419.198	1.502	incorrect	generate	Run2	generate/STIM_016.jpg
1424.014	1.745	correct	generate	Run2	generate/STIM_017.jpg
1428.177	1.596	incorrect	generate	Run2	generate/STIM_017.jpg
1432.279	1.458	correct	generate	Run2	generate/STIM_017.jpg
1436.904	2.53	incorrect	generate	Run2	generate/STIM_017.jpg
1442.419	1.579	correct	generate	Run2	generate/STIM_017.jpg
1447.587	2.563	correct	generate	Run2	generate/STIM_018.jpg
1453.014	1.554	incorrect	generate	Run2	generate/STIM_018.jpg
1456.705	2.386	incorrect	generate	Run2	generate/STIM_018.jpg
1462.936	2.807	correct	generate	Run2	generate/STIM_018.jpg
1468.893	2.159	correct	generate	Run2	generate/STIM_018.jpg
1474.222	2.299	incorrect	generate	Run2	generate/STIM_019.jpg
1478.637	2.387	correct	generate	Run2	generate/STIM_019.jpg
1484.433	1.666	correct	generate	Run2	generate/STIM_019.jpg
1489.769	2.438	correct	generate	Run2	generate/STIM_019.jpg
1495.97	2.697	correct	generate	Run2	generate/STIM_019.jpg
1501.02	2.319	correct	generate	Run2	generate/STIM_020.jpg
1506.082	1.655	correct	generate	Run2	generate/STIM_020.jpg
1510.748	1.682	incorrect	generate	Run2	generate/STIM_020.jpg
1515.907	1.556	incorrect	generate	Run2	generate/STIM_020.jpg
1520.07	1.679	correct	generate	Run2	generate/STIM_020.jpg
1525.327	3.035	correct	generate	Run2	generate/STIM_021.jpg
1530.526	2.949	correct	generate	Run2	generate/STIM_021.jpg
1536.783	1.436	correct	generate	Run2	generate/STIM_021.jpg
1541.643	1.905	correct	generate	Run2	generate/STIM_021.jpg
1546.442	1.444	correct	generate	Run2	generate/STIM_021.jpg
1550.759	2.45	correct	generate	Run2	generate/STIM_022.jpg
1556.204	3.084	correct	generate	Run2	generate/STIM_022.jpg
1562.54	2.739	correct	generate	Run2	generate/STIM_022.jpg
1568.32	1.686	correct	generate	Run2	generate/STIM_022.jpg
1572.498	1.211	correct	generate	Run2	generate/STIM_022.jpg
1576.706	2.623	correct	generate	Run2	generate/STIM_023.jpg
1581.921	2.386	correct	generate	Run2	generate/STIM_023.jpg
1586.345	1.248	incorrect	generate	Run2	generate/STIM_023.jpg
1591.513	2.089	incorrect	generate	Run2	generate/STIM_023.jpg
1596.379	2.664	incorrect	generate	Run2	generate/STIM_023.jpg
1601.185	1.454	incorrect	generate	Run2	generate/STIM_024.jpg
1606.056	2.599	incorrect	generate	Run2	generate/STIM_024.jpg
1612.088	2.72	correct	generate	Run2	generate/STIM_024.jpg
1618.468	1.932	correct	generate	Run2	generate/STIM_024.jpg
1623.687	2.643	correct	generate	Run2	generate/STIM_024.jpg
1630.124	0.85	correct	repeat	Run2	repeat/STIM_000.jpg
1634.342	0.852	correct	repeat	Run2	repeat/STIM_000.jpg
1637.221	0.804	correct	repeat	Run2	repeat/STIM_000.jpg
1640.63	1.085	correct	repeat	Run2	repeat/STIM_000.jpg
1643.973	1.142	correct	repeat	Run2	repeat/STIM_000.jpg
1648.066	1.307	correct	repeat	Run2	repeat/STIM_001.jpg
1651.38	1.234	correct	repeat	Run2	repeat/STIM_001.jpg
1655.15	1.169	correct	repeat	Run2	repeat/STIM_001.jpg
1658.765	0.777	correct	repeat	Run2	repeat/STIM_001.jpg
1662.957	0.863	correct	repeat	Run2	repeat/STIM_001.jpg
1666.204	0.788	correct	repeat	Run2	repeat/STIM_002.jpg
1669.632	0.833	correct	repeat	Run2	repeat/STIM_002.jpg
1673.682	1.275	correct	repeat	Run2	repeat/STIM_002.jpg
1677.364	0.985	correct	repeat	Run2	repeat/STIM_002.jpg
1681.847	0.861	correct	repeat	Run2	repeat/STIM_002.jpg
1685.253	1.257	correct	repeat	Run2	repeat/STIM_003.jpg
1690.038	1.187	correct	repeat	Run2	repeat/STIM_003.jpg
1693.356	0.697	correct	repeat	Run2	repeat/STIM_003.jpg
1696.429	1.234	correct	repeat	Run2	repeat/STIM_003.jpg
1701.354	0.765	correct	repeat	Run2	repeat/STIM_003.jpg
1705.565	0.715	correct	repeat	Run2	repeat/STIM_004.jpg
1708.546	1.267	correct	repeat	Run2	repeat/STIM_004.jpg
1713.674	0.727	correct	repeat	Run2	repeat/STIM_004.jpg
1716.929	0.907	correct	repeat	Run2	repeat/STIM_004.jpg
1720.302	0.737	correct	repeat	Run2	repeat/STIM_004.jpg
1724.212	0.983	correct	repeat	Run2	repeat/STIM_005.jpg
1728.737	1.279	correct	repeat	Run2	repeat/STIM_005.jpg
1732.422	0.822	correct	repeat	Run2	repeat/STIM_005.jpg
1735.535	1.303	correct	repeat	Run2	repeat/STIM_005.jpg
1739.306	1.152	correct	repeat	Run2	repeat/STIM_005.jpg
1743.822	0.835	correct	repeat	Run2	repeat/STIM_006.jpg
1748.181	0.967	correct	repeat	Run2	repeat/STIM_006.jpg
1751.231	1.002	correct	repeat	Run2	repeat/STIM_006.jpg
1754.726	0.919	correct	repeat	Run2	repeat/STIM_006.jpg
1757.976	1.128	correct	repeat	Run2	repeat/STIM_006.jpg
1761.67	1.196	correct	repeat	Run2	repeat/STIM_007.jpg
1766.612	0.865	correct	repeat	Run2	repeat/STIM_007.jpg
1770.548	0.905	incorrect	repeat	Run2	repeat/STIM_007.jpg
1773.812	1.032	correct	repeat	Run2	repeat/STIM_007.jpg
1777.108	0.905	correct	repeat	Run2	repeat/STIM_007.jpg
1781.461	0.705	correct	repeat	Run2	repeat/STIM_008.jpg
1786.137	0.796	correct	repeat	Run2	repeat/STIM_008.jpg
1790.85	1.004	correct	repeat	Run2	repeat/STIM_008.jpg
1795.456	0.86	correct	repeat	Run2	repeat/STIM_008.jpg
1800.114	1.154	correct	repeat	Run2	repeat/STIM_008.jpg
1803.92	1.256	correct	repeat	Run2	repeat/STIM_009.jpg
1808.896	0.831	correct	repeat	Run2	repeat/STIM_009.jpg
1813.449	1.093	correct	repeat	Run2	repeat/STIM_009.jpg
1817.241	0.79	incorrect	repeat	Run2	repeat/STIM_009.jpg
1820.637	0.729	incorrect	repeat	Run2	repeat/STIM_009.jpg
1825.071	0.678	correct	repeat	Run2	repeat/STIM_010.jpg
1827.912	0.841	correct	repeat	Run2	repeat/STIM_010.jpg
1831.775	0.925	correct	repeat	Run2	repeat/STIM_010.jpg
1836.459	0.942	incorrect	repeat	Run2	repeat/STIM_010.jpg
1839.785	1.164	correct	repeat	Run2	repeat/STIM_010.jpg
1844.225	1.152	correct	repeat	Run2	repeat/STIM_011.jpg
1847.858	1.282	correct	repeat	Run2	repeat/STIM_011.jpg
1851.965	0.813	correct	repeat	Run2	repeat/STIM_011.jpg
1856.547	0.777	correct	repeat	Run2	repeat/STIM_011.jpg
1859.349	1.168	correct	repeat	Run2	repeat/STIM_011.jpg
1863.525	0.733	correct	repeat	Run2	repeat/STIM_012.jpg
1866.516	1.251	correct	repeat	Run2	repeat/STIM_012.jpg
1869.803	0.791	correct	repeat	Run2	repeat/STIM_012.jpg
1874.373	0.969	correct	repeat	Run2	repeat/STIM_012.jpg
1878.799	1.334	correct	repeat	Run2	repeat/STIM_012.jpg
1883.795	1.07	correct	repeat	Run2	repeat/STIM_013.jpg
1887.748	1.315	correct	repeat	Run2	repeat/STIM_013.jpg
1891.674	0.952	correct	repeat	Run2	repeat/STIM_013.jpg
1895.573	1.247	correct	repeat	Run2	repeat/STIM_013.jpg
1900.433	0.835	correct	repeat	Run2	repeat/STIM_013.jpg
1904.49	1.27	correct	repeat	Run2	repeat/STIM_014.jpg
1909.379	1.123	correct	repeat	Run2	repeat/STIM_014.jpg
1914.016	0.755	correct	repeat	Run2	repeat/STIM_014.jpg
1916.877	1.24	incorrect	repeat	Run2	repeat/STIM_014.jpg
1921.409	1.122	correct	repeat	Run2	repeat/STIM_014.jpg
1924.634	1.543	correct	generate	Run3	generate/STIM_000.jpg
1929.811	1.484	correct	generate	Run3	generate/STIM_000.jpg
1934.006	2.562	correct	generate	Run3	generate/STIM_000.jpg
1939.395	1.31	correct	generate	Run3	generate/STIM_000.jpg
1943.06	1.833	correct	generate	Run3	generate/STIM_000.jpg
1948.076	2.731	incorrect	generate	Run3	generate/STIM_001.jpg
1953.229	2.143	correct	generate	Run3	generate/STIM_001.jpg
1957.943	1.296	correct	generate	Run3	generate/STIM_001.jpg
1961.4	2.805	correct	generate	Run3	generate/STIM_001.jpg
1966.903	2.379	correct	generate	Run3	generate/STIM_001.jpg
1972.265	1.762	correct	generate	Run3	generate/STIM_002.jpg
1977.646	1.753	correct	generate	Run3	generate/STIM_002.jpg
1981.636	1.384	correct	generate	Run3	generate/STIM_002.jpg
1986.913	2.076	correct	generate	Run3	generate/STIM_002.jpg
1991.752	2.01	correct	generate	Run3	generate/STIM_002.jpg
1997.39	1.207	correct	generate	Run3	generate/STIM_003.jpg
2002.47	2.406	incorrect	generate	Run3	generate/STIM_003.jpg
2007.38	1.237	correct	generate	Run3	generate/STIM_003.jpg
2010.803	1.774	correct	generate	Run3	generate/STIM_003.jpg
2014.748	2.084	correct	generate	Run3	generate/STIM_003.jpg
2019.038	1.167	correct	generate	Run3	generate/STIM_004.jpg
2022.877	1.329	correct	generate	Run3	generate/STIM_004.jpg
2027.582	2.579	incorrect	generate	Run3	generate/STIM_004.jpg
2033.067	2.167	correct	generate	Run3	generate/STIM_004.jpg
2038.174	1.81	correct	generate	Run3	generate/STIM_004.jpg
2042.875	2.552	correct	generate	Run3	generate/STIM_005.jpg
2048.462	1.818	incorrect	generate	Run3	generate/STIM_005.jpg
2053.246	2.301	correct	generate	Run3	generate/STIM_005.jpg
2057.836	1.169	incorrect	generate	Run3	generate/STIM_005.jpg
2061.427	1.265	correct	generate	Run3	generate/STIM_005.jpg
2066.611	1.568	correct	generate	Run3	generate/STIM_006.jpg
2071.003	2.688	correct	generate	Run3	generate/STIM_006.jpg
2077.083	2.609	correct	generate	Run3	generate/STIM_006.jpg
2082.348	2.57	incorrect	generate	Run3	generate/STIM_006.jpg
2086.946	1.285	correct	generate	Run3	generate/STIM_006.jpg
2092.147	2.045	incorrect	generate	Run3	generate/STIM_007.jpg
2097.577	2.185	correct	generate	Run3	generate/STIM_007.jpg
2102.12	2.473	incorrect	generate	Run3	generate/STIM_007.jpg
2107.408	1.355	correct	generate	Run3	generate/STIM_007.jpg
2112.221	1.517	correct	generate	Run3	generate/STIM_007.jpg
2117.022	1.314	correct	generate	Run3	generate/STIM_008.jpg
2120.841	2.492	correct	generate	Run3	generate/STIM_008.jpg
2126.156	1.983	correct	generate	Run3	generate/STIM_008.jpg
2131.942	2.247	correct	generate	Run3	generate/STIM_008.jpg
2137.948	1.388	correct	generate	Run3	generate/STIM_008.jpg
2142.955	2.792	correct	generate	Run3	generate/STIM_009.jpg
2148.318	2.447	correct	generate	Run3	generate/STIM_009.jpg
2153.552	2.622	incorrect	generate	Run3	generate/STIM_009.jpg
2159.718	2.778	incorrect	generate	Run3	generate/STIM_009.jpg
2166.265	2.431	incorrect	generate	Run3	generate/STIM_009.jpg
2172.107	2.576	correct	generate	Run3	generate/STIM_010.jpg
2178.551	1.599	correct	generate	Run3	generate/STIM_010.jpg
2183.706	1.948	correct	generate	Run3	generate/STIM_010.jpg
2189.538	2.342	correct	generate	Run3	generate/STIM_010.jpg
2195.657	1.62	incorrect	generate	Run3	generate/STIM_010.jpg
2200.887	1.208	correct	generate	Run3	generate/STIM_011.jpg
2205.811	1.766	correct	generate	Run3	generate/STIM_011.jpg
2210.661	2.275	incorrect	generate	Run3	generate/STIM_011.jpg
2216.359	2.513	correct	generate	Run3	generate/STIM_011.jpg
2222.017	1.443	correct	generate	Run3	generate/STIM_011.jpg
2227.435	2.614	incorrect	generate	Run3	generate/STIM_012.jpg
2233.807	2.71	correct	generate	Run3	generate/STIM_012.jpg
2238.749	2.605	correct	generate	Run3	generate/STIM_012.jpg
2244.546	1.494	correct	generate	Run3	generate/STIM_012.jpg
2248.983	2.66	incorrect	generate	Run3	generate/STIM_012.jpg
2254.936	1.438	correct	generate	Run3	generate/STIM_013.jpg
2259.038	2.03	correct	generate	Run3	generate/STIM_013.jpg
2263.358	1.576	correct	generate	Run3	generate/STIM_013.jpg
2268.605	1.395	correct	generate	Run3	generate/STIM_013.jpg
2272.014	1.636	correct	generate	Run3	generate/STIM_013.jpg
2276.422	2.331	incorrect	generate	Run3	generate/STIM_014.jpg
2280.923	2.128	correct	generate	Run3	generate/STIM_014.jpg
2285.975	1.626	correct	generate	Run3	generate/STIM_014.jpg
2290.465	1.645	correct	generate	Run3	generate/STIM_014.jpg
2295.916	2.488	correct	generate	Run3	generate/STIM_014.jpg
2301.649	2.702	correct	generate	Run3	generate/STIM_015.jpg
2308.143	2.247	correct	generate	Run3	generate/STIM_015.jpg
2313.082	1.432	correct	generate	Run3	generate/STIM_015.jpg
2318.017	1.898	correct	generate	Run3	generate/STIM_015.jpg
2322.391	1.776	correct	generate	Run3	generate/STIM_015.jpg
2327.404	1.514	correct	generate	Run3	generate/STIM_016.jpg
2332.433	2.138	correct	generate	Run3	generate/STIM_016.jpg
2337.62	1.681	correct	generate	Run3	generate/STIM_016.jpg
2342.426	1.661	correct	generate	Run3	generate/STIM_016.jpg
2348.087	2.038	correct	generate	Run3	generate/STIM_016.jpg
2353.849	2.122	correct	generate	Run3	generate/STIM_017.jpg
2358.907	2.093	correct	generate	Run3	generate/STIM_017.jpg
2364.475	2.24	correct	generate	Run3	generate/STIM_017.jpg
2368.874	1.505	correct	generate	Run3	generate/STIM_017.jpg
2372.996	1.337	correct	generate	Run3	generate/STIM_017.jpg
2376.806	2.066	incorrect	generate	Run3	generate/STIM_018.jpg
2381.501	2.583	correct	generate	Run3	generate/STIM_018.jpg
2387.934	1.163	correct	generate	Run3	generate/STIM_018.jpg
2392.754	2.322	correct	generate	Run3	generate/STIM_018.jpg
2398.46	1.335	correct	generate	Run3	generate/STIM_018.jpg
2401.798	1.175	correct	generate	Run3	generate/STIM_019.jpg
2406.912	2.484	correct	generate	Run3	generate/STIM_019.jpg
2412.808	2.546	incorrect	generate	Run3	generate/STIM_019.jpg
2418.37	2.449	correct	generate	Run3	generate/STIM_019.jpg
2423.758	1.987	correct	generate	Run3	generate/STIM_019.jpg
2427.917	1.439	correct	generate	Run3	generate/STIM_020.jpg
2433.082	1.64	correct	generate	Run3	generate/STIM_020.jpg
2436.981	2.702	correct	generate	Run3	generate/STIM_020.jpg
2443.057	2.397	correct	generate	Run3	generate/STIM_020.jpg
2449.403	2.013	correct	generate	Run3	generate/STIM_020.jpg
2454.839	1.36	correct	generate	Run3	generate/STIM_021.jpg
2458.613	1.174	correct	generate	Run3	generate/STIM_021.jpg
2463.484	2.667	correct	generate	Run3	generate/STIM_021.jpg
2469.065	2.693	incorrect	generate	Run3	generate/STIM_021.jpg
2474.307	1.186	incorrect	generate	Run3	generate/STIM_021.jpg
2477.77	2.482	correct	generate	Run3	generate/STIM_022.jpg
2483.662	2.172	correct	generate	Run3	generate/STIM_022.jpg
2489.579	1.734	correct	generate	Run3	generate/STIM_022.jpg
2494.42	2.326	correct	generate	Run3	generate/STIM_022.jpg
2500.258	2.408	correct	generate	Run3	generate/STIM_022.jpg
2504.848	1.442	incorrect	generate	Run3	generate/STIM_023.jpg
2508.655	2.629	correct	generate	Run3	generate/STIM_023.jpg
2514.89	1.242	correct	generate	Run3	generate/STIM_023.jpg
2519.683	1.13	correct	generate	Run3	generate/STIM_023.jpg
2523.927	2.78	correct	generate	Run3	generate/STIM_023.jpg
2530.708	1.925	incorrect	generate	Run3	generate/STIM_024.jpg
2535.922	1.461	correct	generate	Run3	generate/STIM_024.jpg
2540.931	1.493	correct	generate	Run3	generate/STIM_024.jpg
2546.094	1.356	correct	generate	Run3	generate/STIM_024.jpg
2550.838	1.391	correct	generate	Run3	generate/STIM_024.jpg
2555.468	0.683	correct	repeat	Run3	repeat/STIM_000.jpg
2558.581	0.88	correct	repeat	Run3	repeat/STIM_000.jpg
2563.146	0.774	correct	repeat	Run3	repeat/STIM_000.jpg
2567.435	1.306	correct	repeat	Run3	repeat/STIM_000.jpg
2572.415	0.859	correct	repeat	Run3	repeat/STIM_000.jpg
2576.808	0.723	correct	repeat	Run3	repeat/STIM_001.jpg
2580.126	1.116	incorrect	repeat	Run3	repeat/STIM_001.jpg
2584.659	1.259	correct	repeat	Run3	repeat/STIM_001.jpg
2588.737	1.309	correct	repeat	Run3	repeat/STIM_001.jpg
2592.199	0.722	correct	repeat	Run3	repeat/STIM_001.jpg
2595.321	0.79	correct	repeat	Run3	repeat/STIM_002.jpg
2598.719	1.269	correct	repeat	Run3	repeat/STIM_002.jpg
2603.459	0.936	incorrect	repeat	Run3	repeat/STIM_002.jpg
2607.836	0.759	correct	repeat	Run3	repeat/STIM_002.jpg
2611.922	0.806	incorrect	repeat	Run3	repeat/STIM_002.jpg
2615.654	0.981	correct	repeat	Run3	repeat/STIM_003.jpg
2619.424	1.194	correct	repeat	Run3	repeat/STIM_003.jpg
2624.604	1.087	correct	repeat	Run3	repeat/STIM_003.jpg
2629.059	0.907	correct	repeat	Run3	repeat/STIM_003.jpg
2633.241	0.848	correct	repeat	Run3	repeat/STIM_003.jpg
2636.519	0.819	correct	repeat	Run3	repeat/STIM_004.jpg
2640.039	0.942	incorrect	repeat	Run3	repeat/STIM_004.jpg
2644.161	1.002	incorrect	repeat	Run3	repeat/STIM_004.jpg
2647.704	0.888	correct	repeat	Run3	repeat/STIM_004.jpg
2651.866	1.179	incorrect	repeat	Run3	repeat/STIM_004.jpg
2655.875	1.049	correct	repeat	Run3	repeat/STIM_005.jpg
2660.379	1.115	incorrect	repeat	Run3	repeat/STIM_005.jpg
2665.371	1.1	correct	repeat	Run3	repeat/STIM_005.jpg
2670.074	1.1	correct	repeat	Run3	repeat/STIM_005.jpg
2673.868	0.852	correct	repeat	Run3	repeat/STIM_005.jpg
2677.577	0.999	correct	repeat	Run3	repeat/STIM_006.jpg
2682.423	0.844	correct	repeat	Run3	repeat/STIM_006.jpg
2686.861	0.808	incorrect	repeat	Run3	repeat/STIM_006.jpg
2689.791	0.872	correct	repeat	Run3	repeat/STIM_006.jpg
2694.661	1.25	correct	repeat	Run3	repeat/STIM_006.jpg
2698.02	1.207	correct	repeat	Run3	repeat/STIM_007.jpg
2702.535	0.671	incorrect	repeat	Run3	repeat/STIM_007.jpg
2705.531	0.85	correct	repeat	Run3	repeat/STIM_007.jpg
2709.588	1.216	correct	repeat	Run3	repeat/STIM_007.jpg
2713.222	1.194	incorrect	repeat	Run3	repeat/STIM_007.jpg
2717.416	1.07	correct	repeat	Run3	repeat/STIM_008.jpg
2721.581	1.034	correct	repeat	Run3	repeat/STIM_008.jpg
2726.563	0.889	correct	repeat	Run3	repeat/STIM_008.jpg
2729.933	0.986	correct	repeat	Run3	repeat/STIM_008.jpg
2733.748	0.883	correct	repeat	Run3	repeat/STIM_008.jpg
2737.14	0.925	correct	repeat	Run3	repeat/STIM_009.jpg
2741.541	1.246	correct	repeat	Run3	repeat/STIM_009.jpg
2746.099	1.286	correct	repeat	Run3	repeat/STIM_009.jpg
2749.745	0.714	correct	repeat	Run3	repeat/STIM_009.jpg
2752.567	0.943	correct	repeat	Run3	repeat/STIM_009.jpg
2756.288	0.751	correct	repeat	Run3	repeat/STIM_010.jpg
2759.084	0.784	correct	repeat	Run3	repeat/STIM_010.jpg
2762.862	1.194	correct	repeat	Run3	repeat/STIM_010.jpg
2767.755	1.011	correct	repeat	Run3	repeat/STIM_010.jpg
2772.025	0.897	correct	repeat	Run3	repeat/STIM_010.jpg
2775.243	1.102	correct	repeat	Run3	repeat/STIM_011.jpg
2779.522	0.726	correct	repeat	Run3	repeat/STIM_011.jpg
2783.756	1.056	correct	repeat	Run3	repeat/STIM_011.jpg
2787.538	1.063	correct	repeat	Run3	repeat/STIM_011.jpg
2791.693	1.017	correct	repeat	Run3	repeat/STIM_011.jpg
2795.702	1.001	correct	repeat	Run3	repeat/STIM_012.jpg
2800.153	1.066	correct	repeat	Run3	repeat/STIM_012.jpg
2804.547	1.097	correct	repeat	Run3	repeat/STIM_012.jpg
2807.947	0.991	correct	repeat	Run3	repeat/STIM_012.jpg
2812.089	1.174	correct	repeat	Run3	repeat/STIM_012.jpg
2815.513	1.312	correct	repeat	Run3	repeat/STIM_013.jpg
2819.184	0.829	correct	repeat	Run3	repeat/STIM_013.jpg
2823.219	1.231	correct	repeat	Run3	repeat/STIM_013.jpg
2827.203	1.287	correct	repeat	Run3	repeat/STIM_013.jpg
2830.959	1.084	correct	repeat	Run3	repeat/STIM_013.jpg
2836.018	1.101	correct	repeat	Run3	repeat/STIM_014.jpg
2840.527	1.066	correct	repeat	Run3	repeat/STIM_014.jpg
2845.575	0.718	correct	repeat	Run3	repeat/STIM_014.jpg
2849.937	1.214	correct	repeat	Run3	repeat/STIM_014.jpg
2853.342	1.157	correct	repeat	Run3	repeat/STIM_014.jpg
2857.194	2.8	correct	generate	Run4	generate/STIM_000.jpg
2862.873	1.888	correct	generate	Run4	generate/STIM_000.jpg
2867.798	2.231	correct	generate	Run4	generate/STIM_000.jpg
2873.751	2.562	correct	generate	Run4	generate/STIM_000.jpg
2878.994	1.361	correct	generate	Run4	generate/STIM_000.jpg
2882.843	2.672	correct	generate	Run4	generate/STIM_001.jpg
2888.551	1.435	correct	generate	Run4	generate/STIM_001.jpg
2893.32	2.572	correct	generate	Run4	generate/STIM_001.jpg
2899.026	2.304	correct	generate	Run4	generate/STIM_001.jpg
2904.736	1.602	correct	generate	Run4	generate/STIM_001.jpg
2908.724	2.724	correct	generate	Run4	generate/STIM_002.jpg
2914.646	2.1	correct	generate	Run4	generate/STIM_002.jpg
2920.232	1.315	correct	generate	Run4	generate/STIM_002.jpg
2925.108	1.517	correct	generate	Run4	generate/STIM_002.jpg
2930.242	2.363	correct	generate	Run4	generate/STIM_002.jpg
2935.425	1.189	correct	generate	Run4	generate/STIM_003.jpg
2940.484	2.641	correct	generate	Run4	generate/STIM_003.jpg
2946.773	1.744	correct	generate	Run4	generate/STIM_003.jpg
2952.191	2.5	correct	generate	Run4	generate/STIM_003.jpg
2957.188	2.632	correct	generate	Run4	generate/STIM_003.jpg
2962.967	1.209	correct	generate	Run4	generate/STIM_004.jpg
2967.171	1.191	correct	generate	Run4	generate/STIM_004.jpg
2971.903	2.189	correct	generate	Run4	generate/STIM_004.jpg
2976.155	2.153	correct	generate	Run4	generate/STIM_004.jpg
2981.861	2.064	incorrect	generate	Run4	generate/STIM_004.jpg
2987.827	1.42	correct	generate	Run4	generate/STIM_005.jpg
2991.912	1.36	correct	generate	Run4	generate/STIM_005.jpg
2997.01	2.056	correct	generate	Run4	generate/STIM_005.jpg
3002.914	1.657	incorrect	generate	Run4	generate/STIM_005.jpg
3008.381	2.415	correct	generate	Run4	generate/STIM_005.jpg
3014.439	2.489	correct	generate	Run4	generate/STIM_006.jpg
3018.969	1.184	correct	generate	Run4	generate/STIM_006.jpg
3024.033	2.005	correct	generate	Run4	generate/STIM_006.jpg
3028.68	2.72	correct	generate	Run4	generate/STIM_006.jpg
3034.27	1.184	correct	generate	Run4	generate/STIM_006.jpg
3037.995	1.627	correct	generate	Run4	generate/STIM_007.jpg
3042.258	2.152	correct	generate	Run4	generate/STIM_007.jpg
3048.329	1.767	correct	generate	Run4	generate/STIM_007.jpg
3053.772	1.589	correct	generate	Run4	generate/STIM_007.jpg
3058.863	1.691	correct	generate	Run4	generate/STIM_007.jpg
3064.534	1.376	correct	generate	Run4	generate/STIM_008.jpg
3068.781	2.252	correct	generate	Run4	generate/STIM_008.jpg
3074.529	2.242	correct	generate	Run4	generate/STIM_008.jpg
3079.124	1.356	correct	generate	Run4	generate/STIM_008.jpg
3083.526	1.358	incorrect	generate	Run4	generate/STIM_008.jpg
3088.854	2.317	correct	generate	Run4	generate/STIM_009.jpg
3094.511	1.437	correct	generate	Run4	generate/STIM_009.jpg
3099.917	1.338	correct	generate	Run4	generate/STIM_009.jpg
3103.306	2.479	correct	generate	Run4	generate/STIM_009.jpg
3109.739	1.585	correct	generate	Run4	generate/STIM_009.jpg
3113.823	1.364	incorrect	generate	Run4	generate/STIM_010.jpg
3117.22	1.201	correct	generate	Run4	generate/STIM_010.jpg
3122.342	2.557	correct	generate	Run4	generate/STIM_010.jpg
3128.867	1.777	correct	generate	Run4	generate/STIM_010.jpg
3133.376	2.123	correct	generate	Run4	generate/STIM_010.jpg
3138.09	2.339	correct	generate	Run4	generate/STIM_011.jpg
3144.385	1.508	correct	generate	Run4	generate/STIM_011.jpg
3148.957	1.405	correct	generate	Run4	generate/STIM_011.jpg
3154.229	2.776	incorrect	generate	Run4	generate/STIM_011.jpg
3160.932	1.891	correct	generate	Run4	generate/STIM_011.jpg
3165.046	1.281	correct	generate	Run4	generate/STIM_012.jpg
3169.373	1.791	correct	generate	Run4	generate/STIM_012.jpg
3173.43	1.737	correct	generate	Run4	generate/STIM_012.jpg
3178.854	1.961	correct	generate	Run4	generate/STIM_012.jpg
3183.308	1.237	correct	generate	Run4	generate/STIM_012.jpg
3188.301	2.243	correct	generate	Run4	generate/STIM_013.jpg
3193.628	2.729	correct	generate	Run4	generate/STIM_013.jpg
3198.598	1.635	correct	generate	Run4	generate/STIM_013.jpg
3202.959	2.243	correct	generate	Run4	generate/STIM_013.jpg
3208.651	2.687	correct	generate	Run4	generate/STIM_013.jpg
3213.605	1.435	correct	generate	Run4	generate/STIM_014.jpg
3218.916	1.479	correct	generate	Run4	generate/STIM_014.jpg
3222.626	2.375	correct	generate	Run4	generate/STIM_014.jpg
3227.354	2.788	correct	generate	Run4	generate/STIM_014.jpg
3232.243	2.744	correct	generate	Run4	generate/STIM_014.jpg
3238.411	2.46	correct	generate	Run4	generate/STIM_015.jpg
3244.629	2.028	correct	generate	Run4	generate/STIM_015.jpg
3249.679	1.83	correct	generate	Run4	generate/STIM_015.jpg
3255.078	2.282	correct	generate	Run4	generate/STIM_015.jpg
3261.275	1.901	correct	generate	Run4	generate/STIM_015.jpg
3265.848	1.657	correct	generate	Run4	generate/STIM_016.jpg
3269.995	1.901	correct	generate	Run4	generate/STIM_016.jpg
3275.18	2.216	correct	generate	Run4	generate/STIM_016.jpg
3279.633	1.919	correct	generate	Run4	generate/STIM_016.jpg
3284.351	1.806	correct	generate	Run4	generate/STIM_016.jpg
3289.411	1.766	correct	generate	Run4	generate/STIM_017.jpg
3294.978	2.312	incorrect	generate	Run4	generate/STIM_017.jpg
3300.718	2.541	correct	generate	Run4	generate/STIM_017.jpg
3306.946	1.811	correct	generate	Run4	generate/STIM_017.jpg
3311.519	1.452	correct	generate	Run4	generate/STIM_017.jpg
3315.556	2.075	correct	generate	Run4	generate/STIM_018.jpg
3319.983	2.788	correct	generate	Run4	generate/STIM_018.jpg
3325.808	1.422	correct	generate	Run4	generate/STIM_018.jpg
3330.764	1.602	correct	generate	Run4	generate/STIM_018.jpg
3334.398	2.567	correct	generate	Run4	generate/STIM_018.jpg
3340.213	2.238	correct	generate	Run4	generate/STIM_019.jpg
3345.544	2.159	correct	generate	Run4	generate/STIM_019.jpg
3350.214	2.29	correct	generate	Run4	generate/STIM_019.jpg
3356.489	2.671	correct	generate	Run4	generate/STIM_019.jpg
3362.991	2.292	correct	generate	Run4	generate/STIM_019.jpg
3367.965	2.117	correct	generate	Run4	generate/STIM_020.jpg
3373.73	1.708	correct	generate	Run4	generate/STIM_020.jpg
3378.84	2.477	correct	generate	Run4	generate/STIM_020.jpg
3383.423	2.324	correct	generate	Run4	generate/STIM_020.jpg
3388.818	1.49	correct	generate	Run4	generate/STIM_020.jpg
3392.385	2.777	correct	generate	Run4	generate/STIM_021.jpg
3399.15	2.421	correct	generate	Run4	generate/STIM_021.jpg
3405.035	1.845	correct	generate	Run4	generate/STIM_021.jpg
3410.769	2.101	correct	generate	Run4	generate/STIM_021.jpg
3414.908	1.374	correct	generate	Run4	generate/STIM_021.jpg
3419.3	1.712	correct	generate	Run4	generate/STIM_022.jpg
3423.22	1.513	correct	generate	Run4	generate/STIM_022.jpg
3427.071	2.747	correct	generate	Run4	generate/STIM_022.jpg
3432.246	2.466	correct	generate	Run4	generate/STIM_022.jpg
3438.073	2.753	correct	generate	Run4	generate/STIM_022.jpg
3444.667	1.452	correct	generate	Run4	generate/STIM_023.jpg
3449.023	2.715	correct	generate	Run4	generate/STIM_023.jpg
3454.162	2.652	correct	generate	Run4	generate/STIM_023.jpg
3459.571	1.675	correct	generate	Run4	generate/STIM_023.jpg
3463.46	2.377	correct	generate	Run4	generate/STIM_023.jpg
3469.068	1.245	incorrect	generate	Run4	generate/STIM_024.jpg
3472.665	1.738	correct	generate	Run4	generate/STIM_024.jpg
3476.531	2.783	correct	generate	Run4	generate/STIM_024.jpg
3482.957	2.71	correct	generate	Run4	generate/STIM_024.jpg
3489.057	1.357	correct	generate	Run4	generate/STIM_024.jpg
3492.637	1.015	correct	repeat	Run4	repeat/STIM_000.jpg
3495.953	0.697	incorrect	repeat	Run4	repeat/STIM_000.jpg
3498.992	0.976	correct	repeat	Run4	repeat/STIM_000.jpg
3502.085	1.02	correct	repeat	Run4	repeat/STIM_000.jpg
3506.581	1.023	correct	repeat	Run4	repeat/STIM_000.jpg
3510.835	1.102	correct	repeat	Run4	repeat/STIM_001.jpg
3515.474	1.195	correct	repeat	Run4	repeat/STIM_001.jpg
3518.889	0.681	correct	repeat	Run4	repeat/STIM_001.jpg
3521.944	1.066	correct	repeat	Run4	repeat/STIM_001.jpg
3526.787	1.084	incorrect	repeat	Run4	repeat/STIM_001.jpg
3531.692	1.099	correct	repeat	Run4	repeat/STIM_002.jpg
3534.94	0.978	correct	repeat	Run4	repeat/STIM_002.jpg
3539.494	1.148	correct	repeat	Run4	repeat/STIM_002.jpg
3544.09	1.071	correct	repeat	Run4	repeat/STIM_002.jpg
3547.599	0.986	correct	repeat	Run4	repeat/STIM_002.jpg
3550.744	1.155	correct	repeat	Run4	repeat/STIM_003.jpg
3554.541	1.095	correct	repeat	Run4	repeat/STIM_003.jpg
3558.215	1.136	correct	repeat	Run4	repeat/STIM_003.jpg
3562.717	1.198	correct	repeat	Run4	repeat/STIM_003.jpg
3567.911	1.016	correct	repeat	Run4	repeat/STIM_003.jpg
3570.972	1.193	correct	repeat	Run4	repeat/STIM_004.jpg
3575.236	0.886	correct	repeat	Run4	repeat/STIM_004.jpg
3579.982	1.102	correct	repeat	Run4	repeat/STIM_004.jpg
3584.391	0.926	correct	repeat	Run4	repeat/STIM_004.jpg
3588.376	1.062	correct	repeat	Run4	repeat/STIM_004.jpg
3592.342	0.694	correct	repeat	Run4	repeat/STIM_005.jpg
3596.041	1.118	incorrect	repeat	Run4	repeat/STIM_005.jpg
3599.815	0.847	correct	repeat	Run4	repeat/STIM_005.jpg
3603.723	0.712	correct	repeat	Run4	repeat/STIM_005.jpg
3606.639	0.93	correct	repeat	Run4	repeat/STIM_005.jpg
3611.438	0.838	correct	repeat	Run4	repeat/STIM_006.jpg
3616.135	1.021	correct	repeat	Run4	repeat/STIM_006.jpg
3619.768	1.084	correct	repeat	Run4	repeat/STIM_006.jpg
3624.56	1.064	correct	repeat	Run4	repeat/STIM_006.jpg
3628.825	1.076	correct	repeat	Run4	repeat/STIM_006.jpg
3632.004	0.975	correct	repeat	Run4	repeat/STIM_007.jpg
3636.848	1.272	correct	repeat	Run4	repeat/STIM_007.jpg
3641.946	1.25	correct	repeat	Run4	repeat/STIM_007.jpg
3647.101	1.012	correct	repeat	Run4	repeat/STIM_007.jpg
3652.036	1.291	correct	repeat	Run4	repeat/STIM_007.jpg
3655.963	0.966	correct	repeat	Run4	repeat/STIM_008.jpg
3659.165	1.127	correct	repeat	Run4	repeat/STIM_008.jpg
3663.514	0.865	correct	repeat	Run4	repeat/STIM_008.jpg
3667.733	0.847	correct	repeat	Run4	repeat/STIM_008.jpg
3672.42	1.162	incorrect	repeat	Run4	repeat/STIM_008.jpg
3676.02	0.888	correct	repeat	Run4	repeat/STIM_009.jpg
3679.087	0.808	correct	repeat	Run4	repeat/STIM_009.jpg
3683.09	1.225	correct	repeat	Run4	repeat/STIM_009.jpg
3688.083	0.935	correct	repeat	Run4	repeat/STIM_009.jpg
3691.461	1.323	correct	repeat	Run4	repeat/STIM_009.jpg
3695.52	0.731	correct	repeat	Run4	repeat/STIM_010.jpg
3698.334	0.916	correct	repeat	Run4	repeat/STIM_010.jpg
3701.888	0.766	correct	repeat	Run4	repeat/STIM_010.jpg
3705.315	0.85	correct	repeat	Run4	repeat/STIM_010.jpg
3708.993	0.847	correct	repeat	Run4	repeat/STIM_010.jpg
3712.426	1.107	correct	repeat	Run4	repeat/STIM_011.jpg
3717.285	0.769	incorrect	repeat	Run4	repeat/STIM_011.jpg
3721.552	1.284	correct	repeat	Run4	repeat/STIM_011.jpg
3724.98	1.127	correct	repeat	Run4	repeat/STIM_011.jpg
3728.963	1.124	correct	repeat	Run4	repeat/STIM_011.jpg
3733.122	0.886	correct	repeat	Run4	repeat/STIM_012.jpg
3736.333	0.98	correct	repeat	Run4	repeat/STIM_012.jpg
3739.86	0.945	correct	repeat	Run4	repeat/STIM_012.jpg
3742.848	1.245	correct	repeat	Run4	repeat/STIM_012.jpg
3746.787	0.868	incorrect	repeat	Run4	repeat/STIM_012.jpg
3751.436	0.702	correct	repeat	Run4	repeat/STIM_013.jpg
3754.681	0.762	correct	repeat	Run4	repeat/STIM_013.jpg
3757.656	1.023	incorrect	repeat	Run4	repeat/STIM_013.jpg
3761.791	0.874	correct	repeat	Run4	repeat/STIM_013.jpg
3765.689	1.032	correct	repeat	Run4	repeat/STIM_013.jpg
3769.105	0.731	correct	repeat	Run4	repeat/STIM_014.jpg
3773.687	1.161	correct	repeat	Run4	repeat/STIM_014.jpg
3778.141	1.036	correct	repeat	Run4	repeat/STIM_014.jpg
3782.653	0.789	incorrect	repeat	Run4	repeat/STIM_014.jpg
3787.257	1.077	incorrect	repeat	Run4	repeat/STIM_014.jpg
