onset	duration	accuracy	trial_type	learning_stage	stimulus
0.0	1.059	correct	2back	Block1	2back/STIM_000.jpg
3.522	1.138	correct	2back	Block1	2back/STIM_000.jpg
8.417	0.677	correct	2back	Block1	2back/STIM_000.jpg
11.748	1.09	correct	2back	Block1	2back/STIM_001.jpg
15.033	1.274	correct	2back	Block1	2back/STIM_001.jpg
19.859	0.92	correct	2back	Block1	2back/STIM_001.jpg
23.503	0.981	correct	2back	Block1	2back/STIM_002.jpg
27.739	1.033	correct	2back	Block1	2back/STIM_002.jpg
32.153	1.106	incorrect	2back	Block1	2back/STIM_002.jpg
36.745	1.166	correct	2back	Block1	2back/STIM_003.jpg
39.982	0.932	correct	2back	Block1	2back/STIM_003.jpg
44.039	0.976	correct	2back	Block1	2back/STIM_003.jpg
48.706	1.011	correct	2back	Block1	2back/STIM_004.jpg
52.996	0.806	incorrect	2back	Block1	2back/STIM_004.jpg
56.888	1.242	correct	2back	Block1	2back/STIM_004.jpg
61.95	0.784	correct	2back	Block1	2back/STIM_005.jpg
65.256	0.63	correct	2back	Block1	2back/STIM_005.jpg
68.764	0.855	correct	2back	Block1	2back/STIM_005.jpg
72.077	1.321	correct	2back	Block1	2back/STIM_006.jpg
76.381	0.644	correct	2back	Block1	2back/STIM_006.jpg
80.846	0.916	correct	2back	Block1	2back/STIM_006.jpg
84.54	1.416	incorrect	2back	Block1	2back/STIM_007.jpg
88.556	0.621	correct	2back	Block1	2back/STIM_007.jpg
91.389	0.703	correct	2back	Block1	2back/STIM_007.jpg
94.94	1.247	correct	2back	Block1	2back/STIM_008.jpg
99.219	0.977	incorrect	2back	Block1	2back/STIM_008.jpg
103.694	1.217	correct	2back	Block1	2back/STIM_008.jpg
107.117	0.624	correct	2back	Block1	2back/STIM_009.jpg
109.928	0.836	correct	2back	Block1	2back/STIM_009.jpg
113.277	0.728	correct	2back	Block1	2back/STIM_009.jpg
116.565	0.671	correct	2back	Block1	2back/STIM_010.jpg
120.7	1.201	correct	2back	Block1	2back/STIM_010.jpg
124.799	0.886	correct	2back	Block1	2back/STIM_010.jpg
128.857	1.022	correct	2back	Block1	2back/STIM_011.jpg
133.642	1.11	incorrect	2back	Block1	2back/STIM_011.jpg
137.185	1.068	correct	2back	Block1	2back/STIM_011.jpg
140.878	0.714	correct	2back	Block1	2back/STIM_012.jpg
144.066	1.103	correct	2back	Block1	2back/STIM_012.jpg
148.666	1.145	correct	2back	Block1	2back/STIM_012.jpg
152.183	1.032	correct	2back	Block1	2back/STIM_013.jpg
156.252	0.663	correct	2back	Block1	2back/STIM_013.jpg
160.65	1.156	correct	2back	Block1	2back/STIM_013.jpg
165.579	1.13	incorrect	2back	Block1	2back/STIM_014.jpg
168.727	1.015	correct	2back	Block1	2back/STIM_014.jpg
172.249	0.983	correct	2back	Block1	2back/STIM_014.jpg
177.149	0.88	correct	2back	Block1	2back/STIM_015.jpg
180.624	0.976	correct	2back	Block1	2back/STIM_015.jpg
183.705	0.905	correct	2back	Block1	2back/STIM_015.jpg
187.282	1.146	correct	2back	Block1	2back/STIM_016.jpg
190.525	0.773	correct	2back	Block1	2back/STIM_016.jpg
193.879	0.794	correct	2back	Block1	2back/STIM_016.jpg
197.532	1.297	correct	2back	Block1	2back/STIM_017.jpg
202.392	1.063	correct	2back	Block1	2back/STIM_017.jpg
206.538	1.117	correct	2back	Block1	2back/STIM_017.jpg
210.346	1.411	correct	2back	Block1	2back/STIM_018.jpg
215.179	1.07	incorrect	2back	Block1	2back/STIM_018.jpg
218.278	1.192	correct	2back	Block1	2back/STIM_018.jpg
222.717	0.72	correct	2back	Block1	2back/STIM_019.jpg
226.048	1.228	correct	2back	Block1	2back/STIM_019.jpg
230.914	1.279	correct	2back	Block1	2back/STIM_019.jpg
235.961	1.305	correct	2back	Block1	2back/STIM_020.jpg
239.241	1.135	correct	2back	Block1	2back/STIM_020.jpg
243.332	0.603	correct	2back	Block1	2back/STIM_020.jpg
246.68	0.87	correct	2back	Block1	2back/STIM_021.jpg
250.065	0.674	correct	2back	Block1	2back/STIM_021.jpg
254.086	1.045	incorrect	2back	Block1	2back/STIM_021.jpg
258.22	0.835	incorrect	2back	Block1	2back/STIM_022.jpg
261.736	1.274	correct	2back	Block1	2back/STIM_022.jpg
266.453	1.132	correct	2back	Block1	2back/STIM_022.jpg
269.925	1.23	correct	2back	Block1	2back/STIM_023.jpg
273.668	0.625	correct	2back	Block1	2back/STIM_023.jpg
276.858	1.131	correct	2back	Block1	2back/STIM_023.jpg
281.944	0.729	correct	2back	Block1	2back/STIM_024.jpg
285.418	0.882	correct	2back	Block1	2back/STIM_024.jpg
288.753	0.947	correct	2back	Block1	2back/STIM_024.jpg
292.659	0.728	correct	2back	Block1	2back/STIM_025.jpg
296.315	1.086	incorrect	2back	Block1	2back/STIM_025.jpg
301.238	1.106	correct	2back	Block1	2back/STIM_025.jpg
304.756	0.635	incorrect	2back	Block1	2back/STIM_026.jpg
309.366	0.8	correct	2back	Block1	2back/STIM_026.jpg
314.078	1.222	incorrect	2back	Block1	2back/STIM_026.jpg
317.668	1.432	correct	2back	Block1	2back/STIM_027.jpg
321.643	0.912	correct	2back	Block1	2back/STIM_027.jpg
326.229	1.221	incorrect	2back	Block1	2back/STIM_027.jpg
331.09	0.856	incorrect	2back	Block1	2back/STIM_028.jpg
334.504	1.304	incorrect	2back	Block1	2back/STIM_028.jpg
339.015	0.916	correct	2back	Block1	2back/STIM_028.jpg
343.57	1.067	correct	2back	Block1	2back/STIM_029.jpg
347.549	1.243	correct	2back	Block1	2back/STIM_029.jpg
352.028	1.084	correct	2back	Block1	2back/STIM_029.jpg
355.691	0.798	correct	2back	Block1	2back/STIM_030.jpg
359.553	1.36	incorrect	2back	Block1	2back/STIM_030.jpg
364.253	0.75	correct	2back	Block1	2back/STIM_030.jpg
367.49	1.284	correct	2back	Block1	2back/STIM_031.jpg
370.996	1.305	correct	2back	Block1	2back/STIM_031.jpg
374.42	1.012	correct	2back	Block1	2back/STIM_031.jpg
378.72	1.347	correct	2back	Block1	2back/STIM_032.jpg
383.637	1.318	correct	2back	Block1	2back/STIM_032.jpg
388.466	0.748	incorrect	2back	Block1	2back/STIM_032.jpg
391.862	0.626	correct	2back	Block1	2back/STIM_033.jpg
396.1	1.281	correct	2back	Block1	2back/STIM_033.jpg
399.801	0.961	correct	2back	Block1	2back/STIM_033.jpg
404.508	1.295	correct	2back	Block1	2back/STIM_034.jpg
408.718	1.196	correct	2back	Block1	2back/STIM_034.jpg
411.902	1.126	correct	2back	Block1	2back/STIM_034.jpg
416.708	0.989	incorrect	2back	Block1	2back/STIM_035.jpg
421.474	1.009	correct	2back	Block1	2back/STIM_035.jpg
425.464	0.629	correct	2back	Block1	2back/STIM_035.jpg
429.479	0.956	correct	2back	Block1	2back/STIM_036.jpg
433.762	1.239	correct	2back	Block1	2back/STIM_036.jpg
438.729	0.799	correct	2back	Block1	2back/STIM_036.jpg
441.62	1.263	correct	2back	Block1	2back/STIM_037.jpg
446.384	1.239	correct	2back	Block1	2back/STIM_037.jpg
450.665	0.785	correct	2back	Block1	2back/STIM_037.jpg
454.011	0.707	correct	2back	Block1	2back/STIM_038.jpg
458.419	0.782	correct	2back	Block1	2back/STIM_038.jpg
461.196	0.677	incorrect	2back	Block1	2back/STIM_038.jpg
465.73	1.371	incorrect	2back	Block1	2back/STIM_039.jpg
469.419	1.233	correct	2back	Block1	2back/STIM_039.jpg
473.091	1.072	correct	2back	Block1	2back/STIM_039.jpg
478.023	0.665	correct	0back	Block1	0back/STIM_000.jpg
481.284	0.734	correct	0back	Block1	0back/STIM_000.jpg
485.365	0.759	correct	0back	Block1	0back/STIM_000.jpg
489.147	0.608	correct	0back	Block1	0back/STIM_001.jpg
492.386	0.437	correct	0back	Block1	0back/STIM_001.jpg
496.612	0.479	incorrect	0back	Block1	0back/STIM_001.jpg
499.977	0.8	correct	0back	Block1	0back/STIM_002.jpg
503.913	0.533	correct	0back	Block1	0back/STIM_002.jpg
506.791	0.51	correct	0back	Block1	0back/STIM_002.jpg
509.832	0.758	incorrect	0back	Block1	0back/STIM_003.jpg
514.297	0.431	correct	0back	Block1	0back/STIM_003.jpg
517.861	0.485	correct	0back	Block1	0back/STIM_003.jpg
520.685	0.684	correct	0back	Block1	0back/STIM_004.jpg
523.644	0.754	correct	0back	Block1	0back/STIM_004.jpg
526.942	0.772	correct	0back	Block1	0back/STIM_004.jpg
529.993	0.536	correct	0back	Block1	0back/STIM_005.jpg
533.091	0.522	correct	0back	Block1	0back/STIM_005.jpg
535.819	0.523	correct	0back	Block1	0back/STIM_005.jpg
539.975	0.702	correct	0back	Block1	0back/STIM_006.jpg
543.269	0.569	correct	0back	Block1	0back/STIM_006.jpg
547.547	0.79	correct	0back	Block1	0back/STIM_006.jpg
550.749	0.689	correct	0back	Block1	0back/STIM_007.jpg
555.023	0.418	correct	0back	Block1	0back/STIM_007.jpg
559.182	0.723	correct	0back	Block1	0back/STIM_007.jpg
563.205	0.788	correct	0back	Block1	0back/STIM_008.jpg
567.112	0.546	correct	0back	Block1	0back/STIM_008.jpg
569.667	0.681	correct	0back	Block1	0back/STIM_008.jpg
572.549	0.547	correct	0back	Block1	0back/STIM_009.jpg
576.265	0.448	correct	0back	Block1	0back/STIM_009.jpg
579.141	0.744	correct	0back	Block1	0back/STIM_009.jpg
582.304	0.631	incorrect	0back	Block1	0back/STIM_010.jpg
585.719	0.718	correct	0back	Block1	0back/STIM_010.jpg
589.943	0.632	correct	0back	Block1	0back/STIM_010.jpg
593.299	0.745	correct	0back	Block1	0back/STIM_011.jpg
597.039	0.439	correct	0back	Block1	0back/STIM_011.jpg
600.375	0.432	correct	0back	Block1	0back/STIM_011.jpg
603.049	0.809	correct	0back	Block1	0back/STIM_012.jpg
607.728	0.546	correct	0back	Block1	0back/STIM_012.jpg
611.009	0.819	correct	0back	Block1	0back/STIM_012.jpg
613.96	0.722	correct	0back	Block1	0back/STIM_013.jpg
618.405	0.73	correct	0back	Block1	0back/STIM_013.jpg
622.176	0.758	correct	0back	Block1	0back/STIM_013.jpg
626.008	0.63	correct	0back	Block1	0back/STIM_014.jpg
629.298	0.586	correct	0back	Block1	0back/STIM_014.jpg
633.813	0.564	correct	0back	Block1	0back/STIM_014.jpg
636.602	0.425	correct	0back	Block1	0back/STIM_015.jpg
639.424	0.714	correct	0back	Block1	0back/STIM_015.jpg
643.046	0.589	correct	0back	Block1	0back/STIM_015.jpg
647.351	0.531	correct	0back	Block1	0back/STIM_016.jpg
651.044	0.789	correct	0back	Block1	0back/STIM_016.jpg
653.858	0.443	correct	0back	Block1	0back/STIM_016.jpg
657.198	0.738	correct	0back	Block1	0back/STIM_017.jpg
660.968	0.491	correct	0back	Block1	0back/STIM_017.jpg
664.015	0.558	correct	0back	Block1	0back/STIM_017.jpg
668.071	0.45	correct	0back	Block1	0back/STIM_018.jpg
672.481	0.462	correct	0back	Block1	0back/STIM_018.jpg
676.735	0.552	correct	0back	Block1	0back/STIM_018.jpg
679.411	0.486	correct	0back	Block1	0back/STIM_019.jpg
683.141	0.735	correct	0back	Block1	0back/STIM_019.jpg
686.593	0.597	correct	0back	Block1	0back/STIM_019.jpg
690.39	1.206	correct	2back	Block2	2back/STIM_000.jpg
693.714	0.907	correct	2back	Block2	2back/STIM_000.jpg
697.946	0.932	correct	2back	Block2	2back/STIM_000.jpg
702.337	0.945	correct	2back	Block2	2back/STIM_001.jpg
706.726	0.795	incorrect	2back	Block2	2back/STIM_001.jpg
709.521	0.83	correct	2back	Block2	2back/STIM_001.jpg
713.713	0.583	correct	2back	Block2	2back/STIM_002.jpg
718.178	0.497	correct	2back	Block2	2back/STIM_002.jpg
720.908	0.619	correct	2back	Block2	2back/STIM_002.jpg
724.652	0.797	correct	2back	Block2	2back/STIM_003.jpg
729.135	0.65	correct	2back	Block2	2back/STIM_003.jpg
733.725	1.003	correct	2back	Block2	2back/STIM_003.jpg
737.581	0.885	correct	2back	Block2	2back/STIM_004.jpg
741.334	1.097	correct	2back	Block2	2back/STIM_004.jpg
746.271	0.546	correct	2back	Block2	2back/STIM_004.jpg
750.63	0.712	incorrect	2back	Block2	2back/STIM_005.jpg
753.439	0.637	correct	2back	Block2	2back/STIM_005.jpg
757.518	0.946	correct	2back	Block2	2back/STIM_005.jpg
762.132	0.646	correct	2back	Block2	2back/STIM_006.jpg
765.598	0.8	correct	2back	Block2	2back/STIM_006.jpg
769.302	0.654	correct	2back	Block2	2back/STIM_006.jpg
773.763	0.626	correct	2back	Block2	2back/STIM_007.jpg
778.063	0.919	correct	2back	Block2	2back/STIM_007.jpg
781.55	0.703	correct	2back	Block2	2back/STIM_007.jpg
785.193	1.058	correct	2back	Block2	2back/STIM_008.jpg
789.045	0.866	correct	2back	Block2	2back/STIM_008.jpg
792.638	0.55	correct	2back	Block2	2back/STIM_008.jpg
796.326	1.037	correct	2back	Block2	2back/STIM_009.jpg
800.045	0.906	correct	2back	Block2	2back/STIM_009.jpg
804.478	0.865	correct	2back	Block2	2back/STIM_009.jpg
807.982	1.205	correct	2back	Block2	2back/STIM_010.jpg
812.553	0.615	correct	2back	Block2	2back/STIM_010.jpg
816.326	0.919	correct	2back	Block2	2back/STIM_010.jpg
820.326	0.992	correct	2back	Block2	2back/STIM_011.jpg
823.955	0.944	correct	2back	Block2	2back/STIM_011.jpg
827.844	0.684	correct	2back	Block2	2back/STIM_011.jpg
831.733	0.616	correct	2back	Block2	2back/STIM_012.jpg
835.69	0.997	correct	2back	Block2	2back/STIM_012.jpg
840.21	0.896	correct	2back	Block2	2back/STIM_012.jpg
843.575	0.833	correct	2back	Block2	2back/STIM_013.jpg
847.323	0.777	correct	2back	Block2	2back/STIM_013.jpg
851.546	0.866	correct	2back	Block2	2back/STIM_013.jpg
855.093	1.142	correct	2back	Block2	2back/STIM_014.jpg
858.986	1.005	incorrect	2back	Block2	2back/STIM_014.jpg
862.459	0.956	correct	2back	Block2	2back/STIM_014.jpg
866.267	0.627	correct	2back	Block2	2back/STIM_015.jpg
870.198	0.499	correct	2back	Block2	2back/STIM_015.jpg
873.098	0.795	correct	2back	Block2	2back/STIM_015.jpg
877.79	0.763	correct	2back	Block2	2back/STIM_016.jpg
881.781	0.721	correct	2back	Block2	2back/STIM_016.jpg
885.182	0.876	correct	2back	Block2	2back/STIM_016.jpg
888.29	1.108	correct	2back	Block2	2back/STIM_017.jpg
892.648	0.545	correct	2back	Block2	2back/STIM_017.jpg
896.803	0.859	correct	2back	Block2	2back/STIM_017.jpg
900.91	1.109	correct	2back	Block2	2back/STIM_018.jpg
904.8	0.829	correct	2back	Block2	2back/STIM_018.jpg
908.992	0.511	correct	2back	Block2	2back/STIM_018.jpg
912.651	0.845	correct	2back	Block2	2back/STIM_019.jpg
917.012	0.681	correct	2back	Block2	2back/STIM_019.jpg
920.965	0.697	correct	2back	Block2	2back/STIM_019.jpg
924.578	0.77	correct	2back	Block2	2back/STIM_020.jpg
927.735	0.728	correct	2back	Block2	2back/STIM_020.jpg
930.562	0.53	correct	2back	Block2	2back/STIM_020.jpg
934.578	0.704	correct	2back	Block2	2back/STIM_021.jpg
938.183	0.655	correct	2back	Block2	2back/STIM_021.jpg
941.596	0.892	correct	2back	Block2	2back/STIM_021.jpg
945.379	0.936	correct	2back	Block2	2back/STIM_022.jpg
948.532	0.745	correct	2back	Block2	2back/STIM_022.jpg
953.116	0.645	incorrect	2back	Block2	2back/STIM_022.jpg
957.525	0.905	incorrect	2back	Block2	2back/STIM_023.jpg
960.886	0.736	correct	2back	Block2	2back/STIM_023.jpg
964.205	0.758	correct	2back	Block2	2back/STIM_023.jpg
968.094	0.675	correct	2back	Block2	2back/STIM_024.jpg
972.695	0.776	incorrect	2back	Block2	2back/STIM_024.jpg
976.179	0.96	correct	2back	Block2	2back/STIM_024.jpg
980.985	0.615	correct	2back	Block2	2back/STIM_025.jpg
984.406	1.088	incorrect	2back	Block2	2back/STIM_025.jpg
989.359	0.663	correct	2back	Block2	2back/STIM_025.jpg
993.087	0.705	correct	2back	Block2	2back/STIM_026.jpg
996.903	0.548	correct	2back	Block2	2back/STIM_026.jpg
1001.081	0.766	correct	2back	Block2	2back/STIM_026.jpg
1003.825	0.737	correct	2back	Block2	2back/STIM_027.jpg
1007.814	0.714	correct	2back	Block2	2back/STIM_027.jpg
1011.685	0.477	correct	2back	Block2	2back/STIM_027.jpg
1015.786	0.802	correct	2back	Block2	2back/STIM_028.jpg
1020.428	0.577	correct	2back	Block2	2back/STIM_028.jpg
1023.15	0.821	correct	2back	Block2	2back/STIM_028.jpg
1027.143	0.838	correct	2back	Block2	2back/STIM_029.jpg
1030.727	1.131	correct	2back	Block2	2back/STIM_029.jpg
1035.694	1.032	correct	2back	Block2	2back/STIM_029.jpg
1039.108	0.552	correct	2back	Block2	2back/STIM_030.jpg
1043.296	0.776	correct	2back	Block2	2back/STIM_030.jpg
1046.854	0.919	correct	2back	Block2	2back/STIM_030.jpg
1051.587	0.855	correct	2back	Block2	2back/STIM_031.jpg
1054.53	1.08	correct	2back	Block2	2back/STIM_031.jpg
1058.622	0.65	correct	2back	Block2	2back/STIM_031.jpg
1062.438	0.878	correct	2back	Block2	2back/STIM_032.jpg
1065.757	0.972	correct	2back	Block2	2back/STIM_032.jpg
1069.829	0.966	correct	2back	Block2	2back/STIM_032.jpg
1073.423	1.187	correct	2back	Block2	2back/STIM_033.jpg
1077.598	0.92	correct	2back	Block2	2back/STIM_033.jpg
1081.812	0.806	correct	2back	Block2	2back/STIM_033.jpg
1085.908	0.538	correct	2back	Block2	2back/STIM_034.jpg
1088.987	0.819	correct	2back	Block2	2back/STIM_034.jpg
1092.351	0.877	correct	2back	Block2	2back/STIM_034.jpg
1095.572	0.867	correct	2back	Block2	2back/STIM_035.jpg
1099.539	0.761	correct	2back	Block2	2back/STIM_035.jpg
1103.031	0.627	correct	2back	Block2	2back/STIM_035.jpg
1105.666	1.081	correct	2back	Block2	2back/STIM_036.jpg
1110.38	0.668	correct	2back	Block2	2back/STIM_036.jpg
1113.603	1.036	correct	2back	Block2	2back/STIM_036.jpg
1118.156	0.616	correct	2back	Block2	2back/STIM_037.jpg
1120.792	0.523	correct	2back	Block2	2back/STIM_037.jpg
1125.202	0.81	correct	2back	Block2	2back/STIM_037.jpg
1128.613	0.695	correct	2back	Block2	2back/STIM_038.jpg
1133.193	0.876	correct	2back	Block2	2back/STIM_038.jpg
1137.732	0.654	correct	2back	Block2	2back/STIM_038.jpg
1140.5	0.572	correct	2back	Block2	2back/STIM_039.jpg
1143.509	0.576	correct	2back	Block2	2back/STIM_039.jpg
1146.256	0.906	correct	2back	Block2	2back/STIM_039.jpg
1149.156	0.796	correct	0back	Block2	0back/STIM_000.jpg
1153.81	0.716	correct	0back	Block2	0back/STIM_000.jpg
1157.33	0.498	correct	0back	Block2	0back/STIM_000.jpg
1160.715	0.812	correct	0back	Block2	0back/STIM_001.jpg
1164.911	0.674	correct	0back	Block2	0back/STIM_001.jpg
1169.323	0.663	correct	0back	Block2	0back/STIM_001.jpg
1173.811	0.578	correct	0back	Block2	0back/STIM_002.jpg
1177.58	0.46	correct	0back	Block2	0back/STIM_002.jpg
1181.689	0.515	correct	0back	Block2	0back/STIM_002.jpg
1185.118	0.632	correct	0back	Block2	0back/STIM_003.jpg
1189.346	0.75	correct	0back	Block2	0back/STIM_003.jpg
1193.817	0.711	correct	0back	Block2	0back/STIM_003.jpg
1198.464	0.714	correct	0back	Block2	0back/STIM_004.jpg
1202.067	0.508	correct	0back	Block2	0back/STIM_004.jpg
1205.364	0.542	correct	0back	Block2	0back/STIM_004.jpg
1207.922	0.812	correct	0back	Block2	0back/STIM_005.jpg
1211.507	0.823	correct	0back	Block2	0back/STIM_005.jpg
1214.8	0.545	correct	0back	Block2	0back/STIM_005.jpg
1217.918	0.521	correct	0back	Block2	0back/STIM_006.jpg
1220.57	0.489	correct	0back	Block2	0back/STIM_006.jpg
1223.717	0.524	correct	0back	Block2	0back/STIM_006.jpg
1228.046	0.644	correct	0back	Block2	0back/STIM_007.jpg
1232.491	0.48	correct	0back	Block2	0back/STIM_007.jpg
1235.786	0.442	correct	0back	Block2	0back/STIM_007.jpg
1239.815	0.713	correct	0back	Block2	0back/STIM_008.jpg
1243.157	0.512	correct	0back	Block2	0back/STIM_008.jpg
1246.239	0.563	correct	0back	Block2	0back/STIM_008.jpg
1249.177	0.689	correct	0back	Block2	0back/STIM_009.jpg
1252.86	0.474	incorrect	0back	Block2	0back/STIM_009.jpg
1256.46	0.698	correct	0back	Block2	0back/STIM_009.jpg
1259.424	0.778	correct	0back	Block2	0back/STIM_010.jpg
1264.079	0.705	correct	0back	Block2	0back/STIM_010.jpg
1267.7	0.485	correct	0back	Block2	0back/STIM_010.jpg
1270.777	0.578	correct	0back	Block2	0back/STIM_011.jpg
1274.606	0.577	correct	0back	Block2	0back/STIM_011.jpg
1277.947	0.448	correct	0back	Block2	0back/STIM_011.jpg
1280.656	0.435	correct	0back	Block2	0back/STIM_012.jpg
1284.358	0.707	correct	0back	Block2	0back/STIM_012.jpg
1288.265	0.635	correct	0back	Block2	0back/STIM_012.jpg
1292.823	0.686	correct	0back	Block2	0back/STIM_013.jpg
1296.113	0.485	correct	0back	Block2	0back/STIM_013.jpg
1300.41	0.675	correct	0back	Block2	0back/STIM_013.jpg
1304.217	0.465	correct	0back	Block2	0back/STIM_014.jpg
1308.341	0.543	correct	0back	Block2	0back/STIM_014.jpg
1312.562	0.734	correct	0back	Block2	0back/STIM_014.jpg
1316.882	0.417	correct	0back	Block2	0back/STIM_015.jpg
1319.813	0.443	correct	0back	Block2	0back/STIM_015.jpg
1323.93	0.454	correct	0back	Block2	0back/STIM_015.jpg
1326.881	0.673	correct	0back	Block2	0back/STIM_016.jpg
1330.744	0.552	correct	0back	Block2	0back/STIM_016.jpg
1334.15	0.481	correct	0back	Block2	0back/STIM_016.jpg
1337.074	0.563	correct	0back	Block2	0back/STIM_017.jpg
1341.426	0.503	correct	0back	Block2	0back/STIM_017.jpg
1345.19	0.432	correct	0back	Block2	0back/STIM_017.jpg
1349.222	0.438	correct	0back	Block2	0back/STIM_018.jpg
1352.575	0.51	correct	0back	Block2	0back/STIM_018.jpg
1356.484	0.499	correct	0back	Block2	0back/STIM_018.jpg
1359.254	0.731	correct	0back	Block2	0back/STIM_019.jpg
1362.666	0.745	correct	0back	Block2	0back/STIM_019.jpg
1365.399	0.648	correct	0back	Block2	0back/STIM_019.jpg
1368.235	0.635	correct	2back	Block3	2back/STIM_000.jpg
1371.178	0.869	correct	2back	Block3	2back/STIM_000.jpg
1375.026	0.757	correct	2back	Block3	2back/STIM_000.jpg
1378.68	0.959	correct	2back	Block3	2back/STIM_001.jpg
1381.949	0.633	correct	2back	Block3	2back/STIM_001.jpg
1384.651	0.957	correct	2back	Block3	2back/STIM_001.jpg
1387.911	0.677	correct	2back	Block3	2back/STIM_002.jpg
1391.121	0.722	correct	2back	Block3	2back/STIM_002.jpg
1395.626	0.487	correct	2back	Block3	2back/STIM_002.jpg
1398.827	0.833	correct	2back	Block3	2back/STIM_003.jpg
1403.399	0.719	correct	2back	Block3	2back/STIM_003.jpg
1406.156	0.944	correct	2back	Block3	2back/STIM_003.jpg
1409.621	0.775	correct	2back	Block3	2back/STIM_004.jpg
1413.953	0.881	correct	2back	Block3	2back/STIM_004.jpg
1417.152	0.649	correct	2back	Block3	2back/STIM_004.jpg
1421.587	0.762	correct	2back	Block3	2back/STIM_005.jpg
1424.339	0.59	correct	2back	Block3	2back/STIM_005.jpg
1427.255	0.785	correct	2back	Block3	2back/STIM_005.jpg
1430.496	0.453	correct	2back	Block3	2back/STIM_006.jpg
1434.149	0.698	correct	2back	Block3	2back/STIM_006.jpg
1438.769	0.67	correct	2back	Block3	2back/STIM_006.jpg
1442.481	0.948	correct	2back	Block3	2back/STIM_007.jpg
1445.854	0.708	correct	2back	Block3	2back/STIM_007.jpg
1450.332	0.913	correct	2back	Block3	2back/STIM_007.jpg
1454.27	0.674	correct	2back	Block3	2back/STIM_008.jpg
1457.719	0.836	incorrect	2back	Block3	2back/STIM_008.jpg
1461.286	0.973	correct	2back	Block3	2back/STIM_008.jpg
1465.014	0.95	correct	2back	Block3	2back/STIM_009.jpg
1468.867	0.692	correct	2back	Block3	2back/STIM_009.jpg
1471.653	0.686	correct	2back	Block3	2back/STIM_009.jpg
1475.836	0.836	correct	2back	Block3	2back/STIM_010.jpg
1479.095	0.501	correct	2back	Block3	2back/STIM_010.jpg
1482.384	0.908	correct	2back	Block3	2back/STIM_010.jpg
1487.004	0.869	correct	2back	Block3	2back/STIM_011.jpg
1491.27	0.984	correct	2back	Block3	2back/STIM_011.jpg
1494.668	0.96	correct	2back	Block3	2back/STIM_011.jpg
1498.711	0.538	correct	2back	Block3	2back/STIM_012.jpg
1503.166	0.969	correct	2back	Block3	2back/STIM_012.jpg
1507.508	0.608	correct	2back	Block3	2back/STIM_012.jpg
1511.588	0.713	correct	2back	Block3	2back/STIM_013.jpg
1516.273	0.735	correct	2back	Block3	2back/STIM_013.jpg
1520.539	0.912	correct	2back	Block3	2back/STIM_013.jpg
1524.984	0.817	correct	2back	Block3	2back/STIM_014.jpg
1528.705	0.835	correct	2back	Block3	2back/STIM_014.jpg
1532.026	0.93	correct	2back	Block3	2back/STIM_014.jpg
1535.759	0.987	correct	2back	Block3	2back/STIM_015.jpg
1540.601	0.794	correct	2back	Block3	2back/STIM_015.jpg
1543.713	0.928	correct	2back	Block3	2back/STIM_015.jpg
1547.303	0.579	correct	2back	Block3	2back/STIM_016.jpg
1550.811	0.949	correct	2back	Block3	2back/STIM_016.jpg
1554.719	0.814	correct	2back	Block3	2back/STIM_016.jpg
1559.155	0.513	correct	2back	Block3	2back/STIM_017.jpg
1563.154	0.888	incorrect	2back	Block3	2back/STIM_017.jpg
1566.578	0.859	correct	2back	Block3	2back/STIM_017.jpg
1570.499	0.822	correct	2back	Block3	2back/STIM_018.jpg
1575.263	0.685	correct	2back	Block3	2back/STIM_018.jpg
1579.029	0.79	correct	2back	Block3	2back/STIM_018.jpg
1582.092	0.882	correct	2back	Block3	2back/STIM_019.jpg
1586.023	0.814	correct	2back	Block3	2back/STIM_019.jpg
1589.868	0.821	correct	2back	Block3	2back/STIM_019.jpg
1593.532	0.707	correct	2back	Block3	2back/STIM_020.jpg
1596.83	0.882	correct	2back	Block3	2back/STIM_020.jpg
1599.809	0.863	correct	2back	Block3	2back/STIM_020.jpg
1603.198	0.598	correct	2back	Block3	2back/STIM_021.jpg
1606.712	0.856	correct	2back	Block3	2back/STIM_021.jpg
1611.347	0.491	correct	2back	Block3	2back/STIM_021.jpg
1615.069	0.652	correct	2back	Block3	2back/STIM_022.jpg
1619.14	0.634	correct	2back	Block3	2back/STIM_022.jpg
1623.316	0.636	correct	2back	Block3	2back/STIM_022.jpg
1626.9	0.496	correct	2back	Block3	2back/STIM_023.jpg
1629.864	0.826	correct	2back	Block3	2back/STIM_023.jpg
1634.303	0.751	correct	2back	Block3	2back/STIM_023.jpg
1638.719	0.758	correct	2back	Block3	2back/STIM_024.jpg
1641.756	0.56	correct	2back	Block3	2back/STIM_024.jpg
1645.749	0.607	correct	2back	Block3	2back/STIM_024.jpg
1649.853	0.55	incorrect	2back	Block3	2back/STIM_025.jpg
1653.598	0.537	correct	2back	Block3	2back/STIM_025.jpg
1656.972	0.882	correct	2back	Block3	2back/STIM_025.jpg
1661.473	0.702	correct	2back	Block3	2back/STIM_026.jpg
1664.883	0.906	correct	2back	Block3	2back/STIM_026.jpg
1669.332	0.949	correct	2back	Block3	2back/STIM_026.jpg
1672.645	0.64	correct	2back	Block3	2back/STIM_027.jpg
1676.867	0.959	correct	2back	Block3	2back/STIM_027.jpg
1680.03	0.505	correct	2back	Block3	2back/STIM_027.jpg
1683.781	0.66	correct	2back	Block3	2back/STIM_028.jpg
1687.799	0.586	correct	2back	Block3	2back/STIM_028.jpg
1692.291	0.831	correct	2back	Block3	2back/STIM_028.jpg
1696.875	0.674	correct	2back	Block3	2back/STIM_029.jpg
1699.962	0.709	correct	2back	Block3	2back/STIM_029.jpg
1703.952	0.474	correct	2back	Block3	2back/STIM_029.jpg
1707.892	0.881	correct	2back	Block3	2back/STIM_030.jpg
1712.258	0.748	correct	2back	Block3	2back/STIM_030.jpg
1715.099	0.532	correct	2back	Block3	2back/STIM_030.jpg
1718.711	0.486	correct	2back	Block3	2back/STIM_031.jpg
1722.67	0.592	correct	2back	Block3	2back/STIM_031.jpg
1725.577	0.736	correct	2back	Block3	2back/STIM_031.jpg
1728.407	0.631	correct	2back	Block3	2back/STIM_032.jpg
1732.664	0.519	correct	2back	Block3	2back/STIM_032.jpg
1736.529	0.628	correct	2back	Block3	2back/STIM_032.jpg
1740.852	0.985	correct	2back	Block3	2back/STIM_033.jpg
1744.644	0.979	correct	2back	Block3	2back/STIM_033.jpg
1747.734	0.439	correct	2back	Block3	2back/STIM_033.jpg
1751.406	0.567	correct	2back	Block3	2back/STIM_034.jpg
1755.557	0.479	correct	2back	Block3	2back/STIM_034.jpg
1759.864	0.537	correct	2back	Block3	2back/STIM_034.jpg
1763.189	0.763	correct	2back	Block3	2back/STIM_035.jpg
1766.835	0.475	correct	2back	Block3	2back/STIM_035.jpg
1769.441	0.508	correct	2back	Block3	2back/STIM_035.jpg
1773.256	0.83	correct	2back	Block3	2back/STIM_036.jpg
1777.415	0.697	incorrect	2back	Block3	2back/STIM_036.jpg
1781.472	0.506	correct	2back	Block3	2back/STIM_036.jpg
1784.107	0.515	correct	2back	Block3	2back/STIM_037.jpg
1787.916	0.983	correct	2back	Block3	2back/STIM_037.jpg
1790.927	0.624	correct	2back	Block3	2back/STIM_037.jpg
1793.931	0.525	correct	2back	Block3	2back/STIM_038.jpg
1796.702	0.686	correct	2back	Block3	2back/STIM_038.jpg
1800.307	0.898	correct	2back	Block3	2back/STIM_038.jpg
1803.373	0.629	correct	2back	Block3	2back/STIM_039.jpg
1807.979	0.858	correct	2back	Block3	2back/STIM_039.jpg
1811.164	0.781	correct	2back	Block3	2back/STIM_039.jpg
1815.464	0.62	correct	0back	Block3	0back/STIM_000.jpg
1818.338	0.741	correct	0back	Block3	0back/STIM_000.jpg
1821.371	0.621	correct	0back	Block3	0back/STIM_000.jpg
1825.815	0.422	correct	0back	Block3	0back/STIM_001.jpg
1830.169	0.518	correct	0back	Block3	0back/STIM_001.jpg
1834.343	0.412	correct	0back	Block3	0back/STIM_001.jpg
1837.474	0.576	correct	0back	Block3	0back/STIM_002.jpg
1841.297	0.788	correct	0back	Block3	0back/STIM_002.jpg
1845.406	0.714	correct	0back	Block3	0back/STIM_002.jpg
1849.811	0.756	correct	0back	Block3	0back/STIM_003.jpg
1853.092	0.478	correct	0back	Block3	0back/STIM_003.jpg
1856.987	0.425	correct	0back	Block3	0back/STIM_003.jpg
1860.924	0.597	correct	0back	Block3	0back/STIM_004.jpg
1865.354	0.689	correct	0back	Block3	0back/STIM_004.jpg
1868.84	0.536	correct	0back	Block3	0back/STIM_004.jpg
1872.077	0.535	correct	0back	Block3	0back/STIM_005.jpg
1874.741	0.415	correct	0back	Block3	0back/STIM_005.jpg
1877.154	0.428	correct	0back	Block3	0back/STIM_005.jpg
1880.225	0.621	correct	0back	Block3	0back/STIM_006.jpg
1884.709	0.778	correct	0back	Block3	0back/STIM_006.jpg
1888.309	0.781	correct	0back	Block3	0back/STIM_006.jpg
1891.159	0.6	correct	0back	Block3	0back/STIM_007.jpg
1893.768	0.748	correct	0back	Block3	0back/STIM_007.jpg
1897.601	0.567	correct	0back	Block3	0back/STIM_007.jpg
1900.704	0.459	correct	0back	Block3	0back/STIM_008.jpg
1904.906	0.432	correct	0back	Block3	0back/STIM_008.jpg
1909.241	0.788	correct	0back	Block3	0back/STIM_008.jpg
1913.105	0.428	correct	0back	Block3	0back/STIM_009.jpg
1916.837	0.418	correct	0back	Block3	0back/STIM_009.jpg
1920.405	0.569	correct	0back	Block3	0back/STIM_009.jpg
1924.425	0.459	correct	0back	Block3	0back/STIM_010.jpg
1927.758	0.783	correct	0back	Block3	0back/STIM_010.jpg
1931.627	0.416	correct	0back	Block3	0back/STIM_010.jpg
1935.902	0.56	correct	0back	Block3	0back/STIM_011.jpg
1938.619	0.613	correct	0back	Block3	0back/STIM_011.jpg
1942.917	0.587	correct	0back	Block3	0back/STIM_011.jpg
1947.421	0.605	correct	0back	Block3	0back/STIM_012.jpg
1950.077	0.544	correct	0back	Block3	0back/STIM_012.jpg
1954.226	0.694	correct	0back	Block3	0back/STIM_012.jpg
1957.738	0.501	correct	0back	Block3	0back/STIM_013.jpg
1961.773	0.58	correct	0back	Block3	0back/STIM_013.jpg
1965.648	0.64	correct	0back	Block3	0back/STIM_013.jpg
1968.93	0.608	correct	0back	Block3	0back/STIM_014.jpg
1972.459	0.681	correct	0back	Block3	0back/STIM_014.jpg
1976.943	0.612	incorrect	0back	Block3	0back/STIM_014.jpg
1980.181	0.742	correct	0back	Block3	0back/STIM_015.jpg
1983.607	0.538	correct	0back	Block3	0back/STIM_015.jpg
1986.68	0.498	incorrect	0back	Block3	0back/STIM_015.jpg
1990.438	0.691	correct	0back	Block3	0back/STIM_016.jpg
1994.678	0.576	correct	0back	Block3	0back/STIM_016.jpg
1998.482	0.433	correct	0back	Block3	0back/STIM_016.jpg
2001.075	0.794	correct	0back	Block3	0back/STIM_017.jpg
2005.221	0.592	correct	0back	Block3	0back/STIM_017.jpg
2008.585	0.723	correct	0back	Block3	0back/STIM_017.jpg
2011.682	0.672	correct	0back	Block3	0back/STIM_018.jpg
2016.04	0.613	correct	0back	Block3	0back/STIM_018.jpg
2020.571	0.569	correct	0back	Block3	0back/STIM_018.jpg
2024.593	0.55	correct	0back	Block3	0back/STIM_019.jpg
2028.342	0.475	correct	0back	Block3	0back/STIM_019.jpg
2032.709	0.633	correct	0back	Block3	0back/STIM_019.jpg
2037.072	0.628	correct	2back	Block4	2back/STIM_000.jpg
2040.493	0.884	correct	2back	Block4	2back/STIM_000.jpg
2044.573	0.77	correct	2back	Block4	2back/STIM_000.jpg
2048.559	0.788	correct	2back	Block4	2back/STIM_001.jpg
2051.422	0.985	correct	2back	Block4	2back/STIM_001.jpg
2055.58	0.87	correct	2back	Block4	2back/STIM_001.jpg
2059.592	0.786	correct	2back	Block4	2back/STIM_002.jpg
2062.539	0.784	correct	2back	Block4	2back/STIM_002.jpg
2066.856	0.488	correct	2back	Block4	2back/STIM_002.jpg
2070.602	0.949	correct	2back	Block4	2back/STIM_003.jpg
2075.163	0.734	correct	2back	Block4	2back/STIM_003.jpg
2078.568	0.836	correct	2back	Block4	2back/STIM_003.jpg
2082.275	0.639	correct	2back	Block4	2back/STIM_004.jpg
2085.049	0.499	correct	2back	Block4	2back/STIM_004.jpg
2088.698	0.856	correct	2back	Block4	2back/STIM_004.jpg
2092.236	0.559	incorrect	2back	Block4	2back/STIM_005.jpg
2094.856	0.905	correct	2back	Block4	2back/STIM_005.jpg
2098.613	0.632	correct	2back	Block4	2back/STIM_005.jpg
2102.746	0.435	correct	2back	Block4	2back/STIM_006.jpg
2105.969	0.946	correct	2back	Block4	2back/STIM_006.jpg
2110.23	0.952	correct	2back	Block4	2back/STIM_006.jpg
2115.102	0.926	correct	2back	Block4	2back/STIM_007.jpg
2119.546	0.86	correct	2back	Block4	2back/STIM_007.jpg
2123.512	0.558	incorrect	2back	Block4	2back/STIM_007.jpg
2126.273	0.645	correct	2back	Block4	2back/STIM_008.jpg
2130.658	0.772	correct	2back	Block4	2back/STIM_008.jpg
2135.105	0.733	correct	2back	Block4	2back/STIM_008.jpg
2139.638	0.572	correct	2back	Block4	2back/STIM_009.jpg
2143.096	0.898	correct	2back	Block4	2back/STIM_009.jpg
2146.912	0.837	correct	2back	Block4	2back/STIM_009.jpg
2151.193	0.968	correct	2back	Block4	2back/STIM_010.jpg
2154.317	0.754	correct	2back	Block4	2back/STIM_010.jpg
2158.934	0.868	correct	2back	Block4	2back/STIM_010.jpg
2162.817	0.872	correct	2back	Block4	2back/STIM_011.jpg
2167.652	0.71	correct	2back	Block4	2back/STIM_011.jpg
2170.499	0.606	correct	2back	Block4	2back/STIM_011.jpg
2173.113	0.892	correct	2back	Block4	2back/STIM_012.jpg
2176.238	0.887	correct	2back	Block4	2back/STIM_012.jpg
2180.631	0.758	correct	2back	Block4	2back/STIM_012.jpg
2184.151	0.997	correct	2back	Block4	2back/STIM_013.jpg
2188.184	0.67	correct	2back	Block4	2back/STIM_013.jpg
2191.911	0.878	correct	2back	Block4	2back/STIM_013.jpg
2195.896	1.004	correct	2back	Block4	2back/STIM_014.jpg
2199.425	0.706	correct	2back	Block4	2back/STIM_014.jpg
2202.145	0.895	correct	2back	Block4	2back/STIM_014.jpg
2206.974	0.553	correct	2back	Block4	2back/STIM_015.jpg
2211.329	0.646	correct	2back	Block4	2back/STIM_015.jpg
2215.339	0.6	correct	2back	Block4	2back/STIM_015.jpg
2218.913	0.966	correct	2back	Block4	2back/STIM_016.jpg
2222.224	0.662	correct	2back	Block4	2back/STIM_016.jpg
2225.469	0.799	incorrect	2back	Block4	2back/STIM_016.jpg
2229.532	0.835	correct	2back	Block4	2back/STIM_017.jpg
2232.73	0.663	correct	2back	Block4	2back/STIM_017.jpg
2235.476	0.748	correct	2back	Block4	2back/STIM_017.jpg
2238.732	0.556	correct	2back	Block4	2back/STIM_018.jpg
2241.902	0.498	correct	2back	Block4	2back/STIM_018.jpg
2244.812	0.834	correct	2back	Block4	2back/STIM_018.jpg
2249.403	0.683	correct	2back	Block4	2back/STIM_019.jpg
2253.187	0.92	correct	2back	Block4	2back/STIM_019.jpg
2256.649	0.919	correct	2back	Block4	2back/STIM_019.jpg
2260.767	0.769	correct	2back	Block4	2back/STIM_020.jpg
2265.151	0.445	correct	2back	Block4	2back/STIM_020.jpg
2267.658	0.527	correct	2back	Block4	2back/STIM_020.jpg
2271.297	0.839	correct	2back	Block4	2back/STIM_021.jpg
2275.81	0.704	correct	2back	Block4	2back/STIM_021.jpg
2278.962	0.942	correct	2back	Block4	2back/STIM_021.jpg
2282.243	0.456	incorrect	2back	Block4	2back/STIM_022.jpg
2284.934	0.444	correct	2back	Block4	2back/STIM_022.jpg
2289.168	0.521	correct	2back	Block4	2back/STIM_022.jpg
2292.553	0.88	correct	2back	Block4	2back/STIM_023.jpg
2296.565	0.474	correct	2back	Block4	2back/STIM_023.jpg
2299.462	0.656	correct	2back	Block4	2back/STIM_023.jpg
2303.993	0.703	incorrect	2back	Block4	2back/STIM_024.jpg
2307.097	0.648	correct	2back	Block4	2back/STIM_024.jpg
2309.766	0.956	correct	2back	Block4	2back/STIM_024.jpg
2313.8	0.513	correct	2back	Block4	2back/STIM_025.jpg
2317.153	0.868	correct	2back	Block4	2back/STIM_025.jpg
2321.038	0.497	correct	2back	Block4	2back/STIM_025.jpg
2323.737	0.938	correct	2back	Block4	2back/STIM_026.jpg
2328.119	0.514	correct	2back	Block4	2back/STIM_026.jpg
2331.644	0.749	correct	2back	Block4	2back/STIM_026.jpg
2335.054	0.746	correct	2back	Block4	2back/STIM_027.jpg
2337.798	0.688	correct	2back	Block4	2back/STIM_027.jpg
2342.041	0.989	correct	2back	Block4	2back/STIM_027.jpg
2346.01	0.699	correct	2back	Block4	2back/STIM_028.jpg
2349.402	0.513	correct	2back	Block4	2back/STIM_028.jpg
2352.753	0.468	correct	2back	Block4	2back/STIM_028.jpg
2355.705	0.842	correct	2back	Block4	2back/STIM_029.jpg
2360.343	0.914	correct	2back	Block4	2back/STIM_029.jpg
2364.042	0.472	correct	2back	Block4	2back/STIM_029.jpg
2367.158	0.5	correct	2back	Block4	2back/STIM_030.jpg
2369.955	0.493	correct	2back	Block4	2back/STIM_030.jpg
2373.327	0.952	correct	2back	Block4	2back/STIM_030.jpg
2377.936	0.888	correct	2back	Block4	2back/STIM_031.jpg
2381.866	0.859	correct	2back	Block4	2back/STIM_031.jpg
2385.454	0.798	correct	2back	Block4	2back/STIM_031.jpg
2388.872	0.943	correct	2back	Block4	2back/STIM_032.jpg
2392.76	0.495	incorrect	2back	Block4	2back/STIM_032.jpg
2396.685	0.928	correct	2back	Block4	2back/STIM_032.jpg
2400.98	0.449	correct	2back	Block4	2back/STIM_033.jpg
2403.935	0.632	correct	2back	Block4	2back/STIM_033.jpg
2406.694	0.694	correct	2back	Block4	2back/STIM_033.jpg
2410.865	0.895	correct	2back	Block4	2back/STIM_034.jpg
2414.836	0.518	correct	2back	Block4	2back/STIM_034.jpg
2418.192	0.513	correct	2back	Block4	2back/STIM_034.jpg
2421.811	0.638	correct	2back	Block4	2back/STIM_035.jpg
2425.875	0.752	correct	2back	Block4	2back/STIM_035.jpg
2428.812	0.662	correct	2back	Block4	2back/STIM_035.jpg
2433.171	0.975	correct	2back	Block4	2back/STIM_036.jpg
2436.292	0.488	incorrect	2back	Block4	2back/STIM_036.jpg
2439.034	0.841	correct	2back	Block4	2back/STIM_036.jpg
2442.183	0.94	correct	2back	Block4	2back/STIM_037.jpg
2445.597	0.936	correct	2back	Block4	2back/STIM_037.jpg
2448.61	0.935	correct	2back	Block4	2back/STIM_037.jpg
2452.86	0.952	correct	2back	Block4	2back/STIM_038.jpg
2456.245	0.657	correct	2back	Block4	2back/STIM_038.jpg
2460.424	0.534	correct	2back	Block4	2back/STIM_038.jpg
2463.21	0.512	correct	2back	Block4	2back/STIM_039.jpg
2466.506	0.528	correct	2back	Block4	2back/STIM_039.jpg
2470.603	0.975	correct	2back	Block4	2back/STIM_039.jpg
2473.985	0.718	correct	0back	Block4	0back/STIM_000.jpg
2477.691	0.799	correct	0back	Block4	0back/STIM_000.jpg
2481.905	0.471	correct	0back	Block4	0back/STIM_000.jpg
2485.306	0.529	correct	0back	Block4	0back/STIM_001.jpg
2488.749	0.729	correct	0back	Block4	0back/STIM_001.jpg
2493.173	0.674	correct	0back	Block4	0back/STIM_001.jpg
2495.921	0.581	incorrect	0back	Block4	0back/STIM_002.jpg
2499.396	0.743	incorrect	0back	Block4	0back/STIM_002.jpg
2503.965	0.552	correct	0back	Block4	0back/STIM_002.jpg
2506.751	0.68	correct	0back	Block4	0back/STIM_003.jpg
2511.243	0.694	correct	0back	Block4	0back/STIM_003.jpg
2515.405	0.687	correct	0back	Block4	0back/STIM_003.jpg
2518.09	0.448	correct	0back	Block4	0back/STIM_004.jpg
2520.785	0.616	correct	0back	Block4	0back/STIM_004.jpg
2523.965	0.5	correct	0back	Block4	0back/STIM_004.jpg
2528.395	0.778	correct	0back	Block4	0back/STIM_005.jpg
2532.335	0.499	correct	0back	Block4	0back/STIM_005.jpg
2536.536	0.572	correct	0back	Block4	0back/STIM_005.jpg
2540.549	0.453	correct	0back	Block4	0back/STIM_006.jpg
2543.2	0.68	correct	0back	Block4	0back/STIM_006.jpg
2546.088	0.465	correct	0back	Block4	0back/STIM_006.jpg
2550.045	0.682	correct	0back	Block4	0back/STIM_007.jpg
2552.791	0.765	correct	0back	Block4	0back/STIM_007.jpg
2557.318	0.724	correct	0back	Block4	0back/STIM_007.jpg
2561.108	0.624	correct	0back	Block4	0back/STIM_008.jpg
2565.309	0.727	correct	0back	Block4	0back/STIM_008.jpg
2568.283	0.514	correct	0back	Block4	0back/STIM_008.jpg
2571.745	0.535	correct	0back	Block4	0back/STIM_009.jpg
2576.129	0.45	correct	0back	Block4	0back/STIM_009.jpg
2579.065	0.788	correct	0back	Block4	0back/STIM_009.jpg
2582.369	0.514	correct	0back	Block4	0back/STIM_010.jpg
2585.844	0.453	incorrect	0back	Block4	0back/STIM_010.jpg
2589.934	0.52	correct	0back	Block4	0back/STIM_010.jpg
2593.072	0.684	correct	0back	Block4	0back/STIM_011.jpg
2596.157	0.416	correct	0back	Block4	0back/STIM_011.jpg
2599.677	0.665	incorrect	0back	Block4	0back/STIM_011.jpg
2603.934	0.509	correct	0back	Block4	0back/STIM_012.jpg
2608.079	0.783	correct	0back	Block4	0back/STIM_012.jpg
2612.401	0.598	correct	0back	Block4	0back/STIM_012.jpg
2616.643	0.417	correct	0back	Block4	0back/STIM_013.jpg
2619.42	0.773	correct	0back	Block4	0back/STIM_013.jpg
2624.158	0.42	correct	0back	Block4	0back/STIM_013.jpg
2627.359	0.572	correct	0back	Block4	0back/STIM_014.jpg
2631.463	0.468	correct	0back	Block4	0back/STIM_014.jpg
2634.519	0.691	correct	0back	Block4	0back/STIM_014.jpg
2637.616	0.613	correct	0back	Block4	0back/STIM_015.jpg
2641.154	0.709	correct	0back	Block4	0back/STIM_015.jpg
2645.182	0.63	correct	0back	Block4	0back/STIM_015.jpg
2649.081	0.821	correct	0back	Block4	0back/STIM_016.jpg
2652.706	0.59	correct	0back	Block4	0back/STIM_016.jpg
2656.194	0.635	correct	0back	Block4	0back/STIM_016.jpg
2660.335	0.746	correct	0back	Block4	0back/STIM_017.jpg
2663.902	0.527	correct	0back	Block4	0back/STIM_017.jpg
2667.306	0.793	correct	0back	Block4	0back/STIM_017.jpg
2671.755	0.766	correct	0back	Block4	0back/STIM_018.jpg
2675.88	0.549	correct	0back	Block4	0back/STIM_018.jpg
2680.225	0.807	correct	0back	Block4	0back/STIM_018.jpg
2684.561	0.435	correct	0back	Block4	0back/STIM_019.jpg
2687.723	0.525	correct	0back	Block4	0back/STIM_019.jpg
2691.278	0.65	correct	0back	Block4	0back/STIM_019.jpg
