onset	duration	accuracy	trial_type	learning_stage	stimulus
0.0	0.914	correct	2back	Block1	2back/STIM_000.jpg
4.044	0.876	correct	2back	Block1	2back/STIM_000.jpg
7.042	0.925	incorrect	2back	Block1	2back/STIM_000.jpg
11.255	0.821	correct	2back	Block1	2back/STIM_001.jpg
15.548	0.728	correct	2back	Block1	2back/STIM_001.jpg
19.578	0.718	correct	2back	Block1	2back/STIM_001.jpg
23.675	0.593	correct	2back	Block1	2back/STIM_002.jpg
27.629	0.782	correct	2back	Block1	2back/STIM_002.jpg
30.724	0.868	incorrect	2back	Block1	2back/STIM_002.jpg
35.456	0.799	correct	2back	Block1	2back/STIM_003.jpg
39.419	1.188	correct	2back	Block1	2back/STIM_003.jpg
42.93	0.608	correct	2back	Block1	2back/STIM_003.jpg
47.284	0.624	correct	2back	Block1	2back/STIM_004.jpg
51.003	0.87	incorrect	2back	Block1	2back/STIM_004.jpg
55.422	0.694	correct	2back	Block1	2back/STIM_004.jpg
58.167	0.591	correct	2back	Block1	2back/STIM_005.jpg
61.955	0.984	correct	2back	Block1	2back/STIM_005.jpg
66.319	0.962	correct	2back	Block1	2back/STIM_005.jpg
70.978	0.768	correct	2back	Block1	2back/STIM_006.jpg
74.323	1.144	correct	2back	Block1	2back/STIM_006.jpg
79.222	0.497	correct	2back	Block1	2back/STIM_006.jpg
81.866	0.681	incorrect	2back	Block1	2back/STIM_007.jpg
85.632	0.652	correct	2back	Block1	2back/STIM_007.jpg
90.141	0.83	incorrect	2back	Block1	2back/STIM_007.jpg
94.424	0.59	correct	2back	Block1	2back/STIM_008.jpg
97.061	0.597	incorrect	2back	Block1	2back/STIM_008.jpg
100.274	0.993	correct	2back	Block1	2back/STIM_008.jpg
103.478	1.068	incorrect	2back	Block1	2back/STIM_009.jpg
107.101	0.867	correct	2back	Block1	2back/STIM_009.jpg
110.902	0.688	correct	2back	Block1	2back/STIM_009.jpg
115.134	0.58	correct	2back	Block1	2back/STIM_010.jpg
119.15	0.641	correct	2back	Block1	2back/STIM_010.jpg
123.417	0.822	correct	2back	Block1	2back/STIM_010.jpg
128.11	0.743	correct	2back	Block1	2back/STIM_011.jpg
132.655	0.62	incorrect	2back	Block1	2back/STIM_011.jpg
135.378	0.725	correct	2back	Block1	2back/STIM_011.jpg
138.654	0.625	correct	2back	Block1	2back/STIM_012.jpg
141.287	0.907	correct	2back	Block1	2back/STIM_012.jpg
145.187	0.634	correct	2back	Block1	2back/STIM_012.jpg
148.089	1.102	correct	2back	Block1	2back/STIM_013.jpg
151.925	0.694	correct	2back	Block1	2back/STIM_013.jpg
155.568	1.063	correct	2back	Block1	2back/STIM_013.jpg
159.984	1.222	incorrect	2back	Block1	2back/STIM_014.jpg
163.31	0.643	correct	2back	Block1	2back/STIM_014.jpg
167.923	0.994	correct	2back	Block1	2back/STIM_014.jpg
171.856	1.006	correct	2back	Block1	2back/STIM_015.jpg
176.696	0.746	correct	2back	Block1	2back/STIM_015.jpg
181.126	0.805	correct	2back	Block1	2back/STIM_015.jpg
184.461	0.791	correct	2back	Block1	2back/STIM_016.jpg
188.043	1.003	correct	2back	Block1	2back/STIM_016.jpg
192.314	0.959	correct	2back	Block1	2back/STIM_016.jpg
197.123	1.104	incorrect	2back	Block1	2back/STIM_017.jpg
200.239	0.84	correct	2back	Block1	2back/STIM_017.jpg
205.046	0.903	correct	2back	Block1	2back/STIM_017.jpg
209.734	1.01	correct	2back	Block1	2back/STIM_018.jpg
213.231	0.774	incorrect	2back	Block1	2back/STIM_018.jpg
217.906	0.758	incorrect	2back	Block1	2back/STIM_018.jpg
220.756	0.624	correct	2back	Block1	2back/STIM_019.jpg
224.635	0.905	incorrect	2back	Block1	2back/STIM_019.jpg
228.171	0.939	correct	2back	Block1	2back/STIM_019.jpg
231.289	0.825	correct	2back	Block1	2back/STIM_020.jpg
234.657	1.146	correct	2back	Block1	2back/STIM_020.jpg
239.697	1.06	correct	2back	Block1	2back/STIM_020.jpg
243.691	0.978	correct	2back	Block1	2back/STIM_021.jpg
247.335	1.176	incorrect	2back	Block1	2back/STIM_021.jpg
250.829	0.489	incorrect	2back	Block1	2back/STIM_021.jpg
254.423	0.881	incorrect	2back	Block1	2back/STIM_022.jpg
257.797	0.775	correct	2back	Block1	2back/STIM_022.jpg
261.772	1.112	correct	2back	Block1	2back/STIM_022.jpg
265.063	0.932	correct	2back	Block1	2back/STIM_023.jpg
269.325	1.132	correct	2back	Block1	2back/STIM_023.jpg
273.307	0.526	correct	2back	Block1	2back/STIM_023.jpg
277.537	0.543	correct	2back	Block1	2back/STIM_024.jpg
280.503	1.117	correct	2back	Block1	2back/STIM_024.jpg
283.737	0.798	correct	2back	Block1	2back/STIM_024.jpg
286.665	1.045	correct	2back	Block1	2back/STIM_025.jpg
291.483	0.632	incorrect	2back	Block1	2back/STIM_025.jpg
294.139	0.693	correct	2back	Block1	2back/STIM_025.jpg
298.789	0.658	incorrect	2back	Block1	2back/STIM_026.jpg
303.283	0.977	correct	2back	Block1	2back/STIM_026.jpg
306.478	0.671	incorrect	2back	Block1	2back/STIM_026.jpg
311.015	0.81	correct	2back	Block1	2back/STIM_027.jpg
313.858	0.873	correct	2back	Block1	2back/STIM_027.jpg
318.417	1.119	incorrect	2back	Block1	2back/STIM_027.jpg
322.489	0.643	incorrect	2back	Block1	2back/STIM_028.jpg
325.973	0.983	incorrect	2back	Block1	2back/STIM_028.jpg
330.326	0.629	correct	2back	Block1	2back/STIM_028.jpg
334.9	1.163	correct	2back	Block1	2back/STIM_029.jpg
338.939	0.928	correct	2back	Block1	2back/STIM_029.jpg
342.173	0.987	correct	2back	Block1	2back/STIM_029.jpg
345.461	1.138	correct	2back	Block1	2back/STIM_030.jpg
349.6	0.58	correct	2back	Block1	2back/STIM_030.jpg
353.979	0.651	correct	2back	Block1	2back/STIM_030.jpg
358.164	0.858	correct	2back	Block1	2back/STIM_031.jpg
361.125	1.013	correct	2back	Block1	2back/STIM_031.jpg
365.408	0.932	correct	2back	Block1	2back/STIM_031.jpg
370.115	1.241	correct	2back	Block1	2back/STIM_032.jpg
374.036	0.654	correct	2back	Block1	2back/STIM_032.jpg
377.172	1.064	incorrect	2back	Block1	2back/STIM_032.jpg
380.771	0.696	incorrect	2back	Block1	2back/STIM_033.jpg
384.031	0.717	correct	2back	Block1	2back/STIM_033.jpg
388.738	0.851	incorrect	2back	Block1	2back/STIM_033.jpg
392.648	0.707	correct	2back	Block1	2back/STIM_034.jpg
396.909	0.672	correct	2back	Block1	2back/STIM_034.jpg
399.789	0.855	incorrect	2back	Block1	2back/STIM_034.jpg
403.118	1.198	incorrect	2back	Block1	2back/STIM_035.jpg
407.549	0.979	correct	2back	Block1	2back/STIM_035.jpg
412.124	1.041	correct	2back	Block1	2back/STIM_035.jpg
416.782	0.96	correct	2back	Block1	2back/STIM_036.jpg
420.049	0.863	correct	2back	Block1	2back/STIM_036.jpg
424.451	0.998	correct	2back	Block1	2back/STIM_036.jpg
428.842	1.247	correct	2back	Block1	2back/STIM_037.jpg
432.797	1.186	correct	2back	Block1	2back/STIM_037.jpg
437.807	0.717	correct	2back	Block1	2back/STIM_037.jpg
441.192	1.136	incorrect	2back	Block1	2back/STIM_038.jpg
444.775	0.943	correct	2back	Block1	2back/STIM_038.jpg
447.841	1.022	incorrect	2back	Block1	2back/STIM_038.jpg
451.433	1.118	incorrect	2back	Block1	2back/STIM_039.jpg
455.965	1.047	correct	2back	Block1	2back/STIM_039.jpg
460.971	1.036	correct	2back	Block1	2back/STIM_039.jpg
464.989	0.691	correct	0back	Block1	0back/STIM_000.jpg
469.334	0.495	incorrect	0back	Block1	0back/STIM_000.jpg
472.192	0.363	correct	0back	Block1	0back/STIM_000.jpg
475.937	0.677	correct	0back	Block1	0back/STIM_001.jpg
479.225	0.552	correct	0back	Block1	0back/STIM_001.jpg
483.145	0.546	incorrect	0back	Block1	0back/STIM_001.jpg
485.843	0.525	correct	0back	Block1	0back/STIM_002.jpg
488.463	0.401	correct	0back	Block1	0back/STIM_002.jpg
492.442	0.366	correct	0back	Block1	0back/STIM_002.jpg
495.997	0.36	incorrect	0back	Block1	0back/STIM_003.jpg
500.114	0.676	correct	0back	Block1	0back/STIM_003.jpg
504.229	0.595	correct	0back	Block1	0back/STIM_003.jpg
507.745	0.502	correct	0back	Block1	0back/STIM_004.jpg
511.066	0.521	correct	0back	Block1	0back/STIM_004.jpg
514.929	0.415	correct	0back	Block1	0back/STIM_004.jpg
519.033	0.552	correct	0back	Block1	0back/STIM_005.jpg
521.727	0.662	correct	0back	Block1	0back/STIM_005.jpg
524.875	0.646	correct	0back	Block1	0back/STIM_005.jpg
527.721	0.575	correct	0back	Block1	0back/STIM_006.jpg
530.968	0.472	correct	0back	Block1	0back/STIM_006.jpg
535.171	0.647	correct	0back	Block1	0back/STIM_006.jpg
538.212	0.456	correct	0back	Block1	0back/STIM_007.jpg
542.2	0.656	correct	0back	Block1	0back/STIM_007.jpg
545.723	0.532	correct	0back	Block1	0back/STIM_007.jpg
549.5	0.545	correct	0back	Block1	0back/STIM_008.jpg
553.612	0.504	correct	0back	Block1	0back/STIM_008.jpg
557.115	0.379	correct	0back	Block1	0back/STIM_008.jpg
560.7	0.401	correct	0back	Block1	0back/STIM_009.jpg
563.915	0.496	correct	0back	Block1	0back/STIM_009.jpg
567.357	0.382	correct	0back	Block1	0back/STIM_009.jpg
571.469	0.521	incorrect	0back	Block1	0back/STIM_010.jpg
574.301	0.465	correct	0back	Block1	0back/STIM_010.jpg
576.907	0.38	correct	0back	Block1	0back/STIM_010.jpg
580.373	0.673	correct	0back	Block1	0back/STIM_011.jpg
584.763	0.702	correct	0back	Block1	0back/STIM_011.jpg
588.892	0.536	correct	0back	Block1	0back/STIM_011.jpg
592.046	0.564	correct	0back	Block1	0back/STIM_012.jpg
595.49	0.382	incorrect	0back	Block1	0back/STIM_012.jpg
598.496	0.364	correct	0back	Block1	0back/STIM_012.jpg
601.612	0.611	correct	0back	Block1	0back/STIM_013.jpg
604.43	0.462	correct	0back	Block1	0back/STIM_013.jpg
606.976	0.573	correct	0back	Block1	0back/STIM_013.jpg
609.927	0.668	correct	0back	Block1	0back/STIM_014.jpg
613.617	0.691	correct	0back	Block1	0back/STIM_014.jpg
618.189	0.595	correct	0back	Block1	0back/STIM_014.jpg
621.32	0.47	correct	0back	Block1	0back/STIM_015.jpg
623.954	0.655	correct	0back	Block1	0back/STIM_015.jpg
627.638	0.422	incorrect	0back	Block1	0back/STIM_015.jpg
631.484	0.535	correct	0back	Block1	0back/STIM_016.jpg
635.5	0.4	correct	0back	Block1	0back/STIM_016.jpg
638.052	0.663	correct	0back	Block1	0back/STIM_016.jpg
641.771	0.614	correct	0back	Block1	0back/STIM_017.jpg
644.611	0.535	correct	0back	Block1	0back/STIM_017.jpg
648.25	0.601	correct	0back	Block1	0back/STIM_017.jpg
652.234	0.661	correct	0back	Block1	0back/STIM_018.jpg
655.993	0.405	correct	0back	Block1	0back/STIM_018.jpg
659.219	0.37	correct	0back	Block1	0back/STIM_018.jpg
663.372	0.502	correct	0back	Block1	0back/STIM_019.jpg
667.172	0.708	correct	0back	Block1	0back/STIM_019.jpg
671.702	0.704	correct	0back	Block1	0back/STIM_019.jpg
674.701	1.004	correct	2back	Block2	2back/STIM_000.jpg
679.292	0.813	correct	2back	Block2	2back/STIM_000.jpg
682.461	0.926	correct	2back	Block2	2back/STIM_000.jpg
686.018	0.735	correct	2back	Block2	2back/STIM_001.jpg
690.101	0.934	incorrect	2back	Block2	2back/STIM_001.jpg
694.494	0.509	correct	2back	Block2	2back/STIM_001.jpg
697.452	0.963	correct	2back	Block2	2back/STIM_002.jpg
701.259	0.842	correct	2back	Block2	2back/STIM_002.jpg
706.039	0.572	correct	2back	Block2	2back/STIM_002.jpg
710.484	0.524	correct	2back	Block2	2back/STIM_003.jpg
713.565	0.495	correct	2back	Block2	2back/STIM_003.jpg
716.582	0.492	correct	2back	Block2	2back/STIM_003.jpg
719.967	0.893	correct	2back	Block2	2back/STIM_004.jpg
723.111	0.547	correct	2back	Block2	2back/STIM_004.jpg
725.885	0.769	correct	2back	Block2	2back/STIM_004.jpg
729.032	0.697	incorrect	2back	Block2	2back/STIM_005.jpg
732.717	0.611	correct	2back	Block2	2back/STIM_005.jpg
735.98	0.557	correct	2back	Block2	2back/STIM_005.jpg
739.594	0.963	incorrect	2back	Block2	2back/STIM_006.jpg
744.368	0.567	correct	2back	Block2	2back/STIM_006.jpg
747.669	0.747	correct	2back	Block2	2back/STIM_006.jpg
752.123	0.469	correct	2back	Block2	2back/STIM_007.jpg
755.659	0.658	incorrect	2back	Block2	2back/STIM_007.jpg
759.184	0.617	correct	2back	Block2	2back/STIM_007.jpg
763.17	0.522	correct	2back	Block2	2back/STIM_008.jpg
767.058	0.76	correct	2back	Block2	2back/STIM_008.jpg
770.736	0.576	correct	2back	Block2	2back/STIM_008.jpg
774.203	0.744	correct	2back	Block2	2back/STIM_009.jpg
777.21	0.923	correct	2back	Block2	2back/STIM_009.jpg
782.034	0.81	correct	2back	Block2	2back/STIM_009.jpg
786.225	0.779	correct	2back	Block2	2back/STIM_010.jpg
789.934	0.742	incorrect	2back	Block2	2back/STIM_010.jpg
794.149	0.876	correct	2back	Block2	2back/STIM_010.jpg
798.551	0.769	correct	2back	Block2	2back/STIM_011.jpg
803.32	0.879	correct	2back	Block2	2back/STIM_011.jpg
806.872	0.605	correct	2back	Block2	2back/STIM_011.jpg
811.236	1.055	correct	2back	Block2	2back/STIM_012.jpg
814.913	0.544	correct	2back	Block2	2back/STIM_012.jpg
818.938	0.475	correct	2back	Block2	2back/STIM_012.jpg
822.342	0.624	correct	2back	Block2	2back/STIM_013.jpg
825.136	0.451	correct	2back	Block2	2back/STIM_013.jpg
828.232	0.405	correct	2back	Block2	2back/STIM_013.jpg
832.079	0.884	correct	2back	Block2	2back/STIM_014.jpg
836.131	0.588	incorrect	2back	Block2	2back/STIM_014.jpg
839.652	0.695	correct	2back	Block2	2back/STIM_014.jpg
844.247	0.621	correct	2back	Block2	2back/STIM_015.jpg
848.603	0.744	correct	2back	Block2	2back/STIM_015.jpg
852.802	0.778	correct	2back	Block2	2back/STIM_015.jpg
856.027	0.952	correct	2back	Block2	2back/STIM_016.jpg
859.648	0.606	correct	2back	Block2	2back/STIM_016.jpg
863.375	0.785	correct	2back	Block2	2back/STIM_016.jpg
867.629	1.024	correct	2back	Block2	2back/STIM_017.jpg
871.522	0.685	correct	2back	Block2	2back/STIM_017.jpg
874.474	0.504	correct	2back	Block2	2back/STIM_017.jpg
878.089	0.99	correct	2back	Block2	2back/STIM_018.jpg
882.784	0.83	correct	2back	Block2	2back/STIM_018.jpg
885.897	0.626	correct	2back	Block2	2back/STIM_018.jpg
888.594	0.894	correct	2back	Block2	2back/STIM_019.jpg
892.008	0.495	correct	2back	Block2	2back/STIM_019.jpg
895.357	0.694	correct	2back	Block2	2back/STIM_019.jpg
899.247	0.52	correct	2back	Block2	2back/STIM_020.jpg
903.733	0.972	correct	2back	Block2	2back/STIM_020.jpg
908.523	0.597	correct	2back	Block2	2back/STIM_020.jpg
911.411	0.906	correct	2back	Block2	2back/STIM_021.jpg
914.641	0.969	correct	2back	Block2	2back/STIM_021.jpg
918.862	0.737	correct	2back	Block2	2back/STIM_021.jpg
922.146	0.858	correct	2back	Block2	2back/STIM_022.jpg
925.941	0.514	correct	2back	Block2	2back/STIM_022.jpg
929.063	0.866	incorrect	2back	Block2	2back/STIM_022.jpg
932.083	0.704	incorrect	2back	Block2	2back/STIM_023.jpg
936.626	0.714	correct	2back	Block2	2back/STIM_023.jpg
940.13	0.759	correct	2back	Block2	2back/STIM_023.jpg
943.506	0.748	correct	2back	Block2	2back/STIM_024.jpg
947.241	0.714	incorrect	2back	Block2	2back/STIM_024.jpg
950.006	0.72	correct	2back	Block2	2back/STIM_024.jpg
954.157	0.788	correct	2back	Block2	2back/STIM_025.jpg
958.056	0.675	incorrect	2back	Block2	2back/STIM_025.jpg
962.261	0.468	correct	2back	Block2	2back/STIM_025.jpg
965.541	0.607	correct	2back	Block2	2back/STIM_026.jpg
969.764	0.629	correct	2back	Block2	2back/STIM_026.jpg
972.396	0.516	correct	2back	Block2	2back/STIM_026.jpg
974.964	0.966	correct	2back	Block2	2back/STIM_027.jpg
978.478	0.545	correct	2back	Block2	2back/STIM_027.jpg
981.182	0.631	incorrect	2back	Block2	2back/STIM_027.jpg
983.847	0.558	correct	2back	Block2	2back/STIM_028.jpg
988.188	0.792	correct	2back	Block2	2back/STIM_028.jpg
992.193	0.878	correct	2back	Block2	2back/STIM_028.jpg
995.203	0.647	correct	2back	Block2	2back/STIM_029.jpg
998.842	0.971	correct	2back	Block2	2back/STIM_029.jpg
1003.451	0.776	correct	2back	Block2	2back/STIM_029.jpg
1007.069	0.92	correct	2back	Block2	2back/STIM_030.jpg
1010.69	0.57	correct	2back	Block2	2back/STIM_030.jpg
1014.899	0.876	correct	2back	Block2	2back/STIM_030.jpg
1018.652	0.988	correct	2back	Block2	2back/STIM_031.jpg
1022.783	0.867	correct	2back	Block2	2back/STIM_031.jpg
1026.004	0.606	correct	2back	Block2	2back/STIM_031.jpg
1030.374	0.859	correct	2back	Block2	2back/STIM_032.jpg
1033.739	0.908	correct	2back	Block2	2back/STIM_032.jpg
1037.052	0.646	correct	2back	Block2	2back/STIM_032.jpg
1041.474	0.819	correct	2back	Block2	2back/STIM_033.jpg
1045.802	0.518	correct	2back	Block2	2back/STIM_033.jpg
1050.164	0.766	correct	2back	Block2	2back/STIM_033.jpg
1054.127	0.616	correct	2back	Block2	2back/STIM_034.jpg
1058.171	0.933	correct	2back	Block2	2back/STIM_034.jpg
1062.431	0.7	incorrect	2back	Block2	2back/STIM_034.jpg
1066.328	0.687	correct	2back	Block2	2back/STIM_035.jpg
1070.862	0.632	correct	2back	Block2	2back/STIM_035.jpg
1074.513	0.427	correct	2back	Block2	2back/STIM_035.jpg
1077.071	0.737	incorrect	2back	Block2	2back/STIM_036.jpg
1080.305	0.977	correct	2back	Block2	2back/STIM_036.jpg
1083.546	0.639	correct	2back	Block2	2back/STIM_036.jpg
1086.36	1.029	correct	2back	Block2	2back/STIM_037.jpg
1091.191	0.45	correct	2back	Block2	2back/STIM_037.jpg
1094.712	0.922	correct	2back	Block2	2back/STIM_037.jpg
1099.536	0.947	correct	2back	Block2	2back/STIM_038.jpg
1102.908	0.724	incorrect	2back	Block2	2back/STIM_038.jpg
1107.307	0.446	correct	2back	Block2	2back/STIM_038.jpg
1110.885	0.735	correct	2back	Block2	2back/STIM_039.jpg
1114.756	0.737	correct	2back	Block2	2back/STIM_039.jpg
1118.268	0.826	correct	2back	Block2	2back/STIM_039.jpg
1122.459	0.557	incorrect	0back	Block2	0back/STIM_000.jpg
1126.705	0.608	correct	0back	Block2	0back/STIM_000.jpg
1130.793	0.493	correct	0back	Block2	0back/STIM_000.jpg
1133.743	0.568	correct	0back	Block2	0back/STIM_001.jpg
1138.033	0.543	correct	0back	Block2	0back/STIM_001.jpg
1142.433	0.433	correct	0back	Block2	0back/STIM_001.jpg
1145.75	0.596	correct	0back	Block2	0back/STIM_002.jpg
1149.982	0.41	correct	0back	Block2	0back/STIM_002.jpg
1152.512	0.68	correct	0back	Block2	0back/STIM_002.jpg
1156.678	0.393	incorrect	0back	Block2	0back/STIM_003.jpg
1160.404	0.699	correct	0back	Block2	0back/STIM_003.jpg
1163.375	0.603	incorrect	0back	Block2	0back/STIM_003.jpg
1167.71	0.576	correct	0back	Block2	0back/STIM_004.jpg
1171.546	0.658	correct	0back	Block2	0back/STIM_004.jpg
1175.573	0.372	correct	0back	Block2	0back/STIM_004.jpg
1179.664	0.446	correct	0back	Block2	0back/STIM_005.jpg
1182.631	0.469	correct	0back	Block2	0back/STIM_005.jpg
1185.68	0.606	correct	0back	Block2	0back/STIM_005.jpg
1189.498	0.549	correct	0back	Block2	0back/STIM_006.jpg
1192.385	0.614	correct	0back	Block2	0back/STIM_006.jpg
1196.89	0.604	correct	0back	Block2	0back/STIM_006.jpg
1200.221	0.5	correct	0back	Block2	0back/STIM_007.jpg
1204.305	0.401	correct	0back	Block2	0back/STIM_007.jpg
1208.538	0.658	incorrect	0back	Block2	0back/STIM_007.jpg
1212.028	0.555	correct	0back	Block2	0back/STIM_008.jpg
1214.681	0.604	correct	0back	Block2	0back/STIM_008.jpg
1218.945	0.474	correct	0back	Block2	0back/STIM_008.jpg
1221.874	0.485	correct	0back	Block2	0back/STIM_009.jpg
1225.895	0.547	incorrect	0back	Block2	0back/STIM_009.jpg
1230.351	0.705	incorrect	0back	Block2	0back/STIM_009.jpg
1234.916	0.465	correct	0back	Block2	0back/STIM_010.jpg
1238.614	0.58	correct	0back	Block2	0back/STIM_010.jpg
1242.617	0.634	correct	0back	Block2	0back/STIM_010.jpg
1246.269	0.535	correct	0back	Block2	0back/STIM_011.jpg
1249.385	0.572	correct	0back	Block2	0back/STIM_011.jpg
1253.314	0.628	correct	0back	Block2	0back/STIM_011.jpg
1256.471	0.631	correct	0back	Block2	0back/STIM_012.jpg
1259.202	0.37	correct	0back	Block2	0back/STIM_012.jpg
1262.968	0.388	correct	0back	Block2	0back/STIM_012.jpg
1266.182	0.59	correct	0back	Block2	0back/STIM_013.jpg
1269.819	0.705	correct	0back	Block2	0back/STIM_013.jpg
1274.026	0.53	correct	0back	Block2	0back/STIM_013.jpg
1277.174	0.705	correct	0back	Block2	0back/STIM_014.jpg
1280.631	0.64	correct	0back	Block2	0back/STIM_014.jpg
1283.45	0.593	correct	0back	Block2	0back/STIM_014.jpg
1287.836	0.703	correct	0back	Block2	0back/STIM_015.jpg
1290.836	0.604	correct	0back	Block2	0back/STIM_015.jpg
1295.07	0.653	correct	0back	Block2	0back/STIM_015.jpg
1299.203	0.704	incorrect	0back	Block2	0back/STIM_016.jpg
1302.919	0.711	incorrect	0back	Block2	0back/STIM_016.jpg
1305.86	0.524	incorrect	0back	Block2	0back/STIM_016.jpg
1308.862	0.689	correct	0back	Block2	0back/STIM_017.jpg
1312.348	0.388	correct	0back	Block2	0back/STIM_017.jpg
1315.706	0.418	correct	0back	Block2	0back/STIM_017.jpg
1319.794	0.715	correct	0back	Block2	0back/STIM_018.jpg
1322.806	0.694	correct	0back	Block2	0back/STIM_018.jpg
1326.32	0.369	correct	0back	Block2	0back/STIM_018.jpg
1329.937	0.621	correct	0back	Block2	0back/STIM_019.jpg
1334.203	0.523	correct	0back	Block2	0back/STIM_019.jpg
1337.99	0.498	correct	0back	Block2	0back/STIM_019.jpg
1340.73	0.443	correct	2back	Block3	2back/STIM_000.jpg
1344.815	0.699	correct	2back	Block3	2back/STIM_000.jpg
1347.704	0.793	incorrect	2back	Block3	2back/STIM_000.jpg
1352.103	0.384	incorrect	2back	Block3	2back/STIM_001.jpg
1355.566	0.671	correct	2back	Block3	2back/STIM_001.jpg
1359.3	0.758	correct	2back	Block3	2back/STIM_001.jpg
1363.96	0.562	incorrect	2back	Block3	2back/STIM_002.jpg
1366.712	0.678	correct	2back	Block3	2back/STIM_002.jpg
1371.024	0.577	correct	2back	Block3	2back/STIM_002.jpg
1374.958	0.664	correct	2back	Block3	2back/STIM_003.jpg
1379.031	0.69	correct	2back	Block3	2back/STIM_003.jpg
1381.812	0.793	correct	2back	Block3	2back/STIM_003.jpg
1386.358	0.545	correct	2back	Block3	2back/STIM_004.jpg
1389.409	0.458	incorrect	2back	Block3	2back/STIM_004.jpg
1391.904	0.577	correct	2back	Block3	2back/STIM_004.jpg
1396.455	0.379	correct	2back	Block3	2back/STIM_005.jpg
1400.809	0.845	correct	2back	Block3	2back/STIM_005.jpg
1404.595	0.768	correct	2back	Block3	2back/STIM_005.jpg
1408.449	0.8	correct	2back	Block3	2back/STIM_006.jpg
1412.783	0.721	correct	2back	Block3	2back/STIM_006.jpg
1415.776	0.454	correct	2back	Block3	2back/STIM_006.jpg
1418.277	0.848	correct	2back	Block3	2back/STIM_007.jpg
1422.192	0.424	correct	2back	Block3	2back/STIM_007.jpg
1424.903	0.684	correct	2back	Block3	2back/STIM_007.jpg
1429.297	0.535	correct	2back	Block3	2back/STIM_008.jpg
1433.002	0.458	incorrect	2back	Block3	2back/STIM_008.jpg
1435.755	0.756	correct	2back	Block3	2back/STIM_008.jpg
1438.871	0.782	correct	2back	Block3	2back/STIM_009.jpg
1442.164	0.44	correct	2back	Block3	2back/STIM_009.jpg
1444.884	0.857	correct	2back	Block3	2back/STIM_009.jpg
1449.129	0.538	correct	2back	Block3	2back/STIM_010.jpg
1453.063	0.696	correct	2back	Block3	2back/STIM_010.jpg
1456.383	0.614	correct	2back	Block3	2back/STIM_010.jpg
1460.816	0.424	correct	2back	Block3	2back/STIM_011.jpg
1464.37	0.663	correct	2back	Block3	2back/STIM_011.jpg
1468.475	0.42	correct	2back	Block3	2back/STIM_011.jpg
1471.732	0.417	correct	2back	Block3	2back/STIM_012.jpg
1474.549	0.734	correct	2back	Block3	2back/STIM_012.jpg
1478.074	0.471	correct	2back	Block3	2back/STIM_012.jpg
1481.76	0.636	correct	2back	Block3	2back/STIM_013.jpg
1486.14	0.536	correct	2back	Block3	2back/STIM_013.jpg
1488.891	0.562	correct	2back	Block3	2back/STIM_013.jpg
1493.125	0.414	correct	2back	Block3	2back/STIM_014.jpg
1495.888	0.861	correct	2back	Block3	2back/STIM_014.jpg
1499.191	0.748	correct	2back	Block3	2back/STIM_014.jpg
1502.56	0.877	correct	2back	Block3	2back/STIM_015.jpg
1507.243	0.635	correct	2back	Block3	2back/STIM_015.jpg
1510.91	0.54	correct	2back	Block3	2back/STIM_015.jpg
1515.204	0.622	correct	2back	Block3	2back/STIM_016.jpg
1519.313	0.878	correct	2back	Block3	2back/STIM_016.jpg
1522.766	0.704	correct	2back	Block3	2back/STIM_016.jpg
1525.784	0.449	correct	2back	Block3	2back/STIM_017.jpg
1530.074	0.778	correct	2back	Block3	2back/STIM_017.jpg
1534.51	0.682	correct	2back	Block3	2back/STIM_017.jpg
1538.653	0.677	correct	2back	Block3	2back/STIM_018.jpg
1541.616	0.821	correct	2back	Block3	2back/STIM_018.jpg
1544.629	0.808	correct	2back	Block3	2back/STIM_018.jpg
1547.937	0.516	correct	2back	Block3	2back/STIM_019.jpg
1551.821	0.656	correct	2back	Block3	2back/STIM_019.jpg
1556.345	0.656	correct	2back	Block3	2back/STIM_019.jpg
1559.701	0.489	correct	2back	Block3	2back/STIM_020.jpg
1562.685	0.665	correct	2back	Block3	2back/STIM_020.jpg
1566.032	0.62	correct	2back	Block3	2back/STIM_020.jpg
1570.188	0.396	correct	2back	Block3	2back/STIM_021.jpg
1574.463	0.477	correct	2back	Block3	2back/STIM_021.jpg
1577.604	0.499	correct	2back	Block3	2back/STIM_021.jpg
1580.817	0.686	correct	2back	Block3	2back/STIM_022.jpg
1584.253	0.528	correct	2back	Block3	2back/STIM_022.jpg
1587.863	0.403	correct	2back	Block3	2back/STIM_022.jpg
1591.684	0.391	correct	2back	Block3	2back/STIM_023.jpg
1595.93	0.498	correct	2back	Block3	2back/STIM_023.jpg
1599.708	0.472	correct	2back	Block3	2back/STIM_023.jpg
1603.664	0.557	correct	2back	Block3	2back/STIM_024.jpg
1607.023	0.648	incorrect	2back	Block3	2back/STIM_024.jpg
1609.913	0.715	correct	2back	Block3	2back/STIM_024.jpg
1613.518	0.513	incorrect	2back	Block3	2back/STIM_025.jpg
1617.965	0.44	correct	2back	Block3	2back/STIM_025.jpg
1621.773	0.57	correct	2back	Block3	2back/STIM_025.jpg
1626.258	0.714	correct	2back	Block3	2back/STIM_026.jpg
1629.311	0.64	correct	2back	Block3	2back/STIM_026.jpg
1632.555	0.83	correct	2back	Block3	2back/STIM_026.jpg
1636.995	0.694	correct	2back	Block3	2back/STIM_027.jpg
1639.837	0.49	correct	2back	Block3	2back/STIM_027.jpg
1643.149	0.421	incorrect	2back	Block3	2back/STIM_027.jpg
1646.348	0.495	correct	2back	Block3	2back/STIM_028.jpg
1650.412	0.765	correct	2back	Block3	2back/STIM_028.jpg
1653.532	0.801	correct	2back	Block3	2back/STIM_028.jpg
1658.155	0.671	correct	2back	Block3	2back/STIM_029.jpg
1662.563	0.572	correct	2back	Block3	2back/STIM_029.jpg
1666.102	0.806	correct	2back	Block3	2back/STIM_029.jpg
1670.277	0.579	correct	2back	Block3	2back/STIM_030.jpg
1673.712	0.434	correct	2back	Block3	2back/STIM_030.jpg
1676.969	0.768	correct	2back	Block3	2back/STIM_030.jpg
1681.455	0.665	correct	2back	Block3	2back/STIM_031.jpg
1684.911	0.453	correct	2back	Block3	2back/STIM_031.jpg
1688.546	0.515	correct	2back	Block3	2back/STIM_031.jpg
1693.025	0.509	correct	2back	Block3	2back/STIM_032.jpg
1696.755	0.485	correct	2back	Block3	2back/STIM_032.jpg
1699.297	0.874	correct	2back	Block3	2back/STIM_032.jpg
1702.838	0.461	correct	2back	Block3	2back/STIM_033.jpg
1705.631	0.398	correct	2back	Block3	2back/STIM_033.jpg
1708.555	0.776	incorrect	2back	Block3	2back/STIM_033.jpg
1713.323	0.659	correct	2back	Block3	2back/STIM_034.jpg
1717.791	0.459	incorrect	2back	Block3	2back/STIM_034.jpg
1720.881	0.552	correct	2back	Block3	2back/STIM_034.jpg
1724.742	0.826	correct	2back	Block3	2back/STIM_035.jpg
1728.27	0.78	correct	2back	Block3	2back/STIM_035.jpg
1731.397	0.62	incorrect	2back	Block3	2back/STIM_035.jpg
1734.201	0.766	correct	2back	Block3	2back/STIM_036.jpg
1737.02	0.7	correct	2back	Block3	2back/STIM_036.jpg
1741.06	0.439	correct	2back	Block3	2back/STIM_036.jpg
1744.771	0.496	correct	2back	Block3	2back/STIM_037.jpg
1748.045	0.45	correct	2back	Block3	2back/STIM_037.jpg
1751.561	0.388	correct	2back	Block3	2back/STIM_037.jpg
1754.49	0.575	correct	2back	Block3	2back/STIM_038.jpg
1757.699	0.422	correct	2back	Block3	2back/STIM_038.jpg
1760.765	0.451	correct	2back	Block3	2back/STIM_038.jpg
1763.926	0.471	correct	2back	Block3	2back/STIM_039.jpg
1768.104	0.808	correct	2back	Block3	2back/STIM_039.jpg
1771.102	0.673	incorrect	2back	Block3	2back/STIM_039.jpg
1774.717	0.631	correct	0back	Block3	0back/STIM_000.jpg
1778.529	0.458	incorrect	0back	Block3	0back/STIM_000.jpg
1781.078	0.573	correct	0back	Block3	0back/STIM_000.jpg
1784.224	0.363	correct	0back	Block3	0back/STIM_001.jpg
1786.891	0.502	correct	0back	Block3	0back/STIM_001.jpg
1791.251	0.639	correct	0back	Block3	0back/STIM_001.jpg
1794.82	0.39	correct	0back	Block3	0back/STIM_002.jpg
1798.521	0.697	correct	0back	Block3	0back/STIM_002.jpg
1802.417	0.559	correct	0back	Block3	0back/STIM_002.jpg
1805.831	0.695	correct	0back	Block3	0back/STIM_003.jpg
1809.97	0.554	correct	0back	Block3	0back/STIM_003.jpg
1812.569	0.373	correct	0back	Block3	0back/STIM_003.jpg
1815.699	0.455	correct	0back	Block3	0back/STIM_004.jpg
1819.922	0.411	incorrect	0back	Block3	0back/STIM_004.jpg
1823.163	0.462	correct	0back	Block3	0back/STIM_004.jpg
1826.363	0.57	correct	0back	Block3	0back/STIM_005.jpg
1830.06	0.363	correct	0back	Block3	0back/STIM_005.jpg
1833.981	0.671	correct	0back	Block3	0back/STIM_005.jpg
1837.663	0.652	incorrect	0back	Block3	0back/STIM_006.jpg
1841.185	0.702	correct	0back	Block3	0back/STIM_006.jpg
1845.826	0.472	correct	0back	Block3	0back/STIM_006.jpg
1848.539	0.583	incorrect	0back	Block3	0back/STIM_007.jpg
1851.402	0.693	correct	0back	Block3	0back/STIM_007.jpg
1854.274	0.472	correct	0back	Block3	0back/STIM_007.jpg
1857.221	0.565	correct	0back	Block3	0back/STIM_008.jpg
1860.042	0.385	correct	0back	Block3	0back/STIM_008.jpg
1863.57	0.481	correct	0back	Block3	0back/STIM_008.jpg
1867.08	0.625	correct	0back	Block3	0back/STIM_009.jpg
1870.299	0.556	incorrect	0back	Block3	0back/STIM_009.jpg
1874.101	0.416	correct	0back	Block3	0back/STIM_009.jpg
1878.133	0.558	correct	0back	Block3	0back/STIM_010.jpg
1881.613	0.673	correct	0back	Block3	0back/STIM_010.jpg
1886.116	0.385	incorrect	0back	Block3	0back/STIM_010.jpg
1889.285	0.444	correct	0back	Block3	0back/STIM_011.jpg
1892.593	0.547	correct	0back	Block3	0back/STIM_011.jpg
1896.632	0.679	correct	0back	Block3	0back/STIM_011.jpg
1900.809	0.564	correct	0back	Block3	0back/STIM_012.jpg
1904.28	0.711	correct	0back	Block3	0back/STIM_012.jpg
1908.83	0.401	incorrect	0back	Block3	0back/STIM_012.jpg
1911.753	0.548	correct	0back	Block3	0back/STIM_013.jpg
1916.079	0.372	correct	0back	Block3	0back/STIM_013.jpg
1919.569	0.395	correct	0back	Block3	0back/STIM_013.jpg
1922.968	0.499	correct	0back	Block3	0back/STIM_014.jpg
1925.777	0.661	correct	0back	Block3	0back/STIM_014.jpg
1928.536	0.711	incorrect	0back	Block3	0back/STIM_014.jpg
1932.638	0.704	correct	0back	Block3	0back/STIM_015.jpg
1937.313	0.712	correct	0back	Block3	0back/STIM_015.jpg
1940.821	0.454	incorrect	0back	Block3	0back/STIM_015.jpg
1943.872	0.542	correct	0back	Block3	0back/STIM_016.jpg
1946.678	0.465	correct	0back	Block3	0back/STIM_016.jpg
1949.514	0.46	correct	0back	Block3	0back/STIM_016.jpg
1952.555	0.471	correct	0back	Block3	0back/STIM_017.jpg
1955.582	0.678	correct	0back	Block3	0back/STIM_017.jpg
1958.731	0.658	correct	0back	Block3	0back/STIM_017.jpg
1962.634	0.697	correct	0back	Block3	0back/STIM_018.jpg
1967.211	0.666	correct	0back	Block3	0back/STIM_018.jpg
1970.105	0.48	correct	0back	Block3	0back/STIM_018.jpg
1973.872	0.427	correct	0back	Block3	0back/STIM_019.jpg
1977.792	0.707	correct	0back	Block3	0back/STIM_019.jpg
1981.919	0.448	correct	0back	Block3	0back/STIM_019.jpg
1985.093	0.608	correct	2back	Block4	2back/STIM_000.jpg
1988.892	0.635	correct	2back	Block4	2back/STIM_000.jpg
1991.709	0.516	correct	2back	Block4	2back/STIM_000.jpg
1995.595	0.767	correct	2back	Block4	2back/STIM_001.jpg
1999.52	0.53	correct	2back	Block4	2back/STIM_001.jpg
2002.383	0.716	correct	2back	Block4	2back/STIM_001.jpg
2006.103	0.513	correct	2back	Block4	2back/STIM_002.jpg
2009.947	0.568	correct	2back	Block4	2back/STIM_002.jpg
2012.643	0.524	correct	2back	Block4	2back/STIM_002.jpg
2017.108	0.495	correct	2back	Block4	2back/STIM_003.jpg
2021.314	0.611	correct	2back	Block4	2back/STIM_003.jpg
2024.823	0.701	correct	2back	Block4	2back/STIM_003.jpg
2029.009	0.796	correct	2back	Block4	2back/STIM_004.jpg
2033.687	0.502	correct	2back	Block4	2back/STIM_004.jpg
2036.621	0.874	correct	2back	Block4	2back/STIM_004.jpg
2039.816	0.667	incorrect	2back	Block4	2back/STIM_005.jpg
2042.897	0.59	correct	2back	Block4	2back/STIM_005.jpg
2047.432	0.549	correct	2back	Block4	2back/STIM_005.jpg
2050.772	0.499	correct	2back	Block4	2back/STIM_006.jpg
2053.321	0.853	correct	2back	Block4	2back/STIM_006.jpg
2057.468	0.801	correct	2back	Block4	2back/STIM_006.jpg
2060.432	0.685	correct	2back	Block4	2back/STIM_007.jpg
2063.601	0.487	correct	2back	Block4	2back/STIM_007.jpg
2066.251	0.676	incorrect	2back	Block4	2back/STIM_007.jpg
2070.86	0.753	correct	2back	Block4	2back/STIM_008.jpg
2075.326	0.638	correct	2back	Block4	2back/STIM_008.jpg
2078.832	0.487	correct	2back	Block4	2back/STIM_008.jpg
2082.327	0.502	correct	2back	Block4	2back/STIM_009.jpg
2086.409	0.53	correct	2back	Block4	2back/STIM_009.jpg
2090.639	0.83	correct	2back	Block4	2back/STIM_009.jpg
2094.951	0.684	correct	2back	Block4	2back/STIM_010.jpg
2098.243	0.871	correct	2back	Block4	2back/STIM_010.jpg
2101.554	0.468	correct	2back	Block4	2back/STIM_010.jpg
2104.595	0.386	correct	2back	Block4	2back/STIM_011.jpg
2107.98	0.696	incorrect	2back	Block4	2back/STIM_011.jpg
2112.131	0.621	correct	2back	Block4	2back/STIM_011.jpg
2115.042	0.57	correct	2back	Block4	2back/STIM_012.jpg
2118.939	0.833	correct	2back	Block4	2back/STIM_012.jpg
2121.836	0.67	correct	2back	Block4	2back/STIM_012.jpg
2126.124	0.818	incorrect	2back	Block4	2back/STIM_013.jpg
2130.881	0.611	correct	2back	Block4	2back/STIM_013.jpg
2134.794	0.745	correct	2back	Block4	2back/STIM_013.jpg
2138.829	0.649	correct	2back	Block4	2back/STIM_014.jpg
2141.545	0.643	correct	2back	Block4	2back/STIM_014.jpg
2144.962	0.593	correct	2back	Block4	2back/STIM_014.jpg
2147.952	0.859	correct	2back	Block4	2back/STIM_015.jpg
2151.422	0.671	correct	2back	Block4	2back/STIM_015.jpg
2155.149	0.451	correct	2back	Block4	2back/STIM_015.jpg
2158.525	0.745	correct	2back	Block4	2back/STIM_016.jpg
2162.047	0.747	correct	2back	Block4	2back/STIM_016.jpg
2166.209	0.42	incorrect	2back	Block4	2back/STIM_016.jpg
2170.393	0.858	correct	2back	Block4	2back/STIM_017.jpg
2173.48	0.588	correct	2back	Block4	2back/STIM_017.jpg
2177.022	0.679	incorrect	2back	Block4	2back/STIM_017.jpg
2180.568	0.482	correct	2back	Block4	2back/STIM_018.jpg
2183.524	0.741	correct	2back	Block4	2back/STIM_018.jpg
2187.105	0.747	correct	2back	Block4	2back/STIM_018.jpg
2190.098	0.874	incorrect	2back	Block4	2back/STIM_019.jpg
2193.143	0.618	correct	2back	Block4	2back/STIM_019.jpg
2196.41	0.498	correct	2back	Block4	2back/STIM_019.jpg
2199.536	0.515	correct	2back	Block4	2back/STIM_020.jpg
2202.707	0.641	correct	2back	Block4	2back/STIM_020.jpg
2206.45	0.511	correct	2back	Block4	2back/STIM_020.jpg
2209.716	0.521	correct	2back	Block4	2back/STIM_021.jpg
2213.053	0.623	correct	2back	Block4	2back/STIM_021.jpg
2217.394	0.439	correct	2back	Block4	2back/STIM_021.jpg
2221.434	0.55	incorrect	2back	Block4	2back/STIM_022.jpg
2225.877	0.637	correct	2back	Block4	2back/STIM_022.jpg
2229.175	0.553	correct	2back	Block4	2back/STIM_022.jpg
2231.9	0.552	correct	2back	Block4	2back/STIM_023.jpg
2236.37	0.633	correct	2back	Block4	2back/STIM_023.jpg
2239.033	0.629	correct	2back	Block4	2back/STIM_023.jpg
2243.04	0.767	incorrect	2back	Block4	2back/STIM_024.jpg
2246.885	0.752	correct	2back	Block4	2back/STIM_024.jpg
2250.337	0.607	correct	2back	Block4	2back/STIM_024.jpg
2253.839	0.468	correct	2back	Block4	2back/STIM_025.jpg
2257.171	0.548	correct	2back	Block4	2back/STIM_025.jpg
2261.312	0.815	correct	2back	Block4	2back/STIM_025.jpg
2264.213	0.594	correct	2back	Block4	2back/STIM_026.jpg
2267.469	0.592	correct	2back	Block4	2back/STIM_026.jpg
2271.311	0.58	correct	2back	Block4	2back/STIM_026.jpg
2275.531	0.53	correct	2back	Block4	2back/STIM_027.jpg
2279.731	0.528	correct	2back	Block4	2back/STIM_027.jpg
2284.152	0.434	correct	2back	Block4	2back/STIM_027.jpg
2287.794	0.58	correct	2back	Block4	2back/STIM_028.jpg
2290.919	0.597	correct	2back	Block4	2back/STIM_028.jpg
2293.662	0.458	correct	2back	Block4	2back/STIM_028.jpg
2296.728	0.824	correct	2back	Block4	2back/STIM_029.jpg
2301.233	0.409	correct	2back	Block4	2back/STIM_029.jpg
2303.777	0.51	correct	2back	Block4	2back/STIM_029.jpg
2307.22	0.465	correct	2back	Block4	2back/STIM_030.jpg
2310.437	0.603	correct	2back	Block4	2back/STIM_030.jpg
2314.977	0.733	correct	2back	Block4	2back/STIM_030.jpg
2317.884	0.411	correct	2back	Block4	2back/STIM_031.jpg
2320.964	0.639	correct	2back	Block4	2back/STIM_031.jpg
2324.024	0.657	correct	2back	Block4	2back/STIM_031.jpg
2326.978	0.618	correct	2back	Block4	2back/STIM_032.jpg
2330.704	0.522	incorrect	2back	Block4	2back/STIM_032.jpg
2333.808	0.708	correct	2back	Block4	2back/STIM_032.jpg
2337.982	0.625	correct	2back	Block4	2back/STIM_033.jpg
2340.696	0.776	correct	2back	Block4	2back/STIM_033.jpg
2343.976	0.681	correct	2back	Block4	2back/STIM_033.jpg
2347.101	0.619	correct	2back	Block4	2back/STIM_034.jpg
2351.349	0.534	correct	2back	Block4	2back/STIM_034.jpg
2354.879	0.426	correct	2back	Block4	2back/STIM_034.jpg
2357.332	0.754	correct	2back	Block4	2back/STIM_035.jpg
2360.57	0.492	correct	2back	Block4	2back/STIM_035.jpg
2363.229	0.393	correct	2back	Block4	2back/STIM_035.jpg
2366.747	0.866	correct	2back	Block4	2back/STIM_036.jpg
2371.334	0.544	incorrect	2back	Block4	2back/STIM_036.jpg
2374.666	0.777	correct	2back	Block4	2back/STIM_036.jpg
2378.866	0.75	correct	2back	Block4	2back/STIM_037.jpg
2381.836	0.772	correct	2back	Block4	2back/STIM_037.jpg
2385.935	0.804	correct	2back	Block4	2back/STIM_037.jpg
2390.345	0.673	correct	2back	Block4	2back/STIM_038.jpg
2393.964	0.478	correct	2back	Block4	2back/STIM_038.jpg
2398.085	0.433	correct	2back	Block4	2back/STIM_038.jpg
2400.743	0.866	correct	2back	Block4	2back/STIM_039.jpg
2403.877	0.842	correct	2back	Block4	2back/STIM_039.jpg
2407.353	0.538	correct	2back	Block4	2back/STIM_039.jpg
2411.744	0.658	correct	0back	Block4	0back/STIM_000.jpg
2416.388	0.629	correct	0back	Block4	0back/STIM_000.jpg
2419.503	0.59	correct	0back	Block4	0back/STIM_000.jpg
2423.105	0.623	correct	0back	Block4	0back/STIM_001.jpg
2427.506	0.603	correct	0back	Block4	0back/STIM_001.jpg
2431.734	0.522	correct	0back	Block4	0back/STIM_001.jpg
2435.535	0.709	incorrect	0back	Block4	0back/STIM_002.jpg
2439.819	0.631	incorrect	0back	Block4	0back/STIM_002.jpg
2442.766	0.701	correct	0back	Block4	0back/STIM_002.jpg
2447.281	0.601	incorrect	0back	Block4	0back/STIM_003.jpg
2451.449	0.519	correct	0back	Block4	0back/STIM_003.jpg
2455.015	0.4	correct	0back	Block4	0back/STIM_003.jpg
2458.972	0.56	correct	0back	Block4	0back/STIM_004.jpg
2463.393	0.396	correct	0back	Block4	0back/STIM_004.jpg
2467.402	0.699	correct	0back	Block4	0back/STIM_004.jpg
2471.886	0.653	incorrect	0back	Block4	0back/STIM_005.jpg
2476.161	0.537	correct	0back	Block4	0back/STIM_005.jpg
2479.244	0.533	correct	0back	Block4	0back/STIM_005.jpg
2482.914	0.687	correct	0back	Block4	0back/STIM_006.jpg
2487.138	0.405	correct	0back	Block4	0back/STIM_006.jpg
2490.685	0.543	correct	0back	Block4	0back/STIM_006.jpg
2494.611	0.551	correct	0back	Block4	0back/STIM_007.jpg
2497.303	0.611	correct	0back	Block4	0back/STIM_007.jpg
2500.309	0.47	correct	0back	Block4	0back/STIM_007.jpg
2504.182	0.504	correct	0back	Block4	0back/STIM_008.jpg
2507.639	0.53	correct	0back	Block4	0back/STIM_008.jpg
2510.288	0.577	correct	0back	Block4	0back/STIM_008.jpg
2513.961	0.692	correct	0back	Block4	0back/STIM_009.jpg
2518.52	0.712	correct	0back	Block4	0back/STIM_009.jpg
2523.186	0.426	correct	0back	Block4	0back/STIM_009.jpg
2525.955	0.44	correct	0back	Block4	0back/STIM_010.jpg
2529.495	0.586	incorrect	0back	Block4	0back/STIM_010.jpg
2532.487	0.632	correct	0back	Block4	0back/STIM_010.jpg
2536.449	0.645	correct	0back	Block4	0back/STIM_011.jpg
2539.811	0.631	correct	0back	Block4	0back/STIM_011.jpg
2544.253	0.532	incorrect	0back	Block4	0back/STIM_011.jpg
2547.624	0.55	correct	0back	Block4	0back/STIM_012.jpg
2550.725	0.665	correct	0back	Block4	0back/STIM_012.jpg
2555.287	0.672	incorrect	0back	Block4	0back/STIM_012.jpg
2559.186	0.515	correct	0back	Block4	0back/STIM_013.jpg
2562.066	0.425	correct	0back	Block4	0back/STIM_013.jpg
2564.724	0.416	correct	0back	Block4	0back/STIM_013.jpg
2568.733	0.656	correct	0back	Block4	0back/STIM_014.jpg
2571.602	0.619	correct	0back	Block4	0back/STIM_014.jpg
2574.742	0.541	correct	0back	Block4	0back/STIM_014.jpg
2578.483	0.415	correct	0back	Block4	0back/STIM_015.jpg
2582.269	0.512	correct	0back	Block4	0back/STIM_015.jpg
2586.283	0.409	correct	0back	Block4	0back/STIM_015.jpg
2589.435	0.658	correct	0back	Block4	0back/STIM_016.jpg
2592.656	0.616	correct	0back	Block4	0back/STIM_016.jpg
2595.907	0.445	incorrect	0back	Block4	0back/STIM_016.jpg
2599.028	0.648	correct	0back	Block4	0back/STIM_017.jpg
2603.323	0.457	correct	0back	Block4	0back/STIM_017.jpg
2607.451	0.49	correct	0back	Block4	0back/STIM_017.jpg
2611.941	0.402	correct	0back	Block4	0back/STIM_018.jpg
2615.582	0.442	correct	0back	Block4	0back/STIM_018.jpg
2619.968	0.701	correct	0back	Block4	0back/STIM_018.jpg
2624.405	0.577	correct	0back	Block4	0back/STIM_019.jpg
2628.716	0.597	correct	0back	Block4	0back/STIM_019.jpg
2633.285	0.577	correct	0back	Block4	0back/STIM_019.jpg
