onset	duration	accuracy	trial_type	learning_stage	stimulus
0.0	1.608	correct	2back	Block1	2back/STIM_000.jpg
5.439	1.474	correct	2back	Block1	2back/STIM_000.jpg
10.801	1.376	correct	2back	Block1	2back/STIM_000.jpg
14.353	1.725	correct	2back	Block1	2back/STIM_001.jpg
19.558	1.634	correct	2back	Block1	2back/STIM_001.jpg
25.036	1.143	correct	2back	Block1	2back/STIM_001.jpg
28.235	1.076	incorrect	2back	Block1	2back/STIM_002.jpg
32.018	1.348	correct	2back	Block1	2back/STIM_002.jpg
37.113	1.306	correct	2back	Block1	2back/STIM_002.jpg
41.662	1.657	correct	2back	Block1	2back/STIM_003.jpg
46.06	1.062	correct	2back	Block1	2back/STIM_003.jpg
50.8	1.352	correct	2back	Block1	2back/STIM_003.jpg
55.471	1.419	correct	2back	Block1	2back/STIM_004.jpg
60.033	1.166	correct	2back	Block1	2back/STIM_004.jpg
63.902	1.189	correct	2back	Block1	2back/STIM_004.jpg
68.972	0.761	correct	2back	Block1	2back/STIM_005.jpg
73.146	0.898	correct	2back	Block1	2back/STIM_005.jpg
76.577	1.366	correct	2back	Block1	2back/STIM_005.jpg
81.352	1.301	correct	2back	Block1	2back/STIM_006.jpg
86.429	1.353	correct	2back	Block1	2back/STIM_006.jpg
91.731	1.176	correct	2back	Block1	2back/STIM_006.jpg
95.195	1.702	correct	2back	Block1	2back/STIM_007.jpg
100.046	1.04	correct	2back	Block1	2back/STIM_007.jpg
103.188	1.216	correct	2back	Block1	2back/STIM_007.jpg
106.891	1.01	correct	2back	Block1	2back/STIM_008.jpg
110.409	1.057	correct	2back	Block1	2back/STIM_008.jpg
114.053	1.498	incorrect	2back	Block1	2back/STIM_008.jpg
118.655	1.333	correct	2back	Block1	2back/STIM_009.jpg
123.747	1.528	correct	2back	Block1	2back/STIM_009.jpg
127.531	1.1	correct	2back	Block1	2back/STIM_009.jpg
132.521	0.931	correct	2back	Block1	2back/STIM_010.jpg
136.595	1.046	correct	2back	Block1	2back/STIM_010.jpg
140.339	1.484	correct	2back	Block1	2back/STIM_010.jpg
145.319	0.921	correct	2back	Block1	2back/STIM_011.jpg
148.776	0.848	correct	2back	Block1	2back/STIM_011.jpg
153.313	0.827	incorrect	2back	Block1	2back/STIM_011.jpg
157.118	1.386	correct	2back	Block1	2back/STIM_012.jpg
161.218	0.933	correct	2back	Block1	2back/STIM_012.jpg
165.209	0.865	correct	2back	Block1	2back/STIM_012.jpg
168.307	1.626	correct	2back	Block1	2back/STIM_013.jpg
173.28	1.449	incorrect	2back	Block1	2back/STIM_013.jpg
177.601	1.065	correct	2back	Block1	2back/STIM_013.jpg
181.151	1.084	correct	2back	Block1	2back/STIM_014.jpg
184.287	1.394	correct	2back	Block1	2back/STIM_014.jpg
189.171	1.453	correct	2back	Block1	2back/STIM_014.jpg
192.897	1.405	correct	2back	Block1	2back/STIM_015.jpg
196.71	1.436	incorrect	2back	Block1	2back/STIM_015.jpg
201.835	1.279	correct	2back	Block1	2back/STIM_015.jpg
205.642	1.648	correct	2back	Block1	2back/STIM_016.jpg
209.296	0.794	correct	2back	Block1	2back/STIM_016.jpg
212.209	0.938	correct	2back	Block1	2back/STIM_016.jpg
215.196	1.368	correct	2back	Block1	2back/STIM_017.jpg
219.086	1.136	correct	2back	Block1	2back/STIM_017.jpg
223.276	1.369	correct	2back	Block1	2back/STIM_017.jpg
226.9	1.102	correct	2back	Block1	2back/STIM_018.jpg
231.272	1.435	incorrect	2back	Block1	2back/STIM_018.jpg
235.777	1.314	incorrect	2back	Block1	2back/STIM_018.jpg
241.045	1.489	correct	2back	Block1	2back/STIM_019.jpg
246.197	1.215	correct	2back	Block1	2back/STIM_019.jpg
250.32	0.699	correct	2back	Block1	2back/STIM_019.jpg
253.586	1.553	correct	2back	Block1	2back/STIM_020.jpg
257.531	1.046	correct	2back	Block1	2back/STIM_020.jpg
262.234	0.967	incorrect	2back	Block1	2back/STIM_020.jpg
266.507	0.997	correct	2back	Block1	2back/STIM_021.jpg
270.753	1.531	incorrect	2back	Block1	2back/STIM_021.jpg
275.57	1.362	correct	2back	Block1	2back/STIM_021.jpg
280.294	1.643	correct	2back	Block1	2back/STIM_022.jpg
284.888	1.554	correct	2back	Block1	2back/STIM_022.jpg
289.265	1.195	correct	2back	Block1	2back/STIM_022.jpg
292.697	1.081	correct	2back	Block1	2back/STIM_023.jpg
297.24	1.064	incorrect	2back	Block1	2back/STIM_023.jpg
302.032	1.128	correct	2back	Block1	2back/STIM_023.jpg
306.881	1.66	incorrect	2back	Block1	2back/STIM_024.jpg
311.812	1.583	correct	2back	Block1	2back/STIM_024.jpg
315.599	0.667	incorrect	2back	Block1	2back/STIM_024.jpg
318.452	1.152	incorrect	2back	Block1	2back/STIM_025.jpg
322.369	1.501	correct	2back	Block1	2back/STIM_025.jpg
327.648	1.468	correct	2back	Block1	2back/STIM_025.jpg
331.234	1.347	correct	2back	Block1	2back/STIM_026.jpg
334.99	1.309	correct	2back	Block1	2back/STIM_026.jpg
339.554	1.012	correct	2back	Block1	2back/STIM_026.jpg
343.946	1.094	correct	2back	Block1	2back/STIM_027.jpg
347.657	0.826	correct	2back	Block1	2back/STIM_027.jpg
351.307	0.923	correct	2back	Block1	2back/STIM_027.jpg
354.456	0.833	correct	2back	Block1	2back/STIM_028.jpg
358.827	1.132	correct	2back	Block1	2back/STIM_028.jpg
363.129	1.302	correct	2back	Block1	2back/STIM_028.jpg
366.692	0.942	incorrect	2back	Block1	2back/STIM_029.jpg
370.253	1.061	correct	2back	Block1	2back/STIM_029.jpg
374.858	0.703	incorrect	2back	Block1	2back/STIM_029.jpg
378.158	1.612	correct	2back	Block1	2back/STIM_030.jpg
382.238	1.214	incorrect	2back	Block1	2back/STIM_030.jpg
385.972	1.064	incorrect	2back	Block1	2back/STIM_030.jpg
389.915	1.25	correct	2back	Block1	2back/STIM_031.jpg
393.3	1.224	correct	2back	Block1	2back/STIM_031.jpg
398.088	0.912	correct	2back	Block1	2back/STIM_031.jpg
401.956	1.46	correct	2back	Block1	2back/STIM_032.jpg
406.863	1.059	correct	2back	Block1	2back/STIM_032.jpg
411.518	1.51	correct	2back	Block1	2back/STIM_032.jpg
415.089	1.634	correct	2back	Block1	2back/STIM_033.jpg
419.717	1.279	correct	2back	Block1	2back/STIM_033.jpg
423.841	0.947	correct	2back	Block1	2back/STIM_033.jpg
427.312	1.304	correct	2back	Block1	2back/STIM_034.jpg
432.135	0.967	incorrect	2back	Block1	2back/STIM_034.jpg
435.522	1.438	correct	2back	Block1	2back/STIM_034.jpg
440.691	1.382	correct	2back	Block1	2back/STIM_035.jpg
445.638	0.733	correct	2back	Block1	2back/STIM_035.jpg
448.85	0.954	correct	2back	Block1	2back/STIM_035.jpg
453.175	1.724	correct	2back	Block1	2back/STIM_036.jpg
457.676	1.574	correct	2back	Block1	2back/STIM_036.jpg
462.032	1.523	correct	2back	Block1	2back/STIM_036.jpg
466.622	1.398	correct	2back	Block1	2back/STIM_037.jpg
470.959	1.396	correct	2back	Block1	2back/STIM_037.jpg
474.621	1.294	correct	2back	Block1	2back/STIM_037.jpg
478.018	0.918	correct	2back	Block1	2back/STIM_038.jpg
482.729	1.012	incorrect	2back	Block1	2back/STIM_038.jpg
486.884	1.542	incorrect	2back	Block1	2back/STIM_038.jpg
491.405	1.691	correct	2back	Block1	2back/STIM_039.jpg
496.668	1.235	correct	2back	Block1	2back/STIM_039.jpg
500.886	0.994	incorrect	2back	Block1	2back/STIM_039.jpg
505.319	0.72	correct	0back	Block1	0back/STIM_000.jpg
508.351	0.551	correct	0back	Block1	0back/STIM_000.jpg
511.587	0.862	correct	0back	Block1	0back/STIM_000.jpg
515.59	0.826	correct	0back	Block1	0back/STIM_001.jpg
518.716	0.515	correct	0back	Block1	0back/STIM_001.jpg
522.555	0.504	incorrect	0back	Block1	0back/STIM_001.jpg
526.253	0.957	correct	0back	Block1	0back/STIM_002.jpg
529.814	0.81	correct	0back	Block1	0back/STIM_002.jpg
533.0	0.796	correct	0back	Block1	0back/STIM_002.jpg
537.631	0.529	correct	0back	Block1	0back/STIM_003.jpg
541.275	0.587	incorrect	0back	Block1	0back/STIM_003.jpg
545.623	0.867	correct	0back	Block1	0back/STIM_003.jpg
549.29	0.986	correct	0back	Block1	0back/STIM_004.jpg
553.538	0.532	correct	0back	Block1	0back/STIM_004.jpg
557.768	0.645	correct	0back	Block1	0back/STIM_004.jpg
561.435	0.531	correct	0back	Block1	0back/STIM_005.jpg
565.539	0.945	correct	0back	Block1	0back/STIM_005.jpg
568.813	0.972	correct	0back	Block1	0back/STIM_005.jpg
572.541	0.655	correct	0back	Block1	0back/STIM_006.jpg
576.351	0.558	correct	0back	Block1	0back/STIM_006.jpg
579.711	0.893	correct	0back	Block1	0back/STIM_006.jpg
584.381	0.662	incorrect	0back	Block1	0back/STIM_007.jpg
587.268	0.845	correct	0back	Block1	0back/STIM_007.jpg
590.379	0.686	correct	0back	Block1	0back/STIM_007.jpg
594.067	0.892	correct	0back	Block1	0back/STIM_008.jpg
598.48	0.704	correct	0back	Block1	0back/STIM_008.jpg
602.425	0.874	correct	0back	Block1	0back/STIM_008.jpg
606.247	0.605	correct	0back	Block1	0back/STIM_009.jpg
609.327	0.561	correct	0back	Block1	0back/STIM_009.jpg
612.564	0.878	correct	0back	Block1	0back/STIM_009.jpg
617.339	0.753	correct	0back	Block1	0back/STIM_010.jpg
621.379	0.627	correct	0back	Block1	0back/STIM_010.jpg
625.023	0.637	correct	0back	Block1	0back/STIM_010.jpg
629.103	0.915	correct	0back	Block1	0back/STIM_011.jpg
632.269	0.621	correct	0back	Block1	0back/STIM_011.jpg
635.305	0.73	correct	0back	Block1	0back/STIM_011.jpg
639.423	0.723	correct	0back	Block1	0back/STIM_012.jpg
643.486	0.521	correct	0back	Block1	0back/STIM_012.jpg
647.475	0.662	correct	0back	Block1	0back/STIM_012.jpg
650.392	0.829	correct	0back	Block1	0back/STIM_013.jpg
654.825	0.939	correct	0back	Block1	0back/STIM_013.jpg
659.571	0.686	correct	0back	Block1	0back/STIM_013.jpg
662.674	0.572	correct	0back	Block1	0back/STIM_014.jpg
666.643	0.691	correct	0back	Block1	0back/STIM_014.jpg
670.678	0.524	correct	0back	Block1	0back/STIM_014.jpg
673.636	0.821	correct	0back	Block1	0back/STIM_015.jpg
676.537	0.757	correct	0back	Block1	0back/STIM_015.jpg
679.452	0.928	correct	0back	Block1	0back/STIM_015.jpg
682.609	0.83	correct	0back	Block1	0back/STIM_016.jpg
686.334	0.573	correct	0back	Block1	0back/STIM_016.jpg
689.11	0.571	correct	0back	Block1	0back/STIM_016.jpg
692.089	0.56	correct	0back	Block1	0back/STIM_017.jpg
696.323	0.879	correct	0back	Block1	0back/STIM_017.jpg
700.108	0.567	correct	0back	Block1	0back/STIM_017.jpg
703.061	0.89	correct	0back	Block1	0back/STIM_018.jpg
706.138	0.752	correct	0back	Block1	0back/STIM_018.jpg
709.617	0.518	correct	0back	Block1	0back/STIM_018.jpg
712.332	0.505	correct	0back	Block1	0back/STIM_019.jpg
714.913	0.931	correct	0back	Block1	0back/STIM_019.jpg
718.528	0.7	correct	0back	Block1	0back/STIM_019.jpg
722.669	1.291	correct	2back	Block2	2back/STIM_000.jpg
727.369	0.858	correct	2back	Block2	2back/STIM_000.jpg
731.941	0.989	correct	2back	Block2	2back/STIM_000.jpg
735.462	1.4	correct	2back	Block2	2back/STIM_001.jpg
739.769	1.347	correct	2back	Block2	2back/STIM_001.jpg
743.933	0.994	correct	2back	Block2	2back/STIM_001.jpg
748.9	0.908	correct	2back	Block2	2back/STIM_002.jpg
753.745	1.294	correct	2back	Block2	2back/STIM_002.jpg
757.434	1.171	correct	2back	Block2	2back/STIM_002.jpg
762.053	1.076	incorrect	2back	Block2	2back/STIM_003.jpg
766.79	0.803	correct	2back	Block2	2back/STIM_003.jpg
771.094	0.806	correct	2back	Block2	2back/STIM_003.jpg
774.722	1.237	correct	2back	Block2	2back/STIM_004.jpg
779.801	1.015	correct	2back	Block2	2back/STIM_004.jpg
784.062	1.086	correct	2back	Block2	2back/STIM_004.jpg
789.082	1.388	correct	2back	Block2	2back/STIM_005.jpg
793.224	1.005	correct	2back	Block2	2back/STIM_005.jpg
796.279	0.771	correct	2back	Block2	2back/STIM_005.jpg
800.105	0.796	correct	2back	Block2	2back/STIM_006.jpg
803.846	0.945	correct	2back	Block2	2back/STIM_006.jpg
807.843	1.221	correct	2back	Block2	2back/STIM_006.jpg
812.19	1.027	correct	2back	Block2	2back/STIM_007.jpg
815.732	0.887	correct	2back	Block2	2back/STIM_007.jpg
819.641	1.032	correct	2back	Block2	2back/STIM_007.jpg
824.552	0.825	correct	2back	Block2	2back/STIM_008.jpg
827.773	1.216	correct	2back	Block2	2back/STIM_008.jpg
831.583	1.017	correct	2back	Block2	2back/STIM_008.jpg
835.471	0.795	correct	2back	Block2	2back/STIM_009.jpg
838.526	0.73	correct	2back	Block2	2back/STIM_009.jpg
842.702	0.825	correct	2back	Block2	2back/STIM_009.jpg
845.607	0.954	incorrect	2back	Block2	2back/STIM_010.jpg
849.207	0.937	correct	2back	Block2	2back/STIM_010.jpg
854.049	1.237	correct	2back	Block2	2back/STIM_010.jpg
858.259	1.226	correct	2back	Block2	2back/STIM_011.jpg
863.007	0.945	correct	2back	Block2	2back/STIM_011.jpg
867.348	0.781	correct	2back	Block2	2back/STIM_011.jpg
870.464	0.926	correct	2back	Block2	2back/STIM_012.jpg
874.723	0.72	correct	2back	Block2	2back/STIM_012.jpg
877.709	0.713	correct	2back	Block2	2back/STIM_012.jpg
882.076	0.975	correct	2back	Block2	2back/STIM_013.jpg
886.595	0.65	correct	2back	Block2	2back/STIM_013.jpg
890.253	1.247	incorrect	2back	Block2	2back/STIM_013.jpg
894.586	0.916	correct	2back	Block2	2back/STIM_014.jpg
897.737	1.28	correct	2back	Block2	2back/STIM_014.jpg
902.288	0.759	correct	2back	Block2	2back/STIM_014.jpg
905.561	1.261	correct	2back	Block2	2back/STIM_015.jpg
909.968	1.302	correct	2back	Block2	2back/STIM_015.jpg
913.857	0.636	correct	2back	Block2	2back/STIM_015.jpg
918.391	1.339	correct	2back	Block2	2back/STIM_016.jpg
922.906	0.664	correct	2back	Block2	2back/STIM_016.jpg
927.507	0.851	correct	2back	Block2	2back/STIM_016.jpg
930.741	1.334	correct	2back	Block2	2back/STIM_017.jpg
934.116	1.283	correct	2back	Block2	2back/STIM_017.jpg
938.738	0.817	correct	2back	Block2	2back/STIM_017.jpg
941.967	1.044	correct	2back	Block2	2back/STIM_018.jpg
945.418	0.923	correct	2back	Block2	2back/STIM_018.jpg
949.499	0.821	correct	2back	Block2	2back/STIM_018.jpg
954.085	0.939	correct	2back	Block2	2back/STIM_019.jpg
957.334	1.189	correct	2back	Block2	2back/STIM_019.jpg
960.982	0.769	correct	2back	Block2	2back/STIM_019.jpg
963.826	0.945	correct	2back	Block2	2back/STIM_020.jpg
968.376	0.746	correct	2back	Block2	2back/STIM_020.jpg
972.4	1.26	correct	2back	Block2	2back/STIM_020.jpg
977.088	0.882	correct	2back	Block2	2back/STIM_021.jpg
981.957	0.679	correct	2back	Block2	2back/STIM_021.jpg
984.807	0.798	correct	2back	Block2	2back/STIM_021.jpg
988.881	0.868	correct	2back	Block2	2back/STIM_022.jpg
993.266	0.774	correct	2back	Block2	2back/STIM_022.jpg
996.478	1.216	correct	2back	Block2	2back/STIM_022.jpg
1000.376	0.663	correct	2back	Block2	2back/STIM_023.jpg
1004.803	0.615	correct	2back	Block2	2back/STIM_023.jpg
1008.843	0.641	correct	2back	Block2	2back/STIM_023.jpg
1013.092	0.879	correct	2back	Block2	2back/STIM_024.jpg
1017.346	1.022	correct	2back	Block2	2back/STIM_024.jpg
1020.783	1.026	correct	2back	Block2	2back/STIM_024.jpg
1024.572	1.109	incorrect	2back	Block2	2back/STIM_025.jpg
1029.654	1.146	correct	2back	Block2	2back/STIM_025.jpg
1033.847	0.869	correct	2back	Block2	2back/STIM_025.jpg
1038.381	0.708	correct	2back	Block2	2back/STIM_026.jpg
1042.066	0.826	correct	2back	Block2	2back/STIM_026.jpg
1045.869	1.116	correct	2back	Block2	2back/STIM_026.jpg
1050.064	0.921	correct	2back	Block2	2back/STIM_027.jpg
1054.441	1.14	correct	2back	Block2	2back/STIM_027.jpg
1059.547	0.729	correct	2back	Block2	2back/STIM_027.jpg
1063.695	1.369	correct	2back	Block2	2back/STIM_028.jpg
1068.179	0.629	correct	2back	Block2	2back/STIM_028.jpg
1071.044	1.15	correct	2back	Block2	2back/STIM_028.jpg
1075.45	1.271	correct	2back	Block2	2back/STIM_029.jpg
1079.33	1.086	correct	2back	Block2	2back/STIM_029.jpg
1082.822	0.81	correct	2back	Block2	2back/STIM_029.jpg
1086.985	0.775	correct	2back	Block2	2back/STIM_030.jpg
1090.186	0.677	correct	2back	Block2	2back/STIM_030.jpg
1094.2	1.246	correct	2back	Block2	2back/STIM_030.jpg
1098.678	0.698	correct	2back	Block2	2back/STIM_031.jpg
1102.077	1.054	correct	2back	Block2	2back/STIM_031.jpg
1105.434	1.114	correct	2back	Block2	2back/STIM_031.jpg
1108.759	0.695	correct	2back	Block2	2back/STIM_032.jpg
1113.113	1.269	correct	2back	Block2	2back/STIM_032.jpg
1117.465	1.165	correct	2back	Block2	2back/STIM_032.jpg
1120.641	1.404	correct	2back	Block2	2back/STIM_033.jpg
1125.874	0.774	correct	2back	Block2	2back/STIM_033.jpg
1129.617	1.036	correct	2back	Block2	2back/STIM_033.jpg
1133.741	1.369	correct	2back	Block2	2back/STIM_034.jpg
1138.996	0.896	correct	2back	Block2	2back/STIM_034.jpg
1142.207	1.14	incorrect	2back	Block2	2back/STIM_034.jpg
1145.639	0.771	correct	2back	Block2	2back/STIM_035.jpg
1149.822	1.296	correct	2back	Block2	2back/STIM_035.jpg
1154.324	1.102	correct	2back	Block2	2back/STIM_035.jpg
1159.112	0.704	correct	2back	Block2	2back/STIM_036.jpg
1162.815	0.626	incorrect	2back	Block2	2back/STIM_036.jpg
1165.512	0.98	correct	2back	Block2	2back/STIM_036.jpg
1169.339	0.896	correct	2back	Block2	2back/STIM_037.jpg
1172.271	0.972	correct	2back	Block2	2back/STIM_037.jpg
1176.812	1.237	correct	2back	Block2	2back/STIM_037.jpg
1182.036	1.391	correct	2back	Block2	2back/STIM_038.jpg
1185.762	1.219	correct	2back	Block2	2back/STIM_038.jpg
1189.056	0.789	correct	2back	Block2	2back/STIM_038.jpg
1192.119	1.384	correct	2back	Block2	2back/STIM_039.jpg
1195.769	1.281	correct	2back	Block2	2back/STIM_039.jpg
1200.852	0.634	correct	2back	Block2	2back/STIM_039.jpg
1204.125	0.678	correct	0back	Block2	0back/STIM_000.jpg
1206.96	0.615	correct	0back	Block2	0back/STIM_000.jpg
1210.49	0.702	correct	0back	Block2	0back/STIM_000.jpg
1214.69	0.659	correct	0back	Block2	0back/STIM_001.jpg
1217.876	0.629	correct	0back	Block2	0back/STIM_001.jpg
1222.488	0.672	correct	0back	Block2	0back/STIM_001.jpg
1225.342	0.743	correct	0back	Block2	0back/STIM_002.jpg
1228.375	0.82	correct	0back	Block2	0back/STIM_002.jpg
1232.257	0.864	correct	0back	Block2	0back/STIM_002.jpg
1236.157	0.821	correct	0back	Block2	0back/STIM_003.jpg
1240.531	0.517	correct	0back	Block2	0back/STIM_003.jpg
1244.704	0.689	correct	0back	Block2	0back/STIM_003.jpg
1248.297	0.511	correct	0back	Block2	0back/STIM_004.jpg
1251.461	0.53	correct	0back	Block2	0back/STIM_004.jpg
1254.899	0.88	correct	0back	Block2	0back/STIM_004.jpg
1257.948	0.687	correct	0back	Block2	0back/STIM_005.jpg
1261.967	0.796	correct	0back	Block2	0back/STIM_005.jpg
1266.761	0.725	correct	0back	Block2	0back/STIM_005.jpg
1270.04	0.964	correct	0back	Block2	0back/STIM_006.jpg
1273.12	0.506	correct	0back	Block2	0back/STIM_006.jpg
1277.376	0.796	correct	0back	Block2	0back/STIM_006.jpg
1282.17	0.572	correct	0back	Block2	0back/STIM_007.jpg
1285.184	0.564	correct	0back	Block2	0back/STIM_007.jpg
1288.463	0.6	correct	0back	Block2	0back/STIM_007.jpg
1291.822	0.79	correct	0back	Block2	0back/STIM_008.jpg
1295.989	0.55	correct	0back	Block2	0back/STIM_008.jpg
1299.659	0.554	correct	0back	Block2	0back/STIM_008.jpg
1303.693	0.721	correct	0back	Block2	0back/STIM_009.jpg
1307.406	0.733	correct	0back	Block2	0back/STIM_009.jpg
1311.834	0.657	correct	0back	Block2	0back/STIM_009.jpg
1315.137	0.815	correct	0back	Block2	0back/STIM_010.jpg
1318.482	0.887	correct	0back	Block2	0back/STIM_010.jpg
1322.821	0.798	correct	0back	Block2	0back/STIM_010.jpg
1326.662	0.607	correct	0back	Block2	0back/STIM_011.jpg
1329.643	0.782	correct	0back	Block2	0back/STIM_011.jpg
1333.868	0.676	correct	0back	Block2	0back/STIM_011.jpg
1338.531	0.768	correct	0back	Block2	0back/STIM_012.jpg
1341.463	0.874	correct	0back	Block2	0back/STIM_012.jpg
1344.42	0.519	correct	0back	Block2	0back/STIM_012.jpg
1347.55	0.823	correct	0back	Block2	0back/STIM_013.jpg
1351.684	0.75	correct	0back	Block2	0back/STIM_013.jpg
1354.58	0.778	correct	0back	Block2	0back/STIM_013.jpg
1357.397	0.683	correct	0back	Block2	0back/STIM_014.jpg
1360.831	0.568	correct	0back	Block2	0back/STIM_014.jpg
1365.127	0.638	correct	0back	Block2	0back/STIM_014.jpg
1368.497	0.635	correct	0back	Block2	0back/STIM_015.jpg
1372.628	0.637	correct	0back	Block2	0back/STIM_015.jpg
1377.12	0.768	correct	0back	Block2	0back/STIM_015.jpg
1381.373	0.831	correct	0back	Block2	0back/STIM_016.jpg
1385.981	0.705	correct	0back	Block2	0back/STIM_016.jpg
1390.418	0.508	correct	0back	Block2	0back/STIM_016.jpg
1393.015	0.606	correct	0back	Block2	0back/STIM_017.jpg
1397.31	0.669	correct	0back	Block2	0back/STIM_017.jpg
1400.06	0.975	correct	0back	Block2	0back/STIM_017.jpg
1404.475	0.76	correct	0back	Block2	0back/STIM_018.jpg
1408.197	0.935	correct	0back	Block2	0back/STIM_018.jpg
1412.117	0.689	incorrect	0back	Block2	0back/STIM_018.jpg
1414.842	0.77	correct	0back	Block2	0back/STIM_019.jpg
1418.908	0.777	correct	0back	Block2	0back/STIM_019.jpg
1423.337	0.701	correct	0back	Block2	0back/STIM_019.jpg
1426.879	1.002	correct	2back	Block3	2back/STIM_000.jpg
1430.667	1.161	correct	2back	Block3	2back/STIM_000.jpg
1434.062	0.957	correct	2back	Block3	2back/STIM_000.jpg
1438.632	1.008	correct	2back	Block3	2back/STIM_001.jpg
1443.121	0.683	correct	2back	Block3	2back/STIM_001.jpg
1446.953	0.704	correct	2back	Block3	2back/STIM_001.jpg
1449.666	0.908	correct	2back	Block3	2back/STIM_002.jpg
1453.138	0.671	correct	2back	Block3	2back/STIM_002.jpg
1456.876	0.795	correct	2back	Block3	2back/STIM_002.jpg
1460.724	0.711	correct	2back	Block3	2back/STIM_003.jpg
1463.587	1.178	correct	2back	Block3	2back/STIM_003.jpg
1467.806	1.09	correct	2back	Block3	2back/STIM_003.jpg
1471.715	0.736	correct	2back	Block3	2back/STIM_004.jpg
1475.927	1.101	correct	2back	Block3	2back/STIM_004.jpg
1480.067	0.656	correct	2back	Block3	2back/STIM_004.jpg
1484.192	0.931	correct	2back	Block3	2back/STIM_005.jpg
1488.108	1.039	correct	2back	Block3	2back/STIM_005.jpg
1492.629	0.943	correct	2back	Block3	2back/STIM_005.jpg
1497.453	0.825	correct	2back	Block3	2back/STIM_006.jpg
1501.304	1.058	correct	2back	Block3	2back/STIM_006.jpg
1506.163	0.953	correct	2back	Block3	2back/STIM_006.jpg
1509.229	0.635	incorrect	2back	Block3	2back/STIM_007.jpg
1513.517	0.965	correct	2back	Block3	2back/STIM_007.jpg
1516.869	0.905	correct	2back	Block3	2back/STIM_007.jpg
1520.65	0.951	correct	2back	Block3	2back/STIM_008.jpg
1525.26	0.871	correct	2back	Block3	2back/STIM_008.jpg
1529.91	1.13	correct	2back	Block3	2back/STIM_008.jpg
1534.187	0.535	correct	2back	Block3	2back/STIM_009.jpg
1537.22	0.811	correct	2back	Block3	2back/STIM_009.jpg
1541.831	1.089	correct	2back	Block3	2back/STIM_009.jpg
1546.847	0.582	incorrect	2back	Block3	2back/STIM_010.jpg
1550.457	0.841	correct	2back	Block3	2back/STIM_010.jpg
1554.074	1.006	correct	2back	Block3	2back/STIM_010.jpg
1558.265	0.733	correct	2back	Block3	2back/STIM_011.jpg
1562.321	0.927	correct	2back	Block3	2back/STIM_011.jpg
1566.224	0.711	correct	2back	Block3	2back/STIM_011.jpg
1569.025	1.125	correct	2back	Block3	2back/STIM_012.jpg
1573.583	1.198	correct	2back	Block3	2back/STIM_012.jpg
1577.526	0.986	correct	2back	Block3	2back/STIM_012.jpg
1582.238	1.129	correct	2back	Block3	2back/STIM_013.jpg
1587.043	0.951	correct	2back	Block3	2back/STIM_013.jpg
1591.498	1.206	correct	2back	Block3	2back/STIM_013.jpg
1595.961	0.63	incorrect	2back	Block3	2back/STIM_014.jpg
1599.656	0.873	correct	2back	Block3	2back/STIM_014.jpg
1604.112	0.599	correct	2back	Block3	2back/STIM_014.jpg
1608.581	0.982	correct	2back	Block3	2back/STIM_015.jpg
1612.575	1.191	correct	2back	Block3	2back/STIM_015.jpg
1615.982	0.799	correct	2back	Block3	2back/STIM_015.jpg
1620.735	0.937	incorrect	2back	Block3	2back/STIM_016.jpg
1624.679	0.973	correct	2back	Block3	2back/STIM_016.jpg
1628.64	0.735	correct	2back	Block3	2back/STIM_016.jpg
1631.784	0.876	correct	2back	Block3	2back/STIM_017.jpg
1635.712	0.541	correct	2back	Block3	2back/STIM_017.jpg
1638.876	0.668	correct	2back	Block3	2back/STIM_017.jpg
1643.088	1.039	correct	2back	Block3	2back/STIM_018.jpg
1646.569	0.732	correct	2back	Block3	2back/STIM_018.jpg
1649.995	1.119	correct	2back	Block3	2back/STIM_018.jpg
1653.382	0.708	correct	2back	Block3	2back/STIM_019.jpg
1657.781	0.933	correct	2back	Block3	2back/STIM_019.jpg
1660.73	0.996	correct	2back	Block3	2back/STIM_019.jpg
1663.799	1.027	correct	2back	Block3	2back/STIM_020.jpg
1668.261	0.978	incorrect	2back	Block3	2back/STIM_020.jpg
1672.554	0.765	correct	2back	Block3	2back/STIM_020.jpg
1675.417	0.593	correct	2back	Block3	2back/STIM_021.jpg
1679.636	0.928	correct	2back	Block3	2back/STIM_021.jpg
1682.735	0.622	correct	2back	Block3	2back/STIM_021.jpg
1686.931	1.183	correct	2back	Block3	2back/STIM_022.jpg
1691.247	0.739	correct	2back	Block3	2back/STIM_022.jpg
1694.128	1.045	correct	2back	Block3	2back/STIM_022.jpg
1698.949	1.168	correct	2back	Block3	2back/STIM_023.jpg
1702.134	0.64	correct	2back	Block3	2back/STIM_023.jpg
1705.273	1.116	correct	2back	Block3	2back/STIM_023.jpg
1708.491	0.971	correct	2back	Block3	2back/STIM_024.jpg
1712.863	0.827	correct	2back	Block3	2back/STIM_024.jpg
1715.826	0.781	correct	2back	Block3	2back/STIM_024.jpg
1719.056	0.996	correct	2back	Block3	2back/STIM_025.jpg
1722.28	1.176	correct	2back	Block3	2back/STIM_025.jpg
1726.014	0.734	correct	2back	Block3	2back/STIM_025.jpg
1729.495	0.8	correct	2back	Block3	2back/STIM_026.jpg
1734.259	0.876	correct	2back	Block3	2back/STIM_026.jpg
1738.384	0.608	correct	2back	Block3	2back/STIM_026.jpg
1741.701	0.692	correct	2back	Block3	2back/STIM_027.jpg
1744.419	1.006	correct	2back	Block3	2back/STIM_027.jpg
1749.215	1.066	correct	2back	Block3	2back/STIM_027.jpg
1752.811	0.696	correct	2back	Block3	2back/STIM_028.jpg
1757.407	0.597	correct	2back	Block3	2back/STIM_028.jpg
1760.889	1.123	correct	2back	Block3	2back/STIM_028.jpg
1764.226	0.746	correct	2back	Block3	2back/STIM_029.jpg
1767.949	1.007	correct	2back	Block3	2back/STIM_029.jpg
1772.895	0.825	correct	2back	Block3	2back/STIM_029.jpg
1777.253	0.57	correct	2back	Block3	2back/STIM_030.jpg
1780.895	0.776	correct	2back	Block3	2back/STIM_030.jpg
1784.741	1.034	incorrect	2back	Block3	2back/STIM_030.jpg
1789.178	0.756	correct	2back	Block3	2back/STIM_031.jpg
1792.068	1.006	correct	2back	Block3	2back/STIM_031.jpg
1797.001	0.659	correct	2back	Block3	2back/STIM_031.jpg
1800.235	1.091	correct	2back	Block3	2back/STIM_032.jpg
1804.118	1.084	correct	2back	Block3	2back/STIM_032.jpg
1808.727	0.925	correct	2back	Block3	2back/STIM_032.jpg
1812.418	0.925	correct	2back	Block3	2back/STIM_033.jpg
1816.731	1.096	correct	2back	Block3	2back/STIM_033.jpg
1821.736	0.781	correct	2back	Block3	2back/STIM_033.jpg
1825.563	0.742	correct	2back	Block3	2back/STIM_034.jpg
1828.917	1.195	correct	2back	Block3	2back/STIM_034.jpg
1833.953	0.75	correct	2back	Block3	2back/STIM_034.jpg
1837.21	0.658	correct	2back	Block3	2back/STIM_035.jpg
1840.202	0.911	correct	2back	Block3	2back/STIM_035.jpg
1843.17	1.121	correct	2back	Block3	2back/STIM_035.jpg
1846.949	1.029	correct	2back	Block3	2back/STIM_036.jpg
1851.223	1.18	correct	2back	Block3	2back/STIM_036.jpg
1854.767	0.828	correct	2back	Block3	2back/STIM_036.jpg
1857.756	0.559	correct	2back	Block3	2back/STIM_037.jpg
1861.7	0.74	correct	2back	Block3	2back/STIM_037.jpg
1865.696	1.145	correct	2back	Block3	2back/STIM_037.jpg
1869.555	1.1	correct	2back	Block3	2back/STIM_038.jpg
1873.159	0.759	correct	2back	Block3	2back/STIM_038.jpg
1877.645	0.839	correct	2back	Block3	2back/STIM_038.jpg
1880.659	1.066	incorrect	2back	Block3	2back/STIM_039.jpg
1884.042	0.967	correct	2back	Block3	2back/STIM_039.jpg
1888.936	0.633	correct	2back	Block3	2back/STIM_039.jpg
1892.064	0.766	correct	0back	Block3	0back/STIM_000.jpg
1895.48	0.705	correct	0back	Block3	0back/STIM_000.jpg
1898.568	0.743	correct	0back	Block3	0back/STIM_000.jpg
1902.555	0.93	correct	0back	Block3	0back/STIM_001.jpg
1905.845	0.827	correct	0back	Block3	0back/STIM_001.jpg
1909.025	0.707	correct	0back	Block3	0back/STIM_001.jpg
1911.743	0.728	correct	0back	Block3	0back/STIM_002.jpg
1915.353	0.506	correct	0back	Block3	0back/STIM_002.jpg
1919.378	0.527	correct	0back	Block3	0back/STIM_002.jpg
1922.048	0.525	correct	0back	Block3	0back/STIM_003.jpg
1926.284	0.882	correct	0back	Block3	0back/STIM_003.jpg
1930.477	0.774	correct	0back	Block3	0back/STIM_003.jpg
1935.023	0.637	correct	0back	Block3	0back/STIM_004.jpg
1939.162	0.874	correct	0back	Block3	0back/STIM_004.jpg
1943.213	0.608	correct	0back	Block3	0back/STIM_004.jpg
1947.239	0.711	correct	0back	Block3	0back/STIM_005.jpg
1950.818	0.638	correct	0back	Block3	0back/STIM_005.jpg
1955.408	0.556	correct	0back	Block3	0back/STIM_005.jpg
1958.784	0.537	correct	0back	Block3	0back/STIM_006.jpg
1961.63	0.592	correct	0back	Block3	0back/STIM_006.jpg
1965.304	0.617	correct	0back	Block3	0back/STIM_006.jpg
1967.924	0.516	correct	0back	Block3	0back/STIM_007.jpg
1971.722	0.726	correct	0back	Block3	0back/STIM_007.jpg
1975.773	0.905	correct	0back	Block3	0back/STIM_007.jpg
1980.631	0.662	correct	0back	Block3	0back/STIM_008.jpg
1983.774	0.965	correct	0back	Block3	0back/STIM_008.jpg
1987.787	0.524	correct	0back	Block3	0back/STIM_008.jpg
1990.759	0.499	correct	0back	Block3	0back/STIM_009.jpg
1994.108	0.762	incorrect	0back	Block3	0back/STIM_009.jpg
1998.678	0.589	correct	0back	Block3	0back/STIM_009.jpg
2002.239	0.66	correct	0back	Block3	0back/STIM_010.jpg
2005.115	0.638	correct	0back	Block3	0back/STIM_010.jpg
2007.835	0.528	correct	0back	Block3	0back/STIM_010.jpg
2012.108	0.575	correct	0back	Block3	0back/STIM_011.jpg
2015.681	0.527	correct	0back	Block3	0back/STIM_011.jpg
2019.41	0.579	correct	0back	Block3	0back/STIM_011.jpg
2023.775	0.542	correct	0back	Block3	0back/STIM_012.jpg
2027.606	0.984	correct	0back	Block3	0back/STIM_012.jpg
2032.455	0.924	correct	0back	Block3	0back/STIM_012.jpg
2036.619	0.804	correct	0back	Block3	0back/STIM_013.jpg
2040.245	0.709	correct	0back	Block3	0back/STIM_013.jpg
2043.008	0.615	correct	0back	Block3	0back/STIM_013.jpg
2046.38	0.573	correct	0back	Block3	0back/STIM_014.jpg
2049.481	0.844	correct	0back	Block3	0back/STIM_014.jpg
2053.407	0.906	correct	0back	Block3	0back/STIM_014.jpg
2056.405	0.659	correct	0back	Block3	0back/STIM_015.jpg
2060.183	0.932	correct	0back	Block3	0back/STIM_015.jpg
2064.225	0.975	correct	0back	Block3	0back/STIM_015.jpg
2069.157	0.549	correct	0back	Block3	0back/STIM_016.jpg
2073.183	0.972	correct	0back	Block3	0back/STIM_016.jpg
2076.31	0.697	correct	0back	Block3	0back/STIM_016.jpg
2079.7	0.703	correct	0back	Block3	0back/STIM_017.jpg
2084.109	0.677	correct	0back	Block3	0back/STIM_017.jpg
2087.741	0.589	correct	0back	Block3	0back/STIM_017.jpg
2091.961	0.681	correct	0back	Block3	0back/STIM_018.jpg
2095.892	0.544	incorrect	0back	Block3	0back/STIM_018.jpg
2099.558	0.834	correct	0back	Block3	0back/STIM_018.jpg
2102.761	0.531	correct	0back	Block3	0back/STIM_019.jpg
2105.992	0.693	correct	0back	Block3	0back/STIM_019.jpg
2110.379	0.795	correct	0back	Block3	0back/STIM_019.jpg
2114.52	0.956	correct	2back	Block4	2back/STIM_000.jpg
2117.596	0.959	correct	2back	Block4	2back/STIM_000.jpg
2121.186	0.53	correct	2back	Block4	2back/STIM_000.jpg
2125.111	0.813	correct	2back	Block4	2back/STIM_001.jpg
2129.843	0.815	correct	2back	Block4	2back/STIM_001.jpg
2132.947	1.152	correct	2back	Block4	2back/STIM_001.jpg
2137.04	0.722	correct	2back	Block4	2back/STIM_002.jpg
2141.404	0.885	correct	2back	Block4	2back/STIM_002.jpg
2144.396	1.022	correct	2back	Block4	2back/STIM_002.jpg
2149.18	1.048	correct	2back	Block4	2back/STIM_003.jpg
2152.743	0.724	correct	2back	Block4	2back/STIM_003.jpg
2156.125	0.722	correct	2back	Block4	2back/STIM_003.jpg
2158.98	0.537	correct	2back	Block4	2back/STIM_004.jpg
2163.02	0.736	correct	2back	Block4	2back/STIM_004.jpg
2166.928	0.786	correct	2back	Block4	2back/STIM_004.jpg
2171.055	1.05	correct	2back	Block4	2back/STIM_005.jpg
2174.78	0.998	correct	2back	Block4	2back/STIM_005.jpg
2179.732	1.078	correct	2back	Block4	2back/STIM_005.jpg
2184.673	1.122	correct	2back	Block4	2back/STIM_006.jpg
2188.295	0.702	correct	2back	Block4	2back/STIM_006.jpg
2191.595	0.758	correct	2back	Block4	2back/STIM_006.jpg
2195.782	1.067	correct	2back	Block4	2back/STIM_007.jpg
2200.167	1.112	correct	2back	Block4	2back/STIM_007.jpg
2203.666	0.97	correct	2back	Block4	2back/STIM_007.jpg
2208.348	1.17	correct	2back	Block4	2back/STIM_008.jpg
2213.483	0.936	correct	2back	Block4	2back/STIM_008.jpg
2217.179	0.875	correct	2back	Block4	2back/STIM_008.jpg
2220.581	0.858	correct	2back	Block4	2back/STIM_009.jpg
2223.521	0.816	correct	2back	Block4	2back/STIM_009.jpg
2227.281	1.023	correct	2back	Block4	2back/STIM_009.jpg
2232.013	0.53	correct	2back	Block4	2back/STIM_010.jpg
2235.009	0.75	correct	2back	Block4	2back/STIM_010.jpg
2238.93	0.974	correct	2back	Block4	2back/STIM_010.jpg
2242.221	1.018	correct	2back	Block4	2back/STIM_011.jpg
2245.567	0.876	correct	2back	Block4	2back/STIM_011.jpg
2250.316	0.723	incorrect	2back	Block4	2back/STIM_011.jpg
2254.635	0.945	correct	2back	Block4	2back/STIM_012.jpg
2258.577	0.811	correct	2back	Block4	2back/STIM_012.jpg
2262.168	1.181	correct	2back	Block4	2back/STIM_012.jpg
2266.812	1.104	correct	2back	Block4	2back/STIM_013.jpg
2270.975	0.906	correct	2back	Block4	2back/STIM_013.jpg
2275.206	0.763	correct	2back	Block4	2back/STIM_013.jpg
2279.105	0.659	correct	2back	Block4	2back/STIM_014.jpg
2283.498	1.165	correct	2back	Block4	2back/STIM_014.jpg
2287.974	0.564	correct	2back	Block4	2back/STIM_014.jpg
2291.814	0.961	correct	2back	Block4	2back/STIM_015.jpg
2296.712	0.789	correct	2back	Block4	2back/STIM_015.jpg
2299.765	0.973	correct	2back	Block4	2back/STIM_015.jpg
2303.783	1.049	correct	2back	Block4	2back/STIM_016.jpg
2308.262	1.116	correct	2back	Block4	2back/STIM_016.jpg
2312.982	1.143	correct	2back	Block4	2back/STIM_016.jpg
2317.911	0.635	correct	2back	Block4	2back/STIM_017.jpg
2320.658	0.974	correct	2back	Block4	2back/STIM_017.jpg
2325.121	0.952	correct	2back	Block4	2back/STIM_017.jpg
2328.716	1.161	correct	2back	Block4	2back/STIM_018.jpg
2333.574	1.145	correct	2back	Block4	2back/STIM_018.jpg
2337.558	0.988	correct	2back	Block4	2back/STIM_018.jpg
2341.545	1.128	correct	2back	Block4	2back/STIM_019.jpg
2344.846	0.586	correct	2back	Block4	2back/STIM_019.jpg
2348.293	0.731	correct	2back	Block4	2back/STIM_019.jpg
2351.926	1.15	correct	2back	Block4	2back/STIM_020.jpg
2355.559	0.699	correct	2back	Block4	2back/STIM_020.jpg
2359.731	0.588	correct	2back	Block4	2back/STIM_020.jpg
2362.985	0.636	correct	2back	Block4	2back/STIM_021.jpg
2366.115	0.53	correct	2back	Block4	2back/STIM_021.jpg
2370.172	0.856	correct	2back	Block4	2back/STIM_021.jpg
2373.262	0.661	correct	2back	Block4	2back/STIM_022.jpg
2376.034	0.878	correct	2back	Block4	2back/STIM_022.jpg
2379.645	1.02	correct	2back	Block4	2back/STIM_022.jpg
2384.34	0.731	correct	2back	Block4	2back/STIM_023.jpg
2387.647	0.559	correct	2back	Block4	2back/STIM_023.jpg
2390.298	0.764	correct	2back	Block4	2back/STIM_023.jpg
2394.959	0.981	correct	2back	Block4	2back/STIM_024.jpg
2399.191	0.765	correct	2back	Block4	2back/STIM_024.jpg
2403.408	0.932	correct	2back	Block4	2back/STIM_024.jpg
2407.06	0.596	correct	2back	Block4	2back/STIM_025.jpg
2410.255	0.682	correct	2back	Block4	2back/STIM_025.jpg
2414.645	0.618	correct	2back	Block4	2back/STIM_025.jpg
2417.806	0.741	correct	2back	Block4	2back/STIM_026.jpg
2421.394	1.2	correct	2back	Block4	2back/STIM_026.jpg
2424.936	1.09	correct	2back	Block4	2back/STIM_026.jpg
2429.819	0.522	correct	2back	Block4	2back/STIM_027.jpg
2433.453	0.52	correct	2back	Block4	2back/STIM_027.jpg
2436.17	1.133	correct	2back	Block4	2back/STIM_027.jpg
2440.008	1.162	correct	2back	Block4	2back/STIM_028.jpg
2444.07	0.607	correct	2back	Block4	2back/STIM_028.jpg
2446.904	0.744	correct	2back	Block4	2back/STIM_028.jpg
2450.934	0.571	correct	2back	Block4	2back/STIM_029.jpg
2454.393	0.848	correct	2back	Block4	2back/STIM_029.jpg
2458.059	0.691	correct	2back	Block4	2back/STIM_029.jpg
2462.727	1.136	correct	2back	Block4	2back/STIM_030.jpg
2466.355	1.109	correct	2back	Block4	2back/STIM_030.jpg
2470.048	0.975	correct	2back	Block4	2back/STIM_030.jpg
2474.83	0.672	incorrect	2back	Block4	2back/STIM_031.jpg
2478.614	0.992	correct	2back	Block4	2back/STIM_031.jpg
2482.807	1.172	correct	2back	Block4	2back/STIM_031.jpg
2487.314	1.1	correct	2back	Block4	2back/STIM_032.jpg
2491.66	1.085	correct	2back	Block4	2back/STIM_032.jpg
2496.564	1.048	correct	2back	Block4	2back/STIM_032.jpg
2500.206	0.763	correct	2back	Block4	2back/STIM_033.jpg
2503.637	1.141	correct	2back	Block4	2back/STIM_033.jpg
2507.372	1.17	incorrect	2back	Block4	2back/STIM_033.jpg
2511.056	0.535	correct	2back	Block4	2back/STIM_034.jpg
2514.128	0.892	correct	2back	Block4	2back/STIM_034.jpg
2518.73	1.17	correct	2back	Block4	2back/STIM_034.jpg
2523.685	0.925	correct	2back	Block4	2back/STIM_035.jpg
2526.642	0.579	correct	2back	Block4	2back/STIM_035.jpg
2530.145	0.603	correct	2back	Block4	2back/STIM_035.jpg
2533.065	0.946	correct	2back	Block4	2back/STIM_036.jpg
2537.562	0.984	correct	2back	Block4	2back/STIM_036.jpg
2542.319	0.811	correct	2back	Block4	2back/STIM_036.jpg
2546.667	0.982	correct	2back	Block4	2back/STIM_037.jpg
2551.192	0.706	correct	2back	Block4	2back/STIM_037.jpg
2555.408	0.52	correct	2back	Block4	2back/STIM_037.jpg
2558.707	1.128	correct	2back	Block4	2back/STIM_038.jpg
2563.417	1.012	correct	2back	Block4	2back/STIM_038.jpg
2567.767	0.767	correct	2back	Block4	2back/STIM_038.jpg
2571.584	0.553	correct	2back	Block4	2back/STIM_039.jpg
2575.252	1.095	correct	2back	Block4	2back/STIM_039.jpg
2579.394	1.096	correct	2back	Block4	2back/STIM_039.jpg
2583.779	0.883	correct	0back	Block4	0back/STIM_000.jpg
2587.182	0.581	correct	0back	Block4	0back/STIM_000.jpg
2589.88	0.561	correct	0back	Block4	0back/STIM_000.jpg
2593.385	0.782	correct	0back	Block4	0back/STIM_001.jpg
2597.364	0.74	correct	0back	Block4	0back/STIM_001.jpg
2601.946	0.591	correct	0back	Block4	0back/STIM_001.jpg
2605.589	0.93	correct	0back	Block4	0back/STIM_002.jpg
2609.954	0.707	correct	0back	Block4	0back/STIM_002.jpg
2613.883	0.96	correct	0back	Block4	0back/STIM_002.jpg
2617.33	0.662	correct	0back	Block4	0back/STIM_003.jpg
2620.219	0.843	incorrect	0back	Block4	0back/STIM_003.jpg
2624.836	0.672	correct	0back	Block4	0back/STIM_003.jpg
2627.541	0.881	correct	0back	Block4	0back/STIM_004.jpg
2630.773	0.892	correct	0back	Block4	0back/STIM_004.jpg
2633.824	0.68	correct	0back	Block4	0back/STIM_004.jpg
2638.381	0.67	correct	0back	Block4	0back/STIM_005.jpg
2642.953	0.52	correct	0back	Block4	0back/STIM_005.jpg
2647.363	0.926	correct	0back	Block4	0back/STIM_005.jpg
2651.231	0.811	correct	0back	Block4	0back/STIM_006.jpg
2655.471	0.983	incorrect	0back	Block4	0back/STIM_006.jpg
2658.46	0.849	correct	0back	Block4	0back/STIM_006.jpg
2661.622	0.921	correct	0back	Block4	0back/STIM_007.jpg
2666.474	0.601	correct	0back	Block4	0back/STIM_007.jpg
2670.705	0.624	correct	0back	Block4	0back/STIM_007.jpg
2673.584	0.929	correct	0back	Block4	0back/STIM_008.jpg
2676.977	0.764	correct	0back	Block4	0back/STIM_008.jpg
2681.069	0.854	correct	0back	Block4	0back/STIM_008.jpg
2684.984	0.959	correct	0back	Block4	0back/STIM_009.jpg
2688.77	0.799	correct	0back	Block4	0back/STIM_009.jpg
2693.32	0.525	correct	0back	Block4	0back/STIM_009.jpg
2695.993	0.866	correct	0back	Block4	0back/STIM_010.jpg
2700.267	0.745	correct	0back	Block4	0back/STIM_010.jpg
2704.335	0.675	correct	0back	Block4	0back/STIM_010.jpg
2707.759	0.516	correct	0back	Block4	0back/STIM_011.jpg
2711.695	0.624	correct	0back	Block4	0back/STIM_011.jpg
2716.29	0.742	correct	0back	Block4	0back/STIM_011.jpg
2719.579	0.779	correct	0back	Block4	0back/STIM_012.jpg
2722.689	0.726	correct	0back	Block4	0back/STIM_012.jpg
2725.71	0.594	correct	0back	Block4	0back/STIM_012.jpg
2730.297	0.871	correct	0back	Block4	0back/STIM_013.jpg
2734.383	0.59	correct	0back	Block4	0back/STIM_013.jpg
2738.158	0.825	correct	0back	Block4	0back/STIM_013.jpg
2742.786	0.698	correct	0back	Block4	0back/STIM_014.jpg
2746.962	0.851	correct	0back	Block4	0back/STIM_014.jpg
2751.77	0.666	correct	0back	Block4	0back/STIM_014.jpg
2755.72	0.948	correct	0back	Block4	0back/STIM_015.jpg
2758.953	0.732	correct	0back	Block4	0back/STIM_015.jpg
2763.244	0.781	correct	0back	Block4	0back/STIM_015.jpg
2767.477	0.507	correct	0back	Block4	0back/STIM_016.jpg
2771.879	0.647	correct	0back	Block4	0back/STIM_016.jpg
2775.038	0.725	incorrect	0back	Block4	0back/STIM_016.jpg
2778.62	0.497	correct	0back	Block4	0back/STIM_017.jpg
2781.914	0.853	correct	0back	Block4	0back/STIM_017.jpg
2785.754	0.955	correct	0back	Block4	0back/STIM_017.jpg
2789.45	0.514	correct	0back	Block4	0back/STIM_018.jpg
2793.555	0.728	correct	0back	Block4	0back/STIM_018.jpg
2797.283	0.92	correct	0back	Block4	0back/STIM_018.jpg
2801.393	0.948	correct	0back	Block4	0back/STIM_019.jpg
2806.246	0.943	correct	0back	Block4	0back/STIM_019.jpg
2809.949	0.678	correct	0back	Block4	0back/STIM_019.jpg
