onset	duration	accuracy	trial_type	learning_stage	stimulus
0.0	1.248	correct	2back	Block1	2back/STIM_000.jpg
4.897	0.869	correct	2back	Block1	2back/STIM_000.jpg
7.739	0.576	correct	2back	Block1	2back/STIM_000.jpg
10.911	1.415	correct	2back	Block1	2back/STIM_001.jpg
15.14	1.389	correct	2back	Block1	2back/STIM_001.jpg
19.195	0.745	correct	2back	Block1	2back/STIM_001.jpg
23.682	1.157	incorrect	2back	Block1	2back/STIM_002.jpg
26.807	1.161	correct	2back	Block1	2back/STIM_002.jpg
31.501	0.62	correct	2back	Block1	2back/STIM_002.jpg
34.182	0.978	correct	2back	Block1	2back/STIM_003.jpg
37.472	1.002	correct	2back	Block1	2back/STIM_003.jpg
41.946	1.284	correct	2back	Block1	2back/STIM_003.jpg
46.982	0.975	correct	2back	Block1	2back/STIM_004.jpg
51.511	1.369	correct	2back	Block1	2back/STIM_004.jpg
56.051	1.187	incorrect	2back	Block1	2back/STIM_004.jpg
60.625	1.089	correct	2back	Block1	2back/STIM_005.jpg
65.398	1.34	correct	2back	Block1	2back/STIM_005.jpg
70.543	0.824	correct	2back	Block1	2back/STIM_005.jpg
74.245	1.452	correct	2back	Block1	2back/STIM_006.jpg
77.907	1.289	correct	2back	Block1	2back/STIM_006.jpg
81.906	1.11	correct	2back	Block1	2back/STIM_006.jpg
86.917	0.875	correct	2back	Block1	2back/STIM_007.jpg
89.807	1.129	correct	2back	Block1	2back/STIM_007.jpg
93.148	0.832	correct	2back	Block1	2back/STIM_007.jpg
96.696	1.158	correct	2back	Block1	2back/STIM_008.jpg
101.114	0.705	correct	2back	Block1	2back/STIM_008.jpg
104.046	0.661	incorrect	2back	Block1	2back/STIM_008.jpg
108.506	1.461	correct	2back	Block1	2back/STIM_009.jpg
112.611	1.097	incorrect	2back	Block1	2back/STIM_009.jpg
117.068	1.221	correct	2back	Block1	2back/STIM_009.jpg
122.157	1.076	correct	2back	Block1	2back/STIM_010.jpg
126.226	0.72	correct	2back	Block1	2back/STIM_010.jpg
130.876	1.001	correct	2back	Block1	2back/STIM_010.jpg
135.645	0.842	correct	2back	Block1	2back/STIM_011.jpg
139.321	0.757	correct	2back	Block1	2back/STIM_011.jpg
143.171	0.696	incorrect	2back	Block1	2back/STIM_011.jpg
147.603	1.032	correct	2back	Block1	2back/STIM_012.jpg
151.914	0.82	correct	2back	Block1	2back/STIM_012.jpg
154.833	1.301	correct	2back	Block1	2back/STIM_012.jpg
158.548	1.036	correct	2back	Block1	2back/STIM_013.jpg
163.364	0.982	incorrect	2back	Block1	2back/STIM_013.jpg
167.814	1.132	correct	2back	Block1	2back/STIM_013.jpg
171.31	0.842	correct	2back	Block1	2back/STIM_014.jpg
174.247	1.095	correct	2back	Block1	2back/STIM_014.jpg
177.651	1.256	correct	2back	Block1	2back/STIM_014.jpg
181.253	0.968	correct	2back	Block1	2back/STIM_015.jpg
185.099	0.685	incorrect	2back	Block1	2back/STIM_015.jpg
188.033	0.778	correct	2back	Block1	2back/STIM_015.jpg
191.768	1.088	correct	2back	Block1	2back/STIM_016.jpg
196.123	0.676	correct	2back	Block1	2back/STIM_016.jpg
200.311	1.001	correct	2back	Block1	2back/STIM_016.jpg
203.535	0.691	correct	2back	Block1	2back/STIM_017.jpg
207.554	1.08	correct	2back	Block1	2back/STIM_017.jpg
210.98	0.898	correct	2back	Block1	2back/STIM_017.jpg
213.981	1.343	correct	2back	Block1	2back/STIM_018.jpg
217.655	0.79	incorrect	2back	Block1	2back/STIM_018.jpg
220.581	1.255	incorrect	2back	Block1	2back/STIM_018.jpg
224.383	1.058	correct	2back	Block1	2back/STIM_019.jpg
228.79	1.349	correct	2back	Block1	2back/STIM_019.jpg
232.357	0.943	correct	2back	Block1	2back/STIM_019.jpg
235.598	1.458	correct	2back	Block1	2back/STIM_020.jpg
240.978	0.705	correct	2back	Block1	2back/STIM_020.jpg
243.879	0.618	incorrect	2back	Block1	2back/STIM_020.jpg
246.986	0.982	correct	2back	Block1	2back/STIM_021.jpg
250.804	1.286	incorrect	2back	Block1	2back/STIM_021.jpg
255.943	0.75	correct	2back	Block1	2back/STIM_021.jpg
260.356	0.761	correct	2back	Block1	2back/STIM_022.jpg
264.028	0.712	correct	2back	Block1	2back/STIM_022.jpg
266.768	1.317	correct	2back	Block1	2back/STIM_022.jpg
270.066	0.891	correct	2back	Block1	2back/STIM_023.jpg
274.574	0.811	incorrect	2back	Block1	2back/STIM_023.jpg
279.107	0.887	correct	2back	Block1	2back/STIM_023.jpg
283.278	0.992	incorrect	2back	Block1	2back/STIM_024.jpg
287.742	0.681	correct	2back	Block1	2back/STIM_024.jpg
291.212	1.282	incorrect	2back	Block1	2back/STIM_024.jpg
295.344	0.922	incorrect	2back	Block1	2back/STIM_025.jpg
299.112	1.142	correct	2back	Block1	2back/STIM_025.jpg
303.7	1.165	incorrect	2back	Block1	2back/STIM_025.jpg
306.849	1.338	correct	2back	Block1	2back/STIM_026.jpg
311.033	1.341	correct	2back	Block1	2back/STIM_026.jpg
316.199	0.765	correct	2back	Block1	2back/STIM_026.jpg
320.059	1.429	correct	2back	Block1	2back/STIM_027.jpg
324.72	1.183	correct	2back	Block1	2back/STIM_027.jpg
329.829	1.105	correct	2back	Block1	2back/STIM_027.jpg
333.255	1.331	incorrect	2back	Block1	2back/STIM_028.jpg
338.436	1.096	correct	2back	Block1	2back/STIM_028.jpg
343.317	0.84	correct	2back	Block1	2back/STIM_028.jpg
346.425	0.825	incorrect	2back	Block1	2back/STIM_029.jpg
349.804	1.359	correct	2back	Block1	2back/STIM_029.jpg
354.35	0.78	incorrect	2back	Block1	2back/STIM_029.jpg
357.869	0.984	correct	2back	Block1	2back/STIM_030.jpg
361.367	1.32	correct	2back	Block1	2back/STIM_030.jpg
365.55	0.585	incorrect	2back	Block1	2back/STIM_030.jpg
369.341	1.298	correct	2back	Block1	2back/STIM_031.jpg
373.74	0.804	correct	2back	Block1	2back/STIM_031.jpg
378.079	0.885	correct	2back	Block1	2back/STIM_031.jpg
381.909	1.181	correct	2back	Block1	2back/STIM_032.jpg
386.82	0.605	incorrect	2back	Block1	2back/STIM_032.jpg
390.824	1.041	correct	2back	Block1	2back/STIM_032.jpg
395.045	1.392	correct	2back	Block1	2back/STIM_033.jpg
399.877	1.078	correct	2back	Block1	2back/STIM_033.jpg
403.91	0.972	correct	2back	Block1	2back/STIM_033.jpg
408.576	1.393	correct	2back	Block1	2back/STIM_034.jpg
412.927	0.872	correct	2back	Block1	2back/STIM_034.jpg
417.021	0.706	correct	2back	Block1	2back/STIM_034.jpg
419.941	1.188	correct	2back	Block1	2back/STIM_035.jpg
424.147	1.063	correct	2back	Block1	2back/STIM_035.jpg
427.676	1.086	correct	2back	Block1	2back/STIM_035.jpg
432.397	0.806	correct	2back	Block1	2back/STIM_036.jpg
436.732	1.208	incorrect	2back	Block1	2back/STIM_036.jpg
440.327	0.651	correct	2back	Block1	2back/STIM_036.jpg
444.631	1.338	correct	2back	Block1	2back/STIM_037.jpg
448.503	0.667	correct	2back	Block1	2back/STIM_037.jpg
452.565	1.111	correct	2back	Block1	2back/STIM_037.jpg
455.751	0.78	correct	2back	Block1	2back/STIM_038.jpg
458.965	1.184	incorrect	2back	Block1	2back/STIM_038.jpg
463.28	0.579	incorrect	2back	Block1	2back/STIM_038.jpg
466.395	0.684	correct	2back	Block1	2back/STIM_039.jpg
469.741	0.698	correct	2back	Block1	2back/STIM_039.jpg
474.284	0.984	incorrect	2back	Block1	2back/STIM_039.jpg
478.249	0.784	correct	0back	Block1	0back/STIM_000.jpg
481.987	0.533	correct	0back	Block1	0back/STIM_000.jpg
485.837	0.841	correct	0back	Block1	0back/STIM_000.jpg
488.67	0.84	correct	0back	Block1	0back/STIM_001.jpg
492.104	0.796	correct	0back	Block1	0back/STIM_001.jpg
496.007	0.56	incorrect	0back	Block1	0back/STIM_001.jpg
499.61	0.622	correct	0back	Block1	0back/STIM_002.jpg
502.771	0.425	correct	0back	Block1	0back/STIM_002.jpg
506.3	0.81	correct	0back	Block1	0back/STIM_002.jpg
510.239	0.499	correct	0back	Block1	0back/STIM_003.jpg
513.811	0.824	incorrect	0back	Block1	0back/STIM_003.jpg
518.309	0.422	correct	0back	Block1	0back/STIM_003.jpg
521.74	0.516	correct	0back	Block1	0back/STIM_004.jpg
526.189	0.617	correct	0back	Block1	0back/STIM_004.jpg
529.773	0.646	correct	0back	Block1	0back/STIM_004.jpg
533.506	0.592	correct	0back	Block1	0back/STIM_005.jpg
537.412	0.59	correct	0back	Block1	0back/STIM_005.jpg
540.6	0.486	correct	0back	Block1	0back/STIM_005.jpg
544.383	0.798	correct	0back	Block1	0back/STIM_006.jpg
547.483	0.751	correct	0back	Block1	0back/STIM_006.jpg
550.627	0.513	correct	0back	Block1	0back/STIM_006.jpg
553.812	0.622	incorrect	0back	Block1	0back/STIM_007.jpg
558.331	0.744	correct	0back	Block1	0back/STIM_007.jpg
561.997	0.794	correct	0back	Block1	0back/STIM_007.jpg
565.39	0.618	correct	0back	Block1	0back/STIM_008.jpg
568.547	0.536	correct	0back	Block1	0back/STIM_008.jpg
572.34	0.432	correct	0back	Block1	0back/STIM_008.jpg
575.734	0.537	correct	0back	Block1	0back/STIM_009.jpg
579.528	0.431	correct	0back	Block1	0back/STIM_009.jpg
583.859	0.781	correct	0back	Block1	0back/STIM_009.jpg
586.744	0.617	correct	0back	Block1	0back/STIM_010.jpg
589.617	0.805	correct	0back	Block1	0back/STIM_010.jpg
592.478	0.453	correct	0back	Block1	0back/STIM_010.jpg
596.833	0.601	correct	0back	Block1	0back/STIM_011.jpg
599.439	0.696	correct	0back	Block1	0back/STIM_011.jpg
602.837	0.536	correct	0back	Block1	0back/STIM_011.jpg
606.468	0.725	correct	0back	Block1	0back/STIM_012.jpg
609.337	0.776	correct	0back	Block1	0back/STIM_012.jpg
613.809	0.676	correct	0back	Block1	0back/STIM_012.jpg
617.224	0.562	correct	0back	Block1	0back/STIM_013.jpg
620.725	0.664	correct	0back	Block1	0back/STIM_013.jpg
624.954	0.746	correct	0back	Block1	0back/STIM_013.jpg
628.109	0.564	correct	0back	Block1	0back/STIM_014.jpg
630.765	0.795	correct	0back	Block1	0back/STIM_014.jpg
633.745	0.547	correct	0back	Block1	0back/STIM_014.jpg
636.985	0.706	correct	0back	Block1	0back/STIM_015.jpg
639.745	0.678	correct	0back	Block1	0back/STIM_015.jpg
643.646	0.69	correct	0back	Block1	0back/STIM_015.jpg
647.821	0.588	correct	0back	Block1	0back/STIM_016.jpg
651.832	0.783	correct	0back	Block1	0back/STIM_016.jpg
655.829	0.742	correct	0back	Block1	0back/STIM_016.jpg
660.477	0.832	correct	0back	Block1	0back/STIM_017.jpg
665.263	0.626	correct	0back	Block1	0back/STIM_017.jpg
669.126	0.563	correct	0back	Block1	0back/STIM_017.jpg
672.656	0.49	correct	0back	Block1	0back/STIM_018.jpg
676.505	0.738	correct	0back	Block1	0back/STIM_018.jpg
680.488	0.705	correct	0back	Block1	0back/STIM_018.jpg
683.534	0.448	correct	0back	Block1	0back/STIM_019.jpg
687.074	0.747	correct	0back	Block1	0back/STIM_019.jpg
689.818	0.694	correct	0back	Block1	0back/STIM_019.jpg
692.871	0.91	correct	2back	Block2	2back/STIM_000.jpg
696.519	0.83	correct	2back	Block2	2back/STIM_000.jpg
700.42	0.896	correct	2back	Block2	2back/STIM_000.jpg
704.043	1.018	correct	2back	Block2	2back/STIM_001.jpg
707.869	0.801	correct	2back	Block2	2back/STIM_001.jpg
712.038	0.928	correct	2back	Block2	2back/STIM_001.jpg
716.545	1.033	correct	2back	Block2	2back/STIM_002.jpg
721.005	1.022	incorrect	2back	Block2	2back/STIM_002.jpg
724.003	0.723	correct	2back	Block2	2back/STIM_002.jpg
727.937	1.05	incorrect	2back	Block2	2back/STIM_003.jpg
732.589	1.142	correct	2back	Block2	2back/STIM_003.jpg
736.819	0.526	correct	2back	Block2	2back/STIM_003.jpg
739.493	0.95	correct	2back	Block2	2back/STIM_004.jpg
743.946	0.616	correct	2back	Block2	2back/STIM_004.jpg
748.208	1.087	correct	2back	Block2	2back/STIM_004.jpg
752.904	0.845	correct	2back	Block2	2back/STIM_005.jpg
757.535	0.779	correct	2back	Block2	2back/STIM_005.jpg
760.927	0.989	correct	2back	Block2	2back/STIM_005.jpg
765.113	1.245	correct	2back	Block2	2back/STIM_006.jpg
770.227	0.615	correct	2back	Block2	2back/STIM_006.jpg
774.458	0.778	correct	2back	Block2	2back/STIM_006.jpg
777.216	0.869	correct	2back	Block2	2back/STIM_007.jpg
781.234	0.991	correct	2back	Block2	2back/STIM_007.jpg
784.968	0.545	correct	2back	Block2	2back/STIM_007.jpg
787.538	0.946	correct	2back	Block2	2back/STIM_008.jpg
790.598	0.981	correct	2back	Block2	2back/STIM_008.jpg
794.718	0.84	correct	2back	Block2	2back/STIM_008.jpg
798.906	0.821	correct	2back	Block2	2back/STIM_009.jpg
803.112	1.062	correct	2back	Block2	2back/STIM_009.jpg
806.563	0.791	correct	2back	Block2	2back/STIM_009.jpg
809.814	0.888	incorrect	2back	Block2	2back/STIM_010.jpg
814.208	1.036	correct	2back	Block2	2back/STIM_010.jpg
818.06	0.639	correct	2back	Block2	2back/STIM_010.jpg
821.341	0.765	correct	2back	Block2	2back/STIM_011.jpg
824.34	0.936	correct	2back	Block2	2back/STIM_011.jpg
828.057	0.56	correct	2back	Block2	2back/STIM_011.jpg
831.063	0.807	correct	2back	Block2	2back/STIM_012.jpg
835.328	0.686	correct	2back	Block2	2back/STIM_012.jpg
838.92	1.065	correct	2back	Block2	2back/STIM_012.jpg
843.621	0.703	incorrect	2back	Block2	2back/STIM_013.jpg
846.754	1.025	correct	2back	Block2	2back/STIM_013.jpg
850.369	0.864	correct	2back	Block2	2back/STIM_013.jpg
854.363	0.793	correct	2back	Block2	2back/STIM_014.jpg
857.935	1.147	correct	2back	Block2	2back/STIM_014.jpg
862.769	0.702	correct	2back	Block2	2back/STIM_014.jpg
867.072	0.691	correct	2back	Block2	2back/STIM_015.jpg
870.294	0.765	correct	2back	Block2	2back/STIM_015.jpg
873.03	0.762	correct	2back	Block2	2back/STIM_015.jpg
877.735	0.959	correct	2back	Block2	2back/STIM_016.jpg
882.304	0.527	correct	2back	Block2	2back/STIM_016.jpg
885.914	0.581	correct	2back	Block2	2back/STIM_016.jpg
889.604	0.646	incorrect	2back	Block2	2back/STIM_017.jpg
893.402	0.82	incorrect	2back	Block2	2back/STIM_017.jpg
897.32	0.777	correct	2back	Block2	2back/STIM_017.jpg
901.737	0.946	correct	2back	Block2	2back/STIM_018.jpg
904.717	0.83	correct	2back	Block2	2back/STIM_018.jpg
908.773	0.947	correct	2back	Block2	2back/STIM_018.jpg
912.573	1.033	incorrect	2back	Block2	2back/STIM_019.jpg
916.238	0.526	correct	2back	Block2	2back/STIM_019.jpg
920.54	0.646	correct	2back	Block2	2back/STIM_019.jpg
923.922	1.232	correct	2back	Block2	2back/STIM_020.jpg
927.259	0.617	correct	2back	Block2	2back/STIM_020.jpg
931.633	0.579	correct	2back	Block2	2back/STIM_020.jpg
935.169	0.932	correct	2back	Block2	2back/STIM_021.jpg
938.63	0.808	correct	2back	Block2	2back/STIM_021.jpg
942.769	0.749	correct	2back	Block2	2back/STIM_021.jpg
946.678	0.765	correct	2back	Block2	2back/STIM_022.jpg
950.798	0.586	correct	2back	Block2	2back/STIM_022.jpg
954.082	0.805	correct	2back	Block2	2back/STIM_022.jpg
958.125	0.625	correct	2back	Block2	2back/STIM_023.jpg
961.758	0.737	correct	2back	Block2	2back/STIM_023.jpg
965.768	0.977	correct	2back	Block2	2back/STIM_023.jpg
968.9	1.146	correct	2back	Block2	2back/STIM_024.jpg
973.594	0.928	correct	2back	Block2	2back/STIM_024.jpg
978.227	0.609	correct	2back	Block2	2back/STIM_024.jpg
982.023	0.619	incorrect	2back	Block2	2back/STIM_025.jpg
985.702	0.657	correct	2back	Block2	2back/STIM_025.jpg
988.819	0.566	correct	2back	Block2	2back/STIM_025.jpg
993.268	1.245	correct	2back	Block2	2back/STIM_026.jpg
997.258	0.508	correct	2back	Block2	2back/STIM_026.jpg
1001.711	0.912	correct	2back	Block2	2back/STIM_026.jpg
1005.432	0.747	correct	2back	Block2	2back/STIM_027.jpg
1008.61	0.568	correct	2back	Block2	2back/STIM_027.jpg
1011.587	0.93	correct	2back	Block2	2back/STIM_027.jpg
1015.567	0.942	correct	2back	Block2	2back/STIM_028.jpg
1019.723	0.61	correct	2back	Block2	2back/STIM_028.jpg
1023.721	0.895	correct	2back	Block2	2back/STIM_028.jpg
1028.185	1.059	correct	2back	Block2	2back/STIM_029.jpg
1031.706	0.601	correct	2back	Block2	2back/STIM_029.jpg
1036.133	1.006	correct	2back	Block2	2back/STIM_029.jpg
1039.788	0.615	incorrect	2back	Block2	2back/STIM_030.jpg
1043.86	0.735	correct	2back	Block2	2back/STIM_030.jpg
1046.87	0.99	correct	2back	Block2	2back/STIM_030.jpg
1050.681	0.938	correct	2back	Block2	2back/STIM_031.jpg
1055.496	0.633	correct	2back	Block2	2back/STIM_031.jpg
1059.121	0.602	correct	2back	Block2	2back/STIM_031.jpg
1062.565	1.215	correct	2back	Block2	2back/STIM_032.jpg
1066.097	0.719	correct	2back	Block2	2back/STIM_032.jpg
1069.934	0.519	correct	2back	Block2	2back/STIM_032.jpg
1073.586	0.955	correct	2back	Block2	2back/STIM_033.jpg
1078.221	1.08	correct	2back	Block2	2back/STIM_033.jpg
1081.975	0.983	correct	2back	Block2	2back/STIM_033.jpg
1086.811	1.16	incorrect	2back	Block2	2back/STIM_034.jpg
1091.029	0.844	correct	2back	Block2	2back/STIM_034.jpg
1094.252	0.546	incorrect	2back	Block2	2back/STIM_034.jpg
1098.134	1.027	correct	2back	Block2	2back/STIM_035.jpg
1102.049	0.75	correct	2back	Block2	2back/STIM_035.jpg
1105.232	0.705	incorrect	2back	Block2	2back/STIM_035.jpg
1109.366	0.739	correct	2back	Block2	2back/STIM_036.jpg
1113.137	1.073	incorrect	2back	Block2	2back/STIM_036.jpg
1117.56	0.916	correct	2back	Block2	2back/STIM_036.jpg
1121.867	1.211	correct	2back	Block2	2back/STIM_037.jpg
1126.877	1.018	correct	2back	Block2	2back/STIM_037.jpg
1131.043	0.669	correct	2back	Block2	2back/STIM_037.jpg
1134.728	0.595	correct	2back	Block2	2back/STIM_038.jpg
1138.298	0.702	correct	2back	Block2	2back/STIM_038.jpg
1142.336	0.626	correct	2back	Block2	2back/STIM_038.jpg
1146.436	0.719	correct	2back	Block2	2back/STIM_039.jpg
1150.058	0.98	correct	2back	Block2	2back/STIM_039.jpg
1153.078	0.72	correct	2back	Block2	2back/STIM_039.jpg
1156.028	0.842	correct	0back	Block2	0back/STIM_000.jpg
1159.003	0.444	correct	0back	Block2	0back/STIM_000.jpg
1161.876	0.661	correct	0back	Block2	0back/STIM_000.jpg
1166.025	0.806	correct	0back	Block2	0back/STIM_001.jpg
1170.599	0.597	correct	0back	Block2	0back/STIM_001.jpg
1173.331	0.658	correct	0back	Block2	0back/STIM_001.jpg
1177.16	0.835	correct	0back	Block2	0back/STIM_002.jpg
1181.002	0.797	correct	0back	Block2	0back/STIM_002.jpg
1185.321	0.5	correct	0back	Block2	0back/STIM_002.jpg
1189.135	0.435	correct	0back	Block2	0back/STIM_003.jpg
1193.272	0.785	correct	0back	Block2	0back/STIM_003.jpg
1197.97	0.77	correct	0back	Block2	0back/STIM_003.jpg
1200.868	0.435	correct	0back	Block2	0back/STIM_004.jpg
1204.229	0.615	correct	0back	Block2	0back/STIM_004.jpg
1208.148	0.454	incorrect	0back	Block2	0back/STIM_004.jpg
1210.662	0.589	correct	0back	Block2	0back/STIM_005.jpg
1214.435	0.783	correct	0back	Block2	0back/STIM_005.jpg
1218.5	0.756	correct	0back	Block2	0back/STIM_005.jpg
1222.769	0.73	correct	0back	Block2	0back/STIM_006.jpg
1226.741	0.497	correct	0back	Block2	0back/STIM_006.jpg
1229.725	0.634	correct	0back	Block2	0back/STIM_006.jpg
1233.55	0.762	correct	0back	Block2	0back/STIM_007.jpg
1237.761	0.524	correct	0back	Block2	0back/STIM_007.jpg
1241.279	0.425	correct	0back	Block2	0back/STIM_007.jpg
1244.086	0.568	correct	0back	Block2	0back/STIM_008.jpg
1247.762	0.531	correct	0back	Block2	0back/STIM_008.jpg
1251.827	0.73	correct	0back	Block2	0back/STIM_008.jpg
1255.446	0.553	correct	0back	Block2	0back/STIM_009.jpg
1259.601	0.551	correct	0back	Block2	0back/STIM_009.jpg
1263.274	0.46	correct	0back	Block2	0back/STIM_009.jpg
1265.96	0.718	correct	0back	Block2	0back/STIM_010.jpg
1269.762	0.499	correct	0back	Block2	0back/STIM_010.jpg
1273.103	0.498	correct	0back	Block2	0back/STIM_010.jpg
1277.072	0.467	correct	0back	Block2	0back/STIM_011.jpg
1280.27	0.422	correct	0back	Block2	0back/STIM_011.jpg
1284.602	0.6	correct	0back	Block2	0back/STIM_011.jpg
1288.788	0.792	correct	0back	Block2	0back/STIM_012.jpg
1291.565	0.781	correct	0back	Block2	0back/STIM_012.jpg
1296.022	0.804	correct	0back	Block2	0back/STIM_012.jpg
1299.361	0.674	incorrect	0back	Block2	0back/STIM_013.jpg
1303.813	0.601	correct	0back	Block2	0back/STIM_013.jpg
1307.549	0.544	correct	0back	Block2	0back/STIM_013.jpg
1311.681	0.788	correct	0back	Block2	0back/STIM_014.jpg
1314.489	0.525	correct	0back	Block2	0back/STIM_014.jpg
1318.644	0.613	correct	0back	Block2	0back/STIM_014.jpg
1322.992	0.616	correct	0back	Block2	0back/STIM_015.jpg
1326.864	0.823	correct	0back	Block2	0back/STIM_015.jpg
1331.358	0.768	correct	0back	Block2	0back/STIM_015.jpg
1334.694	0.595	correct	0back	Block2	0back/STIM_016.jpg
1337.869	0.529	correct	0back	Block2	0back/STIM_016.jpg
1341.329	0.614	correct	0back	Block2	0back/STIM_016.jpg
1344.667	0.557	correct	0back	Block2	0back/STIM_017.jpg
1349.062	0.53	correct	0back	Block2	0back/STIM_017.jpg
1352.122	0.533	correct	0back	Block2	0back/STIM_017.jpg
1354.666	0.656	correct	0back	Block2	0back/STIM_018.jpg
1359.081	0.496	correct	0back	Block2	0back/STIM_018.jpg
1362.689	0.814	incorrect	0back	Block2	0back/STIM_018.jpg
1365.74	0.617	correct	0back	Block2	0back/STIM_019.jpg
1369.565	0.437	correct	0back	Block2	0back/STIM_019.jpg
1373.643	0.451	correct	0back	Block2	0back/STIM_019.jpg
1376.075	0.78	correct	2back	Block3	2back/STIM_000.jpg
1380.058	0.996	correct	2back	Block3	2back/STIM_000.jpg
1384.713	1.032	correct	2back	Block3	2back/STIM_000.jpg
1388.455	0.966	correct	2back	Block3	2back/STIM_001.jpg
1392.665	0.986	correct	2back	Block3	2back/STIM_001.jpg
1396.762	0.913	correct	2back	Block3	2back/STIM_001.jpg
1400.983	0.537	correct	2back	Block3	2back/STIM_002.jpg
1404.401	0.942	correct	2back	Block3	2back/STIM_002.jpg
1408.63	0.918	correct	2back	Block3	2back/STIM_002.jpg
1411.506	0.715	correct	2back	Block3	2back/STIM_003.jpg
1415.94	0.486	correct	2back	Block3	2back/STIM_003.jpg
1419.355	0.877	correct	2back	Block3	2back/STIM_003.jpg
1423.39	0.513	incorrect	2back	Block3	2back/STIM_004.jpg
1426.636	0.861	correct	2back	Block3	2back/STIM_004.jpg
1430.097	0.927	correct	2back	Block3	2back/STIM_004.jpg
1433.034	0.934	correct	2back	Block3	2back/STIM_005.jpg
1436.571	0.618	correct	2back	Block3	2back/STIM_005.jpg
1440.502	0.562	correct	2back	Block3	2back/STIM_005.jpg
1443.64	0.976	correct	2back	Block3	2back/STIM_006.jpg
1448.422	0.911	correct	2back	Block3	2back/STIM_006.jpg
1452.794	0.839	correct	2back	Block3	2back/STIM_006.jpg
1456.504	0.913	incorrect	2back	Block3	2back/STIM_007.jpg
1460.207	0.827	correct	2back	Block3	2back/STIM_007.jpg
1464.528	0.635	correct	2back	Block3	2back/STIM_007.jpg
1468.158	0.653	correct	2back	Block3	2back/STIM_008.jpg
1472.192	0.644	correct	2back	Block3	2back/STIM_008.jpg
1476.3	0.705	correct	2back	Block3	2back/STIM_008.jpg
1480.639	0.892	correct	2back	Block3	2back/STIM_009.jpg
1484.572	0.701	correct	2back	Block3	2back/STIM_009.jpg
1487.493	0.828	correct	2back	Block3	2back/STIM_009.jpg
1491.338	0.981	incorrect	2back	Block3	2back/STIM_010.jpg
1494.559	0.498	correct	2back	Block3	2back/STIM_010.jpg
1498.923	0.611	incorrect	2back	Block3	2back/STIM_010.jpg
1501.813	0.446	correct	2back	Block3	2back/STIM_011.jpg
1505.653	0.987	correct	2back	Block3	2back/STIM_011.jpg
1509.605	0.657	correct	2back	Block3	2back/STIM_011.jpg
1513.084	0.726	correct	2back	Block3	2back/STIM_012.jpg
1516.936	0.73	correct	2back	Block3	2back/STIM_012.jpg
1520.777	0.579	correct	2back	Block3	2back/STIM_012.jpg
1524.92	0.972	correct	2back	Block3	2back/STIM_013.jpg
1529.101	0.991	correct	2back	Block3	2back/STIM_013.jpg
1532.762	0.979	correct	2back	Block3	2back/STIM_013.jpg
1536.438	0.951	incorrect	2back	Block3	2back/STIM_014.jpg
1540.866	0.595	correct	2back	Block3	2back/STIM_014.jpg
1545.355	0.893	correct	2back	Block3	2back/STIM_014.jpg
1549.444	0.69	correct	2back	Block3	2back/STIM_015.jpg
1553.034	0.697	correct	2back	Block3	2back/STIM_015.jpg
1557.18	0.904	correct	2back	Block3	2back/STIM_015.jpg
1561.181	0.613	incorrect	2back	Block3	2back/STIM_016.jpg
1564.235	0.519	correct	2back	Block3	2back/STIM_016.jpg
1567.088	1.026	correct	2back	Block3	2back/STIM_016.jpg
1570.975	0.607	correct	2back	Block3	2back/STIM_017.jpg
1574.502	1.013	correct	2back	Block3	2back/STIM_017.jpg
1579.079	0.494	correct	2back	Block3	2back/STIM_017.jpg
1582.98	0.785	correct	2back	Block3	2back/STIM_018.jpg
1586.512	0.878	correct	2back	Block3	2back/STIM_018.jpg
1590.991	0.694	correct	2back	Block3	2back/STIM_018.jpg
1594.467	0.529	correct	2back	Block3	2back/STIM_019.jpg
1598.145	0.483	correct	2back	Block3	2back/STIM_019.jpg
1601.78	0.794	correct	2back	Block3	2back/STIM_019.jpg
1605.509	0.751	correct	2back	Block3	2back/STIM_020.jpg
1610.059	0.817	correct	2back	Block3	2back/STIM_020.jpg
1614.333	0.9	correct	2back	Block3	2back/STIM_020.jpg
1617.295	0.461	correct	2back	Block3	2back/STIM_021.jpg
1621.667	0.544	correct	2back	Block3	2back/STIM_021.jpg
1624.274	0.578	correct	2back	Block3	2back/STIM_021.jpg
1628.024	0.554	correct	2back	Block3	2back/STIM_022.jpg
1631.851	0.878	correct	2back	Block3	2back/STIM_022.jpg
1636.103	0.661	correct	2back	Block3	2back/STIM_022.jpg
1639.19	0.885	correct	2back	Block3	2back/STIM_023.jpg
1642.905	0.875	correct	2back	Block3	2back/STIM_023.jpg
1647.367	0.916	correct	2back	Block3	2back/STIM_023.jpg
1651.731	0.894	correct	2back	Block3	2back/STIM_024.jpg
1655.249	0.944	correct	2back	Block3	2back/STIM_024.jpg
1659.908	0.881	correct	2back	Block3	2back/STIM_024.jpg
1664.271	0.513	correct	2back	Block3	2back/STIM_025.jpg
1667.42	0.741	correct	2back	Block3	2back/STIM_025.jpg
1671.462	0.769	correct	2back	Block3	2back/STIM_025.jpg
1675.895	0.713	correct	2back	Block3	2back/STIM_026.jpg
1679.777	0.838	correct	2back	Block3	2back/STIM_026.jpg
1683.793	0.868	correct	2back	Block3	2back/STIM_026.jpg
1687.929	0.665	incorrect	2back	Block3	2back/STIM_027.jpg
1690.98	0.599	correct	2back	Block3	2back/STIM_027.jpg
1693.829	0.756	correct	2back	Block3	2back/STIM_027.jpg
1698.27	0.746	correct	2back	Block3	2back/STIM_028.jpg
1701.129	0.729	incorrect	2back	Block3	2back/STIM_028.jpg
1704.417	0.717	correct	2back	Block3	2back/STIM_028.jpg
1708.146	0.874	correct	2back	Block3	2back/STIM_029.jpg
1711.174	0.742	correct	2back	Block3	2back/STIM_029.jpg
1714.442	0.635	correct	2back	Block3	2back/STIM_029.jpg
1717.675	0.944	correct	2back	Block3	2back/STIM_030.jpg
1722.424	0.898	correct	2back	Block3	2back/STIM_030.jpg
1726.057	0.578	incorrect	2back	Block3	2back/STIM_030.jpg
1729.258	0.661	correct	2back	Block3	2back/STIM_031.jpg
1732.255	0.693	correct	2back	Block3	2back/STIM_031.jpg
1735.921	0.492	correct	2back	Block3	2back/STIM_031.jpg
1738.743	0.603	correct	2back	Block3	2back/STIM_032.jpg
1742.401	0.775	correct	2back	Block3	2back/STIM_032.jpg
1745.408	0.732	correct	2back	Block3	2back/STIM_032.jpg
1749.01	0.969	correct	2back	Block3	2back/STIM_033.jpg
1752.429	0.487	correct	2back	Block3	2back/STIM_033.jpg
1755.972	0.588	correct	2back	Block3	2back/STIM_033.jpg
1759.193	0.658	correct	2back	Block3	2back/STIM_034.jpg
1762.12	0.621	correct	2back	Block3	2back/STIM_034.jpg
1765.962	0.693	correct	2back	Block3	2back/STIM_034.jpg
1770.054	0.75	correct	2back	Block3	2back/STIM_035.jpg
1773.049	0.53	correct	2back	Block3	2back/STIM_035.jpg
1775.978	0.448	incorrect	2back	Block3	2back/STIM_035.jpg
1780.289	1.009	correct	2back	Block3	2back/STIM_036.jpg
1784.428	0.564	correct	2back	Block3	2back/STIM_036.jpg
1787.698	0.944	correct	2back	Block3	2back/STIM_036.jpg
1791.886	0.783	correct	2back	Block3	2back/STIM_037.jpg
1794.72	0.627	correct	2back	Block3	2back/STIM_037.jpg
1798.041	0.561	correct	2back	Block3	2back/STIM_037.jpg
1801.803	0.507	correct	2back	Block3	2back/STIM_038.jpg
1805.751	0.599	correct	2back	Block3	2back/STIM_038.jpg
1809.105	0.606	correct	2back	Block3	2back/STIM_038.jpg
1812.964	0.451	correct	2back	Block3	2back/STIM_039.jpg
1815.695	0.725	correct	2back	Block3	2back/STIM_039.jpg
1819.995	0.527	correct	2back	Block3	2back/STIM_039.jpg
1824.399	0.448	correct	0back	Block3	0back/STIM_000.jpg
1828.004	0.765	correct	0back	Block3	0back/STIM_000.jpg
1831.765	0.606	correct	0back	Block3	0back/STIM_000.jpg
1834.343	0.554	correct	0back	Block3	0back/STIM_001.jpg
1837.9	0.527	correct	0back	Block3	0back/STIM_001.jpg
1841.594	0.709	correct	0back	Block3	0back/STIM_001.jpg
1844.955	0.592	correct	0back	Block3	0back/STIM_002.jpg
1848.025	0.49	correct	0back	Block3	0back/STIM_002.jpg
1852.457	0.482	correct	0back	Block3	0back/STIM_002.jpg
1856.905	0.439	correct	0back	Block3	0back/STIM_003.jpg
1860.475	0.514	correct	0back	Block3	0back/STIM_003.jpg
1864.815	0.76	correct	0back	Block3	0back/STIM_003.jpg
1869.159	0.804	correct	0back	Block3	0back/STIM_004.jpg
1873.807	0.679	correct	0back	Block3	0back/STIM_004.jpg
1877.305	0.666	correct	0back	Block3	0back/STIM_004.jpg
1881.615	0.704	correct	0back	Block3	0back/STIM_005.jpg
1886.109	0.469	correct	0back	Block3	0back/STIM_005.jpg
1889.379	0.449	correct	0back	Block3	0back/STIM_005.jpg
1892.799	0.801	correct	0back	Block3	0back/STIM_006.jpg
1896.664	0.423	correct	0back	Block3	0back/STIM_006.jpg
1900.799	0.426	correct	0back	Block3	0back/STIM_006.jpg
1904.379	0.727	correct	0back	Block3	0back/STIM_007.jpg
1907.948	0.48	correct	0back	Block3	0back/STIM_007.jpg
1911.323	0.491	correct	0back	Block3	0back/STIM_007.jpg
1915.075	0.836	incorrect	0back	Block3	0back/STIM_008.jpg
1919.208	0.821	correct	0back	Block3	0back/STIM_008.jpg
1923.297	0.571	correct	0back	Block3	0back/STIM_008.jpg
1926.189	0.793	correct	0back	Block3	0back/STIM_009.jpg
1929.883	0.834	incorrect	0back	Block3	0back/STIM_009.jpg
1933.919	0.703	correct	0back	Block3	0back/STIM_009.jpg
1938.261	0.445	correct	0back	Block3	0back/STIM_010.jpg
1941.056	0.477	correct	0back	Block3	0back/STIM_010.jpg
1944.621	0.516	correct	0back	Block3	0back/STIM_010.jpg
1947.528	0.665	correct	0back	Block3	0back/STIM_011.jpg
1950.735	0.694	correct	0back	Block3	0back/STIM_011.jpg
1955.318	0.696	correct	0back	Block3	0back/STIM_011.jpg
1959.782	0.727	correct	0back	Block3	0back/STIM_012.jpg
1964.107	0.756	correct	0back	Block3	0back/STIM_012.jpg
1967.403	0.746	correct	0back	Block3	0back/STIM_012.jpg
1970.901	0.674	correct	0back	Block3	0back/STIM_013.jpg
1974.836	0.646	correct	0back	Block3	0back/STIM_013.jpg
1979.379	0.585	correct	0back	Block3	0back/STIM_013.jpg
1982.596	0.622	correct	0back	Block3	0back/STIM_014.jpg
1985.611	0.487	correct	0back	Block3	0back/STIM_014.jpg
1990.022	0.604	correct	0back	Block3	0back/STIM_014.jpg
1994.175	0.707	correct	0back	Block3	0back/STIM_015.jpg
1997.033	0.842	incorrect	0back	Block3	0back/STIM_015.jpg
2000.706	0.616	correct	0back	Block3	0back/STIM_015.jpg
2005.119	0.673	correct	0back	Block3	0back/STIM_016.jpg
2009.357	0.718	correct	0back	Block3	0back/STIM_016.jpg
2014.017	0.455	correct	0back	Block3	0back/STIM_016.jpg
2016.609	0.659	correct	0back	Block3	0back/STIM_017.jpg
2020.666	0.623	correct	0back	Block3	0back/STIM_017.jpg
2024.113	0.57	correct	0back	Block3	0back/STIM_017.jpg
2028.154	0.588	correct	0back	Block3	0back/STIM_018.jpg
2032.01	0.673	incorrect	0back	Block3	0back/STIM_018.jpg
2036.35	0.544	correct	0back	Block3	0back/STIM_018.jpg
2039.502	0.6	correct	0back	Block3	0back/STIM_019.jpg
2043.324	0.676	correct	0back	Block3	0back/STIM_019.jpg
2047.274	0.581	correct	0back	Block3	0back/STIM_019.jpg
2051.596	0.834	correct	2back	Block4	2back/STIM_000.jpg
2054.589	0.515	correct	2back	Block4	2back/STIM_000.jpg
2057.559	0.927	correct	2back	Block4	2back/STIM_000.jpg
2062.207	0.627	correct	2back	Block4	2back/STIM_001.jpg
2065.647	0.814	correct	2back	Block4	2back/STIM_001.jpg
2070.27	0.708	correct	2back	Block4	2back/STIM_001.jpg
2074.407	0.843	correct	2back	Block4	2back/STIM_002.jpg
2079.086	0.96	correct	2back	Block4	2back/STIM_002.jpg
2083.781	0.463	correct	2back	Block4	2back/STIM_002.jpg
2087.004	0.893	correct	2back	Block4	2back/STIM_003.jpg
2091.026	0.731	correct	2back	Block4	2back/STIM_003.jpg
2093.862	0.482	correct	2back	Block4	2back/STIM_003.jpg
2096.582	0.699	correct	2back	Block4	2back/STIM_004.jpg
2099.692	0.62	correct	2back	Block4	2back/STIM_004.jpg
2102.73	0.806	correct	2back	Block4	2back/STIM_004.jpg
2106.885	0.682	correct	2back	Block4	2back/STIM_005.jpg
2110.617	0.633	correct	2back	Block4	2back/STIM_005.jpg
2114.512	0.662	correct	2back	Block4	2back/STIM_005.jpg
2119.073	0.986	correct	2back	Block4	2back/STIM_006.jpg
2122.833	0.771	correct	2back	Block4	2back/STIM_006.jpg
2127.17	0.726	correct	2back	Block4	2back/STIM_006.jpg
2130.74	0.944	correct	2back	Block4	2back/STIM_007.jpg
2134.451	0.822	correct	2back	Block4	2back/STIM_007.jpg
2137.341	0.836	correct	2back	Block4	2back/STIM_007.jpg
2140.48	0.747	correct	2back	Block4	2back/STIM_008.jpg
2144.878	0.711	correct	2back	Block4	2back/STIM_008.jpg
2148.014	0.63	correct	2back	Block4	2back/STIM_008.jpg
2151.807	0.448	correct	2back	Block4	2back/STIM_009.jpg
2154.601	0.725	correct	2back	Block4	2back/STIM_009.jpg
2158.138	0.539	correct	2back	Block4	2back/STIM_009.jpg
2160.958	0.935	correct	2back	Block4	2back/STIM_010.jpg
2164.578	0.747	correct	2back	Block4	2back/STIM_010.jpg
2168.814	0.848	correct	2back	Block4	2back/STIM_010.jpg
2172.754	0.528	correct	2back	Block4	2back/STIM_011.jpg
2175.477	0.568	correct	2back	Block4	2back/STIM_011.jpg
2179.187	0.933	incorrect	2back	Block4	2back/STIM_011.jpg
2182.089	0.66	correct	2back	Block4	2back/STIM_012.jpg
2185.156	0.526	correct	2back	Block4	2back/STIM_012.jpg
2189.197	0.862	correct	2back	Block4	2back/STIM_012.jpg
2192.034	0.931	correct	2back	Block4	2back/STIM_013.jpg
2195.341	1.018	correct	2back	Block4	2back/STIM_013.jpg
2199.264	0.93	correct	2back	Block4	2back/STIM_013.jpg
2202.322	0.76	correct	2back	Block4	2back/STIM_014.jpg
2206.007	0.953	correct	2back	Block4	2back/STIM_014.jpg
2209.728	0.892	correct	2back	Block4	2back/STIM_014.jpg
2214.164	0.59	correct	2back	Block4	2back/STIM_015.jpg
2216.806	0.492	correct	2back	Block4	2back/STIM_015.jpg
2220.816	0.573	correct	2back	Block4	2back/STIM_015.jpg
2223.775	1.031	correct	2back	Block4	2back/STIM_016.jpg
2228.418	0.903	correct	2back	Block4	2back/STIM_016.jpg
2232.067	0.902	correct	2back	Block4	2back/STIM_016.jpg
2236.854	0.886	correct	2back	Block4	2back/STIM_017.jpg
2241.689	0.679	correct	2back	Block4	2back/STIM_017.jpg
2245.521	0.501	correct	2back	Block4	2back/STIM_017.jpg
2249.502	0.963	correct	2back	Block4	2back/STIM_018.jpg
2253.926	0.458	correct	2back	Block4	2back/STIM_018.jpg
2256.459	0.88	correct	2back	Block4	2back/STIM_018.jpg
2259.61	0.469	correct	2back	Block4	2back/STIM_019.jpg
2263.235	0.511	correct	2back	Block4	2back/STIM_019.jpg
2267.186	0.929	correct	2back	Block4	2back/STIM_019.jpg
2270.342	0.533	correct	2back	Block4	2back/STIM_020.jpg
2273.622	0.569	correct	2back	Block4	2back/STIM_020.jpg
2277.566	0.653	correct	2back	Block4	2back/STIM_020.jpg
2280.316	0.47	correct	2back	Block4	2back/STIM_021.jpg
2283.649	0.537	correct	2back	Block4	2back/STIM_021.jpg
2287.102	0.855	correct	2back	Block4	2back/STIM_021.jpg
2290.967	0.661	correct	2back	Block4	2back/STIM_022.jpg
2295.148	0.482	correct	2back	Block4	2back/STIM_022.jpg
2299.318	0.965	correct	2back	Block4	2back/STIM_022.jpg
2302.807	0.958	correct	2back	Block4	2back/STIM_023.jpg
2307.176	0.983	correct	2back	Block4	2back/STIM_023.jpg
2311.859	0.692	correct	2back	Block4	2back/STIM_023.jpg
2314.559	0.877	correct	2back	Block4	2back/STIM_024.jpg
2317.668	0.654	correct	2back	Block4	2back/STIM_024.jpg
2321.266	0.835	correct	2back	Block4	2back/STIM_024.jpg
2325.873	0.518	correct	2back	Block4	2back/STIM_025.jpg
2328.507	0.987	correct	2back	Block4	2back/STIM_025.jpg
2331.845	0.639	correct	2back	Block4	2back/STIM_025.jpg
2336.337	0.623	correct	2back	Block4	2back/STIM_026.jpg
2339.524	0.82	correct	2back	Block4	2back/STIM_026.jpg
2343.167	0.746	correct	2back	Block4	2back/STIM_026.jpg
2346.318	0.834	correct	2back	Block4	2back/STIM_027.jpg
2349.377	0.822	correct	2back	Block4	2back/STIM_027.jpg
2353.369	0.971	correct	2back	Block4	2back/STIM_027.jpg
2358.011	0.94	correct	2back	Block4	2back/STIM_028.jpg
2361.29	0.742	correct	2back	Block4	2back/STIM_028.jpg
2365.474	0.986	correct	2back	Block4	2back/STIM_028.jpg
2370.125	0.704	correct	2back	Block4	2back/STIM_029.jpg
2372.818	0.453	correct	2back	Block4	2back/STIM_029.jpg
2376.021	0.5	correct	2back	Block4	2back/STIM_029.jpg
2378.686	0.443	correct	2back	Block4	2back/STIM_030.jpg
2382.466	0.773	correct	2back	Block4	2back/STIM_030.jpg
2385.883	0.776	correct	2back	Block4	2back/STIM_030.jpg
2388.859	0.514	incorrect	2back	Block4	2back/STIM_031.jpg
2392.619	0.576	correct	2back	Block4	2back/STIM_031.jpg
2395.291	0.755	correct	2back	Block4	2back/STIM_031.jpg
2399.792	0.85	correct	2back	Block4	2back/STIM_032.jpg
2403.239	0.936	correct	2back	Block4	2back/STIM_032.jpg
2406.689	0.57	correct	2back	Block4	2back/STIM_032.jpg
2410.024	0.718	correct	2back	Block4	2back/STIM_033.jpg
2412.997	0.473	correct	2back	Block4	2back/STIM_033.jpg
2415.837	0.625	incorrect	2back	Block4	2back/STIM_033.jpg
2418.535	0.79	correct	2back	Block4	2back/STIM_034.jpg
2422.7	0.565	correct	2back	Block4	2back/STIM_034.jpg
2425.751	0.661	correct	2back	Block4	2back/STIM_034.jpg
2428.402	0.618	correct	2back	Block4	2back/STIM_035.jpg
2432.611	0.724	correct	2back	Block4	2back/STIM_035.jpg
2437.264	0.461	correct	2back	Block4	2back/STIM_035.jpg
2440.217	0.931	correct	2back	Block4	2back/STIM_036.jpg
2444.062	0.963	correct	2back	Block4	2back/STIM_036.jpg
2447.142	0.794	correct	2back	Block4	2back/STIM_036.jpg
2451.425	0.495	correct	2back	Block4	2back/STIM_037.jpg
2454.546	0.562	correct	2back	Block4	2back/STIM_037.jpg
2457.677	0.86	correct	2back	Block4	2back/STIM_037.jpg
2460.775	0.8	correct	2back	Block4	2back/STIM_038.jpg
2463.6	0.964	correct	2back	Block4	2back/STIM_038.jpg
2468.346	0.549	correct	2back	Block4	2back/STIM_038.jpg
2470.971	0.7	correct	2back	Block4	2back/STIM_039.jpg
2474.663	0.81	correct	2back	Block4	2back/STIM_039.jpg
2478.073	0.579	correct	2back	Block4	2back/STIM_039.jpg
2482.292	0.442	correct	0back	Block4	0back/STIM_000.jpg
2485.402	0.541	correct	0back	Block4	0back/STIM_000.jpg
2488.1	0.57	correct	0back	Block4	0back/STIM_000.jpg
2491.41	0.698	correct	0back	Block4	0back/STIM_001.jpg
2494.978	0.754	correct	0back	Block4	0back/STIM_001.jpg
2498.609	0.685	correct	0back	Block4	0back/STIM_001.jpg
2502.213	0.477	correct	0back	Block4	0back/STIM_002.jpg
2504.84	0.791	correct	0back	Block4	0back/STIM_002.jpg
2507.801	0.5	correct	0back	Block4	0back/STIM_002.jpg
2511.58	0.453	correct	0back	Block4	0back/STIM_003.jpg
2515.434	0.743	incorrect	0back	Block4	0back/STIM_003.jpg
2518.569	0.639	correct	0back	Block4	0back/STIM_003.jpg
2522.186	0.688	correct	0back	Block4	0back/STIM_004.jpg
2525.954	0.426	correct	0back	Block4	0back/STIM_004.jpg
2528.572	0.537	correct	0back	Block4	0back/STIM_004.jpg
2531.585	0.808	correct	0back	Block4	0back/STIM_005.jpg
2536.125	0.824	correct	0back	Block4	0back/STIM_005.jpg
2539.785	0.821	correct	0back	Block4	0back/STIM_005.jpg
2543.615	0.645	correct	0back	Block4	0back/STIM_006.jpg
2546.944	0.601	incorrect	0back	Block4	0back/STIM_006.jpg
2550.71	0.742	correct	0back	Block4	0back/STIM_006.jpg
2554.232	0.636	incorrect	0back	Block4	0back/STIM_007.jpg
2557.562	0.759	correct	0back	Block4	0back/STIM_007.jpg
2561.241	0.532	correct	0back	Block4	0back/STIM_007.jpg
2565.717	0.553	correct	0back	Block4	0back/STIM_008.jpg
2568.431	0.771	correct	0back	Block4	0back/STIM_008.jpg
2571.253	0.764	correct	0back	Block4	0back/STIM_008.jpg
2574.125	0.515	correct	0back	Block4	0back/STIM_009.jpg
2578.229	0.603	correct	0back	Block4	0back/STIM_009.jpg
2581.079	0.642	correct	0back	Block4	0back/STIM_009.jpg
2585.045	0.637	correct	0back	Block4	0back/STIM_010.jpg
2588.692	0.598	correct	0back	Block4	0back/STIM_010.jpg
2591.346	0.433	correct	0back	Block4	0back/STIM_010.jpg
2594.935	0.674	correct	0back	Block4	0back/STIM_011.jpg
2598.502	0.782	correct	0back	Block4	0back/STIM_011.jpg
2602.396	0.656	correct	0back	Block4	0back/STIM_011.jpg
2605.475	0.482	correct	0back	Block4	0back/STIM_012.jpg
2609.202	0.578	correct	0back	Block4	0back/STIM_012.jpg
2613.411	0.54	correct	0back	Block4	0back/STIM_012.jpg
2617.257	0.709	correct	0back	Block4	0back/STIM_013.jpg
2621.578	0.833	correct	0back	Block4	0back/STIM_013.jpg
2624.689	0.426	correct	0back	Block4	0back/STIM_013.jpg
2627.673	0.585	correct	0back	Block4	0back/STIM_014.jpg
2630.54	0.669	correct	0back	Block4	0back/STIM_014.jpg
2634.446	0.444	correct	0back	Block4	0back/STIM_014.jpg
2638.62	0.835	correct	0back	Block4	0back/STIM_015.jpg
2642.27	0.644	correct	0back	Block4	0back/STIM_015.jpg
2645.011	0.429	correct	0back	Block4	0back/STIM_015.jpg
2648.348	0.504	correct	0back	Block4	0back/STIM_016.jpg
2651.369	0.711	correct	0back	Block4	0back/STIM_016.jpg
2655.688	0.738	incorrect	0back	Block4	0back/STIM_016.jpg
2660.026	0.579	correct	0back	Block4	0back/STIM_017.jpg
2663.968	0.621	correct	0back	Block4	0back/STIM_017.jpg
2666.975	0.788	correct	0back	Block4	0back/STIM_017.jpg
2671.005	0.835	correct	0back	Block4	0back/STIM_018.jpg
2673.908	0.761	correct	0back	Block4	0back/STIM_018.jpg
2677.108	0.605	incorrect	0back	Block4	0back/STIM_018.jpg
2680.217	0.824	correct	0back	Block4	0back/STIM_019.jpg
2683.51	0.61	correct	0back	Block4	0back/STIM_019.jpg
2687.112	0.669	correct	0back	Block4	0back/STIM_019.jpg
