onset	duration	response_time_ms	trial_type	learning_stage	stimulus	response_port
0.0	1.608	1607.9	2back	Block1	2back/STIM_000.jpg	99
5.439	1.474	1473.8	2back	Block1	2back/STIM_000.jpg	99
10.801	1.376	1375.5	2back	Block1	2back/STIM_000.jpg	100
14.353	1.725	1724.7	2back	Block1	2back/STIM_001.jpg	99
19.558	1.634	1633.9	2back	Block1	2back/STIM_001.jpg	99
25.036	1.143	1143.1	2back	Block1	2back/STIM_001.jpg	100
28.235	1.076	1075.6	2back	Block1	2back/STIM_002.jpg	99
32.018	1.348	1347.6	2back	Block1	2back/STIM_002.jpg	99
37.113	1.306	1306.0	2back	Block1	2back/STIM_002.jpg	100
41.662	1.657	1656.7	2back	Block1	2back/STIM_003.jpg	100
46.06	1.062	1062.2	2back	Block1	2back/STIM_003.jpg	99
50.8	1.352	1352.3	2back	Block1	2back/STIM_003.jpg	99
55.471	1.419	1419.1	2back	Block1	2back/STIM_004.jpg	99
60.033	1.166	1165.5	2back	Block1	2back/STIM_004.jpg	100
63.902	1.189	1188.8	2back	Block1	2back/STIM_004.jpg	99
68.972	0.761	760.6	2back	Block1	2back/STIM_005.jpg	100
73.146	0.898	897.7	2back	Block1	2back/STIM_005.jpg	100
76.577	1.366	1365.8	2back	Block1	2back/STIM_005.jpg	100
81.352	1.301	1300.6	2back	Block1	2back/STIM_006.jpg	100
86.429	1.353	1353.1	2back	Block1	2back/STIM_006.jpg	100
91.731	1.176	1176.0	2back	Block1	2back/STIM_006.jpg	100
95.195	1.702	1702.1	2back	Block1	2back/STIM_007.jpg	100
100.046	1.04	1040.5	2back	Block1	2back/STIM_007.jpg	99
103.188	1.216	1215.7	2back	Block1	2back/STIM_007.jpg	100
106.891	1.01	1010.5	2back	Block1	2back/STIM_008.jpg	99
110.409	1.057	1056.9	2back	Block1	2back/STIM_008.jpg	100
114.053	1.498	1497.8	2back	Block1	2back/STIM_008.jpg	100
118.655	1.333	1332.8	2back	Block1	2back/STIM_009.jpg	99
123.747	1.528	1528.2	2back	Block1	2back/STIM_009.jpg	100
127.531	1.1	1099.6	2back	Block1	2back/STIM_009.jpg	99
132.521	0.931	931.2	2back	Block1	2back/STIM_010.jpg	99
136.595	1.046	1046.4	2back	Block1	2back/STIM_010.jpg	99
140.339	1.484	1484.3	2back	Block1	2back/STIM_010.jpg	99
145.319	0.921	921.1	2back	Block1	2back/STIM_011.jpg	100
148.776	0.848	847.6	2back	Block1	2back/STIM_011.jpg	100
153.313	0.827	827.3	2back	Block1	2back/STIM_011.jpg	99
157.118	1.386	1386.4	2back	Block1	2back/STIM_012.jpg	99
161.218	0.933	932.7	2back	Block1	2back/STIM_012.jpg	100
165.209	0.865	865.2	2back	Block1	2back/STIM_012.jpg	100
168.307	1.626	1625.7	2back	Block1	2back/STIM_013.jpg	100
173.28	1.449	1448.8	2back	Block1	2back/STIM_013.jpg	99
177.601	1.065	1065.4	2back	Block1	2back/STIM_013.jpg	100
181.151	1.084	1083.7	2back	Block1	2back/STIM_014.jpg	99
184.287	1.394	1393.8	2back	Block1	2back/STIM_014.jpg	100
189.171	1.453	1453.2	2back	Block1	2back/STIM_014.jpg	100
192.897	1.405	1405.0	2back	Block1	2back/STIM_015.jpg	99
196.71	1.436	1435.9	2back	Block1	2back/STIM_015.jpg	99
201.835	1.279	1279.4	2back	Block1	2back/STIM_015.jpg	100
205.642	1.648	1648.1	2back	Block1	2back/STIM_016.jpg	99
209.296	0.794	794.3	2back	Block1	2back/STIM_016.jpg	100
212.209	0.938	938.3	2back	Block1	2back/STIM_016.jpg	99
215.196	1.368	1367.7	2back	Block1	2back/STIM_017.jpg	100
219.086	1.136	1135.9	2back	Block1	2back/STIM_017.jpg	99
223.276	1.369	1369.2	2back	Block1	2back/STIM_017.jpg	100
226.9	1.102	1102.3	2back	Block1	2back/STIM_018.jpg	99
231.272	1.435	1435.1	2back	Block1	2back/STIM_018.jpg	100
235.777	1.314	1314.4	2back	Block1	2back/STIM_018.jpg	99
241.045	1.489	1488.8	2back	Block1	2back/STIM_019.jpg	99
246.197	1.215	1214.7	2back	Block1	2back/STIM_019.jpg	100
250.32	0.699	698.7	2back	Block1	2back/STIM_019.jpg	100
253.586	1.553	1553.4	2back	Block1	2back/STIM_020.jpg	99
257.531	1.046	1045.7	2back	Block1	2back/STIM_020.jpg	100
262.234	0.967	966.9	2back	Block1	2back/STIM_020.jpg	100
266.507	0.997	996.6	2back	Block1	2back/STIM_021.jpg	99
270.753	1.531	1531.0	2back	Block1	2back/STIM_021.jpg	99
275.57	1.362	1362.5	2back	Block1	2back/STIM_021.jpg	99
280.294	1.643	1643.0	2back	Block1	2back/STIM_022.jpg	100
284.888	1.554	1554.3	2back	Block1	2back/STIM_022.jpg	100
289.265	1.195	1194.9	2back	Block1	2back/STIM_022.jpg	99
292.697	1.081	1081.4	2back	Block1	2back/STIM_023.jpg	99
297.24	1.064	1063.5	2back	Block1	2back/STIM_023.jpg	100
302.032	1.128	1128.2	2back	Block1	2back/STIM_023.jpg	100
306.881	1.66	1660.1	2back	Block1	2back/STIM_024.jpg	99
311.812	1.583	1583.1	2back	Block1	2back/STIM_024.jpg	99
315.599	0.667	666.9	2back	Block1	2back/STIM_024.jpg	100
318.452	1.152	1151.5	2back	Block1	2back/STIM_025.jpg	100
322.369	1.501	1500.8	2back	Block1	2back/STIM_025.jpg	99
327.648	1.468	1468.4	2back	Block1	2back/STIM_025.jpg	100
331.234	1.347	1346.8	2back	Block1	2back/STIM_026.jpg	99
334.99	1.309	1308.6	2back	Block1	2back/STIM_026.jpg	99
339.554	1.012	1011.8	2back	Block1	2back/STIM_026.jpg	100
343.946	1.094	1094.3	2back	Block1	2back/STIM_027.jpg	100
347.657	0.826	826.3	2back	Block1	2back/STIM_027.jpg	99
351.307	0.923	923.2	2back	Block1	2back/STIM_027.jpg	99
354.456	0.833	833.0	2back	Block1	2back/STIM_028.jpg	99
358.827	1.132	1132.5	2back	Block1	2back/STIM_028.jpg	99
363.129	1.302	1301.7	2back	Block1	2back/STIM_028.jpg	100
366.692	0.942	942.0	2back	Block1	2back/STIM_029.jpg	100
370.253	1.061	1061.3	2back	Block1	2back/STIM_029.jpg	99
374.858	0.703	703.4	2back	Block1	2back/STIM_029.jpg	100
378.158	1.612	1611.7	2back	Block1	2back/STIM_030.jpg	100
382.238	1.214	1214.0	2back	Block1	2back/STIM_030.jpg	100
385.972	1.064	1064.5	2back	Block1	2back/STIM_030.jpg	99
389.915	1.25	1250.4	2back	Block1	2back/STIM_031.jpg	99
393.3	1.224	1223.5	2back	Block1	2back/STIM_031.jpg	99
398.088	0.912	911.8	2back	Block1	2back/STIM_031.jpg	99
401.956	1.46	1460.5	2back	Block1	2back/STIM_032.jpg	100
406.863	1.059	1059.3	2back	Block1	2back/STIM_032.jpg	99
411.518	1.51	1509.5	2back	Block1	2back/STIM_032.jpg	100
415.089	1.634	1634.4	2back	Block1	2back/STIM_033.jpg	99
419.717	1.279	1279.1	2back	Block1	2back/STIM_033.jpg	100
423.841	0.947	946.7	2back	Block1	2back/STIM_033.jpg	99
427.312	1.304	1303.5	2back	Block1	2back/STIM_034.jpg	100
432.135	0.967	967.4	2back	Block1	2back/STIM_034.jpg	100
435.522	1.438	1438.3	2back	Block1	2back/STIM_034.jpg	100
440.691	1.382	1382.5	2back	Block1	2back/STIM_035.jpg	100
445.638	0.733	732.8	2back	Block1	2back/STIM_035.jpg	99
448.85	0.954	953.5	2back	Block1	2back/STIM_035.jpg	99
453.175	1.724	1724.1	2back	Block1	2back/STIM_036.jpg	99
457.676	1.574	1574.1	2back	Block1	2back/STIM_036.jpg	100
462.032	1.523	1522.9	2back	Block1	2back/STIM_036.jpg	100
466.622	1.398	1398.5	2back	Block1	2back/STIM_037.jpg	99
470.959	1.396	1395.7	2back	Block1	2back/STIM_037.jpg	100
474.621	1.294	1293.5	2back	Block1	2back/STIM_037.jpg	100
478.018	0.918	918.5	2back	Block1	2back/STIM_038.jpg	100
482.729	1.012	1012.4	2back	Block1	2back/STIM_038.jpg	100
486.884	1.542	1542.2	2back	Block1	2back/STIM_038.jpg	99
491.405	1.691	1691.3	2back	Block1	2back/STIM_039.jpg	100
496.668	1.235	1234.9	2back	Block1	2back/STIM_039.jpg	99
500.886	0.994	994.3	2back	Block1	2back/STIM_039.jpg	100
505.319	0.72	720.0	0back	Block1	0back/STIM_000.jpg	100
508.351	0.551	550.7	0back	Block1	0back/STIM_000.jpg	100
511.587	0.862	862.4	0back	Block1	0back/STIM_000.jpg	99
515.59	0.826	825.8	0back	Block1	0back/STIM_001.jpg	100
518.716	0.515	515.2	0back	Block1	0back/STIM_001.jpg	100
522.555	0.504	504.4	0back	Block1	0back/STIM_001.jpg	99
526.253	0.957	957.3	0back	Block1	0back/STIM_002.jpg	100
529.814	0.81	810.3	0back	Block1	0back/STIM_002.jpg	100
533.0	0.796	796.0	0back	Block1	0back/STIM_002.jpg	99
537.631	0.529	528.9	0back	Block1	0back/STIM_003.jpg	100
541.275	0.587	587.4	0back	Block1	0back/STIM_003.jpg	100
545.623	0.867	867.4	0back	Block1	0back/STIM_003.jpg	99
549.29	0.986	986.2	0back	Block1	0back/STIM_004.jpg	100
553.538	0.532	532.5	0back	Block1	0back/STIM_004.jpg	100
557.768	0.645	644.8	0back	Block1	0back/STIM_004.jpg	100
561.435	0.531	530.8	0back	Block1	0back/STIM_005.jpg	99
565.539	0.945	944.7	0back	Block1	0back/STIM_005.jpg	99
568.813	0.972	971.5	0back	Block1	0back/STIM_005.jpg	100
572.541	0.655	654.8	0back	Block1	0back/STIM_006.jpg	100
576.351	0.558	558.0	0back	Block1	0back/STIM_006.jpg	100
579.711	0.893	892.9	0back	Block1	0back/STIM_006.jpg	99
584.381	0.662	662.0	0back	Block1	0back/STIM_007.jpg	99
587.268	0.845	845.0	0back	Block1	0back/STIM_007.jpg	100
590.379	0.686	686.3	0back	Block1	0back/STIM_007.jpg	99
594.067	0.892	892.4	0back	Block1	0back/STIM_008.jpg	99
598.48	0.704	703.5	0back	Block1	0back/STIM_008.jpg	99
602.425	0.874	873.7	0back	Block1	0back/STIM_008.jpg	100
606.247	0.605	605.4	0back	Block1	0back/STIM_009.jpg	99
609.327	0.561	561.4	0back	Block1	0back/STIM_009.jpg	99
612.564	0.878	877.9	0back	Block1	0back/STIM_009.jpg	100
617.339	0.753	753.0	0back	Block1	0back/STIM_010.jpg	99
621.379	0.627	627.4	0back	Block1	0back/STIM_010.jpg	99
625.023	0.637	637.0	0back	Block1	0back/STIM_010.jpg	100
629.103	0.915	915.1	0back	Block1	0back/STIM_011.jpg	100
632.269	0.621	621.0	0back	Block1	0back/STIM_011.jpg	100
635.305	0.73	730.2	0back	Block1	0back/STIM_011.jpg	100
639.423	0.723	722.6	0back	Block1	0back/STIM_012.jpg	100
643.486	0.521	520.8	0back	Block1	0back/STIM_012.jpg	100
647.475	0.662	661.9	0back	Block1	0back/STIM_012.jpg	100
650.392	0.829	829.1	0back	Block1	0back/STIM_013.jpg	99
654.825	0.939	938.7	0back	Block1	0back/STIM_013.jpg	100
659.571	0.686	685.8	0back	Block1	0back/STIM_013.jpg	100
662.674	0.572	571.5	0back	Block1	0back/STIM_014.jpg	99
666.643	0.691	690.9	0back	Block1	0back/STIM_014.jpg	99
670.678	0.524	524.0	0back	Block1	0back/STIM_014.jpg	100
673.636	0.821	820.7	0back	Block1	0back/STIM_015.jpg	99
676.537	0.757	757.1	0back	Block1	0back/STIM_015.jpg	100
679.452	0.928	927.8	0back	Block1	0back/STIM_015.jpg	99
682.609	0.83	829.6	0back	Block1	0back/STIM_016.jpg	99
686.334	0.573	572.6	0back	Block1	0back/STIM_016.jpg	99
689.11	0.571	571.3	0back	Block1	0back/STIM_016.jpg	99
692.089	0.56	560.4	0back	Block1	0back/STIM_017.jpg	99
696.323	0.879	878.7	0back	Block1	0back/STIM_017.jpg	99
700.108	0.567	566.8	0back	Block1	0back/STIM_017.jpg	100
703.061	0.89	889.6	0back	Block1	0back/STIM_018.jpg	100
706.138	0.752	751.9	0back	Block1	0back/STIM_018.jpg	99
709.617	0.518	517.8	0back	Block1	0back/STIM_018.jpg	99
712.332	0.505	504.9	0back	Block1	0back/STIM_019.jpg	99
714.913	0.931	931.1	0back	Block1	0back/STIM_019.jpg	99
718.528	0.7	699.6	0back	Block1	0back/STIM_019.jpg	100
722.669	1.291	1291.4	2back	Block2	2back/STIM_000.jpg	99
727.369	0.858	858.1	2back	Block2	2back/STIM_000.jpg	99
731.941	0.989	989.3	2back	Block2	2back/STIM_000.jpg	100
735.462	1.4	1400.0	2back	Block2	2back/STIM_001.jpg	99
739.769	1.347	1347.1	2back	Block2	2back/STIM_001.jpg	100
743.933	0.994	993.7	2back	Block2	2back/STIM_001.jpg	100
748.9	0.908	908.0	2back	Block2	2back/STIM_002.jpg	100
753.745	1.294	1293.9	2back	Block2	2back/STIM_002.jpg	99
757.434	1.171	1171.0	2back	Block2	2back/STIM_002.jpg	100
762.053	1.076	1076.2	2back	Block2	2back/STIM_003.jpg	100
766.79	0.803	803.3	2back	Block2	2back/STIM_003.jpg	99
771.094	0.806	806.0	2back	Block2	2back/STIM_003.jpg	99
774.722	1.237	1237.0	2back	Block2	2back/STIM_004.jpg	100
779.801	1.015	1014.6	2back	Block2	2back/STIM_004.jpg	100
784.062	1.086	1085.7	2back	Block2	2back/STIM_004.jpg	100
789.082	1.388	1387.9	2back	Block2	2back/STIM_005.jpg	99
793.224	1.005	1004.7	2back	Block2	2back/STIM_005.jpg	99
796.279	0.771	770.7	2back	Block2	2back/STIM_005.jpg	99
800.105	0.796	795.9	2back	Block2	2back/STIM_006.jpg	99
803.846	0.945	945.4	2back	Block2	2back/STIM_006.jpg	100
807.843	1.221	1221.3	2back	Block2	2back/STIM_006.jpg	100
812.19	1.027	1026.8	2back	Block2	2back/STIM_007.jpg	100
815.732	0.887	887.0	2back	Block2	2back/STIM_007.jpg	99
819.641	1.032	1031.5	2back	Block2	2back/STIM_007.jpg	100
824.552	0.825	824.6	2back	Block2	2back/STIM_008.jpg	100
827.773	1.216	1216.0	2back	Block2	2back/STIM_008.jpg	99
831.583	1.017	1016.8	2back	Block2	2back/STIM_008.jpg	99
835.471	0.795	795.0	2back	Block2	2back/STIM_009.jpg	99
838.526	0.73	730.4	2back	Block2	2back/STIM_009.jpg	99
842.702	0.825	824.8	2back	Block2	2back/STIM_009.jpg	99
845.607	0.954	954.0	2back	Block2	2back/STIM_010.jpg	100
849.207	0.937	936.8	2back	Block2	2back/STIM_010.jpg	99
854.049	1.237	1237.2	2back	Block2	2back/STIM_010.jpg	100
858.259	1.226	1226.3	2back	Block2	2back/STIM_011.jpg	99
863.007	0.945	944.7	2back	Block2	2back/STIM_011.jpg	100
867.348	0.781	780.9	2back	Block2	2back/STIM_011.jpg	99
870.464	0.926	925.5	2back	Block2	2back/STIM_012.jpg	99
874.723	0.72	719.9	2back	Block2	2back/STIM_012.jpg	100
877.709	0.713	713.0	2back	Block2	2back/STIM_012.jpg	100
882.076	0.975	975.2	2back	Block2	2back/STIM_013.jpg	99
886.595	0.65	649.5	2back	Block2	2back/STIM_013.jpg	100
890.253	1.247	1246.6	2back	Block2	2back/STIM_013.jpg	100
894.586	0.916	915.6	2back	Block2	2back/STIM_014.jpg	100
897.737	1.28	1279.6	2back	Block2	2back/STIM_014.jpg	100
902.288	0.759	758.9	2back	Block2	2back/STIM_014.jpg	100
905.561	1.261	1261.1	2back	Block2	2back/STIM_015.jpg	100
909.968	1.302	1302.1	2back	Block2	2back/STIM_015.jpg	100
913.857	0.636	636.1	2back	Block2	2back/STIM_015.jpg	99
918.391	1.339	1339.1	2back	Block2	2back/STIM_016.jpg	100
922.906	0.664	664.1	2back	Block2	2back/STIM_016.jpg	100
927.507	0.851	851.4	2back	Block2	2back/STIM_016.jpg	99
930.741	1.334	1333.8	2back	Block2	2back/STIM_017.jpg	99
934.116	1.283	1283.2	2back	Block2	2back/STIM_017.jpg	100
938.738	0.817	817.2	2back	Block2	2back/STIM_017.jpg	99
941.967	1.044	1044.2	2back	Block2	2back/STIM_018.jpg	100
945.418	0.923	922.7	2back	Block2	2back/STIM_018.jpg	100
949.499	0.821	821.3	2back	Block2	2back/STIM_018.jpg	100
954.085	0.939	938.9	2back	Block2	2back/STIM_019.jpg	99
957.334	1.189	1188.9	2back	Block2	2back/STIM_019.jpg	100
960.982	0.769	768.7	2back	Block2	2back/STIM_019.jpg	99
963.826	0.945	945.1	2back	Block2	2back/STIM_020.jpg	100
968.376	0.746	745.5	2back	Block2	2back/STIM_020.jpg	99
972.4	1.26	1259.6	2back	Block2	2back/STIM_020.jpg	100
977.088	0.882	882.4	2back	Block2	2back/STIM_021.jpg	99
981.957	0.679	679.1	2back	Block2	2back/STIM_021.jpg	100
984.807	0.798	798.1	2back	Block2	2back/STIM_021.jpg	99
988.881	0.868	867.7	2back	Block2	2back/STIM_022.jpg	100
993.266	0.774	773.7	2back	Block2	2back/STIM_022.jpg	99
996.478	1.216	1215.8	2back	Block2	2back/STIM_022.jpg	100
1000.376	0.663	662.6	2back	Block2	2back/STIM_023.jpg	100
1004.803	0.615	614.6	2back	Block2	2back/STIM_023.jpg	100
1008.843	0.641	641.0	2back	Block2	2back/STIM_023.jpg	99
1013.092	0.879	879.4	2back	Block2	2back/STIM_024.jpg	100
1017.346	1.022	1022.2	2back	Block2	2back/STIM_024.jpg	100
1020.783	1.026	1026.2	2back	Block2	2back/STIM_024.jpg	100
1024.572	1.109	1109.1	2back	Block2	2back/STIM_025.jpg	99
1029.654	1.146	1146.4	2back	Block2	2back/STIM_025.jpg	100
1033.847	0.869	869.2	2back	Block2	2back/STIM_025.jpg	99
1038.381	0.708	708.3	2back	Block2	2back/STIM_026.jpg	100
1042.066	0.826	826.5	2back	Block2	2back/STIM_026.jpg	100
1045.869	1.116	1116.0	2back	Block2	2back/STIM_026.jpg	100
1050.064	0.921	921.4	2back	Block2	2back/STIM_027.jpg	100
1054.441	1.14	1139.5	2back	Block2	2back/STIM_027.jpg	99
1059.547	0.729	729.2	2back	Block2	2back/STIM_027.jpg	99
1063.695	1.369	1368.8	2back	Block2	2back/STIM_028.jpg	100
1068.179	0.629	628.8	2back	Block2	2back/STIM_028.jpg	99
1071.044	1.15	1150.0	2back	Block2	2back/STIM_028.jpg	100
1075.45	1.271	1270.6	2back	Block2	2back/STIM_029.jpg	100
1079.33	1.086	1085.6	2back	Block2	2back/STIM_029.jpg	100
1082.822	0.81	809.5	2back	Block2	2back/STIM_029.jpg	99
1086.985	0.775	774.9	2back	Block2	2back/STIM_030.jpg	99
1090.186	0.677	677.2	2back	Block2	2back/STIM_030.jpg	99
1094.2	1.246	1246.1	2back	Block2	2back/STIM_030.jpg	100
1098.678	0.698	698.4	2back	Block2	2back/STIM_031.jpg	99
1102.077	1.054	1053.7	2back	Block2	2back/STIM_031.jpg	99
1105.434	1.114	1114.5	2back	Block2	2back/STIM_031.jpg	99
1108.759	0.695	695.3	2back	Block2	2back/STIM_032.jpg	100
1113.113	1.269	1268.9	2back	Block2	2back/STIM_032.jpg	100
1117.465	1.165	1164.8	2back	Block2	2back/STIM_032.jpg	99
1120.641	1.404	1404.5	2back	Block2	2back/STIM_033.jpg	99
1125.874	0.774	773.9	2back	Block2	2back/STIM_033.jpg	100
1129.617	1.036	1036.0	2back	Block2	2back/STIM_033.jpg	100
1133.741	1.369	1368.9	2back	Block2	2back/STIM_034.jpg	99
1138.996	0.896	895.5	2back	Block2	2back/STIM_034.jpg	99
1142.207	1.14	1139.7	2back	Block2	2back/STIM_034.jpg	100
1145.639	0.771	771.0	2back	Block2	2back/STIM_035.jpg	99
1149.822	1.296	1296.0	2back	Block2	2back/STIM_035.jpg	99
1154.324	1.102	1102.2	2back	Block2	2back/STIM_035.jpg	100
1159.112	0.704	703.9	2back	Block2	2back/STIM_036.jpg	100
1162.815	0.626	626.1	2back	Block2	2back/STIM_036.jpg	99
1165.512	0.98	980.4	2back	Block2	2back/STIM_036.jpg	99
1169.339	0.896	895.9	2back	Block2	2back/STIM_037.jpg	100
1172.271	0.972	971.9	2back	Block2	2back/STIM_037.jpg	100
1176.812	1.237	1236.6	2back	Block2	2back/STIM_037.jpg	99
1182.036	1.391	1391.4	2back	Block2	2back/STIM_038.jpg	99
1185.762	1.219	1219.0	2back	Block2	2back/STIM_038.jpg	100
1189.056	0.789	788.7	2back	Block2	2back/STIM_038.jpg	99
1192.119	1.384	1384.2	2back	Block2	2back/STIM_039.jpg	99
1195.769	1.281	1281.1	2back	Block2	2back/STIM_039.jpg	99
1200.852	0.634	633.7	2back	Block2	2back/STIM_039.jpg	99
1204.125	0.678	678.1	0back	Block2	0back/STIM_000.jpg	100
1206.96	0.615	615.3	0back	Block2	0back/STIM_000.jpg	99
1210.49	0.702	702.5	0back	Block2	0back/STIM_000.jpg	100
1214.69	0.659	659.4	0back	Block2	0back/STIM_001.jpg	100
1217.876	0.629	629.2	0back	Block2	0back/STIM_001.jpg	100
1222.488	0.672	672.1	0back	Block2	0back/STIM_001.jpg	100
1225.342	0.743	743.3	0back	Block2	0back/STIM_002.jpg	99
1228.375	0.82	820.1	0back	Block2	0back/STIM_002.jpg	99
1232.257	0.864	864.0	0back	Block2	0back/STIM_002.jpg	100
1236.157	0.821	821.1	0back	Block2	0back/STIM_003.jpg	100
1240.531	0.517	517.0	0back	Block2	0back/STIM_003.jpg	100
1244.704	0.689	689.1	0back	Block2	0back/STIM_003.jpg	100
1248.297	0.511	511.3	0back	Block2	0back/STIM_004.jpg	99
1251.461	0.53	529.6	0back	Block2	0back/STIM_004.jpg	99
1254.899	0.88	879.7	0back	Block2	0back/STIM_004.jpg	99
1257.948	0.687	687.3	0back	Block2	0back/STIM_005.jpg	99
1261.967	0.796	796.0	0back	Block2	0back/STIM_005.jpg	99
1266.761	0.725	725.3	0back	Block2	0back/STIM_005.jpg	99
1270.04	0.964	964.1	0back	Block2	0back/STIM_006.jpg	100
1273.12	0.506	506.1	0back	Block2	0back/STIM_006.jpg	99
1277.376	0.796	796.4	0back	Block2	0back/STIM_006.jpg	100
1282.17	0.572	571.9	0back	Block2	0back/STIM_007.jpg	100
1285.184	0.564	563.9	0back	Block2	0back/STIM_007.jpg	100
1288.463	0.6	600.2	0back	Block2	0back/STIM_007.jpg	99
1291.822	0.79	790.3	0back	Block2	0back/STIM_008.jpg	99
1295.989	0.55	550.2	0back	Block2	0back/STIM_008.jpg	100
1299.659	0.554	553.5	0back	Block2	0back/STIM_008.jpg	100
1303.693	0.721	721.3	0back	Block2	0back/STIM_009.jpg	99
1307.406	0.733	733.3	0back	Block2	0back/STIM_009.jpg	99
1311.834	0.657	657.2	0back	Block2	0back/STIM_009.jpg	99
1315.137	0.815	815.0	0back	Block2	0back/STIM_010.jpg	99
1318.482	0.887	887.3	0back	Block2	0back/STIM_010.jpg	99
1322.821	0.798	798.2	0back	Block2	0back/STIM_010.jpg	100
1326.662	0.607	606.9	0back	Block2	0back/STIM_011.jpg	99
1329.643	0.782	782.1	0back	Block2	0back/STIM_011.jpg	99
1333.868	0.676	675.8	0back	Block2	0back/STIM_011.jpg	100
1338.531	0.768	768.0	0back	Block2	0back/STIM_012.jpg	100
1341.463	0.874	873.7	0back	Block2	0back/STIM_012.jpg	100
1344.42	0.519	518.6	0back	Block2	0back/STIM_012.jpg	100
1347.55	0.823	822.7	0back	Block2	0back/STIM_013.jpg	99
1351.684	0.75	749.9	0back	Block2	0back/STIM_013.jpg	99
1354.58	0.778	778.5	0back	Block2	0back/STIM_013.jpg	100
1357.397	0.683	682.6	0back	Block2	0back/STIM_014.jpg	100
1360.831	0.568	567.6	0back	Block2	0back/STIM_014.jpg	99
1365.127	0.638	637.9	0back	Block2	0back/STIM_014.jpg	99
1368.497	0.635	635.3	0back	Block2	0back/STIM_015.jpg	99
1372.628	0.637	637.4	0back	Block2	0back/STIM_015.jpg	100
1377.12	0.768	768.3	0back	Block2	0back/STIM_015.jpg	100
1381.373	0.831	831.2	0back	Block2	0back/STIM_016.jpg	99
1385.981	0.705	704.9	0back	Block2	0back/STIM_016.jpg	100
1390.418	0.508	508.4	0back	Block2	0back/STIM_016.jpg	99
1393.015	0.606	606.4	0back	Block2	0back/STIM_017.jpg	100
1397.31	0.669	669.2	0back	Block2	0back/STIM_017.jpg	100
1400.06	0.975	975.0	0back	Block2	0back/STIM_017.jpg	100
1404.475	0.76	760.1	0back	Block2	0back/STIM_018.jpg	100
1408.197	0.935	934.6	0back	Block2	0back/STIM_018.jpg	100
1412.117	0.689	689.3	0back	Block2	0back/STIM_018.jpg	99
1414.842	0.77	769.6	0back	Block2	0back/STIM_019.jpg	100
1418.908	0.777	777.3	0back	Block2	0back/STIM_019.jpg	99
1423.337	0.701	701.1	0back	Block2	0back/STIM_019.jpg	100
1426.879	1.002	1001.7	2back	Block3	2back/STIM_000.jpg	99
1430.667	1.161	1160.8	2back	Block3	2back/STIM_000.jpg	99
1434.062	0.957	957.0	2back	Block3	2back/STIM_000.jpg	99
1438.632	1.008	1007.5	2back	Block3	2back/STIM_001.jpg	100
1443.121	0.683	683.3	2back	Block3	2back/STIM_001.jpg	100
1446.953	0.704	704.3	2back	Block3	2back/STIM_001.jpg	100
1449.666	0.908	908.1	2back	Block3	2back/STIM_002.jpg	100
1453.138	0.671	670.7	2back	Block3	2back/STIM_002.jpg	100
1456.876	0.795	795.0	2back	Block3	2back/STIM_002.jpg	100
1460.724	0.711	710.9	2back	Block3	2back/STIM_003.jpg	100
1463.587	1.178	1177.7	2back	Block3	2back/STIM_003.jpg	100
1467.806	1.09	1089.6	2back	Block3	2back/STIM_003.jpg	100
1471.715	0.736	736.0	2back	Block3	2back/STIM_004.jpg	99
1475.927	1.101	1100.9	2back	Block3	2back/STIM_004.jpg	100
1480.067	0.656	655.5	2back	Block3	2back/STIM_004.jpg	99
1484.192	0.931	931.0	2back	Block3	2back/STIM_005.jpg	100
1488.108	1.039	1038.7	2back	Block3	2back/STIM_005.jpg	100
1492.629	0.943	942.8	2back	Block3	2back/STIM_005.jpg	99
1497.453	0.825	825.0	2back	Block3	2back/STIM_006.jpg	100
1501.304	1.058	1057.7	2back	Block3	2back/STIM_006.jpg	100
1506.163	0.953	953.4	2back	Block3	2back/STIM_006.jpg	100
1509.229	0.635	635.3	2back	Block3	2back/STIM_007.jpg	100
1513.517	0.965	965.3	2back	Block3	2back/STIM_007.jpg	100
1516.869	0.905	904.6	2back	Block3	2back/STIM_007.jpg	100
1520.65	0.951	951.1	2back	Block3	2back/STIM_008.jpg	100
1525.26	0.871	871.0	2back	Block3	2back/STIM_008.jpg	100
1529.91	1.13	1130.5	2back	Block3	2back/STIM_008.jpg	99
1534.187	0.535	534.6	2back	Block3	2back/STIM_009.jpg	99
1537.22	0.811	810.9	2back	Block3	2back/STIM_009.jpg	99
1541.831	1.089	1088.8	2back	Block3	2back/STIM_009.jpg	100
1546.847	0.582	582.1	2back	Block3	2back/STIM_010.jpg	99
1550.457	0.841	840.8	2back	Block3	2back/STIM_010.jpg	99
1554.074	1.006	1005.8	2back	Block3	2back/STIM_010.jpg	100
1558.265	0.733	733.4	2back	Block3	2back/STIM_011.jpg	99
1562.321	0.927	927.0	2back	Block3	2back/STIM_011.jpg	99
1566.224	0.711	711.1	2back	Block3	2back/STIM_011.jpg	100
1569.025	1.125	1124.8	2back	Block3	2back/STIM_012.jpg	99
1573.583	1.198	1198.0	2back	Block3	2back/STIM_012.jpg	100
1577.526	0.986	985.6	2back	Block3	2back/STIM_012.jpg	100
1582.238	1.129	1129.4	2back	Block3	2back/STIM_013.jpg	100
1587.043	0.951	950.8	2back	Block3	2back/STIM_013.jpg	99
1591.498	1.206	1206.0	2back	Block3	2back/STIM_013.jpg	99
1595.961	0.63	630.3	2back	Block3	2back/STIM_014.jpg	99
1599.656	0.873	873.4	2back	Block3	2back/STIM_014.jpg	99
1604.112	0.599	598.6	2back	Block3	2back/STIM_014.jpg	99
1608.581	0.982	982.5	2back	Block3	2back/STIM_015.jpg	99
1612.575	1.191	1191.3	2back	Block3	2back/STIM_015.jpg	99
1615.982	0.799	799.0	2back	Block3	2back/STIM_015.jpg	99
1620.735	0.937	937.2	2back	Block3	2back/STIM_016.jpg	100
1624.679	0.973	972.8	2back	Block3	2back/STIM_016.jpg	99
1628.64	0.735	735.3	2back	Block3	2back/STIM_016.jpg	99
1631.784	0.876	876.0	2back	Block3	2back/STIM_017.jpg	100
1635.712	0.541	541.1	2back	Block3	2back/STIM_017.jpg	100
1638.876	0.668	668.3	2back	Block3	2back/STIM_017.jpg	100
1643.088	1.039	1038.8	2back	Block3	2back/STIM_018.jpg	100
1646.569	0.732	732.5	2back	Block3	2back/STIM_018.jpg	99
1649.995	1.119	1119.2	2back	Block3	2back/STIM_018.jpg	99
1653.382	0.708	707.9	2back	Block3	2back/STIM_019.jpg	100
1657.781	0.933	933.0	2back	Block3	2back/STIM_019.jpg	99
1660.73	0.996	996.5	2back	Block3	2back/STIM_019.jpg	99
1663.799	1.027	1026.8	2back	Block3	2back/STIM_020.jpg	100
1668.261	0.978	977.5	2back	Block3	2back/STIM_020.jpg	99
1672.554	0.765	764.6	2back	Block3	2back/STIM_020.jpg	100
1675.417	0.593	592.9	2back	Block3	2back/STIM_021.jpg	100
1679.636	0.928	927.5	2back	Block3	2back/STIM_021.jpg	99
1682.735	0.622	622.4	2back	Block3	2back/STIM_021.jpg	100
1686.931	1.183	1182.7	2back	Block3	2back/STIM_022.jpg	100
1691.247	0.739	739.0	2back	Block3	2back/STIM_022.jpg	99
1694.128	1.045	1044.7	2back	Block3	2back/STIM_022.jpg	100
1698.949	1.168	1168.1	2back	Block3	2back/STIM_023.jpg	100
1702.134	0.64	640.1	2back	Block3	2back/STIM_023.jpg	100
1705.273	1.116	1115.7	2back	Block3	2back/STIM_023.jpg	100
1708.491	0.971	970.9	2back	Block3	2back/STIM_024.jpg	99
1712.863	0.827	827.0	2back	Block3	2back/STIM_024.jpg	99
1715.826	0.781	780.6	2back	Block3	2back/STIM_024.jpg	99
1719.056	0.996	996.2	2back	Block3	2back/STIM_025.jpg	99
1722.28	1.176	1176.2	2back	Block3	2back/STIM_025.jpg	100
1726.014	0.734	733.9	2back	Block3	2back/STIM_025.jpg	100
1729.495	0.8	800.0	2back	Block3	2back/STIM_026.jpg	99
1734.259	0.876	875.8	2back	Block3	2back/STIM_026.jpg	99
1738.384	0.608	608.3	2back	Block3	2back/STIM_026.jpg	99
1741.701	0.692	691.7	2back	Block3	2back/STIM_027.jpg	100
1744.419	1.006	1006.1	2back	Block3	2back/STIM_027.jpg	100
1749.215	1.066	1066.0	2back	Block3	2back/STIM_027.jpg	100
1752.811	0.696	696.4	2back	Block3	2back/STIM_028.jpg	99
1757.407	0.597	597.1	2back	Block3	2back/STIM_028.jpg	99
1760.889	1.123	1122.8	2back	Block3	2back/STIM_028.jpg	99
1764.226	0.746	745.6	2back	Block3	2back/STIM_029.jpg	100
1767.949	1.007	1007.0	2back	Block3	2back/STIM_029.jpg	99
1772.895	0.825	825.4	2back	Block3	2back/STIM_029.jpg	99
1777.253	0.57	570.5	2back	Block3	2back/STIM_030.jpg	99
1780.895	0.776	776.0	2back	Block3	2back/STIM_030.jpg	99
1784.741	1.034	1033.8	2back	Block3	2back/STIM_030.jpg	99
1789.178	0.756	756.2	2back	Block3	2back/STIM_031.jpg	100
1792.068	1.006	1006.2	2back	Block3	2back/STIM_031.jpg	99
1797.001	0.659	658.7	2back	Block3	2back/STIM_031.jpg	100
1800.235	1.091	1090.8	2back	Block3	2back/STIM_032.jpg	99
1804.118	1.084	1084.0	2back	Block3	2back/STIM_032.jpg	100
1808.727	0.925	925.1	2back	Block3	2back/STIM_032.jpg	99
1812.418	0.925	924.6	2back	Block3	2back/STIM_033.jpg	99
1816.731	1.096	1096.1	2back	Block3	2back/STIM_033.jpg	100
1821.736	0.781	781.3	2back	Block3	2back/STIM_033.jpg	99
1825.563	0.742	742.2	2back	Block3	2back/STIM_034.jpg	100
1828.917	1.195	1195.3	2back	Block3	2back/STIM_034.jpg	100
1833.953	0.75	750.1	2back	Block3	2back/STIM_034.jpg	100
1837.21	0.658	658.1	2back	Block3	2back/STIM_035.jpg	100
1840.202	0.911	911.0	2back	Block3	2back/STIM_035.jpg	99
1843.17	1.121	1120.7	2back	Block3	2back/STIM_035.jpg	100
1846.949	1.029	1029.0	2back	Block3	2back/STIM_036.jpg	99
1851.223	1.18	1179.8	2back	Block3	2back/STIM_036.jpg	99
1854.767	0.828	827.5	2back	Block3	2back/STIM_036.jpg	99
1857.756	0.559	558.8	2back	Block3	2back/STIM_037.jpg	100
1861.7	0.74	740.2	2back	Block3	2back/STIM_037.jpg	99
1865.696	1.145	1145.4	2back	Block3	2back/STIM_037.jpg	99
1869.555	1.1	1099.6	2back	Block3	2back/STIM_038.jpg	99
1873.159	0.759	759.3	2back	Block3	2back/STIM_038.jpg	100
1877.645	0.839	838.8	2back	Block3	2back/STIM_038.jpg	100
1880.659	1.066	1066.2	2back	Block3	2back/STIM_039.jpg	100
1884.042	0.967	966.6	2back	Block3	2back/STIM_039.jpg	100
1888.936	0.633	633.4	2back	Block3	2back/STIM_039.jpg	99
1892.064	0.766	765.9	0back	Block3	0back/STIM_000.jpg	100
1895.48	0.705	705.3	0back	Block3	0back/STIM_000.jpg	99
1898.568	0.743	743.4	0back	Block3	0back/STIM_000.jpg	99
1902.555	0.93	930.2	0back	Block3	0back/STIM_001.jpg	99
1905.845	0.827	826.7	0back	Block3	0back/STIM_001.jpg	99
1909.025	0.707	706.7	0back	Block3	0back/STIM_001.jpg	99
1911.743	0.728	728.5	0back	Block3	0back/STIM_002.jpg	100
1915.353	0.506	505.9	0back	Block3	0back/STIM_002.jpg	99
1919.378	0.527	526.6	0back	Block3	0back/STIM_002.jpg	99
1922.048	0.525	524.7	0back	Block3	0back/STIM_003.jpg	100
1926.284	0.882	882.4	0back	Block3	0back/STIM_003.jpg	100
1930.477	0.774	774.5	0back	Block3	0back/STIM_003.jpg	99
1935.023	0.637	636.9	0back	Block3	0back/STIM_004.jpg	99
1939.162	0.874	874.0	0back	Block3	0back/STIM_004.jpg	100
1943.213	0.608	607.6	0back	Block3	0back/STIM_004.jpg	99
1947.239	0.711	710.9	0back	Block3	0back/STIM_005.jpg	99
1950.818	0.638	638.2	0back	Block3	0back/STIM_005.jpg	99
1955.408	0.556	555.5	0back	Block3	0back/STIM_005.jpg	100
1958.784	0.537	536.9	0back	Block3	0back/STIM_006.jpg	99
1961.63	0.592	592.0	0back	Block3	0back/STIM_006.jpg	99
1965.304	0.617	616.7	0back	Block3	0back/STIM_006.jpg	100
1967.924	0.516	516.3	0back	Block3	0back/STIM_007.jpg	99
1971.722	0.726	726.3	0back	Block3	0back/STIM_007.jpg	99
1975.773	0.905	905.0	0back	Block3	0back/STIM_007.jpg	100
1980.631	0.662	662.0	0back	Block3	0back/STIM_008.jpg	100
1983.774	0.965	964.9	0back	Block3	0back/STIM_008.jpg	99
1987.787	0.524	523.7	0back	Block3	0back/STIM_008.jpg	100
1990.759	0.499	498.7	0back	Block3	0back/STIM_009.jpg	100
1994.108	0.762	761.5	0back	Block3	0back/STIM_009.jpg	99
1998.678	0.589	588.7	0back	Block3	0back/STIM_009.jpg	100
2002.239	0.66	659.7	0back	Block3	0back/STIM_010.jpg	100
2005.115	0.638	638.2	0back	Block3	0back/STIM_010.jpg	99
2007.835	0.528	527.8	0back	Block3	0back/STIM_010.jpg	99
2012.108	0.575	575.4	0back	Block3	0back/STIM_011.jpg	100
2015.681	0.527	526.6	0back	Block3	0back/STIM_011.jpg	100
2019.41	0.579	579.2	0back	Block3	0back/STIM_011.jpg	100
2023.775	0.542	541.8	0back	Block3	0back/STIM_012.jpg	100
2027.606	0.984	983.8	0back	Block3	0back/STIM_012.jpg	99
2032.455	0.924	923.8	0back	Block3	0back/STIM_012.jpg	99
2036.619	0.804	804.0	0back	Block3	0back/STIM_013.jpg	100
2040.245	0.709	708.6	0back	Block3	0back/STIM_013.jpg	99
2043.008	0.615	614.7	0back	Block3	0back/STIM_013.jpg	100
2046.38	0.573	572.8	0back	Block3	0back/STIM_014.jpg	100
2049.481	0.844	844.5	0back	Block3	0back/STIM_014.jpg	100
2053.407	0.906	906.5	0back	Block3	0back/STIM_014.jpg	100
2056.405	0.659	659.3	0back	Block3	0back/STIM_015.jpg	100
2060.183	0.932	931.7	0back	Block3	0back/STIM_015.jpg	99
2064.225	0.975	975.1	0back	Block3	0back/STIM_015.jpg	99
2069.157	0.549	549.0	0back	Block3	0back/STIM_016.jpg	99
2073.183	0.972	971.5	0back	Block3	0back/STIM_016.jpg	100
2076.31	0.697	697.2	0back	Block3	0back/STIM_016.jpg	99
2079.7	0.703	703.1	0back	Block3	0back/STIM_017.jpg	99
2084.109	0.677	677.3	0back	Block3	0back/STIM_017.jpg	99
2087.741	0.589	588.7	0back	Block3	0back/STIM_017.jpg	100
2091.961	0.681	681.0	0back	Block3	0back/STIM_018.jpg	99
2095.892	0.544	543.5	0back	Block3	0back/STIM_018.jpg	100
2099.558	0.834	834.5	0back	Block3	0back/STIM_018.jpg	100
2102.761	0.531	531.2	0back	Block3	0back/STIM_019.jpg	99
2105.992	0.693	693.3	0back	Block3	0back/STIM_019.jpg	100
2110.379	0.795	794.7	0back	Block3	0back/STIM_019.jpg	100
2114.52	0.956	955.8	2back	Block4	2back/STIM_000.jpg	99
2117.596	0.959	958.7	2back	Block4	2back/STIM_000.jpg	100
2121.186	0.53	530.0	2back	Block4	2back/STIM_000.jpg	99
2125.111	0.813	813.2	2back	Block4	2back/STIM_001.jpg	100
2129.843	0.815	815.3	2back	Block4	2back/STIM_001.jpg	100
2132.947	1.152	1151.5	2back	Block4	2back/STIM_001.jpg	99
2137.04	0.722	721.8	2back	Block4	2back/STIM_002.jpg	100
2141.404	0.885	885.3	2back	Block4	2back/STIM_002.jpg	99
2144.396	1.022	1022.2	2back	Block4	2back/STIM_002.jpg	99
2149.18	1.048	1047.9	2back	Block4	2back/STIM_003.jpg	99
2152.743	0.724	724.3	2back	Block4	2back/STIM_003.jpg	99
2156.125	0.722	722.1	2back	Block4	2back/STIM_003.jpg	100
2158.98	0.537	537.0	2back	Block4	2back/STIM_004.jpg	100
2163.02	0.736	736.3	2back	Block4	2back/STIM_004.jpg	99
2166.928	0.786	786.3	2back	Block4	2back/STIM_004.jpg	99
2171.055	1.05	1050.1	2back	Block4	2back/STIM_005.jpg	99
2174.78	0.998	998.2	2back	Block4	2back/STIM_005.jpg	99
2179.732	1.078	1078.3	2back	Block4	2back/STIM_005.jpg	100
2184.673	1.122	1121.5	2back	Block4	2back/STIM_006.jpg	99
2188.295	0.702	702.3	2back	Block4	2back/STIM_006.jpg	99
2191.595	0.758	757.8	2back	Block4	2back/STIM_006.jpg	100
2195.782	1.067	1066.8	2back	Block4	2back/STIM_007.jpg	99
2200.167	1.112	1112.0	2back	Block4	2back/STIM_007.jpg	100
2203.666	0.97	970.0	2back	Block4	2back/STIM_007.jpg	99
2208.348	1.17	1170.3	2back	Block4	2back/STIM_008.jpg	100
2213.483	0.936	936.3	2back	Block4	2back/STIM_008.jpg	100
2217.179	0.875	875.3	2back	Block4	2back/STIM_008.jpg	100
2220.581	0.858	858.4	2back	Block4	2back/STIM_009.jpg	100
2223.521	0.816	815.5	2back	Block4	2back/STIM_009.jpg	99
2227.281	1.023	1023.1	2back	Block4	2back/STIM_009.jpg	99
2232.013	0.53	529.9	2back	Block4	2back/STIM_010.jpg	99
2235.009	0.75	749.5	2back	Block4	2back/STIM_010.jpg	100
2238.93	0.974	973.7	2back	Block4	2back/STIM_010.jpg	99
2242.221	1.018	1018.3	2back	Block4	2back/STIM_011.jpg	99
2245.567	0.876	876.0	2back	Block4	2back/STIM_011.jpg	99
2250.316	0.723	722.9	2back	Block4	2back/STIM_011.jpg	100
2254.635	0.945	945.1	2back	Block4	2back/STIM_012.jpg	99
2258.577	0.811	810.7	2back	Block4	2back/STIM_012.jpg	100
2262.168	1.181	1180.6	2back	Block4	2back/STIM_012.jpg	100
2266.812	1.104	1103.8	2back	Block4	2back/STIM_013.jpg	100
2270.975	0.906	906.4	2back	Block4	2back/STIM_013.jpg	100
2275.206	0.763	762.9	2back	Block4	2back/STIM_013.jpg	99
2279.105	0.659	658.9	2back	Block4	2back/STIM_014.jpg	100
2283.498	1.165	1165.2	2back	Block4	2back/STIM_014.jpg	100
2287.974	0.564	564.5	2back	Block4	2back/STIM_014.jpg	100
2291.814	0.961	960.6	2back	Block4	2back/STIM_015.jpg	100
2296.712	0.789	789.2	2back	Block4	2back/STIM_015.jpg	99
2299.765	0.973	972.6	2back	Block4	2back/STIM_015.jpg	99
2303.783	1.049	1048.7	2back	Block4	2back/STIM_016.jpg	100
2308.262	1.116	1116.1	2back	Block4	2back/STIM_016.jpg	99
2312.982	1.143	1142.8	2back	Block4	2back/STIM_016.jpg	99
2317.911	0.635	634.9	2back	Block4	2back/STIM_017.jpg	99
2320.658	0.974	973.6	2back	Block4	2back/STIM_017.jpg	99
2325.121	0.952	951.8	2back	Block4	2back/STIM_017.jpg	99
2328.716	1.161	1160.6	2back	Block4	2back/STIM_018.jpg	99
2333.574	1.145	1144.8	2back	Block4	2back/STIM_018.jpg	99
2337.558	0.988	988.2	2back	Block4	2back/STIM_018.jpg	100
2341.545	1.128	1128.2	2back	Block4	2back/STIM_019.jpg	100
2344.846	0.586	585.7	2back	Block4	2back/STIM_019.jpg	99
2348.293	0.731	730.7	2back	Block4	2back/STIM_019.jpg	99
2351.926	1.15	1150.0	2back	Block4	2back/STIM_020.jpg	100
2355.559	0.699	699.2	2back	Block4	2back/STIM_020.jpg	99
2359.731	0.588	587.8	2back	Block4	2back/STIM_020.jpg	100
2362.985	0.636	635.9	2back	Block4	2back/STIM_021.jpg	99
2366.115	0.53	530.0	2back	Block4	2back/STIM_021.jpg	100
2370.172	0.856	855.5	2back	Block4	2back/STIM_021.jpg	100
2373.262	0.661	660.7	2back	Block4	2back/STIM_022.jpg	100
2376.034	0.878	877.6	2back	Block4	2back/STIM_022.jpg	100
2379.645	1.02	1019.8	2back	Block4	2back/STIM_022.jpg	100
2384.34	0.731	731.2	2back	Block4	2back/STIM_023.jpg	99
2387.647	0.559	558.9	2back	Block4	2back/STIM_023.jpg	100
2390.298	0.764	764.3	2back	Block4	2back/STIM_023.jpg	99
2394.959	0.981	981.0	2back	Block4	2back/STIM_024.jpg	99
2399.191	0.765	764.6	2back	Block4	2back/STIM_024.jpg	100
2403.408	0.932	931.8	2back	Block4	2back/STIM_024.jpg	100
2407.06	0.596	595.5	2back	Block4	2back/STIM_025.jpg	99
2410.255	0.682	681.8	2back	Block4	2back/STIM_025.jpg	99
2414.645	0.618	617.5	2back	Block4	2back/STIM_025.jpg	100
2417.806	0.741	741.0	2back	Block4	2back/STIM_026.jpg	100
2421.394	1.2	1199.7	2back	Block4	2back/STIM_026.jpg	99
2424.936	1.09	1090.3	2back	Block4	2back/STIM_026.jpg	99
2429.819	0.522	522.3	2back	Block4	2back/STIM_027.jpg	99
2433.453	0.52	520.1	2back	Block4	2back/STIM_027.jpg	100
2436.17	1.133	1132.7	2back	Block4	2back/STIM_027.jpg	100
2440.008	1.162	1161.6	2back	Block4	2back/STIM_028.jpg	100
2444.07	0.607	606.6	2back	Block4	2back/STIM_028.jpg	99
2446.904	0.744	743.7	2back	Block4	2back/STIM_028.jpg	100
2450.934	0.571	570.9	2back	Block4	2back/STIM_029.jpg	99
2454.393	0.848	848.1	2back	Block4	2back/STIM_029.jpg	99
2458.059	0.691	690.7	2back	Block4	2back/STIM_029.jpg	100
2462.727	1.136	1135.7	2back	Block4	2back/STIM_030.jpg	99
2466.355	1.109	1109.2	2back	Block4	2back/STIM_030.jpg	100
2470.048	0.975	975.2	2back	Block4	2back/STIM_030.jpg	99
2474.83	0.672	672.3	2back	Block4	2back/STIM_031.jpg	100
2478.614	0.992	991.7	2back	Block4	2back/STIM_031.jpg	100
2482.807	1.172	1172.5	2back	Block4	2back/STIM_031.jpg	100
2487.314	1.1	1100.4	2back	Block4	2back/STIM_032.jpg	100
2491.66	1.085	1084.6	2back	Block4	2back/STIM_032.jpg	99
2496.564	1.048	1048.0	2back	Block4	2back/STIM_032.jpg	99
2500.206	0.763	763.1	2back	Block4	2back/STIM_033.jpg	99
2503.637	1.141	1141.2	2back	Block4	2back/STIM_033.jpg	100
2507.372	1.17	1169.8	2back	Block4	2back/STIM_033.jpg	99
2511.056	0.535	535.3	2back	Block4	2back/STIM_034.jpg	100
2514.128	0.892	892.0	2back	Block4	2back/STIM_034.jpg	100
2518.73	1.17	1170.3	2back	Block4	2back/STIM_034.jpg	100
2523.685	0.925	924.6	2back	Block4	2back/STIM_035.jpg	100
2526.642	0.579	578.8	2back	Block4	2back/STIM_035.jpg	99
2530.145	0.603	603.3	2back	Block4	2back/STIM_035.jpg	99
2533.065	0.946	945.5	2back	Block4	2back/STIM_036.jpg	99
2537.562	0.984	984.3	2back	Block4	2back/STIM_036.jpg	99
2542.319	0.811	810.9	2back	Block4	2back/STIM_036.jpg	100
2546.667	0.982	982.4	2back	Block4	2back/STIM_037.jpg	99
2551.192	0.706	705.8	2back	Block4	2back/STIM_037.jpg	100
2555.408	0.52	519.9	2back	Block4	2back/STIM_037.jpg	100
2558.707	1.128	1128.4	2back	Block4	2back/STIM_038.jpg	99
2563.417	1.012	1012.3	2back	Block4	2back/STIM_038.jpg	100
2567.767	0.767	766.9	2back	Block4	2back/STIM_038.jpg	100
2571.584	0.553	553.3	2back	Block4	2back/STIM_039.jpg	100
2575.252	1.095	1094.8	2back	Block4	2back/STIM_039.jpg	100
2579.394	1.096	1096.4	2back	Block4	2back/STIM_039.jpg	99
2583.779	0.883	882.6	0back	Block4	0back/STIM_000.jpg	100
2587.182	0.581	580.7	0back	Block4	0back/STIM_000.jpg	100
2589.88	0.561	561.0	0back	Block4	0back/STIM_000.jpg	100
2593.385	0.782	782.5	0back	Block4	0back/STIM_001.jpg	99
2597.364	0.74	739.5	0back	Block4	0back/STIM_001.jpg	100
2601.946	0.591	590.7	0back	Block4	0back/STIM_001.jpg	100
2605.589	0.93	929.5	0back	Block4	0back/STIM_002.jpg	100
2609.954	0.707	707.4	0back	Block4	0back/STIM_002.jpg	100
2613.883	0.96	960.5	0back	Block4	0back/STIM_002.jpg	100
2617.33	0.662	662.0	0back	Block4	0back/STIM_003.jpg	99
2620.219	0.843	843.1	0back	Block4	0back/STIM_003.jpg	100
2624.836	0.672	671.6	0back	Block4	0back/STIM_003.jpg	99
2627.541	0.881	881.2	0back	Block4	0back/STIM_004.jpg	100
2630.773	0.892	891.9	0back	Block4	0back/STIM_004.jpg	99
2633.824	0.68	679.7	0back	Block4	0back/STIM_004.jpg	99
2638.381	0.67	670.1	0back	Block4	0back/STIM_005.jpg	99
2642.953	0.52	520.5	0back	Block4	0back/STIM_005.jpg	99
2647.363	0.926	926.5	0back	Block4	0back/STIM_005.jpg	100
2651.231	0.811	810.7	0back	Block4	0back/STIM_006.jpg	100
2655.471	0.983	982.8	0back	Block4	0back/STIM_006.jpg	100
2658.46	0.849	848.8	0back	Block4	0back/STIM_006.jpg	99
2661.622	0.921	921.2	0back	Block4	0back/STIM_007.jpg	99
2666.474	0.601	601.2	0back	Block4	0back/STIM_007.jpg	100
2670.705	0.624	623.5	0back	Block4	0back/STIM_007.jpg	99
2673.584	0.929	929.1	0back	Block4	0back/STIM_008.jpg	99
2676.977	0.764	763.9	0back	Block4	0back/STIM_008.jpg	99
2681.069	0.854	854.1	0back	Block4	0back/STIM_008.jpg	99
2684.984	0.959	959.4	0back	Block4	0back/STIM_009.jpg	100
2688.77	0.799	799.4	0back	Block4	0back/STIM_009.jpg	99
2693.32	0.525	525.0	0back	Block4	0back/STIM_009.jpg	99
2695.993	0.866	866.1	0back	Block4	0back/STIM_010.jpg	99
2700.267	0.745	745.0	0back	Block4	0back/STIM_010.jpg	99
2704.335	0.675	675.0	0back	Block4	0back/STIM_010.jpg	100
2707.759	0.516	515.8	0back	Block4	0back/STIM_011.jpg	99
2711.695	0.624	623.5	0back	Block4	0back/STIM_011.jpg	99
2716.29	0.742	741.5	0back	Block4	0back/STIM_011.jpg	100
2719.579	0.779	778.8	0back	Block4	0back/STIM_012.jpg	100
2722.689	0.726	726.1	0back	Block4	0back/STIM_012.jpg	99
2725.71	0.594	593.9	0back	Block4	0back/STIM_012.jpg	99
2730.297	0.871	871.2	0back	Block4	0back/STIM_013.jpg	99
2734.383	0.59	589.9	0back	Block4	0back/STIM_013.jpg	100
2738.158	0.825	824.7	0back	Block4	0back/STIM_013.jpg	100
2742.786	0.698	698.5	0back	Block4	0back/STIM_014.jpg	99
2746.962	0.851	851.3	0back	Block4	0back/STIM_014.jpg	99
2751.77	0.666	666.0	0back	Block4	0back/STIM_014.jpg	99
2755.72	0.948	948.4	0back	Block4	0back/STIM_015.jpg	100
2758.953	0.732	731.6	0back	Block4	0back/STIM_015.jpg	99
2763.244	0.781	781.0	0back	Block4	0back/STIM_015.jpg	99
2767.477	0.507	506.6	0back	Block4	0back/STIM_016.jpg	99
2771.879	0.647	647.4	0back	Block4	0back/STIM_016.jpg	100
2775.038	0.725	725.1	0back	Block4	0back/STIM_016.jpg	99
2778.62	0.497	497.4	0back	Block4	0back/STIM_017.jpg	99
2781.914	0.853	852.8	0back	Block4	0back/STIM_017.jpg	100
2785.754	0.955	955.0	0back	Block4	0back/STIM_017.jpg	99
2789.45	0.514	513.5	0back	Block4	0back/STIM_018.jpg	99
2793.555	0.728	727.9	0back	Block4	0back/STIM_018.jpg	99
2797.283	0.92	920.0	0back	Block4	0back/STIM_018.jpg	99
2801.393	0.948	947.6	0back	Block4	0back/STIM_019.jpg	99
2806.246	0.943	942.9	0back	Block4	0back/STIM_019.jpg	100
2809.949	0.678	677.9	0back	Block4	0back/STIM_019.jpg	100
