onset	duration	response_time_ms	trial_type	learning_stage	stimulus	response_port
0.0	2.996	2995.7	generate	Run1	generate/STIM_000.jpg	100
6.859	2.674	2674.2	generate	Run1	generate/STIM_000.jpg	99
11.78	2.086	2086.4	generate	Run1	generate/STIM_000.jpg	100
16.664	1.322	1322.5	generate	Run1	generate/STIM_000.jpg	100
20.81	1.665	1665.4	generate	Run1	generate/STIM_000.jpg	100
25.863	1.591	1591.1	generate	Run1	generate/STIM_001.jpg	100
29.607	2.97	2969.8	generate	Run1	generate/STIM_001.jpg	100
35.328	3.107	3106.8	generate	Run1	generate/STIM_001.jpg	99
41.859	1.512	1512.0	generate	Run1	generate/STIM_001.jpg	99
46.219	2.562	2562.1	generate	Run1	generate/STIM_001.jpg	99
52.655	1.64	1640.5	generate	Run1	generate/STIM_002.jpg	100
56.973	1.858	1857.8	generate	Run1	generate/STIM_002.jpg	99
61.881	3.115	3114.7	generate	Run1	generate/STIM_002.jpg	99
68.156	2.176	2176.4	generate	Run1	generate/STIM_002.jpg	100
72.773	2.68	2679.9	generate	Run1	generate/STIM_002.jpg	100
78.451	1.623	1623.3	generate	Run1	generate/STIM_003.jpg	99
82.635	1.806	1806.4	generate	Run1	generate/STIM_003.jpg	100
87.903	2.681	2680.9	generate	Run1	generate/STIM_003.jpg	100
93.338	1.335	1334.6	generate	Run1	generate/STIM_003.jpg	100
97.521	2.253	2253.1	generate	Run1	generate/STIM_003.jpg	100
102.463	1.771	1770.9	generate	Run1	generate/STIM_004.jpg	100
107.717	2.078	2077.7	generate	Run1	generate/STIM_004.jpg	100
113.225	1.767	1766.8	generate	Run1	generate/STIM_004.jpg	99
117.206	2.217	2217.3	generate	Run1	generate/STIM_004.jpg	99
123.004	1.353	1353.1	generate	Run1	generate/STIM_004.jpg	100
127.863	3.39	3389.9	generate	Run1	generate/STIM_005.jpg	100
134.512	2.071	2070.6	generate	Run1	generate/STIM_005.jpg	99
138.643	3.21	3210.0	generate	Run1	generate/STIM_005.jpg	100
144.888	2.508	2507.6	generate	Run1	generate/STIM_005.jpg	99
150.234	1.932	1931.6	generate	Run1	generate/STIM_005.jpg	100
156.164	3.523	3523.0	generate	Run1	generate/STIM_006.jpg	99
162.667	1.744	1744.1	generate	Run1	generate/STIM_006.jpg	100
167.658	2.09	2089.7	generate	Run1	generate/STIM_006.jpg	99
172.131	2.07	2069.6	generate	Run1	generate/STIM_006.jpg	99
177.881	2.698	2697.9	generate	Run1	generate/STIM_006.jpg	99
182.767	3.108	3107.6	generate	Run1	generate/STIM_007.jpg	100
189.858	1.79	1790.1	generate	Run1	generate/STIM_007.jpg	100
194.722	1.832	1832.2	generate	Run1	generate/STIM_007.jpg	99
198.937	1.96	1960.3	generate	Run1	generate/STIM_007.jpg	100
204.831	2.009	2008.9	generate	Run1	generate/STIM_007.jpg	100
209.048	1.511	1511.1	generate	Run1	generate/STIM_008.jpg	100
214.209	1.538	1537.6	generate	Run1	generate/STIM_008.jpg	99
218.47	2.325	2325.0	generate	Run1	generate/STIM_008.jpg	100
224.733	2.027	2026.8	generate	Run1	generate/STIM_008.jpg	100
230.035	1.653	1653.1	generate	Run1	generate/STIM_008.jpg	99
235.616	2.086	2086.5	generate	Run1	generate/STIM_009.jpg	100
241.464	2.977	2977.4	generate	Run1	generate/STIM_009.jpg	100
246.729	3.042	3042.1	generate	Run1	generate/STIM_009.jpg	100
252.5	2.428	2428.4	generate	Run1	generate/STIM_009.jpg	100
258.733	1.387	1386.8	generate	Run1	generate/STIM_009.jpg	99
263.195	1.783	1782.9	generate	Run1	generate/STIM_010.jpg	100
268.633	1.805	1805.1	generate	Run1	generate/STIM_010.jpg	99
273.637	3.288	3287.7	generate	Run1	generate/STIM_010.jpg	99
280.637	1.885	1885.4	generate	Run1	generate/STIM_010.jpg	100
285.708	1.71	1709.6	generate	Run1	generate/STIM_010.jpg	100
291.145	1.897	1896.6	generate	Run1	generate/STIM_011.jpg	99
296.858	3.416	3415.7	generate	Run1	generate/STIM_011.jpg	100
303.443	2.633	2633.0	generate	Run1	generate/STIM_011.jpg	100
309.456	1.312	1312.4	generate	Run1	generate/STIM_011.jpg	100
313.941	2.484	2484.2	generate	Run1	generate/STIM_011.jpg	100
318.788	2.347	2347.3	generate	Run1	generate/STIM_012.jpg	99
324.478	2.863	2862.6	generate	Run1	generate/STIM_012.jpg	99
330.569	2.164	2163.8	generate	Run1	generate/STIM_012.jpg	100
335.085	1.961	1961.0	generate	Run1	generate/STIM_012.jpg	100
340.369	1.715	1715.0	generate	Run1	generate/STIM_012.jpg	99
346.033	1.594	1594.0	generate	Run1	generate/STIM_013.jpg	99
350.471	2.637	2636.8	generate	Run1	generate/STIM_013.jpg	99
356.906	3.396	3395.6	generate	Run1	generate/STIM_013.jpg	99
363.571	1.62	1620.0	generate	Run1	generate/STIM_013.jpg	100
368.661	2.954	2953.5	generate	Run1	generate/STIM_013.jpg	99
375.249	3.356	3356.2	generate	Run1	generate/STIM_014.jpg	99
381.405	3.479	3479.0	generate	Run1	generate/STIM_014.jpg	99
386.992	3.125	3124.9	generate	Run1	generate/STIM_014.jpg	99
393.2	3.026	3025.5	generate	Run1	generate/STIM_014.jpg	99
398.499	1.513	1512.8	generate	Run1	generate/STIM_014.jpg	100
403.0	2.632	2632.3	generate	Run1	generate/STIM_015.jpg	100
408.63	2.869	2868.8	generate	Run1	generate/STIM_015.jpg	99
415.146	2.761	2761.2	generate	Run1	generate/STIM_015.jpg	100
420.538	2.992	2992.3	generate	Run1	generate/STIM_015.jpg	100
426.639	1.506	1505.5	generate	Run1	generate/STIM_015.jpg	100
431.399	3.616	3616.5	generate	Run1	generate/STIM_016.jpg	99
437.96	1.593	1592.9	generate	Run1	generate/STIM_016.jpg	99
443.491	3.079	3079.4	generate	Run1	generate/STIM_016.jpg	100
450.297	1.925	1925.3	generate	Run1	generate/STIM_016.jpg	100
454.445	1.897	1897.2	generate	Run1	generate/STIM_016.jpg	100
458.433	1.722	1721.7	generate	Run1	generate/STIM_017.jpg	99
464.021	2.985	2985.1	generate	Run1	generate/STIM_017.jpg	99
469.799	2.736	2736.3	generate	Run1	generate/STIM_017.jpg	100
475.075	3.018	3018.0	generate	Run1	generate/STIM_017.jpg	99
480.245	2.008	2008.1	generate	Run1	generate/STIM_017.jpg	99
485.078	2.555	2555.2	generate	Run1	generate/STIM_018.jpg	100
490.056	1.594	1594.1	generate	Run1	generate/STIM_018.jpg	100
493.716	2.077	2076.9	generate	Run1	generate/STIM_018.jpg	99
498.41	1.693	1693.1	generate	Run1	generate/STIM_018.jpg	100
503.401	2.0	1999.6	generate	Run1	generate/STIM_018.jpg	99
508.11	1.853	1852.6	generate	Run1	generate/STIM_019.jpg	100
512.054	2.594	2594.0	generate	Run1	generate/STIM_019.jpg	99
517.855	2.05	2049.7	generate	Run1	generate/STIM_019.jpg	100
523.632	2.885	2884.6	generate	Run1	generate/STIM_019.jpg	100
529.789	2.055	2054.9	generate	Run1	generate/STIM_019.jpg	99
535.266	2.718	2718.4	generate	Run1	generate/STIM_020.jpg	100
540.369	1.599	1598.6	generate	Run1	generate/STIM_020.jpg	100
545.854	1.438	1438.2	generate	Run1	generate/STIM_020.jpg	100
551.026	2.25	2249.5	generate	Run1	generate/STIM_020.jpg	99
556.82	2.931	2931.3	generate	Run1	generate/STIM_020.jpg	100
563.214	3.205	3205.0	generate	Run1	generate/STIM_021.jpg	99
569.029	1.687	1687.2	generate	Run1	generate/STIM_021.jpg	99
574.184	2.618	2617.7	generate	Run1	generate/STIM_021.jpg	100
579.28	2.265	2264.9	generate	Run1	generate/STIM_021.jpg	99
584.558	2.063	2062.9	generate	Run1	generate/STIM_021.jpg	100
589.132	2.01	2009.6	generate	Run1	generate/STIM_022.jpg	99
593.911	2.573	2573.1	generate	Run1	generate/STIM_022.jpg	100
598.522	1.505	1505.1	generate	Run1	generate/STIM_022.jpg	100
603.284	1.339	1339.0	generate	Run1	generate/STIM_022.jpg	100
608.046	1.959	1959.1	generate	Run1	generate/STIM_022.jpg	99
612.798	1.826	1826.3	generate	Run1	generate/STIM_023.jpg	100
617.084	3.142	3142.1	generate	Run1	generate/STIM_023.jpg	100
623.753	2.904	2904.2	generate	Run1	generate/STIM_023.jpg	100
630.641	2.282	2282.4	generate	Run1	generate/STIM_023.jpg	99
635.806	1.534	1533.9	generate	Run1	generate/STIM_023.jpg	99
639.681	3.003	3002.9	generate	Run1	generate/STIM_024.jpg	100
645.276	2.308	2307.5	generate	Run1	generate/STIM_024.jpg	100
649.997	1.838	1838.3	generate	Run1	generate/STIM_024.jpg	99
655.833	1.865	1864.8	generate	Run1	generate/STIM_024.jpg	99
661.238	2.324	2324.5	generate	Run1	generate/STIM_024.jpg	99
667.332	1.037	1036.8	repeat	Run1	repeat/STIM_000.jpg	100
671.215	1.119	1119.1	repeat	Run1	repeat/STIM_000.jpg	100
675.179	1.025	1024.7	repeat	Run1	repeat/STIM_000.jpg	100
679.276	0.705	705.4	repeat	Run1	repeat/STIM_000.jpg	99
683.073	0.711	710.6	repeat	Run1	repeat/STIM_000.jpg	100
687.024	1.013	1013.3	repeat	Run1	repeat/STIM_001.jpg	99
691.154	1.243	1243.2	repeat	Run1	repeat/STIM_001.jpg	100
695.426	1.087	1086.6	repeat	Run1	repeat/STIM_001.jpg	99
700.395	0.85	849.6	repeat	Run1	repeat/STIM_001.jpg	99
703.492	0.943	943.1	repeat	Run1	repeat/STIM_001.jpg	100
707.898	1.12	1119.7	repeat	Run1	repeat/STIM_002.jpg	99
711.512	0.697	697.3	repeat	Run1	repeat/STIM_002.jpg	100
714.778	0.822	821.6	repeat	Run1	repeat/STIM_002.jpg	100
718.501	0.877	876.7	repeat	Run1	repeat/STIM_002.jpg	100
721.391	1.208	1207.8	repeat	Run1	repeat/STIM_002.jpg	100
726.47	0.993	993.1	repeat	Run1	repeat/STIM_003.jpg	100
729.607	0.955	954.9	repeat	Run1	repeat/STIM_003.jpg	99
733.87	0.679	678.7	repeat	Run1	repeat/STIM_003.jpg	99
737.008	0.881	881.4	repeat	Run1	repeat/STIM_003.jpg	100
740.004	1.108	1108.0	repeat	Run1	repeat/STIM_003.jpg	99
745.095	0.712	711.8	repeat	Run1	repeat/STIM_004.jpg	99
749.463	0.881	880.6	repeat	Run1	repeat/STIM_004.jpg	99
753.83	1.135	1135.3	repeat	Run1	repeat/STIM_004.jpg	99
758.271	0.936	936.5	repeat	Run1	repeat/STIM_004.jpg	99
761.899	0.782	782.2	repeat	Run1	repeat/STIM_004.jpg	100
765.655	0.856	856.4	repeat	Run1	repeat/STIM_005.jpg	100
769.756	0.962	962.1	repeat	Run1	repeat/STIM_005.jpg	99
774.518	1.046	1046.1	repeat	Run1	repeat/STIM_005.jpg	99
779.543	0.85	850.1	repeat	Run1	repeat/STIM_005.jpg	100
782.592	1.153	1153.4	repeat	Run1	repeat/STIM_005.jpg	100
786.141	1.051	1051.3	repeat	Run1	repeat/STIM_006.jpg	100
791.188	0.676	675.5	repeat	Run1	repeat/STIM_006.jpg	99
795.759	1.04	1039.6	repeat	Run1	repeat/STIM_006.jpg	99
800.088	1.09	1089.5	repeat	Run1	repeat/STIM_006.jpg	100
803.808	1.249	1248.8	repeat	Run1	repeat/STIM_006.jpg	100
807.429	1.095	1094.7	repeat	Run1	repeat/STIM_007.jpg	100
810.916	1.004	1003.9	repeat	Run1	repeat/STIM_007.jpg	100
814.774	1.018	1018.1	repeat	Run1	repeat/STIM_007.jpg	99
818.362	0.977	976.8	repeat	Run1	repeat/STIM_007.jpg	99
822.7	0.909	909.3	repeat	Run1	repeat/STIM_007.jpg	100
826.095	1.149	1148.7	repeat	Run1	repeat/STIM_008.jpg	100
829.439	0.818	818.3	repeat	Run1	repeat/STIM_008.jpg	100
833.673	0.88	879.7	repeat	Run1	repeat/STIM_008.jpg	100
837.67	1.135	1135.0	repeat	Run1	repeat/STIM_008.jpg	100
841.741	1.049	1048.9	repeat	Run1	repeat/STIM_008.jpg	99
846.782	0.638	637.9	repeat	Run1	repeat/STIM_009.jpg	99
851.113	0.798	797.6	repeat	Run1	repeat/STIM_009.jpg	100
854.773	1.211	1211.0	repeat	Run1	repeat/STIM_009.jpg	99
858.527	1.155	1155.1	repeat	Run1	repeat/STIM_009.jpg	100
862.948	1.103	1103.0	repeat	Run1	repeat/STIM_009.jpg	100
867.372	0.99	990.4	repeat	Run1	repeat/STIM_010.jpg	99
870.402	0.65	650.5	repeat	Run1	repeat/STIM_010.jpg	99
874.699	0.978	977.7	repeat	Run1	repeat/STIM_010.jpg	100
879.064	1.02	1019.8	repeat	Run1	repeat/STIM_010.jpg	99
882.589	0.718	717.8	repeat	Run1	repeat/STIM_010.jpg	99
886.206	0.656	656.5	repeat	Run1	repeat/STIM_011.jpg	99
890.34	0.882	882.5	repeat	Run1	repeat/STIM_011.jpg	100
893.324	0.792	792.3	repeat	Run1	repeat/STIM_011.jpg	99
896.149	0.893	892.8	repeat	Run1	repeat/STIM_011.jpg	99
900.211	1.151	1151.1	repeat	Run1	repeat/STIM_011.jpg	100
904.122	0.828	827.5	repeat	Run1	repeat/STIM_012.jpg	100
908.399	0.696	696.3	repeat	Run1	repeat/STIM_012.jpg	99
911.322	1.171	1171.4	repeat	Run1	repeat/STIM_012.jpg	99
915.671	1.147	1146.7	repeat	Run1	repeat/STIM_012.jpg	99
920.622	0.722	722.0	repeat	Run1	repeat/STIM_012.jpg	99
924.094	0.69	690.0	repeat	Run1	repeat/STIM_013.jpg	99
928.173	1.143	1142.6	repeat	Run1	repeat/STIM_013.jpg	100
931.333	0.732	732.0	repeat	Run1	repeat/STIM_013.jpg	100
935.085	0.631	631.0	repeat	Run1	repeat/STIM_013.jpg	100
938.334	0.829	829.2	repeat	Run1	repeat/STIM_013.jpg	99
941.355	1.11	1109.9	repeat	Run1	repeat/STIM_014.jpg	99
945.055	0.661	661.4	repeat	Run1	repeat/STIM_014.jpg	100
949.564	0.867	866.6	repeat	Run1	repeat/STIM_014.jpg	99
953.206	1.201	1201.2	repeat	Run1	repeat/STIM_014.jpg	100
956.947	1.135	1135.4	repeat	Run1	repeat/STIM_014.jpg	100
961.589	3.078	3078.1	generate	Run2	generate/STIM_000.jpg	99
967.368	1.721	1721.0	generate	Run2	generate/STIM_000.jpg	99
971.324	1.562	1561.5	generate	Run2	generate/STIM_000.jpg	100
975.125	2.467	2467.1	generate	Run2	generate/STIM_000.jpg	99
980.615	1.151	1150.9	generate	Run2	generate/STIM_000.jpg	100
985.401	2.625	2625.2	generate	Run2	generate/STIM_001.jpg	99
990.116	1.753	1752.7	generate	Run2	generate/STIM_001.jpg	99
995.205	1.426	1425.8	generate	Run2	generate/STIM_001.jpg	100
1000.157	1.985	1985.3	generate	Run2	generate/STIM_001.jpg	100
1005.015	1.767	1766.8	generate	Run2	generate/STIM_001.jpg	99
1009.221	2.962	2962.4	generate	Run2	generate/STIM_002.jpg	99
1015.049	1.999	1998.9	generate	Run2	generate/STIM_002.jpg	100
1020.629	1.883	1882.8	generate	Run2	generate/STIM_002.jpg	99
1025.82	1.306	1306.2	generate	Run2	generate/STIM_002.jpg	100
1031.074	2.456	2455.6	generate	Run2	generate/STIM_002.jpg	100
1036.038	2.593	2592.9	generate	Run2	generate/STIM_003.jpg	99
1041.003	1.652	1651.6	generate	Run2	generate/STIM_003.jpg	100
1045.174	1.497	1496.9	generate	Run2	generate/STIM_003.jpg	99
1049.676	1.508	1507.7	generate	Run2	generate/STIM_003.jpg	100
1055.181	1.075	1074.6	generate	Run2	generate/STIM_003.jpg	100
1059.515	2.452	2452.1	generate	Run2	generate/STIM_004.jpg	99
1064.418	2.076	2075.9	generate	Run2	generate/STIM_004.jpg	99
1069.673	1.251	1251.3	generate	Run2	generate/STIM_004.jpg	100
1074.405	1.842	1841.9	generate	Run2	generate/STIM_004.jpg	100
1078.646	2.25	2250.5	generate	Run2	generate/STIM_004.jpg	100
1084.112	1.857	1856.9	generate	Run2	generate/STIM_005.jpg	100
1088.418	1.569	1569.4	generate	Run2	generate/STIM_005.jpg	100
1092.946	2.451	2451.3	generate	Run2	generate/STIM_005.jpg	100
1097.465	1.808	1807.5	generate	Run2	generate/STIM_005.jpg	99
1102.174	1.634	1634.2	generate	Run2	generate/STIM_005.jpg	100
1107.485	3.027	3027.4	generate	Run2	generate/STIM_006.jpg	100
1113.229	1.599	1598.9	generate	Run2	generate/STIM_006.jpg	100
1118.263	2.531	2531.3	generate	Run2	generate/STIM_006.jpg	99
1122.926	1.697	1697.2	generate	Run2	generate/STIM_006.jpg	100
1128.34	1.269	1269.3	generate	Run2	generate/STIM_006.jpg	99
1133.595	2.483	2482.9	generate	Run2	generate/STIM_007.jpg	99
1139.336	2.706	2706.1	generate	Run2	generate/STIM_007.jpg	99
1145.221	1.372	1371.7	generate	Run2	generate/STIM_007.jpg	99
1150.261	2.067	2067.3	generate	Run2	generate/STIM_007.jpg	100
1154.534	1.499	1499.3	generate	Run2	generate/STIM_007.jpg	99
1159.15	1.594	1593.6	generate	Run2	generate/STIM_008.jpg	99
1163.821	2.456	2455.9	generate	Run2	generate/STIM_008.jpg	99
1170.256	1.767	1767.0	generate	Run2	generate/STIM_008.jpg	99
1175.012	2.272	2271.6	generate	Run2	generate/STIM_008.jpg	100
1180.922	2.166	2166.2	generate	Run2	generate/STIM_008.jpg	99
1186.352	2.676	2676.5	generate	Run2	generate/STIM_009.jpg	99
1191.793	1.693	1692.7	generate	Run2	generate/STIM_009.jpg	100
1197.191	1.371	1371.1	generate	Run2	generate/STIM_009.jpg	99
1202.434	2.477	2477.2	generate	Run2	generate/STIM_009.jpg	99
1207.452	1.908	1907.7	generate	Run2	generate/STIM_009.jpg	100
1212.953	1.847	1847.3	generate	Run2	generate/STIM_010.jpg	100
1217.169	2.987	2986.7	generate	Run2	generate/STIM_010.jpg	99
1222.573	1.947	1947.0	generate	Run2	generate/STIM_010.jpg	99
1227.684	1.727	1727.1	generate	Run2	generate/STIM_010.jpg	99
1232.29	1.611	1611.2	generate	Run2	generate/STIM_010.jpg	100
1236.418	2.57	2569.9	generate	Run2	generate/STIM_011.jpg	99
1241.065	2.23	2230.2	generate	Run2	generate/STIM_011.jpg	99
1245.586	1.527	1527.4	generate	Run2	generate/STIM_011.jpg	100
1250.18	1.323	1322.8	generate	Run2	generate/STIM_011.jpg	99
1254.35	2.362	2361.5	generate	Run2	generate/STIM_011.jpg	100
1260.632	2.892	2891.9	generate	Run2	generate/STIM_012.jpg	99
1266.056	2.685	2685.4	generate	Run2	generate/STIM_012.jpg	99
1271.785	2.032	2032.0	generate	Run2	generate/STIM_012.jpg	100
1276.572	2.415	2414.9	generate	Run2	generate/STIM_012.jpg	99
1282.906	1.686	1686.1	generate	Run2	generate/STIM_012.jpg	100
1287.806	1.652	1651.6	generate	Run2	generate/STIM_013.jpg	99
1293.297	2.65	2649.5	generate	Run2	generate/STIM_013.jpg	99
1299.332	2.631	2630.8	generate	Run2	generate/STIM_013.jpg	100
1305.593	1.89	1889.6	generate	Run2	generate/STIM_013.jpg	99
1309.904	1.881	1880.9	generate	Run2	generate/STIM_013.jpg	100
1314.537	1.36	1360.0	generate	Run2	generate/STIM_014.jpg	100
1318.667	2.047	2047.3	generate	Run2	generate/STIM_014.jpg	99
1323.891	2.588	2587.9	generate	Run2	generate/STIM_014.jpg	100
1330.361	1.193	1192.6	generate	Run2	generate/STIM_014.jpg	99
1333.739	2.404	2403.5	generate	Run2	generate/STIM_014.jpg	99
1338.269	2.914	2914.3	generate	Run2	generate/STIM_015.jpg	100
1343.342	1.724	1723.6	generate	Run2	generate/STIM_015.jpg	100
1348.841	1.212	1212.2	generate	Run2	generate/STIM_015.jpg	99
1353.336	2.448	2447.8	generate	Run2	generate/STIM_015.jpg	99
1358.79	1.325	1325.1	generate	Run2	generate/STIM_015.jpg	99
1362.533	1.988	1988.1	generate	Run2	generate/STIM_016.jpg	100
1367.764	2.784	2784.4	generate	Run2	generate/STIM_016.jpg	100
1373.4	1.2	1199.9	generate	Run2	generate/STIM_016.jpg	99
1378.53	2.377	2376.9	generate	Run2	generate/STIM_016.jpg	100
1384.664	1.398	1397.7	generate	Run2	generate/STIM_016.jpg	100
1389.128	1.657	1657.1	generate	Run2	generate/STIM_017.jpg	99
1394.526	1.598	1597.9	generate	Run2	generate/STIM_017.jpg	100
1398.22	1.502	1502.3	generate	Run2	generate/STIM_017.jpg	100
1403.63	1.721	1721.3	generate	Run2	generate/STIM_017.jpg	100
1407.796	2.052	2052.3	generate	Run2	generate/STIM_017.jpg	99
1413.586	2.904	2904.4	generate	Run2	generate/STIM_018.jpg	99
1419.665	2.045	2044.6	generate	Run2	generate/STIM_018.jpg	100
1423.713	1.968	1967.7	generate	Run2	generate/STIM_018.jpg	99
1428.551	1.638	1637.8	generate	Run2	generate/STIM_018.jpg	100
1433.466	1.668	1668.3	generate	Run2	generate/STIM_018.jpg	99
1437.782	2.477	2476.6	generate	Run2	generate/STIM_019.jpg	100
1443.464	1.756	1756.2	generate	Run2	generate/STIM_019.jpg	100
1448.955	2.312	2312.1	generate	Run2	generate/STIM_019.jpg	99
1453.902	1.866	1866.4	generate	Run2	generate/STIM_019.jpg	100
1458.334	1.542	1542.2	generate	Run2	generate/STIM_019.jpg	99
1463.289	2.404	2403.8	generate	Run2	generate/STIM_020.jpg	100
1469.671	1.386	1386.2	generate	Run2	generate/STIM_020.jpg	100
1473.506	2.186	2185.9	generate	Run2	generate/STIM_020.jpg	99
1479.562	2.083	2082.9	generate	Run2	generate/STIM_020.jpg	99
1484.982	2.615	2614.7	generate	Run2	generate/STIM_020.jpg	99
1490.273	1.92	1919.6	generate	Run2	generate/STIM_021.jpg	100
1495.098	2.42	2420.1	generate	Run2	generate/STIM_021.jpg	99
1500.129	1.735	1734.8	generate	Run2	generate/STIM_021.jpg	100
1503.982	2.619	2619.1	generate	Run2	generate/STIM_021.jpg	100
1509.831	1.537	1537.2	generate	Run2	generate/STIM_021.jpg	100
1513.807	1.577	1576.8	generate	Run2	generate/STIM_022.jpg	99
1518.588	1.358	1358.1	generate	Run2	generate/STIM_022.jpg	99
1523.565	1.985	1985.0	generate	Run2	generate/STIM_022.jpg	99
1527.716	1.669	1669.3	generate	Run2	generate/STIM_022.jpg	99
1532.329	1.457	1456.8	generate	Run2	generate/STIM_022.jpg	100
1536.828	2.633	2632.6	generate	Run2	generate/STIM_023.jpg	100
1541.726	2.147	2146.7	generate	Run2	generate/STIM_023.jpg	99
1547.548	2.54	2539.8	generate	Run2	generate/STIM_023.jpg	99
1552.915	1.388	1388.5	generate	Run2	generate/STIM_023.jpg	99
1557.918	2.556	2555.7	generate	Run2	generate/STIM_023.jpg	99
1563.082	2.484	2483.9	generate	Run2	generate/STIM_024.jpg	100
1568.73	1.491	1490.7	generate	Run2	generate/STIM_024.jpg	99
1573.285	1.878	1877.7	generate	Run2	generate/STIM_024.jpg	99
1578.612	1.969	1969.1	generate	Run2	generate/STIM_024.jpg	100
1582.767	1.535	1535.1	generate	Run2	generate/STIM_024.jpg	99
1587.748	1.019	1019.2	repeat	Run2	repeat/STIM_000.jpg	100
1592.578	0.948	948.3	repeat	Run2	repeat/STIM_000.jpg	100
1597.458	0.718	718.2	repeat	Run2	repeat/STIM_000.jpg	100
1601.289	0.722	722.3	repeat	Run2	repeat/STIM_000.jpg	99
1604.168	0.708	707.8	repeat	Run2	repeat/STIM_000.jpg	100
1608.099	1.032	1032.1	repeat	Run2	repeat/STIM_001.jpg	100
1612.45	1.149	1148.8	repeat	Run2	repeat/STIM_001.jpg	99
1617.055	0.706	706.0	repeat	Run2	repeat/STIM_001.jpg	100
1621.382	1.248	1248.5	repeat	Run2	repeat/STIM_001.jpg	99
1624.806	0.902	901.8	repeat	Run2	repeat/STIM_001.jpg	100
1628.715	1.03	1030.4	repeat	Run2	repeat/STIM_002.jpg	99
1633.602	1.16	1160.2	repeat	Run2	repeat/STIM_002.jpg	100
1636.929	0.761	760.6	repeat	Run2	repeat/STIM_002.jpg	99
1640.957	1.162	1162.4	repeat	Run2	repeat/STIM_002.jpg	99
1645.676	1.113	1113.2	repeat	Run2	repeat/STIM_002.jpg	100
1648.962	1.2	1199.8	repeat	Run2	repeat/STIM_003.jpg	99
1652.62	1.033	1032.9	repeat	Run2	repeat/STIM_003.jpg	100
1657.364	0.703	702.9	repeat	Run2	repeat/STIM_003.jpg	100
1661.25	1.257	1257.1	repeat	Run2	repeat/STIM_003.jpg	100
1666.236	1.096	1095.9	repeat	Run2	repeat/STIM_003.jpg	99
1669.744	1.04	1040.4	repeat	Run2	repeat/STIM_004.jpg	99
1673.646	1.103	1103.0	repeat	Run2	repeat/STIM_004.jpg	99
1678.115	0.696	696.4	repeat	Run2	repeat/STIM_004.jpg	100
1682.661	1.174	1173.9	repeat	Run2	repeat/STIM_004.jpg	100
1687.032	0.656	655.6	repeat	Run2	repeat/STIM_004.jpg	99
1690.662	0.842	841.7	repeat	Run2	repeat/STIM_005.jpg	100
1694.275	1.251	1250.7	repeat	Run2	repeat/STIM_005.jpg	100
1697.717	0.76	760.2	repeat	Run2	repeat/STIM_005.jpg	100
1700.948	1.229	1228.7	repeat	Run2	repeat/STIM_005.jpg	99
1704.755	0.982	981.7	repeat	Run2	repeat/STIM_005.jpg	99
1709.163	0.813	813.3	repeat	Run2	repeat/STIM_006.jpg	100
1713.567	1.132	1131.7	repeat	Run2	repeat/STIM_006.jpg	100
1718.63	0.692	692.1	repeat	Run2	repeat/STIM_006.jpg	99
1722.323	0.927	927.0	repeat	Run2	repeat/STIM_006.jpg	100
1726.503	0.646	645.9	repeat	Run2	repeat/STIM_006.jpg	99
1729.403	1.1	1099.5	repeat	Run2	repeat/STIM_007.jpg	100
1733.546	0.689	688.6	repeat	Run2	repeat/STIM_007.jpg	100
1737.296	0.644	643.6	repeat	Run2	repeat/STIM_007.jpg	100
1740.667	0.64	639.7	repeat	Run2	repeat/STIM_007.jpg	100
1744.568	1.217	1216.9	repeat	Run2	repeat/STIM_007.jpg	100
1748.055	1.009	1008.6	repeat	Run2	repeat/STIM_008.jpg	100
1751.778	0.768	768.3	repeat	Run2	repeat/STIM_008.jpg	100
1755.858	0.8	800.5	repeat	Run2	repeat/STIM_008.jpg	100
1759.839	1.096	1096.1	repeat	Run2	repeat/STIM_008.jpg	100
1762.953	0.904	904.4	repeat	Run2	repeat/STIM_008.jpg	100
1767.14	1.103	1102.6	repeat	Run2	repeat/STIM_009.jpg	100
1771.617	0.903	903.1	repeat	Run2	repeat/STIM_009.jpg	99
1775.383	0.775	775.1	repeat	Run2	repeat/STIM_009.jpg	100
1778.874	1.2	1200.3	repeat	Run2	repeat/STIM_009.jpg	99
1782.327	0.998	998.1	repeat	Run2	repeat/STIM_009.jpg	100
1787.043	0.836	836.0	repeat	Run2	repeat/STIM_010.jpg	100
1790.377	0.843	842.8	repeat	Run2	repeat/STIM_010.jpg	100
1793.473	0.643	642.7	repeat	Run2	repeat/STIM_010.jpg	100
1797.011	0.946	945.7	repeat	Run2	repeat/STIM_010.jpg	99
1801.709	1.097	1096.9	repeat	Run2	repeat/STIM_010.jpg	99
1804.842	1.205	1205.2	repeat	Run2	repeat/STIM_011.jpg	100
1808.063	0.734	733.5	repeat	Run2	repeat/STIM_011.jpg	100
1812.72	0.657	656.6	repeat	Run2	repeat/STIM_011.jpg	100
1815.435	1.139	1138.6	repeat	Run2	repeat/STIM_011.jpg	100
1820.101	0.687	686.6	repeat	Run2	repeat/STIM_011.jpg	99
1824.463	1.097	1097.4	repeat	Run2	repeat/STIM_012.jpg	99
1829.184	0.821	820.8	repeat	Run2	repeat/STIM_012.jpg	100
1832.322	0.802	802.0	repeat	Run2	repeat/STIM_012.jpg	99
1836.88	0.772	771.5	repeat	Run2	repeat/STIM_012.jpg	100
1840.497	1.07	1070.5	repeat	Run2	repeat/STIM_012.jpg	99
1844.381	0.69	690.0	repeat	Run2	repeat/STIM_013.jpg	100
1847.223	1.084	1083.5	repeat	Run2	repeat/STIM_013.jpg	99
1850.854	0.727	726.7	repeat	Run2	repeat/STIM_013.jpg	99
1853.637	1.204	1204.0	repeat	Run2	repeat/STIM_013.jpg	99
1857.889	0.674	673.7	repeat	Run2	repeat/STIM_013.jpg	100
1861.44	0.866	866.3	repeat	Run2	repeat/STIM_014.jpg	99
1866.219	0.699	699.2	repeat	Run2	repeat/STIM_014.jpg	99
1870.042	0.988	987.5	repeat	Run2	repeat/STIM_014.jpg	100
1873.742	1.049	1048.9	repeat	Run2	repeat/STIM_014.jpg	100
1878.015	1.045	1045.3	repeat	Run2	repeat/STIM_014.jpg	99
1882.386	1.156	1156.4	generate	Run3	generate/STIM_000.jpg	100
1887.075	1.287	1287.3	generate	Run3	generate/STIM_000.jpg	100
1890.642	2.42	2420.2	generate	Run3	generate/STIM_000.jpg	99
1895.666	2.284	2284.1	generate	Run3	generate/STIM_000.jpg	100
1901.715	2.314	2313.6	generate	Run3	generate/STIM_000.jpg	99
1907.834	2.084	2084.5	generate	Run3	generate/STIM_001.jpg	100
1911.923	1.108	1108.1	generate	Run3	generate/STIM_001.jpg	99
1915.102	1.057	1056.9	generate	Run3	generate/STIM_001.jpg	100
1919.096	1.138	1138.0	generate	Run3	generate/STIM_001.jpg	99
1922.279	1.44	1439.9	generate	Run3	generate/STIM_001.jpg	100
1927.549	2.043	2042.8	generate	Run3	generate/STIM_002.jpg	99
1932.792	2.008	2008.0	generate	Run3	generate/STIM_002.jpg	99
1937.235	2.4	2400.4	generate	Run3	generate/STIM_002.jpg	100
1942.943	1.44	1439.7	generate	Run3	generate/STIM_002.jpg	99
1948.228	2.629	2629.0	generate	Run3	generate/STIM_002.jpg	99
1953.318	2.299	2298.6	generate	Run3	generate/STIM_003.jpg	99
1958.995	2.598	2598.1	generate	Run3	generate/STIM_003.jpg	100
1964.274	2.236	2236.1	generate	Run3	generate/STIM_003.jpg	99
1968.936	1.791	1791.4	generate	Run3	generate/STIM_003.jpg	100
1972.961	2.542	2542.5	generate	Run3	generate/STIM_003.jpg	100
1978.694	1.407	1407.2	generate	Run3	generate/STIM_004.jpg	99
1982.446	1.974	1973.6	generate	Run3	generate/STIM_004.jpg	99
1987.012	1.972	1971.9	generate	Run3	generate/STIM_004.jpg	99
1992.72	2.381	2381.0	generate	Run3	generate/STIM_004.jpg	100
1998.291	1.486	1486.2	generate	Run3	generate/STIM_004.jpg	99
2003.402	1.201	1200.6	generate	Run3	generate/STIM_005.jpg	100
2006.758	1.948	1948.2	generate	Run3	generate/STIM_005.jpg	99
2012.66	1.559	1558.6	generate	Run3	generate/STIM_005.jpg	99
2017.049	2.53	2530.5	generate	Run3	generate/STIM_005.jpg	100
2022.157	2.492	2491.6	generate	Run3	generate/STIM_005.jpg	100
2027.762	1.079	1079.3	generate	Run3	generate/STIM_006.jpg	100
2031.978	1.439	1439.4	generate	Run3	generate/STIM_006.jpg	99
2035.589	1.923	1922.9	generate	Run3	generate/STIM_006.jpg	100
2041.278	1.747	1747.2	generate	Run3	generate/STIM_006.jpg	100
2045.334	2.447	2447.0	generate	Run3	generate/STIM_006.jpg	100
2051.408	2.614	2613.5	generate	Run3	generate/STIM_007.jpg	100
2056.239	1.622	1621.8	generate	Run3	generate/STIM_007.jpg	100
2060.72	2.237	2237.3	generate	Run3	generate/STIM_007.jpg	100
2065.293	1.947	1946.8	generate	Run3	generate/STIM_007.jpg	99
2069.908	1.646	1645.7	generate	Run3	generate/STIM_007.jpg	99
2073.956	2.551	2551.1	generate	Run3	generate/STIM_008.jpg	100
2078.664	1.604	1603.6	generate	Run3	generate/STIM_008.jpg	99
2084.117	1.774	1774.3	generate	Run3	generate/STIM_008.jpg	99
2089.038	1.442	1442.4	generate	Run3	generate/STIM_008.jpg	100
2093.654	1.333	1333.1	generate	Run3	generate/STIM_008.jpg	99
2098.608	1.891	1890.7	generate	Run3	generate/STIM_009.jpg	99
2102.643	1.057	1056.8	generate	Run3	generate/STIM_009.jpg	100
2107.208	1.701	1700.6	generate	Run3	generate/STIM_009.jpg	100
2111.827	2.502	2502.4	generate	Run3	generate/STIM_009.jpg	99
2116.377	1.392	1391.9	generate	Run3	generate/STIM_009.jpg	99
2120.252	2.553	2552.6	generate	Run3	generate/STIM_010.jpg	100
2126.224	1.498	1497.6	generate	Run3	generate/STIM_010.jpg	100
2131.295	1.371	1371.4	generate	Run3	generate/STIM_010.jpg	99
2136.284	2.234	2233.7	generate	Run3	generate/STIM_010.jpg	100
2141.129	1.199	1198.8	generate	Run3	generate/STIM_010.jpg	99
2145.941	2.177	2176.8	generate	Run3	generate/STIM_011.jpg	100
2150.127	2.64	2640.0	generate	Run3	generate/STIM_011.jpg	99
2154.869	1.935	1934.7	generate	Run3	generate/STIM_011.jpg	100
2158.938	1.334	1333.5	generate	Run3	generate/STIM_011.jpg	100
2163.847	1.888	1888.4	generate	Run3	generate/STIM_011.jpg	99
2168.943	1.394	1393.5	generate	Run3	generate/STIM_012.jpg	100
2172.743	1.47	1470.3	generate	Run3	generate/STIM_012.jpg	100
2176.235	2.491	2490.9	generate	Run3	generate/STIM_012.jpg	100
2182.527	1.285	1285.2	generate	Run3	generate/STIM_012.jpg	99
2186.129	1.48	1480.2	generate	Run3	generate/STIM_012.jpg	100
2190.971	2.613	2613.2	generate	Run3	generate/STIM_013.jpg	100
2197.45	1.769	1769.0	generate	Run3	generate/STIM_013.jpg	99
2202.084	2.07	2070.1	generate	Run3	generate/STIM_013.jpg	100
2207.943	1.15	1149.9	generate	Run3	generate/STIM_013.jpg	99
2211.474	1.676	1676.2	generate	Run3	generate/STIM_013.jpg	99
2215.241	2.071	2071.4	generate	Run3	generate/STIM_014.jpg	99
2219.95	1.706	1705.9	generate	Run3	generate/STIM_014.jpg	100
2224.961	1.969	1969.3	generate	Run3	generate/STIM_014.jpg	99
2230.068	2.486	2486.0	generate	Run3	generate/STIM_014.jpg	99
2235.357	1.577	1577.2	generate	Run3	generate/STIM_014.jpg	100
2239.751	1.445	1445.4	generate	Run3	generate/STIM_015.jpg	100
2244.368	1.117	1117.2	generate	Run3	generate/STIM_015.jpg	100
2249.355	1.521	1520.8	generate	Run3	generate/STIM_015.jpg	99
2253.626	1.106	1106.5	generate	Run3	generate/STIM_015.jpg	100
2256.832	2.16	2159.7	generate	Run3	generate/STIM_015.jpg	99
2262.279	2.374	2373.5	generate	Run3	generate/STIM_016.jpg	99
2268.281	2.512	2512.3	generate	Run3	generate/STIM_016.jpg	99
2273.297	1.106	1106.1	generate	Run3	generate/STIM_016.jpg	100
2276.439	1.81	1809.8	generate	Run3	generate/STIM_016.jpg	100
2281.062	2.162	2161.7	generate	Run3	generate/STIM_016.jpg	99
2285.8	2.238	2237.6	generate	Run3	generate/STIM_017.jpg	99
2290.188	1.15	1150.4	generate	Run3	generate/STIM_017.jpg	100
2293.672	1.437	1437.4	generate	Run3	generate/STIM_017.jpg	99
2298.53	1.145	1145.3	generate	Run3	generate/STIM_017.jpg	100
2303.145	1.92	1919.6	generate	Run3	generate/STIM_017.jpg	100
2307.218	2.35	2350.3	generate	Run3	generate/STIM_018.jpg	99
2312.205	1.843	1843.0	generate	Run3	generate/STIM_018.jpg	99
2316.402	1.346	1346.5	generate	Run3	generate/STIM_018.jpg	100
2320.882	2.614	2614.1	generate	Run3	generate/STIM_018.jpg	100
2325.669	2.54	2539.9	generate	Run3	generate/STIM_018.jpg	99
2330.402	1.968	1967.9	generate	Run3	generate/STIM_019.jpg	99
2334.714	2.328	2328.2	generate	Run3	generate/STIM_019.jpg	100
2340.216	1.449	1449.0	generate	Run3	generate/STIM_019.jpg	99
2344.82	1.276	1275.6	generate	Run3	generate/STIM_019.jpg	100
2349.944	2.428	2427.5	generate	Run3	generate/STIM_019.jpg	99
2356.291	1.471	1471.4	generate	Run3	generate/STIM_020.jpg	100
2361.735	2.246	2245.9	generate	Run3	generate/STIM_020.jpg	100
2366.916	1.934	1934.3	generate	Run3	generate/STIM_020.jpg	99
2372.555	2.53	2529.7	generate	Run3	generate/STIM_020.jpg	100
2377.15	2.344	2344.4	generate	Run3	generate/STIM_020.jpg	100
2383.148	1.859	1859.3	generate	Run3	generate/STIM_021.jpg	100
2387.74	2.296	2295.8	generate	Run3	generate/STIM_021.jpg	99
2393.882	2.391	2391.1	generate	Run3	generate/STIM_021.jpg	99
2398.636	1.059	1059.3	generate	Run3	generate/STIM_021.jpg	100
2402.863	1.556	1556.4	generate	Run3	generate/STIM_021.jpg	99
2407.225	2.182	2181.7	generate	Run3	generate/STIM_022.jpg	100
2411.879	2.134	2133.8	generate	Run3	generate/STIM_022.jpg	100
2416.716	1.668	1668.0	generate	Run3	generate/STIM_022.jpg	100
2422.224	2.355	2355.4	generate	Run3	generate/STIM_022.jpg	99
2427.239	1.639	1639.4	generate	Run3	generate/STIM_022.jpg	100
2430.986	2.472	2472.5	generate	Run3	generate/STIM_023.jpg	99
2437.385	2.095	2095.2	generate	Run3	generate/STIM_023.jpg	100
2442.373	1.684	1684.1	generate	Run3	generate/STIM_023.jpg	99
2447.688	1.082	1082.3	generate	Run3	generate/STIM_023.jpg	100
2451.283	1.995	1995.3	generate	Run3	generate/STIM_023.jpg	99
2456.796	1.402	1402.0	generate	Run3	generate/STIM_024.jpg	100
2460.89	2.041	2040.7	generate	Run3	generate/STIM_024.jpg	100
2466.743	1.102	1102.0	generate	Run3	generate/STIM_024.jpg	100
2469.845	2.015	2014.6	generate	Run3	generate/STIM_024.jpg	100
2473.94	2.042	2041.9	generate	Run3	generate/STIM_024.jpg	99
2479.686	1.136	1136.5	repeat	Run3	repeat/STIM_000.jpg	99
2482.855	1.012	1012.0	repeat	Run3	repeat/STIM_000.jpg	100
2486.496	0.638	638.3	repeat	Run3	repeat/STIM_000.jpg	99
2491.122	1.004	1004.2	repeat	Run3	repeat/STIM_000.jpg	99
2495.365	0.874	873.5	repeat	Run3	repeat/STIM_000.jpg	100
2499.559	0.988	987.6	repeat	Run3	repeat/STIM_001.jpg	100
2503.743	0.792	792.1	repeat	Run3	repeat/STIM_001.jpg	99
2507.221	0.982	982.4	repeat	Run3	repeat/STIM_001.jpg	99
2511.665	1.089	1088.7	repeat	Run3	repeat/STIM_001.jpg	99
2516.529	1.133	1133.0	repeat	Run3	repeat/STIM_001.jpg	100
2520.047	0.863	862.6	repeat	Run3	repeat/STIM_002.jpg	100
2523.833	1.086	1086.1	repeat	Run3	repeat/STIM_002.jpg	99
2528.701	0.846	845.9	repeat	Run3	repeat/STIM_002.jpg	100
2531.778	1.024	1023.7	repeat	Run3	repeat/STIM_002.jpg	100
2535.981	1.011	1011.4	repeat	Run3	repeat/STIM_002.jpg	100
2540.511	0.941	941.0	repeat	Run3	repeat/STIM_003.jpg	100
2544.619	1.088	1087.6	repeat	Run3	repeat/STIM_003.jpg	99
2547.81	0.915	915.3	repeat	Run3	repeat/STIM_003.jpg	100
2551.796	0.659	659.0	repeat	Run3	repeat/STIM_003.jpg	99
2555.953	1.251	1251.3	repeat	Run3	repeat/STIM_003.jpg	100
2559.472	1.05	1049.9	repeat	Run3	repeat/STIM_004.jpg	100
2562.574	1.235	1234.6	repeat	Run3	repeat/STIM_004.jpg	100
2566.21	0.957	957.2	repeat	Run3	repeat/STIM_004.jpg	99
2570.978	1.007	1007.4	repeat	Run3	repeat/STIM_004.jpg	100
2575.426	0.782	781.8	repeat	Run3	repeat/STIM_004.jpg	99
2579.515	0.751	751.2	repeat	Run3	repeat/STIM_005.jpg	100
2583.567	1.096	1096.2	repeat	Run3	repeat/STIM_005.jpg	99
2587.723	0.953	953.0	repeat	Run3	repeat/STIM_005.jpg	100
2592.109	1.159	1159.4	repeat	Run3	repeat/STIM_005.jpg	100
2595.563	1.19	1189.5	repeat	Run3	repeat/STIM_005.jpg	100
2599.556	1.13	1130.2	repeat	Run3	repeat/STIM_006.jpg	100
2604.309	0.919	919.0	repeat	Run3	repeat/STIM_006.jpg	99
2608.902	1.119	1119.4	repeat	Run3	repeat/STIM_006.jpg	100
2613.854	0.97	969.6	repeat	Run3	repeat/STIM_006.jpg	100
2617.779	1.212	1212.3	repeat	Run3	repeat/STIM_006.jpg	100
2621.85	1.093	1093.4	repeat	Run3	repeat/STIM_007.jpg	100
2626.109	1.156	1156.3	repeat	Run3	repeat/STIM_007.jpg	99
2629.648	0.689	688.9	repeat	Run3	repeat/STIM_007.jpg	100
2632.74	1.249	1248.9	repeat	Run3	repeat/STIM_007.jpg	100
2637.327	1.137	1137.4	repeat	Run3	repeat/STIM_007.jpg	100
2641.107	0.644	643.8	repeat	Run3	repeat/STIM_008.jpg	100
2645.443	1.247	1247.1	repeat	Run3	repeat/STIM_008.jpg	99
2650.055	0.828	828.2	repeat	Run3	repeat/STIM_008.jpg	99
2654.317	1.17	1169.9	repeat	Run3	repeat/STIM_008.jpg	100
2657.925	0.676	676.5	repeat	Run3	repeat/STIM_008.jpg	100
2660.908	1.165	1164.8	repeat	Run3	repeat/STIM_009.jpg	99
2664.546	0.858	857.7	repeat	Run3	repeat/STIM_009.jpg	99
2667.642	1.212	1211.9	repeat	Run3	repeat/STIM_009.jpg	99
2671.432	1.037	1037.4	repeat	Run3	repeat/STIM_009.jpg	99
2675.553	0.658	657.8	repeat	Run3	repeat/STIM_009.jpg	99
2678.685	0.78	779.5	repeat	Run3	repeat/STIM_010.jpg	99
2683.01	0.632	632.0	repeat	Run3	repeat/STIM_010.jpg	100
2687.079	0.765	764.9	repeat	Run3	repeat/STIM_010.jpg	100
2690.083	1.08	1080.4	repeat	Run3	repeat/STIM_010.jpg	99
2694.307	0.847	846.9	repeat	Run3	repeat/STIM_010.jpg	100
2698.628	1.147	1147.3	repeat	Run3	repeat/STIM_011.jpg	99
2702.802	0.992	991.5	repeat	Run3	repeat/STIM_011.jpg	99
2705.984	1.19	1190.0	repeat	Run3	repeat/STIM_011.jpg	99
2709.181	1.121	1121.4	repeat	Run3	repeat/STIM_011.jpg	100
2712.479	0.979	978.8	repeat	Run3	repeat/STIM_011.jpg	100
2715.879	1.102	1101.8	repeat	Run3	repeat/STIM_012.jpg	99
2720.636	1.156	1155.8	repeat	Run3	repeat/STIM_012.jpg	100
2725.451	0.758	757.6	repeat	Run3	repeat/STIM_012.jpg	100
2729.222	0.67	669.8	repeat	Run3	repeat/STIM_012.jpg	100
2732.89	0.732	731.8	repeat	Run3	repeat/STIM_012.jpg	99
2736.762	0.959	959.0	repeat	Run3	repeat/STIM_013.jpg	100
2740.082	0.845	845.2	repeat	Run3	repeat/STIM_013.jpg	100
2743.093	1.168	1167.6	repeat	Run3	repeat/STIM_013.jpg	100
2747.05	0.983	982.8	repeat	Run3	repeat/STIM_013.jpg	99
2750.755	0.999	999.4	repeat	Run3	repeat/STIM_013.jpg	99
2754.277	0.922	921.7	repeat	Run3	repeat/STIM_014.jpg	100
2758.183	0.862	862.5	repeat	Run3	repeat/STIM_014.jpg	100
2762.254	0.956	956.1	repeat	Run3	repeat/STIM_014.jpg	99
2765.368	0.955	955.3	repeat	Run3	repeat/STIM_014.jpg	99
2768.975	0.835	835.3	repeat	Run3	repeat/STIM_014.jpg	99
2772.59	2.576	2575.5	generate	Run4	generate/STIM_000.jpg	99
2778.709	1.091	1091.1	generate	Run4	generate/STIM_000.jpg	100
2783.692	1.754	1754.5	generate	Run4	generate/STIM_000.jpg	100
2788.476	1.414	1414.3	generate	Run4	generate/STIM_000.jpg	100
2792.502	2.462	2461.7	generate	Run4	generate/STIM_000.jpg	99
2798.315	1.9	1900.2	generate	Run4	generate/STIM_001.jpg	100
2803.071	2.097	2096.7	generate	Run4	generate/STIM_001.jpg	99
2808.988	1.401	1400.6	generate	Run4	generate/STIM_001.jpg	100
2812.424	2.246	2246.2	generate	Run4	generate/STIM_001.jpg	100
2817.449	1.667	1667.4	generate	Run4	generate/STIM_001.jpg	100
2821.688	2.335	2335.3	generate	Run4	generate/STIM_002.jpg	100
2826.429	1.103	1103.2	generate	Run4	generate/STIM_002.jpg	99
2829.83	1.589	1589.4	generate	Run4	generate/STIM_002.jpg	99
2834.058	1.719	1719.1	generate	Run4	generate/STIM_002.jpg	100
2838.097	1.945	1944.9	generate	Run4	generate/STIM_002.jpg	99
2842.377	1.733	1732.8	generate	Run4	generate/STIM_003.jpg	99
2846.958	1.35	1350.5	generate	Run4	generate/STIM_003.jpg	100
2852.227	1.568	1568.3	generate	Run4	generate/STIM_003.jpg	99
2857.037	2.028	2027.9	generate	Run4	generate/STIM_003.jpg	99
2861.467	1.954	1954.3	generate	Run4	generate/STIM_003.jpg	99
2866.14	1.345	1345.2	generate	Run4	generate/STIM_004.jpg	100
2869.821	2.209	2209.0	generate	Run4	generate/STIM_004.jpg	99
2875.055	2.349	2348.8	generate	Run4	generate/STIM_004.jpg	99
2880.087	1.307	1307.0	generate	Run4	generate/STIM_004.jpg	100
2885.298	1.296	1295.7	generate	Run4	generate/STIM_004.jpg	99
2890.228	2.379	2378.6	generate	Run4	generate/STIM_005.jpg	99
2895.933	1.514	1514.5	generate	Run4	generate/STIM_005.jpg	100
2900.246	2.277	2277.2	generate	Run4	generate/STIM_005.jpg	99
2905.549	1.967	1966.9	generate	Run4	generate/STIM_005.jpg	100
2909.837	2.47	2470.2	generate	Run4	generate/STIM_005.jpg	100
2915.217	1.68	1679.5	generate	Run4	generate/STIM_006.jpg	99
2919.036	2.103	2102.9	generate	Run4	generate/STIM_006.jpg	100
2924.341	1.635	1634.7	generate	Run4	generate/STIM_006.jpg	99
2928.116	2.363	2363.4	generate	Run4	generate/STIM_006.jpg	100
2932.527	1.583	1582.9	generate	Run4	generate/STIM_006.jpg	100
2936.301	1.451	1451.4	generate	Run4	generate/STIM_007.jpg	100
2940.116	1.16	1159.9	generate	Run4	generate/STIM_007.jpg	99
2943.912	1.223	1222.7	generate	Run4	generate/STIM_007.jpg	100
2947.299	2.604	2603.8	generate	Run4	generate/STIM_007.jpg	99
2952.741	1.142	1142.2	generate	Run4	generate/STIM_007.jpg	99
2957.819	1.378	1378.0	generate	Run4	generate/STIM_008.jpg	100
2962.476	2.07	2070.4	generate	Run4	generate/STIM_008.jpg	100
2967.652	2.108	2107.9	generate	Run4	generate/STIM_008.jpg	99
2972.297	1.576	1576.5	generate	Run4	generate/STIM_008.jpg	100
2975.93	2.466	2465.9	generate	Run4	generate/STIM_008.jpg	100
2981.259	1.58	1579.6	generate	Run4	generate/STIM_009.jpg	99
2985.128	1.44	1440.4	generate	Run4	generate/STIM_009.jpg	99
2989.205	2.44	2440.3	generate	Run4	generate/STIM_009.jpg	100
2995.407	1.139	1138.9	generate	Run4	generate/STIM_009.jpg	99
3000.153	2.182	2182.0	generate	Run4	generate/STIM_009.jpg	100
3005.222	2.101	2100.7	generate	Run4	generate/STIM_010.jpg	100
3010.57	1.157	1157.0	generate	Run4	generate/STIM_010.jpg	100
3015.213	1.816	1815.8	generate	Run4	generate/STIM_010.jpg	99
3019.259	1.972	1971.8	generate	Run4	generate/STIM_010.jpg	99
3024.015	2.616	2616.5	generate	Run4	generate/STIM_010.jpg	99
3029.231	1.643	1643.4	generate	Run4	generate/STIM_011.jpg	100
3032.913	1.914	1913.5	generate	Run4	generate/STIM_011.jpg	99
3038.296	1.655	1655.2	generate	Run4	generate/STIM_011.jpg	100
3042.371	1.965	1964.6	generate	Run4	generate/STIM_011.jpg	100
3048.27	1.506	1505.5	generate	Run4	generate/STIM_011.jpg	99
3053.17	2.16	2159.7	generate	Run4	generate/STIM_012.jpg	99
3057.991	1.404	1403.7	generate	Run4	generate/STIM_012.jpg	100
3062.978	2.479	2479.3	generate	Run4	generate/STIM_012.jpg	100
3068.105	1.553	1553.1	generate	Run4	generate/STIM_012.jpg	99
3073.649	1.193	1193.0	generate	Run4	generate/STIM_012.jpg	99
3078.326	1.476	1476.1	generate	Run4	generate/STIM_013.jpg	100
3082.343	1.842	1842.2	generate	Run4	generate/STIM_013.jpg	99
3087.168	1.689	1688.8	generate	Run4	generate/STIM_013.jpg	100
3092.696	1.195	1195.1	generate	Run4	generate/STIM_013.jpg	100
3097.537	2.339	2338.7	generate	Run4	generate/STIM_013.jpg	100
3102.053	2.321	2321.1	generate	Run4	generate/STIM_014.jpg	100
3107.528	2.63	2629.8	generate	Run4	generate/STIM_014.jpg	100
3113.986	2.43	2430.5	generate	Run4	generate/STIM_014.jpg	100
3120.293	1.965	1965.3	generate	Run4	generate/STIM_014.jpg	99
3125.815	2.324	2323.7	generate	Run4	generate/STIM_014.jpg	99
3132.028	1.361	1360.6	generate	Run4	generate/STIM_015.jpg	100
3136.054	2.394	2393.6	generate	Run4	generate/STIM_015.jpg	99
3141.68	2.152	2152.3	generate	Run4	generate/STIM_015.jpg	100
3147.615	1.131	1131.3	generate	Run4	generate/STIM_015.jpg	99
3151.996	2.197	2197.2	generate	Run4	generate/STIM_015.jpg	99
3157.1	1.72	1720.5	generate	Run4	generate/STIM_016.jpg	100
3161.39	2.383	2383.2	generate	Run4	generate/STIM_016.jpg	99
3166.243	2.045	2045.2	generate	Run4	generate/STIM_016.jpg	100
3171.081	1.278	1277.9	generate	Run4	generate/STIM_016.jpg	99
3175.656	1.58	1579.8	generate	Run4	generate/STIM_016.jpg	99
3180.789	1.141	1140.7	generate	Run4	generate/STIM_017.jpg	100
3185.138	2.023	2022.9	generate	Run4	generate/STIM_017.jpg	100
3189.427	2.302	2302.5	generate	Run4	generate/STIM_017.jpg	99
3195.094	1.696	1696.5	generate	Run4	generate/STIM_017.jpg	99
3199.535	2.371	2371.0	generate	Run4	generate/STIM_017.jpg	99
3204.328	2.51	2510.1	generate	Run4	generate/STIM_018.jpg	100
3210.334	2.538	2538.2	generate	Run4	generate/STIM_018.jpg	99
3215.227	2.412	2412.1	generate	Run4	generate/STIM_018.jpg	99
3220.852	2.368	2367.5	generate	Run4	generate/STIM_018.jpg	99
3225.268	1.433	1433.2	generate	Run4	generate/STIM_018.jpg	100
3230.179	1.466	1466.1	generate	Run4	generate/STIM_019.jpg	99
3233.716	1.481	1480.7	generate	Run4	generate/STIM_019.jpg	100
3238.73	1.624	1623.6	generate	Run4	generate/STIM_019.jpg	99
3244.184	1.1	1100.2	generate	Run4	generate/STIM_019.jpg	99
3248.495	2.587	2587.2	generate	Run4	generate/STIM_019.jpg	99
3253.543	1.733	1733.3	generate	Run4	generate/STIM_020.jpg	100
3257.838	1.889	1888.9	generate	Run4	generate/STIM_020.jpg	100
3262.789	2.238	2237.9	generate	Run4	generate/STIM_020.jpg	100
3267.772	2.321	2321.0	generate	Run4	generate/STIM_020.jpg	99
3273.385	2.564	2564.2	generate	Run4	generate/STIM_020.jpg	99
3279.545	2.456	2456.1	generate	Run4	generate/STIM_021.jpg	99
3284.185	1.44	1440.3	generate	Run4	generate/STIM_021.jpg	99
3289.253	1.112	1112.3	generate	Run4	generate/STIM_021.jpg	100
3293.377	1.881	1880.7	generate	Run4	generate/STIM_021.jpg	99
3298.853	1.33	1329.8	generate	Run4	generate/STIM_021.jpg	99
3303.244	1.473	1472.6	generate	Run4	generate/STIM_022.jpg	99
3308.033	1.113	1113.4	generate	Run4	generate/STIM_022.jpg	99
3311.198	1.504	1504.5	generate	Run4	generate/STIM_022.jpg	99
3314.95	2.595	2594.6	generate	Run4	generate/STIM_022.jpg	99
3319.671	1.256	1256.1	generate	Run4	generate/STIM_022.jpg	99
3323.954	2.014	2013.9	generate	Run4	generate/STIM_023.jpg	100
3329.485	1.061	1060.8	generate	Run4	generate/STIM_023.jpg	100
3333.024	1.234	1233.7	generate	Run4	generate/STIM_023.jpg	100
3337.796	1.432	1431.7	generate	Run4	generate/STIM_023.jpg	100
3341.905	2.021	2021.4	generate	Run4	generate/STIM_023.jpg	99
3346.637	2.198	2198.0	generate	Run4	generate/STIM_024.jpg	100
3351.117	1.894	1894.1	generate	Run4	generate/STIM_024.jpg	100
3355.558	1.514	1514.2	generate	Run4	generate/STIM_024.jpg	100
3360.854	1.569	1568.6	generate	Run4	generate/STIM_024.jpg	100
3365.678	2.596	2595.7	generate	Run4	generate/STIM_024.jpg	99
3370.326	0.965	964.7	repeat	Run4	repeat/STIM_000.jpg	100
3373.747	1.163	1162.9	repeat	Run4	repeat/STIM_000.jpg	99
3377.167	1.148	1147.7	repeat	Run4	repeat/STIM_000.jpg	100
3382.063	1.184	1184.5	repeat	Run4	repeat/STIM_000.jpg	100
3385.959	1.126	1125.9	repeat	Run4	repeat/STIM_000.jpg	99
3389.106	0.836	835.7	repeat	Run4	repeat/STIM_001.jpg	99
3393.194	0.823	823.1	repeat	Run4	repeat/STIM_001.jpg	100
3396.078	1.182	1182.2	repeat	Run4	repeat/STIM_001.jpg	99
3400.241	0.785	784.9	repeat	Run4	repeat/STIM_001.jpg	100
3403.773	1.254	1254.1	repeat	Run4	repeat/STIM_001.jpg	100
3408.804	0.858	857.9	repeat	Run4	repeat/STIM_002.jpg	99
3413.159	0.918	917.9	repeat	Run4	repeat/STIM_002.jpg	99
3417.517	1.198	1198.3	repeat	Run4	repeat/STIM_002.jpg	99
3420.849	1.166	1165.6	repeat	Run4	repeat/STIM_002.jpg	100
3425.685	1.138	1138.4	repeat	Run4	repeat/STIM_002.jpg	99
3430.498	1.23	1230.0	repeat	Run4	repeat/STIM_003.jpg	100
3435.614	1.057	1056.9	repeat	Run4	repeat/STIM_003.jpg	99
3439.637	0.977	977.1	repeat	Run4	repeat/STIM_003.jpg	99
3443.609	0.786	786.1	repeat	Run4	repeat/STIM_003.jpg	100
3446.54	1.158	1158.3	repeat	Run4	repeat/STIM_003.jpg	99
3451.353	0.953	953.0	repeat	Run4	repeat/STIM_004.jpg	99
3456.067	0.928	927.8	repeat	Run4	repeat/STIM_004.jpg	99
3460.694	1.227	1227.4	repeat	Run4	repeat/STIM_004.jpg	99
3465.055	1.136	1135.7	repeat	Run4	repeat/STIM_004.jpg	99
3469.147	1.255	1254.7	repeat	Run4	repeat/STIM_004.jpg	100
3473.085	0.874	873.8	repeat	Run4	repeat/STIM_005.jpg	100
3476.62	1.19	1190.5	repeat	Run4	repeat/STIM_005.jpg	99
3479.884	1.044	1044.2	repeat	Run4	repeat/STIM_005.jpg	100
3483.471	0.814	813.8	repeat	Run4	repeat/STIM_005.jpg	99
3488.106	0.672	672.4	repeat	Run4	repeat/STIM_005.jpg	99
3490.962	0.89	890.2	repeat	Run4	repeat/STIM_006.jpg	100
3495.383	1.209	1209.2	repeat	Run4	repeat/STIM_006.jpg	100
3499.461	1.026	1026.0	repeat	Run4	repeat/STIM_006.jpg	99
3502.803	0.982	981.9	repeat	Run4	repeat/STIM_006.jpg	100
3507.298	0.641	641.2	repeat	Run4	repeat/STIM_006.jpg	99
3511.74	0.846	845.6	repeat	Run4	repeat/STIM_007.jpg	99
3515.683	1.026	1026.2	repeat	Run4	repeat/STIM_007.jpg	99
3520.041	1.139	1139.3	repeat	Run4	repeat/STIM_007.jpg	100
3524.129	0.832	832.5	repeat	Run4	repeat/STIM_007.jpg	100
3528.686	1.046	1046.5	repeat	Run4	repeat/STIM_007.jpg	99
3533.031	1.085	1085.2	repeat	Run4	repeat/STIM_008.jpg	100
3537.968	0.781	781.4	repeat	Run4	repeat/STIM_008.jpg	99
3540.791	1.089	1089.1	repeat	Run4	repeat/STIM_008.jpg	100
3544.419	0.728	728.5	repeat	Run4	repeat/STIM_008.jpg	99
3547.506	1.137	1137.1	repeat	Run4	repeat/STIM_008.jpg	100
3550.695	0.944	944.1	repeat	Run4	repeat/STIM_009.jpg	99
3554.755	0.655	655.2	repeat	Run4	repeat/STIM_009.jpg	99
3557.939	0.776	775.6	repeat	Run4	repeat/STIM_009.jpg	99
3560.751	0.665	665.3	repeat	Run4	repeat/STIM_009.jpg	99
3565.217	1.171	1171.4	repeat	Run4	repeat/STIM_009.jpg	100
3568.91	1.044	1043.6	repeat	Run4	repeat/STIM_010.jpg	100
3573.119	0.648	648.0	repeat	Run4	repeat/STIM_010.jpg	100
3576.812	0.906	906.3	repeat	Run4	repeat/STIM_010.jpg	100
3581.65	0.966	966.5	repeat	Run4	repeat/STIM_010.jpg	100
3584.626	0.646	645.5	repeat	Run4	repeat/STIM_010.jpg	99
3587.294	0.996	996.0	repeat	Run4	repeat/STIM_011.jpg	99
3592.171	1.207	1207.4	repeat	Run4	repeat/STIM_011.jpg	100
3596.366	0.908	908.0	repeat	Run4	repeat/STIM_011.jpg	100
3600.188	0.847	846.9	repeat	Run4	repeat/STIM_011.jpg	100
3603.496	1.119	1119.3	repeat	Run4	repeat/STIM_011.jpg	100
3606.834	0.664	663.7	repeat	Run4	repeat/STIM_012.jpg	99
3609.645	0.794	794.0	repeat	Run4	repeat/STIM_012.jpg	99
3614.045	0.949	949.3	repeat	Run4	repeat/STIM_012.jpg	99
3618.756	0.981	981.1	repeat	Run4	repeat/STIM_012.jpg	100
3623.561	1.248	1247.5	repeat	Run4	repeat/STIM_012.jpg	100
3627.223	1.253	1252.6	repeat	Run4	repeat/STIM_013.jpg	99
3630.733	1.034	1034.3	repeat	Run4	repeat/STIM_013.jpg	99
3635.078	1.101	1101.2	repeat	Run4	repeat/STIM_013.jpg	100
3638.919	0.723	723.3	repeat	Run4	repeat/STIM_013.jpg	100
3641.83	1.202	1201.9	repeat	Run4	repeat/STIM_013.jpg	99
3646.45	0.734	733.7	repeat	Run4	repeat/STIM_014.jpg	99
3649.829	1.189	1189.3	repeat	Run4	repeat/STIM_014.jpg	100
3653.839	0.821	821.1	repeat	Run4	repeat/STIM_014.jpg	100
3656.693	0.771	771.1	repeat	Run4	repeat/STIM_014.jpg	99
3659.83	0.999	999.2	repeat	Run4	repeat/STIM_014.jpg	100
