onset	duration	accuracy	trial_type	learning_stage	stimulus
0.0	2.813	incorrect	generate	Run1	generate/STIM_000.jpg
6.051	2.98	correct	generate	Run1	generate/STIM_000.jpg
12.116	1.745	correct	generate	Run1	generate/STIM_000.jpg
16.071	2.157	correct	generate	Run1	generate/STIM_000.jpg
21.216	1.642	correct	generate	Run1	generate/STIM_000.jpg
25.342	1.836	correct	generate	Run1	generate/STIM_001.jpg
29.859	2.298	correct	generate	Run1	generate/STIM_001.jpg
34.767	1.946	correct	generate	Run1	generate/STIM_001.jpg
40.463	1.191	correct	generate	Run1	generate/STIM_001.jpg
45.224	1.104	correct	generate	Run1	generate/STIM_001.jpg
49.565	2.104	incorrect	generate	Run1	generate/STIM_002.jpg
53.641	1.262	correct	generate	Run1	generate/STIM_002.jpg
58.652	1.831	correct	generate	Run1	generate/STIM_002.jpg
64.191	1.962	incorrect	generate	Run1	generate/STIM_002.jpg
69.699	2.106	correct	generate	Run1	generate/STIM_002.jpg
75.473	1.823	correct	generate	Run1	generate/STIM_003.jpg
81.118	2.745	correct	generate	Run1	generate/STIM_003.jpg
87.007	1.824	correct	generate	Run1	generate/STIM_003.jpg
92.57	1.37	correct	generate	Run1	generate/STIM_003.jpg
96.349	2.368	correct	generate	Run1	generate/STIM_003.jpg
102.269	1.78	correct	generate	Run1	generate/STIM_004.jpg
107.636	2.024	correct	generate	Run1	generate/STIM_004.jpg
112.844	1.492	correct	generate	Run1	generate/STIM_004.jpg
116.439	1.526	correct	generate	Run1	generate/STIM_004.jpg
120.002	1.724	correct	generate	Run1	generate/STIM_004.jpg
124.314	1.369	incorrect	generate	Run1	generate/STIM_005.jpg
129.223	1.654	incorrect	generate	Run1	generate/STIM_005.jpg
133.45	2.72	correct	generate	Run1	generate/STIM_005.jpg
139.64	2.029	correct	generate	Run1	generate/STIM_005.jpg
144.719	1.084	incorrect	generate	Run1	generate/STIM_005.jpg
148.213	2.469	correct	generate	Run1	generate/STIM_006.jpg
153.666	1.898	correct	generate	Run1	generate/STIM_006.jpg
157.565	2.022	correct	generate	Run1	generate/STIM_006.jpg
163.336	2.394	correct	generate	Run1	generate/STIM_006.jpg
168.871	2.344	correct	generate	Run1	generate/STIM_006.jpg
173.796	2.844	incorrect	generate	Run1	generate/STIM_007.jpg
179.197	1.874	correct	generate	Run1	generate/STIM_007.jpg
183.449	2.346	correct	generate	Run1	generate/STIM_007.jpg
188.77	2.064	incorrect	generate	Run1	generate/STIM_007.jpg
193.203	2.42	incorrect	generate	Run1	generate/STIM_007.jpg
199.255	2.568	correct	generate	Run1	generate/STIM_008.jpg
205.633	1.524	correct	generate	Run1	generate/STIM_008.jpg
210.813	2.457	incorrect	generate	Run1	generate/STIM_008.jpg
215.63	1.48	correct	generate	Run1	generate/STIM_008.jpg
220.247	1.713	correct	generate	Run1	generate/STIM_008.jpg
225.061	2.805	incorrect	generate	Run1	generate/STIM_009.jpg
231.221	2.624	incorrect	generate	Run1	generate/STIM_009.jpg
237.221	1.708	correct	generate	Run1	generate/STIM_009.jpg
241.574	1.142	correct	generate	Run1	generate/STIM_009.jpg
246.015	1.685	correct	generate	Run1	generate/STIM_009.jpg
251.367	1.617	correct	generate	Run1	generate/STIM_010.jpg
256.336	2.211	incorrect	generate	Run1	generate/STIM_010.jpg
261.156	2.266	correct	generate	Run1	generate/STIM_010.jpg
266.033	2.52	incorrect	generate	Run1	generate/STIM_010.jpg
271.594	2.154	incorrect	generate	Run1	generate/STIM_010.jpg
276.199	2.238	correct	generate	Run1	generate/STIM_011.jpg
281.576	2.728	incorrect	generate	Run1	generate/STIM_011.jpg
287.939	2.113	correct	generate	Run1	generate/STIM_011.jpg
292.07	2.101	correct	generate	Run1	generate/STIM_011.jpg
296.731	1.034	incorrect	generate	Run1	generate/STIM_011.jpg
300.937	1.917	correct	generate	Run1	generate/STIM_012.jpg
305.382	2.95	correct	generate	Run1	generate/STIM_012.jpg
310.819	1.502	incorrect	generate	Run1	generate/STIM_012.jpg
315.606	2.289	correct	generate	Run1	generate/STIM_012.jpg
321.196	2.213	correct	generate	Run1	generate/STIM_012.jpg
326.405	2.894	correct	generate	Run1	generate/STIM_013.jpg
332.226	2.239	correct	generate	Run1	generate/STIM_013.jpg
337.471	1.843	correct	generate	Run1	generate/STIM_013.jpg
343.096	1.83	incorrect	generate	Run1	generate/STIM_013.jpg
348.13	2.089	correct	generate	Run1	generate/STIM_013.jpg
353.481	2.35	incorrect	generate	Run1	generate/STIM_014.jpg
359.555	2.192	correct	generate	Run1	generate/STIM_014.jpg
364.361	1.396	correct	generate	Run1	generate/STIM_014.jpg
369.111	1.366	correct	generate	Run1	generate/STIM_014.jpg
373.155	1.252	correct	generate	Run1	generate/STIM_014.jpg
376.948	2.375	correct	generate	Run1	generate/STIM_015.jpg
382.217	1.733	correct	generate	Run1	generate/STIM_015.jpg
387.473	2.576	correct	generate	Run1	generate/STIM_015.jpg
393.74	1.291	correct	generate	Run1	generate/STIM_015.jpg
398.095	1.676	correct	generate	Run1	generate/STIM_015.jpg
401.825	2.602	correct	generate	Run1	generate/STIM_016.jpg
407.958	2.551	correct	generate	Run1	generate/STIM_016.jpg
412.981	2.235	correct	generate	Run1	generate/STIM_016.jpg
418.238	1.294	correct	generate	Run1	generate/STIM_016.jpg
423.147	1.183	correct	generate	Run1	generate/STIM_016.jpg
426.616	2.331	incorrect	generate	Run1	generate/STIM_017.jpg
430.88	1.545	correct	generate	Run1	generate/STIM_017.jpg
434.559	1.514	correct	generate	Run1	generate/STIM_017.jpg
438.027	1.415	correct	generate	Run1	generate/STIM_017.jpg
442.223	2.152	incorrect	generate	Run1	generate/STIM_017.jpg
446.528	1.638	correct	generate	Run1	generate/STIM_018.jpg
451.34	1.484	correct	generate	Run1	generate/STIM_018.jpg
456.245	2.714	correct	generate	Run1	generate/STIM_018.jpg
461.259	1.239	incorrect	generate	Run1	generate/STIM_018.jpg
466.268	1.666	correct	generate	Run1	generate/STIM_018.jpg
471.836	2.902	correct	generate	Run1	generate/STIM_019.jpg
478.518	2.5	correct	generate	Run1	generate/STIM_019.jpg
483.301	1.775	correct	generate	Run1	generate/STIM_019.jpg
488.014	1.978	correct	generate	Run1	generate/STIM_019.jpg
492.336	1.813	incorrect	generate	Run1	generate/STIM_019.jpg
497.614	2.719	correct	generate	Run1	generate/STIM_020.jpg
503.202	2.16	correct	generate	Run1	generate/STIM_020.jpg
508.826	2.821	correct	generate	Run1	generate/STIM_020.jpg
515.344	1.621	correct	generate	Run1	generate/STIM_020.jpg
520.703	2.413	correct	generate	Run1	generate/STIM_020.jpg
525.552	1.964	incorrect	generate	Run1	generate/STIM_021.jpg
531.249	1.658	correct	generate	Run1	generate/STIM_021.jpg
535.056	1.812	incorrect	generate	Run1	generate/STIM_021.jpg
540.499	1.836	correct	generate	Run1	generate/STIM_021.jpg
545.159	2.086	correct	generate	Run1	generate/STIM_021.jpg
550.436	1.715	correct	generate	Run1	generate/STIM_022.jpg
555.614	1.485	correct	generate	Run1	generate/STIM_022.jpg
560.214	2.77	correct	generate	Run1	generate/STIM_022.jpg
566.15	2.482	correct	generate	Run1	generate/STIM_022.jpg
570.779	2.395	correct	generate	Run1	generate/STIM_022.jpg
576.965	2.209	correct	generate	Run1	generate/STIM_023.jpg
582.01	1.559	correct	generate	Run1	generate/STIM_023.jpg
587.429	2.248	correct	generate	Run1	generate/STIM_023.jpg
593.093	1.688	correct	generate	Run1	generate/STIM_023.jpg
596.759	2.142	correct	generate	Run1	generate/STIM_023.jpg
602.22	2.67	correct	generate	Run1	generate/STIM_024.jpg
608.105	1.489	correct	generate	Run1	generate/STIM_024.jpg
611.68	2.228	correct	generate	Run1	generate/STIM_024.jpg
617.442	1.272	correct	generate	Run1	generate/STIM_024.jpg
620.732	1.03	correct	generate	Run1	generate/STIM_024.jpg
625.435	0.899	correct	repeat	Run1	repeat/STIM_000.jpg
630.111	0.806	correct	repeat	Run1	repeat/STIM_000.jpg
633.821	0.638	correct	repeat	Run1	repeat/STIM_000.jpg
638.202	0.7	correct	repeat	Run1	repeat/STIM_000.jpg
641.742	0.88	correct	repeat	Run1	repeat/STIM_000.jpg
645.53	0.78	correct	repeat	Run1	repeat/STIM_001.jpg
649.057	1.035	correct	repeat	Run1	repeat/STIM_001.jpg
654.006	0.729	correct	repeat	Run1	repeat/STIM_001.jpg
658.443	0.854	correct	repeat	Run1	repeat/STIM_001.jpg
662.804	0.914	correct	repeat	Run1	repeat/STIM_001.jpg
665.734	0.557	correct	repeat	Run1	repeat/STIM_002.jpg
669.969	0.911	correct	repeat	Run1	repeat/STIM_002.jpg
674.558	0.941	correct	repeat	Run1	repeat/STIM_002.jpg
678.687	1.03	correct	repeat	Run1	repeat/STIM_002.jpg
682.025	0.826	correct	repeat	Run1	repeat/STIM_002.jpg
685.717	0.636	incorrect	repeat	Run1	repeat/STIM_003.jpg
689.921	0.942	correct	repeat	Run1	repeat/STIM_003.jpg
693.968	0.697	correct	repeat	Run1	repeat/STIM_003.jpg
698.141	0.862	correct	repeat	Run1	repeat/STIM_003.jpg
701.889	0.604	correct	repeat	Run1	repeat/STIM_003.jpg
705.274	0.647	correct	repeat	Run1	repeat/STIM_004.jpg
708.806	0.613	correct	repeat	Run1	repeat/STIM_004.jpg
711.747	1.027	correct	repeat	Run1	repeat/STIM_004.jpg
716.045	0.879	correct	repeat	Run1	repeat/STIM_004.jpg
720.037	0.659	incorrect	repeat	Run1	repeat/STIM_004.jpg
722.798	0.662	correct	repeat	Run1	repeat/STIM_005.jpg
725.534	0.63	correct	repeat	Run1	repeat/STIM_005.jpg
728.89	0.808	correct	repeat	Run1	repeat/STIM_005.jpg
732.401	0.949	correct	repeat	Run1	repeat/STIM_005.jpg
736.473	0.566	correct	repeat	Run1	repeat/STIM_005.jpg
739.136	0.635	correct	repeat	Run1	repeat/STIM_006.jpg
742.843	0.64	correct	repeat	Run1	repeat/STIM_006.jpg
747.086	0.901	correct	repeat	Run1	repeat/STIM_006.jpg
751.703	0.704	correct	repeat	Run1	repeat/STIM_006.jpg
755.925	0.893	correct	repeat	Run1	repeat/STIM_006.jpg
759.895	0.586	incorrect	repeat	Run1	repeat/STIM_007.jpg
763.439	0.738	correct	repeat	Run1	repeat/STIM_007.jpg
767.122	0.653	correct	repeat	Run1	repeat/STIM_007.jpg
769.986	1.046	correct	repeat	Run1	repeat/STIM_007.jpg
773.289	0.904	correct	repeat	Run1	repeat/STIM_007.jpg
777.613	0.701	correct	repeat	Run1	repeat/STIM_008.jpg
781.109	0.946	correct	repeat	Run1	repeat/STIM_008.jpg
785.955	0.921	correct	repeat	Run1	repeat/STIM_008.jpg
789.053	0.808	correct	repeat	Run1	repeat/STIM_008.jpg
793.303	0.725	correct	repeat	Run1	repeat/STIM_008.jpg
797.835	0.564	correct	repeat	Run1	repeat/STIM_009.jpg
801.63	0.887	incorrect	repeat	Run1	repeat/STIM_009.jpg
804.949	0.654	correct	repeat	Run1	repeat/STIM_009.jpg
809.56	0.783	correct	repeat	Run1	repeat/STIM_009.jpg
813.896	0.758	correct	repeat	Run1	repeat/STIM_009.jpg
817.691	0.728	correct	repeat	Run1	repeat/STIM_010.jpg
821.129	0.749	correct	repeat	Run1	repeat/STIM_010.jpg
825.162	0.938	correct	repeat	Run1	repeat/STIM_010.jpg
828.512	0.548	correct	repeat	Run1	repeat/STIM_010.jpg
831.839	0.669	correct	repeat	Run1	repeat/STIM_010.jpg
835.732	0.766	correct	repeat	Run1	repeat/STIM_011.jpg
840.036	0.557	correct	repeat	Run1	repeat/STIM_011.jpg
843.583	0.564	incorrect	repeat	Run1	repeat/STIM_011.jpg
847.753	0.617	correct	repeat	Run1	repeat/STIM_011.jpg
850.951	0.874	correct	repeat	Run1	repeat/STIM_011.jpg
855.722	0.741	correct	repeat	Run1	repeat/STIM_012.jpg
859.05	0.93	correct	repeat	Run1	repeat/STIM_012.jpg
863.162	0.96	correct	repeat	Run1	repeat/STIM_012.jpg
866.201	0.631	correct	repeat	Run1	repeat/STIM_012.jpg
869.333	0.886	correct	repeat	Run1	repeat/STIM_012.jpg
873.272	1.006	correct	repeat	Run1	repeat/STIM_013.jpg
876.896	0.925	correct	repeat	Run1	repeat/STIM_013.jpg
880.708	0.729	correct	repeat	Run1	repeat/STIM_013.jpg
883.703	1.045	correct	repeat	Run1	repeat/STIM_013.jpg
887.361	0.726	correct	repeat	Run1	repeat/STIM_013.jpg
891.394	0.866	correct	repeat	Run1	repeat/STIM_014.jpg
896.129	0.923	correct	repeat	Run1	repeat/STIM_014.jpg
899.645	0.566	correct	repeat	Run1	repeat/STIM_014.jpg
902.718	0.768	correct	repeat	Run1	repeat/STIM_014.jpg
906.928	0.818	correct	repeat	Run1	repeat/STIM_014.jpg
910.367	2.663	correct	generate	Run2	generate/STIM_000.jpg
915.303	1.894	incorrect	generate	Run2	generate/STIM_000.jpg
920.642	1.741	correct	generate	Run2	generate/STIM_000.jpg
925.274	1.515	correct	generate	Run2	generate/STIM_000.jpg
930.105	2.027	correct	generate	Run2	generate/STIM_000.jpg
935.975	1.973	correct	generate	Run2	generate/STIM_001.jpg
940.844	2.378	correct	generate	Run2	generate/STIM_001.jpg
946.68	1.057	correct	generate	Run2	generate/STIM_001.jpg
951.019	2.16	incorrect	generate	Run2	generate/STIM_001.jpg
955.286	2.111	correct	generate	Run2	generate/STIM_001.jpg
959.994	2.159	correct	generate	Run2	generate/STIM_002.jpg
964.689	2.244	correct	generate	Run2	generate/STIM_002.jpg
969.777	2.215	incorrect	generate	Run2	generate/STIM_002.jpg
975.533	1.51	correct	generate	Run2	generate/STIM_002.jpg
980.115	1.297	incorrect	generate	Run2	generate/STIM_002.jpg
984.807	1.456	correct	generate	Run2	generate/STIM_003.jpg
990.055	1.762	incorrect	generate	Run2	generate/STIM_003.jpg
995.449	1.281	correct	generate	Run2	generate/STIM_003.jpg
999.331	1.37	correct	generate	Run2	generate/STIM_003.jpg
1003.433	1.359	incorrect	generate	Run2	generate/STIM_003.jpg
1007.643	2.176	correct	generate	Run2	generate/STIM_004.jpg
1012.385	1.088	correct	generate	Run2	generate/STIM_004.jpg
1015.792	1.546	correct	generate	Run2	generate/STIM_004.jpg
1019.42	0.942	correct	generate	Run2	generate/STIM_004.jpg
1022.436	2.011	correct	generate	Run2	generate/STIM_004.jpg
1027.652	2.329	correct	generate	Run2	generate/STIM_005.jpg
1032.152	1.668	correct	generate	Run2	generate/STIM_005.jpg
1036.324	1.116	correct	generate	Run2	generate/STIM_005.jpg
1040.108	1.286	correct	generate	Run2	generate/STIM_005.jpg
1043.586	1.566	correct	generate	Run2	generate/STIM_005.jpg
1048.073	2.588	correct	generate	Run2	generate/STIM_006.jpg
1054.466	1.069	correct	generate	Run2	generate/STIM_006.jpg
1058.821	1.201	correct	generate	Run2	generate/STIM_006.jpg
1062.103	1.778	correct	generate	Run2	generate/STIM_006.jpg
1067.662	1.316	correct	generate	Run2	generate/STIM_006.jpg
1072.82	1.948	correct	generate	Run2	generate/STIM_007.jpg
1077.505	1.403	correct	generate	Run2	generate/STIM_007.jpg
1081.13	1.768	correct	generate	Run2	generate/STIM_007.jpg
1085.26	1.379	correct	generate	Run2	generate/STIM_007.jpg
1088.838	1.781	correct	generate	Run2	generate/STIM_007.jpg
1093.599	1.491	correct	generate	Run2	generate/STIM_008.jpg
1097.854	2.389	correct	generate	Run2	generate/STIM_008.jpg
1103.494	1.099	correct	generate	Run2	generate/STIM_008.jpg
1107.491	1.153	incorrect	generate	Run2	generate/STIM_008.jpg
1112.506	1.376	correct	generate	Run2	generate/STIM_008.jpg
1117.797	1.398	incorrect	generate	Run2	generate/STIM_009.jpg
1122.119	2.07	correct	generate	Run2	generate/STIM_009.jpg
1126.933	1.883	correct	generate	Run2	generate/STIM_009.jpg
1131.428	2.099	correct	generate	Run2	generate/STIM_009.jpg
1136.193	1.434	correct	generate	Run2	generate/STIM_009.jpg
1140.165	2.11	correct	generate	Run2	generate/STIM_010.jpg
1145.122	1.91	correct	generate	Run2	generate/STIM_010.jpg
1150.628	1.272	correct	generate	Run2	generate/STIM_010.jpg
1154.942	1.637	correct	generate	Run2	generate/STIM_010.jpg
1160.366	1.722	correct	generate	Run2	generate/STIM_010.jpg
1165.111	1.664	correct	generate	Run2	generate/STIM_011.jpg
1169.666	2.337	incorrect	generate	Run2	generate/STIM_011.jpg
1175.218	1.93	correct	generate	Run2	generate/STIM_011.jpg
1180.775	1.017	correct	generate	Run2	generate/STIM_011.jpg
1184.355	1.525	correct	generate	Run2	generate/STIM_011.jpg
1188.092	1.151	incorrect	generate	Run2	generate/STIM_012.jpg
1192.132	1.706	correct	generate	Run2	generate/STIM_012.jpg
1195.826	1.584	correct	generate	Run2	generate/STIM_012.jpg
1200.116	2.124	correct	generate	Run2	generate/STIM_012.jpg
1204.274	1.714	correct	generate	Run2	generate/STIM_012.jpg
1208.792	2.016	incorrect	generate	Run2	generate/STIM_013.jpg
1213.061	1.747	correct	generate	Run2	generate/STIM_013.jpg
1218.686	2.062	correct	generate	Run2	generate/STIM_013.jpg
1223.93	1.827	incorrect	generate	Run2	generate/STIM_013.jpg
1229.123	1.778	correct	generate	Run2	generate/STIM_013.jpg
1233.635	1.77	correct	generate	Run2	generate/STIM_014.jpg
1237.511	2.39	incorrect	generate	Run2	generate/STIM_014.jpg
1242.615	1.023	correct	generate	Run2	generate/STIM_014.jpg
1245.709	1.583	correct	generate	Run2	generate/STIM_014.jpg
1249.791	2.16	correct	generate	Run2	generate/STIM_014.jpg
1255.556	2.12	correct	generate	Run2	generate/STIM_015.jpg
1260.732	2.212	incorrect	generate	Run2	generate/STIM_015.jpg
1265.959	1.97	correct	generate	Run2	generate/STIM_015.jpg
1271.012	1.709	incorrect	generate	Run2	generate/STIM_015.jpg
1275.736	1.488	correct	generate	Run2	generate/STIM_015.jpg
1280.558	2.106	correct	generate	Run2	generate/STIM_016.jpg
1285.633	2.199	correct	generate	Run2	generate/STIM_016.jpg
1290.931	1.379	correct	generate	Run2	generate/STIM_016.jpg
1295.434	2.085	correct	generate	Run2	generate/STIM_016.jpg
1300.598	2.045	correct	generate	Run2	generate/STIM_016.jpg
1305.45	1.545	incorrect	generate	Run2	generate/STIM_017.jpg
1309.647	2.324	correct	generate	Run2	generate/STIM_017.jpg
1314.167	1.006	correct	generate	Run2	generate/STIM_017.jpg
1318.443	2.103	correct	generate	Run2	generate/STIM_017.jpg
1324.419	2.167	correct	generate	Run2	generate/STIM_017.jpg
1329.6	2.104	correct	generate	Run2	generate/STIM_018.jpg
1334.379	1.607	correct	generate	Run2	generate/STIM_018.jpg
1338.59	1.394	correct	generate	Run2	generate/STIM_018.jpg
1342.442	1.453	correct	generate	Run2	generate/STIM_018.jpg
1346.639	1.277	correct	generate	Run2	generate/STIM_018.jpg
1351.129	2.351	correct	generate	Run2	generate/STIM_019.jpg
1357.229	1.284	correct	generate	Run2	generate/STIM_019.jpg
1361.418	1.108	correct	generate	Run2	generate/STIM_019.jpg
1366.451	1.862	incorrect	generate	Run2	generate/STIM_019.jpg
1371.787	0.947	correct	generate	Run2	generate/STIM_019.jpg
1374.836	1.642	incorrect	generate	Run2	generate/STIM_020.jpg
1379.904	1.541	correct	generate	Run2	generate/STIM_020.jpg
1384.54	2.144	incorrect	generate	Run2	generate/STIM_020.jpg
1388.902	2.075	correct	generate	Run2	generate/STIM_020.jpg
1394.221	1.212	correct	generate	Run2	generate/STIM_020.jpg
1398.689	1.67	correct	generate	Run2	generate/STIM_021.jpg
1402.504	1.37	correct	generate	Run2	generate/STIM_021.jpg
1406.742	2.14	correct	generate	Run2	generate/STIM_021.jpg
1410.991	1.924	incorrect	generate	Run2	generate/STIM_021.jpg
1415.428	1.579	correct	generate	Run2	generate/STIM_021.jpg
1419.156	1.261	correct	generate	Run2	generate/STIM_022.jpg
1423.994	1.178	correct	generate	Run2	generate/STIM_022.jpg
1429.011	2.015	correct	generate	Run2	generate/STIM_022.jpg
1434.835	2.178	correct	generate	Run2	generate/STIM_022.jpg
1440.401	1.259	correct	generate	Run2	generate/STIM_022.jpg
1444.223	1.145	correct	generate	Run2	generate/STIM_023.jpg
1448.211	1.088	correct	generate	Run2	generate/STIM_023.jpg
1451.736	1.2	correct	generate	Run2	generate/STIM_023.jpg
1455.627	0.99	correct	generate	Run2	generate/STIM_023.jpg
1458.902	1.059	correct	generate	Run2	generate/STIM_023.jpg
1462.352	1.443	correct	generate	Run2	generate/STIM_024.jpg
1467.71	2.494	correct	generate	Run2	generate/STIM_024.jpg
1472.217	2.191	correct	generate	Run2	generate/STIM_024.jpg
1478.099	2.049	correct	generate	Run2	generate/STIM_024.jpg
1482.269	2.14	correct	generate	Run2	generate/STIM_024.jpg
1487.506	0.834	correct	repeat	Run2	repeat/STIM_000.jpg
1491.508	0.689	correct	repeat	Run2	repeat/STIM_000.jpg
1496.139	0.829	correct	repeat	Run2	repeat/STIM_000.jpg
1500.169	1.032	correct	repeat	Run2	repeat/STIM_000.jpg
1503.603	0.809	correct	repeat	Run2	repeat/STIM_000.jpg
1507.644	0.724	correct	repeat	Run2	repeat/STIM_001.jpg
1510.884	0.693	correct	repeat	Run2	repeat/STIM_001.jpg
1515.227	0.985	incorrect	repeat	Run2	repeat/STIM_001.jpg
1518.462	0.611	correct	repeat	Run2	repeat/STIM_001.jpg
1521.537	0.925	correct	repeat	Run2	repeat/STIM_001.jpg
1526.044	0.737	correct	repeat	Run2	repeat/STIM_002.jpg
1528.828	0.577	correct	repeat	Run2	repeat/STIM_002.jpg
1531.648	0.863	correct	repeat	Run2	repeat/STIM_002.jpg
1536.299	0.795	correct	repeat	Run2	repeat/STIM_002.jpg
1539.454	1.018	incorrect	repeat	Run2	repeat/STIM_002.jpg
1543.166	0.825	incorrect	repeat	Run2	repeat/STIM_003.jpg
1547.83	0.999	correct	repeat	Run2	repeat/STIM_003.jpg
1552.616	0.628	correct	repeat	Run2	repeat/STIM_003.jpg
1557.038	0.614	correct	repeat	Run2	repeat/STIM_003.jpg
1560.197	0.613	correct	repeat	Run2	repeat/STIM_003.jpg
1564.165	0.695	correct	repeat	Run2	repeat/STIM_004.jpg
1567.362	0.886	correct	repeat	Run2	repeat/STIM_004.jpg
1570.995	0.669	correct	repeat	Run2	repeat/STIM_004.jpg
1575.587	0.888	correct	repeat	Run2	repeat/STIM_004.jpg
1578.875	0.928	correct	repeat	Run2	repeat/STIM_004.jpg
1582.436	0.927	correct	repeat	Run2	repeat/STIM_005.jpg
1586.667	0.527	correct	repeat	Run2	repeat/STIM_005.jpg
1590.956	0.642	correct	repeat	Run2	repeat/STIM_005.jpg
1593.894	0.987	correct	repeat	Run2	repeat/STIM_005.jpg
1597.637	0.88	correct	repeat	Run2	repeat/STIM_005.jpg
1602.451	0.912	correct	repeat	Run2	repeat/STIM_006.jpg
1606.623	0.541	correct	repeat	Run2	repeat/STIM_006.jpg
1610.254	0.832	correct	repeat	Run2	repeat/STIM_006.jpg
1613.549	0.73	correct	repeat	Run2	repeat/STIM_006.jpg
1617.251	0.602	correct	repeat	Run2	repeat/STIM_006.jpg
1620.226	0.981	correct	repeat	Run2	repeat/STIM_007.jpg
1623.595	0.867	correct	repeat	Run2	repeat/STIM_007.jpg
1627.76	0.716	correct	repeat	Run2	repeat/STIM_007.jpg
1630.458	0.564	correct	repeat	Run2	repeat/STIM_007.jpg
1633.704	0.857	correct	repeat	Run2	repeat/STIM_007.jpg
1638.014	0.66	correct	repeat	Run2	repeat/STIM_008.jpg
1641.887	0.634	correct	repeat	Run2	repeat/STIM_008.jpg
1644.689	0.99	correct	repeat	Run2	repeat/STIM_008.jpg
1649.256	0.61	correct	repeat	Run2	repeat/STIM_008.jpg
1652.764	0.824	correct	repeat	Run2	repeat/STIM_008.jpg
1656.689	0.545	correct	repeat	Run2	repeat/STIM_009.jpg
1660.68	0.92	incorrect	repeat	Run2	repeat/STIM_009.jpg
1665.042	0.566	correct	repeat	Run2	repeat/STIM_009.jpg
1667.668	0.69	correct	repeat	Run2	repeat/STIM_009.jpg
1670.648	0.782	correct	repeat	Run2	repeat/STIM_009.jpg
1673.658	0.575	correct	repeat	Run2	repeat/STIM_010.jpg
1676.314	0.728	correct	repeat	Run2	repeat/STIM_010.jpg
1679.526	0.736	correct	repeat	Run2	repeat/STIM_010.jpg
1682.468	0.866	correct	repeat	Run2	repeat/STIM_010.jpg
1685.686	0.92	correct	repeat	Run2	repeat/STIM_010.jpg
1689.545	1.032	correct	repeat	Run2	repeat/STIM_011.jpg
1693.317	0.744	correct	repeat	Run2	repeat/STIM_011.jpg
1697.433	0.87	correct	repeat	Run2	repeat/STIM_011.jpg
1700.918	1.039	correct	repeat	Run2	repeat/STIM_011.jpg
1704.808	0.552	correct	repeat	Run2	repeat/STIM_011.jpg
1708.558	0.727	correct	repeat	Run2	repeat/STIM_012.jpg
1711.358	0.961	correct	repeat	Run2	repeat/STIM_012.jpg
1715.828	0.744	correct	repeat	Run2	repeat/STIM_012.jpg
1718.698	0.688	correct	repeat	Run2	repeat/STIM_012.jpg
1722.29	0.706	correct	repeat	Run2	repeat/STIM_012.jpg
1725.676	0.592	correct	repeat	Run2	repeat/STIM_013.jpg
1728.408	0.944	correct	repeat	Run2	repeat/STIM_013.jpg
1731.928	0.586	correct	repeat	Run2	repeat/STIM_013.jpg
1736.399	0.883	correct	repeat	Run2	repeat/STIM_013.jpg
1739.648	0.774	correct	repeat	Run2	repeat/STIM_013.jpg
1743.236	0.952	correct	repeat	Run2	repeat/STIM_014.jpg
1747.34	1.047	correct	repeat	Run2	repeat/STIM_014.jpg
1751.108	0.529	correct	repeat	Run2	repeat/STIM_014.jpg
1753.995	0.81	correct	repeat	Run2	repeat/STIM_014.jpg
1757.373	0.856	correct	repeat	Run2	repeat/STIM_014.jpg
1760.973	1.384	correct	generate	Run3	generate/STIM_000.jpg
1764.376	1.349	incorrect	generate	Run3	generate/STIM_000.jpg
1768.255	1.179	correct	generate	Run3	generate/STIM_000.jpg
1772.814	1.86	correct	generate	Run3	generate/STIM_000.jpg
1778.429	1.045	correct	generate	Run3	generate/STIM_000.jpg
1781.719	1.28	correct	generate	Run3	generate/STIM_001.jpg
1786.784	0.966	correct	generate	Run3	generate/STIM_001.jpg
1789.727	1.576	correct	generate	Run3	generate/STIM_001.jpg
1794.479	1.803	correct	generate	Run3	generate/STIM_001.jpg
1799.982	2.159	correct	generate	Run3	generate/STIM_001.jpg
1805.802	1.284	correct	generate	Run3	generate/STIM_002.jpg
1809.259	1.471	correct	generate	Run3	generate/STIM_002.jpg
1812.882	1.021	correct	generate	Run3	generate/STIM_002.jpg
1817.635	2.147	correct	generate	Run3	generate/STIM_002.jpg
1823.428	1.512	correct	generate	Run3	generate/STIM_002.jpg
1828.196	1.762	correct	generate	Run3	generate/STIM_003.jpg
1831.898	2.051	correct	generate	Run3	generate/STIM_003.jpg
1836.779	2.179	correct	generate	Run3	generate/STIM_003.jpg
1841.01	2.196	correct	generate	Run3	generate/STIM_003.jpg
1846.433	1.872	correct	generate	Run3	generate/STIM_003.jpg
1851.847	1.182	correct	generate	Run3	generate/STIM_004.jpg
1856.403	0.956	correct	generate	Run3	generate/STIM_004.jpg
1861.231	0.982	correct	generate	Run3	generate/STIM_004.jpg
1864.345	1.24	correct	generate	Run3	generate/STIM_004.jpg
1869.001	1.352	correct	generate	Run3	generate/STIM_004.jpg
1872.404	2.006	correct	generate	Run3	generate/STIM_005.jpg
1876.505	1.102	correct	generate	Run3	generate/STIM_005.jpg
1879.595	1.226	correct	generate	Run3	generate/STIM_005.jpg
1883.518	1.525	correct	generate	Run3	generate/STIM_005.jpg
1887.627	1.928	incorrect	generate	Run3	generate/STIM_005.jpg
1891.864	0.988	correct	generate	Run3	generate/STIM_006.jpg
1894.921	1.416	correct	generate	Run3	generate/STIM_006.jpg
1899.387	1.643	correct	generate	Run3	generate/STIM_006.jpg
1903.533	1.096	correct	generate	Run3	generate/STIM_006.jpg
1908.074	1.194	correct	generate	Run3	generate/STIM_006.jpg
1911.782	1.485	correct	generate	Run3	generate/STIM_007.jpg
1915.498	2.031	correct	generate	Run3	generate/STIM_007.jpg
1919.503	1.621	correct	generate	Run3	generate/STIM_007.jpg
1924.401	1.257	correct	generate	Run3	generate/STIM_007.jpg
1928.657	1.012	correct	generate	Run3	generate/STIM_007.jpg
1933.252	1.623	correct	generate	Run3	generate/STIM_008.jpg
1936.996	1.739	correct	generate	Run3	generate/STIM_008.jpg
1942.223	1.428	correct	generate	Run3	generate/STIM_008.jpg
1946.602	1.78	incorrect	generate	Run3	generate/STIM_008.jpg
1950.316	1.223	correct	generate	Run3	generate/STIM_008.jpg
1954.073	0.895	correct	generate	Run3	generate/STIM_009.jpg
1957.206	0.939	correct	generate	Run3	generate/STIM_009.jpg
1961.45	1.493	correct	generate	Run3	generate/STIM_009.jpg
1965.88	1.684	correct	generate	Run3	generate/STIM_009.jpg
1969.705	2.025	correct	generate	Run3	generate/STIM_009.jpg
1975.46	2.043	correct	generate	Run3	generate/STIM_010.jpg
1979.793	1.181	correct	generate	Run3	generate/STIM_010.jpg
1983.497	1.836	correct	generate	Run3	generate/STIM_010.jpg
1988.427	1.69	correct	generate	Run3	generate/STIM_010.jpg
1993.144	1.457	correct	generate	Run3	generate/STIM_010.jpg
1998.402	2.012	correct	generate	Run3	generate/STIM_011.jpg
2003.29	1.471	correct	generate	Run3	generate/STIM_011.jpg
2006.796	2.039	correct	generate	Run3	generate/STIM_011.jpg
2011.012	0.987	correct	generate	Run3	generate/STIM_011.jpg
2014.025	1.966	correct	generate	Run3	generate/STIM_011.jpg
2017.968	1.856	correct	generate	Run3	generate/STIM_012.jpg
2023.349	1.886	correct	generate	Run3	generate/STIM_012.jpg
2027.287	0.951	correct	generate	Run3	generate/STIM_012.jpg
2030.198	1.261	correct	generate	Run3	generate/STIM_012.jpg
2034.828	1.356	incorrect	generate	Run3	generate/STIM_012.jpg
2038.828	1.23	correct	generate	Run3	generate/STIM_013.jpg
2042.541	2.016	correct	generate	Run3	generate/STIM_013.jpg
2047.788	1.617	correct	generate	Run3	generate/STIM_013.jpg
2051.34	1.49	correct	generate	Run3	generate/STIM_013.jpg
2055.18	1.433	correct	generate	Run3	generate/STIM_013.jpg
2060.485	2.051	correct	generate	Run3	generate/STIM_014.jpg
2065.071	1.905	correct	generate	Run3	generate/STIM_014.jpg
2070.613	1.92	correct	generate	Run3	generate/STIM_014.jpg
2075.14	1.584	correct	generate	Run3	generate/STIM_014.jpg
2080.221	1.83	correct	generate	Run3	generate/STIM_014.jpg
2085.709	1.783	correct	generate	Run3	generate/STIM_015.jpg
2090.376	1.636	correct	generate	Run3	generate/STIM_015.jpg
2094.046	1.821	correct	generate	Run3	generate/STIM_015.jpg
2097.798	1.749	correct	generate	Run3	generate/STIM_015.jpg
2102.693	1.265	correct	generate	Run3	generate/STIM_015.jpg
2106.52	1.815	correct	generate	Run3	generate/STIM_016.jpg
2111.49	1.748	correct	generate	Run3	generate/STIM_016.jpg
2115.706	1.045	correct	generate	Run3	generate/STIM_016.jpg
2118.796	1.977	correct	generate	Run3	generate/STIM_016.jpg
2124.543	0.978	correct	generate	Run3	generate/STIM_016.jpg
2128.294	1.485	correct	generate	Run3	generate/STIM_017.jpg
2133.662	0.901	correct	generate	Run3	generate/STIM_017.jpg
2137.042	2.189	correct	generate	Run3	generate/STIM_017.jpg
2141.163	1.798	correct	generate	Run3	generate/STIM_017.jpg
2146.679	1.909	correct	generate	Run3	generate/STIM_017.jpg
2150.935	1.986	correct	generate	Run3	generate/STIM_018.jpg
2156.016	1.112	correct	generate	Run3	generate/STIM_018.jpg
2160.52	1.094	correct	generate	Run3	generate/STIM_018.jpg
2164.503	1.946	correct	generate	Run3	generate/STIM_018.jpg
2169.828	0.911	correct	generate	Run3	generate/STIM_018.jpg
2173.14	2.032	correct	generate	Run3	generate/STIM_019.jpg
2178.928	1.928	correct	generate	Run3	generate/STIM_019.jpg
2184.001	0.971	correct	generate	Run3	generate/STIM_019.jpg
2187.04	1.558	correct	generate	Run3	generate/STIM_019.jpg
2190.981	1.519	correct	generate	Run3	generate/STIM_019.jpg
2195.018	2.051	correct	generate	Run3	generate/STIM_020.jpg
2199.8	1.168	correct	generate	Run3	generate/STIM_020.jpg
2204.245	1.575	correct	generate	Run3	generate/STIM_020.jpg
2208.713	1.667	correct	generate	Run3	generate/STIM_020.jpg
2213.203	1.415	incorrect	generate	Run3	generate/STIM_020.jpg
2218.534	1.434	correct	generate	Run3	generate/STIM_021.jpg
2222.091	1.703	correct	generate	Run3	generate/STIM_021.jpg
2227.216	2.034	correct	generate	Run3	generate/STIM_021.jpg
2231.87	1.519	correct	generate	Run3	generate/STIM_021.jpg
2236.456	2.114	correct	generate	Run3	generate/STIM_021.jpg
2240.832	2.109	correct	generate	Run3	generate/STIM_022.jpg
2245.983	1.654	correct	generate	Run3	generate/STIM_022.jpg
2251.495	0.974	correct	generate	Run3	generate/STIM_022.jpg
2255.513	1.581	correct	generate	Run3	generate/STIM_022.jpg
2260.671	1.044	correct	generate	Run3	generate/STIM_022.jpg
2264.876	0.894	incorrect	generate	Run3	generate/STIM_023.jpg
2268.091	1.418	correct	generate	Run3	generate/STIM_023.jpg
2272.016	1.224	correct	generate	Run3	generate/STIM_023.jpg
2275.45	2.177	correct	generate	Run3	generate/STIM_023.jpg
2281.51	1.538	correct	generate	Run3	generate/STIM_023.jpg
2286.464	2.079	correct	generate	Run3	generate/STIM_024.jpg
2290.538	1.392	correct	generate	Run3	generate/STIM_024.jpg
2295.032	1.767	correct	generate	Run3	generate/STIM_024.jpg
2299.202	2.107	correct	generate	Run3	generate/STIM_024.jpg
2304.666	1.031	correct	generate	Run3	generate/STIM_024.jpg
2308.613	0.948	correct	repeat	Run3	repeat/STIM_000.jpg
2312.107	0.894	correct	repeat	Run3	repeat/STIM_000.jpg
2315.895	0.535	correct	repeat	Run3	repeat/STIM_000.jpg
2319.334	0.91	correct	repeat	Run3	repeat/STIM_000.jpg
2324.031	1.037	correct	repeat	Run3	repeat/STIM_000.jpg
2328.375	0.842	correct	repeat	Run3	repeat/STIM_001.jpg
2332.098	0.65	correct	repeat	Run3	repeat/STIM_001.jpg
2334.855	0.792	correct	repeat	Run3	repeat/STIM_001.jpg
2337.741	0.653	incorrect	repeat	Run3	repeat/STIM_001.jpg
2341.806	0.714	correct	repeat	Run3	repeat/STIM_001.jpg
2346.092	0.897	correct	repeat	Run3	repeat/STIM_002.jpg
2350.641	0.615	correct	repeat	Run3	repeat/STIM_002.jpg
2354.85	0.662	correct	repeat	Run3	repeat/STIM_002.jpg
2357.953	0.88	correct	repeat	Run3	repeat/STIM_002.jpg
2362.787	0.944	correct	repeat	Run3	repeat/STIM_002.jpg
2367.374	0.693	correct	repeat	Run3	repeat/STIM_003.jpg
2370.557	0.581	correct	repeat	Run3	repeat/STIM_003.jpg
2373.913	1.048	correct	repeat	Run3	repeat/STIM_003.jpg
2378.846	0.557	correct	repeat	Run3	repeat/STIM_003.jpg
2382.534	0.708	correct	repeat	Run3	repeat/STIM_003.jpg
2386.116	0.959	correct	repeat	Run3	repeat/STIM_004.jpg
2390.525	1.034	correct	repeat	Run3	repeat/STIM_004.jpg
2394.081	0.681	correct	repeat	Run3	repeat/STIM_004.jpg
2397.922	1.022	correct	repeat	Run3	repeat/STIM_004.jpg
2401.243	1.037	correct	repeat	Run3	repeat/STIM_004.jpg
2406.161	0.926	correct	repeat	Run3	repeat/STIM_005.jpg
2409.668	0.537	correct	repeat	Run3	repeat/STIM_005.jpg
2413.977	0.554	correct	repeat	Run3	repeat/STIM_005.jpg
2417.76	0.778	correct	repeat	Run3	repeat/STIM_005.jpg
2421.667	0.615	correct	repeat	Run3	repeat/STIM_005.jpg
2424.418	0.996	correct	repeat	Run3	repeat/STIM_006.jpg
2428.66	0.942	correct	repeat	Run3	repeat/STIM_006.jpg
2432.061	0.88	correct	repeat	Run3	repeat/STIM_006.jpg
2435.295	0.633	correct	repeat	Run3	repeat/STIM_006.jpg
2438.46	0.72	correct	repeat	Run3	repeat/STIM_006.jpg
2441.335	0.891	correct	repeat	Run3	repeat/STIM_007.jpg
2446.107	0.864	correct	repeat	Run3	repeat/STIM_007.jpg
2450.544	0.73	correct	repeat	Run3	repeat/STIM_007.jpg
2454.214	0.821	correct	repeat	Run3	repeat/STIM_007.jpg
2457.075	0.607	correct	repeat	Run3	repeat/STIM_007.jpg
2461.127	0.539	correct	repeat	Run3	repeat/STIM_008.jpg
2465.523	0.7	correct	repeat	Run3	repeat/STIM_008.jpg
2469.721	0.804	correct	repeat	Run3	repeat/STIM_008.jpg
2473.818	0.73	correct	repeat	Run3	repeat/STIM_008.jpg
2478.127	0.921	correct	repeat	Run3	repeat/STIM_008.jpg
2481.711	0.69	incorrect	repeat	Run3	repeat/STIM_009.jpg
2486.184	0.997	correct	repeat	Run3	repeat/STIM_009.jpg
2489.961	0.949	incorrect	repeat	Run3	repeat/STIM_009.jpg
2494.688	0.961	correct	repeat	Run3	repeat/STIM_009.jpg
2498.53	0.634	correct	repeat	Run3	repeat/STIM_009.jpg
2502.65	0.588	correct	repeat	Run3	repeat/STIM_010.jpg
2506.86	0.568	correct	repeat	Run3	repeat/STIM_010.jpg
2511.282	0.717	correct	repeat	Run3	repeat/STIM_010.jpg
2515.498	0.996	correct	repeat	Run3	repeat/STIM_010.jpg
2518.552	0.96	correct	repeat	Run3	repeat/STIM_010.jpg
2523.292	0.572	correct	repeat	Run3	repeat/STIM_011.jpg
2527.768	0.719	correct	repeat	Run3	repeat/STIM_011.jpg
2531.739	0.817	correct	repeat	Run3	repeat/STIM_011.jpg
2535.614	0.927	correct	repeat	Run3	repeat/STIM_011.jpg
2540.325	0.553	correct	repeat	Run3	repeat/STIM_011.jpg
2544.049	0.609	correct	repeat	Run3	repeat/STIM_012.jpg
2548.583	0.621	correct	repeat	Run3	repeat/STIM_012.jpg
2551.415	0.685	correct	repeat	Run3	repeat/STIM_012.jpg
2555.512	0.607	correct	repeat	Run3	repeat/STIM_012.jpg
2558.257	0.597	correct	repeat	Run3	repeat/STIM_012.jpg
2561.629	1.045	correct	repeat	Run3	repeat/STIM_013.jpg
2565.578	0.847	correct	repeat	Run3	repeat/STIM_013.jpg
2568.777	0.845	correct	repeat	Run3	repeat/STIM_013.jpg
2572.617	0.884	correct	repeat	Run3	repeat/STIM_013.jpg
2576.582	1.038	correct	repeat	Run3	repeat/STIM_013.jpg
2580.532	1.036	correct	repeat	Run3	repeat/STIM_014.jpg
2584.157	0.653	correct	repeat	Run3	repeat/STIM_014.jpg
2588.038	0.544	correct	repeat	Run3	repeat/STIM_014.jpg
2590.96	0.906	correct	repeat	Run3	repeat/STIM_014.jpg
2594.902	0.566	correct	repeat	Run3	repeat/STIM_014.jpg
2598.358	1.974	correct	generate	Run4	generate/STIM_000.jpg
2602.742	0.939	correct	generate	Run4	generate/STIM_000.jpg
2606.737	1.141	correct	generate	Run4	generate/STIM_000.jpg
2610.374	1.11	correct	generate	Run4	generate/STIM_000.jpg
2613.986	1.838	correct	generate	Run4	generate/STIM_000.jpg
2619.714	1.3	correct	generate	Run4	generate/STIM_001.jpg
2624.303	2.033	correct	generate	Run4	generate/STIM_001.jpg
2628.868	1.066	correct	generate	Run4	generate/STIM_001.jpg
2632.367	1.445	correct	generate	Run4	generate/STIM_001.jpg
2635.811	1.657	correct	generate	Run4	generate/STIM_001.jpg
2641.206	1.928	correct	generate	Run4	generate/STIM_002.jpg
2646.222	1.679	correct	generate	Run4	generate/STIM_002.jpg
2650.965	1.163	correct	generate	Run4	generate/STIM_002.jpg
2655.789	1.257	correct	generate	Run4	generate/STIM_002.jpg
2659.479	2.196	correct	generate	Run4	generate/STIM_002.jpg
2664.379	2.106	correct	generate	Run4	generate/STIM_003.jpg
2669.638	1.078	correct	generate	Run4	generate/STIM_003.jpg
2672.86	1.721	correct	generate	Run4	generate/STIM_003.jpg
2677.291	1.473	correct	generate	Run4	generate/STIM_003.jpg
2681.9	1.094	correct	generate	Run4	generate/STIM_003.jpg
2685.467	1.556	correct	generate	Run4	generate/STIM_004.jpg
2689.417	1.145	correct	generate	Run4	generate/STIM_004.jpg
2692.536	1.97	correct	generate	Run4	generate/STIM_004.jpg
2698.402	0.981	correct	generate	Run4	generate/STIM_004.jpg
2701.693	2.007	correct	generate	Run4	generate/STIM_004.jpg
2706.073	2.081	correct	generate	Run4	generate/STIM_005.jpg
2710.76	1.343	correct	generate	Run4	generate/STIM_005.jpg
2714.997	1.883	correct	generate	Run4	generate/STIM_005.jpg
2719.982	1.118	correct	generate	Run4	generate/STIM_005.jpg
2724.738	1.009	correct	generate	Run4	generate/STIM_005.jpg
2729.115	1.624	correct	generate	Run4	generate/STIM_006.jpg
2733.847	1.1	correct	generate	Run4	generate/STIM_006.jpg
2738.004	1.292	incorrect	generate	Run4	generate/STIM_006.jpg
2742.356	1.53	correct	generate	Run4	generate/STIM_006.jpg
2746.89	1.858	correct	generate	Run4	generate/STIM_006.jpg
2751.124	1.758	incorrect	generate	Run4	generate/STIM_007.jpg
2756.758	1.192	incorrect	generate	Run4	generate/STIM_007.jpg
2760.467	1.463	correct	generate	Run4	generate/STIM_007.jpg
2764.085	1.776	correct	generate	Run4	generate/STIM_007.jpg
2769.281	1.625	correct	generate	Run4	generate/STIM_007.jpg
2773.495	1.94	correct	generate	Run4	generate/STIM_008.jpg
2778.006	1.148	correct	generate	Run4	generate/STIM_008.jpg
2783.046	2.072	correct	generate	Run4	generate/STIM_008.jpg
2787.573	1.566	correct	generate	Run4	generate/STIM_008.jpg
2792.637	2.1	correct	generate	Run4	generate/STIM_008.jpg
2797.525	1.488	correct	generate	Run4	generate/STIM_009.jpg
2801.783	0.906	correct	generate	Run4	generate/STIM_009.jpg
2806.113	1.691	incorrect	generate	Run4	generate/STIM_009.jpg
2810.069	0.922	correct	generate	Run4	generate/STIM_009.jpg
2814.472	1.598	correct	generate	Run4	generate/STIM_009.jpg
2818.869	1.748	correct	generate	Run4	generate/STIM_010.jpg
2823.823	1.012	correct	generate	Run4	generate/STIM_010.jpg
2827.66	1.478	correct	generate	Run4	generate/STIM_010.jpg
2832.561	2.14	correct	generate	Run4	generate/STIM_010.jpg
2837.842	1.213	correct	generate	Run4	generate/STIM_010.jpg
2842.329	1.557	correct	generate	Run4	generate/STIM_011.jpg
2847.353	2.066	correct	generate	Run4	generate/STIM_011.jpg
2853.314	2.072	correct	generate	Run4	generate/STIM_011.jpg
2859.056	1.546	correct	generate	Run4	generate/STIM_011.jpg
2864.013	1.73	correct	generate	Run4	generate/STIM_011.jpg
2868.461	1.254	correct	generate	Run4	generate/STIM_012.jpg
2872.248	1.746	correct	generate	Run4	generate/STIM_012.jpg
2877.093	1.4	correct	generate	Run4	generate/STIM_012.jpg
2881.325	0.989	correct	generate	Run4	generate/STIM_012.jpg
2884.976	1.149	correct	generate	Run4	generate/STIM_012.jpg
2889.64	1.58	correct	generate	Run4	generate/STIM_013.jpg
2894.753	1.145	correct	generate	Run4	generate/STIM_013.jpg
2897.929	1.941	correct	generate	Run4	generate/STIM_013.jpg
2902.549	1.44	correct	generate	Run4	generate/STIM_013.jpg
2906.315	1.625	correct	generate	Run4	generate/STIM_013.jpg
2910.315	1.113	correct	generate	Run4	generate/STIM_014.jpg
2914.183	1.132	correct	generate	Run4	generate/STIM_014.jpg
2919.245	1.246	correct	generate	Run4	generate/STIM_014.jpg
2922.598	1.792	correct	generate	Run4	generate/STIM_014.jpg
2927.206	1.89	correct	generate	Run4	generate/STIM_014.jpg
2931.829	1.705	correct	generate	Run4	generate/STIM_015.jpg
2937.403	1.015	correct	generate	Run4	generate/STIM_015.jpg
2941.347	1.36	correct	generate	Run4	generate/STIM_015.jpg
2945.836	2.12	correct	generate	Run4	generate/STIM_015.jpg
2950.313	1.454	correct	generate	Run4	generate/STIM_015.jpg
2954.851	1.115	correct	generate	Run4	generate/STIM_016.jpg
2958.507	0.895	correct	generate	Run4	generate/STIM_016.jpg
2962.365	1.798	correct	generate	Run4	generate/STIM_016.jpg
2967.75	2.079	correct	generate	Run4	generate/STIM_016.jpg
2972.811	1.582	correct	generate	Run4	generate/STIM_016.jpg
2977.445	1.119	correct	generate	Run4	generate/STIM_017.jpg
2981.174	1.792	correct	generate	Run4	generate/STIM_017.jpg
2985.495	1.38	correct	generate	Run4	generate/STIM_017.jpg
2989.765	2.005	correct	generate	Run4	generate/STIM_017.jpg
2994.981	1.712	correct	generate	Run4	generate/STIM_017.jpg
3000.291	1.55	incorrect	generate	Run4	generate/STIM_018.jpg
3003.975	1.207	correct	generate	Run4	generate/STIM_018.jpg
3008.501	1.102	correct	generate	Run4	generate/STIM_018.jpg
3013.285	1.977	correct	generate	Run4	generate/STIM_018.jpg
3017.955	2.136	correct	generate	Run4	generate/STIM_018.jpg
3022.857	1.903	correct	generate	Run4	generate/STIM_019.jpg
3027.977	1.999	correct	generate	Run4	generate/STIM_019.jpg
3032.832	1.043	correct	generate	Run4	generate/STIM_019.jpg
3036.732	2.057	correct	generate	Run4	generate/STIM_019.jpg
3040.86	1.592	correct	generate	Run4	generate/STIM_019.jpg
3046.025	1.43	incorrect	generate	Run4	generate/STIM_020.jpg
3051.387	1.914	correct	generate	Run4	generate/STIM_020.jpg
3057.162	1.64	correct	generate	Run4	generate/STIM_020.jpg
3061.498	0.902	correct	generate	Run4	generate/STIM_020.jpg
3064.679	0.955	correct	generate	Run4	generate/STIM_020.jpg
3067.699	1.6	correct	generate	Run4	generate/STIM_021.jpg
3072.891	1.982	correct	generate	Run4	generate/STIM_021.jpg
3077.066	1.419	correct	generate	Run4	generate/STIM_021.jpg
3081.964	1.606	correct	generate	Run4	generate/STIM_021.jpg
3086.485	1.92	correct	generate	Run4	generate/STIM_021.jpg
3090.508	1.928	correct	generate	Run4	generate/STIM_022.jpg
3095.47	1.89	correct	generate	Run4	generate/STIM_022.jpg
3099.533	1.261	correct	generate	Run4	generate/STIM_022.jpg
3103.067	1.592	correct	generate	Run4	generate/STIM_022.jpg
3107.794	1.758	correct	generate	Run4	generate/STIM_022.jpg
3111.969	2.191	correct	generate	Run4	generate/STIM_023.jpg
3117.037	1.146	correct	generate	Run4	generate/STIM_023.jpg
3121.454	0.989	correct	generate	Run4	generate/STIM_023.jpg
3125.392	1.705	correct	generate	Run4	generate/STIM_023.jpg
3130.588	2.182	correct	generate	Run4	generate/STIM_023.jpg
3136.521	1.904	correct	generate	Run4	generate/STIM_024.jpg
3142.064	2.069	correct	generate	Run4	generate/STIM_024.jpg
3146.087	1.914	correct	generate	Run4	generate/STIM_024.jpg
3151.016	1.949	correct	generate	Run4	generate/STIM_024.jpg
3156.474	2.051	correct	generate	Run4	generate/STIM_024.jpg
3161.725	1.011	correct	repeat	Run4	repeat/STIM_000.jpg
3165.105	0.82	correct	repeat	Run4	repeat/STIM_000.jpg
3169.703	0.603	correct	repeat	Run4	repeat/STIM_000.jpg
3172.376	0.776	correct	repeat	Run4	repeat/STIM_000.jpg
3175.326	0.655	correct	repeat	Run4	repeat/STIM_000.jpg
3179.487	0.948	correct	repeat	Run4	repeat/STIM_001.jpg
3183.488	0.641	correct	repeat	Run4	repeat/STIM_001.jpg
3186.589	1.015	correct	repeat	Run4	repeat/STIM_001.jpg
3190.47	0.723	correct	repeat	Run4	repeat/STIM_001.jpg
3194.998	0.636	correct	repeat	Run4	repeat/STIM_001.jpg
3198.446	0.544	incorrect	repeat	Run4	repeat/STIM_002.jpg
3202.382	0.93	correct	repeat	Run4	repeat/STIM_002.jpg
3205.739	1.014	correct	repeat	Run4	repeat/STIM_002.jpg
3209.325	0.751	incorrect	repeat	Run4	repeat/STIM_002.jpg
3212.464	1.027	correct	repeat	Run4	repeat/STIM_002.jpg
3216.179	0.879	correct	repeat	Run4	repeat/STIM_003.jpg
3219.596	0.858	correct	repeat	Run4	repeat/STIM_003.jpg
3222.439	0.526	correct	repeat	Run4	repeat/STIM_003.jpg
3226.299	0.835	correct	repeat	Run4	repeat/STIM_003.jpg
3229.575	0.907	correct	repeat	Run4	repeat/STIM_003.jpg
3233.301	0.783	correct	repeat	Run4	repeat/STIM_004.jpg
3237.402	0.882	incorrect	repeat	Run4	repeat/STIM_004.jpg
3241.33	0.792	correct	repeat	Run4	repeat/STIM_004.jpg
3244.938	0.568	correct	repeat	Run4	repeat/STIM_004.jpg
3248.13	0.648	correct	repeat	Run4	repeat/STIM_004.jpg
3252.553	0.551	correct	repeat	Run4	repeat/STIM_005.jpg
3256.003	0.73	correct	repeat	Run4	repeat/STIM_005.jpg
3258.746	0.649	correct	repeat	Run4	repeat/STIM_005.jpg
3261.799	0.865	correct	repeat	Run4	repeat/STIM_005.jpg
3266.265	0.673	correct	repeat	Run4	repeat/STIM_005.jpg
3269.644	0.867	correct	repeat	Run4	repeat/STIM_006.jpg
3272.816	0.681	correct	repeat	Run4	repeat/STIM_006.jpg
3275.899	0.571	correct	repeat	Run4	repeat/STIM_006.jpg
3278.624	0.826	correct	repeat	Run4	repeat/STIM_006.jpg
3283.334	0.966	correct	repeat	Run4	repeat/STIM_006.jpg
3286.806	0.964	correct	repeat	Run4	repeat/STIM_007.jpg
3291.421	0.742	correct	repeat	Run4	repeat/STIM_007.jpg
3294.396	0.766	correct	repeat	Run4	repeat/STIM_007.jpg
3297.896	0.979	correct	repeat	Run4	repeat/STIM_007.jpg
3301.001	0.783	correct	repeat	Run4	repeat/STIM_007.jpg
3305.596	0.554	correct	repeat	Run4	repeat/STIM_008.jpg
3309.103	0.595	correct	repeat	Run4	repeat/STIM_008.jpg
3313.172	0.635	incorrect	repeat	Run4	repeat/STIM_008.jpg
3317.383	0.901	correct	repeat	Run4	repeat/STIM_008.jpg
3320.452	0.552	correct	repeat	Run4	repeat/STIM_008.jpg
3323.739	0.622	correct	repeat	Run4	repeat/STIM_009.jpg
3326.631	0.96	incorrect	repeat	Run4	repeat/STIM_009.jpg
3330.661	0.782	correct	repeat	Run4	repeat/STIM_009.jpg
3333.486	0.614	correct	repeat	Run4	repeat/STIM_009.jpg
3336.336	0.564	correct	repeat	Run4	repeat/STIM_009.jpg
3339.63	0.867	correct	repeat	Run4	repeat/STIM_010.jpg
3344.17	0.844	correct	repeat	Run4	repeat/STIM_010.jpg
3347.422	0.881	correct	repeat	Run4	repeat/STIM_010.jpg
3351.264	0.822	correct	repeat	Run4	repeat/STIM_010.jpg
3356.027	0.598	correct	repeat	Run4	repeat/STIM_010.jpg
3359.596	0.576	correct	repeat	Run4	repeat/STIM_011.jpg
3364.055	0.998	correct	repeat	Run4	repeat/STIM_011.jpg
3368.853	0.711	correct	repeat	Run4	repeat/STIM_011.jpg
3373.247	0.617	correct	repeat	Run4	repeat/STIM_011.jpg
3377.276	0.639	correct	repeat	Run4	repeat/STIM_011.jpg
3381.016	0.665	correct	repeat	Run4	repeat/STIM_012.jpg
3384.658	1.03	correct	repeat	Run4	repeat/STIM_012.jpg
3388.241	0.726	correct	repeat	Run4	repeat/STIM_012.jpg
3392.757	0.654	correct	repeat	Run4	repeat/STIM_012.jpg
3395.69	0.64	correct	repeat	Run4	repeat/STIM_012.jpg
3399.858	1.02	correct	repeat	Run4	repeat/STIM_013.jpg
3404.514	0.878	correct	repeat	Run4	repeat/STIM_013.jpg
3409.021	0.615	correct	repeat	Run4	repeat/STIM_013.jpg
3413.116	0.832	correct	repeat	Run4	repeat/STIM_013.jpg
3415.969	0.995	correct	repeat	Run4	repeat/STIM_013.jpg
3420.368	0.926	correct	repeat	Run4	repeat/STIM_014.jpg
3424.977	0.628	correct	repeat	Run4	repeat/STIM_014.jpg
3428.431	0.744	correct	repeat	Run4	repeat/STIM_014.jpg
3431.765	0.68	correct	repeat	Run4	repeat/STIM_014.jpg
3435.391	0.901	correct	repeat	Run4	repeat/STIM_014.jpg
