onset	duration	response_time_ms	trial_type	learning_stage	stimulus	response_port
0.0	2.813	2813.3	generate	Run1	generate/STIM_000.jpg	100
6.051	2.98	2979.9	generate	Run1	generate/STIM_000.jpg	99
12.116	1.745	1745.4	generate	Run1	generate/STIM_000.jpg	100
16.071	2.157	2156.9	generate	Run1	generate/STIM_000.jpg	100
21.216	1.642	1641.8	generate	Run1	generate/STIM_000.jpg	100
25.342	1.836	1836.4	generate	Run1	generate/STIM_001.jpg	100
29.859	2.298	2298.1	generate	Run1	generate/STIM_001.jpg	100
34.767	1.946	1945.9	generate	Run1	generate/STIM_001.jpg	99
40.463	1.191	1191.4	generate	Run1	generate/STIM_001.jpg	99
45.224	1.104	1104.3	generate	Run1	generate/STIM_001.jpg	99
49.565	2.104	2104.3	generate	Run1	generate/STIM_002.jpg	100
53.641	1.262	1262.3	generate	Run1	generate/STIM_002.jpg	99
58.652	1.831	1830.9	generate	Run1	generate/STIM_002.jpg	99
64.191	1.962	1961.9	generate	Run1	generate/STIM_002.jpg	100
69.699	2.106	2105.7	generate	Run1	generate/STIM_002.jpg	100
75.473	1.823	1823.3	generate	Run1	generate/STIM_003.jpg	99
81.118	2.745	2745.2	generate	Run1	generate/STIM_003.jpg	100
87.007	1.824	1823.8	generate	Run1	generate/STIM_003.jpg	100
92.57	1.37	1369.5	generate	Run1	generate/STIM_003.jpg	100
96.349	2.368	2368.1	generate	Run1	generate/STIM_003.jpg	100
102.269	1.78	1779.6	generate	Run1	generate/STIM_004.jpg	100
107.636	2.024	2023.9	generate	Run1	generate/STIM_004.jpg	100
112.844	1.492	1492.0	generate	Run1	generate/STIM_004.jpg	99
116.439	1.526	1526.1	generate	Run1	generate/STIM_004.jpg	99
120.002	1.724	1724.1	generate	Run1	generate/STIM_004.jpg	100
124.314	1.369	1369.3	generate	Run1	generate/STIM_005.jpg	100
129.223	1.654	1653.5	generate	Run1	generate/STIM_005.jpg	99
133.45	2.72	2720.0	generate	Run1	generate/STIM_005.jpg	100
139.64	2.029	2029.4	generate	Run1	generate/STIM_005.jpg	99
144.719	1.084	1083.7	generate	Run1	generate/STIM_005.jpg	100
148.213	2.469	2469.3	generate	Run1	generate/STIM_006.jpg	99
153.666	1.898	1897.7	generate	Run1	generate/STIM_006.jpg	100
157.565	2.022	2022.5	generate	Run1	generate/STIM_006.jpg	99
163.336	2.394	2393.8	generate	Run1	generate/STIM_006.jpg	99
168.871	2.344	2344.2	generate	Run1	generate/STIM_006.jpg	99
173.796	2.844	2844.1	generate	Run1	generate/STIM_007.jpg	100
179.197	1.874	1874.4	generate	Run1	generate/STIM_007.jpg	100
183.449	2.346	2346.1	generate	Run1	generate/STIM_007.jpg	99
188.77	2.064	2064.3	generate	Run1	generate/STIM_007.jpg	100
193.203	2.42	2419.8	generate	Run1	generate/STIM_007.jpg	100
199.255	2.568	2568.3	generate	Run1	generate/STIM_008.jpg	100
205.633	1.524	1524.0	generate	Run1	generate/STIM_008.jpg	99
210.813	2.457	2457.1	generate	Run1	generate/STIM_008.jpg	100
215.63	1.48	1480.3	generate	Run1	generate/STIM_008.jpg	100
220.247	1.713	1713.2	generate	Run1	generate/STIM_008.jpg	99
225.061	2.805	2804.8	generate	Run1	generate/STIM_009.jpg	100
231.221	2.624	2624.3	generate	Run1	generate/STIM_009.jpg	100
237.221	1.708	1707.8	generate	Run1	generate/STIM_009.jpg	100
241.574	1.142	1142.2	generate	Run1	generate/STIM_009.jpg	100
246.015	1.685	1685.3	generate	Run1	generate/STIM_009.jpg	99
251.367	1.617	1617.3	generate	Run1	generate/STIM_010.jpg	100
256.336	2.211	2211.4	generate	Run1	generate/STIM_010.jpg	99
261.156	2.266	2266.1	generate	Run1	generate/STIM_010.jpg	99
266.033	2.52	2520.3	generate	Run1	generate/STIM_010.jpg	100
271.594	2.154	2154.2	generate	Run1	generate/STIM_010.jpg	100
276.199	2.238	2237.5	generate	Run1	generate/STIM_011.jpg	99
281.576	2.728	2728.4	generate	Run1	generate/STIM_011.jpg	100
287.939	2.113	2113.1	generate	Run1	generate/STIM_011.jpg	100
292.07	2.101	2101.3	generate	Run1	generate/STIM_011.jpg	100
296.731	1.034	1034.5	generate	Run1	generate/STIM_011.jpg	100
300.937	1.917	1917.1	generate	Run1	generate/STIM_012.jpg	99
305.382	2.95	2950.1	generate	Run1	generate/STIM_012.jpg	99
310.819	1.502	1501.6	generate	Run1	generate/STIM_012.jpg	100
315.606	2.289	2289.3	generate	Run1	generate/STIM_012.jpg	100
321.196	2.213	2212.8	generate	Run1	generate/STIM_012.jpg	99
326.405	2.894	2894.5	generate	Run1	generate/STIM_013.jpg	99
332.226	2.239	2239.1	generate	Run1	generate/STIM_013.jpg	99
337.471	1.843	1843.1	generate	Run1	generate/STIM_013.jpg	99
343.096	1.83	1830.3	generate	Run1	generate/STIM_013.jpg	100
348.13	2.089	2088.7	generate	Run1	generate/STIM_013.jpg	99
353.481	2.35	2350.4	generate	Run1	generate/STIM_014.jpg	99
359.555	2.192	2191.5	generate	Run1	generate/STIM_014.jpg	99
364.361	1.396	1395.8	generate	Run1	generate/STIM_014.jpg	99
369.111	1.366	1365.8	generate	Run1	generate/STIM_014.jpg	99
373.155	1.252	1251.5	generate	Run1	generate/STIM_014.jpg	100
376.948	2.375	2375.2	generate	Run1	generate/STIM_015.jpg	100
382.217	1.733	1732.6	generate	Run1	generate/STIM_015.jpg	99
387.473	2.576	2576.2	generate	Run1	generate/STIM_015.jpg	100
393.74	1.291	1291.3	generate	Run1	generate/STIM_015.jpg	100
398.095	1.676	1676.0	generate	Run1	generate/STIM_015.jpg	100
401.825	2.602	2601.7	generate	Run1	generate/STIM_016.jpg	99
407.958	2.551	2551.3	generate	Run1	generate/STIM_016.jpg	99
412.981	2.235	2234.8	generate	Run1	generate/STIM_016.jpg	100
418.238	1.294	1294.2	generate	Run1	generate/STIM_016.jpg	100
423.147	1.183	1182.8	generate	Run1	generate/STIM_016.jpg	100
426.616	2.331	2331.1	generate	Run1	generate/STIM_017.jpg	99
430.88	1.545	1544.9	generate	Run1	generate/STIM_017.jpg	99
434.559	1.514	1514.4	generate	Run1	generate/STIM_017.jpg	100
438.027	1.415	1415.1	generate	Run1	generate/STIM_017.jpg	99
442.223	2.152	2151.6	generate	Run1	generate/STIM_017.jpg	99
446.528	1.638	1638.0	generate	Run1	generate/STIM_018.jpg	100
451.34	1.484	1484.0	generate	Run1	generate/STIM_018.jpg	100
456.245	2.714	2714.1	generate	Run1	generate/STIM_018.jpg	99
461.259	1.239	1239.0	generate	Run1	generate/STIM_018.jpg	100
466.268	1.666	1666.3	generate	Run1	generate/STIM_018.jpg	99
471.836	2.902	2902.1	generate	Run1	generate/STIM_019.jpg	100
478.518	2.5	2499.9	generate	Run1	generate/STIM_019.jpg	99
483.301	1.775	1775.4	generate	Run1	generate/STIM_019.jpg	100
488.014	1.978	1978.3	generate	Run1	generate/STIM_019.jpg	100
492.336	1.813	1812.9	generate	Run1	generate/STIM_019.jpg	99
497.614	2.719	2719.1	generate	Run1	generate/STIM_020.jpg	100
503.202	2.16	2160.3	generate	Run1	generate/STIM_020.jpg	100
508.826	2.821	2821.3	generate	Run1	generate/STIM_020.jpg	100
515.344	1.621	1621.3	generate	Run1	generate/STIM_020.jpg	99
520.703	2.413	2413.4	generate	Run1	generate/STIM_020.jpg	100
525.552	1.964	1963.8	generate	Run1	generate/STIM_021.jpg	99
531.249	1.658	1657.8	generate	Run1	generate/STIM_021.jpg	99
535.056	1.812	1812.5	generate	Run1	generate/STIM_021.jpg	100
540.499	1.836	1836.2	generate	Run1	generate/STIM_021.jpg	99
545.159	2.086	2086.1	generate	Run1	generate/STIM_021.jpg	100
550.436	1.715	1715.3	generate	Run1	generate/STIM_022.jpg	99
555.614	1.485	1485.2	generate	Run1	generate/STIM_022.jpg	100
560.214	2.77	2770.4	generate	Run1	generate/STIM_022.jpg	100
566.15	2.482	2481.5	generate	Run1	generate/STIM_022.jpg	100
570.779	2.395	2394.8	generate	Run1	generate/STIM_022.jpg	99
576.965	2.209	2208.6	generate	Run1	generate/STIM_023.jpg	100
582.01	1.559	1559.2	generate	Run1	generate/STIM_023.jpg	100
587.429	2.248	2248.3	generate	Run1	generate/STIM_023.jpg	100
593.093	1.688	1688.3	generate	Run1	generate/STIM_023.jpg	99
596.759	2.142	2142.3	generate	Run1	generate/STIM_023.jpg	99
602.22	2.67	2670.0	generate	Run1	generate/STIM_024.jpg	100
608.105	1.489	1489.0	generate	Run1	generate/STIM_024.jpg	100
611.68	2.228	2228.3	generate	Run1	generate/STIM_024.jpg	99
617.442	1.272	1271.5	generate	Run1	generate/STIM_024.jpg	99
620.732	1.03	1030.0	generate	Run1	generate/STIM_024.jpg	99
625.435	0.899	899.2	repeat	Run1	repeat/STIM_000.jpg	100
630.111	0.806	806.1	repeat	Run1	repeat/STIM_000.jpg	100
633.821	0.638	637.9	repeat	Run1	repeat/STIM_000.jpg	100
638.202	0.7	699.5	repeat	Run1	repeat/STIM_000.jpg	99
641.742	0.88	879.6	repeat	Run1	repeat/STIM_000.jpg	100
645.53	0.78	779.9	repeat	Run1	repeat/STIM_001.jpg	99
649.057	1.035	1034.7	repeat	Run1	repeat/STIM_001.jpg	100
654.006	0.729	729.1	repeat	Run1	repeat/STIM_001.jpg	99
658.443	0.854	853.7	repeat	Run1	repeat/STIM_001.jpg	99
662.804	0.914	913.6	repeat	Run1	repeat/STIM_001.jpg	100
665.734	0.557	556.8	repeat	Run1	repeat/STIM_002.jpg	99
669.969	0.911	911.0	repeat	Run1	repeat/STIM_002.jpg	100
674.558	0.941	941.2	repeat	Run1	repeat/STIM_002.jpg	100
678.687	1.03	1029.8	repeat	Run1	repeat/STIM_002.jpg	100
682.025	0.826	826.5	repeat	Run1	repeat/STIM_002.jpg	100
685.717	0.636	636.4	repeat	Run1	repeat/STIM_003.jpg	100
689.921	0.942	941.6	repeat	Run1	repeat/STIM_003.jpg	99
693.968	0.697	696.8	repeat	Run1	repeat/STIM_003.jpg	99
698.141	0.862	862.3	repeat	Run1	repeat/STIM_003.jpg	100
701.889	0.604	603.6	repeat	Run1	repeat/STIM_003.jpg	99
705.274	0.647	646.6	repeat	Run1	repeat/STIM_004.jpg	99
708.806	0.613	613.0	repeat	Run1	repeat/STIM_004.jpg	99
711.747	1.027	1027.1	repeat	Run1	repeat/STIM_004.jpg	99
716.045	0.879	878.7	repeat	Run1	repeat/STIM_004.jpg	99
720.037	0.659	659.1	repeat	Run1	repeat/STIM_004.jpg	100
722.798	0.662	661.6	repeat	Run1	repeat/STIM_005.jpg	100
725.534	0.63	629.6	repeat	Run1	repeat/STIM_005.jpg	99
728.89	0.808	807.7	repeat	Run1	repeat/STIM_005.jpg	99
732.401	0.949	949.0	repeat	Run1	repeat/STIM_005.jpg	100
736.473	0.566	566.2	repeat	Run1	repeat/STIM_005.jpg	100
739.136	0.635	635.0	repeat	Run1	repeat/STIM_006.jpg	100
742.843	0.64	640.2	repeat	Run1	repeat/STIM_006.jpg	99
747.086	0.901	901.2	repeat	Run1	repeat/STIM_006.jpg	99
751.703	0.704	704.3	repeat	Run1	repeat/STIM_006.jpg	100
755.925	0.893	893.0	repeat	Run1	repeat/STIM_006.jpg	100
759.895	0.586	585.6	repeat	Run1	repeat/STIM_007.jpg	100
763.439	0.738	737.6	repeat	Run1	repeat/STIM_007.jpg	100
767.122	0.653	652.6	repeat	Run1	repeat/STIM_007.jpg	99
769.986	1.046	1045.5	repeat	Run1	repeat/STIM_007.jpg	99
773.289	0.904	904.2	repeat	Run1	repeat/STIM_007.jpg	100
777.613	0.701	700.9	repeat	Run1	repeat/STIM_008.jpg	100
781.109	0.946	945.7	repeat	Run1	repeat/STIM_008.jpg	100
785.955	0.921	921.1	repeat	Run1	repeat/STIM_008.jpg	100
789.053	0.808	808.1	repeat	Run1	repeat/STIM_008.jpg	100
793.303	0.725	725.0	repeat	Run1	repeat/STIM_008.jpg	99
797.835	0.564	563.6	repeat	Run1	repeat/STIM_009.jpg	99
801.63	0.887	887.3	repeat	Run1	repeat/STIM_009.jpg	100
804.949	0.654	653.9	repeat	Run1	repeat/STIM_009.jpg	99
809.56	0.783	783.4	repeat	Run1	repeat/STIM_009.jpg	100
813.896	0.758	757.8	repeat	Run1	repeat/STIM_009.jpg	100
817.691	0.728	727.9	repeat	Run1	repeat/STIM_010.jpg	99
821.129	0.749	749.4	repeat	Run1	repeat/STIM_010.jpg	99
825.162	0.938	938.0	repeat	Run1	repeat/STIM_010.jpg	100
828.512	0.548	547.8	repeat	Run1	repeat/STIM_010.jpg	99
831.839	0.669	668.8	repeat	Run1	repeat/STIM_010.jpg	99
835.732	0.766	765.5	repeat	Run1	repeat/STIM_011.jpg	99
840.036	0.557	556.6	repeat	Run1	repeat/STIM_011.jpg	100
843.583	0.564	564.5	repeat	Run1	repeat/STIM_011.jpg	99
847.753	0.617	617.1	repeat	Run1	repeat/STIM_011.jpg	99
850.951	0.874	873.6	repeat	Run1	repeat/STIM_011.jpg	100
855.722	0.741	740.8	repeat	Run1	repeat/STIM_012.jpg	100
859.05	0.93	929.8	repeat	Run1	repeat/STIM_012.jpg	99
863.162	0.96	960.3	repeat	Run1	repeat/STIM_012.jpg	99
866.201	0.631	631.0	repeat	Run1	repeat/STIM_012.jpg	99
869.333	0.886	886.5	repeat	Run1	repeat/STIM_012.jpg	99
873.272	1.006	1005.6	repeat	Run1	repeat/STIM_013.jpg	99
876.896	0.925	924.8	repeat	Run1	repeat/STIM_013.jpg	100
880.708	0.729	728.7	repeat	Run1	repeat/STIM_013.jpg	100
883.703	1.045	1044.6	repeat	Run1	repeat/STIM_013.jpg	100
887.361	0.726	726.5	repeat	Run1	repeat/STIM_013.jpg	99
891.394	0.866	865.9	repeat	Run1	repeat/STIM_014.jpg	99
896.129	0.923	923.1	repeat	Run1	repeat/STIM_014.jpg	100
899.645	0.566	566.3	repeat	Run1	repeat/STIM_014.jpg	99
902.718	0.768	768.2	repeat	Run1	repeat/STIM_014.jpg	100
906.928	0.818	817.6	repeat	Run1	repeat/STIM_014.jpg	100
910.367	2.663	2662.7	generate	Run2	generate/STIM_000.jpg	99
915.303	1.894	1894.0	generate	Run2	generate/STIM_000.jpg	99
920.642	1.741	1741.1	generate	Run2	generate/STIM_000.jpg	100
925.274	1.515	1514.8	generate	Run2	generate/STIM_000.jpg	99
930.105	2.027	2027.2	generate	Run2	generate/STIM_000.jpg	100
935.975	1.973	1973.0	generate	Run2	generate/STIM_001.jpg	99
940.844	2.378	2378.2	generate	Run2	generate/STIM_001.jpg	99
946.68	1.057	1056.9	generate	Run2	generate/STIM_001.jpg	100
951.019	2.16	2159.5	generate	Run2	generate/STIM_001.jpg	100
955.286	2.111	2111.4	generate	Run2	generate/STIM_001.jpg	99
959.994	2.159	2159.4	generate	Run2	generate/STIM_002.jpg	99
964.689	2.244	2243.8	generate	Run2	generate/STIM_002.jpg	100
969.777	2.215	2215.2	generate	Run2	generate/STIM_002.jpg	99
975.533	1.51	1509.9	generate	Run2	generate/STIM_002.jpg	100
980.115	1.297	1296.8	generate	Run2	generate/STIM_002.jpg	100
984.807	1.456	1456.3	generate	Run2	generate/STIM_003.jpg	99
990.055	1.762	1761.9	generate	Run2	generate/STIM_003.jpg	100
995.449	1.281	1281.3	generate	Run2	generate/STIM_003.jpg	99
999.331	1.37	1369.5	generate	Run2	generate/STIM_003.jpg	100
1003.433	1.359	1359.4	generate	Run2	generate/STIM_003.jpg	100
1007.643	2.176	2176.3	generate	Run2	generate/STIM_004.jpg	99
1012.385	1.088	1087.5	generate	Run2	generate/STIM_004.jpg	99
1015.792	1.546	1545.5	generate	Run2	generate/STIM_004.jpg	100
1019.42	0.942	941.7	generate	Run2	generate/STIM_004.jpg	100
1022.436	2.011	2011.4	generate	Run2	generate/STIM_004.jpg	100
1027.652	2.329	2328.7	generate	Run2	generate/STIM_005.jpg	100
1032.152	1.668	1667.5	generate	Run2	generate/STIM_005.jpg	100
1036.324	1.116	1115.9	generate	Run2	generate/STIM_005.jpg	100
1040.108	1.286	1285.7	generate	Run2	generate/STIM_005.jpg	99
1043.586	1.566	1566.3	generate	Run2	generate/STIM_005.jpg	100
1048.073	2.588	2587.7	generate	Run2	generate/STIM_006.jpg	100
1054.466	1.069	1069.4	generate	Run2	generate/STIM_006.jpg	100
1058.821	1.201	1200.9	generate	Run2	generate/STIM_006.jpg	99
1062.103	1.778	1777.7	generate	Run2	generate/STIM_006.jpg	100
1067.662	1.316	1316.3	generate	Run2	generate/STIM_006.jpg	99
1072.82	1.948	1947.7	generate	Run2	generate/STIM_007.jpg	99
1077.505	1.403	1402.6	generate	Run2	generate/STIM_007.jpg	99
1081.13	1.768	1768.3	generate	Run2	generate/STIM_007.jpg	99
1085.26	1.379	1379.3	generate	Run2	generate/STIM_007.jpg	100
1088.838	1.781	1781.3	generate	Run2	generate/STIM_007.jpg	99
1093.599	1.491	1490.6	generate	Run2	generate/STIM_008.jpg	99
1097.854	2.389	2389.0	generate	Run2	generate/STIM_008.jpg	99
1103.494	1.099	1099.0	generate	Run2	generate/STIM_008.jpg	99
1107.491	1.153	1152.8	generate	Run2	generate/STIM_008.jpg	100
1112.506	1.376	1376.3	generate	Run2	generate/STIM_008.jpg	99
1117.797	1.398	1397.6	generate	Run2	generate/STIM_009.jpg	99
1122.119	2.07	2069.5	generate	Run2	generate/STIM_009.jpg	100
1126.933	1.883	1883.0	generate	Run2	generate/STIM_009.jpg	99
1131.428	2.099	2098.6	generate	Run2	generate/STIM_009.jpg	99
1136.193	1.434	1433.6	generate	Run2	generate/STIM_009.jpg	100
1140.165	2.11	2110.5	generate	Run2	generate/STIM_010.jpg	100
1145.122	1.91	1909.7	generate	Run2	generate/STIM_010.jpg	99
1150.628	1.272	1271.7	generate	Run2	generate/STIM_010.jpg	99
1154.942	1.637	1637.4	generate	Run2	generate/STIM_010.jpg	99
1160.366	1.722	1722.1	generate	Run2	generate/STIM_010.jpg	100
1165.111	1.664	1664.1	generate	Run2	generate/STIM_011.jpg	99
1169.666	2.337	2336.6	generate	Run2	generate/STIM_011.jpg	99
1175.218	1.93	1929.5	generate	Run2	generate/STIM_011.jpg	100
1180.775	1.017	1016.7	generate	Run2	generate/STIM_011.jpg	99
1184.355	1.525	1524.6	generate	Run2	generate/STIM_011.jpg	100
1188.092	1.151	1151.1	generate	Run2	generate/STIM_012.jpg	99
1192.132	1.706	1705.8	generate	Run2	generate/STIM_012.jpg	99
1195.826	1.584	1584.3	generate	Run2	generate/STIM_012.jpg	100
1200.116	2.124	2124.4	generate	Run2	generate/STIM_012.jpg	99
1204.274	1.714	1714.2	generate	Run2	generate/STIM_012.jpg	100
1208.792	2.016	2016.3	generate	Run2	generate/STIM_013.jpg	99
1213.061	1.747	1747.0	generate	Run2	generate/STIM_013.jpg	99
1218.686	2.062	2061.7	generate	Run2	generate/STIM_013.jpg	100
1223.93	1.827	1826.8	generate	Run2	generate/STIM_013.jpg	99
1229.123	1.778	1778.3	generate	Run2	generate/STIM_013.jpg	100
1233.635	1.77	1770.2	generate	Run2	generate/STIM_014.jpg	100
1237.511	2.39	2389.7	generate	Run2	generate/STIM_014.jpg	99
1242.615	1.023	1023.1	generate	Run2	generate/STIM_014.jpg	100
1245.709	1.583	1583.2	generate	Run2	generate/STIM_014.jpg	99
1249.791	2.16	2159.6	generate	Run2	generate/STIM_014.jpg	99
1255.556	2.12	2120.4	generate	Run2	generate/STIM_015.jpg	100
1260.732	2.212	2211.9	generate	Run2	generate/STIM_015.jpg	100
1265.959	1.97	1970.2	generate	Run2	generate/STIM_015.jpg	99
1271.012	1.709	1709.0	generate	Run2	generate/STIM_015.jpg	99
1275.736	1.488	1488.3	generate	Run2	generate/STIM_015.jpg	99
1280.558	2.106	2106.4	generate	Run2	generate/STIM_016.jpg	100
1285.633	2.199	2198.8	generate	Run2	generate/STIM_016.jpg	100
1290.931	1.379	1379.1	generate	Run2	generate/STIM_016.jpg	99
1295.434	2.085	2085.0	generate	Run2	generate/STIM_016.jpg	100
1300.598	2.045	2045.1	generate	Run2	generate/STIM_016.jpg	100
1305.45	1.545	1545.3	generate	Run2	generate/STIM_017.jpg	99
1309.647	2.324	2324.1	generate	Run2	generate/STIM_017.jpg	100
1314.167	1.006	1005.6	generate	Run2	generate/STIM_017.jpg	100
1318.443	2.103	2103.1	generate	Run2	generate/STIM_017.jpg	100
1324.419	2.167	2166.9	generate	Run2	generate/STIM_017.jpg	99
1329.6	2.104	2104.4	generate	Run2	generate/STIM_018.jpg	99
1334.379	1.607	1607.4	generate	Run2	generate/STIM_018.jpg	100
1338.59	1.394	1393.6	generate	Run2	generate/STIM_018.jpg	99
1342.442	1.453	1453.0	generate	Run2	generate/STIM_018.jpg	100
1346.639	1.277	1276.7	generate	Run2	generate/STIM_018.jpg	99
1351.129	2.351	2351.0	generate	Run2	generate/STIM_019.jpg	100
1357.229	1.284	1283.8	generate	Run2	generate/STIM_019.jpg	100
1361.418	1.108	1108.2	generate	Run2	generate/STIM_019.jpg	99
1366.451	1.862	1862.3	generate	Run2	generate/STIM_019.jpg	100
1371.787	0.947	947.1	generate	Run2	generate/STIM_019.jpg	99
1374.836	1.642	1641.6	generate	Run2	generate/STIM_020.jpg	100
1379.904	1.541	1541.2	generate	Run2	generate/STIM_020.jpg	100
1384.54	2.144	2144.3	generate	Run2	generate/STIM_020.jpg	99
1388.902	2.075	2075.0	generate	Run2	generate/STIM_020.jpg	99
1394.221	1.212	1212.4	generate	Run2	generate/STIM_020.jpg	99
1398.689	1.67	1669.9	generate	Run2	generate/STIM_021.jpg	100
1402.504	1.37	1370.0	generate	Run2	generate/STIM_021.jpg	99
1406.742	2.14	2139.9	generate	Run2	generate/STIM_021.jpg	100
1410.991	1.924	1924.3	generate	Run2	generate/STIM_021.jpg	100
1415.428	1.579	1579.4	generate	Run2	generate/STIM_021.jpg	100
1419.156	1.261	1261.4	generate	Run2	generate/STIM_022.jpg	99
1423.994	1.178	1178.5	generate	Run2	generate/STIM_022.jpg	99
1429.011	2.015	2015.2	generate	Run2	generate/STIM_022.jpg	99
1434.835	2.178	2178.3	generate	Run2	generate/STIM_022.jpg	99
1440.401	1.259	1258.8	generate	Run2	generate/STIM_022.jpg	100
1444.223	1.145	1144.9	generate	Run2	generate/STIM_023.jpg	100
1448.211	1.088	1087.7	generate	Run2	generate/STIM_023.jpg	99
1451.736	1.2	1200.1	generate	Run2	generate/STIM_023.jpg	99
1455.627	0.99	989.8	generate	Run2	generate/STIM_023.jpg	99
1458.902	1.059	1059.1	generate	Run2	generate/STIM_023.jpg	99
1462.352	1.443	1443.1	generate	Run2	generate/STIM_024.jpg	100
1467.71	2.494	2493.7	generate	Run2	generate/STIM_024.jpg	99
1472.217	2.191	2190.6	generate	Run2	generate/STIM_024.jpg	99
1478.099	2.049	2049.0	generate	Run2	generate/STIM_024.jpg	100
1482.269	2.14	2139.9	generate	Run2	generate/STIM_024.jpg	99
1487.506	0.834	834.1	repeat	Run2	repeat/STIM_000.jpg	100
1491.508	0.689	689.2	repeat	Run2	repeat/STIM_000.jpg	100
1496.139	0.829	828.9	repeat	Run2	repeat/STIM_000.jpg	100
1500.169	1.032	1032.2	repeat	Run2	repeat/STIM_000.jpg	99
1503.603	0.809	808.9	repeat	Run2	repeat/STIM_000.jpg	100
1507.644	0.724	723.9	repeat	Run2	repeat/STIM_001.jpg	100
1510.884	0.693	692.8	repeat	Run2	repeat/STIM_001.jpg	99
1515.227	0.985	985.3	repeat	Run2	repeat/STIM_001.jpg	100
1518.462	0.611	611.1	repeat	Run2	repeat/STIM_001.jpg	99
1521.537	0.925	924.7	repeat	Run2	repeat/STIM_001.jpg	100
1526.044	0.737	736.7	repeat	Run2	repeat/STIM_002.jpg	99
1528.828	0.577	577.2	repeat	Run2	repeat/STIM_002.jpg	100
1531.648	0.863	863.1	repeat	Run2	repeat/STIM_002.jpg	99
1536.299	0.795	795.1	repeat	Run2	repeat/STIM_002.jpg	99
1539.454	1.018	1017.5	repeat	Run2	repeat/STIM_002.jpg	100
1543.166	0.825	825.0	repeat	Run2	repeat/STIM_003.jpg	99
1547.83	0.999	998.7	repeat	Run2	repeat/STIM_003.jpg	100
1552.616	0.628	627.8	repeat	Run2	repeat/STIM_003.jpg	100
1557.038	0.614	613.7	repeat	Run2	repeat/STIM_003.jpg	100
1560.197	0.613	613.3	repeat	Run2	repeat/STIM_003.jpg	99
1564.165	0.695	694.9	repeat	Run2	repeat/STIM_004.jpg	99
1567.362	0.886	886.4	repeat	Run2	repeat/STIM_004.jpg	99
1570.995	0.669	668.8	repeat	Run2	repeat/STIM_004.jpg	100
1575.587	0.888	888.3	repeat	Run2	repeat/STIM_004.jpg	100
1578.875	0.928	928.3	repeat	Run2	repeat/STIM_004.jpg	99
1582.436	0.927	927.0	repeat	Run2	repeat/STIM_005.jpg	100
1586.667	0.527	526.6	repeat	Run2	repeat/STIM_005.jpg	100
1590.956	0.642	641.7	repeat	Run2	repeat/STIM_005.jpg	100
1593.894	0.987	986.8	repeat	Run2	repeat/STIM_005.jpg	99
1597.637	0.88	880.3	repeat	Run2	repeat/STIM_005.jpg	99
1602.451	0.912	912.5	repeat	Run2	repeat/STIM_006.jpg	100
1606.623	0.541	541.3	repeat	Run2	repeat/STIM_006.jpg	100
1610.254	0.832	831.5	repeat	Run2	repeat/STIM_006.jpg	99
1613.549	0.73	729.7	repeat	Run2	repeat/STIM_006.jpg	100
1617.251	0.602	601.9	repeat	Run2	repeat/STIM_006.jpg	99
1620.226	0.981	980.8	repeat	Run2	repeat/STIM_007.jpg	100
1623.595	0.867	866.8	repeat	Run2	repeat/STIM_007.jpg	100
1627.76	0.716	716.2	repeat	Run2	repeat/STIM_007.jpg	100
1630.458	0.564	563.6	repeat	Run2	repeat/STIM_007.jpg	100
1633.704	0.857	856.7	repeat	Run2	repeat/STIM_007.jpg	100
1638.014	0.66	660.2	repeat	Run2	repeat/STIM_008.jpg	100
1641.887	0.634	633.8	repeat	Run2	repeat/STIM_008.jpg	100
1644.689	0.99	989.6	repeat	Run2	repeat/STIM_008.jpg	100
1649.256	0.61	609.6	repeat	Run2	repeat/STIM_008.jpg	100
1652.764	0.824	823.9	repeat	Run2	repeat/STIM_008.jpg	100
1656.689	0.545	545.0	repeat	Run2	repeat/STIM_009.jpg	100
1660.68	0.92	919.9	repeat	Run2	repeat/STIM_009.jpg	99
1665.042	0.566	566.2	repeat	Run2	repeat/STIM_009.jpg	100
1667.668	0.69	689.8	repeat	Run2	repeat/STIM_009.jpg	99
1670.648	0.782	781.6	repeat	Run2	repeat/STIM_009.jpg	100
1673.658	0.575	575.4	repeat	Run2	repeat/STIM_010.jpg	100
1676.314	0.728	727.8	repeat	Run2	repeat/STIM_010.jpg	100
1679.526	0.736	735.5	repeat	Run2	repeat/STIM_010.jpg	100
1682.468	0.866	865.7	repeat	Run2	repeat/STIM_010.jpg	99
1685.686	0.92	919.9	repeat	Run2	repeat/STIM_010.jpg	99
1689.545	1.032	1032.4	repeat	Run2	repeat/STIM_011.jpg	100
1693.317	0.744	744.2	repeat	Run2	repeat/STIM_011.jpg	100
1697.433	0.87	870.5	repeat	Run2	repeat/STIM_011.jpg	100
1700.918	1.039	1039.1	repeat	Run2	repeat/STIM_011.jpg	100
1704.808	0.552	552.0	repeat	Run2	repeat/STIM_011.jpg	99
1708.558	0.727	726.7	repeat	Run2	repeat/STIM_012.jpg	99
1711.358	0.961	960.8	repeat	Run2	repeat/STIM_012.jpg	100
1715.828	0.744	744.0	repeat	Run2	repeat/STIM_012.jpg	99
1718.698	0.688	688.5	repeat	Run2	repeat/STIM_012.jpg	100
1722.29	0.706	705.5	repeat	Run2	repeat/STIM_012.jpg	99
1725.676	0.592	591.9	repeat	Run2	repeat/STIM_013.jpg	100
1728.408	0.944	943.9	repeat	Run2	repeat/STIM_013.jpg	99
1731.928	0.586	585.7	repeat	Run2	repeat/STIM_013.jpg	99
1736.399	0.883	883.1	repeat	Run2	repeat/STIM_013.jpg	99
1739.648	0.774	773.7	repeat	Run2	repeat/STIM_013.jpg	100
1743.236	0.952	951.6	repeat	Run2	repeat/STIM_014.jpg	99
1747.34	1.047	1047.4	repeat	Run2	repeat/STIM_014.jpg	99
1751.108	0.529	528.8	repeat	Run2	repeat/STIM_014.jpg	100
1753.995	0.81	810.2	repeat	Run2	repeat/STIM_014.jpg	100
1757.373	0.856	855.8	repeat	Run2	repeat/STIM_014.jpg	99
1760.973	1.384	1383.6	generate	Run3	generate/STIM_000.jpg	100
1764.376	1.349	1349.3	generate	Run3	generate/STIM_000.jpg	100
1768.255	1.179	1178.6	generate	Run3	generate/STIM_000.jpg	99
1772.814	1.86	1859.5	generate	Run3	generate/STIM_000.jpg	100
1778.429	1.045	1045.2	generate	Run3	generate/STIM_000.jpg	99
1781.719	1.28	1279.7	generate	Run3	generate/STIM_001.jpg	100
1786.784	0.966	966.0	generate	Run3	generate/STIM_001.jpg	99
1789.727	1.576	1575.8	generate	Run3	generate/STIM_001.jpg	100
1794.479	1.803	1803.4	generate	Run3	generate/STIM_001.jpg	99
1799.982	2.159	2159.2	generate	Run3	generate/STIM_001.jpg	100
1805.802	1.284	1284.2	generate	Run3	generate/STIM_002.jpg	99
1809.259	1.471	1470.6	generate	Run3	generate/STIM_002.jpg	99
1812.882	1.021	1021.4	generate	Run3	generate/STIM_002.jpg	100
1817.635	2.147	2147.0	generate	Run3	generate/STIM_002.jpg	99
1823.428	1.512	1512.1	generate	Run3	generate/STIM_002.jpg	99
1828.196	1.762	1761.5	generate	Run3	generate/STIM_003.jpg	99
1831.898	2.051	2051.4	generate	Run3	generate/STIM_003.jpg	100
1836.779	2.179	2178.6	generate	Run3	generate/STIM_003.jpg	99
1841.01	2.196	2196.0	generate	Run3	generate/STIM_003.jpg	100
1846.433	1.872	1871.5	generate	Run3	generate/STIM_003.jpg	100
1851.847	1.182	1182.4	generate	Run3	generate/STIM_004.jpg	99
1856.403	0.956	956.0	generate	Run3	generate/STIM_004.jpg	99
1861.231	0.982	982.1	generate	Run3	generate/STIM_004.jpg	99
1864.345	1.24	1240.1	generate	Run3	generate/STIM_004.jpg	100
1869.001	1.352	1352.0	generate	Run3	generate/STIM_004.jpg	99
1872.404	2.006	2005.6	generate	Run3	generate/STIM_005.jpg	100
1876.505	1.102	1102.1	generate	Run3	generate/STIM_005.jpg	99
1879.595	1.226	1225.7	generate	Run3	generate/STIM_005.jpg	99
1883.518	1.525	1525.1	generate	Run3	generate/STIM_005.jpg	100
1887.627	1.928	1927.9	generate	Run3	generate/STIM_005.jpg	100
1891.864	0.988	987.9	generate	Run3	generate/STIM_006.jpg	100
1894.921	1.416	1415.7	generate	Run3	generate/STIM_006.jpg	99
1899.387	1.643	1643.2	generate	Run3	generate/STIM_006.jpg	100
1903.533	1.096	1095.9	generate	Run3	generate/STIM_006.jpg	100
1908.074	1.194	1194.1	generate	Run3	generate/STIM_006.jpg	100
1911.782	1.485	1485.0	generate	Run3	generate/STIM_007.jpg	100
1915.498	2.031	2031.0	generate	Run3	generate/STIM_007.jpg	100
1919.503	1.621	1621.2	generate	Run3	generate/STIM_007.jpg	100
1924.401	1.257	1257.1	generate	Run3	generate/STIM_007.jpg	99
1928.657	1.012	1011.7	generate	Run3	generate/STIM_007.jpg	99
1933.252	1.623	1622.9	generate	Run3	generate/STIM_008.jpg	100
1936.996	1.739	1738.8	generate	Run3	generate/STIM_008.jpg	99
1942.223	1.428	1428.3	generate	Run3	generate/STIM_008.jpg	99
1946.602	1.78	1780.1	generate	Run3	generate/STIM_008.jpg	100
1950.316	1.223	1222.7	generate	Run3	generate/STIM_008.jpg	99
1954.073	0.895	894.6	generate	Run3	generate/STIM_009.jpg	99
1957.206	0.939	939.2	generate	Run3	generate/STIM_009.jpg	100
1961.45	1.493	1493.4	generate	Run3	generate/STIM_009.jpg	100
1965.88	1.684	1683.5	generate	Run3	generate/STIM_009.jpg	99
1969.705	2.025	2024.7	generate	Run3	generate/STIM_009.jpg	99
1975.46	2.043	2043.4	generate	Run3	generate/STIM_010.jpg	100
1979.793	1.181	1180.9	generate	Run3	generate/STIM_010.jpg	100
1983.497	1.836	1836.4	generate	Run3	generate/STIM_010.jpg	99
1988.427	1.69	1690.1	generate	Run3	generate/STIM_010.jpg	100
1993.144	1.457	1456.7	generate	Run3	generate/STIM_010.jpg	99
1998.402	2.012	2011.6	generate	Run3	generate/STIM_011.jpg	100
2003.29	1.471	1471.0	generate	Run3	generate/STIM_011.jpg	99
2006.796	2.039	2039.2	generate	Run3	generate/STIM_011.jpg	100
2011.012	0.987	986.6	generate	Run3	generate/STIM_011.jpg	100
2014.025	1.966	1966.3	generate	Run3	generate/STIM_011.jpg	99
2017.968	1.856	1855.8	generate	Run3	generate/STIM_012.jpg	100
2023.349	1.886	1886.1	generate	Run3	generate/STIM_012.jpg	100
2027.287	0.951	950.8	generate	Run3	generate/STIM_012.jpg	100
2030.198	1.261	1261.3	generate	Run3	generate/STIM_012.jpg	99
2034.828	1.356	1355.5	generate	Run3	generate/STIM_012.jpg	100
2038.828	1.23	1229.8	generate	Run3	generate/STIM_013.jpg	100
2042.541	2.016	2016.1	generate	Run3	generate/STIM_013.jpg	99
2047.788	1.617	1616.7	generate	Run3	generate/STIM_013.jpg	100
2051.34	1.49	1490.4	generate	Run3	generate/STIM_013.jpg	99
2055.18	1.433	1432.9	generate	Run3	generate/STIM_013.jpg	99
2060.485	2.051	2051.4	generate	Run3	generate/STIM_014.jpg	99
2065.071	1.905	1905.0	generate	Run3	generate/STIM_014.jpg	100
2070.613	1.92	1920.3	generate	Run3	generate/STIM_014.jpg	99
2075.14	1.584	1584.0	generate	Run3	generate/STIM_014.jpg	99
2080.221	1.83	1829.7	generate	Run3	generate/STIM_014.jpg	100
2085.709	1.783	1783.0	generate	Run3	generate/STIM_015.jpg	100
2090.376	1.636	1636.5	generate	Run3	generate/STIM_015.jpg	100
2094.046	1.821	1820.8	generate	Run3	generate/STIM_015.jpg	99
2097.798	1.749	1748.9	generate	Run3	generate/STIM_015.jpg	100
2102.693	1.265	1264.7	generate	Run3	generate/STIM_015.jpg	99
2106.52	1.815	1815.0	generate	Run3	generate/STIM_016.jpg	99
2111.49	1.748	1747.5	generate	Run3	generate/STIM_016.jpg	99
2115.706	1.045	1044.9	generate	Run3	generate/STIM_016.jpg	100
2118.796	1.977	1977.2	generate	Run3	generate/STIM_016.jpg	100
2124.543	0.978	977.5	generate	Run3	generate/STIM_016.jpg	99
2128.294	1.485	1485.0	generate	Run3	generate/STIM_017.jpg	99
2133.662	0.901	900.9	generate	Run3	generate/STIM_017.jpg	100
2137.042	2.189	2188.6	generate	Run3	generate/STIM_017.jpg	99
2141.163	1.798	1798.3	generate	Run3	generate/STIM_017.jpg	100
2146.679	1.909	1908.9	generate	Run3	generate/STIM_017.jpg	100
2150.935	1.986	1985.8	generate	Run3	generate/STIM_018.jpg	99
2156.016	1.112	1111.9	generate	Run3	generate/STIM_018.jpg	99
2160.52	1.094	1093.8	generate	Run3	generate/STIM_018.jpg	100
2164.503	1.946	1946.4	generate	Run3	generate/STIM_018.jpg	100
2169.828	0.911	910.9	generate	Run3	generate/STIM_018.jpg	99
2173.14	2.032	2032.4	generate	Run3	generate/STIM_019.jpg	99
2178.928	1.928	1927.6	generate	Run3	generate/STIM_019.jpg	100
2184.001	0.971	970.9	generate	Run3	generate/STIM_019.jpg	99
2187.04	1.558	1558.3	generate	Run3	generate/STIM_019.jpg	100
2190.981	1.519	1519.2	generate	Run3	generate/STIM_019.jpg	99
2195.018	2.051	2050.9	generate	Run3	generate/STIM_020.jpg	100
2199.8	1.168	1168.4	generate	Run3	generate/STIM_020.jpg	100
2204.245	1.575	1575.4	generate	Run3	generate/STIM_020.jpg	99
2208.713	1.667	1667.4	generate	Run3	generate/STIM_020.jpg	100
2213.203	1.415	1414.9	generate	Run3	generate/STIM_020.jpg	100
2218.534	1.434	1434.5	generate	Run3	generate/STIM_021.jpg	100
2222.091	1.703	1703.2	generate	Run3	generate/STIM_021.jpg	99
2227.216	2.034	2034.0	generate	Run3	generate/STIM_021.jpg	99
2231.87	1.519	1519.4	generate	Run3	generate/STIM_021.jpg	100
2236.456	2.114	2113.6	generate	Run3	generate/STIM_021.jpg	99
2240.832	2.109	2109.2	generate	Run3	generate/STIM_022.jpg	100
2245.983	1.654	1653.8	generate	Run3	generate/STIM_022.jpg	100
2251.495	0.974	974.3	generate	Run3	generate/STIM_022.jpg	100
2255.513	1.581	1581.2	generate	Run3	generate/STIM_022.jpg	99
2260.671	1.044	1043.5	generate	Run3	generate/STIM_022.jpg	100
2264.876	0.894	893.9	generate	Run3	generate/STIM_023.jpg	99
2268.091	1.418	1418.2	generate	Run3	generate/STIM_023.jpg	100
2272.016	1.224	1223.5	generate	Run3	generate/STIM_023.jpg	99
2275.45	2.177	2177.0	generate	Run3	generate/STIM_023.jpg	100
2281.51	1.538	1538.2	generate	Run3	generate/STIM_023.jpg	99
2286.464	2.079	2078.6	generate	Run3	generate/STIM_024.jpg	100
2290.538	1.392	1391.6	generate	Run3	generate/STIM_024.jpg	100
2295.032	1.767	1766.6	generate	Run3	generate/STIM_024.jpg	100
2299.202	2.107	2107.0	generate	Run3	generate/STIM_024.jpg	100
2304.666	1.031	1031.3	generate	Run3	generate/STIM_024.jpg	99
2308.613	0.948	948.2	repeat	Run3	repeat/STIM_000.jpg	99
2312.107	0.894	893.9	repeat	Run3	repeat/STIM_000.jpg	100
2315.895	0.535	535.1	repeat	Run3	repeat/STIM_000.jpg	99
2319.334	0.91	910.4	repeat	Run3	repeat/STIM_000.jpg	99
2324.031	1.037	1036.7	repeat	Run3	repeat/STIM_000.jpg	100
2328.375	0.842	842.2	repeat	Run3	repeat/STIM_001.jpg	100
2332.098	0.65	649.6	repeat	Run3	repeat/STIM_001.jpg	99
2334.855	0.792	792.1	repeat	Run3	repeat/STIM_001.jpg	99
2337.741	0.653	652.9	repeat	Run3	repeat/STIM_001.jpg	99
2341.806	0.714	714.1	repeat	Run3	repeat/STIM_001.jpg	100
2346.092	0.897	897.0	repeat	Run3	repeat/STIM_002.jpg	100
2350.641	0.615	615.4	repeat	Run3	repeat/STIM_002.jpg	99
2354.85	0.662	662.1	repeat	Run3	repeat/STIM_002.jpg	100
2357.953	0.88	879.5	repeat	Run3	repeat/STIM_002.jpg	100
2362.787	0.944	943.5	repeat	Run3	repeat/STIM_002.jpg	100
2367.374	0.693	693.0	repeat	Run3	repeat/STIM_003.jpg	100
2370.557	0.581	580.9	repeat	Run3	repeat/STIM_003.jpg	99
2373.913	1.048	1048.0	repeat	Run3	repeat/STIM_003.jpg	100
2378.846	0.557	556.7	repeat	Run3	repeat/STIM_003.jpg	99
2382.534	0.708	707.6	repeat	Run3	repeat/STIM_003.jpg	100
2386.116	0.959	959.4	repeat	Run3	repeat/STIM_004.jpg	100
2390.525	1.034	1034.1	repeat	Run3	repeat/STIM_004.jpg	100
2394.081	0.681	680.8	repeat	Run3	repeat/STIM_004.jpg	99
2397.922	1.022	1021.8	repeat	Run3	repeat/STIM_004.jpg	100
2401.243	1.037	1036.8	repeat	Run3	repeat/STIM_004.jpg	99
2406.161	0.926	925.6	repeat	Run3	repeat/STIM_005.jpg	100
2409.668	0.537	536.7	repeat	Run3	repeat/STIM_005.jpg	99
2413.977	0.554	554.4	repeat	Run3	repeat/STIM_005.jpg	100
2417.76	0.778	777.9	repeat	Run3	repeat/STIM_005.jpg	100
2421.667	0.615	615.0	repeat	Run3	repeat/STIM_005.jpg	100
2424.418	0.996	996.2	repeat	Run3	repeat/STIM_006.jpg	100
2428.66	0.942	941.7	repeat	Run3	repeat/STIM_006.jpg	99
2432.061	0.88	880.4	repeat	Run3	repeat/STIM_006.jpg	100
2435.295	0.633	633.4	repeat	Run3	repeat/STIM_006.jpg	100
2438.46	0.72	720.5	repeat	Run3	repeat/STIM_006.jpg	100
2441.335	0.891	890.7	repeat	Run3	repeat/STIM_007.jpg	100
2446.107	0.864	863.6	repeat	Run3	repeat/STIM_007.jpg	99
2450.544	0.73	729.6	repeat	Run3	repeat/STIM_007.jpg	100
2454.214	0.821	821.3	repeat	Run3	repeat/STIM_007.jpg	100
2457.075	0.607	606.9	repeat	Run3	repeat/STIM_007.jpg	100
2461.127	0.539	539.4	repeat	Run3	repeat/STIM_008.jpg	100
2465.523	0.7	700.3	repeat	Run3	repeat/STIM_008.jpg	99
2469.721	0.804	803.6	repeat	Run3	repeat/STIM_008.jpg	99
2473.818	0.73	729.8	repeat	Run3	repeat/STIM_008.jpg	100
2478.127	0.921	920.9	repeat	Run3	repeat/STIM_008.jpg	100
2481.711	0.69	690.1	repeat	Run3	repeat/STIM_009.jpg	99
2486.184	0.997	996.6	repeat	Run3	repeat/STIM_009.jpg	99
2489.961	0.949	949.2	repeat	Run3	repeat/STIM_009.jpg	99
2494.688	0.961	960.8	repeat	Run3	repeat/STIM_009.jpg	99
2498.53	0.634	634.4	repeat	Run3	repeat/STIM_009.jpg	99
2502.65	0.588	587.8	repeat	Run3	repeat/STIM_010.jpg	99
2506.86	0.568	567.5	repeat	Run3	repeat/STIM_010.jpg	100
2511.282	0.717	717.4	repeat	Run3	repeat/STIM_010.jpg	100
2515.498	0.996	996.2	repeat	Run3	repeat/STIM_010.jpg	99
2518.552	0.96	959.9	repeat	Run3	repeat/STIM_010.jpg	100
2523.292	0.572	571.7	repeat	Run3	repeat/STIM_011.jpg	99
2527.768	0.719	719.3	repeat	Run3	repeat/STIM_011.jpg	99
2531.739	0.817	817.2	repeat	Run3	repeat/STIM_011.jpg	99
2535.614	0.927	927.4	repeat	Run3	repeat/STIM_011.jpg	100
2540.325	0.553	553.0	repeat	Run3	repeat/STIM_011.jpg	100
2544.049	0.609	608.6	repeat	Run3	repeat/STIM_012.jpg	99
2548.583	0.621	621.2	repeat	Run3	repeat/STIM_012.jpg	100
2551.415	0.685	685.1	repeat	Run3	repeat/STIM_012.jpg	100
2555.512	0.607	607.1	repeat	Run3	repeat/STIM_012.jpg	100
2558.257	0.597	596.7	repeat	Run3	repeat/STIM_012.jpg	99
2561.629	1.045	1044.7	repeat	Run3	repeat/STIM_013.jpg	100
2565.578	0.847	847.3	repeat	Run3	repeat/STIM_013.jpg	100
2568.777	0.845	845.3	repeat	Run3	repeat/STIM_013.jpg	100
2572.617	0.884	883.5	repeat	Run3	repeat/STIM_013.jpg	99
2576.582	1.038	1038.2	repeat	Run3	repeat/STIM_013.jpg	99
2580.532	1.036	1036.1	repeat	Run3	repeat/STIM_014.jpg	100
2584.157	0.653	653.2	repeat	Run3	repeat/STIM_014.jpg	100
2588.038	0.544	544.0	repeat	Run3	repeat/STIM_014.jpg	99
2590.96	0.906	905.7	repeat	Run3	repeat/STIM_014.jpg	99
2594.902	0.566	566.4	repeat	Run3	repeat/STIM_014.jpg	99
2598.358	1.974	1973.8	generate	Run4	generate/STIM_000.jpg	99
2602.742	0.939	939.3	generate	Run4	generate/STIM_000.jpg	100
2606.737	1.141	1141.4	generate	Run4	generate/STIM_000.jpg	100
2610.374	1.11	1110.1	generate	Run4	generate/STIM_000.jpg	100
2613.986	1.838	1838.5	generate	Run4	generate/STIM_000.jpg	99
2619.714	1.3	1300.4	generate	Run4	generate/STIM_001.jpg	100
2624.303	2.033	2033.0	generate	Run4	generate/STIM_001.jpg	99
2628.868	1.066	1066.1	generate	Run4	generate/STIM_001.jpg	100
2632.367	1.445	1445.4	generate	Run4	generate/STIM_001.jpg	100
2635.811	1.657	1657.1	generate	Run4	generate/STIM_001.jpg	100
2641.206	1.928	1927.7	generate	Run4	generate/STIM_002.jpg	100
2646.222	1.679	1678.8	generate	Run4	generate/STIM_002.jpg	99
2650.965	1.163	1162.9	generate	Run4	generate/STIM_002.jpg	99
2655.789	1.257	1256.6	generate	Run4	generate/STIM_002.jpg	100
2659.479	2.196	2195.6	generate	Run4	generate/STIM_002.jpg	99
2664.379	2.106	2106.5	generate	Run4	generate/STIM_003.jpg	99
2669.638	1.078	1078.1	generate	Run4	generate/STIM_003.jpg	100
2672.86	1.721	1720.9	generate	Run4	generate/STIM_003.jpg	99
2677.291	1.473	1472.8	generate	Run4	generate/STIM_003.jpg	99
2681.9	1.094	1093.8	generate	Run4	generate/STIM_003.jpg	99
2685.467	1.556	1556.5	generate	Run4	generate/STIM_004.jpg	100
2689.417	1.145	1145.2	generate	Run4	generate/STIM_004.jpg	99
2692.536	1.97	1969.8	generate	Run4	generate/STIM_004.jpg	99
2698.402	0.981	981.0	generate	Run4	generate/STIM_004.jpg	100
2701.693	2.007	2006.9	generate	Run4	generate/STIM_004.jpg	99
2706.073	2.081	2081.1	generate	Run4	generate/STIM_005.jpg	99
2710.76	1.343	1343.0	generate	Run4	generate/STIM_005.jpg	100
2714.997	1.883	1883.0	generate	Run4	generate/STIM_005.jpg	99
2719.982	1.118	1118.5	generate	Run4	generate/STIM_005.jpg	100
2724.738	1.009	1009.1	generate	Run4	generate/STIM_005.jpg	100
2729.115	1.624	1624.3	generate	Run4	generate/STIM_006.jpg	99
2733.847	1.1	1100.4	generate	Run4	generate/STIM_006.jpg	100
2738.004	1.292	1292.1	generate	Run4	generate/STIM_006.jpg	99
2742.356	1.53	1529.9	generate	Run4	generate/STIM_006.jpg	100
2746.89	1.858	1857.9	generate	Run4	generate/STIM_006.jpg	100
2751.124	1.758	1757.5	generate	Run4	generate/STIM_007.jpg	100
2756.758	1.192	1191.7	generate	Run4	generate/STIM_007.jpg	99
2760.467	1.463	1463.3	generate	Run4	generate/STIM_007.jpg	100
2764.085	1.776	1776.5	generate	Run4	generate/STIM_007.jpg	99
2769.281	1.625	1624.6	generate	Run4	generate/STIM_007.jpg	99
2773.495	1.94	1940.2	generate	Run4	generate/STIM_008.jpg	100
2778.006	1.148	1148.3	generate	Run4	generate/STIM_008.jpg	100
2783.046	2.072	2072.3	generate	Run4	generate/STIM_008.jpg	99
2787.573	1.566	1565.7	generate	Run4	generate/STIM_008.jpg	100
2792.637	2.1	2100.5	generate	Run4	generate/STIM_008.jpg	100
2797.525	1.488	1487.8	generate	Run4	generate/STIM_009.jpg	99
2801.783	0.906	905.6	generate	Run4	generate/STIM_009.jpg	99
2806.113	1.691	1690.6	generate	Run4	generate/STIM_009.jpg	100
2810.069	0.922	922.5	generate	Run4	generate/STIM_009.jpg	99
2814.472	1.598	1597.8	generate	Run4	generate/STIM_009.jpg	100
2818.869	1.748	1747.5	generate	Run4	generate/STIM_010.jpg	100
2823.823	1.012	1012.2	generate	Run4	generate/STIM_010.jpg	100
2827.66	1.478	1478.5	generate	Run4	generate/STIM_010.jpg	99
2832.561	2.14	2140.1	generate	Run4	generate/STIM_010.jpg	99
2837.842	1.213	1212.6	generate	Run4	generate/STIM_010.jpg	99
2842.329	1.557	1557.2	generate	Run4	generate/STIM_011.jpg	100
2847.353	2.066	2065.5	generate	Run4	generate/STIM_011.jpg	99
2853.314	2.072	2071.7	generate	Run4	generate/STIM_011.jpg	100
2859.056	1.546	1545.8	generate	Run4	generate/STIM_011.jpg	100
2864.013	1.73	1730.5	generate	Run4	generate/STIM_011.jpg	99
2868.461	1.254	1254.4	generate	Run4	generate/STIM_012.jpg	99
2872.248	1.746	1745.6	generate	Run4	generate/STIM_012.jpg	100
2877.093	1.4	1399.7	generate	Run4	generate/STIM_012.jpg	100
2881.325	0.989	989.4	generate	Run4	generate/STIM_012.jpg	99
2884.976	1.149	1149.3	generate	Run4	generate/STIM_012.jpg	99
2889.64	1.58	1579.5	generate	Run4	generate/STIM_013.jpg	100
2894.753	1.145	1144.6	generate	Run4	generate/STIM_013.jpg	99
2897.929	1.941	1940.6	generate	Run4	generate/STIM_013.jpg	100
2902.549	1.44	1439.5	generate	Run4	generate/STIM_013.jpg	100
2906.315	1.625	1625.3	generate	Run4	generate/STIM_013.jpg	100
2910.315	1.113	1112.9	generate	Run4	generate/STIM_014.jpg	100
2914.183	1.132	1132.1	generate	Run4	generate/STIM_014.jpg	100
2919.245	1.246	1246.2	generate	Run4	generate/STIM_014.jpg	100
2922.598	1.792	1792.5	generate	Run4	generate/STIM_014.jpg	99
2927.206	1.89	1889.6	generate	Run4	generate/STIM_014.jpg	99
2931.829	1.705	1705.1	generate	Run4	generate/STIM_015.jpg	100
2937.403	1.015	1014.6	generate	Run4	generate/STIM_015.jpg	99
2941.347	1.36	1359.8	generate	Run4	generate/STIM_015.jpg	100
2945.836	2.12	2119.5	generate	Run4	generate/STIM_015.jpg	99
2950.313	1.454	1453.5	generate	Run4	generate/STIM_015.jpg	99
2954.851	1.115	1114.7	generate	Run4	generate/STIM_016.jpg	100
2958.507	0.895	895.4	generate	Run4	generate/STIM_016.jpg	99
2962.365	1.798	1798.4	generate	Run4	generate/STIM_016.jpg	100
2967.75	2.079	2078.7	generate	Run4	generate/STIM_016.jpg	99
2972.811	1.582	1582.1	generate	Run4	generate/STIM_016.jpg	99
2977.445	1.119	1119.2	generate	Run4	generate/STIM_017.jpg	100
2981.174	1.792	1792.1	generate	Run4	generate/STIM_017.jpg	100
2985.495	1.38	1380.5	generate	Run4	generate/STIM_017.jpg	99
2989.765	2.005	2005.3	generate	Run4	generate/STIM_017.jpg	99
2994.981	1.712	1711.5	generate	Run4	generate/STIM_017.jpg	99
3000.291	1.55	1549.9	generate	Run4	generate/STIM_018.jpg	100
3003.975	1.207	1207.4	generate	Run4	generate/STIM_018.jpg	99
3008.501	1.102	1102.0	generate	Run4	generate/STIM_018.jpg	99
3013.285	1.977	1977.1	generate	Run4	generate/STIM_018.jpg	99
3017.955	2.136	2136.0	generate	Run4	generate/STIM_018.jpg	100
3022.857	1.903	1903.0	generate	Run4	generate/STIM_019.jpg	99
3027.977	1.999	1998.7	generate	Run4	generate/STIM_019.jpg	100
3032.832	1.043	1043.4	generate	Run4	generate/STIM_019.jpg	99
3036.732	2.057	2056.9	generate	Run4	generate/STIM_019.jpg	99
3040.86	1.592	1591.5	generate	Run4	generate/STIM_019.jpg	99
3046.025	1.43	1430.5	generate	Run4	generate/STIM_020.jpg	100
3051.387	1.914	1913.7	generate	Run4	generate/STIM_020.jpg	100
3057.162	1.64	1640.3	generate	Run4	generate/STIM_020.jpg	100
3061.498	0.902	902.5	generate	Run4	generate/STIM_020.jpg	99
3064.679	0.955	955.3	generate	Run4	generate/STIM_020.jpg	99
3067.699	1.6	1600.2	generate	Run4	generate/STIM_021.jpg	99
3072.891	1.982	1982.4	generate	Run4	generate/STIM_021.jpg	99
3077.066	1.419	1418.8	generate	Run4	generate/STIM_021.jpg	100
3081.964	1.606	1605.8	generate	Run4	generate/STIM_021.jpg	99
3086.485	1.92	1920.4	generate	Run4	generate/STIM_021.jpg	99
3090.508	1.928	1927.9	generate	Run4	generate/STIM_022.jpg	99
3095.47	1.89	1890.0	generate	Run4	generate/STIM_022.jpg	99
3099.533	1.261	1260.8	generate	Run4	generate/STIM_022.jpg	99
3103.067	1.592	1591.8	generate	Run4	generate/STIM_022.jpg	99
3107.794	1.758	1758.2	generate	Run4	generate/STIM_022.jpg	99
3111.969	2.191	2191.1	generate	Run4	generate/STIM_023.jpg	100
3117.037	1.146	1145.9	generate	Run4	generate/STIM_023.jpg	100
3121.454	0.989	988.7	generate	Run4	generate/STIM_023.jpg	100
3125.392	1.705	1705.0	generate	Run4	generate/STIM_023.jpg	100
3130.588	2.182	2182.3	generate	Run4	generate/STIM_023.jpg	99
3136.521	1.904	1903.6	generate	Run4	generate/STIM_024.jpg	100
3142.064	2.069	2068.8	generate	Run4	generate/STIM_024.jpg	100
3146.087	1.914	1914.2	generate	Run4	generate/STIM_024.jpg	100
3151.016	1.949	1949.0	generate	Run4	generate/STIM_024.jpg	100
3156.474	2.051	2050.6	generate	Run4	generate/STIM_024.jpg	99
3161.725	1.011	1011.4	repeat	Run4	repeat/STIM_000.jpg	100
3165.105	0.82	819.7	repeat	Run4	repeat/STIM_000.jpg	99
3169.703	0.603	603.1	repeat	Run4	repeat/STIM_000.jpg	100
3172.376	0.776	776.2	repeat	Run4	repeat/STIM_000.jpg	100
3175.326	0.655	655.1	repeat	Run4	repeat/STIM_000.jpg	99
3179.487	0.948	947.8	repeat	Run4	repeat/STIM_001.jpg	99
3183.488	0.641	640.9	repeat	Run4	repeat/STIM_001.jpg	100
3186.589	1.015	1014.6	repeat	Run4	repeat/STIM_001.jpg	99
3190.47	0.723	723.1	repeat	Run4	repeat/STIM_001.jpg	100
3194.998	0.636	635.7	repeat	Run4	repeat/STIM_001.jpg	100
3198.446	0.544	543.8	repeat	Run4	repeat/STIM_002.jpg	99
3202.382	0.93	930.3	repeat	Run4	repeat/STIM_002.jpg	99
3205.739	1.014	1014.1	repeat	Run4	repeat/STIM_002.jpg	99
3209.325	0.751	751.0	repeat	Run4	repeat/STIM_002.jpg	100
3212.464	1.027	1027.0	repeat	Run4	repeat/STIM_002.jpg	99
3216.179	0.879	878.6	repeat	Run4	repeat/STIM_003.jpg	100
3219.596	0.858	858.0	repeat	Run4	repeat/STIM_003.jpg	99
3222.439	0.526	525.5	repeat	Run4	repeat/STIM_003.jpg	99
3226.299	0.835	835.4	repeat	Run4	repeat/STIM_003.jpg	100
3229.575	0.907	906.9	repeat	Run4	repeat/STIM_003.jpg	99
3233.301	0.783	782.8	repeat	Run4	repeat/STIM_004.jpg	99
3237.402	0.882	882.4	repeat	Run4	repeat/STIM_004.jpg	99
3241.33	0.792	792.5	repeat	Run4	repeat/STIM_004.jpg	99
3244.938	0.568	568.5	repeat	Run4	repeat/STIM_004.jpg	99
3248.13	0.648	648.4	repeat	Run4	repeat/STIM_004.jpg	100
3252.553	0.551	551.4	repeat	Run4	repeat/STIM_005.jpg	100
3256.003	0.73	729.7	repeat	Run4	repeat/STIM_005.jpg	99
3258.746	0.649	648.9	repeat	Run4	repeat/STIM_005.jpg	100
3261.799	0.865	864.9	repeat	Run4	repeat/STIM_005.jpg	99
3266.265	0.673	672.7	repeat	Run4	repeat/STIM_005.jpg	99
3269.644	0.867	866.9	repeat	Run4	repeat/STIM_006.jpg	100
3272.816	0.681	681.3	repeat	Run4	repeat/STIM_006.jpg	100
3275.899	0.571	570.9	repeat	Run4	repeat/STIM_006.jpg	99
3278.624	0.826	826.3	repeat	Run4	repeat/STIM_006.jpg	100
3283.334	0.966	965.6	repeat	Run4	repeat/STIM_006.jpg	99
3286.806	0.964	964.2	repeat	Run4	repeat/STIM_007.jpg	99
3291.421	0.742	741.6	repeat	Run4	repeat/STIM_007.jpg	99
3294.396	0.766	766.0	repeat	Run4	repeat/STIM_007.jpg	100
3297.896	0.979	979.3	repeat	Run4	repeat/STIM_007.jpg	100
3301.001	0.783	783.1	repeat	Run4	repeat/STIM_007.jpg	99
3305.596	0.554	554.0	repeat	Run4	repeat/STIM_008.jpg	100
3309.103	0.595	595.1	repeat	Run4	repeat/STIM_008.jpg	99
3313.172	0.635	634.6	repeat	Run4	repeat/STIM_008.jpg	100
3317.383	0.901	901.2	repeat	Run4	repeat/STIM_008.jpg	99
3320.452	0.552	551.5	repeat	Run4	repeat/STIM_008.jpg	100
3323.739	0.622	621.8	repeat	Run4	repeat/STIM_009.jpg	99
3326.631	0.96	960.1	repeat	Run4	repeat/STIM_009.jpg	99
3330.661	0.782	781.6	repeat	Run4	repeat/STIM_009.jpg	99
3333.486	0.614	614.3	repeat	Run4	repeat/STIM_009.jpg	99
3336.336	0.564	564.4	repeat	Run4	repeat/STIM_009.jpg	100
3339.63	0.867	867.1	repeat	Run4	repeat/STIM_010.jpg	100
3344.17	0.844	843.8	repeat	Run4	repeat/STIM_010.jpg	100
3347.422	0.881	880.8	repeat	Run4	repeat/STIM_010.jpg	100
3351.264	0.822	822.0	repeat	Run4	repeat/STIM_010.jpg	100
3356.027	0.598	597.8	repeat	Run4	repeat/STIM_010.jpg	99
3359.596	0.576	576.1	repeat	Run4	repeat/STIM_011.jpg	99
3364.055	0.998	997.8	repeat	Run4	repeat/STIM_011.jpg	100
3368.853	0.711	711.2	repeat	Run4	repeat/STIM_011.jpg	100
3373.247	0.617	616.8	repeat	Run4	repeat/STIM_011.jpg	100
3377.276	0.639	638.8	repeat	Run4	repeat/STIM_011.jpg	100
3381.016	0.665	664.6	repeat	Run4	repeat/STIM_012.jpg	99
3384.658	1.03	1029.8	repeat	Run4	repeat/STIM_012.jpg	99
3388.241	0.726	725.5	repeat	Run4	repeat/STIM_012.jpg	99
3392.757	0.654	653.9	repeat	Run4	repeat/STIM_012.jpg	100
3395.69	0.64	640.0	repeat	Run4	repeat/STIM_012.jpg	100
3399.858	1.02	1019.8	repeat	Run4	repeat/STIM_013.jpg	99
3404.514	0.878	877.8	repeat	Run4	repeat/STIM_013.jpg	99
3409.021	0.615	615.2	repeat	Run4	repeat/STIM_013.jpg	100
3413.116	0.832	831.5	repeat	Run4	repeat/STIM_013.jpg	100
3415.969	0.995	994.7	repeat	Run4	repeat/STIM_013.jpg	99
3420.368	0.926	925.6	repeat	Run4	repeat/STIM_014.jpg	99
3424.977	0.628	627.7	repeat	Run4	repeat/STIM_014.jpg	100
3428.431	0.744	743.7	repeat	Run4	repeat/STIM_014.jpg	100
3431.765	0.68	680.0	repeat	Run4	repeat/STIM_014.jpg	99
3435.391	0.901	901.4	repeat	Run4	repeat/STIM_014.jpg	100
