onset	duration	accuracy_binary	trial_type	learning_stage	stimulus
0.0	1.005	1	study	Phase1	study/STIM_000.jpg
3.204	1.011	1	study	Phase1	study/STIM_000.jpg
8.301	1.086	1	study	Phase1	study/STIM_000.jpg
12.502	1.605	1	study	Phase1	study/STIM_001.jpg
17.585	1.134	1	study	Phase1	study/STIM_001.jpg
22.216	1.359	1	study	Phase1	study/STIM_001.jpg
26.628	1.582	0	study	Phase1	study/STIM_002.jpg
31.481	1.434	1	study	Phase1	study/STIM_002.jpg
35.864	0.905	1	study	Phase1	study/STIM_002.jpg
39.819	1.131	1	study	Phase1	study/STIM_003.jpg
44.298	1.076	1	study	Phase1	study/STIM_003.jpg
49.141	1.125	1	study	Phase1	study/STIM_003.jpg
53.414	1.274	1	study	Phase1	study/STIM_004.jpg
57.9	0.97	1	study	Phase1	study/STIM_004.jpg
61.147	0.915	0	study	Phase1	study/STIM_004.jpg
64.559	0.863	1	study	Phase1	study/STIM_005.jpg
68.443	0.728	1	study	Phase1	study/STIM_005.jpg
71.391	0.816	1	study	Phase1	study/STIM_005.jpg
75.897	1.456	1	study	Phase1	study/STIM_006.jpg
80.92	0.775	1	study	Phase1	study/STIM_006.jpg
84.603	0.67	1	study	Phase1	study/STIM_006.jpg
89.029	1.018	0	study	Phase1	study/STIM_007.jpg
93.423	1.5	1	study	Phase1	study/STIM_007.jpg
98.514	1.121	0	study	Phase1	study/STIM_007.jpg
102.863	0.856	1	study	Phase1	study/STIM_008.jpg
106.481	0.862	1	study	Phase1	study/STIM_008.jpg
111.027	0.848	0	study	Phase1	study/STIM_008.jpg
115.36	0.98	1	study	Phase1	study/STIM_009.jpg
120.363	1.138	1	study	Phase1	study/STIM_009.jpg
124.914	1.428	0	study	Phase1	study/STIM_009.jpg
128.964	1.044	1	study	Phase1	study/STIM_010.jpg
133.126	0.954	1	study	Phase1	study/STIM_010.jpg
136.497	1.431	1	study	Phase1	study/STIM_010.jpg
141.131	1.605	1	study	Phase1	study/STIM_011.jpg
145.673	1.359	1	study	Phase1	study/STIM_011.jpg
149.722	1.036	1	study	Phase1	study/STIM_011.jpg
154.536	1.382	1	study	Phase1	study/STIM_012.jpg
158.858	1.502	1	study	Phase1	study/STIM_012.jpg
163.485	0.917	1	study	Phase1	study/STIM_012.jpg
167.286	0.761	1	study	Phase1	study/STIM_013.jpg
170.534	0.955	1	study	Phase1	study/STIM_013.jpg
175.158	0.713	1	study	Phase1	study/STIM_013.jpg
179.828	1.151	0	study	Phase1	study/STIM_014.jpg
185.005	1.134	1	study	Phase1	study/STIM_014.jpg
188.32	0.99	1	study	Phase1	study/STIM_014.jpg
193.14	1.42	1	study	Phase1	study/STIM_015.jpg
196.919	1.226	1	study	Phase1	study/STIM_015.jpg
201.268	1.421	1	study	Phase1	study/STIM_015.jpg
206.173	1.541	1	study	Phase1	study/STIM_016.jpg
211.144	1.178	1	study	Phase1	study/STIM_016.jpg
215.016	1.221	1	study	Phase1	study/STIM_016.jpg
218.997	0.873	1	study	Phase1	study/STIM_017.jpg
223.634	1.469	0	study	Phase1	study/STIM_017.jpg
229.033	1.317	1	study	Phase1	study/STIM_017.jpg
233.32	1.091	1	study	Phase1	study/STIM_018.jpg
237.756	1.36	1	study	Phase1	study/STIM_018.jpg
241.351	0.895	0	study	Phase1	study/STIM_018.jpg
246.077	0.962	1	study	Phase1	study/STIM_019.jpg
250.023	0.751	1	study	Phase1	study/STIM_019.jpg
253.207	1.21	1	study	Phase1	study/STIM_019.jpg
256.701	0.964	1	study	Phase1	study/STIM_020.jpg
261.074	0.967	1	study	Phase1	study/STIM_020.jpg
264.817	0.767	1	study	Phase1	study/STIM_020.jpg
269.173	1.117	1	study	Phase1	study/STIM_021.jpg
274.033	0.708	1	study	Phase1	study/STIM_021.jpg
277.508	1.372	1	study	Phase1	study/STIM_021.jpg
281.531	0.9	1	study	Phase1	study/STIM_022.jpg
286.34	1.056	0	study	Phase1	study/STIM_022.jpg
290.135	0.967	1	study	Phase1	study/STIM_022.jpg
295.01	1.153	1	study	Phase1	study/STIM_023.jpg
298.782	1.124	1	study	Phase1	study/STIM_023.jpg
302.378	1.06	0	study	Phase1	study/STIM_023.jpg
307.119	1.48	1	study	Phase1	study/STIM_024.jpg
312.377	1.226	1	study	Phase1	study/STIM_024.jpg
316.478	0.992	1	study	Phase1	study/STIM_024.jpg
321.18	1.14	1	study	Phase1	study/STIM_025.jpg
326.12	0.862	1	study	Phase1	study/STIM_025.jpg
329.902	1.103	1	study	Phase1	study/STIM_025.jpg
333.469	0.818	1	study	Phase1	study/STIM_026.jpg
337.936	1.031	1	study	Phase1	study/STIM_026.jpg
341.405	0.71	1	study	Phase1	study/STIM_026.jpg
345.846	0.917	0	study	Phase1	study/STIM_027.jpg
350.029	1.493	1	study	Phase1	study/STIM_027.jpg
354.787	1.235	0	study	Phase1	study/STIM_027.jpg
358.845	1.306	1	study	Phase1	study/STIM_028.jpg
364.151	0.801	1	study	Phase1	study/STIM_028.jpg
367.108	0.797	1	study	Phase1	study/STIM_028.jpg
370.74	1.006	1	study	Phase1	study/STIM_029.jpg
375.038	1.431	1	study	Phase1	study/STIM_029.jpg
379.246	1.184	1	study	Phase1	study/STIM_029.jpg
384.42	0.733	1	test	Phase1	test/STIM_000.jpg
388.405	0.695	1	test	Phase1	test/STIM_000.jpg
391.889	0.661	1	test	Phase1	test/STIM_000.jpg
396.166	1.049	1	test	Phase1	test/STIM_001.jpg
400.016	1.061	1	test	Phase1	test/STIM_001.jpg
404.206	0.604	1	test	Phase1	test/STIM_001.jpg
407.239	0.815	1	test	Phase1	test/STIM_002.jpg
411.005	0.673	0	test	Phase1	test/STIM_002.jpg
414.082	1.013	1	test	Phase1	test/STIM_002.jpg
417.912	0.962	1	test	Phase1	test/STIM_003.jpg
421.711	0.824	1	test	Phase1	test/STIM_003.jpg
425.058	0.863	1	test	Phase1	test/STIM_003.jpg
428.542	0.759	1	test	Phase1	test/STIM_004.jpg
432.459	0.613	1	test	Phase1	test/STIM_004.jpg
435.44	0.804	1	test	Phase1	test/STIM_004.jpg
439.359	1.159	1	test	Phase1	test/STIM_005.jpg
443.001	1.075	1	test	Phase1	test/STIM_005.jpg
447.325	0.796	1	test	Phase1	test/STIM_005.jpg
452.057	0.943	1	test	Phase1	test/STIM_006.jpg
455.567	0.83	1	test	Phase1	test/STIM_006.jpg
459.253	0.934	1	test	Phase1	test/STIM_006.jpg
463.445	0.803	1	test	Phase1	test/STIM_007.jpg
467.786	0.661	1	test	Phase1	test/STIM_007.jpg
471.787	0.996	1	test	Phase1	test/STIM_007.jpg
476.555	0.782	1	test	Phase1	test/STIM_008.jpg
480.317	1.081	1	test	Phase1	test/STIM_008.jpg
484.777	0.974	0	test	Phase1	test/STIM_008.jpg
489.137	0.826	0	test	Phase1	test/STIM_009.jpg
493.911	0.985	1	test	Phase1	test/STIM_009.jpg
498.786	0.992	1	test	Phase1	test/STIM_009.jpg
502.746	0.835	1	test	Phase1	test/STIM_010.jpg
506.851	0.756	1	test	Phase1	test/STIM_010.jpg
510.395	1.142	1	test	Phase1	test/STIM_010.jpg
515.168	0.803	1	test	Phase1	test/STIM_011.jpg
518.706	0.716	1	test	Phase1	test/STIM_011.jpg
522.445	1.006	1	test	Phase1	test/STIM_011.jpg
526.264	0.654	1	test	Phase1	test/STIM_012.jpg
530.759	0.89	1	test	Phase1	test/STIM_012.jpg
533.801	0.54	1	test	Phase1	test/STIM_012.jpg
537.43	0.744	0	test	Phase1	test/STIM_013.jpg
540.317	1.019	1	test	Phase1	test/STIM_013.jpg
544.921	1.12	1	test	Phase1	test/STIM_013.jpg
549.653	1.084	0	test	Phase1	test/STIM_014.jpg
554.704	0.644	1	test	Phase1	test/STIM_014.jpg
557.438	0.888	1	test	Phase1	test/STIM_014.jpg
561.869	1.007	1	test	Phase1	test/STIM_015.jpg
566.798	1.065	1	test	Phase1	test/STIM_015.jpg
571.697	1.049	1	test	Phase1	test/STIM_015.jpg
576.258	0.652	1	test	Phase1	test/STIM_016.jpg
580.63	1.094	1	test	Phase1	test/STIM_016.jpg
585.54	0.601	0	test	Phase1	test/STIM_016.jpg
588.307	0.619	1	test	Phase1	test/STIM_017.jpg
591.337	1.05	1	test	Phase1	test/STIM_017.jpg
595.424	1.069	1	test	Phase1	test/STIM_017.jpg
599.68	0.555	1	test	Phase1	test/STIM_018.jpg
603.048	1.048	1	test	Phase1	test/STIM_018.jpg
606.466	0.987	1	test	Phase1	test/STIM_018.jpg
610.619	0.752	1	test	Phase1	test/STIM_019.jpg
614.868	0.622	1	test	Phase1	test/STIM_019.jpg
619.029	0.698	1	test	Phase1	test/STIM_019.jpg
622.643	0.6	1	test	Phase1	test/STIM_020.jpg
625.503	0.876	0	test	Phase1	test/STIM_020.jpg
629.088	0.537	1	test	Phase1	test/STIM_020.jpg
632.356	1.144	1	test	Phase1	test/STIM_021.jpg
637.454	0.652	1	test	Phase1	test/STIM_021.jpg
640.541	0.913	1	test	Phase1	test/STIM_021.jpg
643.645	0.943	1	test	Phase1	test/STIM_022.jpg
647.781	0.941	0	test	Phase1	test/STIM_022.jpg
651.929	1.049	1	test	Phase1	test/STIM_022.jpg
655.227	0.855	1	test	Phase1	test/STIM_023.jpg
659.844	1.123	0	test	Phase1	test/STIM_023.jpg
664.827	0.802	1	test	Phase1	test/STIM_023.jpg
668.074	1.018	1	test	Phase1	test/STIM_024.jpg
672.733	1.03	1	test	Phase1	test/STIM_024.jpg
677.759	0.608	1	test	Phase1	test/STIM_024.jpg
682.246	0.601	1	test	Phase1	test/STIM_025.jpg
686.328	0.984	1	test	Phase1	test/STIM_025.jpg
690.19	1.002	0	test	Phase1	test/STIM_025.jpg
694.844	0.854	0	test	Phase1	test/STIM_026.jpg
699.532	0.671	1	test	Phase1	test/STIM_026.jpg
703.314	0.794	1	test	Phase1	test/STIM_026.jpg
706.297	0.758	1	test	Phase1	test/STIM_027.jpg
710.052	1.027	1	test	Phase1	test/STIM_027.jpg
713.502	0.933	1	test	Phase1	test/STIM_027.jpg
716.868	0.918	1	test	Phase1	test/STIM_028.jpg
720.767	0.723	0	test	Phase1	test/STIM_028.jpg
724.96	0.773	1	test	Phase1	test/STIM_028.jpg
728.108	0.825	1	test	Phase1	test/STIM_029.jpg
733.024	0.795	1	test	Phase1	test/STIM_029.jpg
736.478	0.538	0	test	Phase1	test/STIM_029.jpg
740.863	1.055	1	study	Phase2	study/STIM_000.jpg
745.597	0.692	1	study	Phase2	study/STIM_000.jpg
748.777	1.167	1	study	Phase2	study/STIM_000.jpg
753.557	1.214	1	study	Phase2	study/STIM_001.jpg
758.24	0.775	1	study	Phase2	study/STIM_001.jpg
761.439	0.579	1	study	Phase2	study/STIM_001.jpg
765.998	0.97	1	study	Phase2	study/STIM_002.jpg
770.463	1.277	0	study	Phase2	study/STIM_002.jpg
774.848	1.067	1	study	Phase2	study/STIM_002.jpg
778.726	0.762	1	study	Phase2	study/STIM_003.jpg
781.778	1.123	0	study	Phase2	study/STIM_003.jpg
785.947	1.101	1	study	Phase2	study/STIM_003.jpg
789.331	0.923	1	study	Phase2	study/STIM_004.jpg
792.396	0.985	1	study	Phase2	study/STIM_004.jpg
795.721	1.009	1	study	Phase2	study/STIM_004.jpg
799.052	0.95	1	study	Phase2	study/STIM_005.jpg
803.424	1.248	1	study	Phase2	study/STIM_005.jpg
808.7	1.029	1	study	Phase2	study/STIM_005.jpg
813.642	0.643	1	study	Phase2	study/STIM_006.jpg
817.918	0.806	1	study	Phase2	study/STIM_006.jpg
822.769	0.766	1	study	Phase2	study/STIM_006.jpg
827.314	0.947	1	study	Phase2	study/STIM_007.jpg
831.677	0.818	1	study	Phase2	study/STIM_007.jpg
834.808	0.865	1	study	Phase2	study/STIM_007.jpg
839.569	1.174	1	study	Phase2	study/STIM_008.jpg
844.383	0.786	0	study	Phase2	study/STIM_008.jpg
848.345	1.009	1	study	Phase2	study/STIM_008.jpg
853.44	1.072	1	study	Phase2	study/STIM_009.jpg
858.472	0.948	1	study	Phase2	study/STIM_009.jpg
863.394	0.707	0	study	Phase2	study/STIM_009.jpg
867.899	0.851	1	study	Phase2	study/STIM_010.jpg
870.956	0.85	1	study	Phase2	study/STIM_010.jpg
874.443	1.198	1	study	Phase2	study/STIM_010.jpg
878.255	1.042	1	study	Phase2	study/STIM_011.jpg
882.504	0.614	1	study	Phase2	study/STIM_011.jpg
886.914	0.594	1	study	Phase2	study/STIM_011.jpg
890.872	1.361	1	study	Phase2	study/STIM_012.jpg
896.286	0.899	1	study	Phase2	study/STIM_012.jpg
900.999	0.595	1	study	Phase2	study/STIM_012.jpg
903.674	0.907	1	study	Phase2	study/STIM_013.jpg
907.015	1.184	1	study	Phase2	study/STIM_013.jpg
911.243	1.072	1	study	Phase2	study/STIM_013.jpg
914.712	0.684	1	study	Phase2	study/STIM_014.jpg
918.951	1.0	1	study	Phase2	study/STIM_014.jpg
922.38	0.856	1	study	Phase2	study/STIM_014.jpg
926.79	0.823	1	study	Phase2	study/STIM_015.jpg
930.534	0.584	1	study	Phase2	study/STIM_015.jpg
933.918	1.021	1	study	Phase2	study/STIM_015.jpg
939.05	0.866	1	study	Phase2	study/STIM_016.jpg
942.713	0.751	1	study	Phase2	study/STIM_016.jpg
946.527	0.744	1	study	Phase2	study/STIM_016.jpg
951.218	1.013	1	study	Phase2	study/STIM_017.jpg
955.719	0.78	1	study	Phase2	study/STIM_017.jpg
959.401	0.817	1	study	Phase2	study/STIM_017.jpg
963.432	1.315	1	study	Phase2	study/STIM_018.jpg
968.011	1.074	1	study	Phase2	study/STIM_018.jpg
972.142	0.835	1	study	Phase2	study/STIM_018.jpg
975.716	1.026	1	study	Phase2	study/STIM_019.jpg
980.751	1.18	1	study	Phase2	study/STIM_019.jpg
984.951	0.801	1	study	Phase2	study/STIM_019.jpg
988.325	0.942	1	study	Phase2	study/STIM_020.jpg
993.375	0.695	1	study	Phase2	study/STIM_020.jpg
997.822	1.177	1	study	Phase2	study/STIM_020.jpg
1002.895	0.827	1	study	Phase2	study/STIM_021.jpg
1006.977	0.936	1	study	Phase2	study/STIM_021.jpg
1012.005	0.65	1	study	Phase2	study/STIM_021.jpg
1014.742	1.173	1	study	Phase2	study/STIM_022.jpg
1018.506	0.944	1	study	Phase2	study/STIM_022.jpg
1023.223	0.854	1	study	Phase2	study/STIM_022.jpg
1027.955	0.964	1	study	Phase2	study/STIM_023.jpg
1031.766	1.202	1	study	Phase2	study/STIM_023.jpg
1035.592	0.865	1	study	Phase2	study/STIM_023.jpg
1039.178	1.139	1	study	Phase2	study/STIM_024.jpg
1043.516	0.853	1	study	Phase2	study/STIM_024.jpg
1048.147	0.726	1	study	Phase2	study/STIM_024.jpg
1052.113	1.28	1	study	Phase2	study/STIM_025.jpg
1055.801	0.866	1	study	Phase2	study/STIM_025.jpg
1059.141	0.896	1	study	Phase2	study/STIM_025.jpg
1062.336	0.81	1	study	Phase2	study/STIM_026.jpg
1066.362	0.713	1	study	Phase2	study/STIM_026.jpg
1070.912	1.081	1	study	Phase2	study/STIM_026.jpg
1074.344	0.789	1	study	Phase2	study/STIM_027.jpg
1078.549	0.786	1	study	Phase2	study/STIM_027.jpg
1082.978	1.134	1	study	Phase2	study/STIM_027.jpg
1086.919	1.096	1	study	Phase2	study/STIM_028.jpg
1090.466	1.17	1	study	Phase2	study/STIM_028.jpg
1094.823	0.623	1	study	Phase2	study/STIM_028.jpg
1098.224	0.743	1	study	Phase2	study/STIM_029.jpg
1102.278	1.136	1	study	Phase2	study/STIM_029.jpg
1106.789	1.026	1	study	Phase2	study/STIM_029.jpg
1110.239	1.008	1	test	Phase2	test/STIM_000.jpg
1114.548	1.021	1	test	Phase2	test/STIM_000.jpg
1118.753	1.012	1	test	Phase2	test/STIM_000.jpg
1122.008	0.744	1	test	Phase2	test/STIM_001.jpg
1125.289	0.698	1	test	Phase2	test/STIM_001.jpg
1128.586	0.872	1	test	Phase2	test/STIM_001.jpg
1131.924	0.715	1	test	Phase2	test/STIM_002.jpg
1135.869	0.874	1	test	Phase2	test/STIM_002.jpg
1140.629	1.01	0	test	Phase2	test/STIM_002.jpg
1144.962	0.721	1	test	Phase2	test/STIM_003.jpg
1148.363	0.929	1	test	Phase2	test/STIM_003.jpg
1153.367	1.001	1	test	Phase2	test/STIM_003.jpg
1156.879	0.929	1	test	Phase2	test/STIM_004.jpg
1161.031	0.986	1	test	Phase2	test/STIM_004.jpg
1165.066	0.589	0	test	Phase2	test/STIM_004.jpg
1168.221	1.061	1	test	Phase2	test/STIM_005.jpg
1173.205	0.827	1	test	Phase2	test/STIM_005.jpg
1177.767	0.827	1	test	Phase2	test/STIM_005.jpg
1181.341	1.101	1	test	Phase2	test/STIM_006.jpg
1185.01	0.87	1	test	Phase2	test/STIM_006.jpg
1188.515	0.643	1	test	Phase2	test/STIM_006.jpg
1192.912	0.733	1	test	Phase2	test/STIM_007.jpg
1195.771	0.69	1	test	Phase2	test/STIM_007.jpg
1199.238	1.084	1	test	Phase2	test/STIM_007.jpg
1203.934	0.92	1	test	Phase2	test/STIM_008.jpg
1207.909	0.695	1	test	Phase2	test/STIM_008.jpg
1212.594	0.575	1	test	Phase2	test/STIM_008.jpg
1215.354	0.844	1	test	Phase2	test/STIM_009.jpg
1218.653	0.995	0	test	Phase2	test/STIM_009.jpg
1223.055	1.115	1	test	Phase2	test/STIM_009.jpg
1227.402	0.548	1	test	Phase2	test/STIM_010.jpg
1230.426	1.027	1	test	Phase2	test/STIM_010.jpg
1234.504	0.794	1	test	Phase2	test/STIM_010.jpg
1238.002	0.64	0	test	Phase2	test/STIM_011.jpg
1240.837	0.907	1	test	Phase2	test/STIM_011.jpg
1244.576	0.768	1	test	Phase2	test/STIM_011.jpg
1248.903	1.071	1	test	Phase2	test/STIM_012.jpg
1252.793	0.686	1	test	Phase2	test/STIM_012.jpg
1256.171	0.755	1	test	Phase2	test/STIM_012.jpg
1260.19	0.83	1	test	Phase2	test/STIM_013.jpg
1263.85	0.653	1	test	Phase2	test/STIM_013.jpg
1268.377	1.11	1	test	Phase2	test/STIM_013.jpg
1272.431	0.899	1	test	Phase2	test/STIM_014.jpg
1276.45	0.737	0	test	Phase2	test/STIM_014.jpg
1281.21	1.051	1	test	Phase2	test/STIM_014.jpg
1284.57	0.812	1	test	Phase2	test/STIM_015.jpg
1288.482	0.755	1	test	Phase2	test/STIM_015.jpg
1292.35	1.102	1	test	Phase2	test/STIM_015.jpg
1296.452	0.691	0	test	Phase2	test/STIM_016.jpg
1300.986	0.632	1	test	Phase2	test/STIM_016.jpg
1303.722	0.696	1	test	Phase2	test/STIM_016.jpg
1307.704	0.825	1	test	Phase2	test/STIM_017.jpg
1310.759	0.858	1	test	Phase2	test/STIM_017.jpg
1315.011	0.763	1	test	Phase2	test/STIM_017.jpg
1319.069	0.778	1	test	Phase2	test/STIM_018.jpg
1322.673	0.906	1	test	Phase2	test/STIM_018.jpg
1326.568	0.84	1	test	Phase2	test/STIM_018.jpg
1330.98	0.761	0	test	Phase2	test/STIM_019.jpg
1335.659	0.78	1	test	Phase2	test/STIM_019.jpg
1338.748	0.958	1	test	Phase2	test/STIM_019.jpg
1343.081	0.568	1	test	Phase2	test/STIM_020.jpg
1346.62	0.682	1	test	Phase2	test/STIM_020.jpg
1349.798	0.649	1	test	Phase2	test/STIM_020.jpg
1352.697	0.641	1	test	Phase2	test/STIM_021.jpg
1356.166	0.594	1	test	Phase2	test/STIM_021.jpg
1360.704	0.718	1	test	Phase2	test/STIM_021.jpg
1364.789	0.743	1	test	Phase2	test/STIM_022.jpg
1367.79	0.769	1	test	Phase2	test/STIM_022.jpg
1371.25	0.945	1	test	Phase2	test/STIM_022.jpg
1374.883	1.009	1	test	Phase2	test/STIM_023.jpg
1378.682	0.675	1	test	Phase2	test/STIM_023.jpg
1381.998	0.763	1	test	Phase2	test/STIM_023.jpg
1386.312	1.086	1	test	Phase2	test/STIM_024.jpg
1390.765	0.74	1	test	Phase2	test/STIM_024.jpg
1394.232	1.037	1	test	Phase2	test/STIM_024.jpg
1399.187	1.111	1	test	Phase2	test/STIM_025.jpg
1403.237	0.748	1	test	Phase2	test/STIM_025.jpg
1406.432	0.627	1	test	Phase2	test/STIM_025.jpg
1410.223	1.044	1	test	Phase2	test/STIM_026.jpg
1413.949	0.804	1	test	Phase2	test/STIM_026.jpg
1417.167	0.99	1	test	Phase2	test/STIM_026.jpg
1420.576	1.069	1	test	Phase2	test/STIM_027.jpg
1424.322	1.11	1	test	Phase2	test/STIM_027.jpg
1427.999	1.074	1	test	Phase2	test/STIM_027.jpg
1432.575	0.708	1	test	Phase2	test/STIM_028.jpg
1435.81	0.553	1	test	Phase2	test/STIM_028.jpg
1439.349	0.646	1	test	Phase2	test/STIM_028.jpg
1442.499	0.734	1	test	Phase2	test/STIM_029.jpg
1445.487	0.841	1	test	Phase2	test/STIM_029.jpg
1449.205	1.148	0	test	Phase2	test/STIM_029.jpg
1452.579	0.526	1	study	Phase3	study/STIM_000.jpg
1455.929	0.898	1	study	Phase3	study/STIM_000.jpg
1460.339	1.005	1	study	Phase3	study/STIM_000.jpg
1464.043	0.786	1	study	Phase3	study/STIM_001.jpg
1467.843	0.964	1	study	Phase3	study/STIM_001.jpg
1472.213	0.651	1	study	Phase3	study/STIM_001.jpg
1475.99	0.792	1	study	Phase3	study/STIM_002.jpg
1480.634	1.037	1	study	Phase3	study/STIM_002.jpg
1483.906	0.569	1	study	Phase3	study/STIM_002.jpg
1486.685	0.866	1	study	Phase3	study/STIM_003.jpg
1490.847	0.957	1	study	Phase3	study/STIM_003.jpg
1495.356	0.918	1	study	Phase3	study/STIM_003.jpg
1499.362	1.009	1	study	Phase3	study/STIM_004.jpg
1503.507	1.103	1	study	Phase3	study/STIM_004.jpg
1508.167	0.898	1	study	Phase3	study/STIM_004.jpg
1512.311	0.566	1	study	Phase3	study/STIM_005.jpg
1515.43	0.68	1	study	Phase3	study/STIM_005.jpg
1519.755	0.504	1	study	Phase3	study/STIM_005.jpg
1524.246	0.964	1	study	Phase3	study/STIM_006.jpg
1529.24	0.504	1	study	Phase3	study/STIM_006.jpg
1531.807	0.689	1	study	Phase3	study/STIM_006.jpg
1536.462	0.516	1	study	Phase3	study/STIM_007.jpg
1539.985	0.864	1	study	Phase3	study/STIM_007.jpg
1543.625	0.614	1	study	Phase3	study/STIM_007.jpg
1548.09	0.554	1	study	Phase3	study/STIM_008.jpg
1551.002	0.529	1	study	Phase3	study/STIM_008.jpg
1555.595	0.995	1	study	Phase3	study/STIM_008.jpg
1560.301	1.02	1	study	Phase3	study/STIM_009.jpg
1563.538	1.066	1	study	Phase3	study/STIM_009.jpg
1567.716	0.639	1	study	Phase3	study/STIM_009.jpg
1571.71	0.842	1	study	Phase3	study/STIM_010.jpg
1575.41	0.777	1	study	Phase3	study/STIM_010.jpg
1578.854	0.953	1	study	Phase3	study/STIM_010.jpg
1582.276	1.114	1	study	Phase3	study/STIM_011.jpg
1586.044	0.954	1	study	Phase3	study/STIM_011.jpg
1590.021	1.003	1	study	Phase3	study/STIM_011.jpg
1595.081	1.018	1	study	Phase3	study/STIM_012.jpg
1599.51	0.825	1	study	Phase3	study/STIM_012.jpg
1603.771	0.642	1	study	Phase3	study/STIM_012.jpg
1606.907	0.867	1	study	Phase3	study/STIM_013.jpg
1611.802	0.616	1	study	Phase3	study/STIM_013.jpg
1615.451	0.871	1	study	Phase3	study/STIM_013.jpg
1619.023	0.943	1	study	Phase3	study/STIM_014.jpg
1622.26	0.631	1	study	Phase3	study/STIM_014.jpg
1625.374	0.786	1	study	Phase3	study/STIM_014.jpg
1630.094	1.001	1	study	Phase3	study/STIM_015.jpg
1634.837	1.108	1	study	Phase3	study/STIM_015.jpg
1638.518	0.717	1	study	Phase3	study/STIM_015.jpg
1642.494	1.009	1	study	Phase3	study/STIM_016.jpg
1645.713	0.54	1	study	Phase3	study/STIM_016.jpg
1649.577	1.001	1	study	Phase3	study/STIM_016.jpg
1654.504	0.511	1	study	Phase3	study/STIM_017.jpg
1657.345	0.811	1	study	Phase3	study/STIM_017.jpg
1661.056	0.57	1	study	Phase3	study/STIM_017.jpg
1664.706	0.905	0	study	Phase3	study/STIM_018.jpg
1668.497	0.903	1	study	Phase3	study/STIM_018.jpg
1672.733	0.51	1	study	Phase3	study/STIM_018.jpg
1676.808	0.649	1	study	Phase3	study/STIM_019.jpg
1681.415	0.88	1	study	Phase3	study/STIM_019.jpg
1685.86	0.848	1	study	Phase3	study/STIM_019.jpg
1690.671	0.811	1	study	Phase3	study/STIM_020.jpg
1694.829	0.721	1	study	Phase3	study/STIM_020.jpg
1698.329	1.103	1	study	Phase3	study/STIM_020.jpg
1702.468	1.057	1	study	Phase3	study/STIM_021.jpg
1707.087	1.086	1	study	Phase3	study/STIM_021.jpg
1712.05	0.681	1	study	Phase3	study/STIM_021.jpg
1716.036	0.752	1	study	Phase3	study/STIM_022.jpg
1719.447	0.991	1	study	Phase3	study/STIM_022.jpg
1723.674	0.769	1	study	Phase3	study/STIM_022.jpg
1727.634	0.729	1	study	Phase3	study/STIM_023.jpg
1731.085	0.712	1	study	Phase3	study/STIM_023.jpg
1734.736	1.006	1	study	Phase3	study/STIM_023.jpg
1738.03	0.517	1	study	Phase3	study/STIM_024.jpg
1741.386	0.603	1	study	Phase3	study/STIM_024.jpg
1744.233	0.503	1	study	Phase3	study/STIM_024.jpg
1747.148	1.115	1	study	Phase3	study/STIM_025.jpg
1750.773	0.638	1	study	Phase3	study/STIM_025.jpg
1754.36	0.51	1	study	Phase3	study/STIM_025.jpg
1757.586	0.583	1	study	Phase3	study/STIM_026.jpg
1762.022	0.895	1	study	Phase3	study/STIM_026.jpg
1767.004	1.121	1	study	Phase3	study/STIM_026.jpg
1771.333	0.88	1	study	Phase3	study/STIM_027.jpg
1774.844	0.848	1	study	Phase3	study/STIM_027.jpg
1777.94	0.684	1	study	Phase3	study/STIM_027.jpg
1782.282	0.541	1	study	Phase3	study/STIM_028.jpg
1785.74	0.941	1	study	Phase3	study/STIM_028.jpg
1789.385	0.526	1	study	Phase3	study/STIM_028.jpg
1793.243	1.024	1	study	Phase3	study/STIM_029.jpg
1796.802	1.063	1	study	Phase3	study/STIM_029.jpg
1800.895	1.041	1	study	Phase3	study/STIM_029.jpg
1805.684	0.683	1	test	Phase3	test/STIM_000.jpg
1809.994	1.069	1	test	Phase3	test/STIM_000.jpg
1813.581	1.11	1	test	Phase3	test/STIM_000.jpg
1816.938	1.09	1	test	Phase3	test/STIM_001.jpg
1820.546	0.665	1	test	Phase3	test/STIM_001.jpg
1823.378	0.73	1	test	Phase3	test/STIM_001.jpg
1826.624	0.681	1	test	Phase3	test/STIM_002.jpg
1830.851	0.786	1	test	Phase3	test/STIM_002.jpg
1834.464	0.675	1	test	Phase3	test/STIM_002.jpg
1837.728	0.642	1	test	Phase3	test/STIM_003.jpg
1840.74	0.678	1	test	Phase3	test/STIM_003.jpg
1843.779	0.814	1	test	Phase3	test/STIM_003.jpg
1847.518	0.63	1	test	Phase3	test/STIM_004.jpg
1850.43	1.02	1	test	Phase3	test/STIM_004.jpg
1855.383	1.009	1	test	Phase3	test/STIM_004.jpg
1859.012	0.592	0	test	Phase3	test/STIM_005.jpg
1862.84	0.804	0	test	Phase3	test/STIM_005.jpg
1866.569	0.818	0	test	Phase3	test/STIM_005.jpg
1870.838	0.7	1	test	Phase3	test/STIM_006.jpg
1874.603	1.15	1	test	Phase3	test/STIM_006.jpg
1878.233	0.948	1	test	Phase3	test/STIM_006.jpg
1883.07	0.989	1	test	Phase3	test/STIM_007.jpg
1886.732	0.722	1	test	Phase3	test/STIM_007.jpg
1891.19	1.074	1	test	Phase3	test/STIM_007.jpg
1895.52	0.575	1	test	Phase3	test/STIM_008.jpg
1899.196	0.835	1	test	Phase3	test/STIM_008.jpg
1902.415	0.662	1	test	Phase3	test/STIM_008.jpg
1905.403	0.809	1	test	Phase3	test/STIM_009.jpg
1908.801	0.708	1	test	Phase3	test/STIM_009.jpg
1913.208	0.976	1	test	Phase3	test/STIM_009.jpg
1916.873	1.159	0	test	Phase3	test/STIM_010.jpg
1920.719	0.856	0	test	Phase3	test/STIM_010.jpg
1923.956	1.021	1	test	Phase3	test/STIM_010.jpg
1928.373	0.974	1	test	Phase3	test/STIM_011.jpg
1931.57	1.143	1	test	Phase3	test/STIM_011.jpg
1935.613	0.987	0	test	Phase3	test/STIM_011.jpg
1940.288	1.043	1	test	Phase3	test/STIM_012.jpg
1944.153	0.771	1	test	Phase3	test/STIM_012.jpg
1947.64	0.658	1	test	Phase3	test/STIM_012.jpg
1952.143	1.082	1	test	Phase3	test/STIM_013.jpg
1955.614	0.825	1	test	Phase3	test/STIM_013.jpg
1959.458	0.896	1	test	Phase3	test/STIM_013.jpg
1964.048	0.546	1	test	Phase3	test/STIM_014.jpg
1968.605	0.732	1	test	Phase3	test/STIM_014.jpg
1971.833	1.069	1	test	Phase3	test/STIM_014.jpg
1975.338	1.041	1	test	Phase3	test/STIM_015.jpg
1979.503	0.656	1	test	Phase3	test/STIM_015.jpg
1982.472	0.951	1	test	Phase3	test/STIM_015.jpg
1986.48	0.921	1	test	Phase3	test/STIM_016.jpg
1990.651	0.591	1	test	Phase3	test/STIM_016.jpg
1995.286	1.046	0	test	Phase3	test/STIM_016.jpg
1999.985	0.535	1	test	Phase3	test/STIM_017.jpg
2002.586	0.821	1	test	Phase3	test/STIM_017.jpg
2006.586	0.732	1	test	Phase3	test/STIM_017.jpg
2010.919	1.041	1	test	Phase3	test/STIM_018.jpg
2015.557	1.05	1	test	Phase3	test/STIM_018.jpg
2019.702	0.926	1	test	Phase3	test/STIM_018.jpg
2022.962	1.156	0	test	Phase3	test/STIM_019.jpg
2027.901	1.101	1	test	Phase3	test/STIM_019.jpg
2032.714	0.704	1	test	Phase3	test/STIM_019.jpg
2035.83	1.119	1	test	Phase3	test/STIM_020.jpg
2039.725	1.106	1	test	Phase3	test/STIM_020.jpg
2044.394	0.843	0	test	Phase3	test/STIM_020.jpg
2047.647	1.14	1	test	Phase3	test/STIM_021.jpg
2052.647	0.837	1	test	Phase3	test/STIM_021.jpg
2056.52	1.129	1	test	Phase3	test/STIM_021.jpg
2059.865	0.898	1	test	Phase3	test/STIM_022.jpg
2063.527	1.124	1	test	Phase3	test/STIM_022.jpg
2066.933	1.15	1	test	Phase3	test/STIM_022.jpg
2070.39	0.667	1	test	Phase3	test/STIM_023.jpg
2074.899	0.748	1	test	Phase3	test/STIM_023.jpg
2078.167	0.642	1	test	Phase3	test/STIM_023.jpg
2082.592	1.103	1	test	Phase3	test/STIM_024.jpg
2087.576	0.83	1	test	Phase3	test/STIM_024.jpg
2091.599	0.57	1	test	Phase3	test/STIM_024.jpg
2094.967	0.737	1	test	Phase3	test/STIM_025.jpg
2098.492	0.817	1	test	Phase3	test/STIM_025.jpg
2102.199	0.843	1	test	Phase3	test/STIM_025.jpg
2106.231	1.047	1	test	Phase3	test/STIM_026.jpg
2110.497	0.979	0	test	Phase3	test/STIM_026.jpg
2115.215	0.926	1	test	Phase3	test/STIM_026.jpg
2119.893	0.641	1	test	Phase3	test/STIM_027.jpg
2124.088	0.978	1	test	Phase3	test/STIM_027.jpg
2127.677	1.152	1	test	Phase3	test/STIM_027.jpg
2132.12	1.037	1	test	Phase3	test/STIM_028.jpg
2137.004	0.913	0	test	Phase3	test/STIM_028.jpg
2141.089	1.089	1	test	Phase3	test/STIM_028.jpg
2145.579	0.862	1	test	Phase3	test/STIM_029.jpg
2148.878	0.648	1	test	Phase3	test/STIM_029.jpg
2153.003	0.536	1	test	Phase3	test/STIM_029.jpg
