onset	duration	response_time_ms	trial_type	learning_stage	stimulus	response_port
0.0	1.005	1004.8	study	Phase1	study/STIM_000.jpg	99
3.204	1.011	1011.4	study	Phase1	study/STIM_000.jpg	99
8.301	1.086	1085.7	study	Phase1	study/STIM_000.jpg	99
12.502	1.605	1604.7	study	Phase1	study/STIM_001.jpg	99
17.585	1.134	1133.7	study	Phase1	study/STIM_001.jpg	99
22.216	1.359	1358.7	study	Phase1	study/STIM_001.jpg	99
26.628	1.582	1582.1	study	Phase1	study/STIM_002.jpg	100
31.481	1.434	1434.5	study	Phase1	study/STIM_002.jpg	100
35.864	0.905	905.1	study	Phase1	study/STIM_002.jpg	99
39.819	1.131	1130.7	study	Phase1	study/STIM_003.jpg	100
44.298	1.076	1076.3	study	Phase1	study/STIM_003.jpg	99
49.141	1.125	1125.1	study	Phase1	study/STIM_003.jpg	100
53.414	1.274	1274.2	study	Phase1	study/STIM_004.jpg	99
57.9	0.97	969.6	study	Phase1	study/STIM_004.jpg	100
61.147	0.915	915.3	study	Phase1	study/STIM_004.jpg	99
64.559	0.863	863.2	study	Phase1	study/STIM_005.jpg	99
68.443	0.728	727.7	study	Phase1	study/STIM_005.jpg	100
71.391	0.816	816.2	study	Phase1	study/STIM_005.jpg	100
75.897	1.456	1456.3	study	Phase1	study/STIM_006.jpg	100
80.92	0.775	775.2	study	Phase1	study/STIM_006.jpg	99
84.603	0.67	670.4	study	Phase1	study/STIM_006.jpg	100
89.029	1.018	1017.7	study	Phase1	study/STIM_007.jpg	100
93.423	1.5	1500.1	study	Phase1	study/STIM_007.jpg	100
98.514	1.121	1121.0	study	Phase1	study/STIM_007.jpg	100
102.863	0.856	856.2	study	Phase1	study/STIM_008.jpg	99
106.481	0.862	861.7	study	Phase1	study/STIM_008.jpg	100
111.027	0.848	847.5	study	Phase1	study/STIM_008.jpg	100
115.36	0.98	980.2	study	Phase1	study/STIM_009.jpg	100
120.363	1.138	1138.1	study	Phase1	study/STIM_009.jpg	99
124.914	1.428	1427.8	study	Phase1	study/STIM_009.jpg	99
128.964	1.044	1044.5	study	Phase1	study/STIM_010.jpg	99
133.126	0.954	953.7	study	Phase1	study/STIM_010.jpg	100
136.497	1.431	1431.1	study	Phase1	study/STIM_010.jpg	99
141.131	1.605	1604.8	study	Phase1	study/STIM_011.jpg	100
145.673	1.359	1358.7	study	Phase1	study/STIM_011.jpg	99
149.722	1.036	1036.1	study	Phase1	study/STIM_011.jpg	99
154.536	1.382	1382.3	study	Phase1	study/STIM_012.jpg	100
158.858	1.502	1501.5	study	Phase1	study/STIM_012.jpg	100
163.485	0.917	916.7	study	Phase1	study/STIM_012.jpg	100
167.286	0.761	761.4	study	Phase1	study/STIM_013.jpg	100
170.534	0.955	954.7	study	Phase1	study/STIM_013.jpg	100
175.158	0.713	712.9	study	Phase1	study/STIM_013.jpg	99
179.828	1.151	1150.6	study	Phase1	study/STIM_014.jpg	100
185.005	1.134	1134.0	study	Phase1	study/STIM_014.jpg	99
188.32	0.99	990.2	study	Phase1	study/STIM_014.jpg	100
193.14	1.42	1419.6	study	Phase1	study/STIM_015.jpg	100
196.919	1.226	1226.5	study	Phase1	study/STIM_015.jpg	99
201.268	1.421	1421.3	study	Phase1	study/STIM_015.jpg	99
206.173	1.541	1541.1	study	Phase1	study/STIM_016.jpg	100
211.144	1.178	1178.5	study	Phase1	study/STIM_016.jpg	99
215.016	1.221	1221.2	study	Phase1	study/STIM_016.jpg	99
218.997	0.873	873.1	study	Phase1	study/STIM_017.jpg	99
223.634	1.469	1468.8	study	Phase1	study/STIM_017.jpg	100
229.033	1.317	1317.0	study	Phase1	study/STIM_017.jpg	100
233.32	1.091	1091.2	study	Phase1	study/STIM_018.jpg	99
237.756	1.36	1360.3	study	Phase1	study/STIM_018.jpg	99
241.351	0.895	895.1	study	Phase1	study/STIM_018.jpg	100
246.077	0.962	962.3	study	Phase1	study/STIM_019.jpg	100
250.023	0.751	751.0	study	Phase1	study/STIM_019.jpg	100
253.207	1.21	1209.8	study	Phase1	study/STIM_019.jpg	100
256.701	0.964	964.4	study	Phase1	study/STIM_020.jpg	100
261.074	0.967	967.0	study	Phase1	study/STIM_020.jpg	99
264.817	0.767	767.2	study	Phase1	study/STIM_020.jpg	100
269.173	1.117	1116.8	study	Phase1	study/STIM_021.jpg	100
274.033	0.708	708.3	study	Phase1	study/STIM_021.jpg	99
277.508	1.372	1372.0	study	Phase1	study/STIM_021.jpg	99
281.531	0.9	899.6	study	Phase1	study/STIM_022.jpg	99
286.34	1.056	1055.9	study	Phase1	study/STIM_022.jpg	100
290.135	0.967	967.0	study	Phase1	study/STIM_022.jpg	100
295.01	1.153	1152.9	study	Phase1	study/STIM_023.jpg	99
298.782	1.124	1124.3	study	Phase1	study/STIM_023.jpg	99
302.378	1.06	1059.7	study	Phase1	study/STIM_023.jpg	100
307.119	1.48	1480.3	study	Phase1	study/STIM_024.jpg	99
312.377	1.226	1226.3	study	Phase1	study/STIM_024.jpg	100
316.478	0.992	992.5	study	Phase1	study/STIM_024.jpg	100
321.18	1.14	1139.6	study	Phase1	study/STIM_025.jpg	100
326.12	0.862	862.0	study	Phase1	study/STIM_025.jpg	100
329.902	1.103	1103.0	study	Phase1	study/STIM_025.jpg	99
333.469	0.818	817.7	study	Phase1	study/STIM_026.jpg	100
337.936	1.031	1031.1	study	Phase1	study/STIM_026.jpg	100
341.405	0.71	709.9	study	Phase1	study/STIM_026.jpg	99
345.846	0.917	917.0	study	Phase1	study/STIM_027.jpg	99
350.029	1.493	1492.7	study	Phase1	study/STIM_027.jpg	99
354.787	1.235	1235.1	study	Phase1	study/STIM_027.jpg	100
358.845	1.306	1305.6	study	Phase1	study/STIM_028.jpg	100
364.151	0.801	800.6	study	Phase1	study/STIM_028.jpg	99
367.108	0.797	796.9	study	Phase1	study/STIM_028.jpg	99
370.74	1.006	1005.9	study	Phase1	study/STIM_029.jpg	99
375.038	1.431	1431.1	study	Phase1	study/STIM_029.jpg	99
379.246	1.184	1184.0	study	Phase1	study/STIM_029.jpg	100
384.42	0.733	733.4	test	Phase1	test/STIM_000.jpg	100
388.405	0.695	695.2	test	Phase1	test/STIM_000.jpg	100
391.889	0.661	661.0	test	Phase1	test/STIM_000.jpg	100
396.166	1.049	1049.2	test	Phase1	test/STIM_001.jpg	100
400.016	1.061	1061.1	test	Phase1	test/STIM_001.jpg	100
404.206	0.604	603.5	test	Phase1	test/STIM_001.jpg	100
407.239	0.815	814.9	test	Phase1	test/STIM_002.jpg	99
411.005	0.673	672.7	test	Phase1	test/STIM_002.jpg	99
414.082	1.013	1012.7	test	Phase1	test/STIM_002.jpg	99
417.912	0.962	962.1	test	Phase1	test/STIM_003.jpg	99
421.711	0.824	824.1	test	Phase1	test/STIM_003.jpg	99
425.058	0.863	863.1	test	Phase1	test/STIM_003.jpg	100
428.542	0.759	758.9	test	Phase1	test/STIM_004.jpg	100
432.459	0.613	613.1	test	Phase1	test/STIM_004.jpg	100
435.44	0.804	804.1	test	Phase1	test/STIM_004.jpg	99
439.359	1.159	1159.2	test	Phase1	test/STIM_005.jpg	100
443.001	1.075	1074.9	test	Phase1	test/STIM_005.jpg	100
447.325	0.796	795.9	test	Phase1	test/STIM_005.jpg	99
452.057	0.943	943.1	test	Phase1	test/STIM_006.jpg	100
455.567	0.83	830.0	test	Phase1	test/STIM_006.jpg	99
459.253	0.934	934.3	test	Phase1	test/STIM_006.jpg	99
463.445	0.803	802.9	test	Phase1	test/STIM_007.jpg	100
467.786	0.661	660.9	test	Phase1	test/STIM_007.jpg	100
471.787	0.996	996.2	test	Phase1	test/STIM_007.jpg	100
476.555	0.782	781.9	test	Phase1	test/STIM_008.jpg	100
480.317	1.081	1081.4	test	Phase1	test/STIM_008.jpg	99
484.777	0.974	974.0	test	Phase1	test/STIM_008.jpg	100
489.137	0.826	825.9	test	Phase1	test/STIM_009.jpg	99
493.911	0.985	985.1	test	Phase1	test/STIM_009.jpg	100
498.786	0.992	991.9	test	Phase1	test/STIM_009.jpg	100
502.746	0.835	834.8	test	Phase1	test/STIM_010.jpg	99
506.851	0.756	756.3	test	Phase1	test/STIM_010.jpg	100
510.395	1.142	1142.1	test	Phase1	test/STIM_010.jpg	99
515.168	0.803	803.2	test	Phase1	test/STIM_011.jpg	100
518.706	0.716	716.3	test	Phase1	test/STIM_011.jpg	99
522.445	1.006	1005.5	test	Phase1	test/STIM_011.jpg	100
526.264	0.654	653.8	test	Phase1	test/STIM_012.jpg	99
530.759	0.89	890.3	test	Phase1	test/STIM_012.jpg	100
533.801	0.54	540.3	test	Phase1	test/STIM_012.jpg	100
537.43	0.744	743.7	test	Phase1	test/STIM_013.jpg	99
540.317	1.019	1018.6	test	Phase1	test/STIM_013.jpg	99
544.921	1.12	1120.2	test	Phase1	test/STIM_013.jpg	99
549.653	1.084	1084.4	test	Phase1	test/STIM_014.jpg	99
554.704	0.644	644.2	test	Phase1	test/STIM_014.jpg	99
557.438	0.888	888.2	test	Phase1	test/STIM_014.jpg	100
561.869	1.007	1007.3	test	Phase1	test/STIM_015.jpg	100
566.798	1.065	1065.1	test	Phase1	test/STIM_015.jpg	99
571.697	1.049	1049.3	test	Phase1	test/STIM_015.jpg	99
576.258	0.652	652.4	test	Phase1	test/STIM_016.jpg	99
580.63	1.094	1093.8	test	Phase1	test/STIM_016.jpg	99
585.54	0.601	601.4	test	Phase1	test/STIM_016.jpg	99
588.307	0.619	619.2	test	Phase1	test/STIM_017.jpg	100
591.337	1.05	1050.0	test	Phase1	test/STIM_017.jpg	99
595.424	1.069	1069.3	test	Phase1	test/STIM_017.jpg	100
599.68	0.555	555.1	test	Phase1	test/STIM_018.jpg	100
603.048	1.048	1047.7	test	Phase1	test/STIM_018.jpg	99
606.466	0.987	987.2	test	Phase1	test/STIM_018.jpg	100
610.619	0.752	751.5	test	Phase1	test/STIM_019.jpg	100
614.868	0.622	622.5	test	Phase1	test/STIM_019.jpg	99
619.029	0.698	698.4	test	Phase1	test/STIM_019.jpg	100
622.643	0.6	600.3	test	Phase1	test/STIM_020.jpg	99
625.503	0.876	876.1	test	Phase1	test/STIM_020.jpg	100
629.088	0.537	537.0	test	Phase1	test/STIM_020.jpg	100
632.356	1.144	1144.2	test	Phase1	test/STIM_021.jpg	100
637.454	0.652	652.2	test	Phase1	test/STIM_021.jpg	100
640.541	0.913	912.6	test	Phase1	test/STIM_021.jpg	99
643.645	0.943	943.0	test	Phase1	test/STIM_022.jpg	99
647.781	0.941	941.0	test	Phase1	test/STIM_022.jpg	100
651.929	1.049	1049.3	test	Phase1	test/STIM_022.jpg	99
655.227	0.855	854.8	test	Phase1	test/STIM_023.jpg	99
659.844	1.123	1123.2	test	Phase1	test/STIM_023.jpg	99
664.827	0.802	802.5	test	Phase1	test/STIM_023.jpg	99
668.074	1.018	1018.0	test	Phase1	test/STIM_024.jpg	99
672.733	1.03	1029.8	test	Phase1	test/STIM_024.jpg	100
677.759	0.608	608.5	test	Phase1	test/STIM_024.jpg	99
682.246	0.601	601.1	test	Phase1	test/STIM_025.jpg	99
686.328	0.984	984.3	test	Phase1	test/STIM_025.jpg	99
690.19	1.002	1001.5	test	Phase1	test/STIM_025.jpg	99
694.844	0.854	854.5	test	Phase1	test/STIM_026.jpg	100
699.532	0.671	670.8	test	Phase1	test/STIM_026.jpg	99
703.314	0.794	793.9	test	Phase1	test/STIM_026.jpg	100
706.297	0.758	758.0	test	Phase1	test/STIM_027.jpg	100
710.052	1.027	1027.4	test	Phase1	test/STIM_027.jpg	99
713.502	0.933	932.8	test	Phase1	test/STIM_027.jpg	100
716.868	0.918	918.2	test	Phase1	test/STIM_028.jpg	100
720.767	0.723	723.3	test	Phase1	test/STIM_028.jpg	100
724.96	0.773	773.0	test	Phase1	test/STIM_028.jpg	99
728.108	0.825	824.7	test	Phase1	test/STIM_029.jpg	99
733.024	0.795	794.8	test	Phase1	test/STIM_029.jpg	100
736.478	0.538	538.2	test	Phase1	test/STIM_029.jpg	99
740.863	1.055	1055.4	study	Phase2	study/STIM_000.jpg	99
745.597	0.692	691.7	study	Phase2	study/STIM_000.jpg	100
748.777	1.167	1167.2	study	Phase2	study/STIM_000.jpg	99
753.557	1.214	1213.6	study	Phase2	study/STIM_001.jpg	99
758.24	0.775	775.1	study	Phase2	study/STIM_001.jpg	99
761.439	0.579	578.8	study	Phase2	study/STIM_001.jpg	99
765.998	0.97	970.2	study	Phase2	study/STIM_002.jpg	100
770.463	1.277	1276.8	study	Phase2	study/STIM_002.jpg	100
774.848	1.067	1066.7	study	Phase2	study/STIM_002.jpg	100
778.726	0.762	762.2	study	Phase2	study/STIM_003.jpg	99
781.778	1.123	1123.4	study	Phase2	study/STIM_003.jpg	99
785.947	1.101	1101.3	study	Phase2	study/STIM_003.jpg	99
789.331	0.923	923.3	study	Phase2	study/STIM_004.jpg	99
792.396	0.985	985.3	study	Phase2	study/STIM_004.jpg	100
795.721	1.009	1009.0	study	Phase2	study/STIM_004.jpg	99
799.052	0.95	949.6	study	Phase2	study/STIM_005.jpg	99
803.424	1.248	1248.3	study	Phase2	study/STIM_005.jpg	100
808.7	1.029	1029.0	study	Phase2	study/STIM_005.jpg	100
813.642	0.643	643.0	study	Phase2	study/STIM_006.jpg	100
817.918	0.806	806.0	study	Phase2	study/STIM_006.jpg	99
822.769	0.766	766.2	study	Phase2	study/STIM_006.jpg	99
827.314	0.947	947.0	study	Phase2	study/STIM_007.jpg	99
831.677	0.818	818.1	study	Phase2	study/STIM_007.jpg	99
834.808	0.865	864.8	study	Phase2	study/STIM_007.jpg	99
839.569	1.174	1174.4	study	Phase2	study/STIM_008.jpg	100
844.383	0.786	785.8	study	Phase2	study/STIM_008.jpg	100
848.345	1.009	1009.0	study	Phase2	study/STIM_008.jpg	100
853.44	1.072	1071.8	study	Phase2	study/STIM_009.jpg	99
858.472	0.948	948.5	study	Phase2	study/STIM_009.jpg	100
863.394	0.707	706.7	study	Phase2	study/STIM_009.jpg	100
867.899	0.851	851.0	study	Phase2	study/STIM_010.jpg	99
870.956	0.85	849.6	study	Phase2	study/STIM_010.jpg	99
874.443	1.198	1197.7	study	Phase2	study/STIM_010.jpg	100
878.255	1.042	1042.5	study	Phase2	study/STIM_011.jpg	100
882.504	0.614	613.5	study	Phase2	study/STIM_011.jpg	100
886.914	0.594	594.5	study	Phase2	study/STIM_011.jpg	100
890.872	1.361	1361.3	study	Phase2	study/STIM_012.jpg	99
896.286	0.899	898.8	study	Phase2	study/STIM_012.jpg	100
900.999	0.595	595.0	study	Phase2	study/STIM_012.jpg	100
903.674	0.907	906.8	study	Phase2	study/STIM_013.jpg	100
907.015	1.184	1183.8	study	Phase2	study/STIM_013.jpg	99
911.243	1.072	1072.3	study	Phase2	study/STIM_013.jpg	99
914.712	0.684	683.9	study	Phase2	study/STIM_014.jpg	100
918.951	1.0	1000.3	study	Phase2	study/STIM_014.jpg	100
922.38	0.856	855.5	study	Phase2	study/STIM_014.jpg	100
926.79	0.823	823.3	study	Phase2	study/STIM_015.jpg	99
930.534	0.584	583.9	study	Phase2	study/STIM_015.jpg	99
933.918	1.021	1021.1	study	Phase2	study/STIM_015.jpg	99
939.05	0.866	866.4	study	Phase2	study/STIM_016.jpg	99
942.713	0.751	751.0	study	Phase2	study/STIM_016.jpg	99
946.527	0.744	743.5	study	Phase2	study/STIM_016.jpg	99
951.218	1.013	1012.8	study	Phase2	study/STIM_017.jpg	99
955.719	0.78	780.3	study	Phase2	study/STIM_017.jpg	100
959.401	0.817	816.6	study	Phase2	study/STIM_017.jpg	100
963.432	1.315	1314.6	study	Phase2	study/STIM_018.jpg	100
968.011	1.074	1074.2	study	Phase2	study/STIM_018.jpg	99
972.142	0.835	834.7	study	Phase2	study/STIM_018.jpg	100
975.716	1.026	1025.7	study	Phase2	study/STIM_019.jpg	100
980.751	1.18	1180.4	study	Phase2	study/STIM_019.jpg	100
984.951	0.801	800.6	study	Phase2	study/STIM_019.jpg	100
988.325	0.942	942.4	study	Phase2	study/STIM_020.jpg	100
993.375	0.695	695.1	study	Phase2	study/STIM_020.jpg	100
997.822	1.177	1176.6	study	Phase2	study/STIM_020.jpg	99
1002.895	0.827	826.7	study	Phase2	study/STIM_021.jpg	100
1006.977	0.936	935.7	study	Phase2	study/STIM_021.jpg	100
1012.005	0.65	649.7	study	Phase2	study/STIM_021.jpg	99
1014.742	1.173	1173.0	study	Phase2	study/STIM_022.jpg	100
1018.506	0.944	943.9	study	Phase2	study/STIM_022.jpg	99
1023.223	0.854	853.6	study	Phase2	study/STIM_022.jpg	100
1027.955	0.964	963.7	study	Phase2	study/STIM_023.jpg	99
1031.766	1.202	1202.4	study	Phase2	study/STIM_023.jpg	100
1035.592	0.865	864.8	study	Phase2	study/STIM_023.jpg	100
1039.178	1.139	1139.2	study	Phase2	study/STIM_024.jpg	99
1043.516	0.853	852.8	study	Phase2	study/STIM_024.jpg	99
1048.147	0.726	725.7	study	Phase2	study/STIM_024.jpg	100
1052.113	1.28	1279.7	study	Phase2	study/STIM_025.jpg	100
1055.801	0.866	866.4	study	Phase2	study/STIM_025.jpg	99
1059.141	0.896	896.3	study	Phase2	study/STIM_025.jpg	99
1062.336	0.81	809.9	study	Phase2	study/STIM_026.jpg	100
1066.362	0.713	712.6	study	Phase2	study/STIM_026.jpg	99
1070.912	1.081	1080.7	study	Phase2	study/STIM_026.jpg	99
1074.344	0.789	788.8	study	Phase2	study/STIM_027.jpg	99
1078.549	0.786	785.8	study	Phase2	study/STIM_027.jpg	100
1082.978	1.134	1134.5	study	Phase2	study/STIM_027.jpg	99
1086.919	1.096	1096.1	study	Phase2	study/STIM_028.jpg	99
1090.466	1.17	1170.5	study	Phase2	study/STIM_028.jpg	99
1094.823	0.623	622.6	study	Phase2	study/STIM_028.jpg	100
1098.224	0.743	743.0	study	Phase2	study/STIM_029.jpg	100
1102.278	1.136	1136.3	study	Phase2	study/STIM_029.jpg	100
1106.789	1.026	1026.0	study	Phase2	study/STIM_029.jpg	99
1110.239	1.008	1007.9	test	Phase2	test/STIM_000.jpg	100
1114.548	1.021	1021.4	test	Phase2	test/STIM_000.jpg	100
1118.753	1.012	1012.3	test	Phase2	test/STIM_000.jpg	99
1122.008	0.744	744.5	test	Phase2	test/STIM_001.jpg	99
1125.289	0.698	697.5	test	Phase2	test/STIM_001.jpg	100
1128.586	0.872	872.2	test	Phase2	test/STIM_001.jpg	99
1131.924	0.715	714.6	test	Phase2	test/STIM_002.jpg	100
1135.869	0.874	873.7	test	Phase2	test/STIM_002.jpg	99
1140.629	1.01	1009.8	test	Phase2	test/STIM_002.jpg	99
1144.962	0.721	720.6	test	Phase2	test/STIM_003.jpg	100
1148.363	0.929	928.9	test	Phase2	test/STIM_003.jpg	100
1153.367	1.001	1000.8	test	Phase2	test/STIM_003.jpg	99
1156.879	0.929	929.3	test	Phase2	test/STIM_004.jpg	100
1161.031	0.986	985.5	test	Phase2	test/STIM_004.jpg	100
1165.066	0.589	588.7	test	Phase2	test/STIM_004.jpg	99
1168.221	1.061	1060.8	test	Phase2	test/STIM_005.jpg	100
1173.205	0.827	826.6	test	Phase2	test/STIM_005.jpg	100
1177.767	0.827	827.1	test	Phase2	test/STIM_005.jpg	99
1181.341	1.101	1100.6	test	Phase2	test/STIM_006.jpg	100
1185.01	0.87	870.0	test	Phase2	test/STIM_006.jpg	99
1188.515	0.643	643.1	test	Phase2	test/STIM_006.jpg	100
1192.912	0.733	732.7	test	Phase2	test/STIM_007.jpg	100
1195.771	0.69	689.6	test	Phase2	test/STIM_007.jpg	99
1199.238	1.084	1084.2	test	Phase2	test/STIM_007.jpg	99
1203.934	0.92	919.7	test	Phase2	test/STIM_008.jpg	100
1207.909	0.695	694.9	test	Phase2	test/STIM_008.jpg	100
1212.594	0.575	574.7	test	Phase2	test/STIM_008.jpg	100
1215.354	0.844	844.4	test	Phase2	test/STIM_009.jpg	100
1218.653	0.995	995.0	test	Phase2	test/STIM_009.jpg	100
1223.055	1.115	1115.3	test	Phase2	test/STIM_009.jpg	100
1227.402	0.548	548.4	test	Phase2	test/STIM_010.jpg	100
1230.426	1.027	1027.2	test	Phase2	test/STIM_010.jpg	99
1234.504	0.794	793.8	test	Phase2	test/STIM_010.jpg	100
1238.002	0.64	639.6	test	Phase2	test/STIM_011.jpg	99
1240.837	0.907	906.6	test	Phase2	test/STIM_011.jpg	99
1244.576	0.768	767.9	test	Phase2	test/STIM_011.jpg	100
1248.903	1.071	1071.1	test	Phase2	test/STIM_012.jpg	100
1252.793	0.686	686.1	test	Phase2	test/STIM_012.jpg	99
1256.171	0.755	755.1	test	Phase2	test/STIM_012.jpg	100
1260.19	0.83	829.7	test	Phase2	test/STIM_013.jpg	100
1263.85	0.653	652.7	test	Phase2	test/STIM_013.jpg	100
1268.377	1.11	1109.7	test	Phase2	test/STIM_013.jpg	100
1272.431	0.899	899.4	test	Phase2	test/STIM_014.jpg	100
1276.45	0.737	737.4	test	Phase2	test/STIM_014.jpg	100
1281.21	1.051	1050.9	test	Phase2	test/STIM_014.jpg	99
1284.57	0.812	811.5	test	Phase2	test/STIM_015.jpg	100
1288.482	0.755	755.3	test	Phase2	test/STIM_015.jpg	100
1292.35	1.102	1102.3	test	Phase2	test/STIM_015.jpg	99
1296.452	0.691	691.4	test	Phase2	test/STIM_016.jpg	100
1300.986	0.632	632.0	test	Phase2	test/STIM_016.jpg	100
1303.722	0.696	695.9	test	Phase2	test/STIM_016.jpg	100
1307.704	0.825	825.2	test	Phase2	test/STIM_017.jpg	100
1310.759	0.858	858.5	test	Phase2	test/STIM_017.jpg	100
1315.011	0.763	763.1	test	Phase2	test/STIM_017.jpg	100
1319.069	0.778	777.6	test	Phase2	test/STIM_018.jpg	99
1322.673	0.906	905.9	test	Phase2	test/STIM_018.jpg	99
1326.568	0.84	839.5	test	Phase2	test/STIM_018.jpg	99
1330.98	0.761	761.1	test	Phase2	test/STIM_019.jpg	100
1335.659	0.78	779.8	test	Phase2	test/STIM_019.jpg	100
1338.748	0.958	957.9	test	Phase2	test/STIM_019.jpg	100
1343.081	0.568	568.5	test	Phase2	test/STIM_020.jpg	99
1346.62	0.682	681.8	test	Phase2	test/STIM_020.jpg	100
1349.798	0.649	649.4	test	Phase2	test/STIM_020.jpg	100
1352.697	0.641	641.1	test	Phase2	test/STIM_021.jpg	100
1356.166	0.594	593.7	test	Phase2	test/STIM_021.jpg	99
1360.704	0.718	717.9	test	Phase2	test/STIM_021.jpg	100
1364.789	0.743	743.4	test	Phase2	test/STIM_022.jpg	99
1367.79	0.769	769.2	test	Phase2	test/STIM_022.jpg	99
1371.25	0.945	945.2	test	Phase2	test/STIM_022.jpg	100
1374.883	1.009	1009.4	test	Phase2	test/STIM_023.jpg	100
1378.682	0.675	675.2	test	Phase2	test/STIM_023.jpg	99
1381.998	0.763	763.0	test	Phase2	test/STIM_023.jpg	99
1386.312	1.086	1086.0	test	Phase2	test/STIM_024.jpg	99
1390.765	0.74	739.5	test	Phase2	test/STIM_024.jpg	100
1394.232	1.037	1036.8	test	Phase2	test/STIM_024.jpg	99
1399.187	1.111	1110.9	test	Phase2	test/STIM_025.jpg	100
1403.237	0.748	748.5	test	Phase2	test/STIM_025.jpg	99
1406.432	0.627	627.0	test	Phase2	test/STIM_025.jpg	99
1410.223	1.044	1043.7	test	Phase2	test/STIM_026.jpg	99
1413.949	0.804	803.8	test	Phase2	test/STIM_026.jpg	99
1417.167	0.99	989.6	test	Phase2	test/STIM_026.jpg	100
1420.576	1.069	1069.4	test	Phase2	test/STIM_027.jpg	100
1424.322	1.11	1109.8	test	Phase2	test/STIM_027.jpg	100
1427.999	1.074	1074.1	test	Phase2	test/STIM_027.jpg	100
1432.575	0.708	708.2	test	Phase2	test/STIM_028.jpg	99
1435.81	0.553	552.7	test	Phase2	test/STIM_028.jpg	100
1439.349	0.646	645.5	test	Phase2	test/STIM_028.jpg	100
1442.499	0.734	733.8	test	Phase2	test/STIM_029.jpg	99
1445.487	0.841	840.8	test	Phase2	test/STIM_029.jpg	99
1449.205	1.148	1147.9	test	Phase2	test/STIM_029.jpg	100
1452.579	0.526	525.5	study	Phase3	study/STIM_000.jpg	100
1455.929	0.898	898.1	study	Phase3	study/STIM_000.jpg	100
1460.339	1.005	1004.9	study	Phase3	study/STIM_000.jpg	99
1464.043	0.786	786.2	study	Phase3	study/STIM_001.jpg	99
1467.843	0.964	963.7	study	Phase3	study/STIM_001.jpg	100
1472.213	0.651	650.7	study	Phase3	study/STIM_001.jpg	99
1475.99	0.792	792.3	study	Phase3	study/STIM_002.jpg	99
1480.634	1.037	1036.9	study	Phase3	study/STIM_002.jpg	100
1483.906	0.569	568.7	study	Phase3	study/STIM_002.jpg	99
1486.685	0.866	865.8	study	Phase3	study/STIM_003.jpg	99
1490.847	0.957	957.3	study	Phase3	study/STIM_003.jpg	100
1495.356	0.918	918.4	study	Phase3	study/STIM_003.jpg	100
1499.362	1.009	1009.0	study	Phase3	study/STIM_004.jpg	100
1503.507	1.103	1103.4	study	Phase3	study/STIM_004.jpg	99
1508.167	0.898	897.7	study	Phase3	study/STIM_004.jpg	100
1512.311	0.566	566.1	study	Phase3	study/STIM_005.jpg	99
1515.43	0.68	679.8	study	Phase3	study/STIM_005.jpg	100
1519.755	0.504	503.9	study	Phase3	study/STIM_005.jpg	100
1524.246	0.964	964.2	study	Phase3	study/STIM_006.jpg	100
1529.24	0.504	504.4	study	Phase3	study/STIM_006.jpg	99
1531.807	0.689	689.1	study	Phase3	study/STIM_006.jpg	99
1536.462	0.516	515.7	study	Phase3	study/STIM_007.jpg	99
1539.985	0.864	863.7	study	Phase3	study/STIM_007.jpg	100
1543.625	0.614	613.6	study	Phase3	study/STIM_007.jpg	99
1548.09	0.554	553.6	study	Phase3	study/STIM_008.jpg	99
1551.002	0.529	529.2	study	Phase3	study/STIM_008.jpg	100
1555.595	0.995	995.0	study	Phase3	study/STIM_008.jpg	100
1560.301	1.02	1020.0	study	Phase3	study/STIM_009.jpg	99
1563.538	1.066	1066.0	study	Phase3	study/STIM_009.jpg	100
1567.716	0.639	638.8	study	Phase3	study/STIM_009.jpg	100
1571.71	0.842	842.1	study	Phase3	study/STIM_010.jpg	100
1575.41	0.777	776.6	study	Phase3	study/STIM_010.jpg	100
1578.854	0.953	953.0	study	Phase3	study/STIM_010.jpg	99
1582.276	1.114	1114.4	study	Phase3	study/STIM_011.jpg	100
1586.044	0.954	953.5	study	Phase3	study/STIM_011.jpg	100
1590.021	1.003	1003.0	study	Phase3	study/STIM_011.jpg	99
1595.081	1.018	1017.8	study	Phase3	study/STIM_012.jpg	99
1599.51	0.825	825.1	study	Phase3	study/STIM_012.jpg	100
1603.771	0.642	642.3	study	Phase3	study/STIM_012.jpg	99
1606.907	0.867	866.7	study	Phase3	study/STIM_013.jpg	100
1611.802	0.616	616.0	study	Phase3	study/STIM_013.jpg	100
1615.451	0.871	871.4	study	Phase3	study/STIM_013.jpg	99
1619.023	0.943	942.7	study	Phase3	study/STIM_014.jpg	99
1622.26	0.631	630.6	study	Phase3	study/STIM_014.jpg	100
1625.374	0.786	786.4	study	Phase3	study/STIM_014.jpg	99
1630.094	1.001	1001.0	study	Phase3	study/STIM_015.jpg	99
1634.837	1.108	1108.5	study	Phase3	study/STIM_015.jpg	99
1638.518	0.717	717.2	study	Phase3	study/STIM_015.jpg	99
1642.494	1.009	1009.2	study	Phase3	study/STIM_016.jpg	99
1645.713	0.54	539.9	study	Phase3	study/STIM_016.jpg	100
1649.577	1.001	1001.1	study	Phase3	study/STIM_016.jpg	99
1654.504	0.511	510.7	study	Phase3	study/STIM_017.jpg	100
1657.345	0.811	811.2	study	Phase3	study/STIM_017.jpg	99
1661.056	0.57	569.5	study	Phase3	study/STIM_017.jpg	100
1664.706	0.905	904.7	study	Phase3	study/STIM_018.jpg	99
1668.497	0.903	903.2	study	Phase3	study/STIM_018.jpg	99
1672.733	0.51	510.2	study	Phase3	study/STIM_018.jpg	100
1676.808	0.649	649.2	study	Phase3	study/STIM_019.jpg	100
1681.415	0.88	880.3	study	Phase3	study/STIM_019.jpg	100
1685.86	0.848	847.5	study	Phase3	study/STIM_019.jpg	100
1690.671	0.811	811.2	study	Phase3	study/STIM_020.jpg	99
1694.829	0.721	720.6	study	Phase3	study/STIM_020.jpg	99
1698.329	1.103	1102.7	study	Phase3	study/STIM_020.jpg	100
1702.468	1.057	1056.7	study	Phase3	study/STIM_021.jpg	100
1707.087	1.086	1085.9	study	Phase3	study/STIM_021.jpg	100
1712.05	0.681	681.0	study	Phase3	study/STIM_021.jpg	100
1716.036	0.752	751.9	study	Phase3	study/STIM_022.jpg	100
1719.447	0.991	991.2	study	Phase3	study/STIM_022.jpg	100
1723.674	0.769	769.2	study	Phase3	study/STIM_022.jpg	99
1727.634	0.729	728.8	study	Phase3	study/STIM_023.jpg	100
1731.085	0.712	712.2	study	Phase3	study/STIM_023.jpg	99
1734.736	1.006	1006.4	study	Phase3	study/STIM_023.jpg	99
1738.03	0.517	517.0	study	Phase3	study/STIM_024.jpg	100
1741.386	0.603	602.7	study	Phase3	study/STIM_024.jpg	99
1744.233	0.503	503.4	study	Phase3	study/STIM_024.jpg	100
1747.148	1.115	1115.3	study	Phase3	study/STIM_025.jpg	100
1750.773	0.638	638.4	study	Phase3	study/STIM_025.jpg	99
1754.36	0.51	510.5	study	Phase3	study/STIM_025.jpg	99
1757.586	0.583	582.6	study	Phase3	study/STIM_026.jpg	100
1762.022	0.895	895.1	study	Phase3	study/STIM_026.jpg	100
1767.004	1.121	1121.0	study	Phase3	study/STIM_026.jpg	100
1771.333	0.88	880.4	study	Phase3	study/STIM_027.jpg	100
1774.844	0.848	848.3	study	Phase3	study/STIM_027.jpg	100
1777.94	0.684	683.6	study	Phase3	study/STIM_027.jpg	100
1782.282	0.541	540.9	study	Phase3	study/STIM_028.jpg	100
1785.74	0.941	940.9	study	Phase3	study/STIM_028.jpg	100
1789.385	0.526	526.4	study	Phase3	study/STIM_028.jpg	99
1793.243	1.024	1023.8	study	Phase3	study/STIM_029.jpg	100
1796.802	1.063	1063.3	study	Phase3	study/STIM_029.jpg	100
1800.895	1.041	1041.0	study	Phase3	study/STIM_029.jpg	100
1805.684	0.683	683.4	test	Phase3	test/STIM_000.jpg	99
1809.994	1.069	1068.8	test	Phase3	test/STIM_000.jpg	100
1813.581	1.11	1110.3	test	Phase3	test/STIM_000.jpg	100
1816.938	1.09	1090.3	test	Phase3	test/STIM_001.jpg	99
1820.546	0.665	665.1	test	Phase3	test/STIM_001.jpg	100
1823.378	0.73	729.9	test	Phase3	test/STIM_001.jpg	99
1826.624	0.681	680.9	test	Phase3	test/STIM_002.jpg	100
1830.851	0.786	785.8	test	Phase3	test/STIM_002.jpg	100
1834.464	0.675	674.6	test	Phase3	test/STIM_002.jpg	99
1837.728	0.642	642.2	test	Phase3	test/STIM_003.jpg	99
1840.74	0.678	677.9	test	Phase3	test/STIM_003.jpg	100
1843.779	0.814	814.1	test	Phase3	test/STIM_003.jpg	99
1847.518	0.63	629.5	test	Phase3	test/STIM_004.jpg	100
1850.43	1.02	1019.7	test	Phase3	test/STIM_004.jpg	100
1855.383	1.009	1008.7	test	Phase3	test/STIM_004.jpg	99
1859.012	0.592	591.9	test	Phase3	test/STIM_005.jpg	99
1862.84	0.804	804.3	test	Phase3	test/STIM_005.jpg	100
1866.569	0.818	818.1	test	Phase3	test/STIM_005.jpg	100
1870.838	0.7	700.0	test	Phase3	test/STIM_006.jpg	100
1874.603	1.15	1150.3	test	Phase3	test/STIM_006.jpg	99
1878.233	0.948	947.9	test	Phase3	test/STIM_006.jpg	100
1883.07	0.989	988.6	test	Phase3	test/STIM_007.jpg	100
1886.732	0.722	722.5	test	Phase3	test/STIM_007.jpg	99
1891.19	1.074	1074.1	test	Phase3	test/STIM_007.jpg	99
1895.52	0.575	575.4	test	Phase3	test/STIM_008.jpg	99
1899.196	0.835	834.8	test	Phase3	test/STIM_008.jpg	99
1902.415	0.662	662.1	test	Phase3	test/STIM_008.jpg	99
1905.403	0.809	808.7	test	Phase3	test/STIM_009.jpg	99
1908.801	0.708	708.0	test	Phase3	test/STIM_009.jpg	99
1913.208	0.976	975.5	test	Phase3	test/STIM_009.jpg	99
1916.873	1.159	1159.1	test	Phase3	test/STIM_010.jpg	99
1920.719	0.856	856.0	test	Phase3	test/STIM_010.jpg	100
1923.956	1.021	1020.9	test	Phase3	test/STIM_010.jpg	100
1928.373	0.974	974.5	test	Phase3	test/STIM_011.jpg	99
1931.57	1.143	1143.3	test	Phase3	test/STIM_011.jpg	99
1935.613	0.987	986.9	test	Phase3	test/STIM_011.jpg	99
1940.288	1.043	1042.8	test	Phase3	test/STIM_012.jpg	99
1944.153	0.771	771.2	test	Phase3	test/STIM_012.jpg	99
1947.64	0.658	657.9	test	Phase3	test/STIM_012.jpg	100
1952.143	1.082	1081.9	test	Phase3	test/STIM_013.jpg	100
1955.614	0.825	824.9	test	Phase3	test/STIM_013.jpg	99
1959.458	0.896	896.0	test	Phase3	test/STIM_013.jpg	99
1964.048	0.546	546.0	test	Phase3	test/STIM_014.jpg	100
1968.605	0.732	732.1	test	Phase3	test/STIM_014.jpg	100
1971.833	1.069	1068.6	test	Phase3	test/STIM_014.jpg	100
1975.338	1.041	1041.1	test	Phase3	test/STIM_015.jpg	100
1979.503	0.656	655.5	test	Phase3	test/STIM_015.jpg	99
1982.472	0.951	951.3	test	Phase3	test/STIM_015.jpg	100
1986.48	0.921	921.3	test	Phase3	test/STIM_016.jpg	99
1990.651	0.591	590.9	test	Phase3	test/STIM_016.jpg	100
1995.286	1.046	1046.3	test	Phase3	test/STIM_016.jpg	100
1999.985	0.535	535.1	test	Phase3	test/STIM_017.jpg	99
2002.586	0.821	821.4	test	Phase3	test/STIM_017.jpg	99
2006.586	0.732	731.7	test	Phase3	test/STIM_017.jpg	99
2010.919	1.041	1041.1	test	Phase3	test/STIM_018.jpg	99
2015.557	1.05	1049.5	test	Phase3	test/STIM_018.jpg	100
2019.702	0.926	926.4	test	Phase3	test/STIM_018.jpg	99
2022.962	1.156	1156.0	test	Phase3	test/STIM_019.jpg	99
2027.901	1.101	1100.7	test	Phase3	test/STIM_019.jpg	99
2032.714	0.704	704.2	test	Phase3	test/STIM_019.jpg	100
2035.83	1.119	1119.0	test	Phase3	test/STIM_020.jpg	100
2039.725	1.106	1106.5	test	Phase3	test/STIM_020.jpg	99
2044.394	0.843	843.4	test	Phase3	test/STIM_020.jpg	99
2047.647	1.14	1140.5	test	Phase3	test/STIM_021.jpg	99
2052.647	0.837	837.3	test	Phase3	test/STIM_021.jpg	100
2056.52	1.129	1128.8	test	Phase3	test/STIM_021.jpg	100
2059.865	0.898	897.9	test	Phase3	test/STIM_022.jpg	99
2063.527	1.124	1124.5	test	Phase3	test/STIM_022.jpg	99
2066.933	1.15	1150.3	test	Phase3	test/STIM_022.jpg	99
2070.39	0.667	666.6	test	Phase3	test/STIM_023.jpg	99
2074.899	0.748	748.1	test	Phase3	test/STIM_023.jpg	100
2078.167	0.642	642.2	test	Phase3	test/STIM_023.jpg	100
2082.592	1.103	1102.7	test	Phase3	test/STIM_024.jpg	99
2087.576	0.83	830.3	test	Phase3	test/STIM_024.jpg	99
2091.599	0.57	569.9	test	Phase3	test/STIM_024.jpg	100
2094.967	0.737	736.8	test	Phase3	test/STIM_025.jpg	99
2098.492	0.817	817.3	test	Phase3	test/STIM_025.jpg	100
2102.199	0.843	843.4	test	Phase3	test/STIM_025.jpg	100
2106.231	1.047	1046.6	test	Phase3	test/STIM_026.jpg	100
2110.497	0.979	979.3	test	Phase3	test/STIM_026.jpg	100
2115.215	0.926	925.6	test	Phase3	test/STIM_026.jpg	100
2119.893	0.641	641.3	test	Phase3	test/STIM_027.jpg	99
2124.088	0.978	977.8	test	Phase3	test/STIM_027.jpg	100
2127.677	1.152	1152.4	test	Phase3	test/STIM_027.jpg	100
2132.12	1.037	1037.0	test	Phase3	test/STIM_028.jpg	100
2137.004	0.913	913.4	test	Phase3	test/STIM_028.jpg	99
2141.089	1.089	1088.9	test	Phase3	test/STIM_028.jpg	100
2145.579	0.862	862.5	test	Phase3	test/STIM_029.jpg	100
2148.878	0.648	648.5	test	Phase3	test/STIM_029.jpg	99
2153.003	0.536	536.1	test	Phase3	test/STIM_029.jpg	99
