onset	duration	accuracy	trial_type	learning_stage	stimulus
0.0	1.191	correct	study	Phase1	study/STIM_000.jpg
3.645	0.943	correct	study	Phase1	study/STIM_000.jpg
7.604	1.023	correct	study	Phase1	study/STIM_000.jpg
12.298	0.77	correct	study	Phase1	study/STIM_001.jpg
16.523	0.842	correct	study	Phase1	study/STIM_001.jpg
19.388	0.887	correct	study	Phase1	study/STIM_001.jpg
24.237	1.32	incorrect	study	Phase1	study/STIM_002.jpg
27.814	0.907	correct	study	Phase1	study/STIM_002.jpg
32.079	1.112	correct	study	Phase1	study/STIM_002.jpg
36.139	1.556	correct	study	Phase1	study/STIM_003.jpg
41.553	1.607	correct	study	Phase1	study/STIM_003.jpg
46.428	1.183	correct	study	Phase1	study/STIM_003.jpg
49.969	0.956	correct	study	Phase1	study/STIM_004.jpg
53.859	0.938	correct	study	Phase1	study/STIM_004.jpg
58.715	1.29	incorrect	study	Phase1	study/STIM_004.jpg
63.504	0.933	correct	study	Phase1	study/STIM_005.jpg
67.572	0.831	correct	study	Phase1	study/STIM_005.jpg
71.517	1.388	correct	study	Phase1	study/STIM_005.jpg
76.32	1.062	correct	study	Phase1	study/STIM_006.jpg
80.006	1.522	correct	study	Phase1	study/STIM_006.jpg
85.445	1.261	correct	study	Phase1	study/STIM_006.jpg
90.503	1.338	correct	study	Phase1	study/STIM_007.jpg
94.839	1.279	correct	study	Phase1	study/STIM_007.jpg
99.871	0.934	correct	study	Phase1	study/STIM_007.jpg
103.576	1.189	correct	study	Phase1	study/STIM_008.jpg
107.532	1.258	correct	study	Phase1	study/STIM_008.jpg
111.135	1.413	incorrect	study	Phase1	study/STIM_008.jpg
116.035	1.675	correct	study	Phase1	study/STIM_009.jpg
120.945	1.009	correct	study	Phase1	study/STIM_009.jpg
124.074	1.231	incorrect	study	Phase1	study/STIM_009.jpg
128.693	1.042	correct	study	Phase1	study/STIM_010.jpg
133.329	0.826	correct	study	Phase1	study/STIM_010.jpg
138.096	1.452	incorrect	study	Phase1	study/STIM_010.jpg
142.442	1.0	correct	study	Phase1	study/STIM_011.jpg
147.023	1.492	correct	study	Phase1	study/STIM_011.jpg
150.697	0.76	correct	study	Phase1	study/STIM_011.jpg
155.261	0.939	correct	study	Phase1	study/STIM_012.jpg
159.199	0.967	correct	study	Phase1	study/STIM_012.jpg
163.071	0.824	correct	study	Phase1	study/STIM_012.jpg
167.237	0.893	correct	study	Phase1	study/STIM_013.jpg
171.825	0.836	correct	study	Phase1	study/STIM_013.jpg
176.616	0.74	correct	study	Phase1	study/STIM_013.jpg
181.252	0.857	incorrect	study	Phase1	study/STIM_014.jpg
185.058	0.876	correct	study	Phase1	study/STIM_014.jpg
189.789	1.462	correct	study	Phase1	study/STIM_014.jpg
195.139	1.455	correct	study	Phase1	study/STIM_015.jpg
198.948	0.791	correct	study	Phase1	study/STIM_015.jpg
203.717	1.088	correct	study	Phase1	study/STIM_015.jpg
207.88	1.633	correct	study	Phase1	study/STIM_016.jpg
213.436	1.29	correct	study	Phase1	study/STIM_016.jpg
216.853	0.96	correct	study	Phase1	study/STIM_016.jpg
220.821	0.889	correct	study	Phase1	study/STIM_017.jpg
224.237	1.619	incorrect	study	Phase1	study/STIM_017.jpg
228.204	1.139	correct	study	Phase1	study/STIM_017.jpg
231.564	1.654	correct	study	Phase1	study/STIM_018.jpg
235.562	0.877	correct	study	Phase1	study/STIM_018.jpg
239.941	1.061	incorrect	study	Phase1	study/STIM_018.jpg
243.659	1.222	correct	study	Phase1	study/STIM_019.jpg
247.812	1.096	correct	study	Phase1	study/STIM_019.jpg
252.601	1.046	incorrect	study	Phase1	study/STIM_019.jpg
256.035	1.444	correct	study	Phase1	study/STIM_020.jpg
260.837	0.81	correct	study	Phase1	study/STIM_020.jpg
264.867	1.189	correct	study	Phase1	study/STIM_020.jpg
269.388	0.788	correct	study	Phase1	study/STIM_021.jpg
272.705	1.613	correct	study	Phase1	study/STIM_021.jpg
276.457	1.552	correct	study	Phase1	study/STIM_021.jpg
281.137	1.112	correct	study	Phase1	study/STIM_022.jpg
285.141	0.979	correct	study	Phase1	study/STIM_022.jpg
289.997	0.841	correct	study	Phase1	study/STIM_022.jpg
294.648	1.51	correct	study	Phase1	study/STIM_023.jpg
299.721	0.761	correct	study	Phase1	study/STIM_023.jpg
304.344	1.516	correct	study	Phase1	study/STIM_023.jpg
308.761	1.371	correct	study	Phase1	study/STIM_024.jpg
313.067	1.318	correct	study	Phase1	study/STIM_024.jpg
317.487	0.81	incorrect	study	Phase1	study/STIM_024.jpg
321.448	1.441	correct	study	Phase1	study/STIM_025.jpg
325.291	1.357	correct	study	Phase1	study/STIM_025.jpg
330.292	0.928	correct	study	Phase1	study/STIM_025.jpg
333.599	1.009	correct	study	Phase1	study/STIM_026.jpg
338.276	0.999	correct	study	Phase1	study/STIM_026.jpg
342.513	0.991	correct	study	Phase1	study/STIM_026.jpg
346.685	0.858	incorrect	study	Phase1	study/STIM_027.jpg
350.708	0.858	correct	study	Phase1	study/STIM_027.jpg
355.002	1.127	correct	study	Phase1	study/STIM_027.jpg
358.437	0.799	incorrect	study	Phase1	study/STIM_028.jpg
362.255	1.142	correct	study	Phase1	study/STIM_028.jpg
366.152	1.501	correct	study	Phase1	study/STIM_028.jpg
370.765	1.417	correct	study	Phase1	study/STIM_029.jpg
375.49	0.847	correct	study	Phase1	study/STIM_029.jpg
378.338	0.984	correct	study	Phase1	study/STIM_029.jpg
382.147	0.755	correct	test	Phase1	test/STIM_000.jpg
386.888	1.022	correct	test	Phase1	test/STIM_000.jpg
390.284	0.58	correct	test	Phase1	test/STIM_000.jpg
394.504	0.736	correct	test	Phase1	test/STIM_001.jpg
399.141	0.936	correct	test	Phase1	test/STIM_001.jpg
402.176	1.032	correct	test	Phase1	test/STIM_001.jpg
405.267	0.756	incorrect	test	Phase1	test/STIM_002.jpg
408.343	0.713	correct	test	Phase1	test/STIM_002.jpg
411.175	1.218	correct	test	Phase1	test/STIM_002.jpg
415.479	0.6	correct	test	Phase1	test/STIM_003.jpg
418.568	1.041	correct	test	Phase1	test/STIM_003.jpg
422.78	0.89	correct	test	Phase1	test/STIM_003.jpg
427.344	0.964	correct	test	Phase1	test/STIM_004.jpg
430.605	1.022	correct	test	Phase1	test/STIM_004.jpg
434.674	0.871	correct	test	Phase1	test/STIM_004.jpg
439.105	0.886	correct	test	Phase1	test/STIM_005.jpg
442.998	0.717	correct	test	Phase1	test/STIM_005.jpg
447.01	0.643	correct	test	Phase1	test/STIM_005.jpg
450.443	0.977	incorrect	test	Phase1	test/STIM_006.jpg
454.328	1.008	incorrect	test	Phase1	test/STIM_006.jpg
457.41	0.615	correct	test	Phase1	test/STIM_006.jpg
460.708	1.214	correct	test	Phase1	test/STIM_007.jpg
465.607	0.67	correct	test	Phase1	test/STIM_007.jpg
470.154	1.221	correct	test	Phase1	test/STIM_007.jpg
474.813	0.62	correct	test	Phase1	test/STIM_008.jpg
478.093	1.055	correct	test	Phase1	test/STIM_008.jpg
481.281	0.893	incorrect	test	Phase1	test/STIM_008.jpg
485.717	0.925	incorrect	test	Phase1	test/STIM_009.jpg
488.751	0.724	correct	test	Phase1	test/STIM_009.jpg
492.173	0.602	correct	test	Phase1	test/STIM_009.jpg
496.605	1.179	correct	test	Phase1	test/STIM_010.jpg
501.226	0.63	incorrect	test	Phase1	test/STIM_010.jpg
504.417	0.915	correct	test	Phase1	test/STIM_010.jpg
509.299	1.103	correct	test	Phase1	test/STIM_011.jpg
514.199	1.044	correct	test	Phase1	test/STIM_011.jpg
517.924	1.119	correct	test	Phase1	test/STIM_011.jpg
522.54	0.902	correct	test	Phase1	test/STIM_012.jpg
525.447	0.649	correct	test	Phase1	test/STIM_012.jpg
529.515	0.596	correct	test	Phase1	test/STIM_012.jpg
532.613	0.955	incorrect	test	Phase1	test/STIM_013.jpg
536.876	0.677	correct	test	Phase1	test/STIM_013.jpg
540.644	1.084	correct	test	Phase1	test/STIM_013.jpg
544.487	0.738	correct	test	Phase1	test/STIM_014.jpg
548.099	0.898	correct	test	Phase1	test/STIM_014.jpg
552.036	0.973	correct	test	Phase1	test/STIM_014.jpg
556.677	0.81	correct	test	Phase1	test/STIM_015.jpg
559.83	0.821	correct	test	Phase1	test/STIM_015.jpg
564.32	1.17	correct	test	Phase1	test/STIM_015.jpg
569.114	0.586	correct	test	Phase1	test/STIM_016.jpg
573.32	0.894	correct	test	Phase1	test/STIM_016.jpg
577.914	0.806	incorrect	test	Phase1	test/STIM_016.jpg
582.484	0.871	correct	test	Phase1	test/STIM_017.jpg
586.425	1.094	correct	test	Phase1	test/STIM_017.jpg
590.355	0.88	correct	test	Phase1	test/STIM_017.jpg
594.069	1.139	correct	test	Phase1	test/STIM_018.jpg
598.408	1.008	correct	test	Phase1	test/STIM_018.jpg
602.63	0.698	correct	test	Phase1	test/STIM_018.jpg
607.032	0.823	correct	test	Phase1	test/STIM_019.jpg
611.654	0.807	correct	test	Phase1	test/STIM_019.jpg
616.352	1.25	correct	test	Phase1	test/STIM_019.jpg
620.822	0.87	correct	test	Phase1	test/STIM_020.jpg
625.131	0.834	incorrect	test	Phase1	test/STIM_020.jpg
629.218	0.6	correct	test	Phase1	test/STIM_020.jpg
633.447	0.966	correct	test	Phase1	test/STIM_021.jpg
637.42	0.82	correct	test	Phase1	test/STIM_021.jpg
640.874	0.906	correct	test	Phase1	test/STIM_021.jpg
643.826	0.64	correct	test	Phase1	test/STIM_022.jpg
647.296	0.601	incorrect	test	Phase1	test/STIM_022.jpg
650.021	1.192	correct	test	Phase1	test/STIM_022.jpg
653.973	1.105	correct	test	Phase1	test/STIM_023.jpg
658.768	0.953	incorrect	test	Phase1	test/STIM_023.jpg
662.371	0.636	correct	test	Phase1	test/STIM_023.jpg
665.129	0.704	correct	test	Phase1	test/STIM_024.jpg
668.0	1.053	correct	test	Phase1	test/STIM_024.jpg
672.754	1.198	correct	test	Phase1	test/STIM_024.jpg
677.221	0.976	correct	test	Phase1	test/STIM_025.jpg
680.875	1.003	correct	test	Phase1	test/STIM_025.jpg
683.888	0.935	incorrect	test	Phase1	test/STIM_025.jpg
687.287	1.122	incorrect	test	Phase1	test/STIM_026.jpg
691.704	1.231	correct	test	Phase1	test/STIM_026.jpg
696.395	0.752	correct	test	Phase1	test/STIM_026.jpg
700.239	0.959	correct	test	Phase1	test/STIM_027.jpg
704.669	1.027	correct	test	Phase1	test/STIM_027.jpg
708.055	1.16	correct	test	Phase1	test/STIM_027.jpg
711.519	0.723	correct	test	Phase1	test/STIM_028.jpg
716.044	0.918	incorrect	test	Phase1	test/STIM_028.jpg
720.658	0.859	correct	test	Phase1	test/STIM_028.jpg
723.786	1.094	correct	test	Phase1	test/STIM_029.jpg
728.525	0.598	correct	test	Phase1	test/STIM_029.jpg
732.279	1.128	incorrect	test	Phase1	test/STIM_029.jpg
737.271	0.739	correct	study	Phase2	study/STIM_000.jpg
741.865	0.93	correct	study	Phase2	study/STIM_000.jpg
746.604	1.04	correct	study	Phase2	study/STIM_000.jpg
751.123	1.167	correct	study	Phase2	study/STIM_001.jpg
755.408	1.14	correct	study	Phase2	study/STIM_001.jpg
759.551	1.224	correct	study	Phase2	study/STIM_001.jpg
764.208	0.935	correct	study	Phase2	study/STIM_002.jpg
768.788	1.187	correct	study	Phase2	study/STIM_002.jpg
773.181	0.857	correct	study	Phase2	study/STIM_002.jpg
777.591	1.227	correct	study	Phase2	study/STIM_003.jpg
781.84	1.076	incorrect	study	Phase2	study/STIM_003.jpg
784.972	1.207	correct	study	Phase2	study/STIM_003.jpg
789.224	1.035	correct	study	Phase2	study/STIM_004.jpg
793.584	1.191	correct	study	Phase2	study/STIM_004.jpg
798.332	1.108	correct	study	Phase2	study/STIM_004.jpg
802.145	1.141	correct	study	Phase2	study/STIM_005.jpg
806.594	0.818	correct	study	Phase2	study/STIM_005.jpg
809.479	0.745	correct	study	Phase2	study/STIM_005.jpg
813.492	1.016	correct	study	Phase2	study/STIM_006.jpg
817.638	0.665	correct	study	Phase2	study/STIM_006.jpg
821.075	0.924	correct	study	Phase2	study/STIM_006.jpg
825.506	1.041	correct	study	Phase2	study/STIM_007.jpg
829.952	1.003	correct	study	Phase2	study/STIM_007.jpg
833.877	1.013	correct	study	Phase2	study/STIM_007.jpg
837.146	1.449	correct	study	Phase2	study/STIM_008.jpg
842.57	1.246	incorrect	study	Phase2	study/STIM_008.jpg
847.653	0.745	correct	study	Phase2	study/STIM_008.jpg
851.245	0.77	correct	study	Phase2	study/STIM_009.jpg
854.665	0.844	correct	study	Phase2	study/STIM_009.jpg
858.356	1.293	incorrect	study	Phase2	study/STIM_009.jpg
862.712	1.244	correct	study	Phase2	study/STIM_010.jpg
866.247	1.09	correct	study	Phase2	study/STIM_010.jpg
870.008	0.765	correct	study	Phase2	study/STIM_010.jpg
874.677	1.227	correct	study	Phase2	study/STIM_011.jpg
878.088	0.697	correct	study	Phase2	study/STIM_011.jpg
882.586	1.134	correct	study	Phase2	study/STIM_011.jpg
886.239	0.767	correct	study	Phase2	study/STIM_012.jpg
889.381	0.796	correct	study	Phase2	study/STIM_012.jpg
893.736	1.073	correct	study	Phase2	study/STIM_012.jpg
897.183	1.339	correct	study	Phase2	study/STIM_013.jpg
901.631	1.238	correct	study	Phase2	study/STIM_013.jpg
905.221	0.834	correct	study	Phase2	study/STIM_013.jpg
908.935	0.881	correct	study	Phase2	study/STIM_014.jpg
913.315	1.045	correct	study	Phase2	study/STIM_014.jpg
917.375	1.13	correct	study	Phase2	study/STIM_014.jpg
920.877	1.105	correct	study	Phase2	study/STIM_015.jpg
925.161	0.702	correct	study	Phase2	study/STIM_015.jpg
927.987	1.182	correct	study	Phase2	study/STIM_015.jpg
932.956	1.428	correct	study	Phase2	study/STIM_016.jpg
937.26	0.953	correct	study	Phase2	study/STIM_016.jpg
940.355	1.253	correct	study	Phase2	study/STIM_016.jpg
943.654	0.809	correct	study	Phase2	study/STIM_017.jpg
946.909	0.9	correct	study	Phase2	study/STIM_017.jpg
949.947	1.065	correct	study	Phase2	study/STIM_017.jpg
953.355	0.736	incorrect	study	Phase2	study/STIM_018.jpg
957.195	1.338	correct	study	Phase2	study/STIM_018.jpg
961.435	1.278	correct	study	Phase2	study/STIM_018.jpg
966.365	0.787	correct	study	Phase2	study/STIM_019.jpg
970.118	0.695	correct	study	Phase2	study/STIM_019.jpg
974.153	0.912	correct	study	Phase2	study/STIM_019.jpg
977.168	0.86	correct	study	Phase2	study/STIM_020.jpg
981.175	0.617	correct	study	Phase2	study/STIM_020.jpg
984.058	0.673	correct	study	Phase2	study/STIM_020.jpg
988.668	1.086	correct	study	Phase2	study/STIM_021.jpg
992.568	1.297	correct	study	Phase2	study/STIM_021.jpg
997.72	0.738	correct	study	Phase2	study/STIM_021.jpg
1002.433	1.058	correct	study	Phase2	study/STIM_022.jpg
1006.177	0.719	correct	study	Phase2	study/STIM_022.jpg
1009.185	0.94	correct	study	Phase2	study/STIM_022.jpg
1013.446	1.207	correct	study	Phase2	study/STIM_023.jpg
1017.704	0.648	correct	study	Phase2	study/STIM_023.jpg
1021.798	1.145	correct	study	Phase2	study/STIM_023.jpg
1026.846	0.762	correct	study	Phase2	study/STIM_024.jpg
1030.001	0.692	correct	study	Phase2	study/STIM_024.jpg
1033.571	0.816	correct	study	Phase2	study/STIM_024.jpg
1036.804	1.448	correct	study	Phase2	study/STIM_025.jpg
1041.312	1.164	correct	study	Phase2	study/STIM_025.jpg
1045.034	0.789	correct	study	Phase2	study/STIM_025.jpg
1048.976	1.334	correct	study	Phase2	study/STIM_026.jpg
1053.479	1.194	correct	study	Phase2	study/STIM_026.jpg
1058.489	1.045	correct	study	Phase2	study/STIM_026.jpg
1063.413	0.691	correct	study	Phase2	study/STIM_027.jpg
1067.407	1.137	correct	study	Phase2	study/STIM_027.jpg
1071.119	0.748	correct	study	Phase2	study/STIM_027.jpg
1074.474	0.916	correct	study	Phase2	study/STIM_028.jpg
1078.733	1.182	correct	study	Phase2	study/STIM_028.jpg
1083.512	0.771	correct	study	Phase2	study/STIM_028.jpg
1087.197	1.157	correct	study	Phase2	study/STIM_029.jpg
1091.555	1.339	correct	study	Phase2	study/STIM_029.jpg
1096.716	1.107	correct	study	Phase2	study/STIM_029.jpg
1100.322	0.706	correct	test	Phase2	test/STIM_000.jpg
1103.919	0.762	correct	test	Phase2	test/STIM_000.jpg
1107.755	0.996	correct	test	Phase2	test/STIM_000.jpg
1112.082	1.044	correct	test	Phase2	test/STIM_001.jpg
1116.615	0.625	correct	test	Phase2	test/STIM_001.jpg
1120.493	1.215	correct	test	Phase2	test/STIM_001.jpg
1124.03	1.08	correct	test	Phase2	test/STIM_002.jpg
1129.057	0.672	correct	test	Phase2	test/STIM_002.jpg
1132.251	1.192	incorrect	test	Phase2	test/STIM_002.jpg
1136.356	0.608	correct	test	Phase2	test/STIM_003.jpg
1139.888	1.116	correct	test	Phase2	test/STIM_003.jpg
1144.5	0.693	correct	test	Phase2	test/STIM_003.jpg
1148.133	1.107	correct	test	Phase2	test/STIM_004.jpg
1152.97	0.763	correct	test	Phase2	test/STIM_004.jpg
1155.91	0.913	incorrect	test	Phase2	test/STIM_004.jpg
1159.708	0.947	correct	test	Phase2	test/STIM_005.jpg
1162.996	1.216	correct	test	Phase2	test/STIM_005.jpg
1167.457	0.875	correct	test	Phase2	test/STIM_005.jpg
1171.782	0.92	correct	test	Phase2	test/STIM_006.jpg
1175.368	1.12	correct	test	Phase2	test/STIM_006.jpg
1180.005	1.176	correct	test	Phase2	test/STIM_006.jpg
1183.887	0.653	correct	test	Phase2	test/STIM_007.jpg
1187.383	0.667	incorrect	test	Phase2	test/STIM_007.jpg
1190.94	0.829	correct	test	Phase2	test/STIM_007.jpg
1193.825	1.092	correct	test	Phase2	test/STIM_008.jpg
1198.676	0.769	correct	test	Phase2	test/STIM_008.jpg
1201.952	0.855	correct	test	Phase2	test/STIM_008.jpg
1205.554	1.16	correct	test	Phase2	test/STIM_009.jpg
1209.384	1.154	incorrect	test	Phase2	test/STIM_009.jpg
1213.948	1.0	correct	test	Phase2	test/STIM_009.jpg
1217.773	0.833	correct	test	Phase2	test/STIM_010.jpg
1221.082	1.248	correct	test	Phase2	test/STIM_010.jpg
1225.262	0.732	correct	test	Phase2	test/STIM_010.jpg
1229.72	0.818	incorrect	test	Phase2	test/STIM_011.jpg
1233.272	0.793	correct	test	Phase2	test/STIM_011.jpg
1237.865	1.047	correct	test	Phase2	test/STIM_011.jpg
1241.515	0.598	correct	test	Phase2	test/STIM_012.jpg
1245.526	0.764	correct	test	Phase2	test/STIM_012.jpg
1248.476	0.718	correct	test	Phase2	test/STIM_012.jpg
1252.209	0.623	correct	test	Phase2	test/STIM_013.jpg
1255.967	0.682	correct	test	Phase2	test/STIM_013.jpg
1259.765	0.748	correct	test	Phase2	test/STIM_013.jpg
1263.503	0.891	correct	test	Phase2	test/STIM_014.jpg
1268.012	0.847	correct	test	Phase2	test/STIM_014.jpg
1272.116	1.059	correct	test	Phase2	test/STIM_014.jpg
1276.216	0.916	correct	test	Phase2	test/STIM_015.jpg
1279.967	0.888	correct	test	Phase2	test/STIM_015.jpg
1284.186	0.578	correct	test	Phase2	test/STIM_015.jpg
1287.068	1.235	incorrect	test	Phase2	test/STIM_016.jpg
1291.267	0.624	correct	test	Phase2	test/STIM_016.jpg
1294.386	0.784	correct	test	Phase2	test/STIM_016.jpg
1297.186	1.245	correct	test	Phase2	test/STIM_017.jpg
1302.1	1.189	incorrect	test	Phase2	test/STIM_017.jpg
1306.145	1.177	correct	test	Phase2	test/STIM_017.jpg
1310.801	0.949	correct	test	Phase2	test/STIM_018.jpg
1313.957	1.164	correct	test	Phase2	test/STIM_018.jpg
1318.217	1.028	correct	test	Phase2	test/STIM_018.jpg
1321.616	0.726	incorrect	test	Phase2	test/STIM_019.jpg
1325.035	0.959	correct	test	Phase2	test/STIM_019.jpg
1328.503	0.951	correct	test	Phase2	test/STIM_019.jpg
1332.808	0.867	correct	test	Phase2	test/STIM_020.jpg
1336.322	0.794	correct	test	Phase2	test/STIM_020.jpg
1339.458	0.91	correct	test	Phase2	test/STIM_020.jpg
1342.649	1.176	correct	test	Phase2	test/STIM_021.jpg
1347.172	0.844	correct	test	Phase2	test/STIM_021.jpg
1351.869	0.594	correct	test	Phase2	test/STIM_021.jpg
1355.806	1.142	correct	test	Phase2	test/STIM_022.jpg
1360.909	1.089	correct	test	Phase2	test/STIM_022.jpg
1364.316	1.219	correct	test	Phase2	test/STIM_022.jpg
1368.29	0.868	correct	test	Phase2	test/STIM_023.jpg
1372.618	1.139	correct	test	Phase2	test/STIM_023.jpg
1377.691	0.842	correct	test	Phase2	test/STIM_023.jpg
1381.504	1.139	correct	test	Phase2	test/STIM_024.jpg
1385.092	0.962	correct	test	Phase2	test/STIM_024.jpg
1389.107	0.93	correct	test	Phase2	test/STIM_024.jpg
1393.895	0.839	correct	test	Phase2	test/STIM_025.jpg
1397.095	1.225	correct	test	Phase2	test/STIM_025.jpg
1401.807	0.836	incorrect	test	Phase2	test/STIM_025.jpg
1405.305	0.856	correct	test	Phase2	test/STIM_026.jpg
1410.1	1.245	correct	test	Phase2	test/STIM_026.jpg
1415.264	1.198	correct	test	Phase2	test/STIM_026.jpg
1419.935	0.907	correct	test	Phase2	test/STIM_027.jpg
1422.899	0.722	correct	test	Phase2	test/STIM_027.jpg
1425.848	0.586	correct	test	Phase2	test/STIM_027.jpg
1429.218	0.844	correct	test	Phase2	test/STIM_028.jpg
1433.742	1.128	correct	test	Phase2	test/STIM_028.jpg
1438.046	0.743	correct	test	Phase2	test/STIM_028.jpg
1441.454	1.101	correct	test	Phase2	test/STIM_029.jpg
1445.389	1.182	correct	test	Phase2	test/STIM_029.jpg
1449.332	0.792	incorrect	test	Phase2	test/STIM_029.jpg
1452.927	0.767	correct	study	Phase3	study/STIM_000.jpg
1456.751	0.98	correct	study	Phase3	study/STIM_000.jpg
1461.312	0.881	correct	study	Phase3	study/STIM_000.jpg
1464.719	0.823	correct	study	Phase3	study/STIM_001.jpg
1468.641	0.547	correct	study	Phase3	study/STIM_001.jpg
1472.668	0.728	correct	study	Phase3	study/STIM_001.jpg
1475.758	1.072	correct	study	Phase3	study/STIM_002.jpg
1479.619	0.54	correct	study	Phase3	study/STIM_002.jpg
1483.261	1.165	correct	study	Phase3	study/STIM_002.jpg
1487.95	0.645	correct	study	Phase3	study/STIM_003.jpg
1491.122	0.623	correct	study	Phase3	study/STIM_003.jpg
1494.754	0.938	correct	study	Phase3	study/STIM_003.jpg
1498.536	0.969	correct	study	Phase3	study/STIM_004.jpg
1502.324	1.094	correct	study	Phase3	study/STIM_004.jpg
1507.21	0.668	correct	study	Phase3	study/STIM_004.jpg
1511.717	0.686	correct	study	Phase3	study/STIM_005.jpg
1516.016	0.812	correct	study	Phase3	study/STIM_005.jpg
1519.009	0.841	correct	study	Phase3	study/STIM_005.jpg
1523.836	0.65	correct	study	Phase3	study/STIM_006.jpg
1526.77	0.919	correct	study	Phase3	study/STIM_006.jpg
1529.734	0.771	correct	study	Phase3	study/STIM_006.jpg
1533.592	0.875	correct	study	Phase3	study/STIM_007.jpg
1537.199	0.842	correct	study	Phase3	study/STIM_007.jpg
1541.836	1.151	correct	study	Phase3	study/STIM_007.jpg
1545.039	1.124	correct	study	Phase3	study/STIM_008.jpg
1548.509	0.952	correct	study	Phase3	study/STIM_008.jpg
1552.178	0.58	correct	study	Phase3	study/STIM_008.jpg
1556.138	0.604	correct	study	Phase3	study/STIM_009.jpg
1559.037	0.91	correct	study	Phase3	study/STIM_009.jpg
1563.662	1.137	correct	study	Phase3	study/STIM_009.jpg
1567.276	0.676	correct	study	Phase3	study/STIM_010.jpg
1571.211	1.12	correct	study	Phase3	study/STIM_010.jpg
1575.733	1.004	correct	study	Phase3	study/STIM_010.jpg
1580.368	0.829	correct	study	Phase3	study/STIM_011.jpg
1584.335	1.15	correct	study	Phase3	study/STIM_011.jpg
1587.726	1.078	correct	study	Phase3	study/STIM_011.jpg
1591.954	0.617	correct	study	Phase3	study/STIM_012.jpg
1594.877	1.142	correct	study	Phase3	study/STIM_012.jpg
1598.897	1.151	correct	study	Phase3	study/STIM_012.jpg
1603.804	0.616	correct	study	Phase3	study/STIM_013.jpg
1606.705	0.643	correct	study	Phase3	study/STIM_013.jpg
1610.244	0.711	correct	study	Phase3	study/STIM_013.jpg
1614.678	0.819	correct	study	Phase3	study/STIM_014.jpg
1618.05	0.999	correct	study	Phase3	study/STIM_014.jpg
1622.876	0.553	correct	study	Phase3	study/STIM_014.jpg
1626.608	0.737	correct	study	Phase3	study/STIM_015.jpg
1631.2	0.604	correct	study	Phase3	study/STIM_015.jpg
1635.412	0.62	correct	study	Phase3	study/STIM_015.jpg
1639.696	0.678	correct	study	Phase3	study/STIM_016.jpg
1642.505	1.03	correct	study	Phase3	study/STIM_016.jpg
1646.534	0.606	correct	study	Phase3	study/STIM_016.jpg
1650.488	0.817	correct	study	Phase3	study/STIM_017.jpg
1654.879	1.069	correct	study	Phase3	study/STIM_017.jpg
1659.642	0.905	correct	study	Phase3	study/STIM_017.jpg
1663.673	0.699	correct	study	Phase3	study/STIM_018.jpg
1667.384	0.959	correct	study	Phase3	study/STIM_018.jpg
1671.956	0.933	correct	study	Phase3	study/STIM_018.jpg
1675.229	0.75	correct	study	Phase3	study/STIM_019.jpg
1678.977	0.573	correct	study	Phase3	study/STIM_019.jpg
1682.049	1.048	correct	study	Phase3	study/STIM_019.jpg
1685.771	1.167	correct	study	Phase3	study/STIM_020.jpg
1690.688	0.762	correct	study	Phase3	study/STIM_020.jpg
1695.251	0.828	correct	study	Phase3	study/STIM_020.jpg
1699.457	0.855	correct	study	Phase3	study/STIM_021.jpg
1703.447	0.754	correct	study	Phase3	study/STIM_021.jpg
1706.376	0.871	correct	study	Phase3	study/STIM_021.jpg
1710.051	0.994	correct	study	Phase3	study/STIM_022.jpg
1713.114	1.129	correct	study	Phase3	study/STIM_022.jpg
1718.081	1.017	correct	study	Phase3	study/STIM_022.jpg
1721.744	0.64	correct	study	Phase3	study/STIM_023.jpg
1725.089	0.723	correct	study	Phase3	study/STIM_023.jpg
1728.102	0.939	correct	study	Phase3	study/STIM_023.jpg
1732.418	0.883	correct	study	Phase3	study/STIM_024.jpg
1735.938	1.051	correct	study	Phase3	study/STIM_024.jpg
1739.937	1.134	correct	study	Phase3	study/STIM_024.jpg
1743.451	0.574	correct	study	Phase3	study/STIM_025.jpg
1746.685	1.107	correct	study	Phase3	study/STIM_025.jpg
1751.03	0.624	correct	study	Phase3	study/STIM_025.jpg
1755.105	0.675	correct	study	Phase3	study/STIM_026.jpg
1759.581	1.126	correct	study	Phase3	study/STIM_026.jpg
1764.469	0.736	correct	study	Phase3	study/STIM_026.jpg
1768.265	0.816	correct	study	Phase3	study/STIM_027.jpg
1772.751	1.008	correct	study	Phase3	study/STIM_027.jpg
1777.597	1.007	correct	study	Phase3	study/STIM_027.jpg
1782.064	0.562	correct	study	Phase3	study/STIM_028.jpg
1786.475	0.927	correct	study	Phase3	study/STIM_028.jpg
1791.379	1.084	correct	study	Phase3	study/STIM_028.jpg
1794.607	1.19	correct	study	Phase3	study/STIM_029.jpg
1799.15	1.202	correct	study	Phase3	study/STIM_029.jpg
1804.204	0.823	correct	study	Phase3	study/STIM_029.jpg
1807.191	0.983	correct	test	Phase3	test/STIM_000.jpg
1811.465	0.986	correct	test	Phase3	test/STIM_000.jpg
1815.476	0.722	correct	test	Phase3	test/STIM_000.jpg
1819.973	0.589	correct	test	Phase3	test/STIM_001.jpg
1824.508	0.757	correct	test	Phase3	test/STIM_001.jpg
1828.395	1.148	correct	test	Phase3	test/STIM_001.jpg
1831.997	1.023	correct	test	Phase3	test/STIM_002.jpg
1836.804	1.175	correct	test	Phase3	test/STIM_002.jpg
1840.81	0.922	correct	test	Phase3	test/STIM_002.jpg
1844.816	0.579	correct	test	Phase3	test/STIM_003.jpg
1849.06	1.109	correct	test	Phase3	test/STIM_003.jpg
1852.198	1.151	correct	test	Phase3	test/STIM_003.jpg
1856.163	1.214	correct	test	Phase3	test/STIM_004.jpg
1860.158	1.116	correct	test	Phase3	test/STIM_004.jpg
1864.134	0.591	correct	test	Phase3	test/STIM_004.jpg
1868.34	1.093	incorrect	test	Phase3	test/STIM_005.jpg
1871.528	1.229	correct	test	Phase3	test/STIM_005.jpg
1874.993	0.606	incorrect	test	Phase3	test/STIM_005.jpg
1877.832	1.13	correct	test	Phase3	test/STIM_006.jpg
1882.205	0.843	correct	test	Phase3	test/STIM_006.jpg
1885.605	1.183	correct	test	Phase3	test/STIM_006.jpg
1889.718	0.764	correct	test	Phase3	test/STIM_007.jpg
1893.875	0.854	correct	test	Phase3	test/STIM_007.jpg
1898.704	0.791	correct	test	Phase3	test/STIM_007.jpg
1902.138	0.638	correct	test	Phase3	test/STIM_008.jpg
1906.276	0.991	correct	test	Phase3	test/STIM_008.jpg
1910.934	0.626	correct	test	Phase3	test/STIM_008.jpg
1913.734	0.676	correct	test	Phase3	test/STIM_009.jpg
1916.573	1.006	correct	test	Phase3	test/STIM_009.jpg
1920.495	1.008	correct	test	Phase3	test/STIM_009.jpg
1924.998	1.243	correct	test	Phase3	test/STIM_010.jpg
1929.459	1.232	incorrect	test	Phase3	test/STIM_010.jpg
1933.251	0.686	correct	test	Phase3	test/STIM_010.jpg
1936.291	0.789	correct	test	Phase3	test/STIM_011.jpg
1939.188	0.778	correct	test	Phase3	test/STIM_011.jpg
1942.826	1.25	correct	test	Phase3	test/STIM_011.jpg
1946.442	1.06	correct	test	Phase3	test/STIM_012.jpg
1950.543	1.076	correct	test	Phase3	test/STIM_012.jpg
1954.817	0.889	correct	test	Phase3	test/STIM_012.jpg
1958.0	0.774	correct	test	Phase3	test/STIM_013.jpg
1962.577	1.158	correct	test	Phase3	test/STIM_013.jpg
1967.523	0.685	correct	test	Phase3	test/STIM_013.jpg
1970.758	1.018	correct	test	Phase3	test/STIM_014.jpg
1973.931	0.773	correct	test	Phase3	test/STIM_014.jpg
1977.904	1.175	correct	test	Phase3	test/STIM_014.jpg
1981.488	1.105	correct	test	Phase3	test/STIM_015.jpg
1985.894	0.892	correct	test	Phase3	test/STIM_015.jpg
1989.699	0.68	correct	test	Phase3	test/STIM_015.jpg
1993.173	1.056	correct	test	Phase3	test/STIM_016.jpg
1997.293	0.873	correct	test	Phase3	test/STIM_016.jpg
2002.086	0.772	incorrect	test	Phase3	test/STIM_016.jpg
2006.548	0.753	correct	test	Phase3	test/STIM_017.jpg
2011.065	1.226	correct	test	Phase3	test/STIM_017.jpg
2015.58	0.932	correct	test	Phase3	test/STIM_017.jpg
2020.444	0.836	correct	test	Phase3	test/STIM_018.jpg
2025.226	0.919	correct	test	Phase3	test/STIM_018.jpg
2029.907	0.648	correct	test	Phase3	test/STIM_018.jpg
2034.073	1.17	incorrect	test	Phase3	test/STIM_019.jpg
2038.6	1.122	correct	test	Phase3	test/STIM_019.jpg
2042.234	1.036	correct	test	Phase3	test/STIM_019.jpg
2047.128	1.057	correct	test	Phase3	test/STIM_020.jpg
2050.627	0.823	incorrect	test	Phase3	test/STIM_020.jpg
2053.921	0.727	incorrect	test	Phase3	test/STIM_020.jpg
2057.706	0.765	correct	test	Phase3	test/STIM_021.jpg
2061.309	1.006	correct	test	Phase3	test/STIM_021.jpg
2065.906	1.126	correct	test	Phase3	test/STIM_021.jpg
2070.726	1.179	correct	test	Phase3	test/STIM_022.jpg
2074.893	0.686	correct	test	Phase3	test/STIM_022.jpg
2079.263	0.969	correct	test	Phase3	test/STIM_022.jpg
2084.059	0.937	correct	test	Phase3	test/STIM_023.jpg
2088.806	0.944	correct	test	Phase3	test/STIM_023.jpg
2093.412	0.793	correct	test	Phase3	test/STIM_023.jpg
2097.884	1.072	incorrect	test	Phase3	test/STIM_024.jpg
2101.289	0.807	correct	test	Phase3	test/STIM_024.jpg
2105.829	1.093	correct	test	Phase3	test/STIM_024.jpg
2109.328	0.746	correct	test	Phase3	test/STIM_025.jpg
2113.052	0.634	correct	test	Phase3	test/STIM_025.jpg
2116.384	1.003	correct	test	Phase3	test/STIM_025.jpg
2120.743	0.929	correct	test	Phase3	test/STIM_026.jpg
2125.187	0.906	incorrect	test	Phase3	test/STIM_026.jpg
2129.173	0.808	correct	test	Phase3	test/STIM_026.jpg
2133.017	1.013	correct	test	Phase3	test/STIM_027.jpg
2136.564	1.205	correct	test	Phase3	test/STIM_027.jpg
2140.451	0.912	correct	test	Phase3	test/STIM_027.jpg
2144.098	1.25	correct	test	Phase3	test/STIM_028.jpg
2148.386	0.863	correct	test	Phase3	test/STIM_028.jpg
2152.694	1.012	correct	test	Phase3	test/STIM_028.jpg
2155.943	0.909	correct	test	Phase3	test/STIM_029.jpg
2158.992	1.183	correct	test	Phase3	test/STIM_029.jpg
2162.586	0.855	correct	test	Phase3	test/STIM_029.jpg
