onset	duration	response_time_ms	trial_type	learning_stage	stimulus	response_port
0.0	1.219	1219.1	study	Phase1	study/STIM_000.jpg	99
4.238	1.46	1460.2	study	Phase1	study/STIM_000.jpg	100
8.603	1.574	1574.1	study	Phase1	study/STIM_000.jpg	99
12.251	1.783	1782.8	study	Phase1	study/STIM_001.jpg	100
16.767	0.994	993.6	study	Phase1	study/STIM_001.jpg	99
19.918	1.169	1168.9	study	Phase1	study/STIM_001.jpg	100
24.282	0.878	877.9	study	Phase1	study/STIM_002.jpg	100
28.507	1.298	1297.8	study	Phase1	study/STIM_002.jpg	99
32.007	1.063	1063.4	study	Phase1	study/STIM_002.jpg	100
36.355	0.85	850.4	study	Phase1	study/STIM_003.jpg	100
40.631	1.255	1254.8	study	Phase1	study/STIM_003.jpg	100
45.57	1.514	1513.6	study	Phase1	study/STIM_003.jpg	100
49.828	1.812	1811.5	study	Phase1	study/STIM_004.jpg	99
54.462	1.276	1275.8	study	Phase1	study/STIM_004.jpg	100
58.988	0.927	926.7	study	Phase1	study/STIM_004.jpg	100
63.018	1.809	1808.7	study	Phase1	study/STIM_005.jpg	99
68.087	1.222	1222.5	study	Phase1	study/STIM_005.jpg	99
72.797	0.981	981.1	study	Phase1	study/STIM_005.jpg	99
77.184	1.402	1402.4	study	Phase1	study/STIM_006.jpg	99
81.555	1.27	1270.0	study	Phase1	study/STIM_006.jpg	100
84.83	1.325	1324.6	study	Phase1	study/STIM_006.jpg	100
89.646	1.793	1792.8	study	Phase1	study/STIM_007.jpg	99
94.124	0.91	909.8	study	Phase1	study/STIM_007.jpg	100
97.17	1.531	1531.0	study	Phase1	study/STIM_007.jpg	100
101.536	1.125	1124.6	study	Phase1	study/STIM_008.jpg	100
106.363	1.691	1691.3	study	Phase1	study/STIM_008.jpg	99
111.298	1.011	1011.2	study	Phase1	study/STIM_008.jpg	99
114.351	1.462	1461.6	study	Phase1	study/STIM_009.jpg	99
117.838	0.912	912.3	study	Phase1	study/STIM_009.jpg	99
122.088	0.958	957.7	study	Phase1	study/STIM_009.jpg	99
125.623	1.201	1200.6	study	Phase1	study/STIM_010.jpg	99
129.331	0.881	881.4	study	Phase1	study/STIM_010.jpg	100
133.932	1.422	1421.7	study	Phase1	study/STIM_010.jpg	99
137.563	1.333	1332.6	study	Phase1	study/STIM_011.jpg	100
142.338	1.785	1784.9	study	Phase1	study/STIM_011.jpg	100
146.194	1.067	1066.6	study	Phase1	study/STIM_011.jpg	100
149.341	0.933	933.4	study	Phase1	study/STIM_012.jpg	100
152.883	1.21	1210.4	study	Phase1	study/STIM_012.jpg	99
157.636	0.899	899.2	study	Phase1	study/STIM_012.jpg	100
161.788	1.456	1455.9	study	Phase1	study/STIM_013.jpg	100
166.949	1.138	1138.4	study	Phase1	study/STIM_013.jpg	100
170.928	1.072	1072.4	study	Phase1	study/STIM_013.jpg	100
174.778	1.124	1124.4	study	Phase1	study/STIM_014.jpg	99
178.519	1.511	1510.9	study	Phase1	study/STIM_014.jpg	99
182.9	0.99	989.5	study	Phase1	study/STIM_014.jpg	100
187.364	0.873	872.7	study	Phase1	study/STIM_015.jpg	100
192.081	1.703	1702.8	study	Phase1	study/STIM_015.jpg	99
196.771	1.54	1540.2	study	Phase1	study/STIM_015.jpg	100
201.618	1.354	1354.2	study	Phase1	study/STIM_016.jpg	99
205.033	1.404	1404.2	study	Phase1	study/STIM_016.jpg	99
210.119	1.411	1410.7	study	Phase1	study/STIM_016.jpg	99
215.304	1.282	1282.3	study	Phase1	study/STIM_017.jpg	99
219.847	1.688	1687.6	study	Phase1	study/STIM_017.jpg	100
224.65	0.874	874.0	study	Phase1	study/STIM_017.jpg	99
228.883	1.573	1572.7	study	Phase1	study/STIM_018.jpg	99
234.175	0.888	888.1	study	Phase1	study/STIM_018.jpg	99
238.792	1.245	1244.9	study	Phase1	study/STIM_018.jpg	99
243.513	1.798	1798.3	study	Phase1	study/STIM_019.jpg	99
248.895	1.091	1091.4	study	Phase1	study/STIM_019.jpg	99
253.715	1.352	1351.5	study	Phase1	study/STIM_019.jpg	100
258.115	1.577	1577.0	study	Phase1	study/STIM_020.jpg	99
263.001	0.849	849.1	study	Phase1	study/STIM_020.jpg	100
267.199	0.907	906.8	study	Phase1	study/STIM_020.jpg	100
271.864	1.565	1564.7	study	Phase1	study/STIM_021.jpg	99
275.85	1.151	1150.8	study	Phase1	study/STIM_021.jpg	99
279.311	1.224	1224.3	study	Phase1	study/STIM_021.jpg	99
283.489	0.961	961.1	study	Phase1	study/STIM_022.jpg	99
288.378	1.794	1794.1	study	Phase1	study/STIM_022.jpg	99
293.751	1.391	1390.6	study	Phase1	study/STIM_022.jpg	100
297.734	1.182	1181.9	study	Phase1	study/STIM_023.jpg	100
302.076	1.738	1737.7	study	Phase1	study/STIM_023.jpg	99
307.528	1.615	1615.4	study	Phase1	study/STIM_023.jpg	99
311.809	1.077	1077.3	study	Phase1	study/STIM_024.jpg	99
316.265	1.196	1196.4	study	Phase1	study/STIM_024.jpg	99
321.383	1.308	1308.0	study	Phase1	study/STIM_024.jpg	99
326.377	0.875	874.8	study	Phase1	study/STIM_025.jpg	99
330.943	1.545	1544.7	study	Phase1	study/STIM_025.jpg	100
336.265	1.1	1099.9	study	Phase1	study/STIM_025.jpg	99
340.634	1.045	1044.7	study	Phase1	study/STIM_026.jpg	99
345.51	0.992	991.5	study	Phase1	study/STIM_026.jpg	100
349.461	0.852	852.2	study	Phase1	study/STIM_026.jpg	100
352.514	1.503	1503.4	study	Phase1	study/STIM_027.jpg	100
357.626	1.401	1401.3	study	Phase1	study/STIM_027.jpg	100
362.995	0.827	827.4	study	Phase1	study/STIM_027.jpg	99
367.801	1.582	1582.4	study	Phase1	study/STIM_028.jpg	100
371.448	0.828	828.1	study	Phase1	study/STIM_028.jpg	100
376.259	1.7	1699.8	study	Phase1	study/STIM_028.jpg	100
380.541	1.004	1004.0	study	Phase1	study/STIM_029.jpg	99
384.285	1.561	1561.1	study	Phase1	study/STIM_029.jpg	100
389.34	1.382	1381.7	study	Phase1	study/STIM_029.jpg	100
394.199	0.99	990.2	test	Phase1	test/STIM_000.jpg	99
397.754	1.142	1141.5	test	Phase1	test/STIM_000.jpg	99
402.058	1.315	1314.7	test	Phase1	test/STIM_000.jpg	100
406.962	1.271	1271.0	test	Phase1	test/STIM_001.jpg	100
412.101	1.075	1075.1	test	Phase1	test/STIM_001.jpg	99
415.607	1.05	1049.7	test	Phase1	test/STIM_001.jpg	100
418.802	1.086	1085.8	test	Phase1	test/STIM_002.jpg	100
422.118	0.724	723.5	test	Phase1	test/STIM_002.jpg	100
425.39	0.784	784.1	test	Phase1	test/STIM_002.jpg	99
428.435	1.091	1090.6	test	Phase1	test/STIM_003.jpg	100
432.932	1.032	1032.3	test	Phase1	test/STIM_003.jpg	99
437.725	1.348	1348.2	test	Phase1	test/STIM_003.jpg	100
442.829	1.204	1203.6	test	Phase1	test/STIM_004.jpg	100
446.246	1.144	1143.9	test	Phase1	test/STIM_004.jpg	100
449.977	1.008	1008.5	test	Phase1	test/STIM_004.jpg	100
454.838	1.078	1077.5	test	Phase1	test/STIM_005.jpg	100
458.536	1.147	1147.4	test	Phase1	test/STIM_005.jpg	100
463.397	0.928	928.4	test	Phase1	test/STIM_005.jpg	99
467.19	1.239	1239.4	test	Phase1	test/STIM_006.jpg	99
471.084	0.99	989.7	test	Phase1	test/STIM_006.jpg	100
475.865	1.004	1003.6	test	Phase1	test/STIM_006.jpg	99
479.606	1.046	1045.7	test	Phase1	test/STIM_007.jpg	99
483.024	0.664	664.3	test	Phase1	test/STIM_007.jpg	99
487.674	1.32	1319.7	test	Phase1	test/STIM_007.jpg	99
492.677	0.827	826.8	test	Phase1	test/STIM_008.jpg	99
495.625	1.162	1162.2	test	Phase1	test/STIM_008.jpg	100
500.509	1.034	1033.8	test	Phase1	test/STIM_008.jpg	100
505.43	0.797	797.3	test	Phase1	test/STIM_009.jpg	99
508.767	1.288	1288.3	test	Phase1	test/STIM_009.jpg	99
512.412	1.172	1172.2	test	Phase1	test/STIM_009.jpg	100
515.9	1.05	1049.5	test	Phase1	test/STIM_010.jpg	100
519.487	1.262	1261.7	test	Phase1	test/STIM_010.jpg	99
523.907	1.117	1117.1	test	Phase1	test/STIM_010.jpg	100
527.758	0.832	832.5	test	Phase1	test/STIM_011.jpg	100
531.37	0.9	900.5	test	Phase1	test/STIM_011.jpg	100
535.467	1.315	1315.2	test	Phase1	test/STIM_011.jpg	100
538.901	1.034	1034.0	test	Phase1	test/STIM_012.jpg	100
543.511	1.013	1012.7	test	Phase1	test/STIM_012.jpg	100
547.248	0.915	915.4	test	Phase1	test/STIM_012.jpg	99
550.196	0.699	698.9	test	Phase1	test/STIM_013.jpg	99
553.195	1.215	1215.4	test	Phase1	test/STIM_013.jpg	100
556.606	0.812	811.5	test	Phase1	test/STIM_013.jpg	99
559.488	0.742	742.0	test	Phase1	test/STIM_014.jpg	99
562.851	1.231	1231.4	test	Phase1	test/STIM_014.jpg	99
566.469	0.729	728.9	test	Phase1	test/STIM_014.jpg	100
570.808	1.353	1352.8	test	Phase1	test/STIM_015.jpg	100
574.988	1.182	1182.1	test	Phase1	test/STIM_015.jpg	99
578.294	1.142	1142.4	test	Phase1	test/STIM_015.jpg	100
581.586	1.0	1000.2	test	Phase1	test/STIM_016.jpg	100
586.06	1.188	1187.5	test	Phase1	test/STIM_016.jpg	99
590.003	0.647	646.7	test	Phase1	test/STIM_016.jpg	100
593.585	1.152	1152.4	test	Phase1	test/STIM_017.jpg	99
597.81	1.026	1026.3	test	Phase1	test/STIM_017.jpg	100
602.082	0.963	963.1	test	Phase1	test/STIM_017.jpg	99
606.426	0.72	719.6	test	Phase1	test/STIM_018.jpg	99
610.551	0.701	701.4	test	Phase1	test/STIM_018.jpg	99
613.696	1.01	1010.5	test	Phase1	test/STIM_018.jpg	100
617.85	0.952	951.8	test	Phase1	test/STIM_019.jpg	100
621.068	1.067	1066.7	test	Phase1	test/STIM_019.jpg	99
624.863	1.323	1322.7	test	Phase1	test/STIM_019.jpg	99
629.26	1.059	1059.3	test	Phase1	test/STIM_020.jpg	100
633.274	0.887	887.2	test	Phase1	test/STIM_020.jpg	99
637.063	1.029	1029.4	test	Phase1	test/STIM_020.jpg	100
640.228	1.217	1217.2	test	Phase1	test/STIM_021.jpg	100
644.759	1.21	1210.3	test	Phase1	test/STIM_021.jpg	99
648.754	1.24	1239.6	test	Phase1	test/STIM_021.jpg	100
653.314	0.713	713.1	test	Phase1	test/STIM_022.jpg	100
656.219	0.874	874.1	test	Phase1	test/STIM_022.jpg	100
660.354	0.872	872.0	test	Phase1	test/STIM_022.jpg	100
663.318	0.798	797.8	test	Phase1	test/STIM_023.jpg	100
666.881	0.734	734.1	test	Phase1	test/STIM_023.jpg	100
670.184	1.172	1172.5	test	Phase1	test/STIM_023.jpg	100
675.112	0.925	924.9	test	Phase1	test/STIM_024.jpg	100
678.72	0.643	643.2	test	Phase1	test/STIM_024.jpg	99
682.413	0.726	725.8	test	Phase1	test/STIM_024.jpg	100
686.706	0.664	664.1	test	Phase1	test/STIM_025.jpg	100
690.431	1.148	1148.5	test	Phase1	test/STIM_025.jpg	100
694.751	0.639	639.1	test	Phase1	test/STIM_025.jpg	100
698.389	1.314	1313.8	test	Phase1	test/STIM_026.jpg	100
702.042	1.134	1134.0	test	Phase1	test/STIM_026.jpg	99
706.422	1.378	1377.8	test	Phase1	test/STIM_026.jpg	99
710.508	1.011	1011.2	test	Phase1	test/STIM_027.jpg	99
713.703	0.973	972.8	test	Phase1	test/STIM_027.jpg	100
717.266	1.375	1375.4	test	Phase1	test/STIM_027.jpg	99
721.419	1.253	1252.7	test	Phase1	test/STIM_028.jpg	99
726.417	0.835	834.7	test	Phase1	test/STIM_028.jpg	99
729.746	1.037	1036.8	test	Phase1	test/STIM_028.jpg	99
733.077	1.376	1375.7	test	Phase1	test/STIM_029.jpg	100
737.723	1.299	1299.1	test	Phase1	test/STIM_029.jpg	99
742.375	1.022	1022.1	test	Phase1	test/STIM_029.jpg	99
746.532	0.836	836.1	study	Phase2	study/STIM_000.jpg	100
750.26	1.473	1473.4	study	Phase2	study/STIM_000.jpg	99
755.484	1.24	1239.8	study	Phase2	study/STIM_000.jpg	99
760.161	0.898	897.9	study	Phase2	study/STIM_001.jpg	100
764.671	1.199	1198.8	study	Phase2	study/STIM_001.jpg	99
768.38	1.234	1233.6	study	Phase2	study/STIM_001.jpg	100
772.704	1.113	1112.8	study	Phase2	study/STIM_002.jpg	100
776.088	0.986	986.0	study	Phase2	study/STIM_002.jpg	99
780.191	1.074	1073.8	study	Phase2	study/STIM_002.jpg	100
785.152	1.565	1564.8	study	Phase2	study/STIM_003.jpg	99
789.421	1.15	1150.4	study	Phase2	study/STIM_003.jpg	99
793.177	0.821	820.6	study	Phase2	study/STIM_003.jpg	99
797.275	1.068	1068.4	study	Phase2	study/STIM_004.jpg	100
802.118	1.421	1421.4	study	Phase2	study/STIM_004.jpg	99
806.321	0.682	682.2	study	Phase2	study/STIM_004.jpg	99
809.556	0.92	920.1	study	Phase2	study/STIM_005.jpg	99
814.449	1.373	1372.7	study	Phase2	study/STIM_005.jpg	100
818.998	1.25	1249.6	study	Phase2	study/STIM_005.jpg	100
823.451	0.861	861.2	study	Phase2	study/STIM_006.jpg	100
827.48	0.962	962.4	study	Phase2	study/STIM_006.jpg	99
831.665	1.175	1175.3	study	Phase2	study/STIM_006.jpg	99
835.838	1.111	1110.7	study	Phase2	study/STIM_007.jpg	100
839.714	1.508	1508.4	study	Phase2	study/STIM_007.jpg	99
844.542	1.369	1368.6	study	Phase2	study/STIM_007.jpg	99
848.307	1.453	1452.9	study	Phase2	study/STIM_008.jpg	99
852.674	0.764	764.3	study	Phase2	study/STIM_008.jpg	99
856.375	1.137	1137.2	study	Phase2	study/STIM_008.jpg	100
860.751	0.987	987.0	study	Phase2	study/STIM_009.jpg	100
864.841	1.095	1095.2	study	Phase2	study/STIM_009.jpg	100
868.504	1.057	1057.1	study	Phase2	study/STIM_009.jpg	99
871.811	1.041	1041.3	study	Phase2	study/STIM_010.jpg	99
875.326	1.098	1098.1	study	Phase2	study/STIM_010.jpg	100
879.766	1.216	1216.5	study	Phase2	study/STIM_010.jpg	100
883.769	1.359	1359.2	study	Phase2	study/STIM_011.jpg	99
887.728	1.501	1501.3	study	Phase2	study/STIM_011.jpg	100
891.809	1.174	1174.1	study	Phase2	study/STIM_011.jpg	99
895.846	1.501	1500.9	study	Phase2	study/STIM_012.jpg	100
900.664	0.867	866.8	study	Phase2	study/STIM_012.jpg	100
904.398	1.221	1220.8	study	Phase2	study/STIM_012.jpg	100
907.791	0.999	999.3	study	Phase2	study/STIM_013.jpg	100
912.263	1.311	1310.6	study	Phase2	study/STIM_013.jpg	99
915.808	0.87	869.9	study	Phase2	study/STIM_013.jpg	100
920.24	0.884	884.1	study	Phase2	study/STIM_014.jpg	100
924.465	1.498	1498.4	study	Phase2	study/STIM_014.jpg	99
929.87	1.208	1208.5	study	Phase2	study/STIM_014.jpg	99
934.597	1.5	1499.9	study	Phase2	study/STIM_015.jpg	100
938.988	1.033	1032.9	study	Phase2	study/STIM_015.jpg	99
943.34	1.254	1254.0	study	Phase2	study/STIM_015.jpg	99
947.507	1.05	1049.5	study	Phase2	study/STIM_016.jpg	99
951.02	0.868	867.7	study	Phase2	study/STIM_016.jpg	100
954.247	0.955	954.7	study	Phase2	study/STIM_016.jpg	99
957.539	1.245	1244.7	study	Phase2	study/STIM_017.jpg	99
961.709	0.846	845.5	study	Phase2	study/STIM_017.jpg	99
965.183	0.91	909.6	study	Phase2	study/STIM_017.jpg	99
968.962	1.14	1139.9	study	Phase2	study/STIM_018.jpg	99
974.037	1.447	1447.4	study	Phase2	study/STIM_018.jpg	99
977.562	1.124	1124.1	study	Phase2	study/STIM_018.jpg	99
982.107	1.074	1073.6	study	Phase2	study/STIM_019.jpg	100
987.066	1.033	1033.4	study	Phase2	study/STIM_019.jpg	100
991.279	0.794	793.7	study	Phase2	study/STIM_019.jpg	99
994.939	0.872	872.2	study	Phase2	study/STIM_020.jpg	99
998.249	0.801	801.1	study	Phase2	study/STIM_020.jpg	99
1002.394	1.09	1090.2	study	Phase2	study/STIM_020.jpg	99
1005.715	1.151	1151.1	study	Phase2	study/STIM_021.jpg	100
1010.813	0.721	721.4	study	Phase2	study/STIM_021.jpg	99
1015.418	1.42	1419.6	study	Phase2	study/STIM_021.jpg	99
1018.989	1.228	1228.1	study	Phase2	study/STIM_022.jpg	100
1023.83	0.726	726.0	study	Phase2	study/STIM_022.jpg	100
1027.535	0.762	762.3	study	Phase2	study/STIM_022.jpg	100
1031.939	1.357	1357.3	study	Phase2	study/STIM_023.jpg	100
1037.053	0.796	796.2	study	Phase2	study/STIM_023.jpg	99
1040.828	0.686	685.6	study	Phase2	study/STIM_023.jpg	99
1044.308	1.573	1573.2	study	Phase2	study/STIM_024.jpg	100
1048.814	0.8	799.9	study	Phase2	study/STIM_024.jpg	99
1052.369	0.804	804.0	study	Phase2	study/STIM_024.jpg	99
1056.52	1.246	1246.2	study	Phase2	study/STIM_025.jpg	99
1061.324	1.338	1338.1	study	Phase2	study/STIM_025.jpg	99
1064.855	1.368	1367.9	study	Phase2	study/STIM_025.jpg	100
1068.717	1.272	1272.4	study	Phase2	study/STIM_026.jpg	100
1073.261	1.082	1081.6	study	Phase2	study/STIM_026.jpg	100
1077.814	1.125	1125.3	study	Phase2	study/STIM_026.jpg	100
1081.07	0.997	996.9	study	Phase2	study/STIM_027.jpg	99
1084.617	1.232	1232.4	study	Phase2	study/STIM_027.jpg	99
1089.258	1.252	1252.2	study	Phase2	study/STIM_027.jpg	100
1093.812	1.589	1589.0	study	Phase2	study/STIM_028.jpg	100
1099.219	1.194	1193.8	study	Phase2	study/STIM_028.jpg	100
1102.517	1.232	1232.4	study	Phase2	study/STIM_028.jpg	99
1107.192	1.452	1451.7	study	Phase2	study/STIM_029.jpg	100
1111.171	0.8	799.5	study	Phase2	study/STIM_029.jpg	99
1115.704	0.735	735.2	study	Phase2	study/STIM_029.jpg	100
1119.108	1.28	1279.8	test	Phase2	test/STIM_000.jpg	99
1124.38	1.184	1184.4	test	Phase2	test/STIM_000.jpg	99
1127.762	0.825	824.8	test	Phase2	test/STIM_000.jpg	99
1131.514	1.17	1170.4	test	Phase2	test/STIM_001.jpg	99
1134.945	1.093	1093.4	test	Phase2	test/STIM_001.jpg	100
1138.997	0.675	674.8	test	Phase2	test/STIM_001.jpg	99
1142.754	1.118	1117.8	test	Phase2	test/STIM_002.jpg	100
1146.429	1.232	1232.1	test	Phase2	test/STIM_002.jpg	99
1150.821	1.104	1103.5	test	Phase2	test/STIM_002.jpg	100
1155.637	1.209	1208.8	test	Phase2	test/STIM_003.jpg	100
1160.683	0.762	762.1	test	Phase2	test/STIM_003.jpg	100
1165.371	0.867	867.1	test	Phase2	test/STIM_003.jpg	99
1169.708	0.642	642.0	test	Phase2	test/STIM_004.jpg	99
1172.462	1.122	1121.7	test	Phase2	test/STIM_004.jpg	100
1175.991	1.304	1304.1	test	Phase2	test/STIM_004.jpg	100
1179.976	0.848	847.9	test	Phase2	test/STIM_005.jpg	100
1184.497	1.169	1168.6	test	Phase2	test/STIM_005.jpg	99
1188.121	1.27	1270.4	test	Phase2	test/STIM_005.jpg	99
1192.426	1.017	1016.9	test	Phase2	test/STIM_006.jpg	99
1197.1	1.188	1188.2	test	Phase2	test/STIM_006.jpg	99
1201.302	1.101	1100.9	test	Phase2	test/STIM_006.jpg	100
1204.868	0.967	966.7	test	Phase2	test/STIM_007.jpg	100
1209.665	0.649	648.6	test	Phase2	test/STIM_007.jpg	99
1212.782	0.879	879.4	test	Phase2	test/STIM_007.jpg	100
1216.842	1.295	1294.7	test	Phase2	test/STIM_008.jpg	99
1220.62	1.278	1278.5	test	Phase2	test/STIM_008.jpg	100
1224.336	0.906	905.5	test	Phase2	test/STIM_008.jpg	99
1228.72	1.065	1065.2	test	Phase2	test/STIM_009.jpg	99
1233.391	0.865	865.3	test	Phase2	test/STIM_009.jpg	99
1237.552	0.833	833.1	test	Phase2	test/STIM_009.jpg	100
1240.647	0.816	816.5	test	Phase2	test/STIM_010.jpg	99
1244.697	1.082	1081.6	test	Phase2	test/STIM_010.jpg	100
1249.063	1.242	1242.1	test	Phase2	test/STIM_010.jpg	99
1252.766	1.074	1073.5	test	Phase2	test/STIM_011.jpg	100
1256.079	1.123	1122.9	test	Phase2	test/STIM_011.jpg	100
1260.719	0.953	953.0	test	Phase2	test/STIM_011.jpg	99
1265.416	0.698	698.4	test	Phase2	test/STIM_012.jpg	99
1268.668	1.376	1376.2	test	Phase2	test/STIM_012.jpg	99
1273.048	1.209	1208.6	test	Phase2	test/STIM_012.jpg	100
1277.939	0.998	998.2	test	Phase2	test/STIM_013.jpg	100
1282.531	0.935	935.0	test	Phase2	test/STIM_013.jpg	100
1287.325	1.145	1145.3	test	Phase2	test/STIM_013.jpg	99
1291.986	1.054	1053.5	test	Phase2	test/STIM_014.jpg	100
1295.678	1.051	1051.3	test	Phase2	test/STIM_014.jpg	100
1299.604	1.198	1198.3	test	Phase2	test/STIM_014.jpg	99
1302.931	1.258	1257.9	test	Phase2	test/STIM_015.jpg	100
1306.542	1.236	1235.8	test	Phase2	test/STIM_015.jpg	100
1310.447	0.916	916.3	test	Phase2	test/STIM_015.jpg	100
1315.033	1.015	1014.9	test	Phase2	test/STIM_016.jpg	100
1319.815	0.649	648.6	test	Phase2	test/STIM_016.jpg	100
1322.787	0.659	659.1	test	Phase2	test/STIM_016.jpg	100
1326.714	0.793	793.4	test	Phase2	test/STIM_017.jpg	99
1329.799	1.345	1345.0	test	Phase2	test/STIM_017.jpg	100
1334.314	0.876	876.4	test	Phase2	test/STIM_017.jpg	99
1337.37	1.378	1378.3	test	Phase2	test/STIM_018.jpg	100
1341.991	1.074	1073.5	test	Phase2	test/STIM_018.jpg	100
1345.579	0.805	805.0	test	Phase2	test/STIM_018.jpg	100
1348.525	0.692	692.1	test	Phase2	test/STIM_019.jpg	100
1353.056	1.316	1316.0	test	Phase2	test/STIM_019.jpg	100
1356.587	1.07	1070.0	test	Phase2	test/STIM_019.jpg	100
1361.566	1.276	1276.1	test	Phase2	test/STIM_020.jpg	99
1365.243	0.691	690.7	test	Phase2	test/STIM_020.jpg	99
1369.158	0.664	663.7	test	Phase2	test/STIM_020.jpg	100
1373.247	0.696	695.9	test	Phase2	test/STIM_021.jpg	99
1376.987	1.309	1308.7	test	Phase2	test/STIM_021.jpg	100
1380.689	0.92	919.5	test	Phase2	test/STIM_021.jpg	100
1385.159	1.011	1011.3	test	Phase2	test/STIM_022.jpg	100
1388.587	1.148	1148.2	test	Phase2	test/STIM_022.jpg	99
1393.066	0.688	687.9	test	Phase2	test/STIM_022.jpg	99
1396.113	0.66	659.5	test	Phase2	test/STIM_023.jpg	100
1399.305	1.223	1222.8	test	Phase2	test/STIM_023.jpg	99
1403.994	0.649	648.9	test	Phase2	test/STIM_023.jpg	100
1406.701	0.8	799.8	test	Phase2	test/STIM_024.jpg	99
1410.716	1.369	1369.3	test	Phase2	test/STIM_024.jpg	99
1414.197	0.782	781.6	test	Phase2	test/STIM_024.jpg	99
1418.377	1.224	1223.9	test	Phase2	test/STIM_025.jpg	99
1421.871	0.72	720.2	test	Phase2	test/STIM_025.jpg	100
1425.011	1.115	1114.6	test	Phase2	test/STIM_025.jpg	100
1429.215	0.782	782.0	test	Phase2	test/STIM_026.jpg	99
1432.083	1.375	1374.9	test	Phase2	test/STIM_026.jpg	100
1435.558	0.878	878.0	test	Phase2	test/STIM_026.jpg	99
1438.95	0.987	987.4	test	Phase2	test/STIM_027.jpg	99
1442.096	1.088	1088.5	test	Phase2	test/STIM_027.jpg	99
1446.573	1.22	1220.3	test	Phase2	test/STIM_027.jpg	100
1450.06	0.975	975.2	test	Phase2	test/STIM_028.jpg	99
1454.58	0.724	723.7	test	Phase2	test/STIM_028.jpg	100
1459.148	0.964	963.7	test	Phase2	test/STIM_028.jpg	100
1463.104	0.716	716.1	test	Phase2	test/STIM_029.jpg	100
1465.913	0.782	781.9	test	Phase2	test/STIM_029.jpg	99
1469.995	1.186	1185.7	test	Phase2	test/STIM_029.jpg	99
1473.954	0.756	755.5	study	Phase3	study/STIM_000.jpg	99
1477.739	0.952	951.8	study	Phase3	study/STIM_000.jpg	100
1481.459	1.229	1228.9	study	Phase3	study/STIM_000.jpg	100
1485.153	0.665	664.8	study	Phase3	study/STIM_001.jpg	99
1488.67	0.596	596.0	study	Phase3	study/STIM_001.jpg	99
1492.504	1.171	1170.9	study	Phase3	study/STIM_001.jpg	100
1497.506	1.293	1292.8	study	Phase3	study/STIM_002.jpg	99
1502.222	0.762	762.1	study	Phase3	study/STIM_002.jpg	100
1506.585	0.904	904.2	study	Phase3	study/STIM_002.jpg	100
1509.574	1.19	1190.3	study	Phase3	study/STIM_003.jpg	99
1513.117	0.949	949.0	study	Phase3	study/STIM_003.jpg	99
1517.039	1.293	1292.7	study	Phase3	study/STIM_003.jpg	100
1520.912	0.723	722.8	study	Phase3	study/STIM_004.jpg	99
1524.538	1.041	1041.1	study	Phase3	study/STIM_004.jpg	100
1529.114	0.668	667.5	study	Phase3	study/STIM_004.jpg	100
1533.029	0.748	748.0	study	Phase3	study/STIM_005.jpg	99
1537.008	1.074	1074.1	study	Phase3	study/STIM_005.jpg	100
1541.901	1.11	1109.9	study	Phase3	study/STIM_005.jpg	99
1545.488	0.647	647.1	study	Phase3	study/STIM_006.jpg	99
1550.12	0.896	896.5	study	Phase3	study/STIM_006.jpg	99
1553.358	0.91	910.4	study	Phase3	study/STIM_006.jpg	99
1556.451	1.036	1035.6	study	Phase3	study/STIM_007.jpg	100
1561.386	1.223	1222.9	study	Phase3	study/STIM_007.jpg	99
1565.913	0.758	758.1	study	Phase3	study/STIM_007.jpg	99
1570.628	0.985	985.1	study	Phase3	study/STIM_008.jpg	99
1574.76	1.107	1107.4	study	Phase3	study/STIM_008.jpg	99
1579.306	1.031	1030.8	study	Phase3	study/STIM_008.jpg	99
1582.948	0.71	709.7	study	Phase3	study/STIM_009.jpg	99
1586.831	0.846	845.5	study	Phase3	study/STIM_009.jpg	100
1590.37	0.958	958.3	study	Phase3	study/STIM_009.jpg	99
1594.856	1.227	1227.1	study	Phase3	study/STIM_010.jpg	100
1599.135	0.746	746.1	study	Phase3	study/STIM_010.jpg	99
1602.725	1.146	1145.9	study	Phase3	study/STIM_010.jpg	99
1606.088	0.723	722.9	study	Phase3	study/STIM_011.jpg	100
1609.328	0.791	790.7	study	Phase3	study/STIM_011.jpg	99
1613.434	0.679	679.3	study	Phase3	study/STIM_011.jpg	99
1616.658	1.036	1035.6	study	Phase3	study/STIM_012.jpg	99
1620.242	1.241	1241.2	study	Phase3	study/STIM_012.jpg	100
1623.899	1.315	1315.3	study	Phase3	study/STIM_012.jpg	100
1628.99	1.117	1117.3	study	Phase3	study/STIM_013.jpg	99
1633.075	0.98	979.9	study	Phase3	study/STIM_013.jpg	100
1636.897	0.926	926.3	study	Phase3	study/STIM_013.jpg	99
1641.102	0.751	751.0	study	Phase3	study/STIM_014.jpg	99
1645.846	0.795	794.7	study	Phase3	study/STIM_014.jpg	99
1650.04	1.205	1204.8	study	Phase3	study/STIM_014.jpg	100
1653.456	0.661	661.3	study	Phase3	study/STIM_015.jpg	100
1657.436	1.031	1031.4	study	Phase3	study/STIM_015.jpg	100
1661.479	1.202	1201.7	study	Phase3	study/STIM_015.jpg	100
1666.518	0.955	955.1	study	Phase3	study/STIM_016.jpg	99
1670.288	0.918	917.7	study	Phase3	study/STIM_016.jpg	99
1673.421	1.014	1014.0	study	Phase3	study/STIM_016.jpg	99
1677.936	1.034	1033.8	study	Phase3	study/STIM_017.jpg	100
1681.491	1.27	1270.0	study	Phase3	study/STIM_017.jpg	99
1686.359	0.618	617.9	study	Phase3	study/STIM_017.jpg	99
1689.668	1.093	1093.3	study	Phase3	study/STIM_018.jpg	100
1692.844	0.724	723.5	study	Phase3	study/STIM_018.jpg	99
1695.92	0.746	745.7	study	Phase3	study/STIM_018.jpg	100
1699.489	0.895	895.4	study	Phase3	study/STIM_019.jpg	99
1703.278	1.284	1283.5	study	Phase3	study/STIM_019.jpg	99
1707.363	0.889	888.8	study	Phase3	study/STIM_019.jpg	99
1711.42	0.779	778.7	study	Phase3	study/STIM_020.jpg	99
1715.192	0.6	599.6	study	Phase3	study/STIM_020.jpg	100
1719.388	0.78	780.4	study	Phase3	study/STIM_020.jpg	100
1723.782	1.32	1319.6	study	Phase3	study/STIM_021.jpg	99
1728.978	0.861	861.3	study	Phase3	study/STIM_021.jpg	100
1733.137	1.256	1255.7	study	Phase3	study/STIM_021.jpg	99
1736.449	0.643	643.0	study	Phase3	study/STIM_022.jpg	100
1739.351	0.937	936.9	study	Phase3	study/STIM_022.jpg	99
1742.877	0.958	957.6	study	Phase3	study/STIM_022.jpg	99
1747.094	0.738	738.4	study	Phase3	study/STIM_023.jpg	99
1751.55	1.197	1197.1	study	Phase3	study/STIM_023.jpg	100
1756.289	0.936	935.7	study	Phase3	study/STIM_023.jpg	100
1759.999	0.669	669.2	study	Phase3	study/STIM_024.jpg	99
1762.986	0.885	884.7	study	Phase3	study/STIM_024.jpg	100
1767.069	0.863	862.9	study	Phase3	study/STIM_024.jpg	99
1770.956	1.278	1277.5	study	Phase3	study/STIM_025.jpg	100
1775.609	1.094	1093.9	study	Phase3	study/STIM_025.jpg	99
1779.446	0.821	821.3	study	Phase3	study/STIM_025.jpg	99
1782.798	0.967	967.2	study	Phase3	study/STIM_026.jpg	100
1786.334	0.712	711.5	study	Phase3	study/STIM_026.jpg	100
1789.247	1.283	1282.8	study	Phase3	study/STIM_026.jpg	100
1793.147	0.778	777.8	study	Phase3	study/STIM_027.jpg	99
1795.928	1.04	1040.5	study	Phase3	study/STIM_027.jpg	99
1799.986	0.596	596.5	study	Phase3	study/STIM_027.jpg	99
1804.427	0.607	607.0	study	Phase3	study/STIM_028.jpg	100
1808.614	1.217	1217.0	study	Phase3	study/STIM_028.jpg	100
1812.296	1.04	1039.9	study	Phase3	study/STIM_028.jpg	100
1815.846	1.194	1194.3	study	Phase3	study/STIM_029.jpg	100
1819.051	0.844	844.5	study	Phase3	study/STIM_029.jpg	99
1823.306	1.175	1174.7	study	Phase3	study/STIM_029.jpg	99
1827.734	1.131	1131.4	test	Phase3	test/STIM_000.jpg	100
1831.63	1.095	1094.8	test	Phase3	test/STIM_000.jpg	99
1835.315	0.939	938.7	test	Phase3	test/STIM_000.jpg	99
1839.227	1.17	1170.3	test	Phase3	test/STIM_001.jpg	100
1844.206	0.919	919.3	test	Phase3	test/STIM_001.jpg	100
1847.131	0.868	867.5	test	Phase3	test/STIM_001.jpg	100
1850.666	0.825	824.9	test	Phase3	test/STIM_002.jpg	99
1853.648	1.032	1031.7	test	Phase3	test/STIM_002.jpg	99
1857.446	1.225	1224.7	test	Phase3	test/STIM_002.jpg	100
1861.563	1.066	1065.8	test	Phase3	test/STIM_003.jpg	100
1866.121	0.774	774.5	test	Phase3	test/STIM_003.jpg	100
1869.592	0.776	776.1	test	Phase3	test/STIM_003.jpg	99
1872.716	1.237	1237.3	test	Phase3	test/STIM_004.jpg	100
1876.636	1.089	1088.7	test	Phase3	test/STIM_004.jpg	99
1880.434	0.983	983.1	test	Phase3	test/STIM_004.jpg	100
1884.611	0.902	901.6	test	Phase3	test/STIM_005.jpg	99
1888.358	1.107	1106.6	test	Phase3	test/STIM_005.jpg	99
1892.309	0.649	649.4	test	Phase3	test/STIM_005.jpg	99
1896.717	1.208	1208.5	test	Phase3	test/STIM_006.jpg	100
1900.204	0.802	802.1	test	Phase3	test/STIM_006.jpg	100
1903.478	0.662	662.5	test	Phase3	test/STIM_006.jpg	100
1906.715	0.833	832.7	test	Phase3	test/STIM_007.jpg	99
1910.025	0.733	733.0	test	Phase3	test/STIM_007.jpg	99
1914.371	1.168	1167.9	test	Phase3	test/STIM_007.jpg	99
1917.978	1.192	1192.0	test	Phase3	test/STIM_008.jpg	99
1923.133	1.038	1038.4	test	Phase3	test/STIM_008.jpg	99
1927.889	0.874	874.1	test	Phase3	test/STIM_008.jpg	100
1931.418	1.208	1207.5	test	Phase3	test/STIM_009.jpg	99
1935.389	0.66	659.7	test	Phase3	test/STIM_009.jpg	99
1938.73	0.821	821.2	test	Phase3	test/STIM_009.jpg	99
1942.962	1.241	1240.7	test	Phase3	test/STIM_010.jpg	100
1947.827	0.982	982.2	test	Phase3	test/STIM_010.jpg	99
1952.502	1.044	1043.6	test	Phase3	test/STIM_010.jpg	99
1957.42	1.052	1052.2	test	Phase3	test/STIM_011.jpg	99
1962.214	0.848	848.3	test	Phase3	test/STIM_011.jpg	99
1965.472	0.857	857.4	test	Phase3	test/STIM_011.jpg	99
1969.188	1.103	1102.7	test	Phase3	test/STIM_012.jpg	100
1972.973	1.059	1059.0	test	Phase3	test/STIM_012.jpg	99
1977.462	1.038	1037.9	test	Phase3	test/STIM_012.jpg	100
1981.315	0.959	958.6	test	Phase3	test/STIM_013.jpg	100
1985.672	0.73	730.0	test	Phase3	test/STIM_013.jpg	100
1989.96	0.858	858.3	test	Phase3	test/STIM_013.jpg	100
1994.241	1.182	1182.4	test	Phase3	test/STIM_014.jpg	100
1997.93	0.698	698.3	test	Phase3	test/STIM_014.jpg	100
2001.146	1.173	1172.8	test	Phase3	test/STIM_014.jpg	100
2005.84	0.731	731.2	test	Phase3	test/STIM_015.jpg	99
2009.636	1.347	1346.7	test	Phase3	test/STIM_015.jpg	100
2013.566	0.688	688.4	test	Phase3	test/STIM_015.jpg	100
2017.443	1.034	1034.2	test	Phase3	test/STIM_016.jpg	100
2021.455	0.933	933.0	test	Phase3	test/STIM_016.jpg	100
2025.932	0.682	682.3	test	Phase3	test/STIM_016.jpg	100
2030.261	1.311	1310.9	test	Phase3	test/STIM_017.jpg	100
2034.136	1.083	1082.9	test	Phase3	test/STIM_017.jpg	100
2037.454	1.111	1111.2	test	Phase3	test/STIM_017.jpg	99
2040.699	0.716	715.5	test	Phase3	test/STIM_018.jpg	99
2043.851	1.091	1091.3	test	Phase3	test/STIM_018.jpg	100
2047.176	1.042	1042.1	test	Phase3	test/STIM_018.jpg	100
2051.588	1.245	1245.0	test	Phase3	test/STIM_019.jpg	99
2056.605	0.917	916.9	test	Phase3	test/STIM_019.jpg	100
2060.464	0.836	835.8	test	Phase3	test/STIM_019.jpg	100
2064.435	0.696	695.5	test	Phase3	test/STIM_020.jpg	99
2067.674	0.886	886.1	test	Phase3	test/STIM_020.jpg	100
2070.566	1.151	1151.3	test	Phase3	test/STIM_020.jpg	100
2075.336	0.667	667.3	test	Phase3	test/STIM_021.jpg	100
2078.665	1.315	1315.1	test	Phase3	test/STIM_021.jpg	99
2083.468	1.067	1067.2	test	Phase3	test/STIM_021.jpg	100
2086.694	1.086	1086.1	test	Phase3	test/STIM_022.jpg	100
2090.783	1.086	1085.7	test	Phase3	test/STIM_022.jpg	99
2095.851	0.83	830.0	test	Phase3	test/STIM_022.jpg	100
2099.363	1.18	1180.3	test	Phase3	test/STIM_023.jpg	100
2104.492	1.34	1339.5	test	Phase3	test/STIM_023.jpg	100
2109.814	0.916	916.1	test	Phase3	test/STIM_023.jpg	100
2114.252	0.762	761.9	test	Phase3	test/STIM_024.jpg	99
2117.443	1.215	1215.3	test	Phase3	test/STIM_024.jpg	100
2121.107	1.188	1188.0	test	Phase3	test/STIM_024.jpg	100
2125.938	1.227	1226.8	test	Phase3	test/STIM_025.jpg	100
2129.466	1.31	1310.3	test	Phase3	test/STIM_025.jpg	99
2133.608	0.985	984.8	test	Phase3	test/STIM_025.jpg	100
2138.583	1.082	1082.5	test	Phase3	test/STIM_026.jpg	99
2142.175	0.933	932.8	test	Phase3	test/STIM_026.jpg	99
2145.754	1.362	1362.5	test	Phase3	test/STIM_026.jpg	100
2150.074	1.195	1195.0	test	Phase3	test/STIM_027.jpg	99
2153.303	1.04	1040.3	test	Phase3	test/STIM_027.jpg	99
2158.306	0.667	667.1	test	Phase3	test/STIM_027.jpg	99
2161.17	0.748	747.5	test	Phase3	test/STIM_028.jpg	99
2164.38	1.193	1193.4	test	Phase3	test/STIM_028.jpg	100
2168.01	1.004	1003.6	test	Phase3	test/STIM_028.jpg	100
2172.739	0.646	646.2	test	Phase3	test/STIM_029.jpg	100
2176.608	1.36	1360.0	test	Phase3	test/STIM_029.jpg	100
2180.472	0.783	782.9	test	Phase3	test/STIM_029.jpg	99
