onset	duration	accuracy	trial_type	learning_stage	stimulus
0.0	1.9	correct	generate	Run1	generate/STIM_000.jpg
5.09	1.971	correct	generate	Run1	generate/STIM_000.jpg
10.538	1.696	correct	generate	Run1	generate/STIM_000.jpg
15.215	1.11	incorrect	generate	Run1	generate/STIM_000.jpg
19.704	0.829	correct	generate	Run1	generate/STIM_000.jpg
22.619	1.865	correct	generate	Run1	generate/STIM_001.jpg
26.676	0.938	correct	generate	Run1	generate/STIM_001.jpg
30.79	1.925	correct	generate	Run1	generate/STIM_001.jpg
35.944	1.526	correct	generate	Run1	generate/STIM_001.jpg
40.927	1.4	correct	generate	Run1	generate/STIM_001.jpg
44.421	1.436	correct	generate	Run1	generate/STIM_002.jpg
47.918	1.476	correct	generate	Run1	generate/STIM_002.jpg
51.451	1.824	correct	generate	Run1	generate/STIM_002.jpg
56.931	1.128	correct	generate	Run1	generate/STIM_002.jpg
60.23	1.586	correct	generate	Run1	generate/STIM_002.jpg
65.789	1.254	correct	generate	Run1	generate/STIM_003.jpg
70.183	1.812	correct	generate	Run1	generate/STIM_003.jpg
74.719	1.494	correct	generate	Run1	generate/STIM_003.jpg
79.642	1.711	correct	generate	Run1	generate/STIM_003.jpg
83.639	0.931	correct	generate	Run1	generate/STIM_003.jpg
86.856	1.442	correct	generate	Run1	generate/STIM_004.jpg
90.811	1.031	correct	generate	Run1	generate/STIM_004.jpg
94.357	1.225	correct	generate	Run1	generate/STIM_004.jpg
98.167	1.721	correct	generate	Run1	generate/STIM_004.jpg
103.553	1.422	correct	generate	Run1	generate/STIM_004.jpg
108.008	0.91	correct	generate	Run1	generate/STIM_005.jpg
112.557	1.748	correct	generate	Run1	generate/STIM_005.jpg
117.857	1.798	correct	generate	Run1	generate/STIM_005.jpg
122.801	1.187	incorrect	generate	Run1	generate/STIM_005.jpg
127.003	1.073	correct	generate	Run1	generate/STIM_005.jpg
131.38	1.124	correct	generate	Run1	generate/STIM_006.jpg
135.658	1.096	incorrect	generate	Run1	generate/STIM_006.jpg
138.858	1.572	correct	generate	Run1	generate/STIM_006.jpg
143.931	1.193	correct	generate	Run1	generate/STIM_006.jpg
148.624	1.031	correct	generate	Run1	generate/STIM_006.jpg
151.925	0.958	correct	generate	Run1	generate/STIM_007.jpg
156.377	1.376	incorrect	generate	Run1	generate/STIM_007.jpg
159.86	0.846	correct	generate	Run1	generate/STIM_007.jpg
163.393	1.306	correct	generate	Run1	generate/STIM_007.jpg
167.392	0.911	correct	generate	Run1	generate/STIM_007.jpg
170.403	1.231	correct	generate	Run1	generate/STIM_008.jpg
174.794	1.958	correct	generate	Run1	generate/STIM_008.jpg
179.852	1.682	incorrect	generate	Run1	generate/STIM_008.jpg
183.732	1.604	correct	generate	Run1	generate/STIM_008.jpg
188.396	0.786	correct	generate	Run1	generate/STIM_008.jpg
191.584	1.33	incorrect	generate	Run1	generate/STIM_009.jpg
195.687	1.151	correct	generate	Run1	generate/STIM_009.jpg
199.847	0.884	correct	generate	Run1	generate/STIM_009.jpg
204.608	1.322	incorrect	generate	Run1	generate/STIM_009.jpg
207.956	1.435	correct	generate	Run1	generate/STIM_009.jpg
211.894	2.016	incorrect	generate	Run1	generate/STIM_010.jpg
216.86	1.281	incorrect	generate	Run1	generate/STIM_010.jpg
221.535	1.059	incorrect	generate	Run1	generate/STIM_010.jpg
225.785	1.511	correct	generate	Run1	generate/STIM_010.jpg
230.151	1.434	correct	generate	Run1	generate/STIM_010.jpg
234.166	1.19	correct	generate	Run1	generate/STIM_011.jpg
238.221	1.891	incorrect	generate	Run1	generate/STIM_011.jpg
243.135	1.772	correct	generate	Run1	generate/STIM_011.jpg
247.988	1.688	correct	generate	Run1	generate/STIM_011.jpg
253.652	1.259	correct	generate	Run1	generate/STIM_011.jpg
258.679	2.018	correct	generate	Run1	generate/STIM_012.jpg
263.961	1.788	correct	generate	Run1	generate/STIM_012.jpg
268.935	1.453	correct	generate	Run1	generate/STIM_012.jpg
274.301	1.723	correct	generate	Run1	generate/STIM_012.jpg
279.935	1.152	correct	generate	Run1	generate/STIM_012.jpg
284.245	1.482	correct	generate	Run1	generate/STIM_013.jpg
288.184	0.925	incorrect	generate	Run1	generate/STIM_013.jpg
293.005	0.938	correct	generate	Run1	generate/STIM_013.jpg
296.542	1.347	correct	generate	Run1	generate/STIM_013.jpg
301.313	1.346	incorrect	generate	Run1	generate/STIM_013.jpg
306.446	2.154	correct	generate	Run1	generate/STIM_014.jpg
312.577	1.001	incorrect	generate	Run1	generate/STIM_014.jpg
317.551	1.119	correct	generate	Run1	generate/STIM_014.jpg
321.004	1.643	correct	generate	Run1	generate/STIM_014.jpg
325.936	0.992	correct	generate	Run1	generate/STIM_014.jpg
329.164	1.701	correct	generate	Run1	generate/STIM_015.jpg
333.255	1.022	correct	generate	Run1	generate/STIM_015.jpg
336.4	1.374	correct	generate	Run1	generate/STIM_015.jpg
341.23	1.392	correct	generate	Run1	generate/STIM_015.jpg
345.497	0.972	incorrect	generate	Run1	generate/STIM_015.jpg
349.109	1.128	correct	generate	Run1	generate/STIM_016.jpg
353.768	1.797	correct	generate	Run1	generate/STIM_016.jpg
358.542	1.798	incorrect	generate	Run1	generate/STIM_016.jpg
362.55	1.772	correct	generate	Run1	generate/STIM_016.jpg
368.172	1.333	correct	generate	Run1	generate/STIM_016.jpg
372.718	2.114	correct	generate	Run1	generate/STIM_017.jpg
377.804	1.734	incorrect	generate	Run1	generate/STIM_017.jpg
383.203	1.138	correct	generate	Run1	generate/STIM_017.jpg
388.311	1.713	incorrect	generate	Run1	generate/STIM_017.jpg
393.576	1.156	correct	generate	Run1	generate/STIM_017.jpg
396.774	1.217	incorrect	generate	Run1	generate/STIM_018.jpg
400.627	1.742	correct	generate	Run1	generate/STIM_018.jpg
405.631	1.247	correct	generate	Run1	generate/STIM_018.jpg
409.861	0.82	correct	generate	Run1	generate/STIM_018.jpg
413.264	0.884	incorrect	generate	Run1	generate/STIM_018.jpg
417.791	1.975	correct	generate	Run1	generate/STIM_019.jpg
422.049	1.96	correct	generate	Run1	generate/STIM_019.jpg
426.656	1.027	incorrect	generate	Run1	generate/STIM_019.jpg
430.538	1.644	correct	generate	Run1	generate/STIM_019.jpg
435.154	0.77	correct	generate	Run1	generate/STIM_019.jpg
439.124	1.6	incorrect	generate	Run1	generate/STIM_020.jpg
442.844	2.021	correct	generate	Run1	generate/STIM_020.jpg
448.24	1.356	correct	generate	Run1	generate/STIM_020.jpg
452.292	1.134	correct	generate	Run1	generate/STIM_020.jpg
455.722	1.588	correct	generate	Run1	generate/STIM_020.jpg
459.837	1.893	incorrect	generate	Run1	generate/STIM_021.jpg
464.844	1.515	incorrect	generate	Run1	generate/STIM_021.jpg
468.998	1.817	correct	generate	Run1	generate/STIM_021.jpg
473.102	1.751	correct	generate	Run1	generate/STIM_021.jpg
477.721	1.644	correct	generate	Run1	generate/STIM_021.jpg
482.334	1.779	correct	generate	Run1	generate/STIM_022.jpg
487.764	1.748	incorrect	generate	Run1	generate/STIM_022.jpg
492.436	1.179	correct	generate	Run1	generate/STIM_022.jpg
496.131	1.4	correct	generate	Run1	generate/STIM_022.jpg
501.506	1.169	incorrect	generate	Run1	generate/STIM_022.jpg
505.603	1.692	correct	generate	Run1	generate/STIM_023.jpg
510.454	1.555	correct	generate	Run1	generate/STIM_023.jpg
514.931	1.691	incorrect	generate	Run1	generate/STIM_023.jpg
518.82	0.984	incorrect	generate	Run1	generate/STIM_023.jpg
523.213	1.501	correct	generate	Run1	generate/STIM_023.jpg
526.964	1.008	correct	generate	Run1	generate/STIM_024.jpg
531.86	1.471	incorrect	generate	Run1	generate/STIM_024.jpg
536.081	1.514	correct	generate	Run1	generate/STIM_024.jpg
540.725	1.498	correct	generate	Run1	generate/STIM_024.jpg
545.652	1.437	incorrect	generate	Run1	generate/STIM_024.jpg
550.165	0.547	correct	repeat	Run1	repeat/STIM_000.jpg
554.363	0.54	correct	repeat	Run1	repeat/STIM_000.jpg
557.73	0.585	correct	repeat	Run1	repeat/STIM_000.jpg
562.243	0.698	correct	repeat	Run1	repeat/STIM_000.jpg
565.887	0.368	correct	repeat	Run1	repeat/STIM_000.jpg
569.558	0.711	incorrect	repeat	Run1	repeat/STIM_001.jpg
573.461	0.522	correct	repeat	Run1	repeat/STIM_001.jpg
577.378	0.423	correct	repeat	Run1	repeat/STIM_001.jpg
580.766	0.437	correct	repeat	Run1	repeat/STIM_001.jpg
584.929	0.565	correct	repeat	Run1	repeat/STIM_001.jpg
588.738	0.389	correct	repeat	Run1	repeat/STIM_002.jpg
591.635	0.483	correct	repeat	Run1	repeat/STIM_002.jpg
594.895	0.535	correct	repeat	Run1	repeat/STIM_002.jpg
597.538	0.702	correct	repeat	Run1	repeat/STIM_002.jpg
601.568	0.522	correct	repeat	Run1	repeat/STIM_002.jpg
604.904	0.432	correct	repeat	Run1	repeat/STIM_003.jpg
608.659	0.528	correct	repeat	Run1	repeat/STIM_003.jpg
611.874	0.381	correct	repeat	Run1	repeat/STIM_003.jpg
615.022	0.613	correct	repeat	Run1	repeat/STIM_003.jpg
618.473	0.364	correct	repeat	Run1	repeat/STIM_003.jpg
622.437	0.392	correct	repeat	Run1	repeat/STIM_004.jpg
626.419	0.65	correct	repeat	Run1	repeat/STIM_004.jpg
630.543	0.39	correct	repeat	Run1	repeat/STIM_004.jpg
633.553	0.366	correct	repeat	Run1	repeat/STIM_004.jpg
637.882	0.446	correct	repeat	Run1	repeat/STIM_004.jpg
641.575	0.699	correct	repeat	Run1	repeat/STIM_005.jpg
645.336	0.452	correct	repeat	Run1	repeat/STIM_005.jpg
648.215	0.456	incorrect	repeat	Run1	repeat/STIM_005.jpg
652.541	0.431	correct	repeat	Run1	repeat/STIM_005.jpg
656.889	0.47	correct	repeat	Run1	repeat/STIM_005.jpg
660.403	0.453	correct	repeat	Run1	repeat/STIM_006.jpg
664.264	0.627	correct	repeat	Run1	repeat/STIM_006.jpg
668.72	0.482	correct	repeat	Run1	repeat/STIM_006.jpg
671.63	0.382	correct	repeat	Run1	repeat/STIM_006.jpg
675.186	0.52	correct	repeat	Run1	repeat/STIM_006.jpg
679.575	0.666	correct	repeat	Run1	repeat/STIM_007.jpg
684.132	0.601	correct	repeat	Run1	repeat/STIM_007.jpg
686.965	0.505	correct	repeat	Run1	repeat/STIM_007.jpg
691.137	0.709	correct	repeat	Run1	repeat/STIM_007.jpg
695.592	0.636	correct	repeat	Run1	repeat/STIM_007.jpg
698.979	0.528	correct	repeat	Run1	repeat/STIM_008.jpg
702.848	0.594	correct	repeat	Run1	repeat/STIM_008.jpg
706.604	0.611	correct	repeat	Run1	repeat/STIM_008.jpg
711.206	0.418	correct	repeat	Run1	repeat/STIM_008.jpg
715.43	0.54	correct	repeat	Run1	repeat/STIM_008.jpg
718.234	0.678	correct	repeat	Run1	repeat/STIM_009.jpg
721.352	0.438	correct	repeat	Run1	repeat/STIM_009.jpg
725.723	0.47	correct	repeat	Run1	repeat/STIM_009.jpg
729.925	0.546	correct	repeat	Run1	repeat/STIM_009.jpg
732.97	0.716	correct	repeat	Run1	repeat/STIM_009.jpg
736.385	0.623	correct	repeat	Run1	repeat/STIM_010.jpg
740.804	0.49	correct	repeat	Run1	repeat/STIM_010.jpg
743.34	0.601	correct	repeat	Run1	repeat/STIM_010.jpg
746.736	0.401	correct	repeat	Run1	repeat/STIM_010.jpg
749.279	0.56	correct	repeat	Run1	repeat/STIM_010.jpg
752.85	0.588	correct	repeat	Run1	repeat/STIM_011.jpg
755.761	0.485	correct	repeat	Run1	repeat/STIM_011.jpg
759.072	0.536	correct	repeat	Run1	repeat/STIM_011.jpg
761.616	0.39	correct	repeat	Run1	repeat/STIM_011.jpg
765.136	0.429	correct	repeat	Run1	repeat/STIM_011.jpg
767.675	0.446	correct	repeat	Run1	repeat/STIM_012.jpg
770.92	0.499	correct	repeat	Run1	repeat/STIM_012.jpg
774.32	0.506	correct	repeat	Run1	repeat/STIM_012.jpg
778.462	0.587	correct	repeat	Run1	repeat/STIM_012.jpg
782.757	0.594	correct	repeat	Run1	repeat/STIM_012.jpg
786.043	0.47	correct	repeat	Run1	repeat/STIM_013.jpg
788.698	0.665	correct	repeat	Run1	repeat/STIM_013.jpg
792.014	0.538	correct	repeat	Run1	repeat/STIM_013.jpg
795.909	0.511	correct	repeat	Run1	repeat/STIM_013.jpg
799.177	0.645	incorrect	repeat	Run1	repeat/STIM_013.jpg
802.553	0.528	correct	repeat	Run1	repeat/STIM_014.jpg
806.379	0.585	incorrect	repeat	Run1	repeat/STIM_014.jpg
810.655	0.376	correct	repeat	Run1	repeat/STIM_014.jpg
813.567	0.68	correct	repeat	Run1	repeat/STIM_014.jpg
817.836	0.491	correct	repeat	Run1	repeat/STIM_014.jpg
821.733	1.428	correct	generate	Run2	generate/STIM_000.jpg
826.606	1.449	correct	generate	Run2	generate/STIM_000.jpg
830.114	0.941	correct	generate	Run2	generate/STIM_000.jpg
833.875	0.66	correct	generate	Run2	generate/STIM_000.jpg
837.9	0.771	correct	generate	Run2	generate/STIM_000.jpg
842.322	1.732	correct	generate	Run2	generate/STIM_001.jpg
847.727	1.16	correct	generate	Run2	generate/STIM_001.jpg
851.849	0.932	correct	generate	Run2	generate/STIM_001.jpg
856.471	1.039	incorrect	generate	Run2	generate/STIM_001.jpg
859.68	1.51	incorrect	generate	Run2	generate/STIM_001.jpg
864.327	1.659	correct	generate	Run2	generate/STIM_002.jpg
869.064	0.863	correct	generate	Run2	generate/STIM_002.jpg
873.785	1.043	correct	generate	Run2	generate/STIM_002.jpg
878.664	1.258	correct	generate	Run2	generate/STIM_002.jpg
883.566	1.24	incorrect	generate	Run2	generate/STIM_002.jpg
887.307	1.75	correct	generate	Run2	generate/STIM_003.jpg
892.181	1.07	correct	generate	Run2	generate/STIM_003.jpg
897.092	0.814	correct	generate	Run2	generate/STIM_003.jpg
901.843	1.329	correct	generate	Run2	generate/STIM_003.jpg
906.439	1.232	correct	generate	Run2	generate/STIM_003.jpg
909.924	1.062	correct	generate	Run2	generate/STIM_004.jpg
913.795	1.662	correct	generate	Run2	generate/STIM_004.jpg
918.519	0.923	correct	generate	Run2	generate/STIM_004.jpg
922.981	1.287	correct	generate	Run2	generate/STIM_004.jpg
928.26	0.852	correct	generate	Run2	generate/STIM_004.jpg
931.699	0.89	correct	generate	Run2	generate/STIM_005.jpg
935.588	1.263	correct	generate	Run2	generate/STIM_005.jpg
939.264	1.055	correct	generate	Run2	generate/STIM_005.jpg
943.226	1.309	correct	generate	Run2	generate/STIM_005.jpg
947.245	1.068	correct	generate	Run2	generate/STIM_005.jpg
951.588	1.031	correct	generate	Run2	generate/STIM_006.jpg
956.553	0.837	correct	generate	Run2	generate/STIM_006.jpg
959.91	1.598	incorrect	generate	Run2	generate/STIM_006.jpg
963.886	1.278	correct	generate	Run2	generate/STIM_006.jpg
968.773	1.261	correct	generate	Run2	generate/STIM_006.jpg
973.847	1.538	incorrect	generate	Run2	generate/STIM_007.jpg
978.432	1.368	correct	generate	Run2	generate/STIM_007.jpg
983.58	1.101	correct	generate	Run2	generate/STIM_007.jpg
987.542	0.77	correct	generate	Run2	generate/STIM_007.jpg
991.341	1.069	correct	generate	Run2	generate/STIM_007.jpg
995.89	1.809	correct	generate	Run2	generate/STIM_008.jpg
1000.691	0.965	incorrect	generate	Run2	generate/STIM_008.jpg
1004.722	0.742	correct	generate	Run2	generate/STIM_008.jpg
1008.826	0.758	correct	generate	Run2	generate/STIM_008.jpg
1012.191	0.614	correct	generate	Run2	generate/STIM_008.jpg
1015.974	1.441	correct	generate	Run2	generate/STIM_009.jpg
1020.278	1.453	incorrect	generate	Run2	generate/STIM_009.jpg
1024.636	1.257	correct	generate	Run2	generate/STIM_009.jpg
1028.991	0.613	correct	generate	Run2	generate/STIM_009.jpg
1032.753	1.403	correct	generate	Run2	generate/STIM_009.jpg
1036.213	1.749	correct	generate	Run2	generate/STIM_010.jpg
1040.914	0.834	incorrect	generate	Run2	generate/STIM_010.jpg
1044.316	0.972	incorrect	generate	Run2	generate/STIM_010.jpg
1047.676	1.286	correct	generate	Run2	generate/STIM_010.jpg
1052.371	0.8	correct	generate	Run2	generate/STIM_010.jpg
1056.752	1.726	correct	generate	Run2	generate/STIM_011.jpg
1061.936	0.767	incorrect	generate	Run2	generate/STIM_011.jpg
1065.421	1.596	correct	generate	Run2	generate/STIM_011.jpg
1070.603	1.484	correct	generate	Run2	generate/STIM_011.jpg
1074.973	1.408	correct	generate	Run2	generate/STIM_011.jpg
1079.399	1.286	correct	generate	Run2	generate/STIM_012.jpg
1084.662	0.9	correct	generate	Run2	generate/STIM_012.jpg
1088.986	1.307	correct	generate	Run2	generate/STIM_012.jpg
1093.669	0.664	correct	generate	Run2	generate/STIM_012.jpg
1096.392	0.989	incorrect	generate	Run2	generate/STIM_012.jpg
1101.261	0.844	correct	generate	Run2	generate/STIM_013.jpg
1104.264	1.22	correct	generate	Run2	generate/STIM_013.jpg
1108.508	0.898	correct	generate	Run2	generate/STIM_013.jpg
1112.245	1.196	correct	generate	Run2	generate/STIM_013.jpg
1115.749	0.939	correct	generate	Run2	generate/STIM_013.jpg
1119.782	1.575	correct	generate	Run2	generate/STIM_014.jpg
1124.343	1.3	correct	generate	Run2	generate/STIM_014.jpg
1128.828	0.863	correct	generate	Run2	generate/STIM_014.jpg
1131.767	1.16	correct	generate	Run2	generate/STIM_014.jpg
1135.789	0.919	correct	generate	Run2	generate/STIM_014.jpg
1139.956	1.002	correct	generate	Run2	generate/STIM_015.jpg
1143.796	0.722	correct	generate	Run2	generate/STIM_015.jpg
1148.029	0.717	correct	generate	Run2	generate/STIM_015.jpg
1151.335	1.486	correct	generate	Run2	generate/STIM_015.jpg
1156.617	1.154	correct	generate	Run2	generate/STIM_015.jpg
1161.161	0.884	correct	generate	Run2	generate/STIM_016.jpg
1164.719	0.975	correct	generate	Run2	generate/STIM_016.jpg
1168.598	0.906	correct	generate	Run2	generate/STIM_016.jpg
1172.031	1.141	correct	generate	Run2	generate/STIM_016.jpg
1176.403	1.171	correct	generate	Run2	generate/STIM_016.jpg
1180.227	0.921	correct	generate	Run2	generate/STIM_017.jpg
1184.291	0.764	correct	generate	Run2	generate/STIM_017.jpg
1187.724	1.603	correct	generate	Run2	generate/STIM_017.jpg
1192.714	1.052	correct	generate	Run2	generate/STIM_017.jpg
1197.247	1.106	correct	generate	Run2	generate/STIM_017.jpg
1200.43	1.403	incorrect	generate	Run2	generate/STIM_018.jpg
1205.805	1.407	correct	generate	Run2	generate/STIM_018.jpg
1209.629	0.696	correct	generate	Run2	generate/STIM_018.jpg
1212.933	0.652	correct	generate	Run2	generate/STIM_018.jpg
1216.625	1.036	correct	generate	Run2	generate/STIM_018.jpg
1221.418	1.272	correct	generate	Run2	generate/STIM_019.jpg
1226.584	1.319	correct	generate	Run2	generate/STIM_019.jpg
1230.254	0.799	correct	generate	Run2	generate/STIM_019.jpg
1234.059	1.264	correct	generate	Run2	generate/STIM_019.jpg
1237.969	1.078	correct	generate	Run2	generate/STIM_019.jpg
1242.249	1.75	correct	generate	Run2	generate/STIM_020.jpg
1247.895	0.969	correct	generate	Run2	generate/STIM_020.jpg
1251.884	0.728	correct	generate	Run2	generate/STIM_020.jpg
1255.276	0.793	incorrect	generate	Run2	generate/STIM_020.jpg
1258.782	0.857	correct	generate	Run2	generate/STIM_020.jpg
1262.642	0.921	correct	generate	Run2	generate/STIM_021.jpg
1267.043	0.889	correct	generate	Run2	generate/STIM_021.jpg
1271.16	1.054	incorrect	generate	Run2	generate/STIM_021.jpg
1274.33	1.182	correct	generate	Run2	generate/STIM_021.jpg
1278.402	0.79	correct	generate	Run2	generate/STIM_021.jpg
1281.412	1.33	incorrect	generate	Run2	generate/STIM_022.jpg
1285.208	1.04	correct	generate	Run2	generate/STIM_022.jpg
1288.837	1.615	correct	generate	Run2	generate/STIM_022.jpg
1294.285	1.242	correct	generate	Run2	generate/STIM_022.jpg
1297.943	0.856	correct	generate	Run2	generate/STIM_022.jpg
1301.021	0.991	correct	generate	Run2	generate/STIM_023.jpg
1305.037	1.582	correct	generate	Run2	generate/STIM_023.jpg
1310.191	1.277	correct	generate	Run2	generate/STIM_023.jpg
1314.251	0.883	correct	generate	Run2	generate/STIM_023.jpg
1317.449	1.428	correct	generate	Run2	generate/STIM_023.jpg
1321.401	1.026	correct	generate	Run2	generate/STIM_024.jpg
1325.779	1.249	correct	generate	Run2	generate/STIM_024.jpg
1330.767	0.787	incorrect	generate	Run2	generate/STIM_024.jpg
1334.068	0.948	correct	generate	Run2	generate/STIM_024.jpg
1338.503	0.687	correct	generate	Run2	generate/STIM_024.jpg
1343.033	0.622	correct	repeat	Run2	repeat/STIM_000.jpg
1346.89	0.588	correct	repeat	Run2	repeat/STIM_000.jpg
1351.374	0.715	correct	repeat	Run2	repeat/STIM_000.jpg
1355.992	0.523	correct	repeat	Run2	repeat/STIM_000.jpg
1360.364	0.663	correct	repeat	Run2	repeat/STIM_000.jpg
1363.065	0.712	correct	repeat	Run2	repeat/STIM_001.jpg
1366.295	0.59	correct	repeat	Run2	repeat/STIM_001.jpg
1369.335	0.403	correct	repeat	Run2	repeat/STIM_001.jpg
1373.261	0.371	correct	repeat	Run2	repeat/STIM_001.jpg
1377.396	0.654	correct	repeat	Run2	repeat/STIM_001.jpg
1381.331	0.54	correct	repeat	Run2	repeat/STIM_002.jpg
1384.233	0.555	correct	repeat	Run2	repeat/STIM_002.jpg
1386.859	0.46	correct	repeat	Run2	repeat/STIM_002.jpg
1391.04	0.657	correct	repeat	Run2	repeat/STIM_002.jpg
1394.984	0.531	correct	repeat	Run2	repeat/STIM_002.jpg
1397.997	0.521	correct	repeat	Run2	repeat/STIM_003.jpg
1401.364	0.385	correct	repeat	Run2	repeat/STIM_003.jpg
1405.201	0.367	correct	repeat	Run2	repeat/STIM_003.jpg
1408.287	0.392	correct	repeat	Run2	repeat/STIM_003.jpg
1410.81	0.572	correct	repeat	Run2	repeat/STIM_003.jpg
1413.551	0.457	correct	repeat	Run2	repeat/STIM_004.jpg
1416.251	0.483	correct	repeat	Run2	repeat/STIM_004.jpg
1419.861	0.558	correct	repeat	Run2	repeat/STIM_004.jpg
1422.422	0.63	correct	repeat	Run2	repeat/STIM_004.jpg
1426.095	0.534	correct	repeat	Run2	repeat/STIM_004.jpg
1430.205	0.452	correct	repeat	Run2	repeat/STIM_005.jpg
1433.878	0.686	correct	repeat	Run2	repeat/STIM_005.jpg
1437.38	0.589	correct	repeat	Run2	repeat/STIM_005.jpg
1441.215	0.395	correct	repeat	Run2	repeat/STIM_005.jpg
1443.879	0.711	correct	repeat	Run2	repeat/STIM_005.jpg
1447.366	0.66	correct	repeat	Run2	repeat/STIM_006.jpg
1451.183	0.48	correct	repeat	Run2	repeat/STIM_006.jpg
1455.587	0.441	correct	repeat	Run2	repeat/STIM_006.jpg
1458.673	0.418	correct	repeat	Run2	repeat/STIM_006.jpg
1461.287	0.632	incorrect	repeat	Run2	repeat/STIM_006.jpg
1464.641	0.545	correct	repeat	Run2	repeat/STIM_007.jpg
1468.039	0.686	correct	repeat	Run2	repeat/STIM_007.jpg
1472.205	0.57	correct	repeat	Run2	repeat/STIM_007.jpg
1475.829	0.425	correct	repeat	Run2	repeat/STIM_007.jpg
1479.797	0.395	incorrect	repeat	Run2	repeat/STIM_007.jpg
1482.841	0.43	correct	repeat	Run2	repeat/STIM_008.jpg
1486.624	0.445	correct	repeat	Run2	repeat/STIM_008.jpg
1489.804	0.513	correct	repeat	Run2	repeat/STIM_008.jpg
1494.12	0.694	correct	repeat	Run2	repeat/STIM_008.jpg
1498.481	0.44	correct	repeat	Run2	repeat/STIM_008.jpg
1502.1	0.626	correct	repeat	Run2	repeat/STIM_009.jpg
1506.591	0.414	correct	repeat	Run2	repeat/STIM_009.jpg
1510.445	0.574	correct	repeat	Run2	repeat/STIM_009.jpg
1514.875	0.691	correct	repeat	Run2	repeat/STIM_009.jpg
1518.16	0.575	correct	repeat	Run2	repeat/STIM_009.jpg
1521.752	0.654	correct	repeat	Run2	repeat/STIM_010.jpg
1524.662	0.72	correct	repeat	Run2	repeat/STIM_010.jpg
1529.061	0.631	correct	repeat	Run2	repeat/STIM_010.jpg
1532.489	0.581	correct	repeat	Run2	repeat/STIM_010.jpg
1536.979	0.717	correct	repeat	Run2	repeat/STIM_010.jpg
1539.774	0.574	correct	repeat	Run2	repeat/STIM_011.jpg
1542.662	0.702	correct	repeat	Run2	repeat/STIM_011.jpg
1547.036	0.562	correct	repeat	Run2	repeat/STIM_011.jpg
1549.644	0.634	correct	repeat	Run2	repeat/STIM_011.jpg
1552.983	0.623	correct	repeat	Run2	repeat/STIM_011.jpg
1556.129	0.676	correct	repeat	Run2	repeat/STIM_012.jpg
1560.557	0.583	correct	repeat	Run2	repeat/STIM_012.jpg
1564.264	0.375	correct	repeat	Run2	repeat/STIM_012.jpg
1567.894	0.365	correct	repeat	Run2	repeat/STIM_012.jpg
1571.624	0.699	correct	repeat	Run2	repeat/STIM_012.jpg
1575.535	0.588	correct	repeat	Run2	repeat/STIM_013.jpg
1579.638	0.667	correct	repeat	Run2	repeat/STIM_013.jpg
1582.623	0.619	correct	repeat	Run2	repeat/STIM_013.jpg
1585.441	0.591	correct	repeat	Run2	repeat/STIM_013.jpg
1589.738	0.71	correct	repeat	Run2	repeat/STIM_013.jpg
1593.291	0.512	correct	repeat	Run2	repeat/STIM_014.jpg
1597.156	0.508	correct	repeat	Run2	repeat/STIM_014.jpg
1601.283	0.616	correct	repeat	Run2	repeat/STIM_014.jpg
1605.469	0.684	correct	repeat	Run2	repeat/STIM_014.jpg
1608.247	0.513	correct	repeat	Run2	repeat/STIM_014.jpg
1611.451	1.418	correct	generate	Run3	generate/STIM_000.jpg
1614.879	1.258	correct	generate	Run3	generate/STIM_000.jpg
1619.501	0.773	correct	generate	Run3	generate/STIM_000.jpg
1623.085	1.358	correct	generate	Run3	generate/STIM_000.jpg
1628.362	1.134	correct	generate	Run3	generate/STIM_000.jpg
1632.471	1.132	correct	generate	Run3	generate/STIM_001.jpg
1636.265	0.89	correct	generate	Run3	generate/STIM_001.jpg
1640.262	1.124	correct	generate	Run3	generate/STIM_001.jpg
1644.435	1.252	correct	generate	Run3	generate/STIM_001.jpg
1647.802	1.018	correct	generate	Run3	generate/STIM_001.jpg
1651.354	1.018	correct	generate	Run3	generate/STIM_002.jpg
1654.827	1.511	correct	generate	Run3	generate/STIM_002.jpg
1659.118	1.018	correct	generate	Run3	generate/STIM_002.jpg
1662.868	1.512	correct	generate	Run3	generate/STIM_002.jpg
1667.923	1.118	correct	generate	Run3	generate/STIM_002.jpg
1671.348	1.388	correct	generate	Run3	generate/STIM_003.jpg
1676.183	1.076	correct	generate	Run3	generate/STIM_003.jpg
1680.707	1.276	correct	generate	Run3	generate/STIM_003.jpg
1685.9	0.717	correct	generate	Run3	generate/STIM_003.jpg
1688.992	1.157	correct	generate	Run3	generate/STIM_003.jpg
1694.059	1.099	correct	generate	Run3	generate/STIM_004.jpg
1698.966	0.925	correct	generate	Run3	generate/STIM_004.jpg
1701.931	1.372	correct	generate	Run3	generate/STIM_004.jpg
1705.793	1.074	correct	generate	Run3	generate/STIM_004.jpg
1709.45	0.671	correct	generate	Run3	generate/STIM_004.jpg
1712.964	1.131	correct	generate	Run3	generate/STIM_005.jpg
1716.461	1.135	correct	generate	Run3	generate/STIM_005.jpg
1720.342	0.99	correct	generate	Run3	generate/STIM_005.jpg
1724.6	0.716	correct	generate	Run3	generate/STIM_005.jpg
1727.639	1.09	correct	generate	Run3	generate/STIM_005.jpg
1731.892	0.636	correct	generate	Run3	generate/STIM_006.jpg
1735.844	1.381	correct	generate	Run3	generate/STIM_006.jpg
1739.398	0.894	correct	generate	Run3	generate/STIM_006.jpg
1743.091	1.345	correct	generate	Run3	generate/STIM_006.jpg
1748.259	1.153	correct	generate	Run3	generate/STIM_006.jpg
1752.137	1.23	correct	generate	Run3	generate/STIM_007.jpg
1755.581	1.027	correct	generate	Run3	generate/STIM_007.jpg
1760.43	0.944	correct	generate	Run3	generate/STIM_007.jpg
1764.804	0.751	incorrect	generate	Run3	generate/STIM_007.jpg
1768.513	0.632	correct	generate	Run3	generate/STIM_007.jpg
1773.049	1.153	incorrect	generate	Run3	generate/STIM_008.jpg
1777.782	0.838	correct	generate	Run3	generate/STIM_008.jpg
1781.097	1.124	incorrect	generate	Run3	generate/STIM_008.jpg
1784.495	1.464	correct	generate	Run3	generate/STIM_008.jpg
1789.142	0.719	correct	generate	Run3	generate/STIM_008.jpg
1792.221	1.14	correct	generate	Run3	generate/STIM_009.jpg
1797.35	1.21	correct	generate	Run3	generate/STIM_009.jpg
1801.257	1.12	correct	generate	Run3	generate/STIM_009.jpg
1806.202	0.69	correct	generate	Run3	generate/STIM_009.jpg
1810.164	0.944	correct	generate	Run3	generate/STIM_009.jpg
1813.199	0.988	correct	generate	Run3	generate/STIM_010.jpg
1817.045	0.635	correct	generate	Run3	generate/STIM_010.jpg
1820.78	1.293	correct	generate	Run3	generate/STIM_010.jpg
1825.323	1.014	correct	generate	Run3	generate/STIM_010.jpg
1829.785	1.064	correct	generate	Run3	generate/STIM_010.jpg
1834.074	1.459	correct	generate	Run3	generate/STIM_011.jpg
1838.237	0.61	correct	generate	Run3	generate/STIM_011.jpg
1840.931	1.211	correct	generate	Run3	generate/STIM_011.jpg
1845.533	1.254	correct	generate	Run3	generate/STIM_011.jpg
1849.942	1.439	incorrect	generate	Run3	generate/STIM_011.jpg
1854.765	1.404	correct	generate	Run3	generate/STIM_012.jpg
1858.415	1.465	correct	generate	Run3	generate/STIM_012.jpg
1862.002	1.298	correct	generate	Run3	generate/STIM_012.jpg
1866.058	0.68	correct	generate	Run3	generate/STIM_012.jpg
1868.998	1.2	correct	generate	Run3	generate/STIM_012.jpg
1872.634	1.378	incorrect	generate	Run3	generate/STIM_013.jpg
1877.244	1.273	correct	generate	Run3	generate/STIM_013.jpg
1882.202	0.977	correct	generate	Run3	generate/STIM_013.jpg
1885.85	1.363	correct	generate	Run3	generate/STIM_013.jpg
1889.303	1.172	correct	generate	Run3	generate/STIM_013.jpg
1892.811	1.464	correct	generate	Run3	generate/STIM_014.jpg
1897.748	0.645	correct	generate	Run3	generate/STIM_014.jpg
1901.416	0.822	correct	generate	Run3	generate/STIM_014.jpg
1905.445	1.402	correct	generate	Run3	generate/STIM_014.jpg
1910.09	0.742	correct	generate	Run3	generate/STIM_014.jpg
1913.988	1.38	correct	generate	Run3	generate/STIM_015.jpg
1919.282	1.447	correct	generate	Run3	generate/STIM_015.jpg
1923.105	1.479	correct	generate	Run3	generate/STIM_015.jpg
1926.851	1.163	correct	generate	Run3	generate/STIM_015.jpg
1930.204	1.47	correct	generate	Run3	generate/STIM_015.jpg
1935.157	0.917	correct	generate	Run3	generate/STIM_016.jpg
1939.886	0.821	correct	generate	Run3	generate/STIM_016.jpg
1942.814	0.663	correct	generate	Run3	generate/STIM_016.jpg
1945.798	0.682	correct	generate	Run3	generate/STIM_016.jpg
1950.294	1.207	correct	generate	Run3	generate/STIM_016.jpg
1954.603	0.702	correct	generate	Run3	generate/STIM_017.jpg
1958.625	0.715	correct	generate	Run3	generate/STIM_017.jpg
1962.165	0.66	correct	generate	Run3	generate/STIM_017.jpg
1965.94	1.072	correct	generate	Run3	generate/STIM_017.jpg
1970.655	0.624	correct	generate	Run3	generate/STIM_017.jpg
1973.723	0.939	correct	generate	Run3	generate/STIM_018.jpg
1976.946	0.872	correct	generate	Run3	generate/STIM_018.jpg
1981.651	0.721	correct	generate	Run3	generate/STIM_018.jpg
1986.054	1.497	correct	generate	Run3	generate/STIM_018.jpg
1989.766	1.485	correct	generate	Run3	generate/STIM_018.jpg
1994.507	0.789	correct	generate	Run3	generate/STIM_019.jpg
1998.481	0.816	correct	generate	Run3	generate/STIM_019.jpg
2002.504	0.786	correct	generate	Run3	generate/STIM_019.jpg
2005.831	0.777	correct	generate	Run3	generate/STIM_019.jpg
2009.626	1.386	correct	generate	Run3	generate/STIM_019.jpg
2013.544	1.078	correct	generate	Run3	generate/STIM_020.jpg
2017.069	1.097	correct	generate	Run3	generate/STIM_020.jpg
2021.727	1.067	correct	generate	Run3	generate/STIM_020.jpg
2026.572	1.214	correct	generate	Run3	generate/STIM_020.jpg
2029.836	1.24	correct	generate	Run3	generate/STIM_020.jpg
2035.069	0.694	correct	generate	Run3	generate/STIM_021.jpg
2038.842	0.809	correct	generate	Run3	generate/STIM_021.jpg
2043.023	0.948	correct	generate	Run3	generate/STIM_021.jpg
2046.458	1.014	correct	generate	Run3	generate/STIM_021.jpg
2049.598	1.341	correct	generate	Run3	generate/STIM_021.jpg
2053.22	0.846	correct	generate	Run3	generate/STIM_022.jpg
2057.999	0.641	correct	generate	Run3	generate/STIM_022.jpg
2061.549	0.833	correct	generate	Run3	generate/STIM_022.jpg
2065.377	0.668	incorrect	generate	Run3	generate/STIM_022.jpg
2070.01	0.732	correct	generate	Run3	generate/STIM_022.jpg
2073.672	0.653	correct	generate	Run3	generate/STIM_023.jpg
2077.381	1.476	incorrect	generate	Run3	generate/STIM_023.jpg
2082.145	0.761	correct	generate	Run3	generate/STIM_023.jpg
2086.849	0.734	correct	generate	Run3	generate/STIM_023.jpg
2089.606	1.302	correct	generate	Run3	generate/STIM_023.jpg
2094.428	0.751	correct	generate	Run3	generate/STIM_024.jpg
2098.121	0.773	correct	generate	Run3	generate/STIM_024.jpg
2102.853	1.204	correct	generate	Run3	generate/STIM_024.jpg
2107.564	0.789	correct	generate	Run3	generate/STIM_024.jpg
2111.962	0.995	correct	generate	Run3	generate/STIM_024.jpg
2116.842	0.392	correct	repeat	Run3	repeat/STIM_000.jpg
2120.007	0.709	correct	repeat	Run3	repeat/STIM_000.jpg
2123.583	0.574	correct	repeat	Run3	repeat/STIM_000.jpg
2128.143	0.505	correct	repeat	Run3	repeat/STIM_000.jpg
2131.696	0.66	incorrect	repeat	Run3	repeat/STIM_000.jpg
2134.825	0.459	correct	repeat	Run3	repeat/STIM_001.jpg
2138.359	0.433	correct	repeat	Run3	repeat/STIM_001.jpg
2141.801	0.665	correct	repeat	Run3	repeat/STIM_001.jpg
2146.331	0.644	correct	repeat	Run3	repeat/STIM_001.jpg
2149.192	0.52	correct	repeat	Run3	repeat/STIM_001.jpg
2153.363	0.589	correct	repeat	Run3	repeat/STIM_002.jpg
2156.718	0.633	correct	repeat	Run3	repeat/STIM_002.jpg
2160.948	0.66	correct	repeat	Run3	repeat/STIM_002.jpg
2165.253	0.692	correct	repeat	Run3	repeat/STIM_002.jpg
2168.673	0.544	correct	repeat	Run3	repeat/STIM_002.jpg
2171.489	0.534	correct	repeat	Run3	repeat/STIM_003.jpg
2174.839	0.485	correct	repeat	Run3	repeat/STIM_003.jpg
2178.137	0.595	correct	repeat	Run3	repeat/STIM_003.jpg
2181.739	0.605	correct	repeat	Run3	repeat/STIM_003.jpg
2185.939	0.425	correct	repeat	Run3	repeat/STIM_003.jpg
2189.469	0.477	correct	repeat	Run3	repeat/STIM_004.jpg
2193.229	0.535	correct	repeat	Run3	repeat/STIM_004.jpg
2197.315	0.698	correct	repeat	Run3	repeat/STIM_004.jpg
2200.673	0.381	correct	repeat	Run3	repeat/STIM_004.jpg
2204.054	0.468	correct	repeat	Run3	repeat/STIM_004.jpg
2207.9	0.611	correct	repeat	Run3	repeat/STIM_005.jpg
2210.536	0.509	correct	repeat	Run3	repeat/STIM_005.jpg
2213.185	0.386	correct	repeat	Run3	repeat/STIM_005.jpg
2217.305	0.57	correct	repeat	Run3	repeat/STIM_005.jpg
2219.95	0.394	correct	repeat	Run3	repeat/STIM_005.jpg
2223.84	0.589	correct	repeat	Run3	repeat/STIM_006.jpg
2227.63	0.649	correct	repeat	Run3	repeat/STIM_006.jpg
2231.702	0.44	correct	repeat	Run3	repeat/STIM_006.jpg
2234.713	0.61	correct	repeat	Run3	repeat/STIM_006.jpg
2237.458	0.56	correct	repeat	Run3	repeat/STIM_006.jpg
2241.299	0.39	correct	repeat	Run3	repeat/STIM_007.jpg
2244.646	0.507	correct	repeat	Run3	repeat/STIM_007.jpg
2247.267	0.537	correct	repeat	Run3	repeat/STIM_007.jpg
2250.606	0.657	correct	repeat	Run3	repeat/STIM_007.jpg
2254.206	0.654	correct	repeat	Run3	repeat/STIM_007.jpg
2258.043	0.716	correct	repeat	Run3	repeat/STIM_008.jpg
2261.227	0.536	correct	repeat	Run3	repeat/STIM_008.jpg
2265.287	0.363	correct	repeat	Run3	repeat/STIM_008.jpg
2268.719	0.474	correct	repeat	Run3	repeat/STIM_008.jpg
2272.875	0.412	correct	repeat	Run3	repeat/STIM_008.jpg
2276.207	0.481	correct	repeat	Run3	repeat/STIM_009.jpg
2280.452	0.365	correct	repeat	Run3	repeat/STIM_009.jpg
2283.767	0.486	correct	repeat	Run3	repeat/STIM_009.jpg
2287.611	0.42	correct	repeat	Run3	repeat/STIM_009.jpg
2291.105	0.492	correct	repeat	Run3	repeat/STIM_009.jpg
2293.729	0.703	correct	repeat	Run3	repeat/STIM_010.jpg
2297.002	0.448	correct	repeat	Run3	repeat/STIM_010.jpg
2300.909	0.559	correct	repeat	Run3	repeat/STIM_010.jpg
2304.935	0.643	correct	repeat	Run3	repeat/STIM_010.jpg
2308.408	0.552	correct	repeat	Run3	repeat/STIM_010.jpg
2312.489	0.648	correct	repeat	Run3	repeat/STIM_011.jpg
2316.649	0.515	correct	repeat	Run3	repeat/STIM_011.jpg
2320.411	0.648	correct	repeat	Run3	repeat/STIM_011.jpg
2324.746	0.569	correct	repeat	Run3	repeat/STIM_011.jpg
2327.804	0.529	correct	repeat	Run3	repeat/STIM_011.jpg
2331.025	0.518	correct	repeat	Run3	repeat/STIM_012.jpg
2334.298	0.4	correct	repeat	Run3	repeat/STIM_012.jpg
2338.023	0.58	correct	repeat	Run3	repeat/STIM_012.jpg
2342.28	0.707	correct	repeat	Run3	repeat/STIM_012.jpg
2346.122	0.603	correct	repeat	Run3	repeat/STIM_012.jpg
2349.988	0.637	correct	repeat	Run3	repeat/STIM_013.jpg
2352.898	0.43	correct	repeat	Run3	repeat/STIM_013.jpg
2355.448	0.561	correct	repeat	Run3	repeat/STIM_013.jpg
2359.307	0.377	correct	repeat	Run3	repeat/STIM_013.jpg
2363.643	0.648	correct	repeat	Run3	repeat/STIM_013.jpg
2367.368	0.381	correct	repeat	Run3	repeat/STIM_014.jpg
2370.09	0.708	correct	repeat	Run3	repeat/STIM_014.jpg
2374.402	0.7	correct	repeat	Run3	repeat/STIM_014.jpg
2377.48	0.411	correct	repeat	Run3	repeat/STIM_014.jpg
2380.898	0.713	correct	repeat	Run3	repeat/STIM_014.jpg
2385.609	1.153	correct	generate	Run4	generate/STIM_000.jpg
2389.8	1.189	correct	generate	Run4	generate/STIM_000.jpg
2393.803	0.95	correct	generate	Run4	generate/STIM_000.jpg
2397.472	1.018	correct	generate	Run4	generate/STIM_000.jpg
2401.456	0.618	correct	generate	Run4	generate/STIM_000.jpg
2406.023	0.958	correct	generate	Run4	generate/STIM_001.jpg
2410.087	1.417	correct	generate	Run4	generate/STIM_001.jpg
2415.252	1.345	correct	generate	Run4	generate/STIM_001.jpg
2418.667	0.832	correct	generate	Run4	generate/STIM_001.jpg
2421.62	1.155	correct	generate	Run4	generate/STIM_001.jpg
2425.016	1.191	correct	generate	Run4	generate/STIM_002.jpg
2428.259	1.108	correct	generate	Run4	generate/STIM_002.jpg
2431.506	1.439	correct	generate	Run4	generate/STIM_002.jpg
2435.192	1.493	correct	generate	Run4	generate/STIM_002.jpg
2439.254	1.351	correct	generate	Run4	generate/STIM_002.jpg
2443.987	1.419	correct	generate	Run4	generate/STIM_003.jpg
2447.487	1.315	correct	generate	Run4	generate/STIM_003.jpg
2451.74	1.497	correct	generate	Run4	generate/STIM_003.jpg
2456.379	0.822	correct	generate	Run4	generate/STIM_003.jpg
2460.177	1.414	correct	generate	Run4	generate/STIM_003.jpg
2464.787	1.334	correct	generate	Run4	generate/STIM_004.jpg
2468.493	1.488	correct	generate	Run4	generate/STIM_004.jpg
2472.868	1.393	correct	generate	Run4	generate/STIM_004.jpg
2477.26	0.994	correct	generate	Run4	generate/STIM_004.jpg
2480.335	1.146	correct	generate	Run4	generate/STIM_004.jpg
2483.694	0.853	correct	generate	Run4	generate/STIM_005.jpg
2488.108	1.348	correct	generate	Run4	generate/STIM_005.jpg
2491.475	1.477	correct	generate	Run4	generate/STIM_005.jpg
2496.371	1.325	correct	generate	Run4	generate/STIM_005.jpg
2499.762	1.256	correct	generate	Run4	generate/STIM_005.jpg
2504.155	0.827	correct	generate	Run4	generate/STIM_006.jpg
2507.778	1.326	correct	generate	Run4	generate/STIM_006.jpg
2511.561	1.077	correct	generate	Run4	generate/STIM_006.jpg
2515.375	1.452	correct	generate	Run4	generate/STIM_006.jpg
2519.785	1.41	correct	generate	Run4	generate/STIM_006.jpg
2524.156	1.257	correct	generate	Run4	generate/STIM_007.jpg
2528.781	0.638	correct	generate	Run4	generate/STIM_007.jpg
2533.25	0.633	correct	generate	Run4	generate/STIM_007.jpg
2537.6	0.765	correct	generate	Run4	generate/STIM_007.jpg
2542.026	1.215	correct	generate	Run4	generate/STIM_007.jpg
2546.135	1.036	correct	generate	Run4	generate/STIM_008.jpg
2550.442	1.007	correct	generate	Run4	generate/STIM_008.jpg
2553.94	0.709	correct	generate	Run4	generate/STIM_008.jpg
2557.251	0.665	correct	generate	Run4	generate/STIM_008.jpg
2561.066	0.781	correct	generate	Run4	generate/STIM_008.jpg
2565.294	0.608	correct	generate	Run4	generate/STIM_009.jpg
2569.487	1.149	correct	generate	Run4	generate/STIM_009.jpg
2573.604	1.009	correct	generate	Run4	generate/STIM_009.jpg
2578.335	1.351	incorrect	generate	Run4	generate/STIM_009.jpg
2582.179	0.924	correct	generate	Run4	generate/STIM_009.jpg
2585.239	1.464	correct	generate	Run4	generate/STIM_010.jpg
2589.577	0.925	correct	generate	Run4	generate/STIM_010.jpg
2593.335	0.741	incorrect	generate	Run4	generate/STIM_010.jpg
2597.695	1.336	correct	generate	Run4	generate/STIM_010.jpg
2601.709	1.284	correct	generate	Run4	generate/STIM_010.jpg
2606.401	0.987	correct	generate	Run4	generate/STIM_011.jpg
2610.51	0.654	correct	generate	Run4	generate/STIM_011.jpg
2614.411	1.052	correct	generate	Run4	generate/STIM_011.jpg
2618.114	1.359	correct	generate	Run4	generate/STIM_011.jpg
2621.855	0.894	correct	generate	Run4	generate/STIM_011.jpg
2625.09	0.932	correct	generate	Run4	generate/STIM_012.jpg
2628.816	0.847	correct	generate	Run4	generate/STIM_012.jpg
2632.115	1.206	correct	generate	Run4	generate/STIM_012.jpg
2635.53	0.904	correct	generate	Run4	generate/STIM_012.jpg
2638.596	1.434	correct	generate	Run4	generate/STIM_012.jpg
2642.496	1.16	correct	generate	Run4	generate/STIM_013.jpg
2646.378	0.796	correct	generate	Run4	generate/STIM_013.jpg
2649.209	1.005	correct	generate	Run4	generate/STIM_013.jpg
2653.24	1.283	correct	generate	Run4	generate/STIM_013.jpg
2657.264	1.225	correct	generate	Run4	generate/STIM_013.jpg
2661.652	0.818	correct	generate	Run4	generate/STIM_014.jpg
2665.178	1.056	correct	generate	Run4	generate/STIM_014.jpg
2670.077	1.286	correct	generate	Run4	generate/STIM_014.jpg
2673.635	1.101	correct	generate	Run4	generate/STIM_014.jpg
2678.672	0.694	correct	generate	Run4	generate/STIM_014.jpg
2682.839	1.06	correct	generate	Run4	generate/STIM_015.jpg
2686.042	0.67	correct	generate	Run4	generate/STIM_015.jpg
2690.376	1.493	correct	generate	Run4	generate/STIM_015.jpg
2694.632	1.244	correct	generate	Run4	generate/STIM_015.jpg
2698.522	0.708	correct	generate	Run4	generate/STIM_015.jpg
2701.303	1.39	correct	generate	Run4	generate/STIM_016.jpg
2705.151	0.876	correct	generate	Run4	generate/STIM_016.jpg
2709.648	1.381	correct	generate	Run4	generate/STIM_016.jpg
2714.075	1.38	correct	generate	Run4	generate/STIM_016.jpg
2717.771	0.966	correct	generate	Run4	generate/STIM_016.jpg
2721.426	0.997	correct	generate	Run4	generate/STIM_017.jpg
2724.536	1.139	correct	generate	Run4	generate/STIM_017.jpg
2729.022	1.142	correct	generate	Run4	generate/STIM_017.jpg
2732.348	0.628	correct	generate	Run4	generate/STIM_017.jpg
2734.982	1.212	correct	generate	Run4	generate/STIM_017.jpg
2739.782	1.313	correct	generate	Run4	generate/STIM_018.jpg
2744.599	0.751	correct	generate	Run4	generate/STIM_018.jpg
2748.615	0.793	correct	generate	Run4	generate/STIM_018.jpg
2751.829	0.863	correct	generate	Run4	generate/STIM_018.jpg
2755.845	0.933	correct	generate	Run4	generate/STIM_018.jpg
2760.3	0.818	correct	generate	Run4	generate/STIM_019.jpg
2763.64	1.048	incorrect	generate	Run4	generate/STIM_019.jpg
2767.633	0.662	correct	generate	Run4	generate/STIM_019.jpg
2771.33	1.124	correct	generate	Run4	generate/STIM_019.jpg
2775.538	0.808	correct	generate	Run4	generate/STIM_019.jpg
2779.125	1.059	correct	generate	Run4	generate/STIM_020.jpg
2782.273	1.052	correct	generate	Run4	generate/STIM_020.jpg
2785.875	0.676	correct	generate	Run4	generate/STIM_020.jpg
2788.63	1.127	correct	generate	Run4	generate/STIM_020.jpg
2793.04	1.232	correct	generate	Run4	generate/STIM_020.jpg
2796.763	0.978	correct	generate	Run4	generate/STIM_021.jpg
2801.057	1.172	correct	generate	Run4	generate/STIM_021.jpg
2804.996	0.831	correct	generate	Run4	generate/STIM_021.jpg
2808.034	1.159	correct	generate	Run4	generate/STIM_021.jpg
2813.142	0.716	correct	generate	Run4	generate/STIM_021.jpg
2816.81	1.41	correct	generate	Run4	generate/STIM_022.jpg
2821.056	1.446	correct	generate	Run4	generate/STIM_022.jpg
2825.11	0.931	correct	generate	Run4	generate/STIM_022.jpg
2830.034	1.249	correct	generate	Run4	generate/STIM_022.jpg
2834.757	1.161	correct	generate	Run4	generate/STIM_022.jpg
2839.27	1.347	correct	generate	Run4	generate/STIM_023.jpg
2842.844	1.224	correct	generate	Run4	generate/STIM_023.jpg
2847.137	1.429	correct	generate	Run4	generate/STIM_023.jpg
2851.999	0.912	correct	generate	Run4	generate/STIM_023.jpg
2856.857	0.972	correct	generate	Run4	generate/STIM_023.jpg
2861.772	0.895	correct	generate	Run4	generate/STIM_024.jpg
2865.85	1.446	correct	generate	Run4	generate/STIM_024.jpg
2870.653	1.075	correct	generate	Run4	generate/STIM_024.jpg
2874.193	1.304	correct	generate	Run4	generate/STIM_024.jpg
2878.963	0.694	correct	generate	Run4	generate/STIM_024.jpg
2882.323	0.421	correct	repeat	Run4	repeat/STIM_000.jpg
2886.238	0.664	correct	repeat	Run4	repeat/STIM_000.jpg
2889.321	0.579	correct	repeat	Run4	repeat/STIM_000.jpg
2893.455	0.531	correct	repeat	Run4	repeat/STIM_000.jpg
2896.5	0.466	correct	repeat	Run4	repeat/STIM_000.jpg
2900.359	0.668	correct	repeat	Run4	repeat/STIM_001.jpg
2904.633	0.53	correct	repeat	Run4	repeat/STIM_001.jpg
2909.097	0.482	correct	repeat	Run4	repeat/STIM_001.jpg
2913.416	0.599	correct	repeat	Run4	repeat/STIM_001.jpg
2917.71	0.611	correct	repeat	Run4	repeat/STIM_001.jpg
2920.611	0.444	correct	repeat	Run4	repeat/STIM_002.jpg
2923.948	0.477	correct	repeat	Run4	repeat/STIM_002.jpg
2927.813	0.68	correct	repeat	Run4	repeat/STIM_002.jpg
2930.931	0.691	correct	repeat	Run4	repeat/STIM_002.jpg
2935.383	0.521	correct	repeat	Run4	repeat/STIM_002.jpg
2938.509	0.673	correct	repeat	Run4	repeat/STIM_003.jpg
2942.375	0.568	correct	repeat	Run4	repeat/STIM_003.jpg
2945.337	0.579	correct	repeat	Run4	repeat/STIM_003.jpg
2949.278	0.498	correct	repeat	Run4	repeat/STIM_003.jpg
2952.972	0.711	correct	repeat	Run4	repeat/STIM_003.jpg
2955.943	0.602	correct	repeat	Run4	repeat/STIM_004.jpg
2959.423	0.408	correct	repeat	Run4	repeat/STIM_004.jpg
2963.796	0.586	correct	repeat	Run4	repeat/STIM_004.jpg
2968.317	0.658	correct	repeat	Run4	repeat/STIM_004.jpg
2972.017	0.408	correct	repeat	Run4	repeat/STIM_004.jpg
2975.784	0.458	correct	repeat	Run4	repeat/STIM_005.jpg
2979.313	0.588	correct	repeat	Run4	repeat/STIM_005.jpg
2983.546	0.629	correct	repeat	Run4	repeat/STIM_005.jpg
2986.321	0.479	correct	repeat	Run4	repeat/STIM_005.jpg
2990.201	0.542	correct	repeat	Run4	repeat/STIM_005.jpg
2993.255	0.692	correct	repeat	Run4	repeat/STIM_006.jpg
2996.885	0.385	correct	repeat	Run4	repeat/STIM_006.jpg
3000.805	0.632	correct	repeat	Run4	repeat/STIM_006.jpg
3004.378	0.612	correct	repeat	Run4	repeat/STIM_006.jpg
3008.309	0.41	correct	repeat	Run4	repeat/STIM_006.jpg
3011.534	0.554	correct	repeat	Run4	repeat/STIM_007.jpg
3014.637	0.479	correct	repeat	Run4	repeat/STIM_007.jpg
3017.81	0.508	correct	repeat	Run4	repeat/STIM_007.jpg
3021.408	0.576	correct	repeat	Run4	repeat/STIM_007.jpg
3024.178	0.402	correct	repeat	Run4	repeat/STIM_007.jpg
3027.084	0.65	correct	repeat	Run4	repeat/STIM_008.jpg
3031.392	0.663	correct	repeat	Run4	repeat/STIM_008.jpg
3035.966	0.368	correct	repeat	Run4	repeat/STIM_008.jpg
3039.129	0.587	correct	repeat	Run4	repeat/STIM_008.jpg
3043.653	0.549	correct	repeat	Run4	repeat/STIM_008.jpg
3047.243	0.586	correct	repeat	Run4	repeat/STIM_009.jpg
3050.568	0.37	correct	repeat	Run4	repeat/STIM_009.jpg
3053.304	0.584	correct	repeat	Run4	repeat/STIM_009.jpg
3057.404	0.374	correct	repeat	Run4	repeat/STIM_009.jpg
3061.728	0.572	correct	repeat	Run4	repeat/STIM_009.jpg
3065.593	0.412	correct	repeat	Run4	repeat/STIM_010.jpg
3068.814	0.565	correct	repeat	Run4	repeat/STIM_010.jpg
3073.085	0.446	correct	repeat	Run4	repeat/STIM_010.jpg
3076.113	0.702	correct	repeat	Run4	repeat/STIM_010.jpg
3079.952	0.447	correct	repeat	Run4	repeat/STIM_010.jpg
3083.697	0.656	correct	repeat	Run4	repeat/STIM_011.jpg
3086.933	0.407	correct	repeat	Run4	repeat/STIM_011.jpg
3089.888	0.699	correct	repeat	Run4	repeat/STIM_011.jpg
3093.238	0.428	incorrect	repeat	Run4	repeat/STIM_011.jpg
3096.834	0.582	correct	repeat	Run4	repeat/STIM_011.jpg
3100.605	0.628	correct	repeat	Run4	repeat/STIM_012.jpg
3104.492	0.605	correct	repeat	Run4	repeat/STIM_012.jpg
3107.656	0.589	correct	repeat	Run4	repeat/STIM_012.jpg
3111.196	0.488	correct	repeat	Run4	repeat/STIM_012.jpg
3115.078	0.585	correct	repeat	Run4	repeat/STIM_012.jpg
3119.089	0.51	correct	repeat	Run4	repeat/STIM_013.jpg
3123.143	0.41	correct	repeat	Run4	repeat/STIM_013.jpg
3126.999	0.618	correct	repeat	Run4	repeat/STIM_013.jpg
3131.502	0.409	correct	repeat	Run4	repeat/STIM_013.jpg
3134.762	0.715	correct	repeat	Run4	repeat/STIM_013.jpg
3137.967	0.666	correct	repeat	Run4	repeat/STIM_014.jpg
3141.339	0.644	correct	repeat	Run4	repeat/STIM_014.jpg
3144.007	0.626	correct	repeat	Run4	repeat/STIM_014.jpg
3148.387	0.644	correct	repeat	Run4	repeat/STIM_014.jpg
3152.213	0.486	correct	repeat	Run4	repeat/STIM_014.jpg
