onset	duration	accuracy_binary	trial_type	learning_stage	stimulus
0.0	2.415	1	generate	Run1	generate/STIM_000.jpg
6.342	2.06	1	generate	Run1	generate/STIM_000.jpg
10.899	2.275	1	generate	Run1	generate/STIM_000.jpg
17.51	1.092	0	generate	Run1	generate/STIM_000.jpg
21.627	1.669	0	generate	Run1	generate/STIM_000.jpg
27.166	1.03	1	generate	Run1	generate/STIM_001.jpg
30.486	2.432	1	generate	Run1	generate/STIM_001.jpg
35.982	1.032	1	generate	Run1	generate/STIM_001.jpg
40.724	1.271	1	generate	Run1	generate/STIM_001.jpg
45.18	1.542	1	generate	Run1	generate/STIM_001.jpg
50.365	1.629	1	generate	Run1	generate/STIM_002.jpg
56.066	1.333	1	generate	Run1	generate/STIM_002.jpg
60.968	2.049	1	generate	Run1	generate/STIM_002.jpg
65.782	1.519	0	generate	Run1	generate/STIM_002.jpg
70.422	1.794	1	generate	Run1	generate/STIM_002.jpg
75.384	1.378	1	generate	Run1	generate/STIM_003.jpg
80.009	1.767	1	generate	Run1	generate/STIM_003.jpg
85.689	1.037	1	generate	Run1	generate/STIM_003.jpg
90.779	1.945	1	generate	Run1	generate/STIM_003.jpg
96.708	1.71	1	generate	Run1	generate/STIM_003.jpg
101.688	1.529	1	generate	Run1	generate/STIM_004.jpg
105.633	1.197	1	generate	Run1	generate/STIM_004.jpg
110.13	1.854	1	generate	Run1	generate/STIM_004.jpg
115.269	1.132	1	generate	Run1	generate/STIM_004.jpg
119.14	1.826	1	generate	Run1	generate/STIM_004.jpg
125.153	1.161	1	generate	Run1	generate/STIM_005.jpg
129.282	2.034	1	generate	Run1	generate/STIM_005.jpg
134.321	2.045	1	generate	Run1	generate/STIM_005.jpg
139.016	1.838	0	generate	Run1	generate/STIM_005.jpg
143.578	1.444	1	generate	Run1	generate/STIM_005.jpg
148.753	1.104	1	generate	Run1	generate/STIM_006.jpg
153.543	2.085	0	generate	Run1	generate/STIM_006.jpg
159.884	1.254	1	generate	Run1	generate/STIM_006.jpg
165.343	1.013	1	generate	Run1	generate/STIM_006.jpg
169.928	1.344	1	generate	Run1	generate/STIM_006.jpg
173.693	1.31	1	generate	Run1	generate/STIM_007.jpg
178.945	1.783	0	generate	Run1	generate/STIM_007.jpg
184.619	1.59	1	generate	Run1	generate/STIM_007.jpg
189.544	2.02	1	generate	Run1	generate/STIM_007.jpg
194.24	0.955	1	generate	Run1	generate/STIM_007.jpg
198.695	1.63	1	generate	Run1	generate/STIM_008.jpg
203.176	1.055	1	generate	Run1	generate/STIM_008.jpg
207.152	1.862	0	generate	Run1	generate/STIM_008.jpg
211.945	1.833	1	generate	Run1	generate/STIM_008.jpg
216.174	1.723	1	generate	Run1	generate/STIM_008.jpg
220.53	2.53	0	generate	Run1	generate/STIM_009.jpg
227.053	1.195	1	generate	Run1	generate/STIM_009.jpg
231.062	2.036	0	generate	Run1	generate/STIM_009.jpg
235.588	2.009	0	generate	Run1	generate/STIM_009.jpg
241.199	1.975	1	generate	Run1	generate/STIM_009.jpg
245.525	1.065	0	generate	Run1	generate/STIM_010.jpg
250.544	1.005	0	generate	Run1	generate/STIM_010.jpg
253.907	1.294	0	generate	Run1	generate/STIM_010.jpg
259.208	0.977	1	generate	Run1	generate/STIM_010.jpg
264.071	1.495	1	generate	Run1	generate/STIM_010.jpg
269.016	2.31	1	generate	Run1	generate/STIM_011.jpg
274.092	2.194	0	generate	Run1	generate/STIM_011.jpg
279.001	1.49	1	generate	Run1	generate/STIM_011.jpg
283.931	1.732	1	generate	Run1	generate/STIM_011.jpg
289.211	1.653	1	generate	Run1	generate/STIM_011.jpg
294.849	1.266	1	generate	Run1	generate/STIM_012.jpg
298.682	1.714	1	generate	Run1	generate/STIM_012.jpg
303.825	1.402	1	generate	Run1	generate/STIM_012.jpg
309.195	2.175	0	generate	Run1	generate/STIM_012.jpg
314.558	1.476	1	generate	Run1	generate/STIM_012.jpg
318.339	1.771	1	generate	Run1	generate/STIM_013.jpg
323.787	2.414	1	generate	Run1	generate/STIM_013.jpg
330.159	1.959	1	generate	Run1	generate/STIM_013.jpg
334.789	1.26	1	generate	Run1	generate/STIM_013.jpg
338.495	0.942	0	generate	Run1	generate/STIM_013.jpg
342.062	1.681	1	generate	Run1	generate/STIM_014.jpg
346.696	1.519	0	generate	Run1	generate/STIM_014.jpg
352.026	2.255	1	generate	Run1	generate/STIM_014.jpg
357.784	1.287	1	generate	Run1	generate/STIM_014.jpg
362.425	1.897	1	generate	Run1	generate/STIM_014.jpg
367.725	1.356	0	generate	Run1	generate/STIM_015.jpg
371.423	1.394	1	generate	Run1	generate/STIM_015.jpg
375.986	1.292	1	generate	Run1	generate/STIM_015.jpg
380.627	1.02	1	generate	Run1	generate/STIM_015.jpg
384.483	1.172	0	generate	Run1	generate/STIM_015.jpg
388.902	1.41	1	generate	Run1	generate/STIM_016.jpg
393.552	1.09	1	generate	Run1	generate/STIM_016.jpg
398.601	1.644	0	generate	Run1	generate/STIM_016.jpg
402.629	1.045	1	generate	Run1	generate/STIM_016.jpg
406.799	1.362	1	generate	Run1	generate/STIM_016.jpg
411.956	1.337	1	generate	Run1	generate/STIM_017.jpg
417.443	2.132	1	generate	Run1	generate/STIM_017.jpg
422.025	2.189	1	generate	Run1	generate/STIM_017.jpg
426.81	1.139	0	generate	Run1	generate/STIM_017.jpg
430.383	1.492	1	generate	Run1	generate/STIM_017.jpg
435.829	1.983	0	generate	Run1	generate/STIM_018.jpg
440.696	1.521	1	generate	Run1	generate/STIM_018.jpg
444.677	1.766	1	generate	Run1	generate/STIM_018.jpg
449.493	1.604	1	generate	Run1	generate/STIM_018.jpg
453.505	1.646	0	generate	Run1	generate/STIM_018.jpg
459.081	1.658	1	generate	Run1	generate/STIM_019.jpg
464.809	2.176	1	generate	Run1	generate/STIM_019.jpg
470.435	1.152	0	generate	Run1	generate/STIM_019.jpg
474.128	1.417	1	generate	Run1	generate/STIM_019.jpg
479.017	1.25	1	generate	Run1	generate/STIM_019.jpg
483.467	1.195	0	generate	Run1	generate/STIM_020.jpg
488.326	2.092	1	generate	Run1	generate/STIM_020.jpg
494.063	2.032	1	generate	Run1	generate/STIM_020.jpg
499.551	1.302	1	generate	Run1	generate/STIM_020.jpg
504.088	1.184	1	generate	Run1	generate/STIM_020.jpg
507.859	1.163	0	generate	Run1	generate/STIM_021.jpg
512.39	1.836	1	generate	Run1	generate/STIM_021.jpg
517.594	1.26	1	generate	Run1	generate/STIM_021.jpg
521.969	1.462	1	generate	Run1	generate/STIM_021.jpg
526.4	1.962	1	generate	Run1	generate/STIM_021.jpg
531.099	1.568	1	generate	Run1	generate/STIM_022.jpg
535.738	1.675	0	generate	Run1	generate/STIM_022.jpg
541.503	1.248	1	generate	Run1	generate/STIM_022.jpg
546.721	1.836	1	generate	Run1	generate/STIM_022.jpg
551.855	0.909	0	generate	Run1	generate/STIM_022.jpg
555.563	1.199	1	generate	Run1	generate/STIM_023.jpg
559.899	1.949	1	generate	Run1	generate/STIM_023.jpg
566.147	1.867	1	generate	Run1	generate/STIM_023.jpg
571.407	1.084	0	generate	Run1	generate/STIM_023.jpg
576.3	0.92	1	generate	Run1	generate/STIM_023.jpg
580.743	1.504	1	generate	Run1	generate/STIM_024.jpg
585.92	1.14	0	generate	Run1	generate/STIM_024.jpg
590.01	1.799	1	generate	Run1	generate/STIM_024.jpg
594.555	1.507	1	generate	Run1	generate/STIM_024.jpg
599.813	1.258	0	generate	Run1	generate/STIM_024.jpg
603.914	0.827	1	repeat	Run1	repeat/STIM_000.jpg
608.403	0.64	1	repeat	Run1	repeat/STIM_000.jpg
611.564	0.705	1	repeat	Run1	repeat/STIM_000.jpg
615.6	0.676	1	repeat	Run1	repeat/STIM_000.jpg
620.352	0.708	1	repeat	Run1	repeat/STIM_000.jpg
624.051	0.604	0	repeat	Run1	repeat/STIM_001.jpg
627.033	0.656	1	repeat	Run1	repeat/STIM_001.jpg
630.364	0.468	1	repeat	Run1	repeat/STIM_001.jpg
634.103	0.799	1	repeat	Run1	repeat/STIM_001.jpg
638.868	0.471	1	repeat	Run1	repeat/STIM_001.jpg
643.226	0.493	1	repeat	Run1	repeat/STIM_002.jpg
647.666	0.787	1	repeat	Run1	repeat/STIM_002.jpg
651.72	0.627	1	repeat	Run1	repeat/STIM_002.jpg
655.534	0.643	1	repeat	Run1	repeat/STIM_002.jpg
659.85	0.764	1	repeat	Run1	repeat/STIM_002.jpg
663.211	0.604	1	repeat	Run1	repeat/STIM_003.jpg
666.924	0.814	1	repeat	Run1	repeat/STIM_003.jpg
670.329	0.73	1	repeat	Run1	repeat/STIM_003.jpg
673.675	0.844	1	repeat	Run1	repeat/STIM_003.jpg
677.416	0.623	1	repeat	Run1	repeat/STIM_003.jpg
680.812	0.692	1	repeat	Run1	repeat/STIM_004.jpg
685.31	0.72	1	repeat	Run1	repeat/STIM_004.jpg
690.078	0.641	1	repeat	Run1	repeat/STIM_004.jpg
692.901	0.484	1	repeat	Run1	repeat/STIM_004.jpg
696.196	0.809	1	repeat	Run1	repeat/STIM_004.jpg
699.697	0.646	1	repeat	Run1	repeat/STIM_005.jpg
702.564	0.551	0	repeat	Run1	repeat/STIM_005.jpg
706.902	0.698	1	repeat	Run1	repeat/STIM_005.jpg
710.546	0.515	1	repeat	Run1	repeat/STIM_005.jpg
714.323	0.658	1	repeat	Run1	repeat/STIM_005.jpg
718.674	0.451	1	repeat	Run1	repeat/STIM_006.jpg
722.619	0.463	1	repeat	Run1	repeat/STIM_006.jpg
726.126	0.553	1	repeat	Run1	repeat/STIM_006.jpg
729.58	0.436	1	repeat	Run1	repeat/STIM_006.jpg
732.454	0.556	1	repeat	Run1	repeat/STIM_006.jpg
736.038	0.524	1	repeat	Run1	repeat/STIM_007.jpg
740.138	0.727	1	repeat	Run1	repeat/STIM_007.jpg
744.166	0.809	1	repeat	Run1	repeat/STIM_007.jpg
747.527	0.515	1	repeat	Run1	repeat/STIM_007.jpg
751.121	0.609	1	repeat	Run1	repeat/STIM_007.jpg
755.789	0.573	1	repeat	Run1	repeat/STIM_008.jpg
760.297	0.5	1	repeat	Run1	repeat/STIM_008.jpg
763.812	0.617	1	repeat	Run1	repeat/STIM_008.jpg
766.965	0.713	1	repeat	Run1	repeat/STIM_008.jpg
771.552	0.836	1	repeat	Run1	repeat/STIM_008.jpg
776.191	0.818	1	repeat	Run1	repeat/STIM_009.jpg
779.488	0.77	1	repeat	Run1	repeat/STIM_009.jpg
784.262	0.532	1	repeat	Run1	repeat/STIM_009.jpg
787.713	0.475	1	repeat	Run1	repeat/STIM_009.jpg
792.212	0.491	1	repeat	Run1	repeat/STIM_009.jpg
795.667	0.661	1	repeat	Run1	repeat/STIM_010.jpg
799.998	0.649	1	repeat	Run1	repeat/STIM_010.jpg
803.61	0.692	1	repeat	Run1	repeat/STIM_010.jpg
807.227	0.559	1	repeat	Run1	repeat/STIM_010.jpg
810.113	0.586	1	repeat	Run1	repeat/STIM_010.jpg
814.186	0.671	1	repeat	Run1	repeat/STIM_011.jpg
817.441	0.8	1	repeat	Run1	repeat/STIM_011.jpg
822.254	0.571	1	repeat	Run1	repeat/STIM_011.jpg
826.671	0.599	1	repeat	Run1	repeat/STIM_011.jpg
830.548	0.747	1	repeat	Run1	repeat/STIM_011.jpg
834.582	0.467	1	repeat	Run1	repeat/STIM_012.jpg
838.672	0.828	1	repeat	Run1	repeat/STIM_012.jpg
843.599	0.596	1	repeat	Run1	repeat/STIM_012.jpg
846.921	0.731	0	repeat	Run1	repeat/STIM_012.jpg
850.233	0.56	1	repeat	Run1	repeat/STIM_012.jpg
854.132	0.455	1	repeat	Run1	repeat/STIM_013.jpg
857.626	0.722	1	repeat	Run1	repeat/STIM_013.jpg
860.782	0.646	1	repeat	Run1	repeat/STIM_013.jpg
864.489	0.597	1	repeat	Run1	repeat/STIM_013.jpg
868.487	0.571	0	repeat	Run1	repeat/STIM_013.jpg
872.659	0.773	1	repeat	Run1	repeat/STIM_014.jpg
876.815	0.708	0	repeat	Run1	repeat/STIM_014.jpg
881.381	0.555	1	repeat	Run1	repeat/STIM_014.jpg
884.832	0.662	1	repeat	Run1	repeat/STIM_014.jpg
888.48	0.434	1	repeat	Run1	repeat/STIM_014.jpg
891.425	2.126	1	generate	Run2	generate/STIM_000.jpg
897.525	1.574	1	generate	Run2	generate/STIM_000.jpg
902.264	1.683	1	generate	Run2	generate/STIM_000.jpg
906.832	0.887	1	generate	Run2	generate/STIM_000.jpg
909.901	0.736	1	generate	Run2	generate/STIM_000.jpg
913.527	1.543	1	generate	Run2	generate/STIM_001.jpg
918.955	0.961	0	generate	Run2	generate/STIM_001.jpg
923.719	1.058	1	generate	Run2	generate/STIM_001.jpg
927.982	0.995	0	generate	Run2	generate/STIM_001.jpg
931.737	1.635	1	generate	Run2	generate/STIM_001.jpg
936.688	1.277	1	generate	Run2	generate/STIM_002.jpg
941.948	0.847	1	generate	Run2	generate/STIM_002.jpg
945.432	1.895	1	generate	Run2	generate/STIM_002.jpg
951.045	0.991	1	generate	Run2	generate/STIM_002.jpg
955.404	1.676	0	generate	Run2	generate/STIM_002.jpg
961.204	2.001	1	generate	Run2	generate/STIM_003.jpg
966.053	1.916	1	generate	Run2	generate/STIM_003.jpg
970.878	1.026	1	generate	Run2	generate/STIM_003.jpg
975.034	1.277	0	generate	Run2	generate/STIM_003.jpg
980.405	1.424	1	generate	Run2	generate/STIM_003.jpg
984.948	1.116	1	generate	Run2	generate/STIM_004.jpg
989.807	0.908	1	generate	Run2	generate/STIM_004.jpg
993.846	1.252	1	generate	Run2	generate/STIM_004.jpg
998.873	1.544	1	generate	Run2	generate/STIM_004.jpg
1002.793	0.85	1	generate	Run2	generate/STIM_004.jpg
1006.336	1.098	1	generate	Run2	generate/STIM_005.jpg
1010.009	0.93	1	generate	Run2	generate/STIM_005.jpg
1013.218	1.256	1	generate	Run2	generate/STIM_005.jpg
1018.045	1.718	1	generate	Run2	generate/STIM_005.jpg
1023.67	0.964	1	generate	Run2	generate/STIM_005.jpg
1027.737	1.75	1	generate	Run2	generate/STIM_006.jpg
1032.083	1.806	1	generate	Run2	generate/STIM_006.jpg
1037.693	1.172	0	generate	Run2	generate/STIM_006.jpg
1041.397	1.341	1	generate	Run2	generate/STIM_006.jpg
1046.867	1.314	1	generate	Run2	generate/STIM_006.jpg
1051.3	1.312	0	generate	Run2	generate/STIM_007.jpg
1056.171	1.285	1	generate	Run2	generate/STIM_007.jpg
1060.314	1.021	1	generate	Run2	generate/STIM_007.jpg
1063.934	1.427	1	generate	Run2	generate/STIM_007.jpg
1067.894	0.787	1	generate	Run2	generate/STIM_007.jpg
1071.902	1.997	1	generate	Run2	generate/STIM_008.jpg
1077.461	1.786	0	generate	Run2	generate/STIM_008.jpg
1081.566	1.031	1	generate	Run2	generate/STIM_008.jpg
1086.233	0.893	1	generate	Run2	generate/STIM_008.jpg
1090.746	0.832	1	generate	Run2	generate/STIM_008.jpg
1094.236	1.317	0	generate	Run2	generate/STIM_009.jpg
1099.765	1.601	0	generate	Run2	generate/STIM_009.jpg
1104.441	1.399	1	generate	Run2	generate/STIM_009.jpg
1109.667	1.75	1	generate	Run2	generate/STIM_009.jpg
1115.613	1.538	1	generate	Run2	generate/STIM_009.jpg
1120.574	2.094	1	generate	Run2	generate/STIM_010.jpg
1125.371	1.501	0	generate	Run2	generate/STIM_010.jpg
1129.675	1.836	0	generate	Run2	generate/STIM_010.jpg
1135.466	1.321	1	generate	Run2	generate/STIM_010.jpg
1140.31	0.844	1	generate	Run2	generate/STIM_010.jpg
1143.574	1.406	1	generate	Run2	generate/STIM_011.jpg
1148.057	1.942	0	generate	Run2	generate/STIM_011.jpg
1153.76	1.159	1	generate	Run2	generate/STIM_011.jpg
1157.348	1.475	1	generate	Run2	generate/STIM_011.jpg
1162.767	1.634	1	generate	Run2	generate/STIM_011.jpg
1167.554	0.975	1	generate	Run2	generate/STIM_012.jpg
1171.576	1.336	1	generate	Run2	generate/STIM_012.jpg
1175.457	1.081	0	generate	Run2	generate/STIM_012.jpg
1179.885	1.703	1	generate	Run2	generate/STIM_012.jpg
1185.266	1.691	0	generate	Run2	generate/STIM_012.jpg
1189.347	1.976	0	generate	Run2	generate/STIM_013.jpg
1194.252	1.942	1	generate	Run2	generate/STIM_013.jpg
1200.132	0.923	1	generate	Run2	generate/STIM_013.jpg
1205.059	0.934	0	generate	Run2	generate/STIM_013.jpg
1208.603	1.128	1	generate	Run2	generate/STIM_013.jpg
1213.492	1.485	1	generate	Run2	generate/STIM_014.jpg
1219.179	2.03	0	generate	Run2	generate/STIM_014.jpg
1225.409	1.727	1	generate	Run2	generate/STIM_014.jpg
1231.057	1.436	1	generate	Run2	generate/STIM_014.jpg
1235.985	1.124	1	generate	Run2	generate/STIM_014.jpg
1239.415	1.039	1	generate	Run2	generate/STIM_015.jpg
1244.538	1.236	1	generate	Run2	generate/STIM_015.jpg
1248.819	1.78	1	generate	Run2	generate/STIM_015.jpg
1254.47	1.733	1	generate	Run2	generate/STIM_015.jpg
1258.733	0.734	0	generate	Run2	generate/STIM_015.jpg
1262.901	1.453	1	generate	Run2	generate/STIM_016.jpg
1266.912	1.441	1	generate	Run2	generate/STIM_016.jpg
1271.219	1.31	1	generate	Run2	generate/STIM_016.jpg
1276.46	0.912	1	generate	Run2	generate/STIM_016.jpg
1279.672	1.712	1	generate	Run2	generate/STIM_016.jpg
1283.672	1.511	1	generate	Run2	generate/STIM_017.jpg
1288.749	1.463	1	generate	Run2	generate/STIM_017.jpg
1292.925	1.544	1	generate	Run2	generate/STIM_017.jpg
1296.915	1.609	1	generate	Run2	generate/STIM_017.jpg
1301.59	1.561	1	generate	Run2	generate/STIM_017.jpg
1306.91	1.513	0	generate	Run2	generate/STIM_018.jpg
1311.035	2.017	1	generate	Run2	generate/STIM_018.jpg
1317.048	1.207	1	generate	Run2	generate/STIM_018.jpg
1321.019	0.774	1	generate	Run2	generate/STIM_018.jpg
1324.913	1.02	0	generate	Run2	generate/STIM_018.jpg
1328.177	0.921	0	generate	Run2	generate/STIM_019.jpg
1332.774	1.907	0	generate	Run2	generate/STIM_019.jpg
1338.315	1.531	1	generate	Run2	generate/STIM_019.jpg
1343.092	1.029	1	generate	Run2	generate/STIM_019.jpg
1347.284	0.876	1	generate	Run2	generate/STIM_019.jpg
1351.155	1.568	1	generate	Run2	generate/STIM_020.jpg
1355.072	1.56	1	generate	Run2	generate/STIM_020.jpg
1360.623	1.269	1	generate	Run2	generate/STIM_020.jpg
1365.214	0.89	1	generate	Run2	generate/STIM_020.jpg
1370.209	1.731	1	generate	Run2	generate/STIM_020.jpg
1375.442	1.451	1	generate	Run2	generate/STIM_021.jpg
1380.167	1.953	1	generate	Run2	generate/STIM_021.jpg
1384.855	1.815	0	generate	Run2	generate/STIM_021.jpg
1390.516	0.73	0	generate	Run2	generate/STIM_021.jpg
1393.814	1.104	1	generate	Run2	generate/STIM_021.jpg
1398.115	1.439	0	generate	Run2	generate/STIM_022.jpg
1403.25	1.044	1	generate	Run2	generate/STIM_022.jpg
1407.869	1.55	0	generate	Run2	generate/STIM_022.jpg
1412.968	1.04	1	generate	Run2	generate/STIM_022.jpg
1416.531	1.198	1	generate	Run2	generate/STIM_022.jpg
1421.88	1.48	1	generate	Run2	generate/STIM_023.jpg
1426.358	1.426	1	generate	Run2	generate/STIM_023.jpg
1431.044	1.917	1	generate	Run2	generate/STIM_023.jpg
1435.811	1.005	1	generate	Run2	generate/STIM_023.jpg
1439.389	1.384	1	generate	Run2	generate/STIM_023.jpg
1444.1	0.984	1	generate	Run2	generate/STIM_024.jpg
1448.268	1.908	1	generate	Run2	generate/STIM_024.jpg
1454.094	0.92	0	generate	Run2	generate/STIM_024.jpg
1458.559	1.008	1	generate	Run2	generate/STIM_024.jpg
1462.659	0.81	1	generate	Run2	generate/STIM_024.jpg
1467.053	0.63	0	repeat	Run2	repeat/STIM_000.jpg
1470.724	0.444	1	repeat	Run2	repeat/STIM_000.jpg
1473.775	0.599	1	repeat	Run2	repeat/STIM_000.jpg
1477.411	0.643	1	repeat	Run2	repeat/STIM_000.jpg
1481.427	0.566	1	repeat	Run2	repeat/STIM_000.jpg
1484.754	0.617	1	repeat	Run2	repeat/STIM_001.jpg
1488.211	0.835	1	repeat	Run2	repeat/STIM_001.jpg
1492.366	0.512	1	repeat	Run2	repeat/STIM_001.jpg
1495.026	0.534	1	repeat	Run2	repeat/STIM_001.jpg
1499.529	0.511	1	repeat	Run2	repeat/STIM_001.jpg
1502.677	0.631	1	repeat	Run2	repeat/STIM_002.jpg
1505.605	0.489	1	repeat	Run2	repeat/STIM_002.jpg
1509.994	0.677	1	repeat	Run2	repeat/STIM_002.jpg
1514.516	0.6	1	repeat	Run2	repeat/STIM_002.jpg
1517.965	0.519	0	repeat	Run2	repeat/STIM_002.jpg
1520.829	0.739	1	repeat	Run2	repeat/STIM_003.jpg
1525.64	0.776	1	repeat	Run2	repeat/STIM_003.jpg
1529.885	0.835	1	repeat	Run2	repeat/STIM_003.jpg
1533.105	0.739	1	repeat	Run2	repeat/STIM_003.jpg
1536.728	0.537	1	repeat	Run2	repeat/STIM_003.jpg
1540.018	0.551	1	repeat	Run2	repeat/STIM_004.jpg
1543.786	0.84	1	repeat	Run2	repeat/STIM_004.jpg
1547.35	0.737	1	repeat	Run2	repeat/STIM_004.jpg
1551.012	0.829	0	repeat	Run2	repeat/STIM_004.jpg
1555.672	0.688	1	repeat	Run2	repeat/STIM_004.jpg
1560.099	0.522	1	repeat	Run2	repeat/STIM_005.jpg
1564.005	0.517	1	repeat	Run2	repeat/STIM_005.jpg
1567.007	0.514	1	repeat	Run2	repeat/STIM_005.jpg
1570.099	0.614	1	repeat	Run2	repeat/STIM_005.jpg
1573.696	0.665	1	repeat	Run2	repeat/STIM_005.jpg
1578.307	0.844	1	repeat	Run2	repeat/STIM_006.jpg
1582.223	0.71	1	repeat	Run2	repeat/STIM_006.jpg
1585.387	0.62	0	repeat	Run2	repeat/STIM_006.jpg
1588.929	0.517	1	repeat	Run2	repeat/STIM_006.jpg
1591.645	0.604	1	repeat	Run2	repeat/STIM_006.jpg
1594.941	0.465	0	repeat	Run2	repeat/STIM_007.jpg
1599.196	0.854	1	repeat	Run2	repeat/STIM_007.jpg
1603.84	0.593	1	repeat	Run2	repeat/STIM_007.jpg
1607.62	0.649	1	repeat	Run2	repeat/STIM_007.jpg
1611.873	0.78	1	repeat	Run2	repeat/STIM_007.jpg
1615.678	0.72	1	repeat	Run2	repeat/STIM_008.jpg
1619.233	0.609	1	repeat	Run2	repeat/STIM_008.jpg
1623.16	0.472	1	repeat	Run2	repeat/STIM_008.jpg
1626.814	0.599	1	repeat	Run2	repeat/STIM_008.jpg
1631.385	0.643	1	repeat	Run2	repeat/STIM_008.jpg
1635.388	0.712	1	repeat	Run2	repeat/STIM_009.jpg
1639.21	0.846	1	repeat	Run2	repeat/STIM_009.jpg
1643.517	0.718	1	repeat	Run2	repeat/STIM_009.jpg
1646.44	0.454	1	repeat	Run2	repeat/STIM_009.jpg
1650.346	0.691	1	repeat	Run2	repeat/STIM_009.jpg
1654.586	0.635	1	repeat	Run2	repeat/STIM_010.jpg
1658.207	0.614	1	repeat	Run2	repeat/STIM_010.jpg
1661.736	0.504	1	repeat	Run2	repeat/STIM_010.jpg
1665.746	0.506	1	repeat	Run2	repeat/STIM_010.jpg
1669.908	0.828	1	repeat	Run2	repeat/STIM_010.jpg
1674.854	0.704	1	repeat	Run2	repeat/STIM_011.jpg
1678.742	0.629	1	repeat	Run2	repeat/STIM_011.jpg
1683.21	0.545	1	repeat	Run2	repeat/STIM_011.jpg
1686.212	0.498	1	repeat	Run2	repeat/STIM_011.jpg
1689.948	0.578	1	repeat	Run2	repeat/STIM_011.jpg
1694.325	0.74	1	repeat	Run2	repeat/STIM_012.jpg
1699.117	0.841	1	repeat	Run2	repeat/STIM_012.jpg
1703.419	0.559	1	repeat	Run2	repeat/STIM_012.jpg
1706.254	0.646	1	repeat	Run2	repeat/STIM_012.jpg
1709.361	0.56	1	repeat	Run2	repeat/STIM_012.jpg
1713.97	0.71	1	repeat	Run2	repeat/STIM_013.jpg
1717.73	0.691	1	repeat	Run2	repeat/STIM_013.jpg
1722.022	0.858	1	repeat	Run2	repeat/STIM_013.jpg
1725.314	0.651	1	repeat	Run2	repeat/STIM_013.jpg
1729.847	0.457	1	repeat	Run2	repeat/STIM_013.jpg
1732.66	0.817	1	repeat	Run2	repeat/STIM_014.jpg
1735.765	0.662	1	repeat	Run2	repeat/STIM_014.jpg
1740.095	0.478	1	repeat	Run2	repeat/STIM_014.jpg
1742.797	0.804	1	repeat	Run2	repeat/STIM_014.jpg
1747.647	0.758	1	repeat	Run2	repeat/STIM_014.jpg
1750.854	1.036	0	generate	Run3	generate/STIM_000.jpg
1755.944	1.378	1	generate	Run3	generate/STIM_000.jpg
1760.008	1.123	1	generate	Run3	generate/STIM_000.jpg
1763.38	1.546	1	generate	Run3	generate/STIM_000.jpg
1767.737	1.206	0	generate	Run3	generate/STIM_000.jpg
1772.869	1.3	1	generate	Run3	generate/STIM_001.jpg
1776.423	1.124	1	generate	Run3	generate/STIM_001.jpg
1780.6	1.277	1	generate	Run3	generate/STIM_001.jpg
1786.034	1.12	1	generate	Run3	generate/STIM_001.jpg
1789.966	0.952	1	generate	Run3	generate/STIM_001.jpg
1793.234	0.744	1	generate	Run3	generate/STIM_002.jpg
1797.637	1.045	1	generate	Run3	generate/STIM_002.jpg
1801.111	1.307	1	generate	Run3	generate/STIM_002.jpg
1804.846	1.488	1	generate	Run3	generate/STIM_002.jpg
1810.457	1.329	0	generate	Run3	generate/STIM_002.jpg
1815.148	1.312	1	generate	Run3	generate/STIM_003.jpg
1819.415	1.503	1	generate	Run3	generate/STIM_003.jpg
1824.936	0.804	1	generate	Run3	generate/STIM_003.jpg
1827.884	1.64	1	generate	Run3	generate/STIM_003.jpg
1833.732	1.039	1	generate	Run3	generate/STIM_003.jpg
1838.221	1.59	1	generate	Run3	generate/STIM_004.jpg
1844.061	1.639	1	generate	Run3	generate/STIM_004.jpg
1849.405	1.655	1	generate	Run3	generate/STIM_004.jpg
1853.999	1.089	1	generate	Run3	generate/STIM_004.jpg
1857.942	1.517	1	generate	Run3	generate/STIM_004.jpg
1862.962	1.46	1	generate	Run3	generate/STIM_005.jpg
1867.76	1.121	1	generate	Run3	generate/STIM_005.jpg
1872.688	0.862	1	generate	Run3	generate/STIM_005.jpg
1876.581	1.38	1	generate	Run3	generate/STIM_005.jpg
1881.997	1.719	1	generate	Run3	generate/STIM_005.jpg
1886.869	1.613	1	generate	Run3	generate/STIM_006.jpg
1892.613	1.266	1	generate	Run3	generate/STIM_006.jpg
1897.548	1.207	1	generate	Run3	generate/STIM_006.jpg
1902.295	1.386	1	generate	Run3	generate/STIM_006.jpg
1907.495	1.255	1	generate	Run3	generate/STIM_006.jpg
1912.449	1.239	1	generate	Run3	generate/STIM_007.jpg
1917.75	1.431	1	generate	Run3	generate/STIM_007.jpg
1921.905	1.336	1	generate	Run3	generate/STIM_007.jpg
1927.213	1.202	0	generate	Run3	generate/STIM_007.jpg
1932.128	0.808	1	generate	Run3	generate/STIM_007.jpg
1936.793	1.378	1	generate	Run3	generate/STIM_008.jpg
1940.598	0.86	1	generate	Run3	generate/STIM_008.jpg
1943.614	0.861	1	generate	Run3	generate/STIM_008.jpg
1947.194	1.69	1	generate	Run3	generate/STIM_008.jpg
1951.794	1.417	1	generate	Run3	generate/STIM_008.jpg
1955.886	1.42	1	generate	Run3	generate/STIM_009.jpg
1960.753	1.152	1	generate	Run3	generate/STIM_009.jpg
1965.541	0.914	1	generate	Run3	generate/STIM_009.jpg
1969.903	1.361	1	generate	Run3	generate/STIM_009.jpg
1973.687	1.55	1	generate	Run3	generate/STIM_009.jpg
1978.474	1.21	1	generate	Run3	generate/STIM_010.jpg
1982.887	1.469	1	generate	Run3	generate/STIM_010.jpg
1988.457	1.344	1	generate	Run3	generate/STIM_010.jpg
1992.586	1.319	1	generate	Run3	generate/STIM_010.jpg
1996.9	1.591	1	generate	Run3	generate/STIM_010.jpg
2002.413	1.212	1	generate	Run3	generate/STIM_011.jpg
2007.142	1.682	1	generate	Run3	generate/STIM_011.jpg
2011.944	1.367	1	generate	Run3	generate/STIM_011.jpg
2017.024	1.103	1	generate	Run3	generate/STIM_011.jpg
2021.433	1.631	0	generate	Run3	generate/STIM_011.jpg
2026.567	1.744	1	generate	Run3	generate/STIM_012.jpg
2030.706	1.648	1	generate	Run3	generate/STIM_012.jpg
2034.66	1.781	1	generate	Run3	generate/STIM_012.jpg
2040.362	1.612	1	generate	Run3	generate/STIM_012.jpg
2044.677	1.259	1	generate	Run3	generate/STIM_012.jpg
2049.986	1.765	1	generate	Run3	generate/STIM_013.jpg
2054.765	1.652	1	generate	Run3	generate/STIM_013.jpg
2058.997	1.79	1	generate	Run3	generate/STIM_013.jpg
2064.009	0.832	1	generate	Run3	generate/STIM_013.jpg
2067.816	1.531	1	generate	Run3	generate/STIM_013.jpg
2073.163	0.905	1	generate	Run3	generate/STIM_014.jpg
2077.104	1.394	1	generate	Run3	generate/STIM_014.jpg
2081.143	1.527	1	generate	Run3	generate/STIM_014.jpg
2085.764	1.467	1	generate	Run3	generate/STIM_014.jpg
2091.015	1.396	1	generate	Run3	generate/STIM_014.jpg
2094.834	1.246	0	generate	Run3	generate/STIM_015.jpg
2099.505	1.587	0	generate	Run3	generate/STIM_015.jpg
2104.912	0.798	1	generate	Run3	generate/STIM_015.jpg
2109.66	1.008	1	generate	Run3	generate/STIM_015.jpg
2113.16	1.513	1	generate	Run3	generate/STIM_015.jpg
2117.059	1.539	1	generate	Run3	generate/STIM_016.jpg
2121.516	0.916	1	generate	Run3	generate/STIM_016.jpg
2125.361	0.856	1	generate	Run3	generate/STIM_016.jpg
2129.858	1.434	1	generate	Run3	generate/STIM_016.jpg
2134.31	1.015	1	generate	Run3	generate/STIM_016.jpg
2139.349	1.265	1	generate	Run3	generate/STIM_017.jpg
2143.066	1.405	1	generate	Run3	generate/STIM_017.jpg
2147.082	0.774	1	generate	Run3	generate/STIM_017.jpg
2151.804	0.741	1	generate	Run3	generate/STIM_017.jpg
2154.804	1.421	1	generate	Run3	generate/STIM_017.jpg
2160.019	1.645	1	generate	Run3	generate/STIM_018.jpg
2164.292	1.266	1	generate	Run3	generate/STIM_018.jpg
2169.655	1.281	1	generate	Run3	generate/STIM_018.jpg
2174.372	1.103	1	generate	Run3	generate/STIM_018.jpg
2178.97	1.038	1	generate	Run3	generate/STIM_018.jpg
2183.287	1.131	1	generate	Run3	generate/STIM_019.jpg
2188.064	1.629	0	generate	Run3	generate/STIM_019.jpg
2192.234	1.342	1	generate	Run3	generate/STIM_019.jpg
2196.839	1.638	1	generate	Run3	generate/STIM_019.jpg
2201.689	0.819	1	generate	Run3	generate/STIM_019.jpg
2205.332	1.323	1	generate	Run3	generate/STIM_020.jpg
2209.061	1.258	1	generate	Run3	generate/STIM_020.jpg
2212.599	1.764	1	generate	Run3	generate/STIM_020.jpg
2216.763	0.825	1	generate	Run3	generate/STIM_020.jpg
2220.171	1.209	1	generate	Run3	generate/STIM_020.jpg
2224.011	1.536	1	generate	Run3	generate/STIM_021.jpg
2228.131	0.745	1	generate	Run3	generate/STIM_021.jpg
2231.355	1.543	1	generate	Run3	generate/STIM_021.jpg
2235.73	1.387	1	generate	Run3	generate/STIM_021.jpg
2240.227	1.414	1	generate	Run3	generate/STIM_021.jpg
2244.862	0.821	1	generate	Run3	generate/STIM_022.jpg
2249.638	1.033	1	generate	Run3	generate/STIM_022.jpg
2253.874	0.781	1	generate	Run3	generate/STIM_022.jpg
2258.014	1.625	0	generate	Run3	generate/STIM_022.jpg
2262.877	1.134	1	generate	Run3	generate/STIM_022.jpg
2267.759	0.836	1	generate	Run3	generate/STIM_023.jpg
2272.115	1.512	0	generate	Run3	generate/STIM_023.jpg
2277.842	1.537	1	generate	Run3	generate/STIM_023.jpg
2283.018	0.956	1	generate	Run3	generate/STIM_023.jpg
2286.488	1.459	1	generate	Run3	generate/STIM_023.jpg
2290.199	1.152	1	generate	Run3	generate/STIM_024.jpg
2294.032	0.964	1	generate	Run3	generate/STIM_024.jpg
2297.741	0.926	1	generate	Run3	generate/STIM_024.jpg
2301.411	1.097	1	generate	Run3	generate/STIM_024.jpg
2305.564	1.58	1	generate	Run3	generate/STIM_024.jpg
2310.568	0.629	1	repeat	Run3	repeat/STIM_000.jpg
2313.747	0.541	1	repeat	Run3	repeat/STIM_000.jpg
2316.992	0.789	1	repeat	Run3	repeat/STIM_000.jpg
2320.726	0.567	1	repeat	Run3	repeat/STIM_000.jpg
2325.141	0.626	0	repeat	Run3	repeat/STIM_000.jpg
2329.204	0.501	1	repeat	Run3	repeat/STIM_001.jpg
2332.201	0.795	1	repeat	Run3	repeat/STIM_001.jpg
2336.404	0.772	1	repeat	Run3	repeat/STIM_001.jpg
2340.919	0.516	1	repeat	Run3	repeat/STIM_001.jpg
2345.192	0.856	1	repeat	Run3	repeat/STIM_001.jpg
2349.738	0.729	1	repeat	Run3	repeat/STIM_002.jpg
2353.576	0.559	1	repeat	Run3	repeat/STIM_002.jpg
2357.867	0.461	1	repeat	Run3	repeat/STIM_002.jpg
2361.818	0.855	1	repeat	Run3	repeat/STIM_002.jpg
2366.795	0.598	1	repeat	Run3	repeat/STIM_002.jpg
2370.866	0.742	1	repeat	Run3	repeat/STIM_003.jpg
2373.944	0.444	1	repeat	Run3	repeat/STIM_003.jpg
2378.355	0.496	1	repeat	Run3	repeat/STIM_003.jpg
2381.329	0.464	1	repeat	Run3	repeat/STIM_003.jpg
2385.335	0.806	1	repeat	Run3	repeat/STIM_003.jpg
2390.157	0.581	1	repeat	Run3	repeat/STIM_004.jpg
2392.835	0.618	1	repeat	Run3	repeat/STIM_004.jpg
2396.166	0.652	1	repeat	Run3	repeat/STIM_004.jpg
2400.567	0.828	1	repeat	Run3	repeat/STIM_004.jpg
2404.868	0.628	1	repeat	Run3	repeat/STIM_004.jpg
2407.616	0.634	1	repeat	Run3	repeat/STIM_005.jpg
2411.966	0.836	1	repeat	Run3	repeat/STIM_005.jpg
2415.008	0.713	1	repeat	Run3	repeat/STIM_005.jpg
2419.288	0.809	1	repeat	Run3	repeat/STIM_005.jpg
2423.58	0.66	0	repeat	Run3	repeat/STIM_005.jpg
2426.618	0.778	1	repeat	Run3	repeat/STIM_006.jpg
2431.305	0.778	1	repeat	Run3	repeat/STIM_006.jpg
2434.69	0.616	1	repeat	Run3	repeat/STIM_006.jpg
2437.819	0.792	1	repeat	Run3	repeat/STIM_006.jpg
2440.919	0.538	1	repeat	Run3	repeat/STIM_006.jpg
2443.554	0.635	1	repeat	Run3	repeat/STIM_007.jpg
2446.826	0.472	1	repeat	Run3	repeat/STIM_007.jpg
2451.177	0.54	0	repeat	Run3	repeat/STIM_007.jpg
2454.476	0.646	1	repeat	Run3	repeat/STIM_007.jpg
2458.026	0.802	1	repeat	Run3	repeat/STIM_007.jpg
2461.312	0.828	1	repeat	Run3	repeat/STIM_008.jpg
2464.753	0.538	1	repeat	Run3	repeat/STIM_008.jpg
2468.016	0.504	1	repeat	Run3	repeat/STIM_008.jpg
2471.253	0.524	1	repeat	Run3	repeat/STIM_008.jpg
2475.676	0.785	1	repeat	Run3	repeat/STIM_008.jpg
2480.434	0.605	1	repeat	Run3	repeat/STIM_009.jpg
2484.251	0.6	1	repeat	Run3	repeat/STIM_009.jpg
2487.292	0.527	1	repeat	Run3	repeat/STIM_009.jpg
2490.396	0.834	1	repeat	Run3	repeat/STIM_009.jpg
2494.226	0.717	1	repeat	Run3	repeat/STIM_009.jpg
2497.515	0.752	1	repeat	Run3	repeat/STIM_010.jpg
2500.911	0.507	1	repeat	Run3	repeat/STIM_010.jpg
2504.617	0.466	1	repeat	Run3	repeat/STIM_010.jpg
2509.057	0.742	1	repeat	Run3	repeat/STIM_010.jpg
2513.114	0.582	1	repeat	Run3	repeat/STIM_010.jpg
2517.688	0.792	1	repeat	Run3	repeat/STIM_011.jpg
2522.409	0.692	1	repeat	Run3	repeat/STIM_011.jpg
2526.013	0.477	1	repeat	Run3	repeat/STIM_011.jpg
2529.538	0.707	1	repeat	Run3	repeat/STIM_011.jpg
2533.884	0.781	1	repeat	Run3	repeat/STIM_011.jpg
2537.835	0.84	1	repeat	Run3	repeat/STIM_012.jpg
2542.08	0.729	1	repeat	Run3	repeat/STIM_012.jpg
2545.91	0.856	1	repeat	Run3	repeat/STIM_012.jpg
2549.191	0.797	1	repeat	Run3	repeat/STIM_012.jpg
2553.338	0.682	0	repeat	Run3	repeat/STIM_012.jpg
2557.503	0.854	1	repeat	Run3	repeat/STIM_013.jpg
2562.402	0.8	1	repeat	Run3	repeat/STIM_013.jpg
2566.967	0.504	1	repeat	Run3	repeat/STIM_013.jpg
2571.472	0.506	1	repeat	Run3	repeat/STIM_013.jpg
2574.929	0.726	1	repeat	Run3	repeat/STIM_013.jpg
2578.04	0.815	1	repeat	Run3	repeat/STIM_014.jpg
2582.038	0.678	1	repeat	Run3	repeat/STIM_014.jpg
2586.27	0.857	1	repeat	Run3	repeat/STIM_014.jpg
2589.824	0.608	1	repeat	Run3	repeat/STIM_014.jpg
2594.46	0.608	1	repeat	Run3	repeat/STIM_014.jpg
2597.861	0.918	1	generate	Run4	generate/STIM_000.jpg
2601.386	1.427	1	generate	Run4	generate/STIM_000.jpg
2605.684	1.083	1	generate	Run4	generate/STIM_000.jpg
2609.546	0.769	1	generate	Run4	generate/STIM_000.jpg
2613.331	1.152	1	generate	Run4	generate/STIM_000.jpg
2616.896	0.793	1	generate	Run4	generate/STIM_001.jpg
2619.866	1.641	1	generate	Run4	generate/STIM_001.jpg
2624.933	1.719	1	generate	Run4	generate/STIM_001.jpg
2630.776	1.408	1	generate	Run4	generate/STIM_001.jpg
2635.102	1.464	1	generate	Run4	generate/STIM_001.jpg
2639.215	0.918	1	generate	Run4	generate/STIM_002.jpg
2643.808	1.251	1	generate	Run4	generate/STIM_002.jpg
2648.89	1.233	1	generate	Run4	generate/STIM_002.jpg
2653.327	1.601	1	generate	Run4	generate/STIM_002.jpg
2658.385	1.449	1	generate	Run4	generate/STIM_002.jpg
2663.726	0.762	1	generate	Run4	generate/STIM_003.jpg
2666.959	1.155	1	generate	Run4	generate/STIM_003.jpg
2672.228	1.262	0	generate	Run4	generate/STIM_003.jpg
2675.833	1.459	1	generate	Run4	generate/STIM_003.jpg
2680.536	1.339	1	generate	Run4	generate/STIM_003.jpg
2684.57	1.16	1	generate	Run4	generate/STIM_004.jpg
2689.471	0.852	1	generate	Run4	generate/STIM_004.jpg
2694.255	1.375	1	generate	Run4	generate/STIM_004.jpg
2698.293	1.154	1	generate	Run4	generate/STIM_004.jpg
2702.792	1.57	1	generate	Run4	generate/STIM_004.jpg
2707.204	1.06	1	generate	Run4	generate/STIM_005.jpg
2710.904	1.618	1	generate	Run4	generate/STIM_005.jpg
2716.437	0.806	1	generate	Run4	generate/STIM_005.jpg
2721.038	1.4	1	generate	Run4	generate/STIM_005.jpg
2726.634	1.635	1	generate	Run4	generate/STIM_005.jpg
2731.214	1.014	1	generate	Run4	generate/STIM_006.jpg
2735.217	1.569	1	generate	Run4	generate/STIM_006.jpg
2740.794	1.098	1	generate	Run4	generate/STIM_006.jpg
2746.008	0.943	1	generate	Run4	generate/STIM_006.jpg
2750.255	0.739	0	generate	Run4	generate/STIM_006.jpg
2753.442	1.166	1	generate	Run4	generate/STIM_007.jpg
2758.618	0.865	1	generate	Run4	generate/STIM_007.jpg
2762.538	1.603	1	generate	Run4	generate/STIM_007.jpg
2767.885	1.555	1	generate	Run4	generate/STIM_007.jpg
2772.679	0.745	1	generate	Run4	generate/STIM_007.jpg
2775.911	1.237	1	generate	Run4	generate/STIM_008.jpg
2781.07	1.56	1	generate	Run4	generate/STIM_008.jpg
2785.995	1.094	1	generate	Run4	generate/STIM_008.jpg
2790.005	1.441	1	generate	Run4	generate/STIM_008.jpg
2795.23	1.156	1	generate	Run4	generate/STIM_008.jpg
2799.977	1.064	1	generate	Run4	generate/STIM_009.jpg
2805.158	1.602	1	generate	Run4	generate/STIM_009.jpg
2810.564	1.147	1	generate	Run4	generate/STIM_009.jpg
2815.768	1.419	0	generate	Run4	generate/STIM_009.jpg
2819.947	1.454	1	generate	Run4	generate/STIM_009.jpg
2824.424	1.803	1	generate	Run4	generate/STIM_010.jpg
2829.112	1.09	1	generate	Run4	generate/STIM_010.jpg
2833.105	1.05	0	generate	Run4	generate/STIM_010.jpg
2836.364	1.552	1	generate	Run4	generate/STIM_010.jpg
2841.837	0.793	0	generate	Run4	generate/STIM_010.jpg
2846.227	0.997	1	generate	Run4	generate/STIM_011.jpg
2850.788	1.562	1	generate	Run4	generate/STIM_011.jpg
2856.526	0.874	1	generate	Run4	generate/STIM_011.jpg
2859.858	0.792	1	generate	Run4	generate/STIM_011.jpg
2863.087	1.665	1	generate	Run4	generate/STIM_011.jpg
2867.895	1.698	1	generate	Run4	generate/STIM_012.jpg
2872.152	0.769	0	generate	Run4	generate/STIM_012.jpg
2875.423	1.07	1	generate	Run4	generate/STIM_012.jpg
2878.891	0.873	1	generate	Run4	generate/STIM_012.jpg
2883.516	1.746	1	generate	Run4	generate/STIM_012.jpg
2889.39	1.115	1	generate	Run4	generate/STIM_013.jpg
2893.911	1.376	1	generate	Run4	generate/STIM_013.jpg
2897.813	1.236	1	generate	Run4	generate/STIM_013.jpg
2901.408	1.011	1	generate	Run4	generate/STIM_013.jpg
2905.186	1.56	1	generate	Run4	generate/STIM_013.jpg
2910.297	0.862	1	generate	Run4	generate/STIM_014.jpg
2913.509	0.909	1	generate	Run4	generate/STIM_014.jpg
2917.003	1.795	1	generate	Run4	generate/STIM_014.jpg
2921.5	1.29	1	generate	Run4	generate/STIM_014.jpg
2925.648	1.791	1	generate	Run4	generate/STIM_014.jpg
2929.942	1.651	1	generate	Run4	generate/STIM_015.jpg
2935.274	1.244	1	generate	Run4	generate/STIM_015.jpg
2940.104	1.454	1	generate	Run4	generate/STIM_015.jpg
2945.683	1.661	1	generate	Run4	generate/STIM_015.jpg
2950.277	1.066	1	generate	Run4	generate/STIM_015.jpg
2954.924	1.231	1	generate	Run4	generate/STIM_016.jpg
2959.421	1.394	1	generate	Run4	generate/STIM_016.jpg
2963.496	0.989	1	generate	Run4	generate/STIM_016.jpg
2968.412	1.107	1	generate	Run4	generate/STIM_016.jpg
2971.707	1.643	1	generate	Run4	generate/STIM_016.jpg
2975.997	1.287	1	generate	Run4	generate/STIM_017.jpg
2981.011	1.578	1	generate	Run4	generate/STIM_017.jpg
2986.21	1.326	1	generate	Run4	generate/STIM_017.jpg
2990.249	1.483	1	generate	Run4	generate/STIM_017.jpg
2995.946	0.972	1	generate	Run4	generate/STIM_017.jpg
3000.728	1.666	1	generate	Run4	generate/STIM_018.jpg
3006.191	1.626	1	generate	Run4	generate/STIM_018.jpg
3012.009	1.644	1	generate	Run4	generate/STIM_018.jpg
3017.495	1.781	1	generate	Run4	generate/STIM_018.jpg
3022.661	0.741	1	generate	Run4	generate/STIM_018.jpg
3026.272	0.832	1	generate	Run4	generate/STIM_019.jpg
3031.216	1.067	0	generate	Run4	generate/STIM_019.jpg
3035.163	1.644	1	generate	Run4	generate/STIM_019.jpg
3039.709	1.225	1	generate	Run4	generate/STIM_019.jpg
3045.127	0.881	1	generate	Run4	generate/STIM_019.jpg
3049.646	1.099	1	generate	Run4	generate/STIM_020.jpg
3053.423	1.437	1	generate	Run4	generate/STIM_020.jpg
3058.057	1.255	1	generate	Run4	generate/STIM_020.jpg
3062.783	1.38	1	generate	Run4	generate/STIM_020.jpg
3066.655	1.701	1	generate	Run4	generate/STIM_020.jpg
3071.378	0.926	0	generate	Run4	generate/STIM_021.jpg
3074.644	1.249	1	generate	Run4	generate/STIM_021.jpg
3078.98	0.792	1	generate	Run4	generate/STIM_021.jpg
3082.103	1.139	1	generate	Run4	generate/STIM_021.jpg
3087.368	1.485	1	generate	Run4	generate/STIM_021.jpg
3091.553	1.419	1	generate	Run4	generate/STIM_022.jpg
3095.631	1.0	1	generate	Run4	generate/STIM_022.jpg
3100.488	1.392	1	generate	Run4	generate/STIM_022.jpg
3104.485	1.454	1	generate	Run4	generate/STIM_022.jpg
3108.667	1.405	1	generate	Run4	generate/STIM_022.jpg
3112.82	1.358	1	generate	Run4	generate/STIM_023.jpg
3116.446	1.628	1	generate	Run4	generate/STIM_023.jpg
3121.736	1.654	1	generate	Run4	generate/STIM_023.jpg
3127.256	0.966	1	generate	Run4	generate/STIM_023.jpg
3131.579	1.078	1	generate	Run4	generate/STIM_023.jpg
3134.884	1.718	1	generate	Run4	generate/STIM_024.jpg
3140.026	1.372	1	generate	Run4	generate/STIM_024.jpg
3144.033	1.05	1	generate	Run4	generate/STIM_024.jpg
3148.558	1.802	1	generate	Run4	generate/STIM_024.jpg
3154.449	1.407	1	generate	Run4	generate/STIM_024.jpg
3159.145	0.645	1	repeat	Run4	repeat/STIM_000.jpg
3162.822	0.585	1	repeat	Run4	repeat/STIM_000.jpg
3165.515	0.851	1	repeat	Run4	repeat/STIM_000.jpg
3168.936	0.554	1	repeat	Run4	repeat/STIM_000.jpg
3173.388	0.804	1	repeat	Run4	repeat/STIM_000.jpg
3176.415	0.495	1	repeat	Run4	repeat/STIM_001.jpg
3180.429	0.594	1	repeat	Run4	repeat/STIM_001.jpg
3184.137	0.501	1	repeat	Run4	repeat/STIM_001.jpg
3187.034	0.834	1	repeat	Run4	repeat/STIM_001.jpg
3191.538	0.662	1	repeat	Run4	repeat/STIM_001.jpg
3195.733	0.47	1	repeat	Run4	repeat/STIM_002.jpg
3200.223	0.519	1	repeat	Run4	repeat/STIM_002.jpg
3204.797	0.692	1	repeat	Run4	repeat/STIM_002.jpg
3208.254	0.664	1	repeat	Run4	repeat/STIM_002.jpg
3211.273	0.518	1	repeat	Run4	repeat/STIM_002.jpg
3215.307	0.847	1	repeat	Run4	repeat/STIM_003.jpg
3218.77	0.645	1	repeat	Run4	repeat/STIM_003.jpg
3221.649	0.444	1	repeat	Run4	repeat/STIM_003.jpg
3224.799	0.561	1	repeat	Run4	repeat/STIM_003.jpg
3227.862	0.477	1	repeat	Run4	repeat/STIM_003.jpg
3230.592	0.668	1	repeat	Run4	repeat/STIM_004.jpg
3233.618	0.463	1	repeat	Run4	repeat/STIM_004.jpg
3237.517	0.691	1	repeat	Run4	repeat/STIM_004.jpg
3241.142	0.548	1	repeat	Run4	repeat/STIM_004.jpg
3245.401	0.857	1	repeat	Run4	repeat/STIM_004.jpg
3248.586	0.672	1	repeat	Run4	repeat/STIM_005.jpg
3251.984	0.816	1	repeat	Run4	repeat/STIM_005.jpg
3256.153	0.578	1	repeat	Run4	repeat/STIM_005.jpg
3258.957	0.457	1	repeat	Run4	repeat/STIM_005.jpg
3262.627	0.723	1	repeat	Run4	repeat/STIM_005.jpg
3266.205	0.514	1	repeat	Run4	repeat/STIM_006.jpg
3270.288	0.563	1	repeat	Run4	repeat/STIM_006.jpg
3273.068	0.761	1	repeat	Run4	repeat/STIM_006.jpg
3277.744	0.816	1	repeat	Run4	repeat/STIM_006.jpg
3281.717	0.454	1	repeat	Run4	repeat/STIM_006.jpg
3284.969	0.474	1	repeat	Run4	repeat/STIM_007.jpg
3287.967	0.741	1	repeat	Run4	repeat/STIM_007.jpg
3292.789	0.647	1	repeat	Run4	repeat/STIM_007.jpg
3297.455	0.824	1	repeat	Run4	repeat/STIM_007.jpg
3301.836	0.522	1	repeat	Run4	repeat/STIM_007.jpg
3304.777	0.825	1	repeat	Run4	repeat/STIM_008.jpg
3308.883	0.512	1	repeat	Run4	repeat/STIM_008.jpg
3311.672	0.713	1	repeat	Run4	repeat/STIM_008.jpg
3314.513	0.599	1	repeat	Run4	repeat/STIM_008.jpg
3318.509	0.75	1	repeat	Run4	repeat/STIM_008.jpg
3321.645	0.468	1	repeat	Run4	repeat/STIM_009.jpg
3324.478	0.658	1	repeat	Run4	repeat/STIM_009.jpg
3327.946	0.455	1	repeat	Run4	repeat/STIM_009.jpg
3330.681	0.542	1	repeat	Run4	repeat/STIM_009.jpg
3334.797	0.518	1	repeat	Run4	repeat/STIM_009.jpg
3339.168	0.63	1	repeat	Run4	repeat/STIM_010.jpg
3342.324	0.746	1	repeat	Run4	repeat/STIM_010.jpg
3346.958	0.626	1	repeat	Run4	repeat/STIM_010.jpg
3349.82	0.702	1	repeat	Run4	repeat/STIM_010.jpg
3353.932	0.588	1	repeat	Run4	repeat/STIM_010.jpg
3356.685	0.765	1	repeat	Run4	repeat/STIM_011.jpg
3359.588	0.834	1	repeat	Run4	repeat/STIM_011.jpg
3362.826	0.554	1	repeat	Run4	repeat/STIM_011.jpg
3366.365	0.814	0	repeat	Run4	repeat/STIM_011.jpg
3370.366	0.644	1	repeat	Run4	repeat/STIM_011.jpg
3374.766	0.695	1	repeat	Run4	repeat/STIM_012.jpg
3378.94	0.765	1	repeat	Run4	repeat/STIM_012.jpg
3383.769	0.733	0	repeat	Run4	repeat/STIM_012.jpg
3388.247	0.846	1	repeat	Run4	repeat/STIM_012.jpg
3391.811	0.572	1	repeat	Run4	repeat/STIM_012.jpg
3394.858	0.857	1	repeat	Run4	repeat/STIM_013.jpg
3399.328	0.562	1	repeat	Run4	repeat/STIM_013.jpg
3403.212	0.444	1	repeat	Run4	repeat/STIM_013.jpg
3406.716	0.619	1	repeat	Run4	repeat/STIM_013.jpg
3409.798	0.598	1	repeat	Run4	repeat/STIM_013.jpg
3412.683	0.462	1	repeat	Run4	repeat/STIM_014.jpg
3417.075	0.616	0	repeat	Run4	repeat/STIM_014.jpg
3421.773	0.441	1	repeat	Run4	repeat/STIM_014.jpg
3426.212	0.639	1	repeat	Run4	repeat/STIM_014.jpg
3430.689	0.655	1	repeat	Run4	repeat/STIM_014.jpg
