onset	duration	response_time_ms	trial_type	learning_stage	stimulus	response_port
0.0	1.026	1026.1	study	Phase1	study/STIM_000.jpg	99
3.117	1.72	1720.5	study	Phase1	study/STIM_000.jpg	99
8.369	0.682	682.2	study	Phase1	study/STIM_000.jpg	99
12.349	1.572	1572.2	study	Phase1	study/STIM_001.jpg	99
16.648	1.208	1207.5	study	Phase1	study/STIM_001.jpg	99
21.281	0.955	955.0	study	Phase1	study/STIM_001.jpg	99
25.537	0.845	844.7	study	Phase1	study/STIM_002.jpg	100
30.135	0.787	787.4	study	Phase1	study/STIM_002.jpg	99
33.761	0.758	757.8	study	Phase1	study/STIM_002.jpg	99
37.777	1.437	1436.9	study	Phase1	study/STIM_003.jpg	100
41.793	1.433	1433.2	study	Phase1	study/STIM_003.jpg	100
45.534	1.608	1608.1	study	Phase1	study/STIM_003.jpg	100
50.543	1.514	1514.4	study	Phase1	study/STIM_004.jpg	100
54.354	0.983	983.3	study	Phase1	study/STIM_004.jpg	99
58.413	0.87	869.7	study	Phase1	study/STIM_004.jpg	100
61.945	0.824	824.2	study	Phase1	study/STIM_005.jpg	99
65.96	1.458	1458.5	study	Phase1	study/STIM_005.jpg	99
69.971	1.574	1573.5	study	Phase1	study/STIM_005.jpg	100
75.133	1.381	1380.9	study	Phase1	study/STIM_006.jpg	100
79.729	1.689	1688.8	study	Phase1	study/STIM_006.jpg	99
84.787	1.184	1183.5	study	Phase1	study/STIM_006.jpg	99
88.682	1.175	1174.6	study	Phase1	study/STIM_007.jpg	100
92.251	1.177	1177.3	study	Phase1	study/STIM_007.jpg	99
96.188	0.635	634.6	study	Phase1	study/STIM_007.jpg	99
99.909	1.514	1514.4	study	Phase1	study/STIM_008.jpg	99
104.239	1.364	1364.4	study	Phase1	study/STIM_008.jpg	99
108.127	0.755	755.2	study	Phase1	study/STIM_008.jpg	100
112.0	0.952	952.1	study	Phase1	study/STIM_009.jpg	100
116.509	1.287	1287.3	study	Phase1	study/STIM_009.jpg	99
120.82	0.804	804.4	study	Phase1	study/STIM_009.jpg	100
124.097	1.085	1085.2	study	Phase1	study/STIM_010.jpg	99
127.838	1.54	1540.4	study	Phase1	study/STIM_010.jpg	99
131.605	1.236	1236.3	study	Phase1	study/STIM_010.jpg	100
136.622	1.669	1668.6	study	Phase1	study/STIM_011.jpg	99
142.015	0.676	676.1	study	Phase1	study/STIM_011.jpg	99
145.047	0.896	895.9	study	Phase1	study/STIM_011.jpg	100
149.302	1.456	1456.2	study	Phase1	study/STIM_012.jpg	99
153.573	0.775	774.7	study	Phase1	study/STIM_012.jpg	100
158.072	1.521	1521.4	study	Phase1	study/STIM_012.jpg	100
163.315	1.651	1651.1	study	Phase1	study/STIM_013.jpg	99
168.228	0.979	978.9	study	Phase1	study/STIM_013.jpg	100
172.911	1.424	1423.7	study	Phase1	study/STIM_013.jpg	100
177.958	0.906	906.0	study	Phase1	study/STIM_014.jpg	100
181.329	1.446	1446.4	study	Phase1	study/STIM_014.jpg	99
185.952	1.593	1593.0	study	Phase1	study/STIM_014.jpg	99
190.661	1.424	1424.0	study	Phase1	study/STIM_015.jpg	99
194.253	0.927	926.9	study	Phase1	study/STIM_015.jpg	99
198.963	1.551	1550.7	study	Phase1	study/STIM_015.jpg	99
204.381	1.342	1341.5	study	Phase1	study/STIM_016.jpg	100
209.393	1.261	1261.0	study	Phase1	study/STIM_016.jpg	99
212.704	0.704	704.3	study	Phase1	study/STIM_016.jpg	99
215.582	1.557	1557.3	study	Phase1	study/STIM_017.jpg	99
220.035	1.434	1433.5	study	Phase1	study/STIM_017.jpg	99
223.962	1.272	1272.0	study	Phase1	study/STIM_017.jpg	99
227.217	1.048	1047.9	study	Phase1	study/STIM_018.jpg	99
231.325	0.846	846.3	study	Phase1	study/STIM_018.jpg	99
235.206	1.118	1118.0	study	Phase1	study/STIM_018.jpg	99
239.85	1.198	1198.0	study	Phase1	study/STIM_019.jpg	100
244.521	1.269	1268.9	study	Phase1	study/STIM_019.jpg	100
248.771	1.24	1239.9	study	Phase1	study/STIM_019.jpg	100
253.679	1.129	1129.3	study	Phase1	study/STIM_020.jpg	100
257.761	0.774	773.8	study	Phase1	study/STIM_020.jpg	99
260.817	1.018	1018.5	study	Phase1	study/STIM_020.jpg	99
264.301	0.871	870.8	study	Phase1	study/STIM_021.jpg	99
268.734	0.974	973.7	study	Phase1	study/STIM_021.jpg	99
272.674	1.026	1026.3	study	Phase1	study/STIM_021.jpg	99
276.086	1.587	1587.4	study	Phase1	study/STIM_022.jpg	100
280.593	1.471	1471.4	study	Phase1	study/STIM_022.jpg	100
284.209	1.452	1452.5	study	Phase1	study/STIM_022.jpg	99
289.083	1.408	1408.5	study	Phase1	study/STIM_023.jpg	100
293.352	1.426	1426.1	study	Phase1	study/STIM_023.jpg	99
296.862	1.538	1537.8	study	Phase1	study/STIM_023.jpg	99
302.045	1.2	1199.6	study	Phase1	study/STIM_024.jpg	100
306.37	0.921	921.1	study	Phase1	study/STIM_024.jpg	99
311.02	1.55	1550.0	study	Phase1	study/STIM_024.jpg	100
315.386	1.558	1557.6	study	Phase1	study/STIM_025.jpg	99
320.751	1.399	1399.2	study	Phase1	study/STIM_025.jpg	100
324.312	1.402	1401.7	study	Phase1	study/STIM_025.jpg	100
329.142	1.459	1459.4	study	Phase1	study/STIM_026.jpg	100
333.769	0.917	917.3	study	Phase1	study/STIM_026.jpg	99
336.969	1.156	1155.7	study	Phase1	study/STIM_026.jpg	99
340.375	1.025	1025.0	study	Phase1	study/STIM_027.jpg	99
343.983	1.326	1326.4	study	Phase1	study/STIM_027.jpg	99
349.27	0.79	790.0	study	Phase1	study/STIM_027.jpg	99
352.88	1.108	1107.7	study	Phase1	study/STIM_028.jpg	100
356.316	1.203	1202.6	study	Phase1	study/STIM_028.jpg	99
361.282	1.624	1623.9	study	Phase1	study/STIM_028.jpg	99
366.114	1.218	1218.3	study	Phase1	study/STIM_029.jpg	99
370.891	0.973	972.7	study	Phase1	study/STIM_029.jpg	99
374.666	1.303	1302.8	study	Phase1	study/STIM_029.jpg	100
379.228	1.263	1262.6	test	Phase1	test/STIM_000.jpg	100
382.743	0.622	621.6	test	Phase1	test/STIM_000.jpg	100
387.081	0.743	743.1	test	Phase1	test/STIM_000.jpg	100
390.794	1.112	1111.6	test	Phase1	test/STIM_001.jpg	99
394.395	0.738	737.8	test	Phase1	test/STIM_001.jpg	100
397.744	1.156	1156.5	test	Phase1	test/STIM_001.jpg	99
402.234	1.257	1256.6	test	Phase1	test/STIM_002.jpg	99
405.982	1.262	1261.9	test	Phase1	test/STIM_002.jpg	99
409.676	0.89	889.6	test	Phase1	test/STIM_002.jpg	99
413.756	0.969	968.8	test	Phase1	test/STIM_003.jpg	100
417.335	0.888	888.5	test	Phase1	test/STIM_003.jpg	99
420.681	0.801	800.6	test	Phase1	test/STIM_003.jpg	100
424.824	0.772	771.5	test	Phase1	test/STIM_004.jpg	99
428.156	1.132	1131.5	test	Phase1	test/STIM_004.jpg	99
432.584	0.887	886.8	test	Phase1	test/STIM_004.jpg	100
435.874	0.862	862.3	test	Phase1	test/STIM_005.jpg	100
440.312	0.728	728.0	test	Phase1	test/STIM_005.jpg	99
443.086	0.619	618.9	test	Phase1	test/STIM_005.jpg	100
446.336	1.175	1174.8	test	Phase1	test/STIM_006.jpg	100
451.053	1.123	1122.6	test	Phase1	test/STIM_006.jpg	100
455.181	1.224	1223.5	test	Phase1	test/STIM_006.jpg	100
459.399	1.196	1196.1	test	Phase1	test/STIM_007.jpg	99
463.919	0.682	682.3	test	Phase1	test/STIM_007.jpg	100
468.183	0.904	904.2	test	Phase1	test/STIM_007.jpg	100
472.681	0.858	858.1	test	Phase1	test/STIM_008.jpg	99
476.494	1.277	1277.3	test	Phase1	test/STIM_008.jpg	99
480.57	0.645	645.4	test	Phase1	test/STIM_008.jpg	100
484.909	0.909	908.7	test	Phase1	test/STIM_009.jpg	99
488.788	0.837	837.3	test	Phase1	test/STIM_009.jpg	100
492.34	1.318	1318.2	test	Phase1	test/STIM_009.jpg	100
497.245	1.042	1041.7	test	Phase1	test/STIM_010.jpg	100
502.061	0.598	597.6	test	Phase1	test/STIM_010.jpg	99
505.2	0.998	998.3	test	Phase1	test/STIM_010.jpg	100
509.622	1.168	1168.2	test	Phase1	test/STIM_011.jpg	99
513.589	1.01	1010.3	test	Phase1	test/STIM_011.jpg	100
517.149	0.66	660.0	test	Phase1	test/STIM_011.jpg	99
520.821	1.134	1133.5	test	Phase1	test/STIM_012.jpg	100
524.842	1.074	1073.7	test	Phase1	test/STIM_012.jpg	99
529.209	0.793	793.2	test	Phase1	test/STIM_012.jpg	100
532.639	1.115	1115.1	test	Phase1	test/STIM_013.jpg	99
536.31	0.667	666.6	test	Phase1	test/STIM_013.jpg	99
539.769	0.712	712.0	test	Phase1	test/STIM_013.jpg	100
542.548	0.916	916.5	test	Phase1	test/STIM_014.jpg	99
546.84	1.218	1218.4	test	Phase1	test/STIM_014.jpg	99
550.61	0.825	825.4	test	Phase1	test/STIM_014.jpg	100
554.842	0.903	902.9	test	Phase1	test/STIM_015.jpg	99
559.149	1.149	1148.8	test	Phase1	test/STIM_015.jpg	100
562.579	1.018	1017.6	test	Phase1	test/STIM_015.jpg	100
566.296	1.13	1129.9	test	Phase1	test/STIM_016.jpg	99
571.053	1.034	1034.3	test	Phase1	test/STIM_016.jpg	99
575.178	1.027	1026.7	test	Phase1	test/STIM_016.jpg	100
578.497	0.992	991.6	test	Phase1	test/STIM_017.jpg	100
582.399	0.546	546.3	test	Phase1	test/STIM_017.jpg	99
586.438	1.049	1049.1	test	Phase1	test/STIM_017.jpg	99
590.27	1.227	1227.4	test	Phase1	test/STIM_018.jpg	100
595.038	0.825	825.0	test	Phase1	test/STIM_018.jpg	99
599.367	1.009	1009.2	test	Phase1	test/STIM_018.jpg	100
604.185	0.696	696.2	test	Phase1	test/STIM_019.jpg	100
608.174	1.242	1241.9	test	Phase1	test/STIM_019.jpg	100
611.496	0.97	970.5	test	Phase1	test/STIM_019.jpg	100
615.651	0.826	825.9	test	Phase1	test/STIM_020.jpg	100
620.385	0.908	908.5	test	Phase1	test/STIM_020.jpg	100
624.487	0.828	828.4	test	Phase1	test/STIM_020.jpg	99
628.255	1.103	1102.6	test	Phase1	test/STIM_021.jpg	100
632.098	1.303	1302.7	test	Phase1	test/STIM_021.jpg	100
636.679	0.667	667.2	test	Phase1	test/STIM_021.jpg	99
640.571	0.642	642.3	test	Phase1	test/STIM_022.jpg	99
643.785	1.036	1036.4	test	Phase1	test/STIM_022.jpg	99
647.753	1.013	1012.7	test	Phase1	test/STIM_022.jpg	99
650.926	1.181	1180.7	test	Phase1	test/STIM_023.jpg	99
654.966	1.1	1100.5	test	Phase1	test/STIM_023.jpg	99
659.408	0.739	739.1	test	Phase1	test/STIM_023.jpg	99
662.256	1.248	1247.9	test	Phase1	test/STIM_024.jpg	99
667.372	1.25	1249.6	test	Phase1	test/STIM_024.jpg	99
670.834	0.981	980.6	test	Phase1	test/STIM_024.jpg	99
674.924	0.872	872.1	test	Phase1	test/STIM_025.jpg	99
679.155	1.33	1329.9	test	Phase1	test/STIM_025.jpg	100
683.091	1.25	1250.2	test	Phase1	test/STIM_025.jpg	100
688.176	1.273	1273.3	test	Phase1	test/STIM_026.jpg	100
692.729	1.074	1073.6	test	Phase1	test/STIM_026.jpg	99
696.141	1.119	1119.1	test	Phase1	test/STIM_026.jpg	100
700.646	1.053	1052.9	test	Phase1	test/STIM_027.jpg	99
705.242	0.878	878.5	test	Phase1	test/STIM_027.jpg	99
708.181	0.894	893.7	test	Phase1	test/STIM_027.jpg	99
711.614	0.819	818.9	test	Phase1	test/STIM_028.jpg	100
715.312	0.936	936.5	test	Phase1	test/STIM_028.jpg	99
719.202	1.154	1154.2	test	Phase1	test/STIM_028.jpg	99
723.638	1.259	1259.1	test	Phase1	test/STIM_029.jpg	100
727.837	1.016	1016.1	test	Phase1	test/STIM_029.jpg	99
731.354	1.112	1111.5	test	Phase1	test/STIM_029.jpg	100
735.136	1.32	1319.5	study	Phase2	study/STIM_000.jpg	100
739.157	1.044	1044.5	study	Phase2	study/STIM_000.jpg	99
742.874	0.981	981.1	study	Phase2	study/STIM_000.jpg	99
746.53	0.969	969.1	study	Phase2	study/STIM_001.jpg	100
751.141	1.1	1100.1	study	Phase2	study/STIM_001.jpg	99
754.346	1.158	1157.5	study	Phase2	study/STIM_001.jpg	100
758.657	1.367	1367.4	study	Phase2	study/STIM_002.jpg	100
763.266	1.148	1147.9	study	Phase2	study/STIM_002.jpg	99
767.65	1.002	1002.3	study	Phase2	study/STIM_002.jpg	99
770.887	1.052	1052.0	study	Phase2	study/STIM_003.jpg	99
775.323	1.188	1187.9	study	Phase2	study/STIM_003.jpg	100
778.698	1.402	1401.8	study	Phase2	study/STIM_003.jpg	100
783.996	0.716	715.9	study	Phase2	study/STIM_004.jpg	99
787.399	1.063	1062.7	study	Phase2	study/STIM_004.jpg	99
792.391	0.861	861.3	study	Phase2	study/STIM_004.jpg	99
796.494	1.268	1268.2	study	Phase2	study/STIM_005.jpg	99
800.145	0.904	903.9	study	Phase2	study/STIM_005.jpg	99
804.018	1.2	1199.7	study	Phase2	study/STIM_005.jpg	100
808.86	0.83	829.8	study	Phase2	study/STIM_006.jpg	100
812.854	1.277	1277.3	study	Phase2	study/STIM_006.jpg	99
817.98	1.104	1104.2	study	Phase2	study/STIM_006.jpg	100
822.561	1.255	1255.0	study	Phase2	study/STIM_007.jpg	99
827.665	1.146	1145.6	study	Phase2	study/STIM_007.jpg	99
832.455	1.208	1208.2	study	Phase2	study/STIM_007.jpg	99
836.285	1.437	1436.9	study	Phase2	study/STIM_008.jpg	100
841.004	0.946	946.3	study	Phase2	study/STIM_008.jpg	100
844.658	1.224	1224.5	study	Phase2	study/STIM_008.jpg	100
849.284	1.128	1128.3	study	Phase2	study/STIM_009.jpg	100
853.432	0.704	704.3	study	Phase2	study/STIM_009.jpg	100
858.109	1.212	1212.1	study	Phase2	study/STIM_009.jpg	99
863.163	1.312	1311.6	study	Phase2	study/STIM_010.jpg	100
867.713	1.042	1041.6	study	Phase2	study/STIM_010.jpg	100
872.306	0.708	707.8	study	Phase2	study/STIM_010.jpg	99
876.455	1.492	1492.4	study	Phase2	study/STIM_011.jpg	100
880.713	1.121	1120.9	study	Phase2	study/STIM_011.jpg	100
885.687	0.537	537.3	study	Phase2	study/STIM_011.jpg	100
888.301	1.263	1263.0	study	Phase2	study/STIM_012.jpg	100
893.44	0.718	718.3	study	Phase2	study/STIM_012.jpg	99
896.782	1.056	1055.9	study	Phase2	study/STIM_012.jpg	99
900.214	0.826	826.1	study	Phase2	study/STIM_013.jpg	100
903.158	0.839	838.8	study	Phase2	study/STIM_013.jpg	100
907.417	1.194	1193.9	study	Phase2	study/STIM_013.jpg	99
911.157	1.235	1235.4	study	Phase2	study/STIM_014.jpg	99
914.856	0.903	903.1	study	Phase2	study/STIM_014.jpg	99
917.911	1.119	1119.4	study	Phase2	study/STIM_014.jpg	100
922.974	1.421	1421.1	study	Phase2	study/STIM_015.jpg	100
927.062	0.927	927.4	study	Phase2	study/STIM_015.jpg	100
930.636	1.315	1315.1	study	Phase2	study/STIM_015.jpg	99
935.36	1.168	1167.6	study	Phase2	study/STIM_016.jpg	99
939.645	1.089	1089.1	study	Phase2	study/STIM_016.jpg	100
942.972	0.593	593.0	study	Phase2	study/STIM_016.jpg	99
946.596	0.821	821.3	study	Phase2	study/STIM_017.jpg	99
949.491	1.192	1192.5	study	Phase2	study/STIM_017.jpg	99
954.429	0.859	858.9	study	Phase2	study/STIM_017.jpg	99
958.277	1.187	1186.7	study	Phase2	study/STIM_018.jpg	100
961.639	1.358	1358.2	study	Phase2	study/STIM_018.jpg	99
965.661	1.281	1281.3	study	Phase2	study/STIM_018.jpg	100
969.866	1.272	1272.1	study	Phase2	study/STIM_019.jpg	100
973.837	0.932	931.5	study	Phase2	study/STIM_019.jpg	100
977.052	0.678	677.9	study	Phase2	study/STIM_019.jpg	100
980.372	0.784	783.6	study	Phase2	study/STIM_020.jpg	99
983.728	0.803	802.9	study	Phase2	study/STIM_020.jpg	99
988.355	0.722	722.2	study	Phase2	study/STIM_020.jpg	99
992.816	1.252	1251.5	study	Phase2	study/STIM_021.jpg	100
996.47	0.8	799.9	study	Phase2	study/STIM_021.jpg	100
1000.851	1.133	1133.2	study	Phase2	study/STIM_021.jpg	100
1004.547	1.142	1141.8	study	Phase2	study/STIM_022.jpg	100
1007.836	1.089	1088.8	study	Phase2	study/STIM_022.jpg	99
1011.33	0.735	734.6	study	Phase2	study/STIM_022.jpg	99
1015.994	1.058	1058.4	study	Phase2	study/STIM_023.jpg	100
1020.469	0.921	920.9	study	Phase2	study/STIM_023.jpg	99
1024.715	1.02	1020.0	study	Phase2	study/STIM_023.jpg	99
1027.886	1.127	1126.7	study	Phase2	study/STIM_024.jpg	100
1031.183	1.288	1288.3	study	Phase2	study/STIM_024.jpg	99
1034.736	0.93	930.4	study	Phase2	study/STIM_024.jpg	100
1038.187	1.27	1269.5	study	Phase2	study/STIM_025.jpg	100
1043.135	0.899	898.8	study	Phase2	study/STIM_025.jpg	100
1046.808	0.73	730.3	study	Phase2	study/STIM_025.jpg	99
1051.426	1.058	1057.6	study	Phase2	study/STIM_026.jpg	99
1054.788	1.33	1330.4	study	Phase2	study/STIM_026.jpg	100
1058.077	1.437	1436.7	study	Phase2	study/STIM_026.jpg	100
1062.346	1.388	1387.9	study	Phase2	study/STIM_027.jpg	100
1066.715	1.115	1115.2	study	Phase2	study/STIM_027.jpg	99
1070.064	0.785	784.6	study	Phase2	study/STIM_027.jpg	100
1073.634	0.902	901.5	study	Phase2	study/STIM_028.jpg	100
1077.256	0.998	997.5	study	Phase2	study/STIM_028.jpg	100
1080.546	1.108	1107.7	study	Phase2	study/STIM_028.jpg	99
1084.234	0.808	808.3	study	Phase2	study/STIM_029.jpg	99
1088.867	0.651	650.7	study	Phase2	study/STIM_029.jpg	99
1091.902	1.169	1169.3	study	Phase2	study/STIM_029.jpg	100
1096.517	1.056	1055.5	test	Phase2	test/STIM_000.jpg	100
1099.979	1.049	1049.3	test	Phase2	test/STIM_000.jpg	99
1103.506	0.751	751.4	test	Phase2	test/STIM_000.jpg	100
1107.806	1.04	1040.4	test	Phase2	test/STIM_001.jpg	99
1110.889	0.793	792.6	test	Phase2	test/STIM_001.jpg	100
1114.451	0.522	522.2	test	Phase2	test/STIM_001.jpg	100
1118.527	0.878	877.6	test	Phase2	test/STIM_002.jpg	100
1121.572	0.963	962.8	test	Phase2	test/STIM_002.jpg	99
1125.784	0.678	677.9	test	Phase2	test/STIM_002.jpg	99
1129.818	0.954	954.1	test	Phase2	test/STIM_003.jpg	99
1133.081	1.038	1038.0	test	Phase2	test/STIM_003.jpg	99
1137.921	0.65	650.5	test	Phase2	test/STIM_003.jpg	100
1142.442	0.784	784.2	test	Phase2	test/STIM_004.jpg	99
1145.197	0.612	611.7	test	Phase2	test/STIM_004.jpg	100
1149.352	0.663	662.6	test	Phase2	test/STIM_004.jpg	99
1152.288	0.715	714.8	test	Phase2	test/STIM_005.jpg	99
1155.683	0.748	748.5	test	Phase2	test/STIM_005.jpg	100
1159.833	0.77	770.1	test	Phase2	test/STIM_005.jpg	99
1163.066	0.81	810.0	test	Phase2	test/STIM_006.jpg	99
1167.791	0.792	792.1	test	Phase2	test/STIM_006.jpg	100
1171.914	1.192	1192.1	test	Phase2	test/STIM_006.jpg	99
1176.04	1.347	1346.8	test	Phase2	test/STIM_007.jpg	100
1180.341	1.051	1051.3	test	Phase2	test/STIM_007.jpg	99
1184.068	1.005	1005.1	test	Phase2	test/STIM_007.jpg	99
1187.202	1.155	1154.6	test	Phase2	test/STIM_008.jpg	100
1190.451	1.113	1113.4	test	Phase2	test/STIM_008.jpg	100
1194.775	0.915	915.0	test	Phase2	test/STIM_008.jpg	99
1198.716	1.164	1163.9	test	Phase2	test/STIM_009.jpg	100
1202.738	1.087	1087.1	test	Phase2	test/STIM_009.jpg	99
1205.981	0.819	819.2	test	Phase2	test/STIM_009.jpg	100
1210.331	1.205	1204.7	test	Phase2	test/STIM_010.jpg	100
1215.311	1.102	1101.6	test	Phase2	test/STIM_010.jpg	99
1219.659	0.654	653.6	test	Phase2	test/STIM_010.jpg	99
1223.111	0.955	954.7	test	Phase2	test/STIM_011.jpg	100
1227.272	0.784	783.5	test	Phase2	test/STIM_011.jpg	100
1230.243	0.555	554.8	test	Phase2	test/STIM_011.jpg	100
1234.361	1.082	1082.2	test	Phase2	test/STIM_012.jpg	100
1239.273	0.762	761.9	test	Phase2	test/STIM_012.jpg	100
1243.805	0.994	993.5	test	Phase2	test/STIM_012.jpg	100
1247.733	0.853	852.7	test	Phase2	test/STIM_013.jpg	99
1250.838	0.965	965.2	test	Phase2	test/STIM_013.jpg	99
1254.139	0.856	856.2	test	Phase2	test/STIM_013.jpg	99
1258.345	0.855	855.1	test	Phase2	test/STIM_014.jpg	100
1262.466	0.647	646.8	test	Phase2	test/STIM_014.jpg	99
1266.246	1.199	1198.8	test	Phase2	test/STIM_014.jpg	100
1270.499	1.064	1063.5	test	Phase2	test/STIM_015.jpg	99
1275.471	0.993	993.2	test	Phase2	test/STIM_015.jpg	99
1279.948	0.693	693.4	test	Phase2	test/STIM_015.jpg	100
1283.892	1.103	1102.7	test	Phase2	test/STIM_016.jpg	99
1287.363	1.313	1313.2	test	Phase2	test/STIM_016.jpg	100
1290.843	1.07	1070.5	test	Phase2	test/STIM_016.jpg	99
1295.026	0.982	981.6	test	Phase2	test/STIM_017.jpg	100
1298.129	1.115	1115.2	test	Phase2	test/STIM_017.jpg	100
1303.077	0.713	712.6	test	Phase2	test/STIM_017.jpg	99
1306.817	0.928	928.0	test	Phase2	test/STIM_018.jpg	100
1310.38	0.731	730.9	test	Phase2	test/STIM_018.jpg	99
1313.981	0.987	986.8	test	Phase2	test/STIM_018.jpg	100
1318.133	0.99	990.0	test	Phase2	test/STIM_019.jpg	99
1321.774	1.028	1028.3	test	Phase2	test/STIM_019.jpg	99
1325.939	0.955	954.8	test	Phase2	test/STIM_019.jpg	99
1330.31	0.692	691.7	test	Phase2	test/STIM_020.jpg	100
1333.663	1.231	1230.6	test	Phase2	test/STIM_020.jpg	99
1337.013	0.747	747.2	test	Phase2	test/STIM_020.jpg	100
1339.779	0.79	790.1	test	Phase2	test/STIM_021.jpg	100
1342.789	0.897	896.6	test	Phase2	test/STIM_021.jpg	99
1346.969	0.707	707.4	test	Phase2	test/STIM_021.jpg	99
1350.738	0.973	973.3	test	Phase2	test/STIM_022.jpg	99
1354.892	0.838	838.2	test	Phase2	test/STIM_022.jpg	99
1359.521	1.083	1083.2	test	Phase2	test/STIM_022.jpg	99
1363.857	0.604	604.1	test	Phase2	test/STIM_023.jpg	99
1366.823	1.096	1096.0	test	Phase2	test/STIM_023.jpg	100
1370.523	1.039	1039.1	test	Phase2	test/STIM_023.jpg	99
1374.872	0.926	925.9	test	Phase2	test/STIM_024.jpg	100
1378.554	1.108	1107.8	test	Phase2	test/STIM_024.jpg	100
1382.167	1.165	1165.2	test	Phase2	test/STIM_024.jpg	100
1385.552	0.549	549.1	test	Phase2	test/STIM_025.jpg	99
1388.527	0.638	637.5	test	Phase2	test/STIM_025.jpg	99
1391.856	1.166	1165.5	test	Phase2	test/STIM_025.jpg	99
1395.206	0.856	855.8	test	Phase2	test/STIM_026.jpg	100
1399.737	1.052	1051.8	test	Phase2	test/STIM_026.jpg	99
1403.182	0.999	998.7	test	Phase2	test/STIM_026.jpg	100
1407.651	1.367	1367.4	test	Phase2	test/STIM_027.jpg	100
1411.682	1.101	1100.6	test	Phase2	test/STIM_027.jpg	100
1414.953	0.903	903.3	test	Phase2	test/STIM_027.jpg	99
1418.656	1.202	1201.7	test	Phase2	test/STIM_028.jpg	99
1423.362	0.732	731.5	test	Phase2	test/STIM_028.jpg	99
1426.624	0.954	953.8	test	Phase2	test/STIM_028.jpg	100
1431.061	1.051	1050.6	test	Phase2	test/STIM_029.jpg	100
1434.189	0.55	549.5	test	Phase2	test/STIM_029.jpg	100
1438.483	1.004	1004.0	test	Phase2	test/STIM_029.jpg	99
1443.266	0.713	712.9	study	Phase3	study/STIM_000.jpg	100
1447.095	0.679	678.9	study	Phase3	study/STIM_000.jpg	100
1450.764	0.558	557.7	study	Phase3	study/STIM_000.jpg	99
1454.425	1.061	1061.2	study	Phase3	study/STIM_001.jpg	99
1458.57	1.031	1031.4	study	Phase3	study/STIM_001.jpg	100
1461.81	0.879	879.3	study	Phase3	study/STIM_001.jpg	100
1465.966	0.79	790.0	study	Phase3	study/STIM_002.jpg	100
1469.774	0.663	663.1	study	Phase3	study/STIM_002.jpg	100
1473.499	0.835	834.9	study	Phase3	study/STIM_002.jpg	100
1476.821	0.82	820.4	study	Phase3	study/STIM_003.jpg	100
1480.133	1.182	1181.6	study	Phase3	study/STIM_003.jpg	99
1484.941	1.271	1270.9	study	Phase3	study/STIM_003.jpg	99
1488.485	1.05	1050.1	study	Phase3	study/STIM_004.jpg	99
1492.75	0.672	671.5	study	Phase3	study/STIM_004.jpg	99
1496.132	0.831	831.1	study	Phase3	study/STIM_004.jpg	99
1499.791	1.076	1075.6	study	Phase3	study/STIM_005.jpg	99
1503.034	1.039	1039.1	study	Phase3	study/STIM_005.jpg	100
1507.715	1.071	1071.1	study	Phase3	study/STIM_005.jpg	100
1511.413	1.056	1056.5	study	Phase3	study/STIM_006.jpg	99
1515.822	0.684	684.3	study	Phase3	study/STIM_006.jpg	99
1519.134	0.983	982.7	study	Phase3	study/STIM_006.jpg	99
1522.77	0.996	995.6	study	Phase3	study/STIM_007.jpg	99
1527.545	1.025	1025.1	study	Phase3	study/STIM_007.jpg	100
1531.359	0.518	517.8	study	Phase3	study/STIM_007.jpg	100
1534.621	0.765	765.1	study	Phase3	study/STIM_008.jpg	99
1538.896	0.562	562.0	study	Phase3	study/STIM_008.jpg	100
1542.463	0.895	894.9	study	Phase3	study/STIM_008.jpg	100
1546.254	1.073	1072.6	study	Phase3	study/STIM_009.jpg	99
1550.085	1.054	1053.6	study	Phase3	study/STIM_009.jpg	100
1554.793	0.976	976.4	study	Phase3	study/STIM_009.jpg	100
1558.734	0.786	786.3	study	Phase3	study/STIM_010.jpg	100
1562.218	0.784	783.6	study	Phase3	study/STIM_010.jpg	100
1566.529	0.54	540.4	study	Phase3	study/STIM_010.jpg	99
1569.499	1.22	1220.5	study	Phase3	study/STIM_011.jpg	99
1573.542	1.296	1295.7	study	Phase3	study/STIM_011.jpg	99
1576.958	1.115	1115.0	study	Phase3	study/STIM_011.jpg	99
1580.545	0.954	953.5	study	Phase3	study/STIM_012.jpg	100
1583.838	1.242	1242.2	study	Phase3	study/STIM_012.jpg	99
1588.662	1.043	1042.7	study	Phase3	study/STIM_012.jpg	99
1591.806	1.266	1266.5	study	Phase3	study/STIM_013.jpg	100
1596.749	1.023	1022.8	study	Phase3	study/STIM_013.jpg	99
1601.506	1.194	1194.0	study	Phase3	study/STIM_013.jpg	100
1606.354	0.983	982.7	study	Phase3	study/STIM_014.jpg	99
1610.741	0.604	603.6	study	Phase3	study/STIM_014.jpg	99
1613.537	1.269	1269.1	study	Phase3	study/STIM_014.jpg	100
1617.129	1.209	1209.2	study	Phase3	study/STIM_015.jpg	100
1621.284	1.101	1101.1	study	Phase3	study/STIM_015.jpg	100
1625.441	1.04	1040.0	study	Phase3	study/STIM_015.jpg	99
1628.697	0.662	662.2	study	Phase3	study/STIM_016.jpg	100
1632.204	0.843	843.0	study	Phase3	study/STIM_016.jpg	99
1636.173	1.112	1112.1	study	Phase3	study/STIM_016.jpg	99
1639.782	1.006	1006.5	study	Phase3	study/STIM_017.jpg	99
1644.159	0.709	709.0	study	Phase3	study/STIM_017.jpg	99
1647.75	0.764	764.5	study	Phase3	study/STIM_017.jpg	99
1652.447	0.993	992.6	study	Phase3	study/STIM_018.jpg	100
1655.532	1.038	1038.1	study	Phase3	study/STIM_018.jpg	99
1658.692	0.721	720.7	study	Phase3	study/STIM_018.jpg	99
1661.732	1.015	1015.3	study	Phase3	study/STIM_019.jpg	99
1666.279	0.865	864.8	study	Phase3	study/STIM_019.jpg	99
1669.946	0.919	919.3	study	Phase3	study/STIM_019.jpg	99
1673.38	0.951	950.8	study	Phase3	study/STIM_020.jpg	99
1676.39	0.578	578.2	study	Phase3	study/STIM_020.jpg	100
1679.99	0.828	827.8	study	Phase3	study/STIM_020.jpg	99
1683.245	0.626	626.4	study	Phase3	study/STIM_021.jpg	100
1686.498	0.596	596.3	study	Phase3	study/STIM_021.jpg	100
1689.533	0.87	869.8	study	Phase3	study/STIM_021.jpg	99
1694.458	1.268	1268.4	study	Phase3	study/STIM_022.jpg	99
1699.111	0.792	791.9	study	Phase3	study/STIM_022.jpg	99
1702.817	0.768	768.5	study	Phase3	study/STIM_022.jpg	99
1705.961	0.975	974.7	study	Phase3	study/STIM_023.jpg	100
1710.23	0.725	724.6	study	Phase3	study/STIM_023.jpg	99
1714.174	1.021	1021.2	study	Phase3	study/STIM_023.jpg	99
1718.941	0.647	647.3	study	Phase3	study/STIM_024.jpg	100
1722.949	1.148	1148.0	study	Phase3	study/STIM_024.jpg	100
1726.751	0.708	707.6	study	Phase3	study/STIM_024.jpg	99
1731.33	0.767	766.9	study	Phase3	study/STIM_025.jpg	99
1735.671	0.604	603.5	study	Phase3	study/STIM_025.jpg	99
1738.912	1.072	1072.1	study	Phase3	study/STIM_025.jpg	99
1741.962	0.774	773.5	study	Phase3	study/STIM_026.jpg	99
1745.163	0.763	762.9	study	Phase3	study/STIM_026.jpg	100
1749.369	0.78	780.1	study	Phase3	study/STIM_026.jpg	100
1753.306	1.225	1224.8	study	Phase3	study/STIM_027.jpg	100
1756.924	1.145	1144.6	study	Phase3	study/STIM_027.jpg	100
1760.474	0.589	589.0	study	Phase3	study/STIM_027.jpg	99
1763.465	1.12	1120.1	study	Phase3	study/STIM_028.jpg	100
1767.077	1.203	1203.4	study	Phase3	study/STIM_028.jpg	99
1771.803	0.883	883.1	study	Phase3	study/STIM_028.jpg	100
1776.073	0.657	656.9	study	Phase3	study/STIM_029.jpg	100
1779.574	0.6	600.4	study	Phase3	study/STIM_029.jpg	100
1783.917	0.688	687.5	study	Phase3	study/STIM_029.jpg	100
1787.046	0.913	913.0	test	Phase3	test/STIM_000.jpg	100
1790.071	0.744	744.1	test	Phase3	test/STIM_000.jpg	100
1794.077	1.097	1096.7	test	Phase3	test/STIM_000.jpg	100
1798.225	1.238	1237.5	test	Phase3	test/STIM_001.jpg	99
1802.788	0.65	649.9	test	Phase3	test/STIM_001.jpg	100
1807.087	0.781	780.9	test	Phase3	test/STIM_001.jpg	100
1810.618	1.1	1100.1	test	Phase3	test/STIM_002.jpg	99
1813.772	1.263	1263.4	test	Phase3	test/STIM_002.jpg	99
1817.96	0.901	900.6	test	Phase3	test/STIM_002.jpg	100
1822.031	1.171	1170.8	test	Phase3	test/STIM_003.jpg	99
1825.356	1.079	1078.6	test	Phase3	test/STIM_003.jpg	99
1830.307	0.717	716.7	test	Phase3	test/STIM_003.jpg	99
1833.983	0.756	756.1	test	Phase3	test/STIM_004.jpg	99
1837.225	1.158	1158.5	test	Phase3	test/STIM_004.jpg	99
1841.2	1.096	1096.4	test	Phase3	test/STIM_004.jpg	99
1844.667	1.059	1058.9	test	Phase3	test/STIM_005.jpg	100
1848.776	1.313	1312.8	test	Phase3	test/STIM_005.jpg	100
1853.031	1.107	1107.0	test	Phase3	test/STIM_005.jpg	100
1857.907	1.086	1085.8	test	Phase3	test/STIM_006.jpg	100
1862.287	1.091	1091.3	test	Phase3	test/STIM_006.jpg	100
1866.529	1.186	1185.9	test	Phase3	test/STIM_006.jpg	100
1870.782	0.705	705.4	test	Phase3	test/STIM_007.jpg	100
1873.943	0.783	783.1	test	Phase3	test/STIM_007.jpg	99
1877.591	0.738	738.0	test	Phase3	test/STIM_007.jpg	99
1880.997	1.12	1119.7	test	Phase3	test/STIM_008.jpg	100
1884.562	1.006	1006.4	test	Phase3	test/STIM_008.jpg	100
1887.95	1.268	1267.5	test	Phase3	test/STIM_008.jpg	100
1891.523	0.821	820.9	test	Phase3	test/STIM_009.jpg	99
1894.685	1.284	1283.8	test	Phase3	test/STIM_009.jpg	99
1898.1	1.108	1107.5	test	Phase3	test/STIM_009.jpg	99
1901.631	0.995	994.9	test	Phase3	test/STIM_010.jpg	100
1905.493	0.907	906.8	test	Phase3	test/STIM_010.jpg	100
1909.159	1.095	1095.1	test	Phase3	test/STIM_010.jpg	100
1913.161	0.662	662.5	test	Phase3	test/STIM_011.jpg	100
1916.752	1.386	1386.1	test	Phase3	test/STIM_011.jpg	100
1921.202	0.698	697.6	test	Phase3	test/STIM_011.jpg	99
1925.51	0.609	608.9	test	Phase3	test/STIM_012.jpg	99
1928.222	0.76	759.9	test	Phase3	test/STIM_012.jpg	100
1932.914	0.653	653.4	test	Phase3	test/STIM_012.jpg	100
1937.576	1.003	1003.0	test	Phase3	test/STIM_013.jpg	99
1941.192	0.994	993.9	test	Phase3	test/STIM_013.jpg	100
1944.983	1.023	1023.2	test	Phase3	test/STIM_013.jpg	99
1948.783	1.078	1077.5	test	Phase3	test/STIM_014.jpg	99
1953.207	0.778	777.7	test	Phase3	test/STIM_014.jpg	99
1956.662	0.978	977.8	test	Phase3	test/STIM_014.jpg	99
1961.383	1.205	1204.9	test	Phase3	test/STIM_015.jpg	100
1966.119	0.709	709.1	test	Phase3	test/STIM_015.jpg	99
1970.464	0.698	697.5	test	Phase3	test/STIM_015.jpg	100
1974.369	1.079	1078.6	test	Phase3	test/STIM_016.jpg	100
1977.769	0.638	637.5	test	Phase3	test/STIM_016.jpg	99
1980.656	1.221	1221.4	test	Phase3	test/STIM_016.jpg	100
1985.111	1.235	1234.8	test	Phase3	test/STIM_017.jpg	99
1988.421	1.057	1057.0	test	Phase3	test/STIM_017.jpg	99
1992.084	0.728	728.1	test	Phase3	test/STIM_017.jpg	99
1995.915	0.736	735.7	test	Phase3	test/STIM_018.jpg	100
1999.971	0.829	829.4	test	Phase3	test/STIM_018.jpg	99
2003.048	1.073	1073.0	test	Phase3	test/STIM_018.jpg	100
2007.433	0.597	596.7	test	Phase3	test/STIM_019.jpg	99
2011.067	0.933	932.8	test	Phase3	test/STIM_019.jpg	99
2014.022	0.912	911.8	test	Phase3	test/STIM_019.jpg	100
2017.763	1.034	1034.1	test	Phase3	test/STIM_020.jpg	99
2021.331	0.947	946.9	test	Phase3	test/STIM_020.jpg	99
2025.414	1.234	1234.3	test	Phase3	test/STIM_020.jpg	99
2028.735	1.102	1102.1	test	Phase3	test/STIM_021.jpg	99
2032.452	1.263	1262.8	test	Phase3	test/STIM_021.jpg	99
2037.161	1.314	1313.5	test	Phase3	test/STIM_021.jpg	100
2040.547	0.858	858.4	test	Phase3	test/STIM_022.jpg	100
2043.6	1.368	1368.3	test	Phase3	test/STIM_022.jpg	100
2048.277	1.142	1142.3	test	Phase3	test/STIM_022.jpg	100
2052.595	0.658	657.8	test	Phase3	test/STIM_023.jpg	100
2055.994	1.033	1033.3	test	Phase3	test/STIM_023.jpg	100
2059.23	1.028	1027.9	test	Phase3	test/STIM_023.jpg	100
2062.937	0.736	735.6	test	Phase3	test/STIM_024.jpg	99
2065.746	1.046	1045.9	test	Phase3	test/STIM_024.jpg	100
2070.123	1.116	1115.8	test	Phase3	test/STIM_024.jpg	100
2073.977	0.609	608.6	test	Phase3	test/STIM_025.jpg	99
2077.481	1.221	1221.4	test	Phase3	test/STIM_025.jpg	99
2081.67	1.3	1300.3	test	Phase3	test/STIM_025.jpg	99
2086.363	1.063	1062.8	test	Phase3	test/STIM_026.jpg	99
2090.602	1.158	1157.5	test	Phase3	test/STIM_026.jpg	99
2094.662	1.085	1085.0	test	Phase3	test/STIM_026.jpg	100
2097.944	0.778	777.9	test	Phase3	test/STIM_027.jpg	99
2102.375	0.937	937.4	test	Phase3	test/STIM_027.jpg	99
2105.505	1.12	1119.8	test	Phase3	test/STIM_027.jpg	100
2108.657	1.167	1166.9	test	Phase3	test/STIM_028.jpg	100
2112.263	0.82	819.8	test	Phase3	test/STIM_028.jpg	100
2116.351	0.658	658.2	test	Phase3	test/STIM_028.jpg	99
2119.355	0.726	725.9	test	Phase3	test/STIM_029.jpg	100
2123.906	1.257	1256.8	test	Phase3	test/STIM_029.jpg	99
2128.958	1.116	1116.2	test	Phase3	test/STIM_029.jpg	100
