onset	duration	accuracy	trial_type	learning_stage	stimulus
0.0	2.61	correct	regulate	Run1	regulate/STIM_000.jpg
5.502	2.838	correct	regulate	Run1	regulate/STIM_000.jpg
10.319	1.455	correct	regulate	Run1	regulate/STIM_000.jpg
14.895	2.8	correct	regulate	Run1	regulate/STIM_000.jpg
19.567	3.587	correct	regulate	Run1	regulate/STIM_001.jpg
25.638	2.189	correct	regulate	Run1	regulate/STIM_001.jpg
31.491	2.929	correct	regulate	Run1	regulate/STIM_001.jpg
36.61	1.75	correct	regulate	Run1	regulate/STIM_001.jpg
40.356	1.692	correct	regulate	Run1	regulate/STIM_002.jpg
44.08	3.181	correct	regulate	Run1	regulate/STIM_002.jpg
50.59	2.354	incorrect	regulate	Run1	regulate/STIM_002.jpg
56.169	2.29	incorrect	regulate	Run1	regulate/STIM_002.jpg
61.427	1.976	correct	regulate	Run1	regulate/STIM_003.jpg
67.168	3.361	incorrect	regulate	Run1	regulate/STIM_003.jpg
74.06	2.094	correct	regulate	Run1	regulate/STIM_003.jpg
79.524	1.555	correct	regulate	Run1	regulate/STIM_003.jpg
83.442	2.596	correct	regulate	Run1	regulate/STIM_004.jpg
89.213	2.592	correct	regulate	Run1	regulate/STIM_004.jpg
94.521	1.887	correct	regulate	Run1	regulate/STIM_004.jpg
99.718	1.745	incorrect	regulate	Run1	regulate/STIM_004.jpg
104.629	1.862	correct	regulate	Run1	regulate/STIM_005.jpg
110.142	2.971	correct	regulate	Run1	regulate/STIM_005.jpg
116.577	2.846	correct	regulate	Run1	regulate/STIM_005.jpg
121.751	2.038	correct	regulate	Run1	regulate/STIM_005.jpg
127.368	2.121	correct	regulate	Run1	regulate/STIM_006.jpg
132.097	2.22	correct	regulate	Run1	regulate/STIM_006.jpg
137.722	1.454	correct	regulate	Run1	regulate/STIM_006.jpg
142.656	2.844	correct	regulate	Run1	regulate/STIM_006.jpg
147.47	1.736	correct	regulate	Run1	regulate/STIM_007.jpg
151.276	2.602	correct	regulate	Run1	regulate/STIM_007.jpg
155.908	2.692	correct	regulate	Run1	regulate/STIM_007.jpg
160.699	3.184	incorrect	regulate	Run1	regulate/STIM_007.jpg
167.486	3.342	correct	regulate	Run1	regulate/STIM_008.jpg
173.237	3.017	correct	regulate	Run1	regulate/STIM_008.jpg
178.725	1.463	correct	regulate	Run1	regulate/STIM_008.jpg
182.364	1.482	correct	regulate	Run1	regulate/STIM_008.jpg
185.817	3.474	correct	regulate	Run1	regulate/STIM_009.jpg
193.047	3.35	correct	regulate	Run1	regulate/STIM_009.jpg
198.771	1.81	correct	regulate	Run1	regulate/STIM_009.jpg
202.9	2.552	correct	regulate	Run1	regulate/STIM_009.jpg
208.756	2.959	correct	regulate	Run1	regulate/STIM_010.jpg
214.35	1.671	incorrect	regulate	Run1	regulate/STIM_010.jpg
218.177	3.292	correct	regulate	Run1	regulate/STIM_010.jpg
224.308	2.835	correct	regulate	Run1	regulate/STIM_010.jpg
230.803	2.244	correct	regulate	Run1	regulate/STIM_011.jpg
235.3	2.881	incorrect	regulate	Run1	regulate/STIM_011.jpg
241.141	3.009	incorrect	regulate	Run1	regulate/STIM_011.jpg
246.684	1.942	correct	regulate	Run1	regulate/STIM_011.jpg
251.719	3.365	correct	regulate	Run1	regulate/STIM_012.jpg
258.358	2.706	correct	regulate	Run1	regulate/STIM_012.jpg
263.469	2.779	correct	regulate	Run1	regulate/STIM_012.jpg
269.573	1.486	correct	regulate	Run1	regulate/STIM_012.jpg
274.634	2.325	correct	regulate	Run1	regulate/STIM_013.jpg
279.662	2.233	correct	regulate	Run1	regulate/STIM_013.jpg
284.841	2.753	correct	regulate	Run1	regulate/STIM_013.jpg
290.11	1.476	incorrect	regulate	Run1	regulate/STIM_013.jpg
294.537	2.986	incorrect	regulate	Run1	regulate/STIM_014.jpg
300.779	2.196	correct	regulate	Run1	regulate/STIM_014.jpg
305.636	3.038	incorrect	regulate	Run1	regulate/STIM_014.jpg
311.86	1.976	correct	regulate	Run1	regulate/STIM_014.jpg
317.026	3.039	correct	regulate	Run1	regulate/STIM_015.jpg
323.526	3.294	correct	regulate	Run1	regulate/STIM_015.jpg
329.319	1.987	correct	regulate	Run1	regulate/STIM_015.jpg
334.663	1.782	correct	regulate	Run1	regulate/STIM_015.jpg
339.283	2.28	correct	regulate	Run1	regulate/STIM_016.jpg
344.525	1.838	incorrect	regulate	Run1	regulate/STIM_016.jpg
348.959	2.562	correct	regulate	Run1	regulate/STIM_016.jpg
354.552	2.502	incorrect	regulate	Run1	regulate/STIM_016.jpg
359.136	3.596	correct	regulate	Run1	regulate/STIM_017.jpg
364.718	2.5	correct	regulate	Run1	regulate/STIM_017.jpg
370.698	2.343	incorrect	regulate	Run1	regulate/STIM_017.jpg
375.19	1.52	correct	regulate	Run1	regulate/STIM_017.jpg
380.442	2.836	correct	regulate	Run1	regulate/STIM_018.jpg
385.897	2.077	incorrect	regulate	Run1	regulate/STIM_018.jpg
390.136	2.065	correct	regulate	Run1	regulate/STIM_018.jpg
395.466	1.8	correct	regulate	Run1	regulate/STIM_018.jpg
399.926	2.246	correct	regulate	Run1	regulate/STIM_019.jpg
404.348	2.184	incorrect	regulate	Run1	regulate/STIM_019.jpg
408.475	3.086	correct	regulate	Run1	regulate/STIM_019.jpg
413.625	2.562	correct	regulate	Run1	regulate/STIM_019.jpg
418.178	3.009	correct	regulate	Run1	regulate/STIM_020.jpg
424.356	3.217	correct	regulate	Run1	regulate/STIM_020.jpg
430.828	3.339	correct	regulate	Run1	regulate/STIM_020.jpg
436.526	2.673	correct	regulate	Run1	regulate/STIM_020.jpg
441.883	2.617	correct	regulate	Run1	regulate/STIM_021.jpg
448.263	3.207	correct	regulate	Run1	regulate/STIM_021.jpg
453.295	2.445	correct	regulate	Run1	regulate/STIM_021.jpg
458.247	2.072	correct	regulate	Run1	regulate/STIM_021.jpg
462.924	2.282	correct	regulate	Run1	regulate/STIM_022.jpg
468.848	1.622	correct	regulate	Run1	regulate/STIM_022.jpg
473.821	1.908	incorrect	regulate	Run1	regulate/STIM_022.jpg
477.775	1.806	correct	regulate	Run1	regulate/STIM_022.jpg
481.889	3.091	incorrect	regulate	Run1	regulate/STIM_023.jpg
488.502	1.687	correct	regulate	Run1	regulate/STIM_023.jpg
493.304	1.48	correct	regulate	Run1	regulate/STIM_023.jpg
497.607	1.641	correct	regulate	Run1	regulate/STIM_023.jpg
502.45	2.276	correct	regulate	Run1	regulate/STIM_024.jpg
507.807	1.733	correct	regulate	Run1	regulate/STIM_024.jpg
511.957	1.901	correct	regulate	Run1	regulate/STIM_024.jpg
517.352	1.559	correct	regulate	Run1	regulate/STIM_024.jpg
520.82	3.598	incorrect	regulate	Run1	regulate/STIM_025.jpg
527.116	1.663	correct	regulate	Run1	regulate/STIM_025.jpg
532.417	2.301	correct	regulate	Run1	regulate/STIM_025.jpg
537.479	2.153	correct	regulate	Run1	regulate/STIM_025.jpg
542.036	3.262	correct	regulate	Run1	regulate/STIM_026.jpg
547.179	3.453	correct	regulate	Run1	regulate/STIM_026.jpg
554.321	2.688	incorrect	regulate	Run1	regulate/STIM_026.jpg
559.16	2.104	correct	regulate	Run1	regulate/STIM_026.jpg
563.669	2.121	correct	regulate	Run1	regulate/STIM_027.jpg
568.746	2.259	incorrect	regulate	Run1	regulate/STIM_027.jpg
574.604	1.83	correct	regulate	Run1	regulate/STIM_027.jpg
579.451	1.77	correct	regulate	Run1	regulate/STIM_027.jpg
583.947	2.847	incorrect	regulate	Run1	regulate/STIM_028.jpg
589.362	1.822	correct	regulate	Run1	regulate/STIM_028.jpg
593.722	2.829	incorrect	regulate	Run1	regulate/STIM_028.jpg
599.53	2.583	incorrect	regulate	Run1	regulate/STIM_028.jpg
605.469	3.708	correct	regulate	Run1	regulate/STIM_029.jpg
611.765	2.785	correct	regulate	Run1	regulate/STIM_029.jpg
617.403	3.091	correct	regulate	Run1	regulate/STIM_029.jpg
623.147	2.106	correct	regulate	Run1	regulate/STIM_029.jpg
628.492	1.698	correct	observe	Run1	observe/STIM_000.jpg
633.019	0.903	correct	observe	Run1	observe/STIM_000.jpg
637.697	1.164	correct	observe	Run1	observe/STIM_000.jpg
641.624	1.537	incorrect	observe	Run1	observe/STIM_000.jpg
646.472	1.387	correct	observe	Run1	observe/STIM_001.jpg
651.211	1.285	correct	observe	Run1	observe/STIM_001.jpg
656.354	1.352	correct	observe	Run1	observe/STIM_001.jpg
661.074	1.659	correct	observe	Run1	observe/STIM_001.jpg
665.929	1.015	correct	observe	Run1	observe/STIM_002.jpg
669.352	1.002	correct	observe	Run1	observe/STIM_002.jpg
673.322	0.973	correct	observe	Run1	observe/STIM_002.jpg
677.429	1.228	incorrect	observe	Run1	observe/STIM_002.jpg
681.722	1.636	correct	observe	Run1	observe/STIM_003.jpg
686.845	0.941	correct	observe	Run1	observe/STIM_003.jpg
690.63	1.392	correct	observe	Run1	observe/STIM_003.jpg
693.95	1.092	correct	observe	Run1	observe/STIM_003.jpg
697.276	1.4	correct	observe	Run1	observe/STIM_004.jpg
701.511	1.504	correct	observe	Run1	observe/STIM_004.jpg
705.561	1.196	correct	observe	Run1	observe/STIM_004.jpg
710.301	1.059	correct	observe	Run1	observe/STIM_004.jpg
714.325	1.009	correct	observe	Run1	observe/STIM_005.jpg
717.759	1.483	correct	observe	Run1	observe/STIM_005.jpg
722.558	0.886	correct	observe	Run1	observe/STIM_005.jpg
726.18	1.63	incorrect	observe	Run1	observe/STIM_005.jpg
729.776	0.953	correct	observe	Run1	observe/STIM_006.jpg
733.987	1.358	incorrect	observe	Run1	observe/STIM_006.jpg
738.53	1.563	incorrect	observe	Run1	observe/STIM_006.jpg
742.438	1.004	correct	observe	Run1	observe/STIM_006.jpg
745.743	1.322	correct	observe	Run1	observe/STIM_007.jpg
750.253	1.57	incorrect	observe	Run1	observe/STIM_007.jpg
755.678	1.385	correct	observe	Run1	observe/STIM_007.jpg
760.931	1.266	correct	observe	Run1	observe/STIM_007.jpg
764.696	1.12	correct	observe	Run1	observe/STIM_008.jpg
768.738	1.194	correct	observe	Run1	observe/STIM_008.jpg
772.65	1.099	correct	observe	Run1	observe/STIM_008.jpg
776.951	1.317	correct	observe	Run1	observe/STIM_008.jpg
781.913	1.477	correct	observe	Run1	observe/STIM_009.jpg
786.842	1.093	correct	observe	Run1	observe/STIM_009.jpg
789.982	1.256	incorrect	observe	Run1	observe/STIM_009.jpg
794.517	1.399	correct	observe	Run1	observe/STIM_009.jpg
798.042	1.716	correct	observe	Run1	observe/STIM_010.jpg
803.578	0.92	correct	observe	Run1	observe/STIM_010.jpg
806.878	1.337	correct	observe	Run1	observe/STIM_010.jpg
810.56	1.123	correct	observe	Run1	observe/STIM_010.jpg
814.09	1.435	correct	observe	Run1	observe/STIM_011.jpg
817.49	1.239	incorrect	observe	Run1	observe/STIM_011.jpg
821.803	1.098	incorrect	observe	Run1	observe/STIM_011.jpg
825.768	0.995	incorrect	observe	Run1	observe/STIM_011.jpg
829.33	1.231	correct	observe	Run1	observe/STIM_012.jpg
833.33	1.352	correct	observe	Run1	observe/STIM_012.jpg
838.176	1.521	correct	observe	Run1	observe/STIM_012.jpg
842.154	1.045	incorrect	observe	Run1	observe/STIM_012.jpg
846.405	1.298	correct	observe	Run1	observe/STIM_013.jpg
850.208	1.572	correct	observe	Run1	observe/STIM_013.jpg
855.028	0.9	correct	observe	Run1	observe/STIM_013.jpg
859.499	1.406	correct	observe	Run1	observe/STIM_013.jpg
864.798	1.394	correct	observe	Run1	observe/STIM_014.jpg
869.922	0.95	correct	observe	Run1	observe/STIM_014.jpg
873.764	0.922	correct	observe	Run1	observe/STIM_014.jpg
876.871	1.684	incorrect	observe	Run1	observe/STIM_014.jpg
881.535	1.666	correct	observe	Run1	observe/STIM_015.jpg
885.242	1.596	correct	observe	Run1	observe/STIM_015.jpg
889.954	1.414	correct	observe	Run1	observe/STIM_015.jpg
893.943	0.905	correct	observe	Run1	observe/STIM_015.jpg
897.087	1.676	correct	observe	Run1	observe/STIM_016.jpg
901.689	1.233	correct	observe	Run1	observe/STIM_016.jpg
905.65	1.115	correct	observe	Run1	observe/STIM_016.jpg
909.856	1.507	correct	observe	Run1	observe/STIM_016.jpg
913.601	1.288	correct	observe	Run1	observe/STIM_017.jpg
917.719	1.355	correct	observe	Run1	observe/STIM_017.jpg
920.987	1.6	correct	observe	Run1	observe/STIM_017.jpg
925.62	1.143	correct	observe	Run1	observe/STIM_017.jpg
929.859	0.939	correct	observe	Run1	observe/STIM_018.jpg
933.495	1.145	correct	observe	Run1	observe/STIM_018.jpg
936.857	1.129	correct	observe	Run1	observe/STIM_018.jpg
941.476	1.043	correct	observe	Run1	observe/STIM_018.jpg
945.951	1.178	correct	observe	Run1	observe/STIM_019.jpg
949.187	1.139	correct	observe	Run1	observe/STIM_019.jpg
952.662	0.916	correct	observe	Run1	observe/STIM_019.jpg
956.111	1.295	correct	observe	Run1	observe/STIM_019.jpg
960.183	2.646	correct	regulate	Run2	regulate/STIM_000.jpg
965.146	1.814	incorrect	regulate	Run2	regulate/STIM_000.jpg
970.246	1.249	correct	regulate	Run2	regulate/STIM_000.jpg
974.203	1.633	correct	regulate	Run2	regulate/STIM_000.jpg
978.674	1.819	correct	regulate	Run2	regulate/STIM_001.jpg
982.666	1.387	correct	regulate	Run2	regulate/STIM_001.jpg
986.926	2.716	correct	regulate	Run2	regulate/STIM_001.jpg
991.748	1.588	correct	regulate	Run2	regulate/STIM_001.jpg
996.727	2.934	correct	regulate	Run2	regulate/STIM_002.jpg
1001.915	2.387	incorrect	regulate	Run2	regulate/STIM_002.jpg
1007.107	1.713	correct	regulate	Run2	regulate/STIM_002.jpg
1012.459	1.196	correct	regulate	Run2	regulate/STIM_002.jpg
1016.125	2.859	correct	regulate	Run2	regulate/STIM_003.jpg
1022.048	1.615	correct	regulate	Run2	regulate/STIM_003.jpg
1026.171	2.411	correct	regulate	Run2	regulate/STIM_003.jpg
1031.233	1.536	correct	regulate	Run2	regulate/STIM_003.jpg
1035.275	2.176	incorrect	regulate	Run2	regulate/STIM_004.jpg
1040.743	1.989	correct	regulate	Run2	regulate/STIM_004.jpg
1046.43	1.957	correct	regulate	Run2	regulate/STIM_004.jpg
1051.583	2.282	correct	regulate	Run2	regulate/STIM_004.jpg
1056.256	1.476	correct	regulate	Run2	regulate/STIM_005.jpg
1059.632	1.788	correct	regulate	Run2	regulate/STIM_005.jpg
1063.68	2.034	correct	regulate	Run2	regulate/STIM_005.jpg
1068.305	1.138	correct	regulate	Run2	regulate/STIM_005.jpg
1071.663	1.71	correct	regulate	Run2	regulate/STIM_006.jpg
1076.806	1.985	correct	regulate	Run2	regulate/STIM_006.jpg
1081.32	2.002	correct	regulate	Run2	regulate/STIM_006.jpg
1086.759	1.777	correct	regulate	Run2	regulate/STIM_006.jpg
1091.607	3.033	correct	regulate	Run2	regulate/STIM_007.jpg
1096.871	1.39	correct	regulate	Run2	regulate/STIM_007.jpg
1101.475	2.16	correct	regulate	Run2	regulate/STIM_007.jpg
1107.078	1.455	correct	regulate	Run2	regulate/STIM_007.jpg
1112.419	2.852	correct	regulate	Run2	regulate/STIM_008.jpg
1117.915	1.589	correct	regulate	Run2	regulate/STIM_008.jpg
1122.11	2.262	correct	regulate	Run2	regulate/STIM_008.jpg
1127.921	1.263	incorrect	regulate	Run2	regulate/STIM_008.jpg
1132.528	1.998	correct	regulate	Run2	regulate/STIM_009.jpg
1137.523	2.428	correct	regulate	Run2	regulate/STIM_009.jpg
1143.443	2.288	correct	regulate	Run2	regulate/STIM_009.jpg
1148.245	2.338	correct	regulate	Run2	regulate/STIM_009.jpg
1153.486	2.459	correct	regulate	Run2	regulate/STIM_010.jpg
1158.659	1.338	correct	regulate	Run2	regulate/STIM_010.jpg
1163.33	2.589	correct	regulate	Run2	regulate/STIM_010.jpg
1168.465	1.139	correct	regulate	Run2	regulate/STIM_010.jpg
1173.147	1.523	correct	regulate	Run2	regulate/STIM_011.jpg
1177.043	2.184	correct	regulate	Run2	regulate/STIM_011.jpg
1182.438	2.134	correct	regulate	Run2	regulate/STIM_011.jpg
1187.844	2.015	correct	regulate	Run2	regulate/STIM_011.jpg
1192.665	1.566	incorrect	regulate	Run2	regulate/STIM_012.jpg
1196.177	2.358	correct	regulate	Run2	regulate/STIM_012.jpg
1201.67	1.614	incorrect	regulate	Run2	regulate/STIM_012.jpg
1206.876	2.318	correct	regulate	Run2	regulate/STIM_012.jpg
1211.706	2.456	incorrect	regulate	Run2	regulate/STIM_013.jpg
1216.664	2.71	correct	regulate	Run2	regulate/STIM_013.jpg
1222.731	2.112	correct	regulate	Run2	regulate/STIM_013.jpg
1227.236	2.555	correct	regulate	Run2	regulate/STIM_013.jpg
1231.758	2.094	correct	regulate	Run2	regulate/STIM_014.jpg
1237.086	1.894	incorrect	regulate	Run2	regulate/STIM_014.jpg
1241.905	2.004	correct	regulate	Run2	regulate/STIM_014.jpg
1247.117	1.62	correct	regulate	Run2	regulate/STIM_014.jpg
1252.038	2.998	correct	regulate	Run2	regulate/STIM_015.jpg
1257.098	2.499	correct	regulate	Run2	regulate/STIM_015.jpg
1262.247	1.336	correct	regulate	Run2	regulate/STIM_015.jpg
1266.608	2.434	incorrect	regulate	Run2	regulate/STIM_015.jpg
1272.527	2.625	incorrect	regulate	Run2	regulate/STIM_016.jpg
1278.868	1.573	correct	regulate	Run2	regulate/STIM_016.jpg
1283.888	1.924	correct	regulate	Run2	regulate/STIM_016.jpg
1288.355	2.028	correct	regulate	Run2	regulate/STIM_016.jpg
1292.613	2.7	correct	regulate	Run2	regulate/STIM_017.jpg
1298.421	1.507	correct	regulate	Run2	regulate/STIM_017.jpg
1303.427	1.96	correct	regulate	Run2	regulate/STIM_017.jpg
1307.693	1.42	correct	regulate	Run2	regulate/STIM_017.jpg
1311.143	2.264	correct	regulate	Run2	regulate/STIM_018.jpg
1316.338	2.504	correct	regulate	Run2	regulate/STIM_018.jpg
1322.502	1.299	correct	regulate	Run2	regulate/STIM_018.jpg
1326.145	2.6	incorrect	regulate	Run2	regulate/STIM_018.jpg
1331.142	2.898	correct	regulate	Run2	regulate/STIM_019.jpg
1335.898	2.889	correct	regulate	Run2	regulate/STIM_019.jpg
1341.893	2.063	incorrect	regulate	Run2	regulate/STIM_019.jpg
1347.741	1.137	correct	regulate	Run2	regulate/STIM_019.jpg
1352.229	2.777	correct	regulate	Run2	regulate/STIM_020.jpg
1358.159	1.425	correct	regulate	Run2	regulate/STIM_020.jpg
1362.869	2.384	correct	regulate	Run2	regulate/STIM_020.jpg
1368.35	1.893	correct	regulate	Run2	regulate/STIM_020.jpg
1373.014	1.477	correct	regulate	Run2	regulate/STIM_021.jpg
1378.026	2.697	correct	regulate	Run2	regulate/STIM_021.jpg
1383.176	1.212	incorrect	regulate	Run2	regulate/STIM_021.jpg
1386.344	2.244	correct	regulate	Run2	regulate/STIM_021.jpg
1390.966	1.562	correct	regulate	Run2	regulate/STIM_022.jpg
1395.451	1.324	correct	regulate	Run2	regulate/STIM_022.jpg
1399.662	1.701	incorrect	regulate	Run2	regulate/STIM_022.jpg
1403.922	2.355	incorrect	regulate	Run2	regulate/STIM_022.jpg
1408.876	1.982	correct	regulate	Run2	regulate/STIM_023.jpg
1413.484	1.736	correct	regulate	Run2	regulate/STIM_023.jpg
1418.395	1.385	incorrect	regulate	Run2	regulate/STIM_023.jpg
1423.233	2.623	incorrect	regulate	Run2	regulate/STIM_023.jpg
1428.136	1.605	correct	regulate	Run2	regulate/STIM_024.jpg
1432.039	1.388	correct	regulate	Run2	regulate/STIM_024.jpg
1437.193	1.997	correct	regulate	Run2	regulate/STIM_024.jpg
1441.186	2.208	correct	regulate	Run2	regulate/STIM_024.jpg
1445.576	2.236	correct	regulate	Run2	regulate/STIM_025.jpg
1450.466	1.568	correct	regulate	Run2	regulate/STIM_025.jpg
1455.123	2.438	incorrect	regulate	Run2	regulate/STIM_025.jpg
1459.453	1.944	correct	regulate	Run2	regulate/STIM_025.jpg
1465.078	2.641	incorrect	regulate	Run2	regulate/STIM_026.jpg
1471.376	2.441	correct	regulate	Run2	regulate/STIM_026.jpg
1475.877	1.978	correct	regulate	Run2	regulate/STIM_026.jpg
1480.538	2.417	correct	regulate	Run2	regulate/STIM_026.jpg
1486.16	1.789	correct	regulate	Run2	regulate/STIM_027.jpg
1489.84	1.769	correct	regulate	Run2	regulate/STIM_027.jpg
1495.436	2.044	incorrect	regulate	Run2	regulate/STIM_027.jpg
1499.487	1.416	correct	regulate	Run2	regulate/STIM_027.jpg
1503.304	3.153	correct	regulate	Run2	regulate/STIM_028.jpg
1508.791	2.343	correct	regulate	Run2	regulate/STIM_028.jpg
1514.598	1.762	correct	regulate	Run2	regulate/STIM_028.jpg
1518.539	1.39	correct	regulate	Run2	regulate/STIM_028.jpg
1523.291	2.362	correct	regulate	Run2	regulate/STIM_029.jpg
1527.663	1.349	correct	regulate	Run2	regulate/STIM_029.jpg
1532.475	2.682	correct	regulate	Run2	regulate/STIM_029.jpg
1538.165	2.582	incorrect	regulate	Run2	regulate/STIM_029.jpg
1543.113	0.958	correct	observe	Run2	observe/STIM_000.jpg
1546.581	1.634	correct	observe	Run2	observe/STIM_000.jpg
1550.457	1.299	correct	observe	Run2	observe/STIM_000.jpg
1554.711	1.221	correct	observe	Run2	observe/STIM_000.jpg
1559.413	1.439	correct	observe	Run2	observe/STIM_001.jpg
1563.334	1.284	incorrect	observe	Run2	observe/STIM_001.jpg
1568.398	1.22	correct	observe	Run2	observe/STIM_001.jpg
1573.011	0.969	correct	observe	Run2	observe/STIM_001.jpg
1577.143	1.332	incorrect	observe	Run2	observe/STIM_002.jpg
1580.84	1.42	correct	observe	Run2	observe/STIM_002.jpg
1584.862	1.653	incorrect	observe	Run2	observe/STIM_002.jpg
1589.389	1.253	correct	observe	Run2	observe/STIM_002.jpg
1593.698	1.217	incorrect	observe	Run2	observe/STIM_003.jpg
1598.608	1.362	correct	observe	Run2	observe/STIM_003.jpg
1602.828	1.306	correct	observe	Run2	observe/STIM_003.jpg
1606.387	1.701	correct	observe	Run2	observe/STIM_003.jpg
1610.294	1.428	incorrect	observe	Run2	observe/STIM_004.jpg
1615.592	0.989	correct	observe	Run2	observe/STIM_004.jpg
1619.363	1.146	correct	observe	Run2	observe/STIM_004.jpg
1623.345	1.553	correct	observe	Run2	observe/STIM_004.jpg
1626.835	1.455	correct	observe	Run2	observe/STIM_005.jpg
1630.225	1.281	correct	observe	Run2	observe/STIM_005.jpg
1633.57	1.409	correct	observe	Run2	observe/STIM_005.jpg
1637.431	1.416	correct	observe	Run2	observe/STIM_005.jpg
1641.523	1.18	correct	observe	Run2	observe/STIM_006.jpg
1646.224	1.253	correct	observe	Run2	observe/STIM_006.jpg
1651.121	1.243	correct	observe	Run2	observe/STIM_006.jpg
1656.083	1.001	correct	observe	Run2	observe/STIM_006.jpg
1659.681	1.453	correct	observe	Run2	observe/STIM_007.jpg
1663.99	1.241	correct	observe	Run2	observe/STIM_007.jpg
1669.076	0.985	correct	observe	Run2	observe/STIM_007.jpg
1673.257	0.862	incorrect	observe	Run2	observe/STIM_007.jpg
1677.816	1.686	correct	observe	Run2	observe/STIM_008.jpg
1681.681	1.445	correct	observe	Run2	observe/STIM_008.jpg
1685.297	0.986	correct	observe	Run2	observe/STIM_008.jpg
1689.48	0.922	correct	observe	Run2	observe/STIM_008.jpg
1694.141	0.895	incorrect	observe	Run2	observe/STIM_009.jpg
1697.258	1.656	correct	observe	Run2	observe/STIM_009.jpg
1701.715	1.171	correct	observe	Run2	observe/STIM_009.jpg
1705.517	1.463	correct	observe	Run2	observe/STIM_009.jpg
1710.775	1.236	correct	observe	Run2	observe/STIM_010.jpg
1714.708	1.399	incorrect	observe	Run2	observe/STIM_010.jpg
1718.831	1.03	correct	observe	Run2	observe/STIM_010.jpg
1722.34	1.105	correct	observe	Run2	observe/STIM_010.jpg
1725.84	1.118	correct	observe	Run2	observe/STIM_011.jpg
1730.698	1.162	incorrect	observe	Run2	observe/STIM_011.jpg
1734.923	1.59	correct	observe	Run2	observe/STIM_011.jpg
1738.96	1.681	correct	observe	Run2	observe/STIM_011.jpg
1743.321	1.188	correct	observe	Run2	observe/STIM_012.jpg
1746.544	1.257	correct	observe	Run2	observe/STIM_012.jpg
1751.419	1.124	correct	observe	Run2	observe/STIM_012.jpg
1754.873	0.988	correct	observe	Run2	observe/STIM_012.jpg
1758.955	0.998	correct	observe	Run2	observe/STIM_013.jpg
1762.711	1.608	correct	observe	Run2	observe/STIM_013.jpg
1767.137	1.362	correct	observe	Run2	observe/STIM_013.jpg
1771.835	1.27	correct	observe	Run2	observe/STIM_013.jpg
1775.699	1.046	correct	observe	Run2	observe/STIM_014.jpg
1780.613	1.005	correct	observe	Run2	observe/STIM_014.jpg
1785.426	0.94	correct	observe	Run2	observe/STIM_014.jpg
1790.11	0.935	correct	observe	Run2	observe/STIM_014.jpg
1794.876	1.32	correct	observe	Run2	observe/STIM_015.jpg
1799.878	1.387	correct	observe	Run2	observe/STIM_015.jpg
1804.719	0.928	correct	observe	Run2	observe/STIM_015.jpg
1808.496	0.93	correct	observe	Run2	observe/STIM_015.jpg
1811.534	1.355	correct	observe	Run2	observe/STIM_016.jpg
1816.296	0.995	correct	observe	Run2	observe/STIM_016.jpg
1820.329	1.378	correct	observe	Run2	observe/STIM_016.jpg
1824.767	0.903	correct	observe	Run2	observe/STIM_016.jpg
1829.339	1.502	correct	observe	Run2	observe/STIM_017.jpg
1833.311	1.495	correct	observe	Run2	observe/STIM_017.jpg
1837.086	1.597	correct	observe	Run2	observe/STIM_017.jpg
1840.712	0.906	correct	observe	Run2	observe/STIM_017.jpg
1843.979	1.71	correct	observe	Run2	observe/STIM_018.jpg
1848.953	0.907	correct	observe	Run2	observe/STIM_018.jpg
1852.342	1.037	correct	observe	Run2	observe/STIM_018.jpg
1856.173	1.262	incorrect	observe	Run2	observe/STIM_018.jpg
1861.284	1.111	correct	observe	Run2	observe/STIM_019.jpg
1865.881	1.633	correct	observe	Run2	observe/STIM_019.jpg
1870.095	0.868	correct	observe	Run2	observe/STIM_019.jpg
1874.174	1.546	incorrect	observe	Run2	observe/STIM_019.jpg
1877.736	2.448	correct	regulate	Run3	regulate/STIM_000.jpg
1882.748	1.452	correct	regulate	Run3	regulate/STIM_000.jpg
1886.642	2.543	correct	regulate	Run3	regulate/STIM_000.jpg
1892.009	1.388	correct	regulate	Run3	regulate/STIM_000.jpg
1895.916	2.057	correct	regulate	Run3	regulate/STIM_001.jpg
1900.709	2.403	correct	regulate	Run3	regulate/STIM_001.jpg
1905.987	2.51	correct	regulate	Run3	regulate/STIM_001.jpg
1911.963	2.428	correct	regulate	Run3	regulate/STIM_001.jpg
1916.88	1.789	correct	regulate	Run3	regulate/STIM_002.jpg
1921.022	1.332	correct	regulate	Run3	regulate/STIM_002.jpg
1925.147	2.148	correct	regulate	Run3	regulate/STIM_002.jpg
1930.385	1.156	correct	regulate	Run3	regulate/STIM_002.jpg
1933.699	1.21	correct	regulate	Run3	regulate/STIM_003.jpg
1938.09	2.408	correct	regulate	Run3	regulate/STIM_003.jpg
1942.95	2.332	correct	regulate	Run3	regulate/STIM_003.jpg
1947.889	2.315	correct	regulate	Run3	regulate/STIM_003.jpg
1952.803	1.374	incorrect	regulate	Run3	regulate/STIM_004.jpg
1957.967	1.191	correct	regulate	Run3	regulate/STIM_004.jpg
1962.227	2.592	correct	regulate	Run3	regulate/STIM_004.jpg
1967.341	1.136	correct	regulate	Run3	regulate/STIM_004.jpg
1972.261	1.53	correct	regulate	Run3	regulate/STIM_005.jpg
1976.413	1.457	correct	regulate	Run3	regulate/STIM_005.jpg
1981.282	2.194	incorrect	regulate	Run3	regulate/STIM_005.jpg
1986.294	2.261	correct	regulate	Run3	regulate/STIM_005.jpg
1992.048	1.978	correct	regulate	Run3	regulate/STIM_006.jpg
1996.571	1.959	correct	regulate	Run3	regulate/STIM_006.jpg
2000.621	2.351	correct	regulate	Run3	regulate/STIM_006.jpg
2006.194	2.169	correct	regulate	Run3	regulate/STIM_006.jpg
2011.546	2.224	incorrect	regulate	Run3	regulate/STIM_007.jpg
2016.55	2.429	correct	regulate	Run3	regulate/STIM_007.jpg
2021.5	2.419	correct	regulate	Run3	regulate/STIM_007.jpg
2026.146	2.323	correct	regulate	Run3	regulate/STIM_007.jpg
2031.102	1.918	incorrect	regulate	Run3	regulate/STIM_008.jpg
2035.912	1.888	correct	regulate	Run3	regulate/STIM_008.jpg
2040.831	1.735	correct	regulate	Run3	regulate/STIM_008.jpg
2044.924	1.471	correct	regulate	Run3	regulate/STIM_008.jpg
2049.573	1.767	correct	regulate	Run3	regulate/STIM_009.jpg
2054.275	2.579	correct	regulate	Run3	regulate/STIM_009.jpg
2060.135	1.867	correct	regulate	Run3	regulate/STIM_009.jpg
2064.606	2.144	correct	regulate	Run3	regulate/STIM_009.jpg
2068.839	2.111	correct	regulate	Run3	regulate/STIM_010.jpg
2073.113	1.739	correct	regulate	Run3	regulate/STIM_010.jpg
2078.079	2.54	correct	regulate	Run3	regulate/STIM_010.jpg
2084.416	1.294	correct	regulate	Run3	regulate/STIM_010.jpg
2089.391	1.891	correct	regulate	Run3	regulate/STIM_011.jpg
2093.731	2.353	correct	regulate	Run3	regulate/STIM_011.jpg
2099.298	2.608	correct	regulate	Run3	regulate/STIM_011.jpg
2105.728	1.662	correct	regulate	Run3	regulate/STIM_011.jpg
2111.14	2.329	correct	regulate	Run3	regulate/STIM_012.jpg
2115.636	2.399	correct	regulate	Run3	regulate/STIM_012.jpg
2120.796	2.083	correct	regulate	Run3	regulate/STIM_012.jpg
2126.609	1.491	correct	regulate	Run3	regulate/STIM_012.jpg
2131.083	2.399	correct	regulate	Run3	regulate/STIM_013.jpg
2136.052	1.649	correct	regulate	Run3	regulate/STIM_013.jpg
2141.077	2.325	correct	regulate	Run3	regulate/STIM_013.jpg
2146.944	1.589	correct	regulate	Run3	regulate/STIM_013.jpg
2150.963	2.036	correct	regulate	Run3	regulate/STIM_014.jpg
2155.681	1.577	correct	regulate	Run3	regulate/STIM_014.jpg
2159.413	2.209	correct	regulate	Run3	regulate/STIM_014.jpg
2165.075	1.959	correct	regulate	Run3	regulate/STIM_014.jpg
2169.525	2.617	correct	regulate	Run3	regulate/STIM_015.jpg
2175.126	1.746	correct	regulate	Run3	regulate/STIM_015.jpg
2179.806	2.619	correct	regulate	Run3	regulate/STIM_015.jpg
2186.144	2.339	correct	regulate	Run3	regulate/STIM_015.jpg
2192.012	2.183	correct	regulate	Run3	regulate/STIM_016.jpg
2196.217	1.354	correct	regulate	Run3	regulate/STIM_016.jpg
2201.462	1.883	incorrect	regulate	Run3	regulate/STIM_016.jpg
2207.162	2.222	correct	regulate	Run3	regulate/STIM_016.jpg
2212.665	2.156	correct	regulate	Run3	regulate/STIM_017.jpg
2218.618	2.092	correct	regulate	Run3	regulate/STIM_017.jpg
2223.33	1.335	correct	regulate	Run3	regulate/STIM_017.jpg
2226.987	1.934	correct	regulate	Run3	regulate/STIM_017.jpg
2231.689	2.157	correct	regulate	Run3	regulate/STIM_018.jpg
2236.832	1.385	correct	regulate	Run3	regulate/STIM_018.jpg
2240.865	2.162	correct	regulate	Run3	regulate/STIM_018.jpg
2245.988	1.767	correct	regulate	Run3	regulate/STIM_018.jpg
2250.455	1.538	correct	regulate	Run3	regulate/STIM_019.jpg
2254.712	1.244	correct	regulate	Run3	regulate/STIM_019.jpg
2258.599	1.508	correct	regulate	Run3	regulate/STIM_019.jpg
2263.759	2.117	correct	regulate	Run3	regulate/STIM_019.jpg
2267.952	1.658	correct	regulate	Run3	regulate/STIM_020.jpg
2273.179	1.341	correct	regulate	Run3	regulate/STIM_020.jpg
2277.6	2.441	correct	regulate	Run3	regulate/STIM_020.jpg
2282.085	2.16	correct	regulate	Run3	regulate/STIM_020.jpg
2286.898	2.272	correct	regulate	Run3	regulate/STIM_021.jpg
2291.339	1.306	correct	regulate	Run3	regulate/STIM_021.jpg
2295.78	2.244	correct	regulate	Run3	regulate/STIM_021.jpg
2300.504	2.018	correct	regulate	Run3	regulate/STIM_021.jpg
2306.299	1.723	correct	regulate	Run3	regulate/STIM_022.jpg
2310.015	1.192	correct	regulate	Run3	regulate/STIM_022.jpg
2314.551	2.225	correct	regulate	Run3	regulate/STIM_022.jpg
2319.528	1.882	correct	regulate	Run3	regulate/STIM_022.jpg
2324.634	2.52	correct	regulate	Run3	regulate/STIM_023.jpg
2330.33	1.468	correct	regulate	Run3	regulate/STIM_023.jpg
2334.403	1.168	correct	regulate	Run3	regulate/STIM_023.jpg
2337.637	1.695	correct	regulate	Run3	regulate/STIM_023.jpg
2341.744	2.291	correct	regulate	Run3	regulate/STIM_024.jpg
2345.967	2.301	correct	regulate	Run3	regulate/STIM_024.jpg
2351.122	2.442	correct	regulate	Run3	regulate/STIM_024.jpg
2356.494	1.644	correct	regulate	Run3	regulate/STIM_024.jpg
2360.055	2.098	incorrect	regulate	Run3	regulate/STIM_025.jpg
2364.585	2.198	correct	regulate	Run3	regulate/STIM_025.jpg
2370.066	1.942	correct	regulate	Run3	regulate/STIM_025.jpg
2374.845	1.605	correct	regulate	Run3	regulate/STIM_025.jpg
2380.187	2.201	correct	regulate	Run3	regulate/STIM_026.jpg
2384.709	2.378	correct	regulate	Run3	regulate/STIM_026.jpg
2389.643	1.761	correct	regulate	Run3	regulate/STIM_026.jpg
2393.67	1.974	correct	regulate	Run3	regulate/STIM_026.jpg
2397.635	2.396	correct	regulate	Run3	regulate/STIM_027.jpg
2402.787	2.294	correct	regulate	Run3	regulate/STIM_027.jpg
2407.154	1.239	correct	regulate	Run3	regulate/STIM_027.jpg
2411.164	2.575	correct	regulate	Run3	regulate/STIM_027.jpg
2416.337	1.914	correct	regulate	Run3	regulate/STIM_028.jpg
2421.666	2.59	correct	regulate	Run3	regulate/STIM_028.jpg
2427.425	1.3	correct	regulate	Run3	regulate/STIM_028.jpg
2431.995	2.155	correct	regulate	Run3	regulate/STIM_028.jpg
2436.71	1.636	incorrect	regulate	Run3	regulate/STIM_029.jpg
2441.709	2.219	incorrect	regulate	Run3	regulate/STIM_029.jpg
2446.633	1.175	correct	regulate	Run3	regulate/STIM_029.jpg
2450.566	1.465	correct	regulate	Run3	regulate/STIM_029.jpg
2454.468	1.086	correct	observe	Run3	observe/STIM_000.jpg
2457.917	0.874	correct	observe	Run3	observe/STIM_000.jpg
2461.611	1.057	correct	observe	Run3	observe/STIM_000.jpg
2464.867	0.974	correct	observe	Run3	observe/STIM_000.jpg
2469.596	1.264	correct	observe	Run3	observe/STIM_001.jpg
2472.944	0.96	correct	observe	Run3	observe/STIM_001.jpg
2476.403	0.886	correct	observe	Run3	observe/STIM_001.jpg
2481.084	1.256	correct	observe	Run3	observe/STIM_001.jpg
2486.182	1.258	correct	observe	Run3	observe/STIM_002.jpg
2489.374	1.069	correct	observe	Run3	observe/STIM_002.jpg
2492.435	1.332	correct	observe	Run3	observe/STIM_002.jpg
2496.161	1.709	correct	observe	Run3	observe/STIM_002.jpg
2500.991	0.913	correct	observe	Run3	observe/STIM_003.jpg
2505.538	1.459	correct	observe	Run3	observe/STIM_003.jpg
2509.89	1.172	correct	observe	Run3	observe/STIM_003.jpg
2514.433	1.646	correct	observe	Run3	observe/STIM_003.jpg
2518.983	1.313	correct	observe	Run3	observe/STIM_004.jpg
2524.161	1.372	correct	observe	Run3	observe/STIM_004.jpg
2528.392	1.211	correct	observe	Run3	observe/STIM_004.jpg
2531.537	0.984	correct	observe	Run3	observe/STIM_004.jpg
2535.299	1.493	correct	observe	Run3	observe/STIM_005.jpg
2539.046	1.349	correct	observe	Run3	observe/STIM_005.jpg
2543.407	1.556	correct	observe	Run3	observe/STIM_005.jpg
2547.29	1.489	correct	observe	Run3	observe/STIM_005.jpg
2551.278	1.691	correct	observe	Run3	observe/STIM_006.jpg
2555.013	0.965	correct	observe	Run3	observe/STIM_006.jpg
2558.147	1.633	correct	observe	Run3	observe/STIM_006.jpg
2561.774	0.876	correct	observe	Run3	observe/STIM_006.jpg
2564.672	0.925	correct	observe	Run3	observe/STIM_007.jpg
2567.734	1.35	correct	observe	Run3	observe/STIM_007.jpg
2571.865	0.9	correct	observe	Run3	observe/STIM_007.jpg
2575.718	1.222	correct	observe	Run3	observe/STIM_007.jpg
2580.654	1.284	incorrect	observe	Run3	observe/STIM_008.jpg
2584.389	1.591	correct	observe	Run3	observe/STIM_008.jpg
2589.026	1.058	correct	observe	Run3	observe/STIM_008.jpg
2593.304	1.046	correct	observe	Run3	observe/STIM_008.jpg
2597.883	1.534	correct	observe	Run3	observe/STIM_009.jpg
2602.209	1.065	correct	observe	Run3	observe/STIM_009.jpg
2605.267	0.987	correct	observe	Run3	observe/STIM_009.jpg
2609.551	1.223	correct	observe	Run3	observe/STIM_009.jpg
2613.14	1.669	correct	observe	Run3	observe/STIM_010.jpg
2618.203	1.363	correct	observe	Run3	observe/STIM_010.jpg
2621.637	1.129	correct	observe	Run3	observe/STIM_010.jpg
2625.848	0.86	correct	observe	Run3	observe/STIM_010.jpg
2629.749	1.669	correct	observe	Run3	observe/STIM_011.jpg
2634.199	1.376	correct	observe	Run3	observe/STIM_011.jpg
2638.763	0.89	correct	observe	Run3	observe/STIM_011.jpg
2642.533	1.541	correct	observe	Run3	observe/STIM_011.jpg
2646.503	1.659	correct	observe	Run3	observe/STIM_012.jpg
2651.298	1.18	correct	observe	Run3	observe/STIM_012.jpg
2654.723	1.497	correct	observe	Run3	observe/STIM_012.jpg
2658.584	1.264	correct	observe	Run3	observe/STIM_012.jpg
2663.152	1.276	correct	observe	Run3	observe/STIM_013.jpg
2668.093	1.442	correct	observe	Run3	observe/STIM_013.jpg
2672.431	1.077	correct	observe	Run3	observe/STIM_013.jpg
2677.27	1.056	correct	observe	Run3	observe/STIM_013.jpg
2680.36	1.56	correct	observe	Run3	observe/STIM_014.jpg
2684.082	1.449	correct	observe	Run3	observe/STIM_014.jpg
2688.68	1.627	correct	observe	Run3	observe/STIM_014.jpg
2693.317	1.696	correct	observe	Run3	observe/STIM_014.jpg
2698.628	1.716	correct	observe	Run3	observe/STIM_015.jpg
2703.805	1.1	correct	observe	Run3	observe/STIM_015.jpg
2708.291	1.621	correct	observe	Run3	observe/STIM_015.jpg
2712.638	1.672	correct	observe	Run3	observe/STIM_015.jpg
2716.863	1.158	correct	observe	Run3	observe/STIM_016.jpg
2721.872	1.113	correct	observe	Run3	observe/STIM_016.jpg
2725.526	1.651	correct	observe	Run3	observe/STIM_016.jpg
2729.573	1.059	correct	observe	Run3	observe/STIM_016.jpg
2734.542	1.388	correct	observe	Run3	observe/STIM_017.jpg
2738.827	1.646	incorrect	observe	Run3	observe/STIM_017.jpg
2743.614	1.425	correct	observe	Run3	observe/STIM_017.jpg
2748.104	1.003	correct	observe	Run3	observe/STIM_017.jpg
2752.406	1.51	correct	observe	Run3	observe/STIM_018.jpg
2756.132	1.326	correct	observe	Run3	observe/STIM_018.jpg
2759.739	1.669	correct	observe	Run3	observe/STIM_018.jpg
2764.262	1.167	correct	observe	Run3	observe/STIM_018.jpg
2767.606	1.362	correct	observe	Run3	observe/STIM_019.jpg
2772.512	1.582	correct	observe	Run3	observe/STIM_019.jpg
2777.056	1.015	correct	observe	Run3	observe/STIM_019.jpg
2780.153	1.224	correct	observe	Run3	observe/STIM_019.jpg
