onset	duration	response_time_ms	trial_type	learning_stage	stimulus	response_port
0.0	1.34	1340.4	regulate	Run1	regulate/STIM_000.jpg	100
4.852	1.277	1276.8	regulate	Run1	regulate/STIM_000.jpg	100
8.565	2.135	2135.2	regulate	Run1	regulate/STIM_000.jpg	99
14.392	1.182	1181.6	regulate	Run1	regulate/STIM_000.jpg	99
18.193	1.801	1800.8	regulate	Run1	regulate/STIM_001.jpg	100
23.429	1.136	1136.4	regulate	Run1	regulate/STIM_001.jpg	99
27.913	1.57	1569.7	regulate	Run1	regulate/STIM_001.jpg	99
32.978	1.995	1995.0	regulate	Run1	regulate/STIM_001.jpg	100
38.916	1.974	1973.6	regulate	Run1	regulate/STIM_002.jpg	100
43.759	2.206	2206.5	regulate	Run1	regulate/STIM_002.jpg	100
49.039	1.664	1663.9	regulate	Run1	regulate/STIM_002.jpg	100
53.973	1.429	1428.8	regulate	Run1	regulate/STIM_002.jpg	99
58.1	2.003	2003.2	regulate	Run1	regulate/STIM_003.jpg	99
62.164	1.74	1740.1	regulate	Run1	regulate/STIM_003.jpg	99
67.409	1.772	1772.0	regulate	Run1	regulate/STIM_003.jpg	100
72.037	1.18	1180.1	regulate	Run1	regulate/STIM_003.jpg	99
76.664	2.46	2460.5	regulate	Run1	regulate/STIM_004.jpg	99
82.782	1.222	1221.5	regulate	Run1	regulate/STIM_004.jpg	100
87.566	1.272	1271.5	regulate	Run1	regulate/STIM_004.jpg	100
92.068	1.993	1992.9	regulate	Run1	regulate/STIM_004.jpg	99
97.855	1.379	1379.3	regulate	Run1	regulate/STIM_005.jpg	100
102.623	1.317	1316.6	regulate	Run1	regulate/STIM_005.jpg	99
106.808	1.754	1754.1	regulate	Run1	regulate/STIM_005.jpg	100
111.355	1.326	1325.7	regulate	Run1	regulate/STIM_005.jpg	100
115.344	1.208	1208.5	regulate	Run1	regulate/STIM_006.jpg	100
118.721	1.357	1356.9	regulate	Run1	regulate/STIM_006.jpg	100
122.91	2.113	2113.1	regulate	Run1	regulate/STIM_006.jpg	99
127.826	1.625	1625.4	regulate	Run1	regulate/STIM_006.jpg	99
131.895	2.348	2347.7	regulate	Run1	regulate/STIM_007.jpg	99
137.694	1.224	1223.8	regulate	Run1	regulate/STIM_007.jpg	100
141.94	1.868	1867.7	regulate	Run1	regulate/STIM_007.jpg	99
146.47	1.729	1728.9	regulate	Run1	regulate/STIM_007.jpg	100
151.906	1.492	1491.8	regulate	Run1	regulate/STIM_008.jpg	99
156.788	1.277	1277.1	regulate	Run1	regulate/STIM_008.jpg	100
160.781	1.936	1935.6	regulate	Run1	regulate/STIM_008.jpg	100
165.875	1.294	1293.8	regulate	Run1	regulate/STIM_008.jpg	99
170.759	1.108	1108.2	regulate	Run1	regulate/STIM_009.jpg	99
175.547	2.044	2044.2	regulate	Run1	regulate/STIM_009.jpg	99
179.798	1.529	1528.6	regulate	Run1	regulate/STIM_009.jpg	99
184.403	2.038	2037.9	regulate	Run1	regulate/STIM_009.jpg	99
189.546	1.607	1607.2	regulate	Run1	regulate/STIM_010.jpg	100
193.182	1.554	1553.6	regulate	Run1	regulate/STIM_010.jpg	99
197.337	1.689	1688.8	regulate	Run1	regulate/STIM_010.jpg	100
201.129	0.919	918.8	regulate	Run1	regulate/STIM_010.jpg	99
205.314	1.459	1458.6	regulate	Run1	regulate/STIM_011.jpg	100
209.671	1.27	1269.9	regulate	Run1	regulate/STIM_011.jpg	99
214.105	1.884	1884.5	regulate	Run1	regulate/STIM_011.jpg	100
219.264	1.358	1358.4	regulate	Run1	regulate/STIM_011.jpg	100
224.314	2.164	2163.7	regulate	Run1	regulate/STIM_012.jpg	100
229.274	1.798	1798.3	regulate	Run1	regulate/STIM_012.jpg	100
233.704	1.258	1258.2	regulate	Run1	regulate/STIM_012.jpg	99
238.516	1.323	1323.1	regulate	Run1	regulate/STIM_012.jpg	100
242.2	1.714	1713.9	regulate	Run1	regulate/STIM_013.jpg	100
247.634	1.611	1610.8	regulate	Run1	regulate/STIM_013.jpg	100
252.961	2.063	2063.4	regulate	Run1	regulate/STIM_013.jpg	99
258.635	1.361	1361.1	regulate	Run1	regulate/STIM_013.jpg	99
262.728	1.976	1976.5	regulate	Run1	regulate/STIM_014.jpg	100
267.317	1.536	1536.4	regulate	Run1	regulate/STIM_014.jpg	100
271.48	1.477	1476.9	regulate	Run1	regulate/STIM_014.jpg	100
275.918	1.07	1070.1	regulate	Run1	regulate/STIM_014.jpg	99
279.438	1.476	1475.5	regulate	Run1	regulate/STIM_015.jpg	99
284.093	1.124	1123.5	regulate	Run1	regulate/STIM_015.jpg	99
288.082	1.92	1919.7	regulate	Run1	regulate/STIM_015.jpg	100
293.517	2.018	2018.1	regulate	Run1	regulate/STIM_015.jpg	99
297.732	2.427	2426.9	regulate	Run1	regulate/STIM_016.jpg	99
303.478	2.108	2107.9	regulate	Run1	regulate/STIM_016.jpg	99
308.346	1.464	1464.3	regulate	Run1	regulate/STIM_016.jpg	100
312.467	2.082	2081.9	regulate	Run1	regulate/STIM_016.jpg	100
316.849	1.757	1756.6	regulate	Run1	regulate/STIM_017.jpg	99
321.027	1.089	1089.2	regulate	Run1	regulate/STIM_017.jpg	99
325.542	1.889	1888.9	regulate	Run1	regulate/STIM_017.jpg	99
330.203	1.455	1454.8	regulate	Run1	regulate/STIM_017.jpg	99
334.831	1.965	1964.7	regulate	Run1	regulate/STIM_018.jpg	100
340.583	1.629	1628.7	regulate	Run1	regulate/STIM_018.jpg	100
344.93	1.763	1762.7	regulate	Run1	regulate/STIM_018.jpg	100
348.818	1.758	1758.2	regulate	Run1	regulate/STIM_018.jpg	99
354.278	2.46	2459.7	regulate	Run1	regulate/STIM_019.jpg	99
358.976	1.5	1499.6	regulate	Run1	regulate/STIM_019.jpg	100
363.422	0.982	981.6	regulate	Run1	regulate/STIM_019.jpg	99
368.051	0.943	943.3	regulate	Run1	regulate/STIM_019.jpg	100
371.188	1.473	1472.6	regulate	Run1	regulate/STIM_020.jpg	100
374.844	2.08	2079.9	regulate	Run1	regulate/STIM_020.jpg	100
380.362	1.446	1446.5	regulate	Run1	regulate/STIM_020.jpg	99
384.557	1.504	1503.7	regulate	Run1	regulate/STIM_020.jpg	99
389.945	2.1	2099.9	regulate	Run1	regulate/STIM_021.jpg	99
394.915	1.316	1316.2	regulate	Run1	regulate/STIM_021.jpg	99
398.242	1.788	1787.9	regulate	Run1	regulate/STIM_021.jpg	99
403.708	1.82	1820.0	regulate	Run1	regulate/STIM_021.jpg	99
408.145	1.89	1889.9	regulate	Run1	regulate/STIM_022.jpg	100
412.94	1.353	1353.2	regulate	Run1	regulate/STIM_022.jpg	99
417.95	1.985	1985.2	regulate	Run1	regulate/STIM_022.jpg	100
423.928	1.394	1394.1	regulate	Run1	regulate/STIM_022.jpg	100
429.229	1.852	1851.8	regulate	Run1	regulate/STIM_023.jpg	100
433.385	1.574	1573.9	regulate	Run1	regulate/STIM_023.jpg	99
437.217	1.909	1909.1	regulate	Run1	regulate/STIM_023.jpg	99
442.353	1.216	1215.8	regulate	Run1	regulate/STIM_023.jpg	100
447.495	2.45	2450.5	regulate	Run1	regulate/STIM_024.jpg	100
452.869	2.061	2060.7	regulate	Run1	regulate/STIM_024.jpg	99
457.215	2.052	2051.5	regulate	Run1	regulate/STIM_024.jpg	100
462.164	1.884	1883.5	regulate	Run1	regulate/STIM_024.jpg	100
466.526	2.334	2334.0	regulate	Run1	regulate/STIM_025.jpg	100
471.84	1.992	1992.0	regulate	Run1	regulate/STIM_025.jpg	99
477.02	1.783	1782.6	regulate	Run1	regulate/STIM_025.jpg	100
481.613	1.829	1828.6	regulate	Run1	regulate/STIM_025.jpg	99
485.906	2.306	2305.5	regulate	Run1	regulate/STIM_026.jpg	99
491.608	1.246	1245.6	regulate	Run1	regulate/STIM_026.jpg	99
496.103	1.127	1127.4	regulate	Run1	regulate/STIM_026.jpg	99
499.709	1.283	1283.3	regulate	Run1	regulate/STIM_026.jpg	100
504.79	2.341	2341.2	regulate	Run1	regulate/STIM_027.jpg	100
510.831	1.006	1005.6	regulate	Run1	regulate/STIM_027.jpg	100
514.389	1.711	1711.4	regulate	Run1	regulate/STIM_027.jpg	100
519.988	1.135	1135.0	regulate	Run1	regulate/STIM_027.jpg	99
523.645	2.322	2322.2	regulate	Run1	regulate/STIM_028.jpg	99
529.403	2.103	2103.2	regulate	Run1	regulate/STIM_028.jpg	100
533.85	1.257	1257.3	regulate	Run1	regulate/STIM_028.jpg	100
537.419	1.379	1378.8	regulate	Run1	regulate/STIM_028.jpg	100
541.972	1.071	1071.1	regulate	Run1	regulate/STIM_029.jpg	100
546.862	1.98	1980.4	regulate	Run1	regulate/STIM_029.jpg	99
551.999	1.773	1772.6	regulate	Run1	regulate/STIM_029.jpg	100
556.457	1.963	1962.9	regulate	Run1	regulate/STIM_029.jpg	100
560.614	0.603	602.9	observe	Run1	observe/STIM_000.jpg	100
563.712	0.745	745.0	observe	Run1	observe/STIM_000.jpg	100
567.99	0.924	924.5	observe	Run1	observe/STIM_000.jpg	100
572.393	0.979	978.7	observe	Run1	observe/STIM_000.jpg	99
575.419	0.586	586.2	observe	Run1	observe/STIM_001.jpg	100
579.256	1.072	1072.2	observe	Run1	observe/STIM_001.jpg	100
583.15	0.8	799.5	observe	Run1	observe/STIM_001.jpg	99
586.458	0.931	931.3	observe	Run1	observe/STIM_001.jpg	100
591.272	0.979	979.4	observe	Run1	observe/STIM_002.jpg	100
596.068	0.851	850.7	observe	Run1	observe/STIM_002.jpg	99
599.25	0.845	844.8	observe	Run1	observe/STIM_002.jpg	99
602.27	0.587	587.3	observe	Run1	observe/STIM_002.jpg	99
604.911	0.652	651.6	observe	Run1	observe/STIM_003.jpg	99
607.99	1.093	1092.9	observe	Run1	observe/STIM_003.jpg	99
612.955	0.752	752.1	observe	Run1	observe/STIM_003.jpg	99
616.306	0.91	909.7	observe	Run1	observe/STIM_003.jpg	99
619.669	0.767	767.4	observe	Run1	observe/STIM_004.jpg	100
623.873	0.818	818.4	observe	Run1	observe/STIM_004.jpg	100
627.939	1.125	1124.6	observe	Run1	observe/STIM_004.jpg	99
631.884	1.025	1025.3	observe	Run1	observe/STIM_004.jpg	100
635.572	0.803	802.8	observe	Run1	observe/STIM_005.jpg	99
640.284	0.784	783.5	observe	Run1	observe/STIM_005.jpg	100
643.225	0.798	797.6	observe	Run1	observe/STIM_005.jpg	100
647.079	1.0	999.7	observe	Run1	observe/STIM_005.jpg	99
650.405	0.737	736.9	observe	Run1	observe/STIM_006.jpg	99
654.289	0.619	618.9	observe	Run1	observe/STIM_006.jpg	100
657.939	0.66	659.5	observe	Run1	observe/STIM_006.jpg	100
660.622	0.829	829.1	observe	Run1	observe/STIM_006.jpg	99
664.459	0.842	842.5	observe	Run1	observe/STIM_007.jpg	99
667.515	1.034	1034.5	observe	Run1	observe/STIM_007.jpg	99
672.125	0.978	978.1	observe	Run1	observe/STIM_007.jpg	100
675.4	0.638	638.2	observe	Run1	observe/STIM_007.jpg	100
679.225	0.624	624.2	observe	Run1	observe/STIM_008.jpg	99
682.378	0.695	695.2	observe	Run1	observe/STIM_008.jpg	100
685.202	0.586	586.3	observe	Run1	observe/STIM_008.jpg	99
688.741	0.695	694.8	observe	Run1	observe/STIM_008.jpg	100
692.941	1.03	1030.5	observe	Run1	observe/STIM_009.jpg	99
697.896	0.795	795.0	observe	Run1	observe/STIM_009.jpg	100
702.425	0.964	964.4	observe	Run1	observe/STIM_009.jpg	99
706.94	1.052	1052.4	observe	Run1	observe/STIM_009.jpg	100
710.551	1.093	1092.6	observe	Run1	observe/STIM_010.jpg	99
715.186	1.108	1108.4	observe	Run1	observe/STIM_010.jpg	100
718.642	0.871	870.8	observe	Run1	observe/STIM_010.jpg	99
722.758	1.03	1029.5	observe	Run1	observe/STIM_010.jpg	100
726.799	0.852	852.4	observe	Run1	observe/STIM_011.jpg	100
731.066	1.023	1022.9	observe	Run1	observe/STIM_011.jpg	100
735.553	0.694	694.4	observe	Run1	observe/STIM_011.jpg	99
738.311	1.12	1119.5	observe	Run1	observe/STIM_011.jpg	100
742.95	0.999	999.0	observe	Run1	observe/STIM_012.jpg	99
747.186	0.717	717.1	observe	Run1	observe/STIM_012.jpg	100
750.346	0.662	662.0	observe	Run1	observe/STIM_012.jpg	100
753.03	0.704	704.3	observe	Run1	observe/STIM_012.jpg	100
757.444	0.778	777.5	observe	Run1	observe/STIM_013.jpg	100
761.285	1.052	1051.6	observe	Run1	observe/STIM_013.jpg	99
764.454	0.596	596.3	observe	Run1	observe/STIM_013.jpg	99
768.082	0.68	679.8	observe	Run1	observe/STIM_013.jpg	99
770.762	1.041	1041.4	observe	Run1	observe/STIM_014.jpg	99
775.31	0.775	774.9	observe	Run1	observe/STIM_014.jpg	99
778.208	1.0	999.9	observe	Run1	observe/STIM_014.jpg	100
782.029	0.737	737.2	observe	Run1	observe/STIM_014.jpg	99
786.413	0.611	610.7	observe	Run1	observe/STIM_015.jpg	100
790.781	1.076	1076.2	observe	Run1	observe/STIM_015.jpg	100
794.78	0.858	858.2	observe	Run1	observe/STIM_015.jpg	100
799.029	0.608	607.7	observe	Run1	observe/STIM_015.jpg	99
803.484	0.683	683.0	observe	Run1	observe/STIM_016.jpg	99
808.01	0.748	747.8	observe	Run1	observe/STIM_016.jpg	99
810.799	1.045	1044.6	observe	Run1	observe/STIM_016.jpg	99
815.492	0.924	924.5	observe	Run1	observe/STIM_016.jpg	100
819.434	1.066	1065.7	observe	Run1	observe/STIM_017.jpg	99
824.341	0.719	719.2	observe	Run1	observe/STIM_017.jpg	99
827.941	0.69	690.0	observe	Run1	observe/STIM_017.jpg	100
831.353	0.971	971.0	observe	Run1	observe/STIM_017.jpg	99
834.752	0.83	829.6	observe	Run1	observe/STIM_018.jpg	100
837.615	0.961	960.7	observe	Run1	observe/STIM_018.jpg	100
840.913	0.623	623.0	observe	Run1	observe/STIM_018.jpg	100
845.228	0.776	776.3	observe	Run1	observe/STIM_018.jpg	99
849.385	0.913	913.0	observe	Run1	observe/STIM_019.jpg	99
853.225	0.934	934.0	observe	Run1	observe/STIM_019.jpg	99
857.362	0.613	612.8	observe	Run1	observe/STIM_019.jpg	99
860.739	0.744	743.8	observe	Run1	observe/STIM_019.jpg	100
863.504	2.019	2019.4	regulate	Run2	regulate/STIM_000.jpg	99
868.478	1.674	1674.5	regulate	Run2	regulate/STIM_000.jpg	100
873.053	1.693	1692.9	regulate	Run2	regulate/STIM_000.jpg	99
877.109	0.77	769.6	regulate	Run2	regulate/STIM_000.jpg	100
880.59	1.795	1794.6	regulate	Run2	regulate/STIM_001.jpg	100
885.94	1.197	1197.0	regulate	Run2	regulate/STIM_001.jpg	100
890.606	1.784	1783.6	regulate	Run2	regulate/STIM_001.jpg	100
895.413	0.763	762.7	regulate	Run2	regulate/STIM_001.jpg	99
898.867	1.492	1492.1	regulate	Run2	regulate/STIM_002.jpg	100
904.239	1.853	1852.6	regulate	Run2	regulate/STIM_002.jpg	100
908.107	0.936	936.0	regulate	Run2	regulate/STIM_002.jpg	100
912.766	1.16	1160.4	regulate	Run2	regulate/STIM_002.jpg	100
917.636	1.247	1246.8	regulate	Run2	regulate/STIM_003.jpg	99
922.793	1.582	1582.5	regulate	Run2	regulate/STIM_003.jpg	100
927.092	1.431	1431.3	regulate	Run2	regulate/STIM_003.jpg	100
931.73	0.762	761.9	regulate	Run2	regulate/STIM_003.jpg	99
936.252	2.02	2019.7	regulate	Run2	regulate/STIM_004.jpg	100
940.652	1.1	1100.3	regulate	Run2	regulate/STIM_004.jpg	100
944.636	1.124	1123.8	regulate	Run2	regulate/STIM_004.jpg	100
948.768	0.967	967.1	regulate	Run2	regulate/STIM_004.jpg	99
952.331	1.144	1143.9	regulate	Run2	regulate/STIM_005.jpg	100
956.925	1.058	1058.3	regulate	Run2	regulate/STIM_005.jpg	99
961.219	0.913	913.1	regulate	Run2	regulate/STIM_005.jpg	99
964.142	0.962	961.8	regulate	Run2	regulate/STIM_005.jpg	99
968.746	1.433	1433.0	regulate	Run2	regulate/STIM_006.jpg	100
973.688	1.669	1669.1	regulate	Run2	regulate/STIM_006.jpg	100
978.374	1.509	1509.4	regulate	Run2	regulate/STIM_006.jpg	100
983.565	1.386	1386.1	regulate	Run2	regulate/STIM_006.jpg	100
988.428	1.76	1760.2	regulate	Run2	regulate/STIM_007.jpg	100
992.91	1.472	1472.4	regulate	Run2	regulate/STIM_007.jpg	100
997.761	1.077	1077.3	regulate	Run2	regulate/STIM_007.jpg	99
1002.46	1.65	1650.2	regulate	Run2	regulate/STIM_007.jpg	99
1007.624	1.412	1411.7	regulate	Run2	regulate/STIM_008.jpg	99
1012.492	1.723	1722.6	regulate	Run2	regulate/STIM_008.jpg	100
1018.117	1.097	1096.8	regulate	Run2	regulate/STIM_008.jpg	100
1021.856	1.272	1271.8	regulate	Run2	regulate/STIM_008.jpg	99
1025.41	1.088	1088.1	regulate	Run2	regulate/STIM_009.jpg	99
1029.928	1.429	1429.4	regulate	Run2	regulate/STIM_009.jpg	99
1034.731	1.168	1167.5	regulate	Run2	regulate/STIM_009.jpg	99
1038.231	1.426	1426.4	regulate	Run2	regulate/STIM_009.jpg	99
1043.058	1.496	1495.6	regulate	Run2	regulate/STIM_010.jpg	99
1047.979	1.366	1365.5	regulate	Run2	regulate/STIM_010.jpg	100
1052.382	0.899	899.1	regulate	Run2	regulate/STIM_010.jpg	99
1055.578	1.549	1548.8	regulate	Run2	regulate/STIM_010.jpg	99
1060.831	1.762	1762.4	regulate	Run2	regulate/STIM_011.jpg	99
1065.621	0.955	954.9	regulate	Run2	regulate/STIM_011.jpg	99
1069.167	1.49	1489.6	regulate	Run2	regulate/STIM_011.jpg	99
1074.624	1.027	1026.8	regulate	Run2	regulate/STIM_011.jpg	100
1078.136	1.134	1134.0	regulate	Run2	regulate/STIM_012.jpg	99
1081.359	1.889	1889.0	regulate	Run2	regulate/STIM_012.jpg	100
1085.346	1.755	1755.4	regulate	Run2	regulate/STIM_012.jpg	99
1090.762	1.613	1612.9	regulate	Run2	regulate/STIM_012.jpg	100
1096.281	1.729	1729.4	regulate	Run2	regulate/STIM_013.jpg	99
1100.641	1.594	1593.7	regulate	Run2	regulate/STIM_013.jpg	100
1105.042	1.452	1452.4	regulate	Run2	regulate/STIM_013.jpg	99
1109.676	1.601	1601.1	regulate	Run2	regulate/STIM_013.jpg	99
1115.138	1.926	1925.7	regulate	Run2	regulate/STIM_014.jpg	100
1119.82	1.952	1952.3	regulate	Run2	regulate/STIM_014.jpg	100
1125.439	1.656	1656.5	regulate	Run2	regulate/STIM_014.jpg	99
1129.128	1.694	1693.5	regulate	Run2	regulate/STIM_014.jpg	99
1134.249	1.139	1139.4	regulate	Run2	regulate/STIM_015.jpg	100
1138.75	1.375	1374.8	regulate	Run2	regulate/STIM_015.jpg	99
1143.362	1.222	1221.8	regulate	Run2	regulate/STIM_015.jpg	99
1148.56	0.905	905.4	regulate	Run2	regulate/STIM_015.jpg	99
1152.821	1.671	1670.9	regulate	Run2	regulate/STIM_016.jpg	99
1156.709	1.292	1291.6	regulate	Run2	regulate/STIM_016.jpg	99
1160.031	1.15	1150.1	regulate	Run2	regulate/STIM_016.jpg	100
1164.546	1.178	1178.3	regulate	Run2	regulate/STIM_016.jpg	99
1169.243	1.057	1056.7	regulate	Run2	regulate/STIM_017.jpg	100
1173.567	1.12	1120.4	regulate	Run2	regulate/STIM_017.jpg	99
1178.385	1.756	1755.5	regulate	Run2	regulate/STIM_017.jpg	99
1183.985	0.832	831.7	regulate	Run2	regulate/STIM_017.jpg	99
1188.411	1.702	1702.5	regulate	Run2	regulate/STIM_018.jpg	99
1193.751	1.709	1709.0	regulate	Run2	regulate/STIM_018.jpg	100
1199.165	0.856	856.1	regulate	Run2	regulate/STIM_018.jpg	100
1203.107	1.121	1120.8	regulate	Run2	regulate/STIM_018.jpg	100
1206.778	0.915	915.3	regulate	Run2	regulate/STIM_019.jpg	99
1209.696	1.023	1022.8	regulate	Run2	regulate/STIM_019.jpg	99
1213.256	1.524	1524.2	regulate	Run2	regulate/STIM_019.jpg	99
1217.62	1.118	1117.5	regulate	Run2	regulate/STIM_019.jpg	99
1222.651	1.7	1699.5	regulate	Run2	regulate/STIM_020.jpg	100
1227.277	1.911	1911.4	regulate	Run2	regulate/STIM_020.jpg	100
1231.469	1.532	1531.6	regulate	Run2	regulate/STIM_020.jpg	99
1235.659	1.016	1016.0	regulate	Run2	regulate/STIM_020.jpg	100
1239.278	0.924	923.5	regulate	Run2	regulate/STIM_021.jpg	99
1242.736	0.861	861.1	regulate	Run2	regulate/STIM_021.jpg	100
1246.751	0.96	960.2	regulate	Run2	regulate/STIM_021.jpg	99
1250.327	1.406	1405.9	regulate	Run2	regulate/STIM_021.jpg	100
1254.529	1.759	1758.8	regulate	Run2	regulate/STIM_022.jpg	99
1259.402	1.381	1381.1	regulate	Run2	regulate/STIM_022.jpg	100
1262.936	1.236	1236.0	regulate	Run2	regulate/STIM_022.jpg	99
1267.653	1.034	1034.2	regulate	Run2	regulate/STIM_022.jpg	100
1272.258	1.927	1926.9	regulate	Run2	regulate/STIM_023.jpg	100
1277.552	1.474	1473.6	regulate	Run2	regulate/STIM_023.jpg	100
1282.627	1.639	1638.9	regulate	Run2	regulate/STIM_023.jpg	99
1287.402	1.053	1052.9	regulate	Run2	regulate/STIM_023.jpg	100
1291.941	1.67	1669.7	regulate	Run2	regulate/STIM_024.jpg	100
1296.726	0.936	936.5	regulate	Run2	regulate/STIM_024.jpg	100
1300.919	1.119	1119.4	regulate	Run2	regulate/STIM_024.jpg	100
1305.196	1.024	1023.7	regulate	Run2	regulate/STIM_024.jpg	99
1309.431	1.12	1120.1	regulate	Run2	regulate/STIM_025.jpg	100
1314.263	1.359	1359.0	regulate	Run2	regulate/STIM_025.jpg	99
1319.001	1.553	1553.0	regulate	Run2	regulate/STIM_025.jpg	99
1323.665	0.861	860.8	regulate	Run2	regulate/STIM_025.jpg	100
1327.562	0.912	912.1	regulate	Run2	regulate/STIM_026.jpg	100
1331.963	0.989	989.4	regulate	Run2	regulate/STIM_026.jpg	99
1335.795	0.86	860.0	regulate	Run2	regulate/STIM_026.jpg	99
1339.304	1.47	1470.1	regulate	Run2	regulate/STIM_026.jpg	100
1344.065	1.613	1613.2	regulate	Run2	regulate/STIM_027.jpg	100
1349.544	1.06	1060.1	regulate	Run2	regulate/STIM_027.jpg	100
1352.753	0.89	890.3	regulate	Run2	regulate/STIM_027.jpg	99
1356.899	1.692	1691.6	regulate	Run2	regulate/STIM_027.jpg	100
1360.757	1.283	1283.4	regulate	Run2	regulate/STIM_028.jpg	100
1365.819	0.878	877.5	regulate	Run2	regulate/STIM_028.jpg	100
1369.788	1.004	1004.5	regulate	Run2	regulate/STIM_028.jpg	100
1374.786	1.432	1432.5	regulate	Run2	regulate/STIM_028.jpg	99
1379.773	1.377	1377.0	regulate	Run2	regulate/STIM_029.jpg	99
1384.805	1.966	1966.1	regulate	Run2	regulate/STIM_029.jpg	100
1389.081	0.854	854.2	regulate	Run2	regulate/STIM_029.jpg	100
1393.312	1.047	1047.3	regulate	Run2	regulate/STIM_029.jpg	99
1396.816	0.847	846.9	observe	Run2	observe/STIM_000.jpg	100
1401.531	1.066	1065.7	observe	Run2	observe/STIM_000.jpg	100
1405.791	0.58	580.5	observe	Run2	observe/STIM_000.jpg	99
1409.657	0.648	648.5	observe	Run2	observe/STIM_000.jpg	99
1414.099	1.069	1069.3	observe	Run2	observe/STIM_001.jpg	99
1418.313	0.671	671.0	observe	Run2	observe/STIM_001.jpg	99
1422.02	0.71	710.5	observe	Run2	observe/STIM_001.jpg	100
1426.304	0.695	694.6	observe	Run2	observe/STIM_001.jpg	100
1430.272	0.685	685.3	observe	Run2	observe/STIM_002.jpg	99
1434.066	0.926	925.8	observe	Run2	observe/STIM_002.jpg	99
1437.597	0.696	695.6	observe	Run2	observe/STIM_002.jpg	99
1440.398	0.736	735.8	observe	Run2	observe/STIM_002.jpg	99
1443.185	1.083	1082.7	observe	Run2	observe/STIM_003.jpg	99
1447.384	1.06	1060.3	observe	Run2	observe/STIM_003.jpg	100
1450.832	0.791	791.1	observe	Run2	observe/STIM_003.jpg	99
1455.436	0.838	837.6	observe	Run2	observe/STIM_003.jpg	100
1458.765	0.7	700.2	observe	Run2	observe/STIM_004.jpg	99
1463.266	0.843	843.0	observe	Run2	observe/STIM_004.jpg	100
1467.504	0.852	851.7	observe	Run2	observe/STIM_004.jpg	100
1471.38	0.881	881.4	observe	Run2	observe/STIM_004.jpg	100
1476.236	0.688	687.5	observe	Run2	observe/STIM_005.jpg	99
1480.297	0.821	821.0	observe	Run2	observe/STIM_005.jpg	99
1484.966	0.703	703.3	observe	Run2	observe/STIM_005.jpg	99
1487.988	1.057	1057.1	observe	Run2	observe/STIM_005.jpg	99
1491.704	0.901	901.1	observe	Run2	observe/STIM_006.jpg	99
1496.298	0.658	658.5	observe	Run2	observe/STIM_006.jpg	99
1500.005	0.905	904.9	observe	Run2	observe/STIM_006.jpg	100
1504.621	0.889	888.7	observe	Run2	observe/STIM_006.jpg	99
1508.469	0.817	816.6	observe	Run2	observe/STIM_007.jpg	100
1512.929	1.0	999.6	observe	Run2	observe/STIM_007.jpg	99
1517.71	0.621	621.1	observe	Run2	observe/STIM_007.jpg	100
1520.72	0.9	900.5	observe	Run2	observe/STIM_007.jpg	100
1525.249	0.745	744.8	observe	Run2	observe/STIM_008.jpg	99
1529.88	1.068	1067.6	observe	Run2	observe/STIM_008.jpg	100
1534.736	0.83	830.3	observe	Run2	observe/STIM_008.jpg	100
1538.892	0.694	694.0	observe	Run2	observe/STIM_008.jpg	99
1541.87	0.757	757.1	observe	Run2	observe/STIM_009.jpg	100
1544.871	0.864	864.2	observe	Run2	observe/STIM_009.jpg	99
1548.332	0.867	867.0	observe	Run2	observe/STIM_009.jpg	100
1551.453	1.085	1085.0	observe	Run2	observe/STIM_009.jpg	99
1556.46	0.75	749.6	observe	Run2	observe/STIM_010.jpg	99
1560.472	1.007	1006.6	observe	Run2	observe/STIM_010.jpg	100
1563.986	0.971	971.1	observe	Run2	observe/STIM_010.jpg	99
1567.08	0.602	602.1	observe	Run2	observe/STIM_010.jpg	100
1570.599	1.038	1038.1	observe	Run2	observe/STIM_011.jpg	100
1574.492	0.614	614.3	observe	Run2	observe/STIM_011.jpg	100
1578.372	0.565	564.6	observe	Run2	observe/STIM_011.jpg	100
1581.659	1.083	1083.4	observe	Run2	observe/STIM_011.jpg	100
1584.765	0.654	653.7	observe	Run2	observe/STIM_012.jpg	99
1588.139	0.833	833.1	observe	Run2	observe/STIM_012.jpg	99
1592.414	0.666	666.4	observe	Run2	observe/STIM_012.jpg	99
1596.256	1.091	1091.4	observe	Run2	observe/STIM_012.jpg	99
1600.913	0.941	941.4	observe	Run2	observe/STIM_013.jpg	100
1604.337	0.923	922.8	observe	Run2	observe/STIM_013.jpg	100
1608.517	1.062	1061.7	observe	Run2	observe/STIM_013.jpg	99
1613.127	0.878	878.5	observe	Run2	observe/STIM_013.jpg	100
1617.554	0.783	782.9	observe	Run2	observe/STIM_014.jpg	100
1621.242	0.727	727.0	observe	Run2	observe/STIM_014.jpg	100
1624.796	0.58	580.2	observe	Run2	observe/STIM_014.jpg	99
1627.552	0.697	697.2	observe	Run2	observe/STIM_014.jpg	100
1631.704	0.603	602.8	observe	Run2	observe/STIM_015.jpg	100
1634.825	0.993	993.3	observe	Run2	observe/STIM_015.jpg	99
1639.068	1.036	1036.4	observe	Run2	observe/STIM_015.jpg	100
1642.971	0.909	909.0	observe	Run2	observe/STIM_015.jpg	99
1647.755	1.022	1022.1	observe	Run2	observe/STIM_016.jpg	99
1650.852	0.693	693.2	observe	Run2	observe/STIM_016.jpg	99
1654.671	0.624	624.0	observe	Run2	observe/STIM_016.jpg	100
1658.688	0.901	900.9	observe	Run2	observe/STIM_016.jpg	100
1663.538	0.93	930.3	observe	Run2	observe/STIM_017.jpg	100
1667.124	0.882	882.1	observe	Run2	observe/STIM_017.jpg	100
1670.453	1.008	1007.5	observe	Run2	observe/STIM_017.jpg	100
1673.617	1.099	1098.9	observe	Run2	observe/STIM_017.jpg	99
1677.02	0.87	870.0	observe	Run2	observe/STIM_018.jpg	99
1681.024	0.604	603.8	observe	Run2	observe/STIM_018.jpg	100
1684.0	1.065	1064.8	observe	Run2	observe/STIM_018.jpg	99
1687.926	0.771	771.1	observe	Run2	observe/STIM_018.jpg	99
1691.364	0.671	671.1	observe	Run2	observe/STIM_019.jpg	100
1694.928	0.806	806.1	observe	Run2	observe/STIM_019.jpg	100
1698.358	0.605	605.4	observe	Run2	observe/STIM_019.jpg	100
1702.081	0.789	788.8	observe	Run2	observe/STIM_019.jpg	100
1705.154	0.919	919.1	regulate	Run3	regulate/STIM_000.jpg	99
1708.658	1.086	1085.8	regulate	Run3	regulate/STIM_000.jpg	99
1713.434	1.199	1199.4	regulate	Run3	regulate/STIM_000.jpg	99
1716.864	1.559	1558.7	regulate	Run3	regulate/STIM_000.jpg	100
1721.098	0.887	887.2	regulate	Run3	regulate/STIM_001.jpg	100
1724.601	0.992	992.5	regulate	Run3	regulate/STIM_001.jpg	100
1728.584	1.194	1194.5	regulate	Run3	regulate/STIM_001.jpg	100
1732.554	0.92	920.3	regulate	Run3	regulate/STIM_001.jpg	100
1736.591	0.822	822.4	regulate	Run3	regulate/STIM_002.jpg	99
1740.372	0.745	744.6	regulate	Run3	regulate/STIM_002.jpg	100
1744.124	0.929	929.0	regulate	Run3	regulate/STIM_002.jpg	100
1748.069	1.632	1631.8	regulate	Run3	regulate/STIM_002.jpg	99
1752.696	0.847	846.8	regulate	Run3	regulate/STIM_003.jpg	100
1757.485	0.762	762.4	regulate	Run3	regulate/STIM_003.jpg	99
1760.356	1.371	1370.8	regulate	Run3	regulate/STIM_003.jpg	99
1765.031	1.64	1639.9	regulate	Run3	regulate/STIM_003.jpg	99
1770.538	1.714	1714.5	regulate	Run3	regulate/STIM_004.jpg	99
1774.454	0.76	760.5	regulate	Run3	regulate/STIM_004.jpg	99
1777.383	1.132	1132.2	regulate	Run3	regulate/STIM_004.jpg	99
1782.111	1.452	1451.9	regulate	Run3	regulate/STIM_004.jpg	99
1786.975	1.052	1052.3	regulate	Run3	regulate/STIM_005.jpg	100
1791.645	1.368	1367.5	regulate	Run3	regulate/STIM_005.jpg	99
1796.593	0.75	750.5	regulate	Run3	regulate/STIM_005.jpg	99
1800.611	0.995	995.0	regulate	Run3	regulate/STIM_005.jpg	99
1805.519	0.763	762.8	regulate	Run3	regulate/STIM_006.jpg	100
1808.416	0.932	932.4	regulate	Run3	regulate/STIM_006.jpg	99
1812.417	1.393	1393.4	regulate	Run3	regulate/STIM_006.jpg	100
1817.352	1.016	1015.7	regulate	Run3	regulate/STIM_006.jpg	100
1821.432	1.469	1468.8	regulate	Run3	regulate/STIM_007.jpg	100
1825.386	1.238	1238.5	regulate	Run3	regulate/STIM_007.jpg	100
1829.995	1.021	1020.6	regulate	Run3	regulate/STIM_007.jpg	99
1834.04	1.464	1463.7	regulate	Run3	regulate/STIM_007.jpg	100
1838.057	1.166	1166.3	regulate	Run3	regulate/STIM_008.jpg	100
1842.601	1.522	1522.5	regulate	Run3	regulate/STIM_008.jpg	100
1847.111	1.033	1033.2	regulate	Run3	regulate/STIM_008.jpg	100
1851.285	1.125	1124.8	regulate	Run3	regulate/STIM_008.jpg	100
1854.904	1.636	1635.8	regulate	Run3	regulate/STIM_009.jpg	99
1860.116	0.941	940.9	regulate	Run3	regulate/STIM_009.jpg	100
1863.489	0.801	801.4	regulate	Run3	regulate/STIM_009.jpg	100
1866.433	0.909	908.6	regulate	Run3	regulate/STIM_009.jpg	99
1870.526	1.484	1484.2	regulate	Run3	regulate/STIM_010.jpg	100
1875.45	1.618	1617.9	regulate	Run3	regulate/STIM_010.jpg	99
1880.962	0.925	925.4	regulate	Run3	regulate/STIM_010.jpg	100
1884.433	1.455	1455.4	regulate	Run3	regulate/STIM_010.jpg	100
1889.329	0.853	853.2	regulate	Run3	regulate/STIM_011.jpg	100
1892.745	1.405	1405.0	regulate	Run3	regulate/STIM_011.jpg	100
1897.143	1.348	1348.5	regulate	Run3	regulate/STIM_011.jpg	99
1902.185	0.931	930.7	regulate	Run3	regulate/STIM_011.jpg	99
1906.921	1.595	1595.2	regulate	Run3	regulate/STIM_012.jpg	99
1912.451	1.463	1463.3	regulate	Run3	regulate/STIM_012.jpg	100
1917.373	0.893	892.6	regulate	Run3	regulate/STIM_012.jpg	100
1922.079	1.516	1515.5	regulate	Run3	regulate/STIM_012.jpg	100
1927.532	1.221	1221.0	regulate	Run3	regulate/STIM_013.jpg	99
1932.014	0.84	839.7	regulate	Run3	regulate/STIM_013.jpg	99
1936.037	1.371	1370.6	regulate	Run3	regulate/STIM_013.jpg	100
1940.489	1.4	1400.2	regulate	Run3	regulate/STIM_013.jpg	100
1945.858	1.184	1184.2	regulate	Run3	regulate/STIM_014.jpg	100
1950.137	1.344	1344.3	regulate	Run3	regulate/STIM_014.jpg	99
1955.257	1.009	1008.6	regulate	Run3	regulate/STIM_014.jpg	100
1959.238	0.948	948.4	regulate	Run3	regulate/STIM_014.jpg	99
1963.922	1.386	1386.1	regulate	Run3	regulate/STIM_015.jpg	99
1968.756	1.103	1102.9	regulate	Run3	regulate/STIM_015.jpg	100
1972.92	1.264	1263.6	regulate	Run3	regulate/STIM_015.jpg	99
1977.49	0.858	858.4	regulate	Run3	regulate/STIM_015.jpg	100
1981.65	1.692	1691.7	regulate	Run3	regulate/STIM_016.jpg	100
1986.314	1.51	1509.8	regulate	Run3	regulate/STIM_016.jpg	99
1990.597	1.418	1417.6	regulate	Run3	regulate/STIM_016.jpg	99
1995.224	1.002	1002.5	regulate	Run3	regulate/STIM_016.jpg	99
1998.986	1.436	1435.8	regulate	Run3	regulate/STIM_017.jpg	100
2003.398	1.21	1209.5	regulate	Run3	regulate/STIM_017.jpg	99
2006.648	1.278	1278.1	regulate	Run3	regulate/STIM_017.jpg	99
2011.312	1.421	1421.1	regulate	Run3	regulate/STIM_017.jpg	100
2016.713	0.805	805.0	regulate	Run3	regulate/STIM_018.jpg	100
2020.524	1.334	1333.8	regulate	Run3	regulate/STIM_018.jpg	100
2024.374	1.143	1143.1	regulate	Run3	regulate/STIM_018.jpg	99
2028.187	1.203	1202.9	regulate	Run3	regulate/STIM_018.jpg	100
2031.431	0.88	879.7	regulate	Run3	regulate/STIM_019.jpg	100
2036.303	1.012	1012.1	regulate	Run3	regulate/STIM_019.jpg	99
2040.779	1.545	1544.8	regulate	Run3	regulate/STIM_019.jpg	99
2045.187	1.298	1297.6	regulate	Run3	regulate/STIM_019.jpg	100
2049.766	1.652	1651.8	regulate	Run3	regulate/STIM_020.jpg	99
2055.263	1.627	1626.6	regulate	Run3	regulate/STIM_020.jpg	100
2060.116	1.612	1611.8	regulate	Run3	regulate/STIM_020.jpg	100
2064.847	0.929	929.0	regulate	Run3	regulate/STIM_020.jpg	99
2068.807	1.053	1052.6	regulate	Run3	regulate/STIM_021.jpg	99
2073.167	1.58	1580.4	regulate	Run3	regulate/STIM_021.jpg	100
2078.011	1.684	1684.3	regulate	Run3	regulate/STIM_021.jpg	99
2081.82	1.61	1610.1	regulate	Run3	regulate/STIM_021.jpg	99
2085.808	1.221	1221.1	regulate	Run3	regulate/STIM_022.jpg	100
2089.904	1.679	1678.8	regulate	Run3	regulate/STIM_022.jpg	100
2094.168	1.052	1051.7	regulate	Run3	regulate/STIM_022.jpg	100
2098.124	1.18	1180.1	regulate	Run3	regulate/STIM_022.jpg	99
2101.584	1.362	1362.5	regulate	Run3	regulate/STIM_023.jpg	99
2105.24	0.839	838.9	regulate	Run3	regulate/STIM_023.jpg	99
2108.772	1.273	1272.8	regulate	Run3	regulate/STIM_023.jpg	99
2112.855	0.898	898.5	regulate	Run3	regulate/STIM_023.jpg	99
2116.718	1.123	1122.9	regulate	Run3	regulate/STIM_024.jpg	100
2120.609	1.665	1665.3	regulate	Run3	regulate/STIM_024.jpg	100
2124.322	1.087	1087.0	regulate	Run3	regulate/STIM_024.jpg	99
2128.298	0.789	789.4	regulate	Run3	regulate/STIM_024.jpg	100
2132.707	1.241	1241.3	regulate	Run3	regulate/STIM_025.jpg	100
2136.3	1.59	1589.9	regulate	Run3	regulate/STIM_025.jpg	100
2139.992	1.225	1224.6	regulate	Run3	regulate/STIM_025.jpg	99
2143.808	1.479	1479.3	regulate	Run3	regulate/STIM_025.jpg	99
2147.573	1.368	1368.1	regulate	Run3	regulate/STIM_026.jpg	99
2151.608	1.156	1155.7	regulate	Run3	regulate/STIM_026.jpg	100
2155.076	1.41	1409.6	regulate	Run3	regulate/STIM_026.jpg	99
2160.217	1.586	1585.7	regulate	Run3	regulate/STIM_026.jpg	99
2164.622	1.654	1653.5	regulate	Run3	regulate/STIM_027.jpg	100
2169.136	1.009	1009.0	regulate	Run3	regulate/STIM_027.jpg	100
2173.819	1.387	1386.9	regulate	Run3	regulate/STIM_027.jpg	99
2178.867	0.74	740.1	regulate	Run3	regulate/STIM_027.jpg	99
2182.969	1.293	1293.1	regulate	Run3	regulate/STIM_028.jpg	99
2188.057	1.435	1435.3	regulate	Run3	regulate/STIM_028.jpg	100
2191.932	1.086	1086.2	regulate	Run3	regulate/STIM_028.jpg	99
2195.854	1.723	1722.8	regulate	Run3	regulate/STIM_028.jpg	100
2200.393	1.05	1049.5	regulate	Run3	regulate/STIM_029.jpg	100
2204.133	1.671	1671.4	regulate	Run3	regulate/STIM_029.jpg	99
2208.364	1.253	1253.1	regulate	Run3	regulate/STIM_029.jpg	99
2212.735	1.43	1430.5	regulate	Run3	regulate/STIM_029.jpg	99
2216.524	0.57	569.7	observe	Run3	observe/STIM_000.jpg	99
2220.274	0.829	829.3	observe	Run3	observe/STIM_000.jpg	100
2223.704	0.837	837.1	observe	Run3	observe/STIM_000.jpg	99
2227.229	0.598	597.6	observe	Run3	observe/STIM_000.jpg	100
2231.622	0.721	720.7	observe	Run3	observe/STIM_001.jpg	100
2234.507	1.086	1085.5	observe	Run3	observe/STIM_001.jpg	100
2238.248	0.936	935.8	observe	Run3	observe/STIM_001.jpg	99
2243.041	0.582	582.5	observe	Run3	observe/STIM_001.jpg	99
2246.562	1.045	1044.6	observe	Run3	observe/STIM_002.jpg	100
2249.662	1.113	1113.3	observe	Run3	observe/STIM_002.jpg	99
2254.034	0.921	920.9	observe	Run3	observe/STIM_002.jpg	100
2257.257	0.582	582.5	observe	Run3	observe/STIM_002.jpg	100
2260.023	0.817	816.9	observe	Run3	observe/STIM_003.jpg	99
2264.411	1.126	1125.9	observe	Run3	observe/STIM_003.jpg	99
2268.337	0.87	870.5	observe	Run3	observe/STIM_003.jpg	99
2271.413	0.959	959.0	observe	Run3	observe/STIM_003.jpg	100
2276.074	0.607	606.9	observe	Run3	observe/STIM_004.jpg	99
2280.578	0.637	636.8	observe	Run3	observe/STIM_004.jpg	100
2283.819	0.873	873.3	observe	Run3	observe/STIM_004.jpg	100
2287.378	1.036	1035.9	observe	Run3	observe/STIM_004.jpg	99
2290.557	0.735	734.8	observe	Run3	observe/STIM_005.jpg	99
2294.493	0.938	937.5	observe	Run3	observe/STIM_005.jpg	100
2299.243	0.967	966.9	observe	Run3	observe/STIM_005.jpg	99
2303.001	0.94	940.1	observe	Run3	observe/STIM_005.jpg	100
2306.166	0.841	841.2	observe	Run3	observe/STIM_006.jpg	100
2309.43	1.005	1004.9	observe	Run3	observe/STIM_006.jpg	99
2313.823	0.751	751.0	observe	Run3	observe/STIM_006.jpg	100
2318.241	1.11	1109.5	observe	Run3	observe/STIM_006.jpg	100
2321.524	1.121	1121.1	observe	Run3	observe/STIM_007.jpg	99
2326.626	0.873	873.0	observe	Run3	observe/STIM_007.jpg	100
2330.812	1.082	1081.8	observe	Run3	observe/STIM_007.jpg	99
2335.318	0.692	691.5	observe	Run3	observe/STIM_007.jpg	99
2339.977	0.894	893.9	observe	Run3	observe/STIM_008.jpg	100
2344.834	1.064	1064.1	observe	Run3	observe/STIM_008.jpg	99
2349.136	0.688	687.9	observe	Run3	observe/STIM_008.jpg	100
2352.46	0.794	794.1	observe	Run3	observe/STIM_008.jpg	99
2355.716	1.015	1015.1	observe	Run3	observe/STIM_009.jpg	100
2359.982	0.616	615.7	observe	Run3	observe/STIM_009.jpg	100
2364.182	0.88	879.8	observe	Run3	observe/STIM_009.jpg	100
2368.178	0.584	584.3	observe	Run3	observe/STIM_009.jpg	100
2372.75	1.067	1066.7	observe	Run3	observe/STIM_010.jpg	99
2376.887	1.126	1126.1	observe	Run3	observe/STIM_010.jpg	100
2380.204	0.844	843.6	observe	Run3	observe/STIM_010.jpg	99
2384.803	0.598	598.0	observe	Run3	observe/STIM_010.jpg	99
2388.746	0.608	607.7	observe	Run3	observe/STIM_011.jpg	99
2392.752	1.044	1043.7	observe	Run3	observe/STIM_011.jpg	100
2397.72	0.835	834.7	observe	Run3	observe/STIM_011.jpg	100
2402.346	0.766	765.5	observe	Run3	observe/STIM_011.jpg	99
2406.535	0.684	684.4	observe	Run3	observe/STIM_012.jpg	100
2411.192	1.092	1092.0	observe	Run3	observe/STIM_012.jpg	100
2414.538	0.633	633.1	observe	Run3	observe/STIM_012.jpg	100
2418.937	1.106	1106.1	observe	Run3	observe/STIM_012.jpg	99
2422.724	1.046	1045.9	observe	Run3	observe/STIM_013.jpg	99
2426.561	0.739	739.0	observe	Run3	observe/STIM_013.jpg	100
2430.31	0.588	588.1	observe	Run3	observe/STIM_013.jpg	100
2433.25	0.939	939.2	observe	Run3	observe/STIM_013.jpg	99
2437.931	0.618	618.0	observe	Run3	observe/STIM_014.jpg	100
2441.13	1.086	1085.8	observe	Run3	observe/STIM_014.jpg	99
2444.735	0.719	719.4	observe	Run3	observe/STIM_014.jpg	99
2448.22	0.959	959.1	observe	Run3	observe/STIM_014.jpg	100
2451.416	0.74	740.2	observe	Run3	observe/STIM_015.jpg	100
2455.977	0.947	946.9	observe	Run3	observe/STIM_015.jpg	99
2460.47	0.844	843.9	observe	Run3	observe/STIM_015.jpg	100
2464.336	0.874	874.2	observe	Run3	observe/STIM_015.jpg	100
2468.048	1.018	1018.2	observe	Run3	observe/STIM_016.jpg	100
2472.657	0.827	826.7	observe	Run3	observe/STIM_016.jpg	99
2475.578	0.747	747.1	observe	Run3	observe/STIM_016.jpg	100
2479.921	0.725	724.7	observe	Run3	observe/STIM_016.jpg	100
2483.946	0.952	951.7	observe	Run3	observe/STIM_017.jpg	99
2488.855	0.806	806.3	observe	Run3	observe/STIM_017.jpg	99
2491.811	0.569	568.8	observe	Run3	observe/STIM_017.jpg	100
2495.736	0.844	843.5	observe	Run3	observe/STIM_017.jpg	99
2499.591	1.123	1122.9	observe	Run3	observe/STIM_018.jpg	100
2503.522	0.611	610.6	observe	Run3	observe/STIM_018.jpg	100
2506.765	0.975	974.7	observe	Run3	observe/STIM_018.jpg	100
2510.879	0.958	957.7	observe	Run3	observe/STIM_018.jpg	100
2514.205	0.747	747.3	observe	Run3	observe/STIM_019.jpg	99
2518.242	0.708	708.2	observe	Run3	observe/STIM_019.jpg	100
2521.193	0.928	928.4	observe	Run3	observe/STIM_019.jpg	100
2524.683	0.722	721.5	observe	Run3	observe/STIM_019.jpg	99
