onset	duration	accuracy_binary	trial_type	learning_stage	stimulus
0.0	1.34	1	regulate	Run1	regulate/STIM_000.jpg
4.852	1.277	1	regulate	Run1	regulate/STIM_000.jpg
8.565	2.135	1	regulate	Run1	regulate/STIM_000.jpg
14.392	1.182	1	regulate	Run1	regulate/STIM_000.jpg
18.193	1.801	1	regulate	Run1	regulate/STIM_001.jpg
23.429	1.136	1	regulate	Run1	regulate/STIM_001.jpg
27.913	1.57	1	regulate	Run1	regulate/STIM_001.jpg
32.978	1.995	1	regulate	Run1	regulate/STIM_001.jpg
38.916	1.974	1	regulate	Run1	regulate/STIM_002.jpg
43.759	2.206	1	regulate	Run1	regulate/STIM_002.jpg
49.039	1.664	0	regulate	Run1	regulate/STIM_002.jpg
53.973	1.429	0	regulate	Run1	regulate/STIM_002.jpg
58.1	2.003	1	regulate	Run1	regulate/STIM_003.jpg
62.164	1.74	1	regulate	Run1	regulate/STIM_003.jpg
67.409	1.772	1	regulate	Run1	regulate/STIM_003.jpg
72.037	1.18	1	regulate	Run1	regulate/STIM_003.jpg
76.664	2.46	1	regulate	Run1	regulate/STIM_004.jpg
82.782	1.222	1	regulate	Run1	regulate/STIM_004.jpg
87.566	1.272	1	regulate	Run1	regulate/STIM_004.jpg
92.068	1.993	0	regulate	Run1	regulate/STIM_004.jpg
97.855	1.379	1	regulate	Run1	regulate/STIM_005.jpg
102.623	1.317	1	regulate	Run1	regulate/STIM_005.jpg
106.808	1.754	1	regulate	Run1	regulate/STIM_005.jpg
111.355	1.326	1	regulate	Run1	regulate/STIM_005.jpg
115.344	1.208	1	regulate	Run1	regulate/STIM_006.jpg
118.721	1.357	1	regulate	Run1	regulate/STIM_006.jpg
122.91	2.113	1	regulate	Run1	regulate/STIM_006.jpg
127.826	1.625	1	regulate	Run1	regulate/STIM_006.jpg
131.895	2.348	1	regulate	Run1	regulate/STIM_007.jpg
137.694	1.224	1	regulate	Run1	regulate/STIM_007.jpg
141.94	1.868	1	regulate	Run1	regulate/STIM_007.jpg
146.47	1.729	0	regulate	Run1	regulate/STIM_007.jpg
151.906	1.492	1	regulate	Run1	regulate/STIM_008.jpg
156.788	1.277	1	regulate	Run1	regulate/STIM_008.jpg
160.781	1.936	1	regulate	Run1	regulate/STIM_008.jpg
165.875	1.294	1	regulate	Run1	regulate/STIM_008.jpg
170.759	1.108	1	regulate	Run1	regulate/STIM_009.jpg
175.547	2.044	1	regulate	Run1	regulate/STIM_009.jpg
179.798	1.529	1	regulate	Run1	regulate/STIM_009.jpg
184.403	2.038	1	regulate	Run1	regulate/STIM_009.jpg
189.546	1.607	1	regulate	Run1	regulate/STIM_010.jpg
193.182	1.554	1	regulate	Run1	regulate/STIM_010.jpg
197.337	1.689	1	regulate	Run1	regulate/STIM_010.jpg
201.129	0.919	1	regulate	Run1	regulate/STIM_010.jpg
205.314	1.459	1	regulate	Run1	regulate/STIM_011.jpg
209.671	1.27	1	regulate	Run1	regulate/STIM_011.jpg
214.105	1.884	1	regulate	Run1	regulate/STIM_011.jpg
219.264	1.358	1	regulate	Run1	regulate/STIM_011.jpg
224.314	2.164	1	regulate	Run1	regulate/STIM_012.jpg
229.274	1.798	1	regulate	Run1	regulate/STIM_012.jpg
233.704	1.258	1	regulate	Run1	regulate/STIM_012.jpg
238.516	1.323	1	regulate	Run1	regulate/STIM_012.jpg
242.2	1.714	1	regulate	Run1	regulate/STIM_013.jpg
247.634	1.611	1	regulate	Run1	regulate/STIM_013.jpg
252.961	2.063	1	regulate	Run1	regulate/STIM_013.jpg
258.635	1.361	0	regulate	Run1	regulate/STIM_013.jpg
262.728	1.976	0	regulate	Run1	regulate/STIM_014.jpg
267.317	1.536	1	regulate	Run1	regulate/STIM_014.jpg
271.48	1.477	1	regulate	Run1	regulate/STIM_014.jpg
275.918	1.07	1	regulate	Run1	regulate/STIM_014.jpg
279.438	1.476	1	regulate	Run1	regulate/STIM_015.jpg
284.093	1.124	1	regulate	Run1	regulate/STIM_015.jpg
288.082	1.92	1	regulate	Run1	regulate/STIM_015.jpg
293.517	2.018	1	regulate	Run1	regulate/STIM_015.jpg
297.732	2.427	1	regulate	Run1	regulate/STIM_016.jpg
303.478	2.108	0	regulate	Run1	regulate/STIM_016.jpg
308.346	1.464	1	regulate	Run1	regulate/STIM_016.jpg
312.467	2.082	1	regulate	Run1	regulate/STIM_016.jpg
316.849	1.757	1	regulate	Run1	regulate/STIM_017.jpg
321.027	1.089	1	regulate	Run1	regulate/STIM_017.jpg
325.542	1.889	1	regulate	Run1	regulate/STIM_017.jpg
330.203	1.455	1	regulate	Run1	regulate/STIM_017.jpg
334.831	1.965	1	regulate	Run1	regulate/STIM_018.jpg
340.583	1.629	0	regulate	Run1	regulate/STIM_018.jpg
344.93	1.763	1	regulate	Run1	regulate/STIM_018.jpg
348.818	1.758	1	regulate	Run1	regulate/STIM_018.jpg
354.278	2.46	1	regulate	Run1	regulate/STIM_019.jpg
358.976	1.5	0	regulate	Run1	regulate/STIM_019.jpg
363.422	0.982	1	regulate	Run1	regulate/STIM_019.jpg
368.051	0.943	1	regulate	Run1	regulate/STIM_019.jpg
371.188	1.473	1	regulate	Run1	regulate/STIM_020.jpg
374.844	2.08	1	regulate	Run1	regulate/STIM_020.jpg
380.362	1.446	1	regulate	Run1	regulate/STIM_020.jpg
384.557	1.504	1	regulate	Run1	regulate/STIM_020.jpg
389.945	2.1	1	regulate	Run1	regulate/STIM_021.jpg
394.915	1.316	1	regulate	Run1	regulate/STIM_021.jpg
398.242	1.788	1	regulate	Run1	regulate/STIM_021.jpg
403.708	1.82	1	regulate	Run1	regulate/STIM_021.jpg
408.145	1.89	1	regulate	Run1	regulate/STIM_022.jpg
412.94	1.353	1	regulate	Run1	regulate/STIM_022.jpg
417.95	1.985	1	regulate	Run1	regulate/STIM_022.jpg
423.928	1.394	1	regulate	Run1	regulate/STIM_022.jpg
429.229	1.852	1	regulate	Run1	regulate/STIM_023.jpg
433.385	1.574	1	regulate	Run1	regulate/STIM_023.jpg
437.217	1.909	1	regulate	Run1	regulate/STIM_023.jpg
442.353	1.216	1	regulate	Run1	regulate/STIM_023.jpg
447.495	2.45	1	regulate	Run1	regulate/STIM_024.jpg
452.869	2.061	1	regulate	Run1	regulate/STIM_024.jpg
457.215	2.052	1	regulate	Run1	regulate/STIM_024.jpg
462.164	1.884	1	regulate	Run1	regulate/STIM_024.jpg
466.526	2.334	1	regulate	Run1	regulate/STIM_025.jpg
471.84	1.992	1	regulate	Run1	regulate/STIM_025.jpg
477.02	1.783	1	regulate	Run1	regulate/STIM_025.jpg
481.613	1.829	1	regulate	Run1	regulate/STIM_025.jpg
485.906	2.306	1	regulate	Run1	regulate/STIM_026.jpg
491.608	1.246	1	regulate	Run1	regulate/STIM_026.jpg
496.103	1.127	0	regulate	Run1	regulate/STIM_026.jpg
499.709	1.283	1	regulate	Run1	regulate/STIM_026.jpg
504.79	2.341	1	regulate	Run1	regulate/STIM_027.jpg
510.831	1.006	1	regulate	Run1	regulate/STIM_027.jpg
514.389	1.711	1	regulate	Run1	regulate/STIM_027.jpg
519.988	1.135	1	regulate	Run1	regulate/STIM_027.jpg
523.645	2.322	1	regulate	Run1	regulate/STIM_028.jpg
529.403	2.103	1	regulate	Run1	regulate/STIM_028.jpg
533.85	1.257	1	regulate	Run1	regulate/STIM_028.jpg
537.419	1.379	1	regulate	Run1	regulate/STIM_028.jpg
541.972	1.071	1	regulate	Run1	regulate/STIM_029.jpg
546.862	1.98	1	regulate	Run1	regulate/STIM_029.jpg
551.999	1.773	1	regulate	Run1	regulate/STIM_029.jpg
556.457	1.963	1	regulate	Run1	regulate/STIM_029.jpg
560.614	0.603	1	observe	Run1	observe/STIM_000.jpg
563.712	0.745	1	observe	Run1	observe/STIM_000.jpg
567.99	0.924	1	observe	Run1	observe/STIM_000.jpg
572.393	0.979	1	observe	Run1	observe/STIM_000.jpg
575.419	0.586	1	observe	Run1	observe/STIM_001.jpg
579.256	1.072	1	observe	Run1	observe/STIM_001.jpg
583.15	0.8	1	observe	Run1	observe/STIM_001.jpg
586.458	0.931	1	observe	Run1	observe/STIM_001.jpg
591.272	0.979	1	observe	Run1	observe/STIM_002.jpg
596.068	0.851	1	observe	Run1	observe/STIM_002.jpg
599.25	0.845	1	observe	Run1	observe/STIM_002.jpg
602.27	0.587	1	observe	Run1	observe/STIM_002.jpg
604.911	0.652	1	observe	Run1	observe/STIM_003.jpg
607.99	1.093	1	observe	Run1	observe/STIM_003.jpg
612.955	0.752	1	observe	Run1	observe/STIM_003.jpg
616.306	0.91	1	observe	Run1	observe/STIM_003.jpg
619.669	0.767	1	observe	Run1	observe/STIM_004.jpg
623.873	0.818	1	observe	Run1	observe/STIM_004.jpg
627.939	1.125	1	observe	Run1	observe/STIM_004.jpg
631.884	1.025	1	observe	Run1	observe/STIM_004.jpg
635.572	0.803	1	observe	Run1	observe/STIM_005.jpg
640.284	0.784	1	observe	Run1	observe/STIM_005.jpg
643.225	0.798	1	observe	Run1	observe/STIM_005.jpg
647.079	1.0	1	observe	Run1	observe/STIM_005.jpg
650.405	0.737	1	observe	Run1	observe/STIM_006.jpg
654.289	0.619	1	observe	Run1	observe/STIM_006.jpg
657.939	0.66	1	observe	Run1	observe/STIM_006.jpg
660.622	0.829	1	observe	Run1	observe/STIM_006.jpg
664.459	0.842	1	observe	Run1	observe/STIM_007.jpg
667.515	1.034	1	observe	Run1	observe/STIM_007.jpg
672.125	0.978	1	observe	Run1	observe/STIM_007.jpg
675.4	0.638	1	observe	Run1	observe/STIM_007.jpg
679.225	0.624	1	observe	Run1	observe/STIM_008.jpg
682.378	0.695	1	observe	Run1	observe/STIM_008.jpg
685.202	0.586	1	observe	Run1	observe/STIM_008.jpg
688.741	0.695	1	observe	Run1	observe/STIM_008.jpg
692.941	1.03	1	observe	Run1	observe/STIM_009.jpg
697.896	0.795	1	observe	Run1	observe/STIM_009.jpg
702.425	0.964	1	observe	Run1	observe/STIM_009.jpg
706.94	1.052	1	observe	Run1	observe/STIM_009.jpg
710.551	1.093	1	observe	Run1	observe/STIM_010.jpg
715.186	1.108	1	observe	Run1	observe/STIM_010.jpg
718.642	0.871	1	observe	Run1	observe/STIM_010.jpg
722.758	1.03	1	observe	Run1	observe/STIM_010.jpg
726.799	0.852	1	observe	Run1	observe/STIM_011.jpg
731.066	1.023	0	observe	Run1	observe/STIM_011.jpg
735.553	0.694	1	observe	Run1	observe/STIM_011.jpg
738.311	1.12	1	observe	Run1	observe/STIM_011.jpg
742.95	0.999	1	observe	Run1	observe/STIM_012.jpg
747.186	0.717	1	observe	Run1	observe/STIM_012.jpg
750.346	0.662	1	observe	Run1	observe/STIM_012.jpg
753.03	0.704	1	observe	Run1	observe/STIM_012.jpg
757.444	0.778	1	observe	Run1	observe/STIM_013.jpg
761.285	1.052	1	observe	Run1	observe/STIM_013.jpg
764.454	0.596	1	observe	Run1	observe/STIM_013.jpg
768.082	0.68	1	observe	Run1	observe/STIM_013.jpg
770.762	1.041	1	observe	Run1	observe/STIM_014.jpg
775.31	0.775	1	observe	Run1	observe/STIM_014.jpg
778.208	1.0	1	observe	Run1	observe/STIM_014.jpg
782.029	0.737	1	observe	Run1	observe/STIM_014.jpg
786.413	0.611	1	observe	Run1	observe/STIM_015.jpg
790.781	1.076	1	observe	Run1	observe/STIM_015.jpg
794.78	0.858	1	observe	Run1	observe/STIM_015.jpg
799.029	0.608	1	observe	Run1	observe/STIM_015.jpg
803.484	0.683	1	observe	Run1	observe/STIM_016.jpg
808.01	0.748	1	observe	Run1	observe/STIM_016.jpg
810.799	1.045	1	observe	Run1	observe/STIM_016.jpg
815.492	0.924	1	observe	Run1	observe/STIM_016.jpg
819.434	1.066	1	observe	Run1	observe/STIM_017.jpg
824.341	0.719	1	observe	Run1	observe/STIM_017.jpg
827.941	0.69	1	observe	Run1	observe/STIM_017.jpg
831.353	0.971	1	observe	Run1	observe/STIM_017.jpg
834.752	0.83	1	observe	Run1	observe/STIM_018.jpg
837.615	0.961	1	observe	Run1	observe/STIM_018.jpg
840.913	0.623	1	observe	Run1	observe/STIM_018.jpg
845.228	0.776	1	observe	Run1	observe/STIM_018.jpg
849.385	0.913	1	observe	Run1	observe/STIM_019.jpg
853.225	0.934	1	observe	Run1	observe/STIM_019.jpg
857.362	0.613	1	observe	Run1	observe/STIM_019.jpg
860.739	0.744	1	observe	Run1	observe/STIM_019.jpg
863.504	2.019	1	regulate	Run2	regulate/STIM_000.jpg
868.478	1.674	1	regulate	Run2	regulate/STIM_000.jpg
873.053	1.693	1	regulate	Run2	regulate/STIM_000.jpg
877.109	0.77	1	regulate	Run2	regulate/STIM_000.jpg
880.59	1.795	1	regulate	Run2	regulate/STIM_001.jpg
885.94	1.197	1	regulate	Run2	regulate/STIM_001.jpg
890.606	1.784	1	regulate	Run2	regulate/STIM_001.jpg
895.413	0.763	1	regulate	Run2	regulate/STIM_001.jpg
898.867	1.492	1	regulate	Run2	regulate/STIM_002.jpg
904.239	1.853	1	regulate	Run2	regulate/STIM_002.jpg
908.107	0.936	1	regulate	Run2	regulate/STIM_002.jpg
912.766	1.16	1	regulate	Run2	regulate/STIM_002.jpg
917.636	1.247	1	regulate	Run2	regulate/STIM_003.jpg
922.793	1.582	1	regulate	Run2	regulate/STIM_003.jpg
927.092	1.431	1	regulate	Run2	regulate/STIM_003.jpg
931.73	0.762	1	regulate	Run2	regulate/STIM_003.jpg
936.252	2.02	1	regulate	Run2	regulate/STIM_004.jpg
940.652	1.1	1	regulate	Run2	regulate/STIM_004.jpg
944.636	1.124	1	regulate	Run2	regulate/STIM_004.jpg
948.768	0.967	1	regulate	Run2	regulate/STIM_004.jpg
952.331	1.144	1	regulate	Run2	regulate/STIM_005.jpg
956.925	1.058	1	regulate	Run2	regulate/STIM_005.jpg
961.219	0.913	1	regulate	Run2	regulate/STIM_005.jpg
964.142	0.962	1	regulate	Run2	regulate/STIM_005.jpg
968.746	1.433	1	regulate	Run2	regulate/STIM_006.jpg
973.688	1.669	1	regulate	Run2	regulate/STIM_006.jpg
978.374	1.509	1	regulate	Run2	regulate/STIM_006.jpg
983.565	1.386	1	regulate	Run2	regulate/STIM_006.jpg
988.428	1.76	1	regulate	Run2	regulate/STIM_007.jpg
992.91	1.472	1	regulate	Run2	regulate/STIM_007.jpg
997.761	1.077	1	regulate	Run2	regulate/STIM_007.jpg
1002.46	1.65	1	regulate	Run2	regulate/STIM_007.jpg
1007.624	1.412	1	regulate	Run2	regulate/STIM_008.jpg
1012.492	1.723	1	regulate	Run2	regulate/STIM_008.jpg
1018.117	1.097	1	regulate	Run2	regulate/STIM_008.jpg
1021.856	1.272	1	regulate	Run2	regulate/STIM_008.jpg
1025.41	1.088	1	regulate	Run2	regulate/STIM_009.jpg
1029.928	1.429	1	regulate	Run2	regulate/STIM_009.jpg
1034.731	1.168	1	regulate	Run2	regulate/STIM_009.jpg
1038.231	1.426	1	regulate	Run2	regulate/STIM_009.jpg
1043.058	1.496	1	regulate	Run2	regulate/STIM_010.jpg
1047.979	1.366	1	regulate	Run2	regulate/STIM_010.jpg
1052.382	0.899	1	regulate	Run2	regulate/STIM_010.jpg
1055.578	1.549	1	regulate	Run2	regulate/STIM_010.jpg
1060.831	1.762	1	regulate	Run2	regulate/STIM_011.jpg
1065.621	0.955	1	regulate	Run2	regulate/STIM_011.jpg
1069.167	1.49	1	regulate	Run2	regulate/STIM_011.jpg
1074.624	1.027	1	regulate	Run2	regulate/STIM_011.jpg
1078.136	1.134	0	regulate	Run2	regulate/STIM_012.jpg
1081.359	1.889	1	regulate	Run2	regulate/STIM_012.jpg
1085.346	1.755	1	regulate	Run2	regulate/STIM_012.jpg
1090.762	1.613	1	regulate	Run2	regulate/STIM_012.jpg
1096.281	1.729	0	regulate	Run2	regulate/STIM_013.jpg
1100.641	1.594	1	regulate	Run2	regulate/STIM_013.jpg
1105.042	1.452	1	regulate	Run2	regulate/STIM_013.jpg
1109.676	1.601	1	regulate	Run2	regulate/STIM_013.jpg
1115.138	1.926	1	regulate	Run2	regulate/STIM_014.jpg
1119.82	1.952	0	regulate	Run2	regulate/STIM_014.jpg
1125.439	1.656	1	regulate	Run2	regulate/STIM_014.jpg
1129.128	1.694	1	regulate	Run2	regulate/STIM_014.jpg
1134.249	1.139	1	regulate	Run2	regulate/STIM_015.jpg
1138.75	1.375	1	regulate	Run2	regulate/STIM_015.jpg
1143.362	1.222	1	regulate	Run2	regulate/STIM_015.jpg
1148.56	0.905	1	regulate	Run2	regulate/STIM_015.jpg
1152.821	1.671	0	regulate	Run2	regulate/STIM_016.jpg
1156.709	1.292	1	regulate	Run2	regulate/STIM_016.jpg
1160.031	1.15	1	regulate	Run2	regulate/STIM_016.jpg
1164.546	1.178	1	regulate	Run2	regulate/STIM_016.jpg
1169.243	1.057	1	regulate	Run2	regulate/STIM_017.jpg
1173.567	1.12	1	regulate	Run2	regulate/STIM_017.jpg
1178.385	1.756	1	regulate	Run2	regulate/STIM_017.jpg
1183.985	0.832	1	regulate	Run2	regulate/STIM_017.jpg
1188.411	1.702	1	regulate	Run2	regulate/STIM_018.jpg
1193.751	1.709	1	regulate	Run2	regulate/STIM_018.jpg
1199.165	0.856	1	regulate	Run2	regulate/STIM_018.jpg
1203.107	1.121	0	regulate	Run2	regulate/STIM_018.jpg
1206.778	0.915	1	regulate	Run2	regulate/STIM_019.jpg
1209.696	1.023	1	regulate	Run2	regulate/STIM_019.jpg
1213.256	1.524	1	regulate	Run2	regulate/STIM_019.jpg
1217.62	1.118	1	regulate	Run2	regulate/STIM_019.jpg
1222.651	1.7	1	regulate	Run2	regulate/STIM_020.jpg
1227.277	1.911	1	regulate	Run2	regulate/STIM_020.jpg
1231.469	1.532	1	regulate	Run2	regulate/STIM_020.jpg
1235.659	1.016	1	regulate	Run2	regulate/STIM_020.jpg
1239.278	0.924	1	regulate	Run2	regulate/STIM_021.jpg
1242.736	0.861	1	regulate	Run2	regulate/STIM_021.jpg
1246.751	0.96	1	regulate	Run2	regulate/STIM_021.jpg
1250.327	1.406	1	regulate	Run2	regulate/STIM_021.jpg
1254.529	1.759	1	regulate	Run2	regulate/STIM_022.jpg
1259.402	1.381	1	regulate	Run2	regulate/STIM_022.jpg
1262.936	1.236	1	regulate	Run2	regulate/STIM_022.jpg
1267.653	1.034	1	regulate	Run2	regulate/STIM_022.jpg
1272.258	1.927	1	regulate	Run2	regulate/STIM_023.jpg
1277.552	1.474	1	regulate	Run2	regulate/STIM_023.jpg
1282.627	1.639	1	regulate	Run2	regulate/STIM_023.jpg
1287.402	1.053	1	regulate	Run2	regulate/STIM_023.jpg
1291.941	1.67	1	regulate	Run2	regulate/STIM_024.jpg
1296.726	0.936	1	regulate	Run2	regulate/STIM_024.jpg
1300.919	1.119	1	regulate	Run2	regulate/STIM_024.jpg
1305.196	1.024	1	regulate	Run2	regulate/STIM_024.jpg
1309.431	1.12	1	regulate	Run2	regulate/STIM_025.jpg
1314.263	1.359	1	regulate	Run2	regulate/STIM_025.jpg
1319.001	1.553	0	regulate	Run2	regulate/STIM_025.jpg
1323.665	0.861	1	regulate	Run2	regulate/STIM_025.jpg
1327.562	0.912	1	regulate	Run2	regulate/STIM_026.jpg
1331.963	0.989	1	regulate	Run2	regulate/STIM_026.jpg
1335.795	0.86	1	regulate	Run2	regulate/STIM_026.jpg
1339.304	1.47	1	regulate	Run2	regulate/STIM_026.jpg
1344.065	1.613	1	regulate	Run2	regulate/STIM_027.jpg
1349.544	1.06	1	regulate	Run2	regulate/STIM_027.jpg
1352.753	0.89	1	regulate	Run2	regulate/STIM_027.jpg
1356.899	1.692	1	regulate	Run2	regulate/STIM_027.jpg
1360.757	1.283	1	regulate	Run2	regulate/STIM_028.jpg
1365.819	0.878	1	regulate	Run2	regulate/STIM_028.jpg
1369.788	1.004	1	regulate	Run2	regulate/STIM_028.jpg
1374.786	1.432	1	regulate	Run2	regulate/STIM_028.jpg
1379.773	1.377	1	regulate	Run2	regulate/STIM_029.jpg
1384.805	1.966	1	regulate	Run2	regulate/STIM_029.jpg
1389.081	0.854	1	regulate	Run2	regulate/STIM_029.jpg
1393.312	1.047	0	regulate	Run2	regulate/STIM_029.jpg
1396.816	0.847	1	observe	Run2	observe/STIM_000.jpg
1401.531	1.066	1	observe	Run2	observe/STIM_000.jpg
1405.791	0.58	1	observe	Run2	observe/STIM_000.jpg
1409.657	0.648	1	observe	Run2	observe/STIM_000.jpg
1414.099	1.069	1	observe	Run2	observe/STIM_001.jpg
1418.313	0.671	0	observe	Run2	observe/STIM_001.jpg
1422.02	0.71	1	observe	Run2	observe/STIM_001.jpg
1426.304	0.695	1	observe	Run2	observe/STIM_001.jpg
1430.272	0.685	0	observe	Run2	observe/STIM_002.jpg
1434.066	0.926	1	observe	Run2	observe/STIM_002.jpg
1437.597	0.696	1	observe	Run2	observe/STIM_002.jpg
1440.398	0.736	1	observe	Run2	observe/STIM_002.jpg
1443.185	1.083	1	observe	Run2	observe/STIM_003.jpg
1447.384	1.06	1	observe	Run2	observe/STIM_003.jpg
1450.832	0.791	1	observe	Run2	observe/STIM_003.jpg
1455.436	0.838	1	observe	Run2	observe/STIM_003.jpg
1458.765	0.7	1	observe	Run2	observe/STIM_004.jpg
1463.266	0.843	1	observe	Run2	observe/STIM_004.jpg
1467.504	0.852	1	observe	Run2	observe/STIM_004.jpg
1471.38	0.881	1	observe	Run2	observe/STIM_004.jpg
1476.236	0.688	1	observe	Run2	observe/STIM_005.jpg
1480.297	0.821	1	observe	Run2	observe/STIM_005.jpg
1484.966	0.703	1	observe	Run2	observe/STIM_005.jpg
1487.988	1.057	1	observe	Run2	observe/STIM_005.jpg
1491.704	0.901	1	observe	Run2	observe/STIM_006.jpg
1496.298	0.658	1	observe	Run2	observe/STIM_006.jpg
1500.005	0.905	1	observe	Run2	observe/STIM_006.jpg
1504.621	0.889	1	observe	Run2	observe/STIM_006.jpg
1508.469	0.817	1	observe	Run2	observe/STIM_007.jpg
1512.929	1.0	1	observe	Run2	observe/STIM_007.jpg
1517.71	0.621	1	observe	Run2	observe/STIM_007.jpg
1520.72	0.9	1	observe	Run2	observe/STIM_007.jpg
1525.249	0.745	1	observe	Run2	observe/STIM_008.jpg
1529.88	1.068	1	observe	Run2	observe/STIM_008.jpg
1534.736	0.83	1	observe	Run2	observe/STIM_008.jpg
1538.892	0.694	1	observe	Run2	observe/STIM_008.jpg
1541.87	0.757	1	observe	Run2	observe/STIM_009.jpg
1544.871	0.864	1	observe	Run2	observe/STIM_009.jpg
1548.332	0.867	1	observe	Run2	observe/STIM_009.jpg
1551.453	1.085	1	observe	Run2	observe/STIM_009.jpg
1556.46	0.75	1	observe	Run2	observe/STIM_010.jpg
1560.472	1.007	1	observe	Run2	observe/STIM_010.jpg
1563.986	0.971	1	observe	Run2	observe/STIM_010.jpg
1567.08	0.602	1	observe	Run2	observe/STIM_010.jpg
1570.599	1.038	1	observe	Run2	observe/STIM_011.jpg
1574.492	0.614	0	observe	Run2	observe/STIM_011.jpg
1578.372	0.565	1	observe	Run2	observe/STIM_011.jpg
1581.659	1.083	1	observe	Run2	observe/STIM_011.jpg
1584.765	0.654	1	observe	Run2	observe/STIM_012.jpg
1588.139	0.833	1	observe	Run2	observe/STIM_012.jpg
1592.414	0.666	1	observe	Run2	observe/STIM_012.jpg
1596.256	1.091	1	observe	Run2	observe/STIM_012.jpg
1600.913	0.941	1	observe	Run2	observe/STIM_013.jpg
1604.337	0.923	1	observe	Run2	observe/STIM_013.jpg
1608.517	1.062	1	observe	Run2	observe/STIM_013.jpg
1613.127	0.878	1	observe	Run2	observe/STIM_013.jpg
1617.554	0.783	1	observe	Run2	observe/STIM_014.jpg
1621.242	0.727	1	observe	Run2	observe/STIM_014.jpg
1624.796	0.58	1	observe	Run2	observe/STIM_014.jpg
1627.552	0.697	1	observe	Run2	observe/STIM_014.jpg
1631.704	0.603	1	observe	Run2	observe/STIM_015.jpg
1634.825	0.993	1	observe	Run2	observe/STIM_015.jpg
1639.068	1.036	1	observe	Run2	observe/STIM_015.jpg
1642.971	0.909	1	observe	Run2	observe/STIM_015.jpg
1647.755	1.022	1	observe	Run2	observe/STIM_016.jpg
1650.852	0.693	1	observe	Run2	observe/STIM_016.jpg
1654.671	0.624	1	observe	Run2	observe/STIM_016.jpg
1658.688	0.901	1	observe	Run2	observe/STIM_016.jpg
1663.538	0.93	1	observe	Run2	observe/STIM_017.jpg
1667.124	0.882	1	observe	Run2	observe/STIM_017.jpg
1670.453	1.008	1	observe	Run2	observe/STIM_017.jpg
1673.617	1.099	1	observe	Run2	observe/STIM_017.jpg
1677.02	0.87	1	observe	Run2	observe/STIM_018.jpg
1681.024	0.604	1	observe	Run2	observe/STIM_018.jpg
1684.0	1.065	1	observe	Run2	observe/STIM_018.jpg
1687.926	0.771	0	observe	Run2	observe/STIM_018.jpg
1691.364	0.671	1	observe	Run2	observe/STIM_019.jpg
1694.928	0.806	1	observe	Run2	observe/STIM_019.jpg
1698.358	0.605	1	observe	Run2	observe/STIM_019.jpg
1702.081	0.789	1	observe	Run2	observe/STIM_019.jpg
1705.154	0.919	1	regulate	Run3	regulate/STIM_000.jpg
1708.658	1.086	1	regulate	Run3	regulate/STIM_000.jpg
1713.434	1.199	1	regulate	Run3	regulate/STIM_000.jpg
1716.864	1.559	1	regulate	Run3	regulate/STIM_000.jpg
1721.098	0.887	1	regulate	Run3	regulate/STIM_001.jpg
1724.601	0.992	1	regulate	Run3	regulate/STIM_001.jpg
1728.584	1.194	1	regulate	Run3	regulate/STIM_001.jpg
1732.554	0.92	1	regulate	Run3	regulate/STIM_001.jpg
1736.591	0.822	1	regulate	Run3	regulate/STIM_002.jpg
1740.372	0.745	1	regulate	Run3	regulate/STIM_002.jpg
1744.124	0.929	1	regulate	Run3	regulate/STIM_002.jpg
1748.069	1.632	1	regulate	Run3	regulate/STIM_002.jpg
1752.696	0.847	1	regulate	Run3	regulate/STIM_003.jpg
1757.485	0.762	1	regulate	Run3	regulate/STIM_003.jpg
1760.356	1.371	1	regulate	Run3	regulate/STIM_003.jpg
1765.031	1.64	1	regulate	Run3	regulate/STIM_003.jpg
1770.538	1.714	0	regulate	Run3	regulate/STIM_004.jpg
1774.454	0.76	1	regulate	Run3	regulate/STIM_004.jpg
1777.383	1.132	1	regulate	Run3	regulate/STIM_004.jpg
1782.111	1.452	1	regulate	Run3	regulate/STIM_004.jpg
1786.975	1.052	1	regulate	Run3	regulate/STIM_005.jpg
1791.645	1.368	1	regulate	Run3	regulate/STIM_005.jpg
1796.593	0.75	1	regulate	Run3	regulate/STIM_005.jpg
1800.611	0.995	1	regulate	Run3	regulate/STIM_005.jpg
1805.519	0.763	1	regulate	Run3	regulate/STIM_006.jpg
1808.416	0.932	1	regulate	Run3	regulate/STIM_006.jpg
1812.417	1.393	1	regulate	Run3	regulate/STIM_006.jpg
1817.352	1.016	1	regulate	Run3	regulate/STIM_006.jpg
1821.432	1.469	1	regulate	Run3	regulate/STIM_007.jpg
1825.386	1.238	1	regulate	Run3	regulate/STIM_007.jpg
1829.995	1.021	1	regulate	Run3	regulate/STIM_007.jpg
1834.04	1.464	1	regulate	Run3	regulate/STIM_007.jpg
1838.057	1.166	1	regulate	Run3	regulate/STIM_008.jpg
1842.601	1.522	1	regulate	Run3	regulate/STIM_008.jpg
1847.111	1.033	1	regulate	Run3	regulate/STIM_008.jpg
1851.285	1.125	1	regulate	Run3	regulate/STIM_008.jpg
1854.904	1.636	1	regulate	Run3	regulate/STIM_009.jpg
1860.116	0.941	1	regulate	Run3	regulate/STIM_009.jpg
1863.489	0.801	1	regulate	Run3	regulate/STIM_009.jpg
1866.433	0.909	1	regulate	Run3	regulate/STIM_009.jpg
1870.526	1.484	1	regulate	Run3	regulate/STIM_010.jpg
1875.45	1.618	1	regulate	Run3	regulate/STIM_010.jpg
1880.962	0.925	1	regulate	Run3	regulate/STIM_010.jpg
1884.433	1.455	1	regulate	Run3	regulate/STIM_010.jpg
1889.329	0.853	1	regulate	Run3	regulate/STIM_011.jpg
1892.745	1.405	1	regulate	Run3	regulate/STIM_011.jpg
1897.143	1.348	1	regulate	Run3	regulate/STIM_011.jpg
1902.185	0.931	1	regulate	Run3	regulate/STIM_011.jpg
1906.921	1.595	1	regulate	Run3	regulate/STIM_012.jpg
1912.451	1.463	1	regulate	Run3	regulate/STIM_012.jpg
1917.373	0.893	1	regulate	Run3	regulate/STIM_012.jpg
1922.079	1.516	1	regulate	Run3	regulate/STIM_012.jpg
1927.532	1.221	1	regulate	Run3	regulate/STIM_013.jpg
1932.014	0.84	1	regulate	Run3	regulate/STIM_013.jpg
1936.037	1.371	1	regulate	Run3	regulate/STIM_013.jpg
1940.489	1.4	1	regulate	Run3	regulate/STIM_013.jpg
1945.858	1.184	1	regulate	Run3	regulate/STIM_014.jpg
1950.137	1.344	1	regulate	Run3	regulate/STIM_014.jpg
1955.257	1.009	1	regulate	Run3	regulate/STIM_014.jpg
1959.238	0.948	1	regulate	Run3	regulate/STIM_014.jpg
1963.922	1.386	1	regulate	Run3	regulate/STIM_015.jpg
1968.756	1.103	1	regulate	Run3	regulate/STIM_015.jpg
1972.92	1.264	1	regulate	Run3	regulate/STIM_015.jpg
1977.49	0.858	1	regulate	Run3	regulate/STIM_015.jpg
1981.65	1.692	1	regulate	Run3	regulate/STIM_016.jpg
1986.314	1.51	1	regulate	Run3	regulate/STIM_016.jpg
1990.597	1.418	1	regulate	Run3	regulate/STIM_016.jpg
1995.224	1.002	1	regulate	Run3	regulate/STIM_016.jpg
1998.986	1.436	1	regulate	Run3	regulate/STIM_017.jpg
2003.398	1.21	1	regulate	Run3	regulate/STIM_017.jpg
2006.648	1.278	1	regulate	Run3	regulate/STIM_017.jpg
2011.312	1.421	1	regulate	Run3	regulate/STIM_017.jpg
2016.713	0.805	1	regulate	Run3	regulate/STIM_018.jpg
2020.524	1.334	1	regulate	Run3	regulate/STIM_018.jpg
2024.374	1.143	1	regulate	Run3	regulate/STIM_018.jpg
2028.187	1.203	1	regulate	Run3	regulate/STIM_018.jpg
2031.431	0.88	1	regulate	Run3	regulate/STIM_019.jpg
2036.303	1.012	1	regulate	Run3	regulate/STIM_019.jpg
2040.779	1.545	1	regulate	Run3	regulate/STIM_019.jpg
2045.187	1.298	1	regulate	Run3	regulate/STIM_019.jpg
2049.766	1.652	1	regulate	Run3	regulate/STIM_020.jpg
2055.263	1.627	1	regulate	Run3	regulate/STIM_020.jpg
2060.116	1.612	1	regulate	Run3	regulate/STIM_020.jpg
2064.847	0.929	1	regulate	Run3	regulate/STIM_020.jpg
2068.807	1.053	1	regulate	Run3	regulate/STIM_021.jpg
2073.167	1.58	1	regulate	Run3	regulate/STIM_021.jpg
2078.011	1.684	1	regulate	Run3	regulate/STIM_021.jpg
2081.82	1.61	1	regulate	Run3	regulate/STIM_021.jpg
2085.808	1.221	1	regulate	Run3	regulate/STIM_022.jpg
2089.904	1.679	1	regulate	Run3	regulate/STIM_022.jpg
2094.168	1.052	1	regulate	Run3	regulate/STIM_022.jpg
2098.124	1.18	1	regulate	Run3	regulate/STIM_022.jpg
2101.584	1.362	1	regulate	Run3	regulate/STIM_023.jpg
2105.24	0.839	1	regulate	Run3	regulate/STIM_023.jpg
2108.772	1.273	1	regulate	Run3	regulate/STIM_023.jpg
2112.855	0.898	1	regulate	Run3	regulate/STIM_023.jpg
2116.718	1.123	1	regulate	Run3	regulate/STIM_024.jpg
2120.609	1.665	1	regulate	Run3	regulate/STIM_024.jpg
2124.322	1.087	1	regulate	Run3	regulate/STIM_024.jpg
2128.298	0.789	1	regulate	Run3	regulate/STIM_024.jpg
2132.707	1.241	1	regulate	Run3	regulate/STIM_025.jpg
2136.3	1.59	1	regulate	Run3	regulate/STIM_025.jpg
2139.992	1.225	1	regulate	Run3	regulate/STIM_025.jpg
2143.808	1.479	1	regulate	Run3	regulate/STIM_025.jpg
2147.573	1.368	1	regulate	Run3	regulate/STIM_026.jpg
2151.608	1.156	1	regulate	Run3	regulate/STIM_026.jpg
2155.076	1.41	1	regulate	Run3	regulate/STIM_026.jpg
2160.217	1.586	1	regulate	Run3	regulate/STIM_026.jpg
2164.622	1.654	1	regulate	Run3	regulate/STIM_027.jpg
2169.136	1.009	1	regulate	Run3	regulate/STIM_027.jpg
2173.819	1.387	1	regulate	Run3	regulate/STIM_027.jpg
2178.867	0.74	1	regulate	Run3	regulate/STIM_027.jpg
2182.969	1.293	1	regulate	Run3	regulate/STIM_028.jpg
2188.057	1.435	1	regulate	Run3	regulate/STIM_028.jpg
2191.932	1.086	1	regulate	Run3	regulate/STIM_028.jpg
2195.854	1.723	1	regulate	Run3	regulate/STIM_028.jpg
2200.393	1.05	1	regulate	Run3	regulate/STIM_029.jpg
2204.133	1.671	0	regulate	Run3	regulate/STIM_029.jpg
2208.364	1.253	1	regulate	Run3	regulate/STIM_029.jpg
2212.735	1.43	1	regulate	Run3	regulate/STIM_029.jpg
2216.524	0.57	1	observe	Run3	observe/STIM_000.jpg
2220.274	0.829	1	observe	Run3	observe/STIM_000.jpg
2223.704	0.837	1	observe	Run3	observe/STIM_000.jpg
2227.229	0.598	1	observe	Run3	observe/STIM_000.jpg
2231.622	0.721	1	observe	Run3	observe/STIM_001.jpg
2234.507	1.086	1	observe	Run3	observe/STIM_001.jpg
2238.248	0.936	1	observe	Run3	observe/STIM_001.jpg
2243.041	0.582	1	observe	Run3	observe/STIM_001.jpg
2246.562	1.045	1	observe	Run3	observe/STIM_002.jpg
2249.662	1.113	1	observe	Run3	observe/STIM_002.jpg
2254.034	0.921	1	observe	Run3	observe/STIM_002.jpg
2257.257	0.582	1	observe	Run3	observe/STIM_002.jpg
2260.023	0.817	1	observe	Run3	observe/STIM_003.jpg
2264.411	1.126	1	observe	Run3	observe/STIM_003.jpg
2268.337	0.87	1	observe	Run3	observe/STIM_003.jpg
2271.413	0.959	1	observe	Run3	observe/STIM_003.jpg
2276.074	0.607	1	observe	Run3	observe/STIM_004.jpg
2280.578	0.637	1	observe	Run3	observe/STIM_004.jpg
2283.819	0.873	1	observe	Run3	observe/STIM_004.jpg
2287.378	1.036	1	observe	Run3	observe/STIM_004.jpg
2290.557	0.735	1	observe	Run3	observe/STIM_005.jpg
2294.493	0.938	1	observe	Run3	observe/STIM_005.jpg
2299.243	0.967	1	observe	Run3	observe/STIM_005.jpg
2303.001	0.94	1	observe	Run3	observe/STIM_005.jpg
2306.166	0.841	1	observe	Run3	observe/STIM_006.jpg
2309.43	1.005	1	observe	Run3	observe/STIM_006.jpg
2313.823	0.751	1	observe	Run3	observe/STIM_006.jpg
2318.241	1.11	1	observe	Run3	observe/STIM_006.jpg
2321.524	1.121	1	observe	Run3	observe/STIM_007.jpg
2326.626	0.873	1	observe	Run3	observe/STIM_007.jpg
2330.812	1.082	1	observe	Run3	observe/STIM_007.jpg
2335.318	0.692	1	observe	Run3	observe/STIM_007.jpg
2339.977	0.894	1	observe	Run3	observe/STIM_008.jpg
2344.834	1.064	1	observe	Run3	observe/STIM_008.jpg
2349.136	0.688	1	observe	Run3	observe/STIM_008.jpg
2352.46	0.794	1	observe	Run3	observe/STIM_008.jpg
2355.716	1.015	1	observe	Run3	observe/STIM_009.jpg
2359.982	0.616	1	observe	Run3	observe/STIM_009.jpg
2364.182	0.88	1	observe	Run3	observe/STIM_009.jpg
2368.178	0.584	1	observe	Run3	observe/STIM_009.jpg
2372.75	1.067	1	observe	Run3	observe/STIM_010.jpg
2376.887	1.126	1	observe	Run3	observe/STIM_010.jpg
2380.204	0.844	1	observe	Run3	observe/STIM_010.jpg
2384.803	0.598	1	observe	Run3	observe/STIM_010.jpg
2388.746	0.608	1	observe	Run3	observe/STIM_011.jpg
2392.752	1.044	1	observe	Run3	observe/STIM_011.jpg
2397.72	0.835	1	observe	Run3	observe/STIM_011.jpg
2402.346	0.766	1	observe	Run3	observe/STIM_011.jpg
2406.535	0.684	1	observe	Run3	observe/STIM_012.jpg
2411.192	1.092	1	observe	Run3	observe/STIM_012.jpg
2414.538	0.633	1	observe	Run3	observe/STIM_012.jpg
2418.937	1.106	1	observe	Run3	observe/STIM_012.jpg
2422.724	1.046	1	observe	Run3	observe/STIM_013.jpg
2426.561	0.739	1	observe	Run3	observe/STIM_013.jpg
2430.31	0.588	1	observe	Run3	observe/STIM_013.jpg
2433.25	0.939	1	observe	Run3	observe/STIM_013.jpg
2437.931	0.618	1	observe	Run3	observe/STIM_014.jpg
2441.13	1.086	1	observe	Run3	observe/STIM_014.jpg
2444.735	0.719	1	observe	Run3	observe/STIM_014.jpg
2448.22	0.959	1	observe	Run3	observe/STIM_014.jpg
2451.416	0.74	1	observe	Run3	observe/STIM_015.jpg
2455.977	0.947	1	observe	Run3	observe/STIM_015.jpg
2460.47	0.844	1	observe	Run3	observe/STIM_015.jpg
2464.336	0.874	1	observe	Run3	observe/STIM_015.jpg
2468.048	1.018	1	observe	Run3	observe/STIM_016.jpg
2472.657	0.827	1	observe	Run3	observe/STIM_016.jpg
2475.578	0.747	1	observe	Run3	observe/STIM_016.jpg
2479.921	0.725	1	observe	Run3	observe/STIM_016.jpg
2483.946	0.952	1	observe	Run3	observe/STIM_017.jpg
2488.855	0.806	1	observe	Run3	observe/STIM_017.jpg
2491.811	0.569	1	observe	Run3	observe/STIM_017.jpg
2495.736	0.844	1	observe	Run3	observe/STIM_017.jpg
2499.591	1.123	1	observe	Run3	observe/STIM_018.jpg
2503.522	0.611	1	observe	Run3	observe/STIM_018.jpg
2506.765	0.975	1	observe	Run3	observe/STIM_018.jpg
2510.879	0.958	1	observe	Run3	observe/STIM_018.jpg
2514.205	0.747	1	observe	Run3	observe/STIM_019.jpg
2518.242	0.708	1	observe	Run3	observe/STIM_019.jpg
2521.193	0.928	1	observe	Run3	observe/STIM_019.jpg
2524.683	0.722	1	observe	Run3	observe/STIM_019.jpg
