onset	duration	response_time_ms	trial_type	learning_stage	stimulus	response_port
0.0	1.718	1717.6	generate	Run1	generate/STIM_000.jpg	99
3.788	1.666	1666.1	generate	Run1	generate/STIM_000.jpg	100
8.023	2.134	2134.4	generate	Run1	generate/STIM_000.jpg	100
12.376	2.15	2149.6	generate	Run1	generate/STIM_000.jpg	100
17.45	1.148	1148.4	generate	Run1	generate/STIM_000.jpg	100
20.89	1.677	1677.3	generate	Run1	generate/STIM_001.jpg	99
26.316	1.667	1667.3	generate	Run1	generate/STIM_001.jpg	99
31.818	1.815	1814.7	generate	Run1	generate/STIM_001.jpg	100
35.828	1.453	1452.9	generate	Run1	generate/STIM_001.jpg	99
40.529	1.076	1075.9	generate	Run1	generate/STIM_001.jpg	100
44.803	2.017	2017.1	generate	Run1	generate/STIM_002.jpg	99
49.573	1.541	1541.4	generate	Run1	generate/STIM_002.jpg	99
53.945	2.388	2388.1	generate	Run1	generate/STIM_002.jpg	99
59.24	1.644	1644.5	generate	Run1	generate/STIM_002.jpg	99
63.359	1.248	1248.3	generate	Run1	generate/STIM_002.jpg	99
67.834	1.241	1241.1	generate	Run1	generate/STIM_003.jpg	99
71.444	1.311	1311.3	generate	Run1	generate/STIM_003.jpg	99
75.283	1.981	1981.1	generate	Run1	generate/STIM_003.jpg	99
80.153	1.455	1455.3	generate	Run1	generate/STIM_003.jpg	100
84.268	1.982	1982.1	generate	Run1	generate/STIM_003.jpg	99
89.074	2.252	2251.9	generate	Run1	generate/STIM_004.jpg	100
93.438	1.562	1561.6	generate	Run1	generate/STIM_004.jpg	99
97.132	2.48	2480.2	generate	Run1	generate/STIM_004.jpg	99
102.002	1.059	1058.9	generate	Run1	generate/STIM_004.jpg	100
106.818	1.107	1106.6	generate	Run1	generate/STIM_004.jpg	100
111.399	2.458	2457.6	generate	Run1	generate/STIM_005.jpg	99
117.411	1.983	1983.3	generate	Run1	generate/STIM_005.jpg	99
121.849	1.087	1086.7	generate	Run1	generate/STIM_005.jpg	100
126.171	2.344	2344.1	generate	Run1	generate/STIM_005.jpg	100
132.154	1.971	1971.4	generate	Run1	generate/STIM_005.jpg	100
137.797	2.279	2278.9	generate	Run1	generate/STIM_006.jpg	100
143.973	2.226	2225.6	generate	Run1	generate/STIM_006.jpg	100
148.584	1.058	1057.9	generate	Run1	generate/STIM_006.jpg	100
152.19	2.082	2081.7	generate	Run1	generate/STIM_006.jpg	99
156.902	2.047	2047.0	generate	Run1	generate/STIM_006.jpg	100
161.263	2.623	2622.6	generate	Run1	generate/STIM_007.jpg	100
166.478	1.204	1203.9	generate	Run1	generate/STIM_007.jpg	100
171.598	1.395	1394.7	generate	Run1	generate/STIM_007.jpg	100
176.771	1.592	1591.5	generate	Run1	generate/STIM_007.jpg	100
181.275	0.934	934.4	generate	Run1	generate/STIM_007.jpg	100
185.199	1.409	1409.2	generate	Run1	generate/STIM_008.jpg	99
188.805	2.423	2422.7	generate	Run1	generate/STIM_008.jpg	99
195.152	2.483	2483.0	generate	Run1	generate/STIM_008.jpg	99
199.777	1.245	1244.9	generate	Run1	generate/STIM_008.jpg	100
204.826	1.575	1574.6	generate	Run1	generate/STIM_008.jpg	100
208.714	2.564	2563.7	generate	Run1	generate/STIM_009.jpg	100
214.942	2.264	2263.9	generate	Run1	generate/STIM_009.jpg	100
219.663	1.811	1810.6	generate	Run1	generate/STIM_009.jpg	100
224.321	0.964	964.3	generate	Run1	generate/STIM_009.jpg	99
228.198	1.094	1093.5	generate	Run1	generate/STIM_009.jpg	100
231.405	1.967	1967.0	generate	Run1	generate/STIM_010.jpg	99
235.393	2.375	2374.8	generate	Run1	generate/STIM_010.jpg	99
240.86	1.45	1449.7	generate	Run1	generate/STIM_010.jpg	99
246.279	1.128	1127.9	generate	Run1	generate/STIM_010.jpg	99
249.684	1.184	1184.4	generate	Run1	generate/STIM_010.jpg	100
254.105	1.285	1285.2	generate	Run1	generate/STIM_011.jpg	99
258.414	1.263	1262.7	generate	Run1	generate/STIM_011.jpg	99
262.729	1.698	1698.2	generate	Run1	generate/STIM_011.jpg	99
266.528	1.141	1140.9	generate	Run1	generate/STIM_011.jpg	100
270.696	1.368	1368.0	generate	Run1	generate/STIM_011.jpg	100
274.902	2.456	2456.3	generate	Run1	generate/STIM_012.jpg	100
279.814	1.594	1594.1	generate	Run1	generate/STIM_012.jpg	100
285.234	1.888	1888.0	generate	Run1	generate/STIM_012.jpg	100
290.532	1.644	1644.2	generate	Run1	generate/STIM_012.jpg	100
295.592	1.118	1117.7	generate	Run1	generate/STIM_012.jpg	100
299.047	1.682	1681.9	generate	Run1	generate/STIM_013.jpg	99
304.504	1.069	1069.4	generate	Run1	generate/STIM_013.jpg	100
309.503	1.321	1321.3	generate	Run1	generate/STIM_013.jpg	100
313.79	1.42	1420.0	generate	Run1	generate/STIM_013.jpg	100
318.473	2.148	2147.8	generate	Run1	generate/STIM_013.jpg	100
322.969	2.131	2130.8	generate	Run1	generate/STIM_014.jpg	99
327.16	1.138	1138.2	generate	Run1	generate/STIM_014.jpg	100
331.992	1.97	1970.0	generate	Run1	generate/STIM_014.jpg	100
336.879	1.073	1072.7	generate	Run1	generate/STIM_014.jpg	100
341.357	1.98	1980.3	generate	Run1	generate/STIM_014.jpg	100
347.265	2.013	2012.9	generate	Run1	generate/STIM_015.jpg	100
352.903	1.806	1806.4	generate	Run1	generate/STIM_015.jpg	99
357.485	2.089	2089.2	generate	Run1	generate/STIM_015.jpg	100
362.493	1.869	1868.8	generate	Run1	generate/STIM_015.jpg	100
367.927	1.655	1654.6	generate	Run1	generate/STIM_015.jpg	99
371.839	1.623	1622.6	generate	Run1	generate/STIM_016.jpg	99
375.87	2.495	2494.6	generate	Run1	generate/STIM_016.jpg	99
380.576	1.239	1239.1	generate	Run1	generate/STIM_016.jpg	99
384.013	1.375	1375.0	generate	Run1	generate/STIM_016.jpg	100
388.869	1.304	1303.7	generate	Run1	generate/STIM_016.jpg	100
393.88	2.121	2121.3	generate	Run1	generate/STIM_017.jpg	100
399.572	1.104	1104.0	generate	Run1	generate/STIM_017.jpg	100
404.549	2.158	2158.4	generate	Run1	generate/STIM_017.jpg	100
408.935	1.013	1012.7	generate	Run1	generate/STIM_017.jpg	100
412.871	1.177	1177.2	generate	Run1	generate/STIM_017.jpg	100
416.629	2.743	2742.9	generate	Run1	generate/STIM_018.jpg	99
422.733	1.835	1834.7	generate	Run1	generate/STIM_018.jpg	99
427.41	1.337	1337.1	generate	Run1	generate/STIM_018.jpg	99
432.131	1.746	1745.7	generate	Run1	generate/STIM_018.jpg	100
436.865	1.717	1717.3	generate	Run1	generate/STIM_018.jpg	99
442.267	2.65	2649.8	generate	Run1	generate/STIM_019.jpg	99
447.125	1.883	1883.0	generate	Run1	generate/STIM_019.jpg	99
451.957	2.385	2385.1	generate	Run1	generate/STIM_019.jpg	99
458.254	2.198	2198.5	generate	Run1	generate/STIM_019.jpg	99
464.205	1.4	1400.4	generate	Run1	generate/STIM_019.jpg	100
469.372	1.701	1701.1	generate	Run1	generate/STIM_020.jpg	100
473.804	1.643	1643.4	generate	Run1	generate/STIM_020.jpg	99
478.847	1.937	1936.9	generate	Run1	generate/STIM_020.jpg	99
484.779	1.548	1548.1	generate	Run1	generate/STIM_020.jpg	99
490.154	1.143	1142.9	generate	Run1	generate/STIM_020.jpg	99
493.847	1.336	1335.5	generate	Run1	generate/STIM_021.jpg	99
498.297	2.096	2095.8	generate	Run1	generate/STIM_021.jpg	100
502.609	1.908	1908.4	generate	Run1	generate/STIM_021.jpg	100
507.301	1.242	1241.9	generate	Run1	generate/STIM_021.jpg	99
512.455	1.854	1854.0	generate	Run1	generate/STIM_021.jpg	100
517.456	2.246	2245.6	generate	Run1	generate/STIM_022.jpg	100
521.868	2.11	2109.8	generate	Run1	generate/STIM_022.jpg	100
527.035	1.539	1538.9	generate	Run1	generate/STIM_022.jpg	100
530.773	1.512	1511.6	generate	Run1	generate/STIM_022.jpg	100
536.22	1.546	1545.9	generate	Run1	generate/STIM_022.jpg	100
541.22	2.464	2464.4	generate	Run1	generate/STIM_023.jpg	99
546.511	1.776	1775.7	generate	Run1	generate/STIM_023.jpg	99
551.492	1.608	1608.0	generate	Run1	generate/STIM_023.jpg	99
556.045	2.251	2251.0	generate	Run1	generate/STIM_023.jpg	99
561.936	1.85	1849.5	generate	Run1	generate/STIM_023.jpg	99
566.395	1.944	1944.3	generate	Run1	generate/STIM_024.jpg	100
570.603	2.065	2065.3	generate	Run1	generate/STIM_024.jpg	99
575.827	2.402	2401.7	generate	Run1	generate/STIM_024.jpg	99
580.425	1.242	1241.9	generate	Run1	generate/STIM_024.jpg	100
585.236	1.833	1833.3	generate	Run1	generate/STIM_024.jpg	100
590.641	0.802	802.4	repeat	Run1	repeat/STIM_000.jpg	99
594.29	0.76	760.5	repeat	Run1	repeat/STIM_000.jpg	99
597.576	0.884	883.5	repeat	Run1	repeat/STIM_000.jpg	99
602.351	0.639	639.2	repeat	Run1	repeat/STIM_000.jpg	99
605.521	0.801	800.9	repeat	Run1	repeat/STIM_000.jpg	99
608.889	0.923	923.3	repeat	Run1	repeat/STIM_001.jpg	100
613.673	0.66	659.9	repeat	Run1	repeat/STIM_001.jpg	99
617.762	0.482	482.2	repeat	Run1	repeat/STIM_001.jpg	99
621.68	0.69	690.5	repeat	Run1	repeat/STIM_001.jpg	99
626.352	0.559	558.9	repeat	Run1	repeat/STIM_001.jpg	100
630.03	0.56	559.8	repeat	Run1	repeat/STIM_002.jpg	100
633.41	0.692	692.0	repeat	Run1	repeat/STIM_002.jpg	99
637.584	0.92	920.1	repeat	Run1	repeat/STIM_002.jpg	99
641.099	0.507	506.6	repeat	Run1	repeat/STIM_002.jpg	100
645.253	0.92	920.5	repeat	Run1	repeat/STIM_002.jpg	99
649.736	0.803	803.4	repeat	Run1	repeat/STIM_003.jpg	100
653.162	0.884	883.7	repeat	Run1	repeat/STIM_003.jpg	99
658.012	0.699	699.2	repeat	Run1	repeat/STIM_003.jpg	100
660.811	0.481	481.3	repeat	Run1	repeat/STIM_003.jpg	100
664.682	0.538	537.9	repeat	Run1	repeat/STIM_003.jpg	100
668.159	0.698	697.6	repeat	Run1	repeat/STIM_004.jpg	99
671.019	0.869	869.4	repeat	Run1	repeat/STIM_004.jpg	100
674.228	0.669	669.3	repeat	Run1	repeat/STIM_004.jpg	100
677.027	0.702	701.7	repeat	Run1	repeat/STIM_004.jpg	99
681.64	0.53	529.7	repeat	Run1	repeat/STIM_004.jpg	99
684.94	0.773	773.1	repeat	Run1	repeat/STIM_005.jpg	99
688.589	0.671	671.3	repeat	Run1	repeat/STIM_005.jpg	99
692.316	0.621	620.9	repeat	Run1	repeat/STIM_005.jpg	99
696.504	0.761	761.2	repeat	Run1	repeat/STIM_005.jpg	100
700.53	0.784	783.6	repeat	Run1	repeat/STIM_005.jpg	100
704.613	0.608	608.1	repeat	Run1	repeat/STIM_006.jpg	100
708.029	0.616	616.4	repeat	Run1	repeat/STIM_006.jpg	100
711.457	0.498	498.2	repeat	Run1	repeat/STIM_006.jpg	100
714.57	0.523	523.3	repeat	Run1	repeat/STIM_006.jpg	100
718.774	0.768	768.3	repeat	Run1	repeat/STIM_006.jpg	99
721.958	0.753	752.6	repeat	Run1	repeat/STIM_007.jpg	100
725.723	0.478	478.1	repeat	Run1	repeat/STIM_007.jpg	99
729.895	0.783	783.1	repeat	Run1	repeat/STIM_007.jpg	99
733.606	0.538	538.2	repeat	Run1	repeat/STIM_007.jpg	99
737.905	0.859	859.3	repeat	Run1	repeat/STIM_007.jpg	99
741.609	0.872	871.5	repeat	Run1	repeat/STIM_008.jpg	99
745.569	0.759	758.8	repeat	Run1	repeat/STIM_008.jpg	100
749.789	0.782	782.5	repeat	Run1	repeat/STIM_008.jpg	99
753.937	0.554	554.3	repeat	Run1	repeat/STIM_008.jpg	100
757.896	0.82	819.8	repeat	Run1	repeat/STIM_008.jpg	99
760.806	0.641	640.8	repeat	Run1	repeat/STIM_009.jpg	100
764.601	0.605	605.1	repeat	Run1	repeat/STIM_009.jpg	100
767.547	0.545	545.2	repeat	Run1	repeat/STIM_009.jpg	99
771.85	0.476	476.3	repeat	Run1	repeat/STIM_009.jpg	99
775.408	0.817	817.1	repeat	Run1	repeat/STIM_009.jpg	99
779.76	0.536	535.7	repeat	Run1	repeat/STIM_010.jpg	100
784.245	0.773	773.1	repeat	Run1	repeat/STIM_010.jpg	99
787.052	0.744	744.3	repeat	Run1	repeat/STIM_010.jpg	99
791.694	0.914	914.2	repeat	Run1	repeat/STIM_010.jpg	100
795.038	0.673	673.1	repeat	Run1	repeat/STIM_010.jpg	99
798.47	0.531	531.1	repeat	Run1	repeat/STIM_011.jpg	99
802.719	0.731	731.1	repeat	Run1	repeat/STIM_011.jpg	100
806.821	0.602	602.4	repeat	Run1	repeat/STIM_011.jpg	99
809.524	0.704	704.4	repeat	Run1	repeat/STIM_011.jpg	100
812.946	0.667	667.3	repeat	Run1	repeat/STIM_011.jpg	99
815.858	0.913	913.4	repeat	Run1	repeat/STIM_012.jpg	100
818.801	0.53	529.5	repeat	Run1	repeat/STIM_012.jpg	99
821.712	0.672	672.0	repeat	Run1	repeat/STIM_012.jpg	100
824.871	0.903	902.8	repeat	Run1	repeat/STIM_012.jpg	99
829.139	0.779	778.6	repeat	Run1	repeat/STIM_012.jpg	100
832.393	0.614	614.0	repeat	Run1	repeat/STIM_013.jpg	99
835.537	0.914	913.9	repeat	Run1	repeat/STIM_013.jpg	100
839.386	0.917	916.6	repeat	Run1	repeat/STIM_013.jpg	100
844.109	0.773	772.6	repeat	Run1	repeat/STIM_013.jpg	100
847.706	0.504	504.3	repeat	Run1	repeat/STIM_013.jpg	100
852.056	0.899	899.4	repeat	Run1	repeat/STIM_014.jpg	99
856.904	0.708	708.2	repeat	Run1	repeat/STIM_014.jpg	99
860.636	0.566	566.4	repeat	Run1	repeat/STIM_014.jpg	99
864.266	0.86	860.0	repeat	Run1	repeat/STIM_014.jpg	99
867.395	0.675	674.7	repeat	Run1	repeat/STIM_014.jpg	100
871.91	1.443	1443.4	generate	Run2	generate/STIM_000.jpg	99
877.341	1.617	1616.9	generate	Run2	generate/STIM_000.jpg	100
881.617	1.846	1846.5	generate	Run2	generate/STIM_000.jpg	99
885.463	1.018	1017.8	generate	Run2	generate/STIM_000.jpg	100
889.527	1.083	1083.2	generate	Run2	generate/STIM_000.jpg	99
893.324	1.428	1428.3	generate	Run2	generate/STIM_001.jpg	100
898.139	1.599	1599.0	generate	Run2	generate/STIM_001.jpg	99
903.393	1.701	1701.1	generate	Run2	generate/STIM_001.jpg	99
907.855	1.14	1139.5	generate	Run2	generate/STIM_001.jpg	100
911.412	1.841	1840.7	generate	Run2	generate/STIM_001.jpg	99
916.434	1.474	1473.7	generate	Run2	generate/STIM_002.jpg	99
921.106	2.197	2197.4	generate	Run2	generate/STIM_002.jpg	100
926.979	1.998	1998.5	generate	Run2	generate/STIM_002.jpg	99
931.478	1.284	1283.9	generate	Run2	generate/STIM_002.jpg	100
935.991	1.62	1620.0	generate	Run2	generate/STIM_002.jpg	100
941.58	1.65	1649.5	generate	Run2	generate/STIM_003.jpg	100
945.384	1.235	1234.7	generate	Run2	generate/STIM_003.jpg	100
948.633	0.989	989.0	generate	Run2	generate/STIM_003.jpg	100
952.428	1.881	1881.1	generate	Run2	generate/STIM_003.jpg	99
957.842	1.928	1927.8	generate	Run2	generate/STIM_003.jpg	99
963.124	2.089	2089.4	generate	Run2	generate/STIM_004.jpg	99
968.329	1.887	1887.0	generate	Run2	generate/STIM_004.jpg	99
973.987	1.071	1071.0	generate	Run2	generate/STIM_004.jpg	100
977.312	0.933	933.4	generate	Run2	generate/STIM_004.jpg	100
981.928	1.168	1168.4	generate	Run2	generate/STIM_004.jpg	100
986.597	1.376	1375.7	generate	Run2	generate/STIM_005.jpg	99
990.236	1.38	1380.5	generate	Run2	generate/STIM_005.jpg	99
994.536	1.203	1203.0	generate	Run2	generate/STIM_005.jpg	99
998.343	1.483	1482.8	generate	Run2	generate/STIM_005.jpg	99
1002.91	0.974	974.1	generate	Run2	generate/STIM_005.jpg	100
1007.319	2.344	2344.2	generate	Run2	generate/STIM_006.jpg	100
1013.518	1.495	1495.2	generate	Run2	generate/STIM_006.jpg	100
1017.228	1.127	1127.4	generate	Run2	generate/STIM_006.jpg	99
1020.996	1.576	1575.7	generate	Run2	generate/STIM_006.jpg	99
1025.459	1.821	1821.2	generate	Run2	generate/STIM_006.jpg	100
1029.761	1.481	1481.3	generate	Run2	generate/STIM_007.jpg	100
1033.44	1.686	1686.2	generate	Run2	generate/STIM_007.jpg	99
1037.915	1.965	1964.7	generate	Run2	generate/STIM_007.jpg	99
1042.546	1.71	1710.0	generate	Run2	generate/STIM_007.jpg	100
1048.047	1.035	1034.8	generate	Run2	generate/STIM_007.jpg	100
1052.091	1.334	1334.5	generate	Run2	generate/STIM_008.jpg	100
1056.534	1.391	1391.2	generate	Run2	generate/STIM_008.jpg	100
1061.435	0.856	855.9	generate	Run2	generate/STIM_008.jpg	100
1066.183	0.87	870.1	generate	Run2	generate/STIM_008.jpg	99
1070.966	1.113	1112.9	generate	Run2	generate/STIM_008.jpg	100
1075.198	1.278	1278.2	generate	Run2	generate/STIM_009.jpg	100
1080.12	1.144	1144.5	generate	Run2	generate/STIM_009.jpg	99
1084.784	0.908	907.5	generate	Run2	generate/STIM_009.jpg	99
1088.074	1.156	1156.0	generate	Run2	generate/STIM_009.jpg	99
1092.276	1.651	1651.3	generate	Run2	generate/STIM_009.jpg	100
1097.818	1.656	1656.0	generate	Run2	generate/STIM_010.jpg	100
1102.948	1.5	1499.9	generate	Run2	generate/STIM_010.jpg	100
1106.941	1.918	1918.1	generate	Run2	generate/STIM_010.jpg	100
1112.334	0.817	817.0	generate	Run2	generate/STIM_010.jpg	99
1116.312	1.814	1813.9	generate	Run2	generate/STIM_010.jpg	99
1120.362	1.339	1339.1	generate	Run2	generate/STIM_011.jpg	99
1125.478	1.516	1515.6	generate	Run2	generate/STIM_011.jpg	99
1129.126	0.874	873.6	generate	Run2	generate/STIM_011.jpg	99
1133.256	1.48	1480.5	generate	Run2	generate/STIM_011.jpg	99
1137.701	1.364	1364.0	generate	Run2	generate/STIM_011.jpg	100
1142.871	2.195	2195.0	generate	Run2	generate/STIM_012.jpg	99
1148.614	1.17	1169.9	generate	Run2	generate/STIM_012.jpg	99
1152.822	1.966	1966.2	generate	Run2	generate/STIM_012.jpg	100
1158.556	1.297	1296.8	generate	Run2	generate/STIM_012.jpg	100
1162.458	1.124	1124.5	generate	Run2	generate/STIM_012.jpg	99
1165.778	1.117	1116.9	generate	Run2	generate/STIM_013.jpg	99
1170.192	1.336	1335.9	generate	Run2	generate/STIM_013.jpg	99
1174.125	1.755	1754.8	generate	Run2	generate/STIM_013.jpg	100
1177.892	1.753	1752.6	generate	Run2	generate/STIM_013.jpg	99
1183.415	1.286	1285.9	generate	Run2	generate/STIM_013.jpg	100
1188.674	2.348	2347.6	generate	Run2	generate/STIM_014.jpg	100
1193.713	1.933	1933.0	generate	Run2	generate/STIM_014.jpg	99
1197.705	1.36	1360.2	generate	Run2	generate/STIM_014.jpg	99
1201.735	1.525	1524.9	generate	Run2	generate/STIM_014.jpg	99
1206.096	1.593	1592.8	generate	Run2	generate/STIM_014.jpg	100
1211.392	2.112	2111.8	generate	Run2	generate/STIM_015.jpg	99
1215.911	1.358	1358.0	generate	Run2	generate/STIM_015.jpg	100
1219.831	1.254	1253.9	generate	Run2	generate/STIM_015.jpg	100
1223.4	1.479	1479.2	generate	Run2	generate/STIM_015.jpg	99
1227.226	1.508	1507.6	generate	Run2	generate/STIM_015.jpg	99
1232.422	1.653	1652.9	generate	Run2	generate/STIM_016.jpg	100
1237.678	1.591	1590.9	generate	Run2	generate/STIM_016.jpg	100
1241.893	1.339	1338.9	generate	Run2	generate/STIM_016.jpg	99
1247.161	1.701	1700.9	generate	Run2	generate/STIM_016.jpg	99
1251.504	1.13	1129.9	generate	Run2	generate/STIM_016.jpg	99
1255.713	2.133	2132.6	generate	Run2	generate/STIM_017.jpg	100
1260.892	1.316	1316.5	generate	Run2	generate/STIM_017.jpg	99
1264.708	1.975	1975.0	generate	Run2	generate/STIM_017.jpg	99
1268.955	1.687	1687.1	generate	Run2	generate/STIM_017.jpg	100
1273.804	1.17	1170.3	generate	Run2	generate/STIM_017.jpg	99
1278.684	1.674	1674.4	generate	Run2	generate/STIM_018.jpg	99
1282.645	1.75	1750.4	generate	Run2	generate/STIM_018.jpg	99
1287.438	1.794	1794.4	generate	Run2	generate/STIM_018.jpg	99
1292.888	0.784	783.7	generate	Run2	generate/STIM_018.jpg	99
1295.968	1.926	1926.5	generate	Run2	generate/STIM_018.jpg	99
1301.428	1.061	1061.4	generate	Run2	generate/STIM_019.jpg	99
1306.479	0.926	926.4	generate	Run2	generate/STIM_019.jpg	99
1310.602	1.432	1431.5	generate	Run2	generate/STIM_019.jpg	99
1314.92	1.389	1388.8	generate	Run2	generate/STIM_019.jpg	100
1318.374	1.274	1273.8	generate	Run2	generate/STIM_019.jpg	100
1322.636	2.008	2008.3	generate	Run2	generate/STIM_020.jpg	99
1328.107	1.997	1996.7	generate	Run2	generate/STIM_020.jpg	99
1332.656	1.096	1096.3	generate	Run2	generate/STIM_020.jpg	100
1336.74	1.721	1720.6	generate	Run2	generate/STIM_020.jpg	100
1342.287	1.514	1514.3	generate	Run2	generate/STIM_020.jpg	99
1346.401	2.002	2001.5	generate	Run2	generate/STIM_021.jpg	99
1350.501	1.115	1115.2	generate	Run2	generate/STIM_021.jpg	99
1353.981	1.34	1340.1	generate	Run2	generate/STIM_021.jpg	100
1358.508	1.291	1290.7	generate	Run2	generate/STIM_021.jpg	99
1362.695	1.235	1234.7	generate	Run2	generate/STIM_021.jpg	99
1366.862	1.134	1133.8	generate	Run2	generate/STIM_022.jpg	100
1371.961	1.158	1157.8	generate	Run2	generate/STIM_022.jpg	99
1376.457	1.916	1916.0	generate	Run2	generate/STIM_022.jpg	99
1382.196	1.735	1735.3	generate	Run2	generate/STIM_022.jpg	100
1387.836	1.576	1576.3	generate	Run2	generate/STIM_022.jpg	99
1392.089	1.782	1781.8	generate	Run2	generate/STIM_023.jpg	100
1396.509	1.431	1431.3	generate	Run2	generate/STIM_023.jpg	99
1401.153	1.566	1566.3	generate	Run2	generate/STIM_023.jpg	99
1405.597	1.069	1068.9	generate	Run2	generate/STIM_023.jpg	100
1410.114	1.779	1779.1	generate	Run2	generate/STIM_023.jpg	99
1414.757	1.326	1325.6	generate	Run2	generate/STIM_024.jpg	100
1420.077	1.629	1628.7	generate	Run2	generate/STIM_024.jpg	100
1424.574	1.18	1179.6	generate	Run2	generate/STIM_024.jpg	100
1428.98	1.254	1254.2	generate	Run2	generate/STIM_024.jpg	100
1432.556	1.408	1408.0	generate	Run2	generate/STIM_024.jpg	99
1437.296	0.616	615.6	repeat	Run2	repeat/STIM_000.jpg	100
1441.195	0.666	666.4	repeat	Run2	repeat/STIM_000.jpg	99
1444.932	0.527	527.3	repeat	Run2	repeat/STIM_000.jpg	100
1449.215	0.658	658.5	repeat	Run2	repeat/STIM_000.jpg	99
1452.466	0.695	695.1	repeat	Run2	repeat/STIM_000.jpg	99
1455.203	0.907	906.6	repeat	Run2	repeat/STIM_001.jpg	100
1458.739	0.854	854.1	repeat	Run2	repeat/STIM_001.jpg	100
1463.288	0.591	590.7	repeat	Run2	repeat/STIM_001.jpg	99
1467.151	0.685	685.0	repeat	Run2	repeat/STIM_001.jpg	99
1470.368	0.667	667.4	repeat	Run2	repeat/STIM_001.jpg	100
1473.656	0.701	700.7	repeat	Run2	repeat/STIM_002.jpg	99
1478.277	0.817	817.1	repeat	Run2	repeat/STIM_002.jpg	99
1481.105	0.499	498.8	repeat	Run2	repeat/STIM_002.jpg	100
1484.975	0.849	849.4	repeat	Run2	repeat/STIM_002.jpg	100
1489.405	0.654	654.3	repeat	Run2	repeat/STIM_002.jpg	99
1492.584	0.904	904.5	repeat	Run2	repeat/STIM_003.jpg	99
1497.243	0.541	540.7	repeat	Run2	repeat/STIM_003.jpg	100
1499.876	0.687	686.6	repeat	Run2	repeat/STIM_003.jpg	100
1502.881	0.626	625.8	repeat	Run2	repeat/STIM_003.jpg	99
1506.855	0.79	789.5	repeat	Run2	repeat/STIM_003.jpg	99
1511.459	0.516	515.6	repeat	Run2	repeat/STIM_004.jpg	99
1515.158	0.819	819.4	repeat	Run2	repeat/STIM_004.jpg	99
1519.427	0.914	913.7	repeat	Run2	repeat/STIM_004.jpg	100
1523.618	0.732	732.3	repeat	Run2	repeat/STIM_004.jpg	99
1526.709	0.731	730.8	repeat	Run2	repeat/STIM_004.jpg	99
1531.086	0.597	597.4	repeat	Run2	repeat/STIM_005.jpg	100
1534.236	0.521	520.8	repeat	Run2	repeat/STIM_005.jpg	100
1537.573	0.819	819.2	repeat	Run2	repeat/STIM_005.jpg	99
1542.196	0.629	628.7	repeat	Run2	repeat/STIM_005.jpg	100
1546.046	0.888	887.8	repeat	Run2	repeat/STIM_005.jpg	99
1549.031	0.669	669.3	repeat	Run2	repeat/STIM_006.jpg	100
1552.093	0.852	852.5	repeat	Run2	repeat/STIM_006.jpg	99
1554.98	0.621	621.1	repeat	Run2	repeat/STIM_006.jpg	100
1558.849	0.609	609.1	repeat	Run2	repeat/STIM_006.jpg	100
1563.043	0.91	909.5	repeat	Run2	repeat/STIM_006.jpg	100
1566.797	0.774	774.4	repeat	Run2	repeat/STIM_007.jpg	100
1571.481	0.517	516.7	repeat	Run2	repeat/STIM_007.jpg	100
1574.827	0.629	629.2	repeat	Run2	repeat/STIM_007.jpg	100
1579.258	0.82	819.5	repeat	Run2	repeat/STIM_007.jpg	99
1582.111	0.697	696.9	repeat	Run2	repeat/STIM_007.jpg	99
1586.325	0.562	561.9	repeat	Run2	repeat/STIM_008.jpg	99
1589.057	0.809	808.8	repeat	Run2	repeat/STIM_008.jpg	100
1592.651	0.779	778.8	repeat	Run2	repeat/STIM_008.jpg	100
1597.026	0.778	778.5	repeat	Run2	repeat/STIM_008.jpg	99
1601.162	0.876	875.5	repeat	Run2	repeat/STIM_008.jpg	99
1604.517	0.535	534.9	repeat	Run2	repeat/STIM_009.jpg	100
1607.656	0.894	894.4	repeat	Run2	repeat/STIM_009.jpg	100
1611.179	0.474	473.7	repeat	Run2	repeat/STIM_009.jpg	100
1614.787	0.866	866.5	repeat	Run2	repeat/STIM_009.jpg	100
1619.5	0.529	528.8	repeat	Run2	repeat/STIM_009.jpg	100
1622.72	0.848	848.4	repeat	Run2	repeat/STIM_010.jpg	99
1626.973	0.78	780.0	repeat	Run2	repeat/STIM_010.jpg	99
1630.372	0.707	706.7	repeat	Run2	repeat/STIM_010.jpg	100
1633.801	0.761	760.7	repeat	Run2	repeat/STIM_010.jpg	99
1637.618	0.814	814.1	repeat	Run2	repeat/STIM_010.jpg	100
1641.601	0.521	520.6	repeat	Run2	repeat/STIM_011.jpg	100
1645.444	0.544	544.3	repeat	Run2	repeat/STIM_011.jpg	99
1648.288	0.789	789.0	repeat	Run2	repeat/STIM_011.jpg	99
1653.004	0.462	462.5	repeat	Run2	repeat/STIM_011.jpg	100
1656.883	0.666	666.4	repeat	Run2	repeat/STIM_011.jpg	100
1661.37	0.892	891.8	repeat	Run2	repeat/STIM_012.jpg	99
1664.782	0.674	674.3	repeat	Run2	repeat/STIM_012.jpg	100
1668.463	0.628	628.0	repeat	Run2	repeat/STIM_012.jpg	100
1671.641	0.56	559.9	repeat	Run2	repeat/STIM_012.jpg	100
1675.857	0.801	801.4	repeat	Run2	repeat/STIM_012.jpg	100
1679.806	0.784	783.7	repeat	Run2	repeat/STIM_013.jpg	99
1684.034	0.601	600.7	repeat	Run2	repeat/STIM_013.jpg	100
1688.352	0.571	570.8	repeat	Run2	repeat/STIM_013.jpg	100
1692.046	0.802	802.0	repeat	Run2	repeat/STIM_013.jpg	99
1695.062	0.72	719.5	repeat	Run2	repeat/STIM_013.jpg	100
1699.134	0.774	774.3	repeat	Run2	repeat/STIM_014.jpg	100
1703.89	0.808	807.9	repeat	Run2	repeat/STIM_014.jpg	99
1707.703	0.543	543.4	repeat	Run2	repeat/STIM_014.jpg	100
1711.738	0.634	633.5	repeat	Run2	repeat/STIM_014.jpg	100
1716.127	0.818	818.0	repeat	Run2	repeat/STIM_014.jpg	100
1720.347	1.518	1518.1	generate	Run3	generate/STIM_000.jpg	100
1723.892	0.928	927.8	generate	Run3	generate/STIM_000.jpg	100
1728.095	0.969	969.0	generate	Run3	generate/STIM_000.jpg	99
1732.682	1.151	1150.9	generate	Run3	generate/STIM_000.jpg	99
1737.318	1.478	1478.4	generate	Run3	generate/STIM_000.jpg	99
1742.744	0.804	804.1	generate	Run3	generate/STIM_001.jpg	99
1747.169	1.784	1784.4	generate	Run3	generate/STIM_001.jpg	100
1751.513	1.836	1836.3	generate	Run3	generate/STIM_001.jpg	99
1756.225	1.602	1602.1	generate	Run3	generate/STIM_001.jpg	99
1760.063	1.305	1305.3	generate	Run3	generate/STIM_001.jpg	100
1764.316	0.872	872.4	generate	Run3	generate/STIM_002.jpg	99
1768.863	0.819	819.2	generate	Run3	generate/STIM_002.jpg	99
1773.535	1.183	1183.3	generate	Run3	generate/STIM_002.jpg	100
1778.71	0.992	992.1	generate	Run3	generate/STIM_002.jpg	99
1783.196	1.699	1699.1	generate	Run3	generate/STIM_002.jpg	100
1788.356	1.357	1357.0	generate	Run3	generate/STIM_003.jpg	99
1792.985	1.161	1160.7	generate	Run3	generate/STIM_003.jpg	100
1797.731	1.745	1744.8	generate	Run3	generate/STIM_003.jpg	100
1802.757	1.67	1669.9	generate	Run3	generate/STIM_003.jpg	99
1808.143	1.727	1726.6	generate	Run3	generate/STIM_003.jpg	100
1812.618	1.371	1371.1	generate	Run3	generate/STIM_004.jpg	99
1816.891	1.476	1476.5	generate	Run3	generate/STIM_004.jpg	99
1820.894	1.742	1742.4	generate	Run3	generate/STIM_004.jpg	100
1824.697	0.97	970.2	generate	Run3	generate/STIM_004.jpg	100
1829.16	1.239	1239.4	generate	Run3	generate/STIM_004.jpg	99
1833.632	1.423	1423.1	generate	Run3	generate/STIM_005.jpg	100
1837.631	1.903	1902.7	generate	Run3	generate/STIM_005.jpg	100
1843.502	1.472	1471.7	generate	Run3	generate/STIM_005.jpg	99
1848.319	1.281	1281.2	generate	Run3	generate/STIM_005.jpg	100
1852.098	1.565	1564.9	generate	Run3	generate/STIM_005.jpg	99
1857.633	0.804	804.2	generate	Run3	generate/STIM_006.jpg	100
1861.095	1.855	1855.0	generate	Run3	generate/STIM_006.jpg	99
1866.151	0.853	853.1	generate	Run3	generate/STIM_006.jpg	100
1869.149	1.074	1073.6	generate	Run3	generate/STIM_006.jpg	99
1872.604	1.042	1042.3	generate	Run3	generate/STIM_006.jpg	99
1875.748	1.027	1026.9	generate	Run3	generate/STIM_007.jpg	99
1879.487	1.152	1152.0	generate	Run3	generate/STIM_007.jpg	99
1883.813	1.89	1889.5	generate	Run3	generate/STIM_007.jpg	99
1889.535	1.492	1492.2	generate	Run3	generate/STIM_007.jpg	100
1894.598	0.792	792.5	generate	Run3	generate/STIM_007.jpg	99
1897.446	1.686	1686.3	generate	Run3	generate/STIM_008.jpg	99
1903.128	1.837	1837.1	generate	Run3	generate/STIM_008.jpg	99
1907.659	1.229	1229.4	generate	Run3	generate/STIM_008.jpg	100
1911.948	1.881	1880.8	generate	Run3	generate/STIM_008.jpg	100
1916.873	1.864	1864.3	generate	Run3	generate/STIM_008.jpg	99
1921.236	1.726	1726.3	generate	Run3	generate/STIM_009.jpg	100
1926.192	1.64	1639.6	generate	Run3	generate/STIM_009.jpg	99
1931.564	1.158	1157.9	generate	Run3	generate/STIM_009.jpg	99
1934.909	1.587	1587.3	generate	Run3	generate/STIM_009.jpg	100
1939.994	0.796	796.0	generate	Run3	generate/STIM_009.jpg	99
1943.148	0.992	992.3	generate	Run3	generate/STIM_010.jpg	100
1946.223	1.491	1491.4	generate	Run3	generate/STIM_010.jpg	99
1950.007	0.87	869.5	generate	Run3	generate/STIM_010.jpg	99
1953.091	1.46	1460.3	generate	Run3	generate/STIM_010.jpg	100
1956.854	1.24	1240.0	generate	Run3	generate/STIM_010.jpg	99
1961.639	1.742	1741.5	generate	Run3	generate/STIM_011.jpg	99
1966.515	0.965	964.9	generate	Run3	generate/STIM_011.jpg	100
1971.017	0.921	920.8	generate	Run3	generate/STIM_011.jpg	99
1975.135	1.098	1097.6	generate	Run3	generate/STIM_011.jpg	99
1979.75	1.723	1723.4	generate	Run3	generate/STIM_011.jpg	99
1983.884	1.186	1185.6	generate	Run3	generate/STIM_012.jpg	100
1988.509	1.377	1376.8	generate	Run3	generate/STIM_012.jpg	100
1993.269	0.852	851.6	generate	Run3	generate/STIM_012.jpg	100
1997.037	1.144	1143.7	generate	Run3	generate/STIM_012.jpg	100
2000.507	1.413	1412.6	generate	Run3	generate/STIM_012.jpg	100
2004.531	0.849	849.4	generate	Run3	generate/STIM_013.jpg	100
2008.002	1.013	1013.2	generate	Run3	generate/STIM_013.jpg	100
2012.263	1.808	1808.4	generate	Run3	generate/STIM_013.jpg	100
2016.423	1.794	1793.8	generate	Run3	generate/STIM_013.jpg	100
2020.384	0.79	790.0	generate	Run3	generate/STIM_013.jpg	100
2023.32	1.069	1069.1	generate	Run3	generate/STIM_014.jpg	99
2028.228	0.838	837.8	generate	Run3	generate/STIM_014.jpg	99
2032.194	1.814	1814.5	generate	Run3	generate/STIM_014.jpg	99
2037.083	1.15	1150.0	generate	Run3	generate/STIM_014.jpg	100
2041.319	1.022	1022.1	generate	Run3	generate/STIM_014.jpg	100
2045.728	0.924	924.3	generate	Run3	generate/STIM_015.jpg	99
2050.243	1.844	1844.5	generate	Run3	generate/STIM_015.jpg	100
2055.724	1.18	1179.7	generate	Run3	generate/STIM_015.jpg	99
2059.388	1.146	1146.0	generate	Run3	generate/STIM_015.jpg	100
2062.814	0.793	793.1	generate	Run3	generate/STIM_015.jpg	99
2066.31	1.273	1272.8	generate	Run3	generate/STIM_016.jpg	100
2070.524	1.124	1124.0	generate	Run3	generate/STIM_016.jpg	100
2074.64	1.036	1036.0	generate	Run3	generate/STIM_016.jpg	99
2079.564	1.251	1250.9	generate	Run3	generate/STIM_016.jpg	99
2084.07	0.938	937.6	generate	Run3	generate/STIM_016.jpg	99
2088.457	1.659	1659.3	generate	Run3	generate/STIM_017.jpg	100
2093.619	1.27	1269.7	generate	Run3	generate/STIM_017.jpg	100
2097.712	1.274	1274.1	generate	Run3	generate/STIM_017.jpg	100
2101.675	1.092	1091.5	generate	Run3	generate/STIM_017.jpg	100
2105.96	1.78	1780.4	generate	Run3	generate/STIM_017.jpg	99
2110.372	0.938	938.1	generate	Run3	generate/STIM_018.jpg	99
2114.393	1.605	1605.1	generate	Run3	generate/STIM_018.jpg	100
2119.984	1.116	1116.3	generate	Run3	generate/STIM_018.jpg	100
2123.4	1.118	1117.9	generate	Run3	generate/STIM_018.jpg	99
2127.413	1.502	1502.3	generate	Run3	generate/STIM_018.jpg	100
2132.713	1.297	1296.7	generate	Run3	generate/STIM_019.jpg	100
2137.49	0.897	897.4	generate	Run3	generate/STIM_019.jpg	99
2141.823	1.456	1456.2	generate	Run3	generate/STIM_019.jpg	99
2146.054	1.081	1081.4	generate	Run3	generate/STIM_019.jpg	100
2150.161	1.034	1033.7	generate	Run3	generate/STIM_019.jpg	100
2153.953	1.698	1698.0	generate	Run3	generate/STIM_020.jpg	99
2158.702	1.232	1232.5	generate	Run3	generate/STIM_020.jpg	99
2163.146	1.776	1776.4	generate	Run3	generate/STIM_020.jpg	100
2168.868	1.152	1152.2	generate	Run3	generate/STIM_020.jpg	99
2173.476	1.211	1211.0	generate	Run3	generate/STIM_020.jpg	99
2177.736	1.292	1292.0	generate	Run3	generate/STIM_021.jpg	100
2181.607	1.892	1891.5	generate	Run3	generate/STIM_021.jpg	99
2186.866	1.932	1932.0	generate	Run3	generate/STIM_021.jpg	99
2191.334	1.319	1318.9	generate	Run3	generate/STIM_021.jpg	100
2196.393	1.117	1116.8	generate	Run3	generate/STIM_021.jpg	100
2200.137	1.619	1618.8	generate	Run3	generate/STIM_022.jpg	100
2204.862	1.539	1538.8	generate	Run3	generate/STIM_022.jpg	99
2209.508	0.984	984.2	generate	Run3	generate/STIM_022.jpg	99
2212.573	0.864	863.6	generate	Run3	generate/STIM_022.jpg	100
2216.712	1.175	1175.1	generate	Run3	generate/STIM_022.jpg	99
2220.361	1.202	1202.0	generate	Run3	generate/STIM_023.jpg	100
2225.149	1.392	1391.9	generate	Run3	generate/STIM_023.jpg	100
2229.082	1.652	1652.4	generate	Run3	generate/STIM_023.jpg	100
2233.688	1.929	1929.4	generate	Run3	generate/STIM_023.jpg	99
2238.45	1.869	1868.7	generate	Run3	generate/STIM_023.jpg	100
2243.325	1.642	1642.3	generate	Run3	generate/STIM_024.jpg	99
2247.648	0.798	797.7	generate	Run3	generate/STIM_024.jpg	100
2252.261	1.567	1567.4	generate	Run3	generate/STIM_024.jpg	99
2255.996	1.562	1562.0	generate	Run3	generate/STIM_024.jpg	99
2261.303	1.238	1238.3	generate	Run3	generate/STIM_024.jpg	100
2265.069	0.664	664.1	repeat	Run3	repeat/STIM_000.jpg	99
2268.03	0.859	859.2	repeat	Run3	repeat/STIM_000.jpg	99
2271.571	0.503	503.2	repeat	Run3	repeat/STIM_000.jpg	100
2275.232	0.484	484.4	repeat	Run3	repeat/STIM_000.jpg	100
2278.047	0.721	721.2	repeat	Run3	repeat/STIM_000.jpg	100
2281.835	0.903	903.1	repeat	Run3	repeat/STIM_001.jpg	99
2285.107	0.809	808.6	repeat	Run3	repeat/STIM_001.jpg	100
2288.08	0.774	774.2	repeat	Run3	repeat/STIM_001.jpg	99
2291.923	0.486	485.9	repeat	Run3	repeat/STIM_001.jpg	99
2294.414	0.466	466.5	repeat	Run3	repeat/STIM_001.jpg	99
2298.386	0.652	651.5	repeat	Run3	repeat/STIM_002.jpg	99
2302.161	0.716	715.8	repeat	Run3	repeat/STIM_002.jpg	100
2305.663	0.504	503.8	repeat	Run3	repeat/STIM_002.jpg	99
2309.878	0.92	920.2	repeat	Run3	repeat/STIM_002.jpg	99
2313.134	0.905	905.2	repeat	Run3	repeat/STIM_002.jpg	100
2316.703	0.557	557.4	repeat	Run3	repeat/STIM_003.jpg	99
2319.296	0.598	598.4	repeat	Run3	repeat/STIM_003.jpg	100
2323.482	0.631	631.0	repeat	Run3	repeat/STIM_003.jpg	100
2326.665	0.648	648.4	repeat	Run3	repeat/STIM_003.jpg	99
2329.654	0.736	735.9	repeat	Run3	repeat/STIM_003.jpg	99
2333.38	0.883	882.6	repeat	Run3	repeat/STIM_004.jpg	99
2337.145	0.478	478.2	repeat	Run3	repeat/STIM_004.jpg	100
2340.464	0.689	689.0	repeat	Run3	repeat/STIM_004.jpg	100
2343.693	0.689	689.1	repeat	Run3	repeat/STIM_004.jpg	99
2346.504	0.492	491.8	repeat	Run3	repeat/STIM_004.jpg	100
2350.522	0.803	803.2	repeat	Run3	repeat/STIM_005.jpg	100
2354.459	0.619	618.8	repeat	Run3	repeat/STIM_005.jpg	100
2357.319	0.637	637.0	repeat	Run3	repeat/STIM_005.jpg	99
2360.78	0.557	557.1	repeat	Run3	repeat/STIM_005.jpg	100
2363.938	0.505	505.4	repeat	Run3	repeat/STIM_005.jpg	100
2367.805	0.586	586.2	repeat	Run3	repeat/STIM_006.jpg	99
2371.922	0.855	855.1	repeat	Run3	repeat/STIM_006.jpg	99
2376.221	0.614	614.5	repeat	Run3	repeat/STIM_006.jpg	100
2379.078	0.845	844.6	repeat	Run3	repeat/STIM_006.jpg	100
2383.005	0.848	847.8	repeat	Run3	repeat/STIM_006.jpg	100
2386.028	0.508	508.3	repeat	Run3	repeat/STIM_007.jpg	99
2389.134	0.893	893.4	repeat	Run3	repeat/STIM_007.jpg	99
2392.404	0.728	727.9	repeat	Run3	repeat/STIM_007.jpg	99
2395.574	0.812	811.7	repeat	Run3	repeat/STIM_007.jpg	99
2398.96	0.902	901.8	repeat	Run3	repeat/STIM_007.jpg	100
2402.061	0.497	496.9	repeat	Run3	repeat/STIM_008.jpg	99
2406.488	0.578	578.5	repeat	Run3	repeat/STIM_008.jpg	99
2410.468	0.808	808.1	repeat	Run3	repeat/STIM_008.jpg	99
2413.316	0.884	883.7	repeat	Run3	repeat/STIM_008.jpg	100
2417.889	0.752	752.2	repeat	Run3	repeat/STIM_008.jpg	100
2421.794	0.797	797.2	repeat	Run3	repeat/STIM_009.jpg	99
2424.996	0.865	865.2	repeat	Run3	repeat/STIM_009.jpg	99
2428.181	0.778	777.9	repeat	Run3	repeat/STIM_009.jpg	99
2431.865	0.846	846.1	repeat	Run3	repeat/STIM_009.jpg	100
2435.563	0.6	599.9	repeat	Run3	repeat/STIM_009.jpg	100
2439.137	0.468	467.9	repeat	Run3	repeat/STIM_010.jpg	99
2442.897	0.551	551.2	repeat	Run3	repeat/STIM_010.jpg	99
2445.749	0.79	789.7	repeat	Run3	repeat/STIM_010.jpg	99
2449.023	0.652	651.9	repeat	Run3	repeat/STIM_010.jpg	99
2452.776	0.693	693.4	repeat	Run3	repeat/STIM_010.jpg	99
2455.777	0.718	718.4	repeat	Run3	repeat/STIM_011.jpg	99
2458.765	0.639	639.3	repeat	Run3	repeat/STIM_011.jpg	100
2463.021	0.511	511.0	repeat	Run3	repeat/STIM_011.jpg	99
2467.229	0.713	713.2	repeat	Run3	repeat/STIM_011.jpg	99
2471.004	0.684	684.3	repeat	Run3	repeat/STIM_011.jpg	99
2474.238	0.858	857.7	repeat	Run3	repeat/STIM_012.jpg	100
2478.369	0.615	615.1	repeat	Run3	repeat/STIM_012.jpg	99
2481.41	0.588	588.2	repeat	Run3	repeat/STIM_012.jpg	100
2485.425	0.724	723.5	repeat	Run3	repeat/STIM_012.jpg	99
2489.358	0.596	595.5	repeat	Run3	repeat/STIM_012.jpg	100
2492.613	0.884	884.5	repeat	Run3	repeat/STIM_013.jpg	100
2497.137	0.466	465.6	repeat	Run3	repeat/STIM_013.jpg	100
2500.011	0.548	548.3	repeat	Run3	repeat/STIM_013.jpg	99
2503.548	0.822	822.1	repeat	Run3	repeat/STIM_013.jpg	100
2507.971	0.713	713.4	repeat	Run3	repeat/STIM_013.jpg	99
2512.036	0.598	597.7	repeat	Run3	repeat/STIM_014.jpg	100
2514.809	0.782	782.4	repeat	Run3	repeat/STIM_014.jpg	100
2519.545	0.573	573.4	repeat	Run3	repeat/STIM_014.jpg	100
2524.106	0.663	663.4	repeat	Run3	repeat/STIM_014.jpg	100
2528.056	0.784	784.2	repeat	Run3	repeat/STIM_014.jpg	100
2531.1	1.671	1671.1	generate	Run4	generate/STIM_000.jpg	99
2535.377	1.764	1764.1	generate	Run4	generate/STIM_000.jpg	100
2540.143	1.715	1715.1	generate	Run4	generate/STIM_000.jpg	99
2545.646	0.933	933.1	generate	Run4	generate/STIM_000.jpg	100
2550.038	1.28	1280.4	generate	Run4	generate/STIM_000.jpg	100
2553.42	1.47	1470.3	generate	Run4	generate/STIM_001.jpg	100
2558.644	0.803	803.0	generate	Run4	generate/STIM_001.jpg	100
2563.404	1.255	1254.7	generate	Run4	generate/STIM_001.jpg	99
2567.139	1.53	1530.4	generate	Run4	generate/STIM_001.jpg	100
2571.529	1.647	1646.9	generate	Run4	generate/STIM_001.jpg	100
2577.095	1.152	1151.8	generate	Run4	generate/STIM_002.jpg	100
2581.061	1.785	1784.7	generate	Run4	generate/STIM_002.jpg	99
2586.09	1.746	1745.9	generate	Run4	generate/STIM_002.jpg	100
2590.129	1.446	1446.4	generate	Run4	generate/STIM_002.jpg	99
2595.558	0.81	810.1	generate	Run4	generate/STIM_002.jpg	99
2599.932	1.934	1934.0	generate	Run4	generate/STIM_003.jpg	100
2605.241	1.392	1392.0	generate	Run4	generate/STIM_003.jpg	100
2608.676	1.517	1516.6	generate	Run4	generate/STIM_003.jpg	100
2612.372	1.136	1136.3	generate	Run4	generate/STIM_003.jpg	100
2616.528	1.344	1344.2	generate	Run4	generate/STIM_003.jpg	100
2621.026	0.808	808.4	generate	Run4	generate/STIM_004.jpg	99
2625.436	1.784	1784.3	generate	Run4	generate/STIM_004.jpg	99
2629.404	1.761	1761.4	generate	Run4	generate/STIM_004.jpg	100
2634.73	1.687	1687.4	generate	Run4	generate/STIM_004.jpg	100
2638.965	1.282	1281.8	generate	Run4	generate/STIM_004.jpg	100
2643.13	1.185	1185.2	generate	Run4	generate/STIM_005.jpg	100
2646.587	0.972	971.5	generate	Run4	generate/STIM_005.jpg	100
2650.655	1.449	1449.1	generate	Run4	generate/STIM_005.jpg	100
2654.27	0.824	823.9	generate	Run4	generate/STIM_005.jpg	100
2658.511	1.547	1547.2	generate	Run4	generate/STIM_005.jpg	99
2662.865	1.746	1746.0	generate	Run4	generate/STIM_006.jpg	100
2667.909	1.233	1232.8	generate	Run4	generate/STIM_006.jpg	100
2672.685	1.054	1053.9	generate	Run4	generate/STIM_006.jpg	99
2676.377	1.48	1480.4	generate	Run4	generate/STIM_006.jpg	99
2681.397	1.537	1536.9	generate	Run4	generate/STIM_006.jpg	100
2686.924	1.012	1012.1	generate	Run4	generate/STIM_007.jpg	100
2691.067	1.009	1009.1	generate	Run4	generate/STIM_007.jpg	100
2694.928	1.709	1709.1	generate	Run4	generate/STIM_007.jpg	99
2700.325	1.84	1840.3	generate	Run4	generate/STIM_007.jpg	99
2705.085	1.159	1158.8	generate	Run4	generate/STIM_007.jpg	100
2709.88	0.975	974.7	generate	Run4	generate/STIM_008.jpg	100
2714.854	0.921	921.0	generate	Run4	generate/STIM_008.jpg	100
2718.87	0.891	890.7	generate	Run4	generate/STIM_008.jpg	99
2723.352	1.595	1594.7	generate	Run4	generate/STIM_008.jpg	99
2728.751	1.921	1920.7	generate	Run4	generate/STIM_008.jpg	100
2733.328	1.752	1752.0	generate	Run4	generate/STIM_009.jpg	100
2738.696	1.783	1783.0	generate	Run4	generate/STIM_009.jpg	99
2742.993	1.392	1392.2	generate	Run4	generate/STIM_009.jpg	99
2747.522	1.331	1330.6	generate	Run4	generate/STIM_009.jpg	100
2752.0	1.597	1597.4	generate	Run4	generate/STIM_009.jpg	100
2756.797	1.193	1193.0	generate	Run4	generate/STIM_010.jpg	99
2760.463	1.702	1702.1	generate	Run4	generate/STIM_010.jpg	99
2765.111	1.189	1188.9	generate	Run4	generate/STIM_010.jpg	100
2768.715	1.493	1493.3	generate	Run4	generate/STIM_010.jpg	100
2773.33	1.517	1516.7	generate	Run4	generate/STIM_010.jpg	99
2777.911	1.255	1254.9	generate	Run4	generate/STIM_011.jpg	100
2782.248	0.798	798.3	generate	Run4	generate/STIM_011.jpg	100
2785.764	1.758	1758.3	generate	Run4	generate/STIM_011.jpg	100
2790.48	0.78	779.9	generate	Run4	generate/STIM_011.jpg	99
2793.848	1.759	1758.8	generate	Run4	generate/STIM_011.jpg	100
2799.486	1.077	1077.4	generate	Run4	generate/STIM_012.jpg	100
2803.946	1.331	1331.2	generate	Run4	generate/STIM_012.jpg	100
2807.4	0.809	808.9	generate	Run4	generate/STIM_012.jpg	99
2810.499	1.071	1070.9	generate	Run4	generate/STIM_012.jpg	99
2813.842	1.556	1556.2	generate	Run4	generate/STIM_012.jpg	99
2818.22	1.016	1016.3	generate	Run4	generate/STIM_013.jpg	99
2822.164	1.178	1177.6	generate	Run4	generate/STIM_013.jpg	99
2827.283	1.822	1821.8	generate	Run4	generate/STIM_013.jpg	99
2832.5	1.157	1157.3	generate	Run4	generate/STIM_013.jpg	100
2837.115	0.973	972.7	generate	Run4	generate/STIM_013.jpg	100
2840.629	0.848	847.6	generate	Run4	generate/STIM_014.jpg	100
2843.896	1.675	1675.3	generate	Run4	generate/STIM_014.jpg	100
2848.307	1.583	1583.4	generate	Run4	generate/STIM_014.jpg	100
2852.959	0.908	908.0	generate	Run4	generate/STIM_014.jpg	99
2856.104	1.732	1732.3	generate	Run4	generate/STIM_014.jpg	100
2860.313	1.75	1749.9	generate	Run4	generate/STIM_015.jpg	99
2864.179	1.791	1791.3	generate	Run4	generate/STIM_015.jpg	100
2868.491	0.861	860.7	generate	Run4	generate/STIM_015.jpg	99
2871.436	1.366	1366.3	generate	Run4	generate/STIM_015.jpg	99
2876.378	1.185	1185.4	generate	Run4	generate/STIM_015.jpg	99
2879.725	1.105	1105.1	generate	Run4	generate/STIM_016.jpg	99
2884.414	1.552	1551.6	generate	Run4	generate/STIM_016.jpg	100
2889.819	1.238	1238.5	generate	Run4	generate/STIM_016.jpg	99
2893.329	1.858	1857.9	generate	Run4	generate/STIM_016.jpg	100
2897.997	1.431	1431.4	generate	Run4	generate/STIM_016.jpg	100
2901.603	1.507	1507.2	generate	Run4	generate/STIM_017.jpg	100
2905.994	1.312	1312.1	generate	Run4	generate/STIM_017.jpg	99
2911.139	1.773	1773.0	generate	Run4	generate/STIM_017.jpg	99
2915.891	1.419	1419.4	generate	Run4	generate/STIM_017.jpg	100
2921.158	1.245	1244.9	generate	Run4	generate/STIM_017.jpg	99
2925.326	1.877	1877.2	generate	Run4	generate/STIM_018.jpg	99
2929.732	1.154	1154.5	generate	Run4	generate/STIM_018.jpg	100
2933.201	0.793	793.0	generate	Run4	generate/STIM_018.jpg	99
2936.457	0.918	918.2	generate	Run4	generate/STIM_018.jpg	99
2940.794	1.582	1581.7	generate	Run4	generate/STIM_018.jpg	99
2945.304	0.97	970.5	generate	Run4	generate/STIM_019.jpg	100
2950.27	1.261	1261.0	generate	Run4	generate/STIM_019.jpg	100
2954.203	1.197	1196.9	generate	Run4	generate/STIM_019.jpg	99
2958.367	1.455	1455.4	generate	Run4	generate/STIM_019.jpg	100
2963.782	1.477	1476.7	generate	Run4	generate/STIM_019.jpg	99
2968.016	1.058	1057.9	generate	Run4	generate/STIM_020.jpg	99
2972.094	1.377	1376.7	generate	Run4	generate/STIM_020.jpg	99
2977.318	0.78	780.4	generate	Run4	generate/STIM_020.jpg	100
2981.195	1.77	1769.8	generate	Run4	generate/STIM_020.jpg	99
2985.365	1.484	1483.9	generate	Run4	generate/STIM_020.jpg	99
2989.082	1.752	1752.5	generate	Run4	generate/STIM_021.jpg	100
2993.935	1.04	1039.7	generate	Run4	generate/STIM_021.jpg	99
2998.699	1.885	1884.9	generate	Run4	generate/STIM_021.jpg	99
3003.304	1.483	1483.1	generate	Run4	generate/STIM_021.jpg	100
3008.294	1.557	1557.0	generate	Run4	generate/STIM_021.jpg	99
3013.641	1.528	1528.1	generate	Run4	generate/STIM_022.jpg	99
3018.502	1.117	1117.4	generate	Run4	generate/STIM_022.jpg	99
3022.8	1.323	1322.6	generate	Run4	generate/STIM_022.jpg	100
3026.337	1.054	1054.0	generate	Run4	generate/STIM_022.jpg	100
3030.907	1.806	1806.0	generate	Run4	generate/STIM_022.jpg	99
3034.887	0.794	794.3	generate	Run4	generate/STIM_023.jpg	99
3038.611	0.8	800.4	generate	Run4	generate/STIM_023.jpg	100
3042.939	1.29	1290.4	generate	Run4	generate/STIM_023.jpg	99
3047.634	0.813	812.6	generate	Run4	generate/STIM_023.jpg	100
3051.918	1.088	1088.3	generate	Run4	generate/STIM_023.jpg	100
3056.381	1.423	1423.0	generate	Run4	generate/STIM_024.jpg	100
3060.299	1.502	1502.4	generate	Run4	generate/STIM_024.jpg	100
3065.553	1.594	1593.9	generate	Run4	generate/STIM_024.jpg	99
3069.418	1.75	1750.1	generate	Run4	generate/STIM_024.jpg	99
3074.341	0.796	795.8	generate	Run4	generate/STIM_024.jpg	99
3078.105	0.766	765.6	repeat	Run4	repeat/STIM_000.jpg	100
3082.414	0.78	780.4	repeat	Run4	repeat/STIM_000.jpg	99
3086.956	0.911	911.2	repeat	Run4	repeat/STIM_000.jpg	100
3090.101	0.616	615.7	repeat	Run4	repeat/STIM_000.jpg	99
3092.742	0.589	588.9	repeat	Run4	repeat/STIM_000.jpg	99
3097.115	0.549	549.1	repeat	Run4	repeat/STIM_001.jpg	99
3100.243	0.788	788.2	repeat	Run4	repeat/STIM_001.jpg	100
3104.185	0.573	572.6	repeat	Run4	repeat/STIM_001.jpg	100
3107.17	0.657	657.0	repeat	Run4	repeat/STIM_001.jpg	100
3111.219	0.54	540.2	repeat	Run4	repeat/STIM_001.jpg	99
3115.443	0.879	878.8	repeat	Run4	repeat/STIM_002.jpg	100
3119.335	0.636	636.3	repeat	Run4	repeat/STIM_002.jpg	99
3122.416	0.792	792.0	repeat	Run4	repeat/STIM_002.jpg	100
3126.328	0.744	743.5	repeat	Run4	repeat/STIM_002.jpg	100
3129.715	0.591	590.6	repeat	Run4	repeat/STIM_002.jpg	99
3134.268	0.916	915.8	repeat	Run4	repeat/STIM_003.jpg	99
3137.606	0.574	574.5	repeat	Run4	repeat/STIM_003.jpg	100
3140.659	0.7	700.3	repeat	Run4	repeat/STIM_003.jpg	99
3144.895	0.553	553.0	repeat	Run4	repeat/STIM_003.jpg	100
3147.64	0.484	484.1	repeat	Run4	repeat/STIM_003.jpg	100
3150.728	0.697	697.0	repeat	Run4	repeat/STIM_004.jpg	99
3154.74	0.77	769.5	repeat	Run4	repeat/STIM_004.jpg	100
3159.036	0.519	518.8	repeat	Run4	repeat/STIM_004.jpg	100
3163.138	0.469	469.4	repeat	Run4	repeat/STIM_004.jpg	100
3165.976	0.627	626.7	repeat	Run4	repeat/STIM_004.jpg	100
3169.213	0.861	861.4	repeat	Run4	repeat/STIM_005.jpg	99
3172.574	0.825	824.8	repeat	Run4	repeat/STIM_005.jpg	100
3175.413	0.831	831.0	repeat	Run4	repeat/STIM_005.jpg	100
3179.685	0.894	893.6	repeat	Run4	repeat/STIM_005.jpg	99
3184.062	0.494	494.1	repeat	Run4	repeat/STIM_005.jpg	99
3187.381	0.868	868.4	repeat	Run4	repeat/STIM_006.jpg	100
3190.656	0.892	892.4	repeat	Run4	repeat/STIM_006.jpg	99
3195.198	0.475	475.4	repeat	Run4	repeat/STIM_006.jpg	99
3198.521	0.665	665.0	repeat	Run4	repeat/STIM_006.jpg	99
3202.799	0.704	703.7	repeat	Run4	repeat/STIM_006.jpg	100
3205.845	0.919	919.2	repeat	Run4	repeat/STIM_007.jpg	100
3209.273	0.721	721.2	repeat	Run4	repeat/STIM_007.jpg	99
3213.699	0.807	807.1	repeat	Run4	repeat/STIM_007.jpg	99
3218.47	0.91	909.5	repeat	Run4	repeat/STIM_007.jpg	99
3222.681	0.481	480.9	repeat	Run4	repeat/STIM_007.jpg	100
3226.722	0.719	718.6	repeat	Run4	repeat/STIM_008.jpg	100
3230.615	0.757	757.3	repeat	Run4	repeat/STIM_008.jpg	99
3234.67	0.586	585.5	repeat	Run4	repeat/STIM_008.jpg	100
3238.041	0.841	841.0	repeat	Run4	repeat/STIM_008.jpg	100
3241.018	0.488	488.5	repeat	Run4	repeat/STIM_008.jpg	100
3245.33	0.745	744.9	repeat	Run4	repeat/STIM_009.jpg	99
3249.19	0.647	647.0	repeat	Run4	repeat/STIM_009.jpg	99
3251.966	0.469	468.7	repeat	Run4	repeat/STIM_009.jpg	99
3254.828	0.532	531.5	repeat	Run4	repeat/STIM_009.jpg	100
3257.771	0.53	529.9	repeat	Run4	repeat/STIM_009.jpg	99
3261.204	0.619	619.3	repeat	Run4	repeat/STIM_010.jpg	100
3264.351	0.767	767.2	repeat	Run4	repeat/STIM_010.jpg	99
3267.173	0.876	876.5	repeat	Run4	repeat/STIM_010.jpg	100
3271.767	0.71	709.6	repeat	Run4	repeat/STIM_010.jpg	100
3276.077	0.882	882.2	repeat	Run4	repeat/STIM_010.jpg	100
3280.866	0.577	577.1	repeat	Run4	repeat/STIM_011.jpg	100
3283.787	0.523	522.7	repeat	Run4	repeat/STIM_011.jpg	99
3286.872	0.639	639.3	repeat	Run4	repeat/STIM_011.jpg	100
3290.432	0.506	505.8	repeat	Run4	repeat/STIM_011.jpg	99
3294.517	0.619	619.0	repeat	Run4	repeat/STIM_011.jpg	99
3297.528	0.486	486.5	repeat	Run4	repeat/STIM_012.jpg	100
3300.308	0.686	685.7	repeat	Run4	repeat/STIM_012.jpg	99
3303.846	0.868	867.6	repeat	Run4	repeat/STIM_012.jpg	99
3307.003	0.918	918.4	repeat	Run4	repeat/STIM_012.jpg	99
3309.973	0.481	480.6	repeat	Run4	repeat/STIM_012.jpg	100
3313.68	0.838	837.6	repeat	Run4	repeat/STIM_013.jpg	100
3316.646	0.59	589.9	repeat	Run4	repeat/STIM_013.jpg	99
3320.401	0.752	752.2	repeat	Run4	repeat/STIM_013.jpg	100
3323.878	0.495	494.8	repeat	Run4	repeat/STIM_013.jpg	100
3327.508	0.696	695.7	repeat	Run4	repeat/STIM_013.jpg	100
3330.806	0.668	667.8	repeat	Run4	repeat/STIM_014.jpg	99
3334.809	0.852	851.5	repeat	Run4	repeat/STIM_014.jpg	99
3339.083	0.768	768.0	repeat	Run4	repeat/STIM_014.jpg	100
3343.832	0.842	841.6	repeat	Run4	repeat/STIM_014.jpg	100
3347.443	0.847	846.6	repeat	Run4	repeat/STIM_014.jpg	100
