onset	duration	response_time_ms	trial_type	learning_stage	stimulus	response_port
0.0	2.629	2629.4	generate	Run1	generate/STIM_000.jpg	99
5.212	2.801	2801.2	generate	Run1	generate/STIM_000.jpg	100
11.262	1.734	1734.4	generate	Run1	generate/STIM_000.jpg	100
15.947	2.727	2726.7	generate	Run1	generate/STIM_000.jpg	100
21.388	1.16	1160.1	generate	Run1	generate/STIM_000.jpg	100
24.894	1.77	1769.9	generate	Run1	generate/STIM_001.jpg	99
29.248	2.241	2240.7	generate	Run1	generate/STIM_001.jpg	99
34.94	2.981	2980.9	generate	Run1	generate/STIM_001.jpg	100
40.617	1.659	1658.9	generate	Run1	generate/STIM_001.jpg	99
45.098	2.749	2749.3	generate	Run1	generate/STIM_001.jpg	100
50.542	1.913	1912.8	generate	Run1	generate/STIM_002.jpg	99
55.057	1.729	1729.2	generate	Run1	generate/STIM_002.jpg	99
59.761	1.29	1290.3	generate	Run1	generate/STIM_002.jpg	99
64.665	2.704	2704.2	generate	Run1	generate/STIM_002.jpg	99
70.677	1.453	1452.6	generate	Run1	generate/STIM_002.jpg	99
75.857	2.016	2015.7	generate	Run1	generate/STIM_003.jpg	99
79.859	2.025	2025.4	generate	Run1	generate/STIM_003.jpg	99
85.333	2.709	2709.1	generate	Run1	generate/STIM_003.jpg	99
89.953	2.263	2263.4	generate	Run1	generate/STIM_003.jpg	100
95.184	1.565	1565.1	generate	Run1	generate/STIM_003.jpg	99
99.472	3.141	3141.2	generate	Run1	generate/STIM_004.jpg	100
105.954	2.401	2401.2	generate	Run1	generate/STIM_004.jpg	99
111.513	2.358	2357.8	generate	Run1	generate/STIM_004.jpg	99
115.913	2.525	2525.4	generate	Run1	generate/STIM_004.jpg	100
120.737	1.627	1626.9	generate	Run1	generate/STIM_004.jpg	100
124.205	3.196	3196.5	generate	Run1	generate/STIM_005.jpg	99
130.429	2.074	2073.7	generate	Run1	generate/STIM_005.jpg	99
135.746	1.337	1337.1	generate	Run1	generate/STIM_005.jpg	100
140.131	1.594	1594.3	generate	Run1	generate/STIM_005.jpg	100
144.151	2.404	2404.3	generate	Run1	generate/STIM_005.jpg	100
149.981	2.559	2558.8	generate	Run1	generate/STIM_006.jpg	100
156.097	2.041	2041.2	generate	Run1	generate/STIM_006.jpg	100
160.739	3.04	3040.5	generate	Run1	generate/STIM_006.jpg	100
166.945	2.113	2112.6	generate	Run1	generate/STIM_006.jpg	99
171.758	2.36	2360.3	generate	Run1	generate/STIM_006.jpg	100
176.934	2.72	2719.8	generate	Run1	generate/STIM_007.jpg	100
182.431	1.989	1988.6	generate	Run1	generate/STIM_007.jpg	100
186.895	2.056	2055.5	generate	Run1	generate/STIM_007.jpg	100
191.578	2.85	2850.2	generate	Run1	generate/STIM_007.jpg	100
196.438	2.57	2570.3	generate	Run1	generate/STIM_007.jpg	100
200.96	3.324	3324.3	generate	Run1	generate/STIM_008.jpg	99
206.465	1.939	1938.6	generate	Run1	generate/STIM_008.jpg	99
210.692	2.352	2351.7	generate	Run1	generate/STIM_008.jpg	99
215.432	2.529	2528.7	generate	Run1	generate/STIM_008.jpg	100
221.009	2.743	2743.4	generate	Run1	generate/STIM_008.jpg	100
226.328	1.998	1997.9	generate	Run1	generate/STIM_009.jpg	100
231.379	2.09	2089.6	generate	Run1	generate/STIM_009.jpg	100
236.639	2.046	2046.0	generate	Run1	generate/STIM_009.jpg	100
241.9	1.594	1594.4	generate	Run1	generate/STIM_009.jpg	99
245.649	2.138	2137.7	generate	Run1	generate/STIM_009.jpg	100
250.885	2.55	2550.5	generate	Run1	generate/STIM_010.jpg	99
256.499	2.594	2594.3	generate	Run1	generate/STIM_010.jpg	99
262.193	2.808	2808.5	generate	Run1	generate/STIM_010.jpg	99
267.789	2.064	2063.7	generate	Run1	generate/STIM_010.jpg	99
272.393	2.0	2000.2	generate	Run1	generate/STIM_010.jpg	100
278.08	3.434	3434.5	generate	Run1	generate/STIM_011.jpg	99
284.261	2.875	2875.3	generate	Run1	generate/STIM_011.jpg	99
289.255	3.007	3006.9	generate	Run1	generate/STIM_011.jpg	99
294.516	1.962	1962.2	generate	Run1	generate/STIM_011.jpg	100
299.147	1.574	1574.2	generate	Run1	generate/STIM_011.jpg	100
302.689	2.334	2333.8	generate	Run1	generate/STIM_012.jpg	100
306.821	2.303	2303.1	generate	Run1	generate/STIM_012.jpg	100
312.058	2.714	2713.6	generate	Run1	generate/STIM_012.jpg	100
318.04	2.304	2304.0	generate	Run1	generate/STIM_012.jpg	100
322.066	1.417	1416.6	generate	Run1	generate/STIM_012.jpg	100
325.772	1.586	1586.3	generate	Run1	generate/STIM_013.jpg	99
330.882	2.517	2517.4	generate	Run1	generate/STIM_013.jpg	100
335.612	2.671	2671.1	generate	Run1	generate/STIM_013.jpg	100
340.844	1.334	1333.9	generate	Run1	generate/STIM_013.jpg	100
345.459	1.138	1137.5	generate	Run1	generate/STIM_013.jpg	100
349.311	2.318	2317.6	generate	Run1	generate/STIM_014.jpg	99
353.357	2.514	2513.5	generate	Run1	generate/STIM_014.jpg	100
358.058	2.21	2210.3	generate	Run1	generate/STIM_014.jpg	100
362.295	1.694	1694.3	generate	Run1	generate/STIM_014.jpg	100
365.906	2.6	2600.1	generate	Run1	generate/STIM_014.jpg	100
370.687	2.34	2340.1	generate	Run1	generate/STIM_015.jpg	100
375.188	2.064	2063.6	generate	Run1	generate/STIM_015.jpg	99
379.483	2.337	2336.7	generate	Run1	generate/STIM_015.jpg	100
385.379	2.549	2548.9	generate	Run1	generate/STIM_015.jpg	100
391.534	1.488	1487.8	generate	Run1	generate/STIM_015.jpg	99
395.388	3.282	3281.5	generate	Run1	generate/STIM_016.jpg	99
400.841	1.608	1607.8	generate	Run1	generate/STIM_016.jpg	99
405.231	2.208	2207.8	generate	Run1	generate/STIM_016.jpg	99
409.657	2.349	2349.4	generate	Run1	generate/STIM_016.jpg	100
413.959	2.234	2234.3	generate	Run1	generate/STIM_016.jpg	100
419.081	1.474	1474.3	generate	Run1	generate/STIM_017.jpg	100
423.225	2.098	2098.4	generate	Run1	generate/STIM_017.jpg	100
428.461	1.605	1604.8	generate	Run1	generate/STIM_017.jpg	100
432.188	1.608	1607.9	generate	Run1	generate/STIM_017.jpg	100
437.528	1.544	1544.5	generate	Run1	generate/STIM_017.jpg	100
442.734	3.012	3011.5	generate	Run1	generate/STIM_018.jpg	99
447.833	1.596	1595.7	generate	Run1	generate/STIM_018.jpg	99
453.178	2.602	2601.5	generate	Run1	generate/STIM_018.jpg	99
458.096	2.298	2298.0	generate	Run1	generate/STIM_018.jpg	100
462.816	2.661	2661.1	generate	Run1	generate/STIM_018.jpg	99
468.231	2.134	2134.0	generate	Run1	generate/STIM_019.jpg	99
472.679	2.051	2051.1	generate	Run1	generate/STIM_019.jpg	99
476.66	2.259	2259.4	generate	Run1	generate/STIM_019.jpg	99
480.979	2.437	2436.8	generate	Run1	generate/STIM_019.jpg	99
485.791	2.291	2290.7	generate	Run1	generate/STIM_019.jpg	100
491.667	1.732	1732.2	generate	Run1	generate/STIM_020.jpg	100
495.616	1.842	1842.1	generate	Run1	generate/STIM_020.jpg	99
500.731	2.435	2434.8	generate	Run1	generate/STIM_020.jpg	99
505.765	1.481	1480.9	generate	Run1	generate/STIM_020.jpg	99
510.78	2.29	2289.8	generate	Run1	generate/STIM_020.jpg	99
515.09	2.121	2120.9	generate	Run1	generate/STIM_021.jpg	99
519.126	2.504	2504.4	generate	Run1	generate/STIM_021.jpg	100
523.653	3.039	3038.9	generate	Run1	generate/STIM_021.jpg	100
528.762	1.63	1630.4	generate	Run1	generate/STIM_021.jpg	99
533.718	1.803	1803.4	generate	Run1	generate/STIM_021.jpg	100
537.586	1.414	1414.1	generate	Run1	generate/STIM_022.jpg	100
541.561	1.979	1979.2	generate	Run1	generate/STIM_022.jpg	100
545.351	2.928	2928.5	generate	Run1	generate/STIM_022.jpg	100
551.685	2.501	2501.1	generate	Run1	generate/STIM_022.jpg	100
556.121	2.717	2717.2	generate	Run1	generate/STIM_022.jpg	100
561.874	2.934	2934.3	generate	Run1	generate/STIM_023.jpg	99
568.12	2.828	2828.5	generate	Run1	generate/STIM_023.jpg	99
574.226	1.721	1720.7	generate	Run1	generate/STIM_023.jpg	99
579.394	1.831	1831.3	generate	Run1	generate/STIM_023.jpg	99
584.671	1.154	1153.6	generate	Run1	generate/STIM_023.jpg	99
588.454	2.825	2825.1	generate	Run1	generate/STIM_024.jpg	100
593.728	2.329	2328.6	generate	Run1	generate/STIM_024.jpg	99
599.054	1.906	1905.8	generate	Run1	generate/STIM_024.jpg	99
604.12	1.905	1905.4	generate	Run1	generate/STIM_024.jpg	100
608.746	1.212	1212.1	generate	Run1	generate/STIM_024.jpg	100
612.372	0.733	732.6	repeat	Run1	repeat/STIM_000.jpg	99
616.72	1.124	1124.1	repeat	Run1	repeat/STIM_000.jpg	99
621.09	0.93	930.1	repeat	Run1	repeat/STIM_000.jpg	99
625.123	0.742	742.5	repeat	Run1	repeat/STIM_000.jpg	99
628.811	0.516	515.8	repeat	Run1	repeat/STIM_000.jpg	99
633.151	1.091	1091.4	repeat	Run1	repeat/STIM_001.jpg	100
637.435	0.784	783.6	repeat	Run1	repeat/STIM_001.jpg	99
641.139	0.719	718.7	repeat	Run1	repeat/STIM_001.jpg	99
644.123	1.102	1102.4	repeat	Run1	repeat/STIM_001.jpg	99
648.173	0.969	969.0	repeat	Run1	repeat/STIM_001.jpg	100
651.722	1.095	1095.1	repeat	Run1	repeat/STIM_002.jpg	100
655.118	0.73	730.5	repeat	Run1	repeat/STIM_002.jpg	99
657.754	1.047	1047.1	repeat	Run1	repeat/STIM_002.jpg	99
662.304	0.979	979.0	repeat	Run1	repeat/STIM_002.jpg	100
665.867	0.882	882.5	repeat	Run1	repeat/STIM_002.jpg	99
669.615	0.772	772.5	repeat	Run1	repeat/STIM_003.jpg	100
672.821	0.799	799.1	repeat	Run1	repeat/STIM_003.jpg	99
675.863	0.9	900.1	repeat	Run1	repeat/STIM_003.jpg	100
679.472	0.987	987.3	repeat	Run1	repeat/STIM_003.jpg	100
683.627	0.66	659.7	repeat	Run1	repeat/STIM_003.jpg	100
686.421	0.946	946.5	repeat	Run1	repeat/STIM_004.jpg	99
690.816	0.872	872.0	repeat	Run1	repeat/STIM_004.jpg	100
694.146	1.153	1152.9	repeat	Run1	repeat/STIM_004.jpg	100
697.788	0.974	973.6	repeat	Run1	repeat/STIM_004.jpg	99
701.628	0.888	888.3	repeat	Run1	repeat/STIM_004.jpg	99
705.153	1.081	1080.9	repeat	Run1	repeat/STIM_005.jpg	99
708.888	0.845	845.3	repeat	Run1	repeat/STIM_005.jpg	99
713.244	1.085	1085.1	repeat	Run1	repeat/STIM_005.jpg	99
718.035	0.821	821.4	repeat	Run1	repeat/STIM_005.jpg	100
722.239	0.74	740.2	repeat	Run1	repeat/STIM_005.jpg	100
724.947	0.636	636.0	repeat	Run1	repeat/STIM_006.jpg	100
727.748	1.052	1051.7	repeat	Run1	repeat/STIM_006.jpg	100
732.483	0.647	646.8	repeat	Run1	repeat/STIM_006.jpg	100
736.934	0.712	711.5	repeat	Run1	repeat/STIM_006.jpg	100
740.664	0.856	856.5	repeat	Run1	repeat/STIM_006.jpg	99
743.74	0.701	701.2	repeat	Run1	repeat/STIM_007.jpg	100
748.337	0.812	811.5	repeat	Run1	repeat/STIM_007.jpg	99
751.398	0.907	906.7	repeat	Run1	repeat/STIM_007.jpg	99
754.346	0.773	772.8	repeat	Run1	repeat/STIM_007.jpg	99
757.235	0.918	917.8	repeat	Run1	repeat/STIM_007.jpg	99
760.741	0.72	719.7	repeat	Run1	repeat/STIM_008.jpg	99
765.266	0.946	946.5	repeat	Run1	repeat/STIM_008.jpg	100
768.255	0.84	840.4	repeat	Run1	repeat/STIM_008.jpg	99
772.431	0.675	674.9	repeat	Run1	repeat/STIM_008.jpg	100
776.03	0.817	817.1	repeat	Run1	repeat/STIM_008.jpg	99
780.012	0.983	982.9	repeat	Run1	repeat/STIM_009.jpg	100
784.346	0.762	762.1	repeat	Run1	repeat/STIM_009.jpg	100
788.928	0.799	799.0	repeat	Run1	repeat/STIM_009.jpg	99
793.117	0.969	968.6	repeat	Run1	repeat/STIM_009.jpg	99
797.71	0.953	953.4	repeat	Run1	repeat/STIM_009.jpg	99
801.501	0.818	817.6	repeat	Run1	repeat/STIM_010.jpg	100
804.645	0.636	636.1	repeat	Run1	repeat/STIM_010.jpg	99
808.221	0.63	630.0	repeat	Run1	repeat/STIM_010.jpg	99
811.467	1.094	1094.4	repeat	Run1	repeat/STIM_010.jpg	100
815.185	0.722	721.7	repeat	Run1	repeat/STIM_010.jpg	99
819.218	0.634	634.1	repeat	Run1	repeat/STIM_011.jpg	99
823.502	0.926	926.1	repeat	Run1	repeat/STIM_011.jpg	100
827.678	1.122	1121.6	repeat	Run1	repeat/STIM_011.jpg	99
831.826	0.862	861.6	repeat	Run1	repeat/STIM_011.jpg	100
835.592	1.109	1109.2	repeat	Run1	repeat/STIM_011.jpg	99
840.38	0.798	797.9	repeat	Run1	repeat/STIM_012.jpg	100
843.235	1.042	1042.3	repeat	Run1	repeat/STIM_012.jpg	99
847.481	1.092	1092.4	repeat	Run1	repeat/STIM_012.jpg	100
852.06	1.157	1157.2	repeat	Run1	repeat/STIM_012.jpg	99
856.981	0.905	905.1	repeat	Run1	repeat/STIM_012.jpg	100
860.261	0.984	983.7	repeat	Run1	repeat/STIM_013.jpg	99
863.286	1.067	1067.4	repeat	Run1	repeat/STIM_013.jpg	100
866.88	0.642	642.0	repeat	Run1	repeat/STIM_013.jpg	100
869.853	0.844	843.8	repeat	Run1	repeat/STIM_013.jpg	100
873.336	1.017	1017.0	repeat	Run1	repeat/STIM_013.jpg	100
877.885	1.122	1122.1	repeat	Run1	repeat/STIM_014.jpg	99
881.372	0.619	619.3	repeat	Run1	repeat/STIM_014.jpg	99
884.304	0.794	794.0	repeat	Run1	repeat/STIM_014.jpg	99
888.079	1.085	1084.7	repeat	Run1	repeat/STIM_014.jpg	99
891.366	0.688	688.4	repeat	Run1	repeat/STIM_014.jpg	100
895.224	2.799	2799.3	generate	Run2	generate/STIM_000.jpg	99
900.913	2.376	2376.2	generate	Run2	generate/STIM_000.jpg	100
905.645	2.446	2446.1	generate	Run2	generate/STIM_000.jpg	99
910.768	1.873	1873.3	generate	Run2	generate/STIM_000.jpg	100
916.177	1.13	1129.9	generate	Run2	generate/STIM_000.jpg	99
920.646	2.867	2866.6	generate	Run2	generate/STIM_001.jpg	100
926.937	2.484	2484.3	generate	Run2	generate/STIM_001.jpg	99
931.166	2.36	2360.1	generate	Run2	generate/STIM_001.jpg	99
935.598	2.102	2101.6	generate	Run2	generate/STIM_001.jpg	100
941.062	1.342	1341.7	generate	Run2	generate/STIM_001.jpg	99
946.212	1.916	1915.7	generate	Run2	generate/STIM_002.jpg	99
950.014	1.759	1758.9	generate	Run2	generate/STIM_002.jpg	100
954.851	1.967	1966.9	generate	Run2	generate/STIM_002.jpg	99
959.09	1.115	1114.8	generate	Run2	generate/STIM_002.jpg	100
963.073	1.315	1315.2	generate	Run2	generate/STIM_002.jpg	100
968.044	1.551	1551.3	generate	Run2	generate/STIM_003.jpg	100
972.258	1.596	1596.3	generate	Run2	generate/STIM_003.jpg	100
977.041	1.004	1003.5	generate	Run2	generate/STIM_003.jpg	100
980.165	2.23	2229.9	generate	Run2	generate/STIM_003.jpg	99
986.081	1.78	1779.5	generate	Run2	generate/STIM_003.jpg	99
990.717	1.565	1564.7	generate	Run2	generate/STIM_004.jpg	99
995.275	1.954	1954.1	generate	Run2	generate/STIM_004.jpg	99
999.612	1.702	1701.5	generate	Run2	generate/STIM_004.jpg	100
1003.402	2.191	2191.0	generate	Run2	generate/STIM_004.jpg	100
1008.306	1.952	1951.9	generate	Run2	generate/STIM_004.jpg	100
1013.724	2.001	2000.8	generate	Run2	generate/STIM_005.jpg	99
1018.094	2.011	2011.3	generate	Run2	generate/STIM_005.jpg	99
1022.548	1.041	1040.9	generate	Run2	generate/STIM_005.jpg	99
1027.362	2.048	2047.9	generate	Run2	generate/STIM_005.jpg	99
1032.202	2.179	2178.6	generate	Run2	generate/STIM_005.jpg	100
1037.811	2.259	2258.6	generate	Run2	generate/STIM_006.jpg	100
1043.192	1.733	1733.2	generate	Run2	generate/STIM_006.jpg	100
1047.032	2.536	2536.0	generate	Run2	generate/STIM_006.jpg	99
1051.326	1.102	1102.5	generate	Run2	generate/STIM_006.jpg	99
1056.245	1.054	1053.7	generate	Run2	generate/STIM_006.jpg	100
1059.931	1.949	1949.1	generate	Run2	generate/STIM_007.jpg	100
1064.308	1.303	1303.3	generate	Run2	generate/STIM_007.jpg	99
1069.174	1.126	1126.5	generate	Run2	generate/STIM_007.jpg	99
1072.807	1.538	1538.5	generate	Run2	generate/STIM_007.jpg	100
1078.053	1.494	1494.1	generate	Run2	generate/STIM_007.jpg	100
1081.41	1.188	1188.5	generate	Run2	generate/STIM_008.jpg	100
1085.643	1.187	1187.2	generate	Run2	generate/STIM_008.jpg	100
1089.759	1.469	1469.4	generate	Run2	generate/STIM_008.jpg	100
1094.316	2.052	2051.8	generate	Run2	generate/STIM_008.jpg	99
1098.719	1.553	1553.0	generate	Run2	generate/STIM_008.jpg	100
1103.543	1.861	1861.1	generate	Run2	generate/STIM_009.jpg	100
1108.901	1.976	1975.9	generate	Run2	generate/STIM_009.jpg	99
1114.132	1.402	1401.8	generate	Run2	generate/STIM_009.jpg	99
1118.137	1.648	1647.6	generate	Run2	generate/STIM_009.jpg	99
1123.369	1.632	1631.9	generate	Run2	generate/STIM_009.jpg	100
1128.093	2.179	2179.3	generate	Run2	generate/STIM_010.jpg	100
1132.594	1.383	1382.6	generate	Run2	generate/STIM_010.jpg	100
1137.028	1.739	1738.8	generate	Run2	generate/STIM_010.jpg	100
1140.742	1.244	1243.5	generate	Run2	generate/STIM_010.jpg	99
1145.689	2.134	2133.6	generate	Run2	generate/STIM_010.jpg	99
1151.314	2.402	2402.0	generate	Run2	generate/STIM_011.jpg	99
1157.408	2.1	2099.9	generate	Run2	generate/STIM_011.jpg	99
1161.885	1.848	1847.9	generate	Run2	generate/STIM_011.jpg	99
1166.156	2.405	2405.4	generate	Run2	generate/STIM_011.jpg	99
1171.433	1.089	1088.8	generate	Run2	generate/STIM_011.jpg	100
1174.764	2.438	2438.0	generate	Run2	generate/STIM_012.jpg	99
1180.517	1.153	1152.9	generate	Run2	generate/STIM_012.jpg	99
1183.849	1.57	1570.2	generate	Run2	generate/STIM_012.jpg	100
1187.778	1.179	1179.1	generate	Run2	generate/STIM_012.jpg	100
1192.542	1.152	1152.1	generate	Run2	generate/STIM_012.jpg	99
1195.999	1.233	1232.7	generate	Run2	generate/STIM_013.jpg	99
1199.263	1.445	1444.9	generate	Run2	generate/STIM_013.jpg	99
1204.28	2.216	2216.5	generate	Run2	generate/STIM_013.jpg	100
1209.451	1.739	1739.2	generate	Run2	generate/STIM_013.jpg	99
1214.427	2.34	2340.2	generate	Run2	generate/STIM_013.jpg	100
1219.831	2.866	2865.6	generate	Run2	generate/STIM_014.jpg	100
1224.519	1.493	1492.9	generate	Run2	generate/STIM_014.jpg	99
1228.003	1.441	1440.7	generate	Run2	generate/STIM_014.jpg	99
1232.525	1.965	1964.9	generate	Run2	generate/STIM_014.jpg	99
1238.023	2.048	2048.0	generate	Run2	generate/STIM_014.jpg	100
1241.86	2.113	2112.6	generate	Run2	generate/STIM_015.jpg	99
1246.064	1.641	1640.8	generate	Run2	generate/STIM_015.jpg	100
1251.019	1.041	1040.8	generate	Run2	generate/STIM_015.jpg	100
1255.872	0.943	942.7	generate	Run2	generate/STIM_015.jpg	99
1260.726	2.006	2005.6	generate	Run2	generate/STIM_015.jpg	99
1265.616	1.882	1882.1	generate	Run2	generate/STIM_016.jpg	100
1270.925	2.49	2489.6	generate	Run2	generate/STIM_016.jpg	100
1276.055	2.178	2178.1	generate	Run2	generate/STIM_016.jpg	99
1281.069	1.445	1445.1	generate	Run2	generate/STIM_016.jpg	99
1285.64	2.315	2314.6	generate	Run2	generate/STIM_016.jpg	99
1291.332	2.701	2700.7	generate	Run2	generate/STIM_017.jpg	100
1296.131	2.089	2089.4	generate	Run2	generate/STIM_017.jpg	99
1300.581	1.671	1671.0	generate	Run2	generate/STIM_017.jpg	99
1304.361	1.412	1411.6	generate	Run2	generate/STIM_017.jpg	100
1309.187	1.94	1940.2	generate	Run2	generate/STIM_017.jpg	99
1313.377	2.343	2342.9	generate	Run2	generate/STIM_018.jpg	99
1318.057	2.622	2622.3	generate	Run2	generate/STIM_018.jpg	99
1322.66	1.975	1974.8	generate	Run2	generate/STIM_018.jpg	99
1326.47	1.037	1036.7	generate	Run2	generate/STIM_018.jpg	99
1330.122	1.77	1770.1	generate	Run2	generate/STIM_018.jpg	99
1334.773	2.766	2765.6	generate	Run2	generate/STIM_019.jpg	99
1340.617	1.51	1510.4	generate	Run2	generate/STIM_019.jpg	99
1344.71	2.4	2399.9	generate	Run2	generate/STIM_019.jpg	99
1349.156	1.756	1755.9	generate	Run2	generate/STIM_019.jpg	100
1353.715	1.05	1050.3	generate	Run2	generate/STIM_019.jpg	100
1358.512	2.718	2718.0	generate	Run2	generate/STIM_020.jpg	99
1362.941	1.331	1331.0	generate	Run2	generate/STIM_020.jpg	99
1367.561	2.037	2037.4	generate	Run2	generate/STIM_020.jpg	100
1371.73	2.43	2429.6	generate	Run2	generate/STIM_020.jpg	100
1376.849	1.512	1511.9	generate	Run2	generate/STIM_020.jpg	99
1380.787	1.648	1647.9	generate	Run2	generate/STIM_021.jpg	99
1384.796	1.853	1853.2	generate	Run2	generate/STIM_021.jpg	99
1389.218	1.075	1075.3	generate	Run2	generate/STIM_021.jpg	100
1392.654	2.359	2359.4	generate	Run2	generate/STIM_021.jpg	99
1398.052	1.095	1095.0	generate	Run2	generate/STIM_021.jpg	99
1401.594	2.267	2266.8	generate	Run2	generate/STIM_022.jpg	100
1406.384	1.91	1910.1	generate	Run2	generate/STIM_022.jpg	99
1411.946	1.811	1811.1	generate	Run2	generate/STIM_022.jpg	99
1416.084	1.203	1202.6	generate	Run2	generate/STIM_022.jpg	100
1420.457	1.643	1643.1	generate	Run2	generate/STIM_022.jpg	99
1425.496	1.566	1565.5	generate	Run2	generate/STIM_023.jpg	100
1430.642	1.208	1208.2	generate	Run2	generate/STIM_023.jpg	99
1433.892	2.354	2353.7	generate	Run2	generate/STIM_023.jpg	99
1437.94	2.148	2147.8	generate	Run2	generate/STIM_023.jpg	100
1442.323	1.21	1209.9	generate	Run2	generate/STIM_023.jpg	99
1445.812	2.664	2664.1	generate	Run2	generate/STIM_024.jpg	100
1451.728	1.812	1811.6	generate	Run2	generate/STIM_024.jpg	100
1456.852	2.299	2299.0	generate	Run2	generate/STIM_024.jpg	100
1461.47	1.785	1785.3	generate	Run2	generate/STIM_024.jpg	100
1466.877	1.688	1688.0	generate	Run2	generate/STIM_024.jpg	99
1471.382	1.149	1149.2	repeat	Run2	repeat/STIM_000.jpg	100
1475.204	0.922	921.5	repeat	Run2	repeat/STIM_000.jpg	99
1478.961	0.984	984.2	repeat	Run2	repeat/STIM_000.jpg	100
1483.116	0.831	830.6	repeat	Run2	repeat/STIM_000.jpg	99
1486.703	0.601	601.3	repeat	Run2	repeat/STIM_000.jpg	99
1490.86	1.092	1091.6	repeat	Run2	repeat/STIM_001.jpg	100
1493.971	0.984	983.9	repeat	Run2	repeat/STIM_001.jpg	100
1497.62	1.053	1052.6	repeat	Run2	repeat/STIM_001.jpg	99
1500.754	0.749	749.1	repeat	Run2	repeat/STIM_001.jpg	99
1503.497	1.072	1071.5	repeat	Run2	repeat/STIM_001.jpg	100
1507.909	0.81	810.0	repeat	Run2	repeat/STIM_002.jpg	99
1510.783	0.961	961.0	repeat	Run2	repeat/STIM_002.jpg	99
1514.058	1.133	1132.7	repeat	Run2	repeat/STIM_002.jpg	100
1518.279	1.134	1133.9	repeat	Run2	repeat/STIM_002.jpg	100
1521.853	0.883	882.6	repeat	Run2	repeat/STIM_002.jpg	99
1525.174	0.873	872.8	repeat	Run2	repeat/STIM_003.jpg	99
1528.529	0.739	738.8	repeat	Run2	repeat/STIM_003.jpg	100
1532.327	1.104	1104.3	repeat	Run2	repeat/STIM_003.jpg	100
1536.978	0.728	727.8	repeat	Run2	repeat/STIM_003.jpg	99
1540.503	0.871	871.2	repeat	Run2	repeat/STIM_003.jpg	99
1544.418	0.67	669.6	repeat	Run2	repeat/STIM_004.jpg	99
1547.934	0.754	754.4	repeat	Run2	repeat/STIM_004.jpg	99
1550.847	1.19	1190.3	repeat	Run2	repeat/STIM_004.jpg	100
1554.263	0.845	845.3	repeat	Run2	repeat/STIM_004.jpg	99
1558.946	1.106	1105.7	repeat	Run2	repeat/STIM_004.jpg	99
1563.332	0.716	715.5	repeat	Run2	repeat/STIM_005.jpg	100
1566.166	0.711	710.7	repeat	Run2	repeat/STIM_005.jpg	100
1569.315	1.124	1124.5	repeat	Run2	repeat/STIM_005.jpg	99
1573.844	0.92	919.6	repeat	Run2	repeat/STIM_005.jpg	100
1577.169	0.859	859.1	repeat	Run2	repeat/STIM_005.jpg	99
1579.999	1.001	1000.7	repeat	Run2	repeat/STIM_006.jpg	100
1584.773	1.048	1047.7	repeat	Run2	repeat/STIM_006.jpg	99
1588.487	1.084	1084.3	repeat	Run2	repeat/STIM_006.jpg	100
1592.181	0.9	900.2	repeat	Run2	repeat/STIM_006.jpg	100
1596.022	0.784	783.6	repeat	Run2	repeat/STIM_006.jpg	100
1599.22	0.786	785.5	repeat	Run2	repeat/STIM_007.jpg	100
1602.488	0.647	647.3	repeat	Run2	repeat/STIM_007.jpg	100
1605.94	1.177	1176.9	repeat	Run2	repeat/STIM_007.jpg	100
1608.939	0.938	938.5	repeat	Run2	repeat/STIM_007.jpg	99
1613.099	0.976	975.9	repeat	Run2	repeat/STIM_007.jpg	99
1616.813	1.014	1014.1	repeat	Run2	repeat/STIM_008.jpg	99
1619.757	0.567	567.3	repeat	Run2	repeat/STIM_008.jpg	100
1623.842	0.776	776.3	repeat	Run2	repeat/STIM_008.jpg	100
1628.181	1.099	1098.7	repeat	Run2	repeat/STIM_008.jpg	99
1632.038	1.088	1087.7	repeat	Run2	repeat/STIM_008.jpg	99
1634.987	0.588	587.6	repeat	Run2	repeat/STIM_009.jpg	100
1639.361	0.607	606.7	repeat	Run2	repeat/STIM_009.jpg	100
1642.176	1.016	1016.3	repeat	Run2	repeat/STIM_009.jpg	100
1646.033	0.93	929.6	repeat	Run2	repeat/STIM_009.jpg	100
1650.489	0.935	934.9	repeat	Run2	repeat/STIM_009.jpg	100
1653.839	0.672	672.5	repeat	Run2	repeat/STIM_010.jpg	99
1657.886	1.239	1238.7	repeat	Run2	repeat/STIM_010.jpg	99
1662.065	0.839	838.9	repeat	Run2	repeat/STIM_010.jpg	100
1665.008	0.836	836.0	repeat	Run2	repeat/STIM_010.jpg	99
1669.734	1.002	1002.1	repeat	Run2	repeat/STIM_010.jpg	100
1674.008	0.67	670.2	repeat	Run2	repeat/STIM_011.jpg	100
1677.101	0.734	733.6	repeat	Run2	repeat/STIM_011.jpg	99
1679.988	0.626	625.7	repeat	Run2	repeat/STIM_011.jpg	99
1683.532	0.797	797.2	repeat	Run2	repeat/STIM_011.jpg	100
1687.758	0.87	870.2	repeat	Run2	repeat/STIM_011.jpg	100
1691.802	0.626	626.4	repeat	Run2	repeat/STIM_012.jpg	99
1695.857	0.67	670.2	repeat	Run2	repeat/STIM_012.jpg	100
1698.87	0.696	696.4	repeat	Run2	repeat/STIM_012.jpg	100
1701.748	0.722	722.1	repeat	Run2	repeat/STIM_012.jpg	100
1705.695	0.733	733.3	repeat	Run2	repeat/STIM_012.jpg	100
1710.212	1.0	1000.1	repeat	Run2	repeat/STIM_013.jpg	99
1713.365	0.583	583.2	repeat	Run2	repeat/STIM_013.jpg	100
1716.912	0.574	573.7	repeat	Run2	repeat/STIM_013.jpg	100
1720.871	0.998	997.6	repeat	Run2	repeat/STIM_013.jpg	99
1725.557	0.802	801.8	repeat	Run2	repeat/STIM_013.jpg	100
1728.614	1.072	1072.5	repeat	Run2	repeat/STIM_014.jpg	100
1732.011	0.578	577.8	repeat	Run2	repeat/STIM_014.jpg	99
1736.352	0.963	962.9	repeat	Run2	repeat/STIM_014.jpg	100
1739.624	1.109	1109.0	repeat	Run2	repeat/STIM_014.jpg	100
1743.097	1.047	1047.2	repeat	Run2	repeat/STIM_014.jpg	100
1746.014	1.909	1909.0	generate	Run3	generate/STIM_000.jpg	100
1750.872	2.168	2168.3	generate	Run3	generate/STIM_000.jpg	100
1755.715	1.572	1571.6	generate	Run3	generate/STIM_000.jpg	99
1759.425	2.083	2082.9	generate	Run3	generate/STIM_000.jpg	99
1764.946	1.652	1652.1	generate	Run3	generate/STIM_000.jpg	99
1770.398	1.654	1654.5	generate	Run3	generate/STIM_001.jpg	99
1775.506	1.265	1265.1	generate	Run3	generate/STIM_001.jpg	100
1779.23	2.183	2183.1	generate	Run3	generate/STIM_001.jpg	99
1784.756	1.739	1739.3	generate	Run3	generate/STIM_001.jpg	99
1788.594	1.592	1592.2	generate	Run3	generate/STIM_001.jpg	100
1792.313	1.95	1950.4	generate	Run3	generate/STIM_002.jpg	99
1796.532	2.057	2057.3	generate	Run3	generate/STIM_002.jpg	99
1800.486	1.42	1420.4	generate	Run3	generate/STIM_002.jpg	100
1803.756	1.296	1296.3	generate	Run3	generate/STIM_002.jpg	99
1807.146	2.177	2176.8	generate	Run3	generate/STIM_002.jpg	100
1812.99	1.898	1897.7	generate	Run3	generate/STIM_003.jpg	99
1816.829	2.123	2122.7	generate	Run3	generate/STIM_003.jpg	100
1821.852	1.562	1561.8	generate	Run3	generate/STIM_003.jpg	100
1826.193	1.666	1665.8	generate	Run3	generate/STIM_003.jpg	99
1831.596	1.431	1431.3	generate	Run3	generate/STIM_003.jpg	100
1835.396	2.084	2083.9	generate	Run3	generate/STIM_004.jpg	99
1840.14	1.74	1740.0	generate	Run3	generate/STIM_004.jpg	99
1843.951	2.105	2105.3	generate	Run3	generate/STIM_004.jpg	100
1848.273	1.958	1958.3	generate	Run3	generate/STIM_004.jpg	100
1852.645	1.024	1023.6	generate	Run3	generate/STIM_004.jpg	99
1855.766	2.361	2361.2	generate	Run3	generate/STIM_005.jpg	100
1860.573	2.141	2140.8	generate	Run3	generate/STIM_005.jpg	100
1865.883	2.433	2433.2	generate	Run3	generate/STIM_005.jpg	99
1870.362	2.353	2353.3	generate	Run3	generate/STIM_005.jpg	100
1875.374	1.376	1375.5	generate	Run3	generate/STIM_005.jpg	99
1878.722	1.09	1090.5	generate	Run3	generate/STIM_006.jpg	100
1882.014	1.832	1832.4	generate	Run3	generate/STIM_006.jpg	99
1885.713	1.225	1225.0	generate	Run3	generate/STIM_006.jpg	100
1888.968	1.307	1307.4	generate	Run3	generate/STIM_006.jpg	99
1892.966	2.374	2374.3	generate	Run3	generate/STIM_006.jpg	99
1898.453	2.387	2387.2	generate	Run3	generate/STIM_007.jpg	99
1903.713	1.086	1085.8	generate	Run3	generate/STIM_007.jpg	99
1908.443	2.248	2247.7	generate	Run3	generate/STIM_007.jpg	99
1914.176	1.586	1586.2	generate	Run3	generate/STIM_007.jpg	100
1919.143	1.707	1706.6	generate	Run3	generate/STIM_007.jpg	99
1922.638	2.088	2088.2	generate	Run3	generate/STIM_008.jpg	99
1927.914	1.485	1484.7	generate	Run3	generate/STIM_008.jpg	99
1931.885	1.094	1094.2	generate	Run3	generate/STIM_008.jpg	100
1934.952	1.664	1664.0	generate	Run3	generate/STIM_008.jpg	100
1940.173	1.367	1367.0	generate	Run3	generate/STIM_008.jpg	99
1945.109	1.665	1664.7	generate	Run3	generate/STIM_009.jpg	100
1949.189	1.664	1663.5	generate	Run3	generate/STIM_009.jpg	99
1952.781	1.248	1248.5	generate	Run3	generate/STIM_009.jpg	99
1956.765	1.784	1783.7	generate	Run3	generate/STIM_009.jpg	100
1961.913	1.461	1460.9	generate	Run3	generate/STIM_009.jpg	99
1967.018	1.758	1758.4	generate	Run3	generate/STIM_010.jpg	100
1970.646	1.757	1757.1	generate	Run3	generate/STIM_010.jpg	99
1974.798	1.111	1111.4	generate	Run3	generate/STIM_010.jpg	99
1979.589	1.025	1025.1	generate	Run3	generate/STIM_010.jpg	100
1983.952	1.855	1855.0	generate	Run3	generate/STIM_010.jpg	99
1987.91	1.619	1618.6	generate	Run3	generate/STIM_011.jpg	99
1991.251	1.088	1088.4	generate	Run3	generate/STIM_011.jpg	100
1995.127	1.036	1036.1	generate	Run3	generate/STIM_011.jpg	99
1998.601	2.179	2178.7	generate	Run3	generate/STIM_011.jpg	99
2004.071	2.356	2355.6	generate	Run3	generate/STIM_011.jpg	99
2008.259	1.708	1707.8	generate	Run3	generate/STIM_012.jpg	100
2012.048	1.274	1274.4	generate	Run3	generate/STIM_012.jpg	100
2016.331	2.103	2102.7	generate	Run3	generate/STIM_012.jpg	100
2021.237	1.927	1927.1	generate	Run3	generate/STIM_012.jpg	100
2025.344	1.069	1068.6	generate	Run3	generate/STIM_012.jpg	100
2029.534	1.456	1455.6	generate	Run3	generate/STIM_013.jpg	100
2033.63	2.003	2003.2	generate	Run3	generate/STIM_013.jpg	100
2038.127	1.938	1938.3	generate	Run3	generate/STIM_013.jpg	100
2043.689	1.094	1093.8	generate	Run3	generate/STIM_013.jpg	100
2047.484	1.195	1195.1	generate	Run3	generate/STIM_013.jpg	100
2051.159	1.134	1134.0	generate	Run3	generate/STIM_014.jpg	99
2056.155	1.612	1612.4	generate	Run3	generate/STIM_014.jpg	99
2060.417	1.788	1787.8	generate	Run3	generate/STIM_014.jpg	99
2065.713	1.563	1562.6	generate	Run3	generate/STIM_014.jpg	100
2071.021	1.822	1822.1	generate	Run3	generate/STIM_014.jpg	100
2075.663	1.028	1027.9	generate	Run3	generate/STIM_015.jpg	99
2079.166	1.281	1281.0	generate	Run3	generate/STIM_015.jpg	100
2082.962	1.171	1171.2	generate	Run3	generate/STIM_015.jpg	99
2087.31	1.619	1619.2	generate	Run3	generate/STIM_015.jpg	100
2092.185	1.968	1968.2	generate	Run3	generate/STIM_015.jpg	99
2096.549	1.887	1887.4	generate	Run3	generate/STIM_016.jpg	100
2101.147	2.109	2109.4	generate	Run3	generate/STIM_016.jpg	100
2105.595	2.114	2113.6	generate	Run3	generate/STIM_016.jpg	99
2110.351	2.211	2211.3	generate	Run3	generate/STIM_016.jpg	99
2114.898	1.217	1216.6	generate	Run3	generate/STIM_016.jpg	99
2118.392	1.669	1668.6	generate	Run3	generate/STIM_017.jpg	100
2123.598	1.205	1205.1	generate	Run3	generate/STIM_017.jpg	100
2127.26	2.026	2025.8	generate	Run3	generate/STIM_017.jpg	100
2131.297	1.53	1529.9	generate	Run3	generate/STIM_017.jpg	100
2135.918	1.156	1155.9	generate	Run3	generate/STIM_017.jpg	99
2139.778	1.736	1736.3	generate	Run3	generate/STIM_018.jpg	99
2144.784	2.266	2265.7	generate	Run3	generate/STIM_018.jpg	100
2149.512	2.238	2237.9	generate	Run3	generate/STIM_018.jpg	100
2153.738	1.813	1813.2	generate	Run3	generate/STIM_018.jpg	99
2159.286	1.62	1620.4	generate	Run3	generate/STIM_018.jpg	100
2163.817	2.25	2249.6	generate	Run3	generate/STIM_019.jpg	100
2167.904	1.129	1129.2	generate	Run3	generate/STIM_019.jpg	99
2171.251	1.307	1306.6	generate	Run3	generate/STIM_019.jpg	99
2176.096	1.63	1629.8	generate	Run3	generate/STIM_019.jpg	100
2180.854	2.309	2308.9	generate	Run3	generate/STIM_019.jpg	100
2186.3	2.378	2378.2	generate	Run3	generate/STIM_020.jpg	99
2191.69	2.269	2269.3	generate	Run3	generate/STIM_020.jpg	99
2197.605	2.26	2260.3	generate	Run3	generate/STIM_020.jpg	100
2202.931	1.2	1199.5	generate	Run3	generate/STIM_020.jpg	99
2207.364	2.183	2182.8	generate	Run3	generate/STIM_020.jpg	99
2212.603	2.239	2238.7	generate	Run3	generate/STIM_021.jpg	100
2218.014	2.052	2052.0	generate	Run3	generate/STIM_021.jpg	99
2222.97	1.342	1342.2	generate	Run3	generate/STIM_021.jpg	99
2227.678	1.87	1870.4	generate	Run3	generate/STIM_021.jpg	100
2231.499	2.05	2049.5	generate	Run3	generate/STIM_021.jpg	100
2235.697	1.024	1023.5	generate	Run3	generate/STIM_022.jpg	100
2239.028	1.727	1726.7	generate	Run3	generate/STIM_022.jpg	99
2243.53	1.991	1990.9	generate	Run3	generate/STIM_022.jpg	99
2248.639	1.359	1358.8	generate	Run3	generate/STIM_022.jpg	100
2253.636	1.301	1301.1	generate	Run3	generate/STIM_022.jpg	99
2258.023	2.302	2302.1	generate	Run3	generate/STIM_023.jpg	100
2263.877	2.125	2125.1	generate	Run3	generate/STIM_023.jpg	100
2268.483	1.267	1266.7	generate	Run3	generate/STIM_023.jpg	100
2273.017	2.177	2177.4	generate	Run3	generate/STIM_023.jpg	99
2278.895	2.24	2239.8	generate	Run3	generate/STIM_023.jpg	100
2283.543	1.895	1894.9	generate	Run3	generate/STIM_024.jpg	99
2288.748	2.025	2025.0	generate	Run3	generate/STIM_024.jpg	100
2294.1	1.113	1112.6	generate	Run3	generate/STIM_024.jpg	99
2298.863	1.852	1852.0	generate	Run3	generate/STIM_024.jpg	99
2303.515	1.814	1814.5	generate	Run3	generate/STIM_024.jpg	100
2307.714	0.865	865.0	repeat	Run3	repeat/STIM_000.jpg	99
2310.49	0.709	708.7	repeat	Run3	repeat/STIM_000.jpg	99
2315.118	0.57	569.5	repeat	Run3	repeat/STIM_000.jpg	100
2318.912	1.064	1063.6	repeat	Run3	repeat/STIM_000.jpg	100
2322.121	0.992	992.3	repeat	Run3	repeat/STIM_000.jpg	100
2325.476	0.545	544.6	repeat	Run3	repeat/STIM_001.jpg	99
2328.812	0.941	941.4	repeat	Run3	repeat/STIM_001.jpg	100
2332.903	1.05	1049.7	repeat	Run3	repeat/STIM_001.jpg	99
2336.023	0.818	817.9	repeat	Run3	repeat/STIM_001.jpg	99
2340.371	0.744	743.5	repeat	Run3	repeat/STIM_001.jpg	99
2344.564	0.646	645.6	repeat	Run3	repeat/STIM_002.jpg	99
2348.093	0.81	809.7	repeat	Run3	repeat/STIM_002.jpg	100
2352.192	1.099	1098.8	repeat	Run3	repeat/STIM_002.jpg	99
2356.92	0.587	587.1	repeat	Run3	repeat/STIM_002.jpg	99
2359.594	0.885	885.3	repeat	Run3	repeat/STIM_002.jpg	100
2363.637	0.946	946.1	repeat	Run3	repeat/STIM_003.jpg	99
2366.975	0.792	791.6	repeat	Run3	repeat/STIM_003.jpg	100
2369.863	0.918	917.9	repeat	Run3	repeat/STIM_003.jpg	100
2373.711	0.678	677.8	repeat	Run3	repeat/STIM_003.jpg	99
2376.935	0.762	762.3	repeat	Run3	repeat/STIM_003.jpg	99
2381.196	0.884	884.5	repeat	Run3	repeat/STIM_004.jpg	99
2385.304	0.926	926.2	repeat	Run3	repeat/STIM_004.jpg	100
2389.159	0.854	853.6	repeat	Run3	repeat/STIM_004.jpg	100
2393.515	0.592	591.7	repeat	Run3	repeat/STIM_004.jpg	99
2397.418	0.666	665.9	repeat	Run3	repeat/STIM_004.jpg	100
2401.209	0.822	821.9	repeat	Run3	repeat/STIM_005.jpg	100
2405.848	0.625	625.1	repeat	Run3	repeat/STIM_005.jpg	100
2408.935	0.992	992.4	repeat	Run3	repeat/STIM_005.jpg	99
2413.775	0.825	824.8	repeat	Run3	repeat/STIM_005.jpg	100
2417.079	0.736	735.8	repeat	Run3	repeat/STIM_005.jpg	100
2421.561	0.654	653.8	repeat	Run3	repeat/STIM_006.jpg	99
2424.589	0.618	617.6	repeat	Run3	repeat/STIM_006.jpg	99
2428.444	1.08	1080.0	repeat	Run3	repeat/STIM_006.jpg	100
2431.574	1.002	1001.8	repeat	Run3	repeat/STIM_006.jpg	100
2435.841	0.699	698.7	repeat	Run3	repeat/STIM_006.jpg	100
2438.842	0.744	744.0	repeat	Run3	repeat/STIM_007.jpg	99
2442.204	1.156	1155.8	repeat	Run3	repeat/STIM_007.jpg	99
2445.882	0.659	658.9	repeat	Run3	repeat/STIM_007.jpg	99
2449.847	1.152	1152.4	repeat	Run3	repeat/STIM_007.jpg	99
2454.766	0.672	671.8	repeat	Run3	repeat/STIM_007.jpg	100
2458.536	0.883	883.4	repeat	Run3	repeat/STIM_008.jpg	99
2462.682	0.735	734.9	repeat	Run3	repeat/STIM_008.jpg	99
2467.217	0.973	973.3	repeat	Run3	repeat/STIM_008.jpg	99
2471.612	0.65	650.2	repeat	Run3	repeat/STIM_008.jpg	100
2475.42	0.746	745.5	repeat	Run3	repeat/STIM_008.jpg	100
2480.033	1.102	1101.5	repeat	Run3	repeat/STIM_009.jpg	99
2485.003	1.142	1142.2	repeat	Run3	repeat/STIM_009.jpg	99
2489.191	0.791	791.1	repeat	Run3	repeat/STIM_009.jpg	99
2493.428	1.168	1167.6	repeat	Run3	repeat/STIM_009.jpg	100
2498.156	0.974	974.0	repeat	Run3	repeat/STIM_009.jpg	100
2502.447	1.163	1163.2	repeat	Run3	repeat/STIM_010.jpg	99
2505.724	0.841	841.2	repeat	Run3	repeat/STIM_010.jpg	99
2508.742	0.638	638.4	repeat	Run3	repeat/STIM_010.jpg	99
2511.345	0.96	960.2	repeat	Run3	repeat/STIM_010.jpg	99
2516.079	0.907	907.1	repeat	Run3	repeat/STIM_010.jpg	99
2520.065	0.611	611.3	repeat	Run3	repeat/STIM_011.jpg	99
2523.283	0.94	940.2	repeat	Run3	repeat/STIM_011.jpg	100
2527.178	0.812	811.8	repeat	Run3	repeat/STIM_011.jpg	99
2530.866	0.826	826.1	repeat	Run3	repeat/STIM_011.jpg	99
2534.212	0.656	656.2	repeat	Run3	repeat/STIM_011.jpg	99
2537.284	1.194	1193.9	repeat	Run3	repeat/STIM_012.jpg	100
2541.11	0.615	614.9	repeat	Run3	repeat/STIM_012.jpg	99
2543.981	1.03	1029.7	repeat	Run3	repeat/STIM_012.jpg	100
2548.324	0.911	911.3	repeat	Run3	repeat/STIM_012.jpg	99
2553.006	0.68	680.1	repeat	Run3	repeat/STIM_012.jpg	100
2556.832	0.867	867.0	repeat	Run3	repeat/STIM_013.jpg	100
2560.516	1.085	1085.3	repeat	Run3	repeat/STIM_013.jpg	100
2564.566	1.049	1048.8	repeat	Run3	repeat/STIM_013.jpg	99
2568.128	0.743	742.9	repeat	Run3	repeat/STIM_013.jpg	100
2571.586	0.602	602.1	repeat	Run3	repeat/STIM_013.jpg	99
2576.064	0.796	795.7	repeat	Run3	repeat/STIM_014.jpg	100
2580.406	0.994	993.7	repeat	Run3	repeat/STIM_014.jpg	100
2583.699	1.192	1191.8	repeat	Run3	repeat/STIM_014.jpg	100
2587.758	1.086	1086.4	repeat	Run3	repeat/STIM_014.jpg	100
2591.709	0.973	973.0	repeat	Run3	repeat/STIM_014.jpg	100
2595.523	1.35	1350.5	generate	Run4	generate/STIM_000.jpg	99
2598.866	1.406	1405.7	generate	Run4	generate/STIM_000.jpg	100
2603.325	2.368	2367.7	generate	Run4	generate/STIM_000.jpg	99
2609.3	2.172	2171.5	generate	Run4	generate/STIM_000.jpg	100
2613.533	2.268	2268.4	generate	Run4	generate/STIM_000.jpg	100
2618.109	1.935	1935.0	generate	Run4	generate/STIM_001.jpg	100
2622.142	2.079	2079.3	generate	Run4	generate/STIM_001.jpg	100
2627.801	1.173	1172.9	generate	Run4	generate/STIM_001.jpg	99
2630.948	2.142	2141.7	generate	Run4	generate/STIM_001.jpg	100
2635.892	1.228	1227.8	generate	Run4	generate/STIM_001.jpg	100
2639.778	1.923	1923.2	generate	Run4	generate/STIM_002.jpg	100
2644.447	0.986	986.3	generate	Run4	generate/STIM_002.jpg	99
2647.509	2.538	2538.0	generate	Run4	generate/STIM_002.jpg	100
2653.145	1.512	1511.6	generate	Run4	generate/STIM_002.jpg	99
2657.42	1.663	1662.6	generate	Run4	generate/STIM_002.jpg	99
2661.417	1.006	1005.7	generate	Run4	generate/STIM_003.jpg	100
2666.252	1.077	1076.9	generate	Run4	generate/STIM_003.jpg	100
2670.3	2.176	2175.5	generate	Run4	generate/STIM_003.jpg	100
2675.287	1.725	1725.3	generate	Run4	generate/STIM_003.jpg	100
2679.34	2.511	2510.8	generate	Run4	generate/STIM_003.jpg	100
2684.366	1.128	1128.3	generate	Run4	generate/STIM_004.jpg	99
2689.27	2.036	2035.6	generate	Run4	generate/STIM_004.jpg	99
2694.385	2.363	2362.7	generate	Run4	generate/STIM_004.jpg	100
2699.507	1.877	1877.2	generate	Run4	generate/STIM_004.jpg	100
2703.639	1.61	1610.1	generate	Run4	generate/STIM_004.jpg	100
2707.713	2.184	2184.5	generate	Run4	generate/STIM_005.jpg	100
2712.761	2.289	2289.2	generate	Run4	generate/STIM_005.jpg	100
2717.397	2.09	2090.3	generate	Run4	generate/STIM_005.jpg	100
2723.086	1.634	1633.8	generate	Run4	generate/STIM_005.jpg	100
2727.27	2.182	2182.5	generate	Run4	generate/STIM_005.jpg	99
2732.973	0.962	961.7	generate	Run4	generate/STIM_006.jpg	100
2736.942	1.178	1178.3	generate	Run4	generate/STIM_006.jpg	100
2741.87	2.223	2222.9	generate	Run4	generate/STIM_006.jpg	99
2747.501	2.234	2233.7	generate	Run4	generate/STIM_006.jpg	99
2753.057	1.208	1207.9	generate	Run4	generate/STIM_006.jpg	100
2756.58	2.292	2291.9	generate	Run4	generate/STIM_007.jpg	100
2762.067	1.432	1431.6	generate	Run4	generate/STIM_007.jpg	100
2767.328	2.408	2408.1	generate	Run4	generate/STIM_007.jpg	99
2771.637	1.345	1344.8	generate	Run4	generate/STIM_007.jpg	99
2774.837	1.636	1636.0	generate	Run4	generate/STIM_007.jpg	100
2778.683	2.034	2033.6	generate	Run4	generate/STIM_008.jpg	100
2783.699	2.195	2194.9	generate	Run4	generate/STIM_008.jpg	100
2788.017	1.511	1511.3	generate	Run4	generate/STIM_008.jpg	99
2793.116	1.36	1359.5	generate	Run4	generate/STIM_008.jpg	99
2797.559	2.229	2229.1	generate	Run4	generate/STIM_008.jpg	100
2801.549	2.216	2215.9	generate	Run4	generate/STIM_009.jpg	100
2807.237	2.249	2249.3	generate	Run4	generate/STIM_009.jpg	99
2811.405	1.83	1829.8	generate	Run4	generate/STIM_009.jpg	99
2815.81	2.371	2371.1	generate	Run4	generate/STIM_009.jpg	100
2820.825	2.179	2178.8	generate	Run4	generate/STIM_009.jpg	100
2825.25	1.223	1222.6	generate	Run4	generate/STIM_010.jpg	99
2829.026	1.674	1674.2	generate	Run4	generate/STIM_010.jpg	99
2833.674	1.496	1496.0	generate	Run4	generate/STIM_010.jpg	100
2838.23	1.129	1129.0	generate	Run4	generate/STIM_010.jpg	100
2842.34	1.745	1744.9	generate	Run4	generate/STIM_010.jpg	99
2845.909	1.443	1443.4	generate	Run4	generate/STIM_011.jpg	100
2849.435	1.38	1379.6	generate	Run4	generate/STIM_011.jpg	100
2853.788	1.171	1170.8	generate	Run4	generate/STIM_011.jpg	100
2857.707	1.667	1666.7	generate	Run4	generate/STIM_011.jpg	99
2862.294	1.222	1221.7	generate	Run4	generate/STIM_011.jpg	100
2865.92	1.571	1570.6	generate	Run4	generate/STIM_012.jpg	100
2869.628	2.095	2095.1	generate	Run4	generate/STIM_012.jpg	100
2875.213	2.121	2120.9	generate	Run4	generate/STIM_012.jpg	99
2879.492	1.226	1226.3	generate	Run4	generate/STIM_012.jpg	99
2884.102	2.417	2416.6	generate	Run4	generate/STIM_012.jpg	99
2889.629	1.329	1328.6	generate	Run4	generate/STIM_013.jpg	99
2892.867	1.492	1491.7	generate	Run4	generate/STIM_013.jpg	99
2897.616	1.608	1607.8	generate	Run4	generate/STIM_013.jpg	99
2901.277	1.694	1693.6	generate	Run4	generate/STIM_013.jpg	100
2904.733	1.973	1972.8	generate	Run4	generate/STIM_013.jpg	100
2909.093	2.077	2076.8	generate	Run4	generate/STIM_014.jpg	100
2912.877	2.281	2280.8	generate	Run4	generate/STIM_014.jpg	100
2917.653	1.54	1540.0	generate	Run4	generate/STIM_014.jpg	100
2921.935	1.644	1644.5	generate	Run4	generate/STIM_014.jpg	99
2926.437	1.092	1091.7	generate	Run4	generate/STIM_014.jpg	100
2930.101	1.56	1559.9	generate	Run4	generate/STIM_015.jpg	99
2934.635	1.32	1320.0	generate	Run4	generate/STIM_015.jpg	100
2938.311	1.562	1562.2	generate	Run4	generate/STIM_015.jpg	99
2942.324	1.789	1789.2	generate	Run4	generate/STIM_015.jpg	99
2946.75	1.107	1107.1	generate	Run4	generate/STIM_015.jpg	99
2950.302	1.204	1203.9	generate	Run4	generate/STIM_016.jpg	99
2955.131	2.27	2269.5	generate	Run4	generate/STIM_016.jpg	100
2960.859	2.299	2299.1	generate	Run4	generate/STIM_016.jpg	99
2965.731	2.195	2195.1	generate	Run4	generate/STIM_016.jpg	100
2970.968	1.667	1667.2	generate	Run4	generate/STIM_016.jpg	100
2975.746	2.229	2228.9	generate	Run4	generate/STIM_017.jpg	100
2981.014	1.67	1669.9	generate	Run4	generate/STIM_017.jpg	99
2986.259	2.141	2141.1	generate	Run4	generate/STIM_017.jpg	99
2991.609	1.547	1546.8	generate	Run4	generate/STIM_017.jpg	100
2995.653	2.202	2201.8	generate	Run4	generate/STIM_017.jpg	99
2999.616	2.14	2140.0	generate	Run4	generate/STIM_018.jpg	99
3004.228	1.249	1248.6	generate	Run4	generate/STIM_018.jpg	100
3008.869	1.207	1207.1	generate	Run4	generate/STIM_018.jpg	99
3012.851	2.045	2045.4	generate	Run4	generate/STIM_018.jpg	99
3017.932	1.426	1425.9	generate	Run4	generate/STIM_018.jpg	99
3021.683	1.001	1000.7	generate	Run4	generate/STIM_019.jpg	100
3025.595	1.62	1619.5	generate	Run4	generate/STIM_019.jpg	100
3030.993	1.646	1646.0	generate	Run4	generate/STIM_019.jpg	99
3035.5	1.646	1646.2	generate	Run4	generate/STIM_019.jpg	100
3040.197	2.299	2299.4	generate	Run4	generate/STIM_019.jpg	99
3045.656	2.35	2350.1	generate	Run4	generate/STIM_020.jpg	99
3050.653	2.14	2140.3	generate	Run4	generate/STIM_020.jpg	99
3056.185	1.534	1534.2	generate	Run4	generate/STIM_020.jpg	100
3061.397	1.429	1428.9	generate	Run4	generate/STIM_020.jpg	99
3064.821	1.895	1895.4	generate	Run4	generate/STIM_020.jpg	99
3070.28	1.337	1337.0	generate	Run4	generate/STIM_021.jpg	100
3073.735	1.045	1045.1	generate	Run4	generate/STIM_021.jpg	99
3076.829	1.453	1453.1	generate	Run4	generate/STIM_021.jpg	99
3080.985	2.33	2329.9	generate	Run4	generate/STIM_021.jpg	100
3086.41	1.107	1107.2	generate	Run4	generate/STIM_021.jpg	99
3089.821	1.773	1773.4	generate	Run4	generate/STIM_022.jpg	99
3094.386	1.152	1151.8	generate	Run4	generate/STIM_022.jpg	99
3098.084	1.361	1361.2	generate	Run4	generate/STIM_022.jpg	100
3103.091	2.374	2373.9	generate	Run4	generate/STIM_022.jpg	100
3108.213	1.443	1443.0	generate	Run4	generate/STIM_022.jpg	99
3112.585	2.02	2019.9	generate	Run4	generate/STIM_023.jpg	99
3116.613	1.136	1136.3	generate	Run4	generate/STIM_023.jpg	100
3121.317	2.365	2365.1	generate	Run4	generate/STIM_023.jpg	99
3125.557	1.665	1664.8	generate	Run4	generate/STIM_023.jpg	100
3130.373	1.077	1077.2	generate	Run4	generate/STIM_023.jpg	100
3135.239	1.88	1880.2	generate	Run4	generate/STIM_024.jpg	100
3140.264	2.207	2206.6	generate	Run4	generate/STIM_024.jpg	100
3144.835	1.279	1279.4	generate	Run4	generate/STIM_024.jpg	99
3149.494	1.225	1224.7	generate	Run4	generate/STIM_024.jpg	99
3153.207	2.093	2092.6	generate	Run4	generate/STIM_024.jpg	99
3158.83	0.945	944.6	repeat	Run4	repeat/STIM_000.jpg	100
3162.475	1.022	1021.9	repeat	Run4	repeat/STIM_000.jpg	99
3165.416	1.086	1085.7	repeat	Run4	repeat/STIM_000.jpg	100
3170.094	0.934	933.6	repeat	Run4	repeat/STIM_000.jpg	99
3173.774	0.554	553.7	repeat	Run4	repeat/STIM_000.jpg	99
3176.964	1.227	1227.4	repeat	Run4	repeat/STIM_001.jpg	99
3181.157	0.957	956.8	repeat	Run4	repeat/STIM_001.jpg	100
3184.471	0.937	937.4	repeat	Run4	repeat/STIM_001.jpg	100
3188.002	0.827	826.9	repeat	Run4	repeat/STIM_001.jpg	100
3192.248	1.023	1022.6	repeat	Run4	repeat/STIM_001.jpg	99
3195.968	0.946	946.4	repeat	Run4	repeat/STIM_002.jpg	100
3199.802	1.142	1142.5	repeat	Run4	repeat/STIM_002.jpg	99
3203.296	0.676	676.5	repeat	Run4	repeat/STIM_002.jpg	100
3207.405	0.672	672.0	repeat	Run4	repeat/STIM_002.jpg	100
3210.659	0.653	653.4	repeat	Run4	repeat/STIM_002.jpg	99
3214.158	0.686	685.5	repeat	Run4	repeat/STIM_003.jpg	99
3218.601	0.582	581.9	repeat	Run4	repeat/STIM_003.jpg	100
3222.328	0.985	985.2	repeat	Run4	repeat/STIM_003.jpg	99
3225.495	1.048	1047.6	repeat	Run4	repeat/STIM_003.jpg	100
3228.937	0.796	795.5	repeat	Run4	repeat/STIM_003.jpg	100
3231.626	1.141	1141.4	repeat	Run4	repeat/STIM_004.jpg	99
3235.678	0.79	790.0	repeat	Run4	repeat/STIM_004.jpg	100
3240.069	0.797	796.6	repeat	Run4	repeat/STIM_004.jpg	100
3243.672	0.94	939.9	repeat	Run4	repeat/STIM_004.jpg	100
3246.801	1.086	1085.5	repeat	Run4	repeat/STIM_004.jpg	100
3251.751	0.833	833.0	repeat	Run4	repeat/STIM_005.jpg	99
3255.148	0.701	700.6	repeat	Run4	repeat/STIM_005.jpg	100
3258.559	1.054	1054.0	repeat	Run4	repeat/STIM_005.jpg	100
3262.627	1.018	1017.7	repeat	Run4	repeat/STIM_005.jpg	99
3266.391	0.951	950.7	repeat	Run4	repeat/STIM_005.jpg	99
3271.137	1.175	1175.1	repeat	Run4	repeat/STIM_006.jpg	100
3274.382	0.706	706.0	repeat	Run4	repeat/STIM_006.jpg	99
3277.921	0.698	698.3	repeat	Run4	repeat/STIM_006.jpg	99
3282.099	0.76	759.6	repeat	Run4	repeat/STIM_006.jpg	99
3285.388	1.098	1098.2	repeat	Run4	repeat/STIM_006.jpg	100
3289.544	0.969	969.3	repeat	Run4	repeat/STIM_007.jpg	100
3292.83	0.558	558.0	repeat	Run4	repeat/STIM_007.jpg	99
3295.401	1.016	1015.9	repeat	Run4	repeat/STIM_007.jpg	99
3298.506	0.65	650.0	repeat	Run4	repeat/STIM_007.jpg	99
3303.054	0.778	778.2	repeat	Run4	repeat/STIM_007.jpg	100
3307.705	1.228	1227.8	repeat	Run4	repeat/STIM_008.jpg	100
3311.791	0.872	871.5	repeat	Run4	repeat/STIM_008.jpg	99
3315.344	1.108	1107.9	repeat	Run4	repeat/STIM_008.jpg	100
3320.279	0.694	693.8	repeat	Run4	repeat/STIM_008.jpg	100
3323.174	0.732	731.6	repeat	Run4	repeat/STIM_008.jpg	100
3325.865	0.65	649.5	repeat	Run4	repeat/STIM_009.jpg	99
3330.155	0.748	747.6	repeat	Run4	repeat/STIM_009.jpg	99
3333.6	1.026	1025.5	repeat	Run4	repeat/STIM_009.jpg	99
3336.544	0.813	812.6	repeat	Run4	repeat/STIM_009.jpg	100
3340.426	0.755	754.6	repeat	Run4	repeat/STIM_009.jpg	99
3344.596	1.047	1046.8	repeat	Run4	repeat/STIM_010.jpg	100
3347.471	0.703	703.0	repeat	Run4	repeat/STIM_010.jpg	99
3352.033	0.696	696.4	repeat	Run4	repeat/STIM_010.jpg	100
3354.728	0.938	937.7	repeat	Run4	repeat/STIM_010.jpg	100
3358.108	0.704	703.6	repeat	Run4	repeat/STIM_010.jpg	100
3361.456	0.75	750.1	repeat	Run4	repeat/STIM_011.jpg	100
3365.413	0.696	696.2	repeat	Run4	repeat/STIM_011.jpg	99
3368.963	0.763	762.7	repeat	Run4	repeat/STIM_011.jpg	100
3373.566	0.945	945.4	repeat	Run4	repeat/STIM_011.jpg	99
3377.974	1.141	1141.1	repeat	Run4	repeat/STIM_011.jpg	99
3381.965	1.031	1031.1	repeat	Run4	repeat/STIM_012.jpg	100
3386.358	0.601	600.9	repeat	Run4	repeat/STIM_012.jpg	99
3389.406	0.717	716.6	repeat	Run4	repeat/STIM_012.jpg	99
3393.404	0.837	837.4	repeat	Run4	repeat/STIM_012.jpg	99
3396.914	0.648	647.7	repeat	Run4	repeat/STIM_012.jpg	100
3400.89	0.706	705.7	repeat	Run4	repeat/STIM_013.jpg	100
3404.057	0.662	662.2	repeat	Run4	repeat/STIM_013.jpg	99
3407.648	0.906	905.7	repeat	Run4	repeat/STIM_013.jpg	100
3410.726	0.798	797.6	repeat	Run4	repeat/STIM_013.jpg	100
3415.275	1.101	1100.6	repeat	Run4	repeat/STIM_013.jpg	100
3420.018	0.991	990.9	repeat	Run4	repeat/STIM_014.jpg	99
3424.054	0.757	756.8	repeat	Run4	repeat/STIM_014.jpg	99
3427.843	0.792	792.1	repeat	Run4	repeat/STIM_014.jpg	100
3432.346	1.01	1009.8	repeat	Run4	repeat/STIM_014.jpg	100
3436.165	0.792	791.7	repeat	Run4	repeat/STIM_014.jpg	100
