onset	duration	accuracy	trial_type	learning_stage	stimulus
0.0	1.26	incorrect	generate	Run1	generate/STIM_000.jpg
3.722	1.246	incorrect	generate	Run1	generate/STIM_000.jpg
7.046	2.499	incorrect	generate	Run1	generate/STIM_000.jpg
12.87	2.096	correct	generate	Run1	generate/STIM_000.jpg
17.465	1.277	correct	generate	Run1	generate/STIM_000.jpg
21.639	2.706	correct	generate	Run1	generate/STIM_001.jpg
28.341	1.726	incorrect	generate	Run1	generate/STIM_001.jpg
32.31	1.855	correct	generate	Run1	generate/STIM_001.jpg
36.279	0.985	correct	generate	Run1	generate/STIM_001.jpg
39.338	1.108	correct	generate	Run1	generate/STIM_001.jpg
42.961	1.203	incorrect	generate	Run1	generate/STIM_002.jpg
46.434	1.704	correct	generate	Run1	generate/STIM_002.jpg
52.098	1.92	correct	generate	Run1	generate/STIM_002.jpg
57.096	1.649	correct	generate	Run1	generate/STIM_002.jpg
60.882	1.179	incorrect	generate	Run1	generate/STIM_002.jpg
64.09	1.414	correct	generate	Run1	generate/STIM_003.jpg
67.531	2.245	correct	generate	Run1	generate/STIM_003.jpg
73.381	1.709	correct	generate	Run1	generate/STIM_003.jpg
78.456	1.45	incorrect	generate	Run1	generate/STIM_003.jpg
82.634	1.118	correct	generate	Run1	generate/STIM_003.jpg
86.95	1.501	correct	generate	Run1	generate/STIM_004.jpg
90.692	1.504	correct	generate	Run1	generate/STIM_004.jpg
94.709	1.27	correct	generate	Run1	generate/STIM_004.jpg
99.093	2.275	incorrect	generate	Run1	generate/STIM_004.jpg
104.672	1.264	correct	generate	Run1	generate/STIM_004.jpg
108.826	1.864	correct	generate	Run1	generate/STIM_005.jpg
113.198	2.376	correct	generate	Run1	generate/STIM_005.jpg
119.301	1.108	correct	generate	Run1	generate/STIM_005.jpg
122.857	1.828	correct	generate	Run1	generate/STIM_005.jpg
128.035	1.709	correct	generate	Run1	generate/STIM_005.jpg
133.03	1.753	correct	generate	Run1	generate/STIM_006.jpg
138.666	2.517	correct	generate	Run1	generate/STIM_006.jpg
144.675	1.431	correct	generate	Run1	generate/STIM_006.jpg
148.616	2.283	correct	generate	Run1	generate/STIM_006.jpg
153.295	2.105	correct	generate	Run1	generate/STIM_006.jpg
157.771	1.823	incorrect	generate	Run1	generate/STIM_007.jpg
161.621	1.154	correct	generate	Run1	generate/STIM_007.jpg
166.145	2.228	correct	generate	Run1	generate/STIM_007.jpg
170.862	1.082	correct	generate	Run1	generate/STIM_007.jpg
174.338	2.244	correct	generate	Run1	generate/STIM_007.jpg
178.715	2.164	correct	generate	Run1	generate/STIM_008.jpg
184.024	1.423	correct	generate	Run1	generate/STIM_008.jpg
188.843	1.564	correct	generate	Run1	generate/STIM_008.jpg
192.903	0.964	correct	generate	Run1	generate/STIM_008.jpg
197.242	2.194	correct	generate	Run1	generate/STIM_008.jpg
202.81	1.82	correct	generate	Run1	generate/STIM_009.jpg
207.547	2.454	correct	generate	Run1	generate/STIM_009.jpg
213.207	1.854	correct	generate	Run1	generate/STIM_009.jpg
217.628	2.176	correct	generate	Run1	generate/STIM_009.jpg
221.921	1.021	correct	generate	Run1	generate/STIM_009.jpg
226.357	2.276	correct	generate	Run1	generate/STIM_010.jpg
230.723	1.153	correct	generate	Run1	generate/STIM_010.jpg
235.807	1.456	correct	generate	Run1	generate/STIM_010.jpg
240.662	1.673	correct	generate	Run1	generate/STIM_010.jpg
244.866	1.14	correct	generate	Run1	generate/STIM_010.jpg
248.778	2.46	correct	generate	Run1	generate/STIM_011.jpg
253.275	1.766	correct	generate	Run1	generate/STIM_011.jpg
258.954	1.105	correct	generate	Run1	generate/STIM_011.jpg
262.316	2.319	incorrect	generate	Run1	generate/STIM_011.jpg
267.101	2.192	incorrect	generate	Run1	generate/STIM_011.jpg
272.536	2.028	incorrect	generate	Run1	generate/STIM_012.jpg
278.398	2.625	incorrect	generate	Run1	generate/STIM_012.jpg
283.655	1.455	correct	generate	Run1	generate/STIM_012.jpg
287.497	1.0	correct	generate	Run1	generate/STIM_012.jpg
291.395	1.698	correct	generate	Run1	generate/STIM_012.jpg
296.389	1.41	correct	generate	Run1	generate/STIM_013.jpg
300.757	1.501	correct	generate	Run1	generate/STIM_013.jpg
305.58	1.276	correct	generate	Run1	generate/STIM_013.jpg
310.775	2.154	correct	generate	Run1	generate/STIM_013.jpg
315.049	1.113	incorrect	generate	Run1	generate/STIM_013.jpg
318.639	1.193	incorrect	generate	Run1	generate/STIM_014.jpg
323.095	2.243	correct	generate	Run1	generate/STIM_014.jpg
329.245	1.754	incorrect	generate	Run1	generate/STIM_014.jpg
333.638	2.225	incorrect	generate	Run1	generate/STIM_014.jpg
339.261	1.392	correct	generate	Run1	generate/STIM_014.jpg
343.452	1.865	correct	generate	Run1	generate/STIM_015.jpg
348.582	2.243	correct	generate	Run1	generate/STIM_015.jpg
353.05	1.236	correct	generate	Run1	generate/STIM_015.jpg
358.103	1.398	incorrect	generate	Run1	generate/STIM_015.jpg
363.269	2.065	correct	generate	Run1	generate/STIM_015.jpg
368.409	2.336	correct	generate	Run1	generate/STIM_016.jpg
373.934	1.394	correct	generate	Run1	generate/STIM_016.jpg
379.019	1.829	correct	generate	Run1	generate/STIM_016.jpg
384.175	1.836	correct	generate	Run1	generate/STIM_016.jpg
388.83	1.748	correct	generate	Run1	generate/STIM_016.jpg
393.64	1.272	correct	generate	Run1	generate/STIM_017.jpg
398.365	1.714	correct	generate	Run1	generate/STIM_017.jpg
403.859	2.346	incorrect	generate	Run1	generate/STIM_017.jpg
408.217	1.22	incorrect	generate	Run1	generate/STIM_017.jpg
412.281	1.049	incorrect	generate	Run1	generate/STIM_017.jpg
416.225	1.619	incorrect	generate	Run1	generate/STIM_018.jpg
421.744	1.319	correct	generate	Run1	generate/STIM_018.jpg
426.562	2.327	correct	generate	Run1	generate/STIM_018.jpg
432.571	2.161	correct	generate	Run1	generate/STIM_018.jpg
438.453	1.747	correct	generate	Run1	generate/STIM_018.jpg
443.634	2.052	correct	generate	Run1	generate/STIM_019.jpg
449.584	1.14	correct	generate	Run1	generate/STIM_019.jpg
453.136	2.012	correct	generate	Run1	generate/STIM_019.jpg
457.751	1.355	correct	generate	Run1	generate/STIM_019.jpg
462.499	0.912	incorrect	generate	Run1	generate/STIM_019.jpg
465.851	1.465	incorrect	generate	Run1	generate/STIM_020.jpg
471.271	1.683	correct	generate	Run1	generate/STIM_020.jpg
475.05	2.06	correct	generate	Run1	generate/STIM_020.jpg
481.097	2.388	incorrect	generate	Run1	generate/STIM_020.jpg
485.928	0.934	correct	generate	Run1	generate/STIM_020.jpg
488.913	2.398	correct	generate	Run1	generate/STIM_021.jpg
493.56	1.47	correct	generate	Run1	generate/STIM_021.jpg
498.978	1.934	correct	generate	Run1	generate/STIM_021.jpg
504.581	1.834	correct	generate	Run1	generate/STIM_021.jpg
509.332	0.935	incorrect	generate	Run1	generate/STIM_021.jpg
513.928	1.752	correct	generate	Run1	generate/STIM_022.jpg
518.276	1.101	correct	generate	Run1	generate/STIM_022.jpg
521.903	2.099	incorrect	generate	Run1	generate/STIM_022.jpg
527.35	1.807	correct	generate	Run1	generate/STIM_022.jpg
531.67	1.142	correct	generate	Run1	generate/STIM_022.jpg
536.007	1.573	incorrect	generate	Run1	generate/STIM_023.jpg
541.093	2.228	incorrect	generate	Run1	generate/STIM_023.jpg
545.577	2.327	correct	generate	Run1	generate/STIM_023.jpg
550.537	2.268	correct	generate	Run1	generate/STIM_023.jpg
555.484	2.186	incorrect	generate	Run1	generate/STIM_023.jpg
561.019	2.648	correct	generate	Run1	generate/STIM_024.jpg
566.666	1.385	incorrect	generate	Run1	generate/STIM_024.jpg
570.829	2.363	correct	generate	Run1	generate/STIM_024.jpg
576.522	2.291	incorrect	generate	Run1	generate/STIM_024.jpg
581.896	1.675	correct	generate	Run1	generate/STIM_024.jpg
587.376	0.859	correct	repeat	Run1	repeat/STIM_000.jpg
591.951	0.837	correct	repeat	Run1	repeat/STIM_000.jpg
595.894	0.555	correct	repeat	Run1	repeat/STIM_000.jpg
600.419	0.728	correct	repeat	Run1	repeat/STIM_000.jpg
603.243	0.584	correct	repeat	Run1	repeat/STIM_000.jpg
606.631	0.671	correct	repeat	Run1	repeat/STIM_001.jpg
609.833	0.899	correct	repeat	Run1	repeat/STIM_001.jpg
614.005	0.645	incorrect	repeat	Run1	repeat/STIM_001.jpg
617.544	0.853	correct	repeat	Run1	repeat/STIM_001.jpg
620.757	0.845	correct	repeat	Run1	repeat/STIM_001.jpg
624.872	0.54	correct	repeat	Run1	repeat/STIM_002.jpg
629.087	0.865	correct	repeat	Run1	repeat/STIM_002.jpg
632.461	0.744	correct	repeat	Run1	repeat/STIM_002.jpg
637.011	0.804	correct	repeat	Run1	repeat/STIM_002.jpg
640.765	0.543	correct	repeat	Run1	repeat/STIM_002.jpg
644.769	0.771	correct	repeat	Run1	repeat/STIM_003.jpg
648.259	0.842	correct	repeat	Run1	repeat/STIM_003.jpg
652.618	0.602	correct	repeat	Run1	repeat/STIM_003.jpg
656.725	0.599	correct	repeat	Run1	repeat/STIM_003.jpg
660.735	0.71	correct	repeat	Run1	repeat/STIM_003.jpg
665.314	0.716	correct	repeat	Run1	repeat/STIM_004.jpg
669.685	0.832	correct	repeat	Run1	repeat/STIM_004.jpg
673.727	0.848	incorrect	repeat	Run1	repeat/STIM_004.jpg
678.136	0.485	correct	repeat	Run1	repeat/STIM_004.jpg
681.681	0.565	correct	repeat	Run1	repeat/STIM_004.jpg
685.581	0.662	correct	repeat	Run1	repeat/STIM_005.jpg
688.504	0.522	correct	repeat	Run1	repeat/STIM_005.jpg
691.146	0.631	correct	repeat	Run1	repeat/STIM_005.jpg
694.031	0.69	incorrect	repeat	Run1	repeat/STIM_005.jpg
696.816	0.544	correct	repeat	Run1	repeat/STIM_005.jpg
701.225	0.671	correct	repeat	Run1	repeat/STIM_006.jpg
705.202	0.657	incorrect	repeat	Run1	repeat/STIM_006.jpg
707.904	0.576	correct	repeat	Run1	repeat/STIM_006.jpg
712.152	0.597	incorrect	repeat	Run1	repeat/STIM_006.jpg
715.068	0.807	correct	repeat	Run1	repeat/STIM_006.jpg
718.7	0.517	correct	repeat	Run1	repeat/STIM_007.jpg
721.758	0.902	incorrect	repeat	Run1	repeat/STIM_007.jpg
725.841	0.664	correct	repeat	Run1	repeat/STIM_007.jpg
729.597	0.698	correct	repeat	Run1	repeat/STIM_007.jpg
733.055	0.818	correct	repeat	Run1	repeat/STIM_007.jpg
736.128	0.663	correct	repeat	Run1	repeat/STIM_008.jpg
739.203	0.791	correct	repeat	Run1	repeat/STIM_008.jpg
742.486	0.49	correct	repeat	Run1	repeat/STIM_008.jpg
746.831	0.891	correct	repeat	Run1	repeat/STIM_008.jpg
750.318	0.573	correct	repeat	Run1	repeat/STIM_008.jpg
753.133	0.605	incorrect	repeat	Run1	repeat/STIM_009.jpg
756.601	0.634	correct	repeat	Run1	repeat/STIM_009.jpg
760.762	0.914	correct	repeat	Run1	repeat/STIM_009.jpg
765.427	0.682	correct	repeat	Run1	repeat/STIM_009.jpg
770.027	0.538	correct	repeat	Run1	repeat/STIM_009.jpg
773.821	0.659	correct	repeat	Run1	repeat/STIM_010.jpg
776.862	0.783	correct	repeat	Run1	repeat/STIM_010.jpg
780.648	0.48	correct	repeat	Run1	repeat/STIM_010.jpg
784.774	0.654	correct	repeat	Run1	repeat/STIM_010.jpg
788.289	0.475	correct	repeat	Run1	repeat/STIM_010.jpg
791.354	0.553	correct	repeat	Run1	repeat/STIM_011.jpg
795.865	0.504	correct	repeat	Run1	repeat/STIM_011.jpg
799.102	0.613	correct	repeat	Run1	repeat/STIM_011.jpg
801.797	0.846	correct	repeat	Run1	repeat/STIM_011.jpg
806.234	0.752	correct	repeat	Run1	repeat/STIM_011.jpg
810.297	0.837	correct	repeat	Run1	repeat/STIM_012.jpg
814.153	0.871	correct	repeat	Run1	repeat/STIM_012.jpg
818.528	0.59	incorrect	repeat	Run1	repeat/STIM_012.jpg
821.334	0.587	correct	repeat	Run1	repeat/STIM_012.jpg
824.464	0.808	incorrect	repeat	Run1	repeat/STIM_012.jpg
827.537	0.704	correct	repeat	Run1	repeat/STIM_013.jpg
831.003	0.821	correct	repeat	Run1	repeat/STIM_013.jpg
834.588	0.889	correct	repeat	Run1	repeat/STIM_013.jpg
839.135	0.792	correct	repeat	Run1	repeat/STIM_013.jpg
842.232	0.762	incorrect	repeat	Run1	repeat/STIM_013.jpg
845.831	0.744	incorrect	repeat	Run1	repeat/STIM_014.jpg
849.362	0.495	correct	repeat	Run1	repeat/STIM_014.jpg
853.389	0.783	correct	repeat	Run1	repeat/STIM_014.jpg
856.303	0.667	correct	repeat	Run1	repeat/STIM_014.jpg
859.288	0.737	correct	repeat	Run1	repeat/STIM_014.jpg
862.645	1.288	correct	generate	Run2	generate/STIM_000.jpg
866.058	1.69	correct	generate	Run2	generate/STIM_000.jpg
871.642	0.962	correct	generate	Run2	generate/STIM_000.jpg
875.332	0.968	incorrect	generate	Run2	generate/STIM_000.jpg
879.84	1.344	correct	generate	Run2	generate/STIM_000.jpg
883.608	1.048	correct	generate	Run2	generate/STIM_001.jpg
887.914	1.334	correct	generate	Run2	generate/STIM_001.jpg
892.33	1.282	correct	generate	Run2	generate/STIM_001.jpg
897.308	1.809	correct	generate	Run2	generate/STIM_001.jpg
901.932	1.955	correct	generate	Run2	generate/STIM_001.jpg
907.307	1.516	correct	generate	Run2	generate/STIM_002.jpg
911.208	2.215	correct	generate	Run2	generate/STIM_002.jpg
917.168	0.915	correct	generate	Run2	generate/STIM_002.jpg
921.834	1.242	incorrect	generate	Run2	generate/STIM_002.jpg
925.502	1.438	correct	generate	Run2	generate/STIM_002.jpg
930.786	1.883	correct	generate	Run2	generate/STIM_003.jpg
936.454	1.77	correct	generate	Run2	generate/STIM_003.jpg
941.489	1.693	correct	generate	Run2	generate/STIM_003.jpg
945.39	1.555	correct	generate	Run2	generate/STIM_003.jpg
949.544	0.794	correct	generate	Run2	generate/STIM_003.jpg
953.883	1.578	correct	generate	Run2	generate/STIM_004.jpg
959.426	1.176	correct	generate	Run2	generate/STIM_004.jpg
962.714	1.361	correct	generate	Run2	generate/STIM_004.jpg
967.909	1.087	correct	generate	Run2	generate/STIM_004.jpg
972.898	0.858	correct	generate	Run2	generate/STIM_004.jpg
977.565	1.134	correct	generate	Run2	generate/STIM_005.jpg
980.771	1.568	correct	generate	Run2	generate/STIM_005.jpg
985.079	1.524	incorrect	generate	Run2	generate/STIM_005.jpg
990.26	0.956	incorrect	generate	Run2	generate/STIM_005.jpg
994.241	1.746	correct	generate	Run2	generate/STIM_005.jpg
998.81	1.39	correct	generate	Run2	generate/STIM_006.jpg
1003.269	1.035	correct	generate	Run2	generate/STIM_006.jpg
1007.87	1.187	correct	generate	Run2	generate/STIM_006.jpg
1012.602	1.181	correct	generate	Run2	generate/STIM_006.jpg
1016.454	1.058	correct	generate	Run2	generate/STIM_006.jpg
1020.191	1.206	correct	generate	Run2	generate/STIM_007.jpg
1023.515	1.937	correct	generate	Run2	generate/STIM_007.jpg
1029.367	1.492	correct	generate	Run2	generate/STIM_007.jpg
1034.074	1.565	correct	generate	Run2	generate/STIM_007.jpg
1037.909	1.511	correct	generate	Run2	generate/STIM_007.jpg
1042.778	2.315	incorrect	generate	Run2	generate/STIM_008.jpg
1047.457	2.176	correct	generate	Run2	generate/STIM_008.jpg
1052.551	1.243	correct	generate	Run2	generate/STIM_008.jpg
1056.99	1.715	correct	generate	Run2	generate/STIM_008.jpg
1062.618	1.686	correct	generate	Run2	generate/STIM_008.jpg
1068.018	2.149	incorrect	generate	Run2	generate/STIM_009.jpg
1072.609	0.973	correct	generate	Run2	generate/STIM_009.jpg
1077.401	1.135	correct	generate	Run2	generate/STIM_009.jpg
1081.588	1.785	correct	generate	Run2	generate/STIM_009.jpg
1085.615	1.597	correct	generate	Run2	generate/STIM_009.jpg
1091.004	1.136	correct	generate	Run2	generate/STIM_010.jpg
1095.69	1.259	correct	generate	Run2	generate/STIM_010.jpg
1099.623	1.911	correct	generate	Run2	generate/STIM_010.jpg
1103.558	1.436	correct	generate	Run2	generate/STIM_010.jpg
1107.947	1.761	correct	generate	Run2	generate/STIM_010.jpg
1112.406	1.328	correct	generate	Run2	generate/STIM_011.jpg
1117.44	1.698	correct	generate	Run2	generate/STIM_011.jpg
1121.708	2.006	incorrect	generate	Run2	generate/STIM_011.jpg
1126.428	1.456	correct	generate	Run2	generate/STIM_011.jpg
1131.619	1.84	incorrect	generate	Run2	generate/STIM_011.jpg
1136.639	1.876	correct	generate	Run2	generate/STIM_012.jpg
1141.267	1.336	correct	generate	Run2	generate/STIM_012.jpg
1146.599	0.929	correct	generate	Run2	generate/STIM_012.jpg
1150.714	1.361	correct	generate	Run2	generate/STIM_012.jpg
1155.957	1.72	correct	generate	Run2	generate/STIM_012.jpg
1160.831	2.104	correct	generate	Run2	generate/STIM_013.jpg
1166.561	1.81	incorrect	generate	Run2	generate/STIM_013.jpg
1171.007	2.114	correct	generate	Run2	generate/STIM_013.jpg
1175.583	1.737	correct	generate	Run2	generate/STIM_013.jpg
1179.672	1.329	correct	generate	Run2	generate/STIM_013.jpg
1184.078	1.257	correct	generate	Run2	generate/STIM_014.jpg
1187.571	1.068	correct	generate	Run2	generate/STIM_014.jpg
1190.787	2.019	correct	generate	Run2	generate/STIM_014.jpg
1195.347	1.65	incorrect	generate	Run2	generate/STIM_014.jpg
1200.685	0.93	correct	generate	Run2	generate/STIM_014.jpg
1203.794	2.295	correct	generate	Run2	generate/STIM_015.jpg
1208.156	1.319	incorrect	generate	Run2	generate/STIM_015.jpg
1212.795	1.857	incorrect	generate	Run2	generate/STIM_015.jpg
1217.518	1.838	correct	generate	Run2	generate/STIM_015.jpg
1221.978	1.567	correct	generate	Run2	generate/STIM_015.jpg
1227.359	1.49	correct	generate	Run2	generate/STIM_016.jpg
1232.458	2.18	correct	generate	Run2	generate/STIM_016.jpg
1237.419	1.552	correct	generate	Run2	generate/STIM_016.jpg
1241.858	1.08	correct	generate	Run2	generate/STIM_016.jpg
1246.336	1.173	correct	generate	Run2	generate/STIM_016.jpg
1249.571	1.654	correct	generate	Run2	generate/STIM_017.jpg
1254.95	1.119	incorrect	generate	Run2	generate/STIM_017.jpg
1258.492	1.33	correct	generate	Run2	generate/STIM_017.jpg
1262.338	1.9	correct	generate	Run2	generate/STIM_017.jpg
1267.041	0.912	correct	generate	Run2	generate/STIM_017.jpg
1270.291	2.148	incorrect	generate	Run2	generate/STIM_018.jpg
1275.348	0.918	correct	generate	Run2	generate/STIM_018.jpg
1280.02	1.424	correct	generate	Run2	generate/STIM_018.jpg
1284.148	1.495	correct	generate	Run2	generate/STIM_018.jpg
1288.176	1.136	correct	generate	Run2	generate/STIM_018.jpg
1291.981	1.493	incorrect	generate	Run2	generate/STIM_019.jpg
1296.377	0.932	correct	generate	Run2	generate/STIM_019.jpg
1299.938	1.957	correct	generate	Run2	generate/STIM_019.jpg
1304.447	1.032	correct	generate	Run2	generate/STIM_019.jpg
1308.135	1.276	correct	generate	Run2	generate/STIM_019.jpg
1311.696	1.622	correct	generate	Run2	generate/STIM_020.jpg
1315.947	1.645	correct	generate	Run2	generate/STIM_020.jpg
1320.702	1.943	correct	generate	Run2	generate/STIM_020.jpg
1325.263	1.306	correct	generate	Run2	generate/STIM_020.jpg
1328.978	1.367	correct	generate	Run2	generate/STIM_020.jpg
1332.862	1.242	correct	generate	Run2	generate/STIM_021.jpg
1337.036	1.449	correct	generate	Run2	generate/STIM_021.jpg
1340.512	1.995	correct	generate	Run2	generate/STIM_021.jpg
1344.983	1.885	correct	generate	Run2	generate/STIM_021.jpg
1349.67	0.908	correct	generate	Run2	generate/STIM_021.jpg
1354.19	2.357	incorrect	generate	Run2	generate/STIM_022.jpg
1359.741	1.95	correct	generate	Run2	generate/STIM_022.jpg
1365.276	1.434	correct	generate	Run2	generate/STIM_022.jpg
1369.696	1.723	incorrect	generate	Run2	generate/STIM_022.jpg
1373.501	0.822	correct	generate	Run2	generate/STIM_022.jpg
1377.446	1.085	correct	generate	Run2	generate/STIM_023.jpg
1382.165	2.212	correct	generate	Run2	generate/STIM_023.jpg
1388.082	0.908	incorrect	generate	Run2	generate/STIM_023.jpg
1392.43	1.716	correct	generate	Run2	generate/STIM_023.jpg
1396.346	1.251	correct	generate	Run2	generate/STIM_023.jpg
1400.289	1.453	correct	generate	Run2	generate/STIM_024.jpg
1403.811	1.298	incorrect	generate	Run2	generate/STIM_024.jpg
1407.278	1.256	incorrect	generate	Run2	generate/STIM_024.jpg
1411.766	0.804	correct	generate	Run2	generate/STIM_024.jpg
1415.796	0.956	correct	generate	Run2	generate/STIM_024.jpg
1419.37	0.816	correct	repeat	Run2	repeat/STIM_000.jpg
1423.171	0.487	correct	repeat	Run2	repeat/STIM_000.jpg
1426.437	0.883	correct	repeat	Run2	repeat/STIM_000.jpg
1429.545	0.796	incorrect	repeat	Run2	repeat/STIM_000.jpg
1433.745	0.94	correct	repeat	Run2	repeat/STIM_000.jpg
1436.813	0.64	correct	repeat	Run2	repeat/STIM_001.jpg
1439.724	0.578	incorrect	repeat	Run2	repeat/STIM_001.jpg
1443.329	0.675	correct	repeat	Run2	repeat/STIM_001.jpg
1446.457	0.679	correct	repeat	Run2	repeat/STIM_001.jpg
1450.137	0.692	correct	repeat	Run2	repeat/STIM_001.jpg
1453.376	0.82	correct	repeat	Run2	repeat/STIM_002.jpg
1457.418	0.851	incorrect	repeat	Run2	repeat/STIM_002.jpg
1462.085	0.623	correct	repeat	Run2	repeat/STIM_002.jpg
1465.337	0.874	correct	repeat	Run2	repeat/STIM_002.jpg
1468.219	0.7	correct	repeat	Run2	repeat/STIM_002.jpg
1470.934	0.67	correct	repeat	Run2	repeat/STIM_003.jpg
1475.203	0.894	correct	repeat	Run2	repeat/STIM_003.jpg
1478.324	0.939	correct	repeat	Run2	repeat/STIM_003.jpg
1482.094	0.575	correct	repeat	Run2	repeat/STIM_003.jpg
1485.294	0.767	correct	repeat	Run2	repeat/STIM_003.jpg
1489.669	0.622	correct	repeat	Run2	repeat/STIM_004.jpg
1492.754	0.696	correct	repeat	Run2	repeat/STIM_004.jpg
1495.991	0.838	correct	repeat	Run2	repeat/STIM_004.jpg
1499.629	0.754	correct	repeat	Run2	repeat/STIM_004.jpg
1503.802	0.928	incorrect	repeat	Run2	repeat/STIM_004.jpg
1507.012	0.479	correct	repeat	Run2	repeat/STIM_005.jpg
1511.383	0.848	correct	repeat	Run2	repeat/STIM_005.jpg
1515.571	0.608	correct	repeat	Run2	repeat/STIM_005.jpg
1519.761	0.828	correct	repeat	Run2	repeat/STIM_005.jpg
1523.609	0.606	incorrect	repeat	Run2	repeat/STIM_005.jpg
1527.854	0.551	correct	repeat	Run2	repeat/STIM_006.jpg
1532.019	0.546	correct	repeat	Run2	repeat/STIM_006.jpg
1535.817	0.862	correct	repeat	Run2	repeat/STIM_006.jpg
1540.053	0.698	correct	repeat	Run2	repeat/STIM_006.jpg
1543.775	0.566	correct	repeat	Run2	repeat/STIM_006.jpg
1547.79	0.783	correct	repeat	Run2	repeat/STIM_007.jpg
1552.012	0.677	correct	repeat	Run2	repeat/STIM_007.jpg
1556.611	0.536	correct	repeat	Run2	repeat/STIM_007.jpg
1560.688	0.718	correct	repeat	Run2	repeat/STIM_007.jpg
1564.798	0.591	correct	repeat	Run2	repeat/STIM_007.jpg
1568.408	0.867	correct	repeat	Run2	repeat/STIM_008.jpg
1572.37	0.77	correct	repeat	Run2	repeat/STIM_008.jpg
1576.329	0.807	correct	repeat	Run2	repeat/STIM_008.jpg
1579.993	0.772	correct	repeat	Run2	repeat/STIM_008.jpg
1584.366	0.93	correct	repeat	Run2	repeat/STIM_008.jpg
1588.12	0.688	correct	repeat	Run2	repeat/STIM_009.jpg
1592.146	0.501	correct	repeat	Run2	repeat/STIM_009.jpg
1595.829	0.801	correct	repeat	Run2	repeat/STIM_009.jpg
1600.617	0.563	correct	repeat	Run2	repeat/STIM_009.jpg
1604.263	0.831	correct	repeat	Run2	repeat/STIM_009.jpg
1608.562	0.472	correct	repeat	Run2	repeat/STIM_010.jpg
1612.005	0.697	correct	repeat	Run2	repeat/STIM_010.jpg
1616.209	0.615	correct	repeat	Run2	repeat/STIM_010.jpg
1619.484	0.506	correct	repeat	Run2	repeat/STIM_010.jpg
1623.705	0.605	correct	repeat	Run2	repeat/STIM_010.jpg
1627.479	0.847	incorrect	repeat	Run2	repeat/STIM_011.jpg
1631.518	0.528	correct	repeat	Run2	repeat/STIM_011.jpg
1634.786	0.6	correct	repeat	Run2	repeat/STIM_011.jpg
1639.129	0.896	correct	repeat	Run2	repeat/STIM_011.jpg
1643.893	0.539	correct	repeat	Run2	repeat/STIM_011.jpg
1646.542	0.885	correct	repeat	Run2	repeat/STIM_012.jpg
1649.784	0.503	correct	repeat	Run2	repeat/STIM_012.jpg
1654.17	0.541	correct	repeat	Run2	repeat/STIM_012.jpg
1657.736	0.623	correct	repeat	Run2	repeat/STIM_012.jpg
1660.416	0.889	correct	repeat	Run2	repeat/STIM_012.jpg
1665.115	0.661	correct	repeat	Run2	repeat/STIM_013.jpg
1668.642	0.909	incorrect	repeat	Run2	repeat/STIM_013.jpg
1671.962	0.81	correct	repeat	Run2	repeat/STIM_013.jpg
1676.403	0.792	correct	repeat	Run2	repeat/STIM_013.jpg
1680.556	0.56	correct	repeat	Run2	repeat/STIM_013.jpg
1684.918	0.509	correct	repeat	Run2	repeat/STIM_014.jpg
1688.403	0.634	correct	repeat	Run2	repeat/STIM_014.jpg
1692.072	0.567	correct	repeat	Run2	repeat/STIM_014.jpg
1695.143	0.663	correct	repeat	Run2	repeat/STIM_014.jpg
1699.041	0.867	incorrect	repeat	Run2	repeat/STIM_014.jpg
1702.986	1.018	correct	generate	Run3	generate/STIM_000.jpg
1707.296	1.289	correct	generate	Run3	generate/STIM_000.jpg
1711.071	1.528	correct	generate	Run3	generate/STIM_000.jpg
1715.771	1.402	correct	generate	Run3	generate/STIM_000.jpg
1719.426	1.887	correct	generate	Run3	generate/STIM_000.jpg
1723.429	1.586	correct	generate	Run3	generate/STIM_001.jpg
1728.845	1.264	correct	generate	Run3	generate/STIM_001.jpg
1732.619	0.979	correct	generate	Run3	generate/STIM_001.jpg
1737.271	1.93	correct	generate	Run3	generate/STIM_001.jpg
1741.949	0.949	correct	generate	Run3	generate/STIM_001.jpg
1745.912	1.863	incorrect	generate	Run3	generate/STIM_002.jpg
1751.232	1.728	correct	generate	Run3	generate/STIM_002.jpg
1755.174	0.912	correct	generate	Run3	generate/STIM_002.jpg
1759.253	0.919	correct	generate	Run3	generate/STIM_002.jpg
1764.066	1.069	correct	generate	Run3	generate/STIM_002.jpg
1768.433	1.127	correct	generate	Run3	generate/STIM_003.jpg
1772.174	1.873	correct	generate	Run3	generate/STIM_003.jpg
1777.861	1.727	correct	generate	Run3	generate/STIM_003.jpg
1782.206	1.333	correct	generate	Run3	generate/STIM_003.jpg
1787.471	1.613	correct	generate	Run3	generate/STIM_003.jpg
1791.782	0.814	correct	generate	Run3	generate/STIM_004.jpg
1795.334	0.911	correct	generate	Run3	generate/STIM_004.jpg
1798.353	0.932	correct	generate	Run3	generate/STIM_004.jpg
1803.076	1.941	correct	generate	Run3	generate/STIM_004.jpg
1807.264	1.048	correct	generate	Run3	generate/STIM_004.jpg
1810.922	1.466	incorrect	generate	Run3	generate/STIM_005.jpg
1815.263	1.055	correct	generate	Run3	generate/STIM_005.jpg
1819.332	1.88	correct	generate	Run3	generate/STIM_005.jpg
1824.5	0.958	correct	generate	Run3	generate/STIM_005.jpg
1827.725	1.302	correct	generate	Run3	generate/STIM_005.jpg
1832.767	1.601	correct	generate	Run3	generate/STIM_006.jpg
1836.522	1.908	correct	generate	Run3	generate/STIM_006.jpg
1841.313	1.063	correct	generate	Run3	generate/STIM_006.jpg
1844.865	1.692	incorrect	generate	Run3	generate/STIM_006.jpg
1850.219	0.994	correct	generate	Run3	generate/STIM_006.jpg
1853.545	1.199	correct	generate	Run3	generate/STIM_007.jpg
1857.647	1.122	correct	generate	Run3	generate/STIM_007.jpg
1862.225	1.308	correct	generate	Run3	generate/STIM_007.jpg
1865.594	0.88	correct	generate	Run3	generate/STIM_007.jpg
1870.31	1.89	correct	generate	Run3	generate/STIM_007.jpg
1876.116	1.351	incorrect	generate	Run3	generate/STIM_008.jpg
1880.634	1.624	correct	generate	Run3	generate/STIM_008.jpg
1885.621	0.924	correct	generate	Run3	generate/STIM_008.jpg
1889.463	1.948	correct	generate	Run3	generate/STIM_008.jpg
1893.454	1.109	incorrect	generate	Run3	generate/STIM_008.jpg
1897.029	1.363	correct	generate	Run3	generate/STIM_009.jpg
1900.545	1.199	correct	generate	Run3	generate/STIM_009.jpg
1904.683	1.324	correct	generate	Run3	generate/STIM_009.jpg
1909.668	1.548	correct	generate	Run3	generate/STIM_009.jpg
1914.993	1.068	correct	generate	Run3	generate/STIM_009.jpg
1918.24	1.822	incorrect	generate	Run3	generate/STIM_010.jpg
1923.033	1.714	incorrect	generate	Run3	generate/STIM_010.jpg
1927.51	1.814	correct	generate	Run3	generate/STIM_010.jpg
1932.335	1.944	correct	generate	Run3	generate/STIM_010.jpg
1937.642	1.66	correct	generate	Run3	generate/STIM_010.jpg
1942.715	1.295	correct	generate	Run3	generate/STIM_011.jpg
1946.495	1.126	correct	generate	Run3	generate/STIM_011.jpg
1950.19	1.767	correct	generate	Run3	generate/STIM_011.jpg
1955.749	1.761	correct	generate	Run3	generate/STIM_011.jpg
1961.362	1.361	incorrect	generate	Run3	generate/STIM_011.jpg
1966.704	1.007	correct	generate	Run3	generate/STIM_012.jpg
1970.537	1.566	incorrect	generate	Run3	generate/STIM_012.jpg
1975.328	1.109	correct	generate	Run3	generate/STIM_012.jpg
1978.947	1.311	correct	generate	Run3	generate/STIM_012.jpg
1982.707	1.37	correct	generate	Run3	generate/STIM_012.jpg
1986.562	1.709	correct	generate	Run3	generate/STIM_013.jpg
1990.674	1.653	incorrect	generate	Run3	generate/STIM_013.jpg
1994.715	0.964	correct	generate	Run3	generate/STIM_013.jpg
1999.317	1.956	correct	generate	Run3	generate/STIM_013.jpg
2003.519	1.035	incorrect	generate	Run3	generate/STIM_013.jpg
2007.307	1.611	correct	generate	Run3	generate/STIM_014.jpg
2012.824	1.049	correct	generate	Run3	generate/STIM_014.jpg
2016.825	1.167	correct	generate	Run3	generate/STIM_014.jpg
2021.139	1.152	correct	generate	Run3	generate/STIM_014.jpg
2026.008	0.832	correct	generate	Run3	generate/STIM_014.jpg
2029.527	1.247	correct	generate	Run3	generate/STIM_015.jpg
2033.6	1.442	correct	generate	Run3	generate/STIM_015.jpg
2037.976	1.786	correct	generate	Run3	generate/STIM_015.jpg
2043.356	0.962	correct	generate	Run3	generate/STIM_015.jpg
2047.39	1.046	correct	generate	Run3	generate/STIM_015.jpg
2051.899	1.249	correct	generate	Run3	generate/STIM_016.jpg
2056.48	1.333	correct	generate	Run3	generate/STIM_016.jpg
2060.159	1.447	correct	generate	Run3	generate/STIM_016.jpg
2065.458	1.443	correct	generate	Run3	generate/STIM_016.jpg
2070.084	0.832	correct	generate	Run3	generate/STIM_016.jpg
2074.853	1.519	correct	generate	Run3	generate/STIM_017.jpg
2079.288	1.966	incorrect	generate	Run3	generate/STIM_017.jpg
2084.974	1.866	incorrect	generate	Run3	generate/STIM_017.jpg
2089.121	1.973	correct	generate	Run3	generate/STIM_017.jpg
2094.898	1.65	correct	generate	Run3	generate/STIM_017.jpg
2100.114	1.221	correct	generate	Run3	generate/STIM_018.jpg
2103.407	1.743	correct	generate	Run3	generate/STIM_018.jpg
2107.429	0.99	correct	generate	Run3	generate/STIM_018.jpg
2110.689	0.889	correct	generate	Run3	generate/STIM_018.jpg
2114.548	1.24	correct	generate	Run3	generate/STIM_018.jpg
2118.778	1.792	correct	generate	Run3	generate/STIM_019.jpg
2123.143	1.356	correct	generate	Run3	generate/STIM_019.jpg
2126.622	1.094	correct	generate	Run3	generate/STIM_019.jpg
2131.524	1.695	correct	generate	Run3	generate/STIM_019.jpg
2135.345	1.923	correct	generate	Run3	generate/STIM_019.jpg
2140.531	1.064	correct	generate	Run3	generate/STIM_020.jpg
2144.4	0.817	correct	generate	Run3	generate/STIM_020.jpg
2147.698	1.609	incorrect	generate	Run3	generate/STIM_020.jpg
2151.607	1.392	correct	generate	Run3	generate/STIM_020.jpg
2155.088	1.387	correct	generate	Run3	generate/STIM_020.jpg
2160.152	1.732	correct	generate	Run3	generate/STIM_021.jpg
2165.239	0.925	correct	generate	Run3	generate/STIM_021.jpg
2169.761	0.91	correct	generate	Run3	generate/STIM_021.jpg
2172.932	1.563	correct	generate	Run3	generate/STIM_021.jpg
2176.643	1.846	correct	generate	Run3	generate/STIM_021.jpg
2182.313	1.453	correct	generate	Run3	generate/STIM_022.jpg
2187.235	1.541	correct	generate	Run3	generate/STIM_022.jpg
2192.733	1.478	correct	generate	Run3	generate/STIM_022.jpg
2197.105	1.475	correct	generate	Run3	generate/STIM_022.jpg
2201.516	0.993	incorrect	generate	Run3	generate/STIM_022.jpg
2206.107	1.464	correct	generate	Run3	generate/STIM_023.jpg
2209.725	1.895	correct	generate	Run3	generate/STIM_023.jpg
2214.916	1.559	correct	generate	Run3	generate/STIM_023.jpg
2219.978	1.256	correct	generate	Run3	generate/STIM_023.jpg
2223.776	1.058	incorrect	generate	Run3	generate/STIM_023.jpg
2228.622	1.102	incorrect	generate	Run3	generate/STIM_024.jpg
2232.372	0.937	correct	generate	Run3	generate/STIM_024.jpg
2237.283	0.958	correct	generate	Run3	generate/STIM_024.jpg
2240.72	1.524	correct	generate	Run3	generate/STIM_024.jpg
2245.338	1.02	correct	generate	Run3	generate/STIM_024.jpg
2249.066	0.478	correct	repeat	Run3	repeat/STIM_000.jpg
2252.831	0.702	correct	repeat	Run3	repeat/STIM_000.jpg
2257.121	0.494	correct	repeat	Run3	repeat/STIM_000.jpg
2261.027	0.585	correct	repeat	Run3	repeat/STIM_000.jpg
2263.89	0.828	correct	repeat	Run3	repeat/STIM_000.jpg
2267.292	0.871	correct	repeat	Run3	repeat/STIM_001.jpg
2271.972	0.794	correct	repeat	Run3	repeat/STIM_001.jpg
2275.294	0.894	correct	repeat	Run3	repeat/STIM_001.jpg
2278.994	0.769	incorrect	repeat	Run3	repeat/STIM_001.jpg
2282.883	0.821	correct	repeat	Run3	repeat/STIM_001.jpg
2286.871	0.88	correct	repeat	Run3	repeat/STIM_002.jpg
2290.828	0.494	correct	repeat	Run3	repeat/STIM_002.jpg
2293.532	0.553	correct	repeat	Run3	repeat/STIM_002.jpg
2296.716	0.475	correct	repeat	Run3	repeat/STIM_002.jpg
2300.383	0.758	correct	repeat	Run3	repeat/STIM_002.jpg
2303.716	0.524	correct	repeat	Run3	repeat/STIM_003.jpg
2307.595	0.644	correct	repeat	Run3	repeat/STIM_003.jpg
2311.539	0.67	correct	repeat	Run3	repeat/STIM_003.jpg
2314.959	0.854	correct	repeat	Run3	repeat/STIM_003.jpg
2317.836	0.682	correct	repeat	Run3	repeat/STIM_003.jpg
2321.0	0.772	correct	repeat	Run3	repeat/STIM_004.jpg
2324.472	0.682	correct	repeat	Run3	repeat/STIM_004.jpg
2328.835	0.663	correct	repeat	Run3	repeat/STIM_004.jpg
2333.082	0.653	correct	repeat	Run3	repeat/STIM_004.jpg
2336.318	0.537	correct	repeat	Run3	repeat/STIM_004.jpg
2339.188	0.525	correct	repeat	Run3	repeat/STIM_005.jpg
2343.289	0.65	correct	repeat	Run3	repeat/STIM_005.jpg
2346.001	0.502	correct	repeat	Run3	repeat/STIM_005.jpg
2348.733	0.601	correct	repeat	Run3	repeat/STIM_005.jpg
2351.948	0.612	correct	repeat	Run3	repeat/STIM_005.jpg
2355.017	0.896	correct	repeat	Run3	repeat/STIM_006.jpg
2358.655	0.496	correct	repeat	Run3	repeat/STIM_006.jpg
2361.221	0.934	incorrect	repeat	Run3	repeat/STIM_006.jpg
2364.803	0.499	correct	repeat	Run3	repeat/STIM_006.jpg
2367.901	0.542	correct	repeat	Run3	repeat/STIM_006.jpg
2371.302	0.714	correct	repeat	Run3	repeat/STIM_007.jpg
2374.582	0.69	correct	repeat	Run3	repeat/STIM_007.jpg
2378.738	0.494	incorrect	repeat	Run3	repeat/STIM_007.jpg
2381.404	0.814	correct	repeat	Run3	repeat/STIM_007.jpg
2386.079	0.748	correct	repeat	Run3	repeat/STIM_007.jpg
2389.124	0.782	correct	repeat	Run3	repeat/STIM_008.jpg
2393.806	0.889	correct	repeat	Run3	repeat/STIM_008.jpg
2397.053	0.573	correct	repeat	Run3	repeat/STIM_008.jpg
2401.29	0.798	correct	repeat	Run3	repeat/STIM_008.jpg
2404.894	0.584	correct	repeat	Run3	repeat/STIM_008.jpg
2409.207	0.791	correct	repeat	Run3	repeat/STIM_009.jpg
2413.404	0.503	correct	repeat	Run3	repeat/STIM_009.jpg
2417.589	0.476	correct	repeat	Run3	repeat/STIM_009.jpg
2420.622	0.825	incorrect	repeat	Run3	repeat/STIM_009.jpg
2425.302	0.639	correct	repeat	Run3	repeat/STIM_009.jpg
2429.734	0.877	correct	repeat	Run3	repeat/STIM_010.jpg
2434.168	0.54	correct	repeat	Run3	repeat/STIM_010.jpg
2438.673	0.725	correct	repeat	Run3	repeat/STIM_010.jpg
2441.512	0.514	correct	repeat	Run3	repeat/STIM_010.jpg
2444.775	0.667	correct	repeat	Run3	repeat/STIM_010.jpg
2448.401	0.585	correct	repeat	Run3	repeat/STIM_011.jpg
2451.552	0.745	incorrect	repeat	Run3	repeat/STIM_011.jpg
2455.433	0.813	correct	repeat	Run3	repeat/STIM_011.jpg
2460.157	0.471	correct	repeat	Run3	repeat/STIM_011.jpg
2464.285	0.714	correct	repeat	Run3	repeat/STIM_011.jpg
2467.429	0.854	correct	repeat	Run3	repeat/STIM_012.jpg
2470.34	0.586	correct	repeat	Run3	repeat/STIM_012.jpg
2473.159	0.921	correct	repeat	Run3	repeat/STIM_012.jpg
2477.922	0.875	incorrect	repeat	Run3	repeat/STIM_012.jpg
2482.735	0.891	correct	repeat	Run3	repeat/STIM_012.jpg
2486.218	0.846	correct	repeat	Run3	repeat/STIM_013.jpg
2490.785	0.471	correct	repeat	Run3	repeat/STIM_013.jpg
2493.933	0.852	correct	repeat	Run3	repeat/STIM_013.jpg
2498.33	0.511	incorrect	repeat	Run3	repeat/STIM_013.jpg
2502.362	0.624	correct	repeat	Run3	repeat/STIM_013.jpg
2505.619	0.616	correct	repeat	Run3	repeat/STIM_014.jpg
2509.771	0.504	correct	repeat	Run3	repeat/STIM_014.jpg
2514.138	0.926	correct	repeat	Run3	repeat/STIM_014.jpg
2518.39	0.529	correct	repeat	Run3	repeat/STIM_014.jpg
2522.292	0.537	incorrect	repeat	Run3	repeat/STIM_014.jpg
2525.121	1.559	correct	generate	Run4	generate/STIM_000.jpg
2530.496	1.1	correct	generate	Run4	generate/STIM_000.jpg
2534.078	1.767	correct	generate	Run4	generate/STIM_000.jpg
2538.107	1.558	correct	generate	Run4	generate/STIM_000.jpg
2541.956	1.614	correct	generate	Run4	generate/STIM_000.jpg
2547.067	1.34	incorrect	generate	Run4	generate/STIM_001.jpg
2551.913	0.808	correct	generate	Run4	generate/STIM_001.jpg
2556.269	0.943	correct	generate	Run4	generate/STIM_001.jpg
2559.34	1.089	correct	generate	Run4	generate/STIM_001.jpg
2562.512	1.832	correct	generate	Run4	generate/STIM_001.jpg
2567.43	1.091	correct	generate	Run4	generate/STIM_002.jpg
2571.456	0.941	correct	generate	Run4	generate/STIM_002.jpg
2574.697	1.308	correct	generate	Run4	generate/STIM_002.jpg
2579.717	1.188	correct	generate	Run4	generate/STIM_002.jpg
2583.053	1.788	correct	generate	Run4	generate/STIM_002.jpg
2587.688	0.894	correct	generate	Run4	generate/STIM_003.jpg
2591.232	1.932	correct	generate	Run4	generate/STIM_003.jpg
2596.057	1.029	correct	generate	Run4	generate/STIM_003.jpg
2599.316	1.478	correct	generate	Run4	generate/STIM_003.jpg
2603.6	1.724	correct	generate	Run4	generate/STIM_003.jpg
2607.525	1.27	correct	generate	Run4	generate/STIM_004.jpg
2611.489	1.434	correct	generate	Run4	generate/STIM_004.jpg
2615.995	1.049	incorrect	generate	Run4	generate/STIM_004.jpg
2620.78	1.961	correct	generate	Run4	generate/STIM_004.jpg
2625.062	1.054	correct	generate	Run4	generate/STIM_004.jpg
2629.804	1.889	correct	generate	Run4	generate/STIM_005.jpg
2634.014	1.113	correct	generate	Run4	generate/STIM_005.jpg
2638.746	1.873	incorrect	generate	Run4	generate/STIM_005.jpg
2643.24	1.119	correct	generate	Run4	generate/STIM_005.jpg
2648.327	1.459	correct	generate	Run4	generate/STIM_005.jpg
2651.881	1.668	correct	generate	Run4	generate/STIM_006.jpg
2655.845	1.016	correct	generate	Run4	generate/STIM_006.jpg
2659.06	1.45	correct	generate	Run4	generate/STIM_006.jpg
2664.163	0.972	correct	generate	Run4	generate/STIM_006.jpg
2667.652	1.921	correct	generate	Run4	generate/STIM_006.jpg
2673.283	1.803	correct	generate	Run4	generate/STIM_007.jpg
2678.299	1.767	incorrect	generate	Run4	generate/STIM_007.jpg
2683.617	0.916	correct	generate	Run4	generate/STIM_007.jpg
2686.851	1.805	correct	generate	Run4	generate/STIM_007.jpg
2692.582	1.192	correct	generate	Run4	generate/STIM_007.jpg
2697.415	0.796	correct	generate	Run4	generate/STIM_008.jpg
2700.521	1.575	correct	generate	Run4	generate/STIM_008.jpg
2705.443	1.302	correct	generate	Run4	generate/STIM_008.jpg
2709.457	1.803	correct	generate	Run4	generate/STIM_008.jpg
2714.785	1.781	correct	generate	Run4	generate/STIM_008.jpg
2720.49	1.63	correct	generate	Run4	generate/STIM_009.jpg
2725.998	1.343	correct	generate	Run4	generate/STIM_009.jpg
2731.194	1.815	correct	generate	Run4	generate/STIM_009.jpg
2736.562	1.677	correct	generate	Run4	generate/STIM_009.jpg
2741.422	1.11	correct	generate	Run4	generate/STIM_009.jpg
2746.274	0.978	correct	generate	Run4	generate/STIM_010.jpg
2751.051	0.933	correct	generate	Run4	generate/STIM_010.jpg
2755.902	1.699	correct	generate	Run4	generate/STIM_010.jpg
2761.145	1.816	correct	generate	Run4	generate/STIM_010.jpg
2766.87	1.109	correct	generate	Run4	generate/STIM_010.jpg
2770.906	1.256	correct	generate	Run4	generate/STIM_011.jpg
2776.133	1.91	correct	generate	Run4	generate/STIM_011.jpg
2780.869	1.352	correct	generate	Run4	generate/STIM_011.jpg
2786.11	1.14	correct	generate	Run4	generate/STIM_011.jpg
2791.141	1.045	correct	generate	Run4	generate/STIM_011.jpg
2795.059	1.624	correct	generate	Run4	generate/STIM_012.jpg
2798.999	1.799	correct	generate	Run4	generate/STIM_012.jpg
2802.889	1.098	correct	generate	Run4	generate/STIM_012.jpg
2806.969	1.274	correct	generate	Run4	generate/STIM_012.jpg
2811.552	1.812	correct	generate	Run4	generate/STIM_012.jpg
2816.859	1.022	correct	generate	Run4	generate/STIM_013.jpg
2821.12	1.503	correct	generate	Run4	generate/STIM_013.jpg
2826.406	1.43	correct	generate	Run4	generate/STIM_013.jpg
2831.786	1.93	correct	generate	Run4	generate/STIM_013.jpg
2836.334	1.756	correct	generate	Run4	generate/STIM_013.jpg
2841.521	1.072	incorrect	generate	Run4	generate/STIM_014.jpg
2846.244	1.458	correct	generate	Run4	generate/STIM_014.jpg
2850.453	1.483	correct	generate	Run4	generate/STIM_014.jpg
2854.392	1.126	correct	generate	Run4	generate/STIM_014.jpg
2858.522	1.586	incorrect	generate	Run4	generate/STIM_014.jpg
2863.842	1.251	correct	generate	Run4	generate/STIM_015.jpg
2867.256	1.217	correct	generate	Run4	generate/STIM_015.jpg
2871.147	1.169	correct	generate	Run4	generate/STIM_015.jpg
2874.976	0.955	correct	generate	Run4	generate/STIM_015.jpg
2879.084	1.894	correct	generate	Run4	generate/STIM_015.jpg
2883.023	1.405	correct	generate	Run4	generate/STIM_016.jpg
2887.711	1.013	correct	generate	Run4	generate/STIM_016.jpg
2891.815	1.397	correct	generate	Run4	generate/STIM_016.jpg
2896.996	1.663	correct	generate	Run4	generate/STIM_016.jpg
2902.353	1.323	correct	generate	Run4	generate/STIM_016.jpg
2906.599	0.928	correct	generate	Run4	generate/STIM_017.jpg
2911.388	0.889	correct	generate	Run4	generate/STIM_017.jpg
2914.88	1.12	correct	generate	Run4	generate/STIM_017.jpg
2919.641	1.918	correct	generate	Run4	generate/STIM_017.jpg
2924.655	1.409	correct	generate	Run4	generate/STIM_017.jpg
2929.281	1.407	correct	generate	Run4	generate/STIM_018.jpg
2934.011	1.759	correct	generate	Run4	generate/STIM_018.jpg
2937.814	1.103	correct	generate	Run4	generate/STIM_018.jpg
2941.88	1.79	correct	generate	Run4	generate/STIM_018.jpg
2947.223	1.191	correct	generate	Run4	generate/STIM_018.jpg
2951.648	1.8	correct	generate	Run4	generate/STIM_019.jpg
2956.804	1.868	correct	generate	Run4	generate/STIM_019.jpg
2960.868	1.834	correct	generate	Run4	generate/STIM_019.jpg
2965.854	1.778	correct	generate	Run4	generate/STIM_019.jpg
2970.496	0.792	correct	generate	Run4	generate/STIM_019.jpg
2974.892	1.361	correct	generate	Run4	generate/STIM_020.jpg
2978.409	1.874	correct	generate	Run4	generate/STIM_020.jpg
2983.412	1.675	correct	generate	Run4	generate/STIM_020.jpg
2987.863	1.848	correct	generate	Run4	generate/STIM_020.jpg
2993.537	1.494	correct	generate	Run4	generate/STIM_020.jpg
2997.094	1.12	correct	generate	Run4	generate/STIM_021.jpg
3000.373	1.492	correct	generate	Run4	generate/STIM_021.jpg
3005.726	1.344	correct	generate	Run4	generate/STIM_021.jpg
3010.907	1.772	correct	generate	Run4	generate/STIM_021.jpg
3016.368	1.66	correct	generate	Run4	generate/STIM_021.jpg
3020.758	1.512	correct	generate	Run4	generate/STIM_022.jpg
3024.662	1.033	correct	generate	Run4	generate/STIM_022.jpg
3029.143	1.971	correct	generate	Run4	generate/STIM_022.jpg
3034.217	1.517	correct	generate	Run4	generate/STIM_022.jpg
3039.144	1.234	correct	generate	Run4	generate/STIM_022.jpg
3044.117	1.73	correct	generate	Run4	generate/STIM_023.jpg
3049.447	0.832	correct	generate	Run4	generate/STIM_023.jpg
3052.488	1.223	correct	generate	Run4	generate/STIM_023.jpg
3056.775	1.548	correct	generate	Run4	generate/STIM_023.jpg
3060.349	1.596	correct	generate	Run4	generate/STIM_023.jpg
3065.238	1.913	correct	generate	Run4	generate/STIM_024.jpg
3070.97	1.76	correct	generate	Run4	generate/STIM_024.jpg
3075.732	1.441	incorrect	generate	Run4	generate/STIM_024.jpg
3080.966	1.137	correct	generate	Run4	generate/STIM_024.jpg
3085.069	0.964	correct	generate	Run4	generate/STIM_024.jpg
3089.36	0.902	correct	repeat	Run4	repeat/STIM_000.jpg
3094.165	0.928	correct	repeat	Run4	repeat/STIM_000.jpg
3098.773	0.913	correct	repeat	Run4	repeat/STIM_000.jpg
3101.935	0.741	correct	repeat	Run4	repeat/STIM_000.jpg
3105.671	0.847	correct	repeat	Run4	repeat/STIM_000.jpg
3110.173	0.671	correct	repeat	Run4	repeat/STIM_001.jpg
3113.252	0.668	correct	repeat	Run4	repeat/STIM_001.jpg
3115.978	0.477	correct	repeat	Run4	repeat/STIM_001.jpg
3119.006	0.656	correct	repeat	Run4	repeat/STIM_001.jpg
3122.123	0.514	correct	repeat	Run4	repeat/STIM_001.jpg
3126.568	0.836	correct	repeat	Run4	repeat/STIM_002.jpg
3131.348	0.605	incorrect	repeat	Run4	repeat/STIM_002.jpg
3134.566	0.784	correct	repeat	Run4	repeat/STIM_002.jpg
3137.569	0.727	correct	repeat	Run4	repeat/STIM_002.jpg
3141.341	0.752	correct	repeat	Run4	repeat/STIM_002.jpg
3144.306	0.764	correct	repeat	Run4	repeat/STIM_003.jpg
3148.882	0.82	correct	repeat	Run4	repeat/STIM_003.jpg
3152.528	0.721	correct	repeat	Run4	repeat/STIM_003.jpg
3155.49	0.774	correct	repeat	Run4	repeat/STIM_003.jpg
3159.866	0.614	correct	repeat	Run4	repeat/STIM_003.jpg
3164.15	0.529	correct	repeat	Run4	repeat/STIM_004.jpg
3167.73	0.716	correct	repeat	Run4	repeat/STIM_004.jpg
3171.445	0.726	correct	repeat	Run4	repeat/STIM_004.jpg
3174.864	0.586	correct	repeat	Run4	repeat/STIM_004.jpg
3178.639	0.765	incorrect	repeat	Run4	repeat/STIM_004.jpg
3182.479	0.736	correct	repeat	Run4	repeat/STIM_005.jpg
3187.157	0.677	correct	repeat	Run4	repeat/STIM_005.jpg
3190.087	0.524	correct	repeat	Run4	repeat/STIM_005.jpg
3193.33	0.511	correct	repeat	Run4	repeat/STIM_005.jpg
3197.4	0.87	correct	repeat	Run4	repeat/STIM_005.jpg
3200.523	0.718	incorrect	repeat	Run4	repeat/STIM_006.jpg
3203.891	0.593	correct	repeat	Run4	repeat/STIM_006.jpg
3208.095	0.666	correct	repeat	Run4	repeat/STIM_006.jpg
3211.26	0.86	correct	repeat	Run4	repeat/STIM_006.jpg
3214.665	0.907	correct	repeat	Run4	repeat/STIM_006.jpg
3218.934	0.924	correct	repeat	Run4	repeat/STIM_007.jpg
3223.062	0.525	correct	repeat	Run4	repeat/STIM_007.jpg
3225.715	0.836	correct	repeat	Run4	repeat/STIM_007.jpg
3228.909	0.938	correct	repeat	Run4	repeat/STIM_007.jpg
3232.369	0.554	incorrect	repeat	Run4	repeat/STIM_007.jpg
3236.274	0.917	correct	repeat	Run4	repeat/STIM_008.jpg
3240.108	0.737	correct	repeat	Run4	repeat/STIM_008.jpg
3243.982	0.628	correct	repeat	Run4	repeat/STIM_008.jpg
3247.326	0.53	correct	repeat	Run4	repeat/STIM_008.jpg
3251.341	0.853	correct	repeat	Run4	repeat/STIM_008.jpg
3254.713	0.624	correct	repeat	Run4	repeat/STIM_009.jpg
3258.599	0.86	incorrect	repeat	Run4	repeat/STIM_009.jpg
3262.199	0.546	correct	repeat	Run4	repeat/STIM_009.jpg
3265.969	0.847	correct	repeat	Run4	repeat/STIM_009.jpg
3268.909	0.926	correct	repeat	Run4	repeat/STIM_009.jpg
3272.854	0.619	correct	repeat	Run4	repeat/STIM_010.jpg
3276.465	0.623	correct	repeat	Run4	repeat/STIM_010.jpg
3280.354	0.557	correct	repeat	Run4	repeat/STIM_010.jpg
3283.344	0.834	correct	repeat	Run4	repeat/STIM_010.jpg
3287.073	0.515	correct	repeat	Run4	repeat/STIM_010.jpg
3290.817	0.714	correct	repeat	Run4	repeat/STIM_011.jpg
3295.421	0.768	correct	repeat	Run4	repeat/STIM_011.jpg
3298.813	0.576	correct	repeat	Run4	repeat/STIM_011.jpg
3303.217	0.763	correct	repeat	Run4	repeat/STIM_011.jpg
3306.657	0.534	correct	repeat	Run4	repeat/STIM_011.jpg
3310.082	0.774	correct	repeat	Run4	repeat/STIM_012.jpg
3313.1	0.873	correct	repeat	Run4	repeat/STIM_012.jpg
3317.653	0.841	correct	repeat	Run4	repeat/STIM_012.jpg
3321.814	0.502	correct	repeat	Run4	repeat/STIM_012.jpg
3325.876	0.577	correct	repeat	Run4	repeat/STIM_012.jpg
3330.128	0.568	correct	repeat	Run4	repeat/STIM_013.jpg
3334.364	0.645	correct	repeat	Run4	repeat/STIM_013.jpg
3337.221	0.677	correct	repeat	Run4	repeat/STIM_013.jpg
3341.436	0.857	correct	repeat	Run4	repeat/STIM_013.jpg
3345.169	0.929	correct	repeat	Run4	repeat/STIM_013.jpg
3349.569	0.862	correct	repeat	Run4	repeat/STIM_014.jpg
3353.417	0.8	correct	repeat	Run4	repeat/STIM_014.jpg
3357.486	0.752	correct	repeat	Run4	repeat/STIM_014.jpg
3360.505	0.775	correct	repeat	Run4	repeat/STIM_014.jpg
3364.927	0.776	correct	repeat	Run4	repeat/STIM_014.jpg
