onset	duration	response_time_ms	trial_type	learning_stage	stimulus	response_port
0.0	1.26	1259.9	generate	Run1	generate/STIM_000.jpg	99
3.722	1.246	1246.2	generate	Run1	generate/STIM_000.jpg	100
7.046	2.499	2499.1	generate	Run1	generate/STIM_000.jpg	100
12.87	2.096	2095.8	generate	Run1	generate/STIM_000.jpg	100
17.465	1.277	1276.8	generate	Run1	generate/STIM_000.jpg	99
21.639	2.706	2705.8	generate	Run1	generate/STIM_001.jpg	100
28.341	1.726	1725.8	generate	Run1	generate/STIM_001.jpg	99
32.31	1.855	1855.3	generate	Run1	generate/STIM_001.jpg	100
36.279	0.985	984.8	generate	Run1	generate/STIM_001.jpg	99
39.338	1.108	1107.9	generate	Run1	generate/STIM_001.jpg	99
42.961	1.203	1203.1	generate	Run1	generate/STIM_002.jpg	100
46.434	1.704	1703.9	generate	Run1	generate/STIM_002.jpg	99
52.098	1.92	1920.5	generate	Run1	generate/STIM_002.jpg	100
57.096	1.649	1648.9	generate	Run1	generate/STIM_002.jpg	100
60.882	1.179	1178.8	generate	Run1	generate/STIM_002.jpg	100
64.09	1.414	1413.5	generate	Run1	generate/STIM_003.jpg	100
67.531	2.245	2245.0	generate	Run1	generate/STIM_003.jpg	99
73.381	1.709	1708.6	generate	Run1	generate/STIM_003.jpg	99
78.456	1.45	1450.1	generate	Run1	generate/STIM_003.jpg	100
82.634	1.118	1117.7	generate	Run1	generate/STIM_003.jpg	99
86.95	1.501	1500.9	generate	Run1	generate/STIM_004.jpg	100
90.692	1.504	1504.2	generate	Run1	generate/STIM_004.jpg	99
94.709	1.27	1270.1	generate	Run1	generate/STIM_004.jpg	100
99.093	2.275	2275.4	generate	Run1	generate/STIM_004.jpg	100
104.672	1.264	1263.6	generate	Run1	generate/STIM_004.jpg	100
108.826	1.864	1864.1	generate	Run1	generate/STIM_005.jpg	100
113.198	2.376	2375.5	generate	Run1	generate/STIM_005.jpg	99
119.301	1.108	1107.8	generate	Run1	generate/STIM_005.jpg	100
122.857	1.828	1827.5	generate	Run1	generate/STIM_005.jpg	99
128.035	1.709	1709.1	generate	Run1	generate/STIM_005.jpg	99
133.03	1.753	1753.4	generate	Run1	generate/STIM_006.jpg	100
138.666	2.517	2517.4	generate	Run1	generate/STIM_006.jpg	100
144.675	1.431	1431.0	generate	Run1	generate/STIM_006.jpg	100
148.616	2.283	2282.6	generate	Run1	generate/STIM_006.jpg	100
153.295	2.105	2105.2	generate	Run1	generate/STIM_006.jpg	99
157.771	1.823	1822.9	generate	Run1	generate/STIM_007.jpg	99
161.621	1.154	1153.9	generate	Run1	generate/STIM_007.jpg	100
166.145	2.228	2228.2	generate	Run1	generate/STIM_007.jpg	99
170.862	1.082	1081.8	generate	Run1	generate/STIM_007.jpg	99
174.338	2.244	2243.6	generate	Run1	generate/STIM_007.jpg	100
178.715	2.164	2164.3	generate	Run1	generate/STIM_008.jpg	100
184.024	1.423	1422.6	generate	Run1	generate/STIM_008.jpg	100
188.843	1.564	1563.5	generate	Run1	generate/STIM_008.jpg	100
192.903	0.964	964.1	generate	Run1	generate/STIM_008.jpg	99
197.242	2.194	2193.5	generate	Run1	generate/STIM_008.jpg	100
202.81	1.82	1819.9	generate	Run1	generate/STIM_009.jpg	99
207.547	2.454	2453.7	generate	Run1	generate/STIM_009.jpg	99
213.207	1.854	1854.1	generate	Run1	generate/STIM_009.jpg	100
217.628	2.176	2175.7	generate	Run1	generate/STIM_009.jpg	100
221.921	1.021	1020.8	generate	Run1	generate/STIM_009.jpg	100
226.357	2.276	2275.7	generate	Run1	generate/STIM_010.jpg	100
230.723	1.153	1152.9	generate	Run1	generate/STIM_010.jpg	100
235.807	1.456	1455.6	generate	Run1	generate/STIM_010.jpg	99
240.662	1.673	1673.0	generate	Run1	generate/STIM_010.jpg	99
244.866	1.14	1140.5	generate	Run1	generate/STIM_010.jpg	100
248.778	2.46	2459.7	generate	Run1	generate/STIM_011.jpg	100
253.275	1.766	1766.4	generate	Run1	generate/STIM_011.jpg	99
258.954	1.105	1104.6	generate	Run1	generate/STIM_011.jpg	100
262.316	2.319	2319.2	generate	Run1	generate/STIM_011.jpg	100
267.101	2.192	2191.5	generate	Run1	generate/STIM_011.jpg	99
272.536	2.028	2028.0	generate	Run1	generate/STIM_012.jpg	99
278.398	2.625	2625.4	generate	Run1	generate/STIM_012.jpg	99
283.655	1.455	1455.3	generate	Run1	generate/STIM_012.jpg	100
287.497	1.0	999.7	generate	Run1	generate/STIM_012.jpg	100
291.395	1.698	1698.4	generate	Run1	generate/STIM_012.jpg	100
296.389	1.41	1410.2	generate	Run1	generate/STIM_013.jpg	99
300.757	1.501	1501.0	generate	Run1	generate/STIM_013.jpg	100
305.58	1.276	1276.5	generate	Run1	generate/STIM_013.jpg	100
310.775	2.154	2153.6	generate	Run1	generate/STIM_013.jpg	99
315.049	1.113	1113.2	generate	Run1	generate/STIM_013.jpg	99
318.639	1.193	1193.2	generate	Run1	generate/STIM_014.jpg	99
323.095	2.243	2242.8	generate	Run1	generate/STIM_014.jpg	99
329.245	1.754	1753.8	generate	Run1	generate/STIM_014.jpg	100
333.638	2.225	2224.8	generate	Run1	generate/STIM_014.jpg	99
339.261	1.392	1392.1	generate	Run1	generate/STIM_014.jpg	100
343.452	1.865	1865.2	generate	Run1	generate/STIM_015.jpg	100
348.582	2.243	2243.4	generate	Run1	generate/STIM_015.jpg	99
353.05	1.236	1235.9	generate	Run1	generate/STIM_015.jpg	100
358.103	1.398	1398.1	generate	Run1	generate/STIM_015.jpg	100
363.269	2.065	2064.7	generate	Run1	generate/STIM_015.jpg	99
368.409	2.336	2335.6	generate	Run1	generate/STIM_016.jpg	100
373.934	1.394	1394.3	generate	Run1	generate/STIM_016.jpg	100
379.019	1.829	1828.8	generate	Run1	generate/STIM_016.jpg	99
384.175	1.836	1835.6	generate	Run1	generate/STIM_016.jpg	100
388.83	1.748	1747.5	generate	Run1	generate/STIM_016.jpg	100
393.64	1.272	1271.9	generate	Run1	generate/STIM_017.jpg	100
398.365	1.714	1714.2	generate	Run1	generate/STIM_017.jpg	100
403.859	2.346	2346.3	generate	Run1	generate/STIM_017.jpg	99
408.217	1.22	1219.8	generate	Run1	generate/STIM_017.jpg	99
412.281	1.049	1049.3	generate	Run1	generate/STIM_017.jpg	99
416.225	1.619	1618.9	generate	Run1	generate/STIM_018.jpg	100
421.744	1.319	1319.2	generate	Run1	generate/STIM_018.jpg	100
426.562	2.327	2326.9	generate	Run1	generate/STIM_018.jpg	100
432.571	2.161	2161.2	generate	Run1	generate/STIM_018.jpg	99
438.453	1.747	1746.9	generate	Run1	generate/STIM_018.jpg	100
443.634	2.052	2052.0	generate	Run1	generate/STIM_019.jpg	99
449.584	1.14	1140.2	generate	Run1	generate/STIM_019.jpg	99
453.136	2.012	2011.8	generate	Run1	generate/STIM_019.jpg	99
457.751	1.355	1355.3	generate	Run1	generate/STIM_019.jpg	99
462.499	0.912	912.2	generate	Run1	generate/STIM_019.jpg	99
465.851	1.465	1465.2	generate	Run1	generate/STIM_020.jpg	99
471.271	1.683	1683.2	generate	Run1	generate/STIM_020.jpg	100
475.05	2.06	2060.2	generate	Run1	generate/STIM_020.jpg	100
481.097	2.388	2388.3	generate	Run1	generate/STIM_020.jpg	100
485.928	0.934	934.1	generate	Run1	generate/STIM_020.jpg	99
488.913	2.398	2398.3	generate	Run1	generate/STIM_021.jpg	100
493.56	1.47	1469.5	generate	Run1	generate/STIM_021.jpg	99
498.978	1.934	1933.9	generate	Run1	generate/STIM_021.jpg	99
504.581	1.834	1833.5	generate	Run1	generate/STIM_021.jpg	99
509.332	0.935	935.2	generate	Run1	generate/STIM_021.jpg	99
513.928	1.752	1752.3	generate	Run1	generate/STIM_022.jpg	99
518.276	1.101	1101.0	generate	Run1	generate/STIM_022.jpg	100
521.903	2.099	2099.4	generate	Run1	generate/STIM_022.jpg	99
527.35	1.807	1806.6	generate	Run1	generate/STIM_022.jpg	100
531.67	1.142	1142.2	generate	Run1	generate/STIM_022.jpg	100
536.007	1.573	1573.2	generate	Run1	generate/STIM_023.jpg	99
541.093	2.228	2228.1	generate	Run1	generate/STIM_023.jpg	99
545.577	2.327	2327.0	generate	Run1	generate/STIM_023.jpg	99
550.537	2.268	2267.7	generate	Run1	generate/STIM_023.jpg	100
555.484	2.186	2186.5	generate	Run1	generate/STIM_023.jpg	100
561.019	2.648	2648.3	generate	Run1	generate/STIM_024.jpg	99
566.666	1.385	1384.6	generate	Run1	generate/STIM_024.jpg	100
570.829	2.363	2363.0	generate	Run1	generate/STIM_024.jpg	100
576.522	2.291	2290.8	generate	Run1	generate/STIM_024.jpg	99
581.896	1.675	1674.8	generate	Run1	generate/STIM_024.jpg	99
587.376	0.859	859.0	repeat	Run1	repeat/STIM_000.jpg	99
591.951	0.837	837.4	repeat	Run1	repeat/STIM_000.jpg	99
595.894	0.555	554.6	repeat	Run1	repeat/STIM_000.jpg	99
600.419	0.728	727.6	repeat	Run1	repeat/STIM_000.jpg	100
603.243	0.584	584.1	repeat	Run1	repeat/STIM_000.jpg	100
606.631	0.671	671.1	repeat	Run1	repeat/STIM_001.jpg	99
609.833	0.899	898.7	repeat	Run1	repeat/STIM_001.jpg	99
614.005	0.645	645.4	repeat	Run1	repeat/STIM_001.jpg	99
617.544	0.853	853.1	repeat	Run1	repeat/STIM_001.jpg	100
620.757	0.845	845.1	repeat	Run1	repeat/STIM_001.jpg	100
624.872	0.54	540.3	repeat	Run1	repeat/STIM_002.jpg	100
629.087	0.865	865.4	repeat	Run1	repeat/STIM_002.jpg	100
632.461	0.744	744.5	repeat	Run1	repeat/STIM_002.jpg	99
637.011	0.804	804.3	repeat	Run1	repeat/STIM_002.jpg	99
640.765	0.543	543.4	repeat	Run1	repeat/STIM_002.jpg	99
644.769	0.771	771.2	repeat	Run1	repeat/STIM_003.jpg	99
648.259	0.842	842.0	repeat	Run1	repeat/STIM_003.jpg	100
652.618	0.602	602.1	repeat	Run1	repeat/STIM_003.jpg	100
656.725	0.599	598.7	repeat	Run1	repeat/STIM_003.jpg	100
660.735	0.71	709.7	repeat	Run1	repeat/STIM_003.jpg	100
665.314	0.716	716.3	repeat	Run1	repeat/STIM_004.jpg	99
669.685	0.832	832.4	repeat	Run1	repeat/STIM_004.jpg	99
673.727	0.848	848.2	repeat	Run1	repeat/STIM_004.jpg	99
678.136	0.485	484.7	repeat	Run1	repeat/STIM_004.jpg	100
681.681	0.565	564.7	repeat	Run1	repeat/STIM_004.jpg	99
685.581	0.662	661.9	repeat	Run1	repeat/STIM_005.jpg	100
688.504	0.522	521.9	repeat	Run1	repeat/STIM_005.jpg	100
691.146	0.631	630.6	repeat	Run1	repeat/STIM_005.jpg	99
694.031	0.69	689.8	repeat	Run1	repeat/STIM_005.jpg	99
696.816	0.544	543.5	repeat	Run1	repeat/STIM_005.jpg	99
701.225	0.671	670.9	repeat	Run1	repeat/STIM_006.jpg	100
705.202	0.657	657.0	repeat	Run1	repeat/STIM_006.jpg	100
707.904	0.576	576.5	repeat	Run1	repeat/STIM_006.jpg	99
712.152	0.597	597.2	repeat	Run1	repeat/STIM_006.jpg	100
715.068	0.807	807.2	repeat	Run1	repeat/STIM_006.jpg	99
718.7	0.517	516.9	repeat	Run1	repeat/STIM_007.jpg	100
721.758	0.902	902.0	repeat	Run1	repeat/STIM_007.jpg	100
725.841	0.664	664.4	repeat	Run1	repeat/STIM_007.jpg	100
729.597	0.698	698.2	repeat	Run1	repeat/STIM_007.jpg	100
733.055	0.818	817.8	repeat	Run1	repeat/STIM_007.jpg	100
736.128	0.663	662.7	repeat	Run1	repeat/STIM_008.jpg	99
739.203	0.791	790.8	repeat	Run1	repeat/STIM_008.jpg	100
742.486	0.49	490.4	repeat	Run1	repeat/STIM_008.jpg	100
746.831	0.891	891.3	repeat	Run1	repeat/STIM_008.jpg	99
750.318	0.573	572.9	repeat	Run1	repeat/STIM_008.jpg	99
753.133	0.605	605.1	repeat	Run1	repeat/STIM_009.jpg	99
756.601	0.634	633.8	repeat	Run1	repeat/STIM_009.jpg	99
760.762	0.914	913.5	repeat	Run1	repeat/STIM_009.jpg	99
765.427	0.682	682.5	repeat	Run1	repeat/STIM_009.jpg	100
770.027	0.538	537.9	repeat	Run1	repeat/STIM_009.jpg	99
773.821	0.659	659.2	repeat	Run1	repeat/STIM_010.jpg	99
776.862	0.783	782.6	repeat	Run1	repeat/STIM_010.jpg	99
780.648	0.48	479.9	repeat	Run1	repeat/STIM_010.jpg	100
784.774	0.654	654.1	repeat	Run1	repeat/STIM_010.jpg	99
788.289	0.475	474.8	repeat	Run1	repeat/STIM_010.jpg	99
791.354	0.553	552.9	repeat	Run1	repeat/STIM_011.jpg	100
795.865	0.504	504.1	repeat	Run1	repeat/STIM_011.jpg	100
799.102	0.613	613.2	repeat	Run1	repeat/STIM_011.jpg	99
801.797	0.846	846.1	repeat	Run1	repeat/STIM_011.jpg	100
806.234	0.752	752.2	repeat	Run1	repeat/STIM_011.jpg	100
810.297	0.837	837.0	repeat	Run1	repeat/STIM_012.jpg	100
814.153	0.871	871.1	repeat	Run1	repeat/STIM_012.jpg	100
818.528	0.59	590.5	repeat	Run1	repeat/STIM_012.jpg	99
821.334	0.587	586.9	repeat	Run1	repeat/STIM_012.jpg	99
824.464	0.808	807.7	repeat	Run1	repeat/STIM_012.jpg	99
827.537	0.704	704.5	repeat	Run1	repeat/STIM_013.jpg	100
831.003	0.821	821.4	repeat	Run1	repeat/STIM_013.jpg	99
834.588	0.889	888.9	repeat	Run1	repeat/STIM_013.jpg	99
839.135	0.792	791.5	repeat	Run1	repeat/STIM_013.jpg	100
842.232	0.762	762.3	repeat	Run1	repeat/STIM_013.jpg	100
845.831	0.744	743.6	repeat	Run1	repeat/STIM_014.jpg	99
849.362	0.495	495.4	repeat	Run1	repeat/STIM_014.jpg	100
853.389	0.783	782.9	repeat	Run1	repeat/STIM_014.jpg	100
856.303	0.667	667.1	repeat	Run1	repeat/STIM_014.jpg	100
859.288	0.737	737.1	repeat	Run1	repeat/STIM_014.jpg	100
862.645	1.288	1287.5	generate	Run2	generate/STIM_000.jpg	100
866.058	1.69	1689.6	generate	Run2	generate/STIM_000.jpg	99
871.642	0.962	962.5	generate	Run2	generate/STIM_000.jpg	100
875.332	0.968	968.0	generate	Run2	generate/STIM_000.jpg	99
879.84	1.344	1343.9	generate	Run2	generate/STIM_000.jpg	100
883.608	1.048	1048.4	generate	Run2	generate/STIM_001.jpg	100
887.914	1.334	1333.6	generate	Run2	generate/STIM_001.jpg	100
892.33	1.282	1281.7	generate	Run2	generate/STIM_001.jpg	100
897.308	1.809	1809.3	generate	Run2	generate/STIM_001.jpg	99
901.932	1.955	1954.9	generate	Run2	generate/STIM_001.jpg	99
907.307	1.516	1515.6	generate	Run2	generate/STIM_002.jpg	100
911.208	2.215	2214.8	generate	Run2	generate/STIM_002.jpg	99
917.168	0.915	915.2	generate	Run2	generate/STIM_002.jpg	100
921.834	1.242	1242.5	generate	Run2	generate/STIM_002.jpg	99
925.502	1.438	1438.5	generate	Run2	generate/STIM_002.jpg	100
930.786	1.883	1882.9	generate	Run2	generate/STIM_003.jpg	99
936.454	1.77	1769.8	generate	Run2	generate/STIM_003.jpg	99
941.489	1.693	1692.9	generate	Run2	generate/STIM_003.jpg	99
945.39	1.555	1554.6	generate	Run2	generate/STIM_003.jpg	99
949.544	0.794	794.4	generate	Run2	generate/STIM_003.jpg	99
953.883	1.578	1577.7	generate	Run2	generate/STIM_004.jpg	99
959.426	1.176	1176.1	generate	Run2	generate/STIM_004.jpg	99
962.714	1.361	1361.3	generate	Run2	generate/STIM_004.jpg	100
967.909	1.087	1087.0	generate	Run2	generate/STIM_004.jpg	99
972.898	0.858	857.5	generate	Run2	generate/STIM_004.jpg	99
977.565	1.134	1134.3	generate	Run2	generate/STIM_005.jpg	99
980.771	1.568	1567.7	generate	Run2	generate/STIM_005.jpg	100
985.079	1.524	1524.1	generate	Run2	generate/STIM_005.jpg	99
990.26	0.956	955.8	generate	Run2	generate/STIM_005.jpg	99
994.241	1.746	1746.4	generate	Run2	generate/STIM_005.jpg	100
998.81	1.39	1390.0	generate	Run2	generate/STIM_006.jpg	99
1003.269	1.035	1034.9	generate	Run2	generate/STIM_006.jpg	100
1007.87	1.187	1187.2	generate	Run2	generate/STIM_006.jpg	100
1012.602	1.181	1181.2	generate	Run2	generate/STIM_006.jpg	100
1016.454	1.058	1058.3	generate	Run2	generate/STIM_006.jpg	100
1020.191	1.206	1205.9	generate	Run2	generate/STIM_007.jpg	100
1023.515	1.937	1937.0	generate	Run2	generate/STIM_007.jpg	99
1029.367	1.492	1492.2	generate	Run2	generate/STIM_007.jpg	100
1034.074	1.565	1564.6	generate	Run2	generate/STIM_007.jpg	99
1037.909	1.511	1511.3	generate	Run2	generate/STIM_007.jpg	99
1042.778	2.315	2314.8	generate	Run2	generate/STIM_008.jpg	100
1047.457	2.176	2176.3	generate	Run2	generate/STIM_008.jpg	100
1052.551	1.243	1242.8	generate	Run2	generate/STIM_008.jpg	100
1056.99	1.715	1715.4	generate	Run2	generate/STIM_008.jpg	100
1062.618	1.686	1685.5	generate	Run2	generate/STIM_008.jpg	100
1068.018	2.149	2148.8	generate	Run2	generate/STIM_009.jpg	99
1072.609	0.973	972.8	generate	Run2	generate/STIM_009.jpg	100
1077.401	1.135	1135.4	generate	Run2	generate/STIM_009.jpg	99
1081.588	1.785	1784.9	generate	Run2	generate/STIM_009.jpg	100
1085.615	1.597	1597.3	generate	Run2	generate/STIM_009.jpg	100
1091.004	1.136	1136.1	generate	Run2	generate/STIM_010.jpg	99
1095.69	1.259	1258.6	generate	Run2	generate/STIM_010.jpg	100
1099.623	1.911	1910.9	generate	Run2	generate/STIM_010.jpg	99
1103.558	1.436	1436.0	generate	Run2	generate/STIM_010.jpg	99
1107.947	1.761	1761.4	generate	Run2	generate/STIM_010.jpg	100
1112.406	1.328	1327.9	generate	Run2	generate/STIM_011.jpg	99
1117.44	1.698	1697.7	generate	Run2	generate/STIM_011.jpg	100
1121.708	2.006	2005.8	generate	Run2	generate/STIM_011.jpg	99
1126.428	1.456	1455.8	generate	Run2	generate/STIM_011.jpg	99
1131.619	1.84	1840.2	generate	Run2	generate/STIM_011.jpg	100
1136.639	1.876	1875.9	generate	Run2	generate/STIM_012.jpg	99
1141.267	1.336	1336.2	generate	Run2	generate/STIM_012.jpg	99
1146.599	0.929	929.2	generate	Run2	generate/STIM_012.jpg	100
1150.714	1.361	1361.3	generate	Run2	generate/STIM_012.jpg	100
1155.957	1.72	1720.0	generate	Run2	generate/STIM_012.jpg	99
1160.831	2.104	2103.6	generate	Run2	generate/STIM_013.jpg	100
1166.561	1.81	1809.7	generate	Run2	generate/STIM_013.jpg	99
1171.007	2.114	2114.0	generate	Run2	generate/STIM_013.jpg	99
1175.583	1.737	1736.7	generate	Run2	generate/STIM_013.jpg	99
1179.672	1.329	1329.3	generate	Run2	generate/STIM_013.jpg	99
1184.078	1.257	1257.2	generate	Run2	generate/STIM_014.jpg	99
1187.571	1.068	1068.1	generate	Run2	generate/STIM_014.jpg	99
1190.787	2.019	2018.6	generate	Run2	generate/STIM_014.jpg	99
1195.347	1.65	1650.4	generate	Run2	generate/STIM_014.jpg	100
1200.685	0.93	930.3	generate	Run2	generate/STIM_014.jpg	100
1203.794	2.295	2294.9	generate	Run2	generate/STIM_015.jpg	99
1208.156	1.319	1318.8	generate	Run2	generate/STIM_015.jpg	99
1212.795	1.857	1857.2	generate	Run2	generate/STIM_015.jpg	99
1217.518	1.838	1837.6	generate	Run2	generate/STIM_015.jpg	99
1221.978	1.567	1566.8	generate	Run2	generate/STIM_015.jpg	99
1227.359	1.49	1489.7	generate	Run2	generate/STIM_016.jpg	100
1232.458	2.18	2180.3	generate	Run2	generate/STIM_016.jpg	100
1237.419	1.552	1552.4	generate	Run2	generate/STIM_016.jpg	99
1241.858	1.08	1079.5	generate	Run2	generate/STIM_016.jpg	100
1246.336	1.173	1172.9	generate	Run2	generate/STIM_016.jpg	100
1249.571	1.654	1653.9	generate	Run2	generate/STIM_017.jpg	100
1254.95	1.119	1119.0	generate	Run2	generate/STIM_017.jpg	100
1258.492	1.33	1330.1	generate	Run2	generate/STIM_017.jpg	100
1262.338	1.9	1899.5	generate	Run2	generate/STIM_017.jpg	99
1267.041	0.912	912.0	generate	Run2	generate/STIM_017.jpg	100
1270.291	2.148	2148.3	generate	Run2	generate/STIM_018.jpg	100
1275.348	0.918	917.7	generate	Run2	generate/STIM_018.jpg	99
1280.02	1.424	1423.7	generate	Run2	generate/STIM_018.jpg	100
1284.148	1.495	1495.2	generate	Run2	generate/STIM_018.jpg	99
1288.176	1.136	1136.5	generate	Run2	generate/STIM_018.jpg	99
1291.981	1.493	1492.7	generate	Run2	generate/STIM_019.jpg	100
1296.377	0.932	931.8	generate	Run2	generate/STIM_019.jpg	100
1299.938	1.957	1957.3	generate	Run2	generate/STIM_019.jpg	99
1304.447	1.032	1032.2	generate	Run2	generate/STIM_019.jpg	99
1308.135	1.276	1275.8	generate	Run2	generate/STIM_019.jpg	100
1311.696	1.622	1622.2	generate	Run2	generate/STIM_020.jpg	99
1315.947	1.645	1644.9	generate	Run2	generate/STIM_020.jpg	100
1320.702	1.943	1942.6	generate	Run2	generate/STIM_020.jpg	99
1325.263	1.306	1306.0	generate	Run2	generate/STIM_020.jpg	99
1328.978	1.367	1367.0	generate	Run2	generate/STIM_020.jpg	99
1332.862	1.242	1241.6	generate	Run2	generate/STIM_021.jpg	99
1337.036	1.449	1449.3	generate	Run2	generate/STIM_021.jpg	100
1340.512	1.995	1995.4	generate	Run2	generate/STIM_021.jpg	99
1344.983	1.885	1884.7	generate	Run2	generate/STIM_021.jpg	100
1349.67	0.908	907.8	generate	Run2	generate/STIM_021.jpg	100
1354.19	2.357	2357.2	generate	Run2	generate/STIM_022.jpg	99
1359.741	1.95	1949.5	generate	Run2	generate/STIM_022.jpg	99
1365.276	1.434	1434.5	generate	Run2	generate/STIM_022.jpg	99
1369.696	1.723	1722.8	generate	Run2	generate/STIM_022.jpg	99
1373.501	0.822	822.0	generate	Run2	generate/STIM_022.jpg	100
1377.446	1.085	1085.2	generate	Run2	generate/STIM_023.jpg	99
1382.165	2.212	2212.2	generate	Run2	generate/STIM_023.jpg	100
1388.082	0.908	908.2	generate	Run2	generate/STIM_023.jpg	100
1392.43	1.716	1715.9	generate	Run2	generate/STIM_023.jpg	99
1396.346	1.251	1251.0	generate	Run2	generate/STIM_023.jpg	99
1400.289	1.453	1452.6	generate	Run2	generate/STIM_024.jpg	99
1403.811	1.298	1298.2	generate	Run2	generate/STIM_024.jpg	100
1407.278	1.256	1255.7	generate	Run2	generate/STIM_024.jpg	99
1411.766	0.804	804.3	generate	Run2	generate/STIM_024.jpg	100
1415.796	0.956	956.0	generate	Run2	generate/STIM_024.jpg	99
1419.37	0.816	816.0	repeat	Run2	repeat/STIM_000.jpg	100
1423.171	0.487	487.4	repeat	Run2	repeat/STIM_000.jpg	99
1426.437	0.883	883.0	repeat	Run2	repeat/STIM_000.jpg	100
1429.545	0.796	795.5	repeat	Run2	repeat/STIM_000.jpg	100
1433.745	0.94	940.0	repeat	Run2	repeat/STIM_000.jpg	99
1436.813	0.64	640.4	repeat	Run2	repeat/STIM_001.jpg	99
1439.724	0.578	577.9	repeat	Run2	repeat/STIM_001.jpg	99
1443.329	0.675	675.3	repeat	Run2	repeat/STIM_001.jpg	99
1446.457	0.679	678.9	repeat	Run2	repeat/STIM_001.jpg	100
1450.137	0.692	692.4	repeat	Run2	repeat/STIM_001.jpg	100
1453.376	0.82	819.5	repeat	Run2	repeat/STIM_002.jpg	99
1457.418	0.851	851.2	repeat	Run2	repeat/STIM_002.jpg	100
1462.085	0.623	623.2	repeat	Run2	repeat/STIM_002.jpg	99
1465.337	0.874	873.6	repeat	Run2	repeat/STIM_002.jpg	99
1468.219	0.7	700.2	repeat	Run2	repeat/STIM_002.jpg	100
1470.934	0.67	670.4	repeat	Run2	repeat/STIM_003.jpg	99
1475.203	0.894	893.9	repeat	Run2	repeat/STIM_003.jpg	99
1478.324	0.939	938.8	repeat	Run2	repeat/STIM_003.jpg	100
1482.094	0.575	575.4	repeat	Run2	repeat/STIM_003.jpg	100
1485.294	0.767	767.3	repeat	Run2	repeat/STIM_003.jpg	99
1489.669	0.622	622.5	repeat	Run2	repeat/STIM_004.jpg	100
1492.754	0.696	695.7	repeat	Run2	repeat/STIM_004.jpg	100
1495.991	0.838	837.8	repeat	Run2	repeat/STIM_004.jpg	100
1499.629	0.754	753.8	repeat	Run2	repeat/STIM_004.jpg	99
1503.802	0.928	928.4	repeat	Run2	repeat/STIM_004.jpg	100
1507.012	0.479	478.8	repeat	Run2	repeat/STIM_005.jpg	99
1511.383	0.848	847.5	repeat	Run2	repeat/STIM_005.jpg	99
1515.571	0.608	608.0	repeat	Run2	repeat/STIM_005.jpg	100
1519.761	0.828	828.2	repeat	Run2	repeat/STIM_005.jpg	100
1523.609	0.606	605.5	repeat	Run2	repeat/STIM_005.jpg	99
1527.854	0.551	551.4	repeat	Run2	repeat/STIM_006.jpg	100
1532.019	0.546	546.0	repeat	Run2	repeat/STIM_006.jpg	99
1535.817	0.862	861.6	repeat	Run2	repeat/STIM_006.jpg	99
1540.053	0.698	698.5	repeat	Run2	repeat/STIM_006.jpg	99
1543.775	0.566	565.6	repeat	Run2	repeat/STIM_006.jpg	99
1547.79	0.783	783.1	repeat	Run2	repeat/STIM_007.jpg	100
1552.012	0.677	677.0	repeat	Run2	repeat/STIM_007.jpg	100
1556.611	0.536	536.3	repeat	Run2	repeat/STIM_007.jpg	99
1560.688	0.718	717.5	repeat	Run2	repeat/STIM_007.jpg	99
1564.798	0.591	590.7	repeat	Run2	repeat/STIM_007.jpg	99
1568.408	0.867	866.8	repeat	Run2	repeat/STIM_008.jpg	99
1572.37	0.77	770.1	repeat	Run2	repeat/STIM_008.jpg	100
1576.329	0.807	806.8	repeat	Run2	repeat/STIM_008.jpg	99
1579.993	0.772	772.1	repeat	Run2	repeat/STIM_008.jpg	100
1584.366	0.93	929.6	repeat	Run2	repeat/STIM_008.jpg	99
1588.12	0.688	688.5	repeat	Run2	repeat/STIM_009.jpg	100
1592.146	0.501	501.4	repeat	Run2	repeat/STIM_009.jpg	99
1595.829	0.801	800.6	repeat	Run2	repeat/STIM_009.jpg	99
1600.617	0.563	562.8	repeat	Run2	repeat/STIM_009.jpg	99
1604.263	0.831	831.3	repeat	Run2	repeat/STIM_009.jpg	100
1608.562	0.472	471.5	repeat	Run2	repeat/STIM_010.jpg	99
1612.005	0.697	696.7	repeat	Run2	repeat/STIM_010.jpg	100
1616.209	0.615	614.7	repeat	Run2	repeat/STIM_010.jpg	99
1619.484	0.506	505.9	repeat	Run2	repeat/STIM_010.jpg	100
1623.705	0.605	605.3	repeat	Run2	repeat/STIM_010.jpg	99
1627.479	0.847	846.7	repeat	Run2	repeat/STIM_011.jpg	99
1631.518	0.528	527.5	repeat	Run2	repeat/STIM_011.jpg	100
1634.786	0.6	600.0	repeat	Run2	repeat/STIM_011.jpg	100
1639.129	0.896	896.0	repeat	Run2	repeat/STIM_011.jpg	99
1643.893	0.539	539.4	repeat	Run2	repeat/STIM_011.jpg	100
1646.542	0.885	884.9	repeat	Run2	repeat/STIM_012.jpg	100
1649.784	0.503	502.6	repeat	Run2	repeat/STIM_012.jpg	100
1654.17	0.541	540.6	repeat	Run2	repeat/STIM_012.jpg	100
1657.736	0.623	623.4	repeat	Run2	repeat/STIM_012.jpg	99
1660.416	0.889	889.2	repeat	Run2	repeat/STIM_012.jpg	100
1665.115	0.661	660.6	repeat	Run2	repeat/STIM_013.jpg	99
1668.642	0.909	908.7	repeat	Run2	repeat/STIM_013.jpg	99
1671.962	0.81	809.6	repeat	Run2	repeat/STIM_013.jpg	100
1676.403	0.792	791.6	repeat	Run2	repeat/STIM_013.jpg	100
1680.556	0.56	559.6	repeat	Run2	repeat/STIM_013.jpg	99
1684.918	0.509	509.4	repeat	Run2	repeat/STIM_014.jpg	99
1688.403	0.634	634.1	repeat	Run2	repeat/STIM_014.jpg	99
1692.072	0.567	566.6	repeat	Run2	repeat/STIM_014.jpg	99
1695.143	0.663	663.2	repeat	Run2	repeat/STIM_014.jpg	99
1699.041	0.867	866.6	repeat	Run2	repeat/STIM_014.jpg	99
1702.986	1.018	1017.9	generate	Run3	generate/STIM_000.jpg	100
1707.296	1.289	1289.3	generate	Run3	generate/STIM_000.jpg	99
1711.071	1.528	1527.6	generate	Run3	generate/STIM_000.jpg	99
1715.771	1.402	1401.8	generate	Run3	generate/STIM_000.jpg	99
1719.426	1.887	1887.3	generate	Run3	generate/STIM_000.jpg	99
1723.429	1.586	1586.2	generate	Run3	generate/STIM_001.jpg	100
1728.845	1.264	1264.4	generate	Run3	generate/STIM_001.jpg	99
1732.619	0.979	979.2	generate	Run3	generate/STIM_001.jpg	99
1737.271	1.93	1930.0	generate	Run3	generate/STIM_001.jpg	99
1741.949	0.949	948.8	generate	Run3	generate/STIM_001.jpg	100
1745.912	1.863	1862.7	generate	Run3	generate/STIM_002.jpg	99
1751.232	1.728	1728.2	generate	Run3	generate/STIM_002.jpg	99
1755.174	0.912	912.1	generate	Run3	generate/STIM_002.jpg	99
1759.253	0.919	918.7	generate	Run3	generate/STIM_002.jpg	99
1764.066	1.069	1068.7	generate	Run3	generate/STIM_002.jpg	100
1768.433	1.127	1126.8	generate	Run3	generate/STIM_003.jpg	99
1772.174	1.873	1873.0	generate	Run3	generate/STIM_003.jpg	99
1777.861	1.727	1727.1	generate	Run3	generate/STIM_003.jpg	99
1782.206	1.333	1333.4	generate	Run3	generate/STIM_003.jpg	100
1787.471	1.613	1612.9	generate	Run3	generate/STIM_003.jpg	99
1791.782	0.814	814.4	generate	Run3	generate/STIM_004.jpg	100
1795.334	0.911	911.2	generate	Run3	generate/STIM_004.jpg	99
1798.353	0.932	932.1	generate	Run3	generate/STIM_004.jpg	99
1803.076	1.941	1941.0	generate	Run3	generate/STIM_004.jpg	100
1807.264	1.048	1048.2	generate	Run3	generate/STIM_004.jpg	100
1810.922	1.466	1466.4	generate	Run3	generate/STIM_005.jpg	100
1815.263	1.055	1055.0	generate	Run3	generate/STIM_005.jpg	100
1819.332	1.88	1880.3	generate	Run3	generate/STIM_005.jpg	99
1824.5	0.958	957.5	generate	Run3	generate/STIM_005.jpg	100
1827.725	1.302	1302.4	generate	Run3	generate/STIM_005.jpg	100
1832.767	1.601	1601.0	generate	Run3	generate/STIM_006.jpg	100
1836.522	1.908	1908.0	generate	Run3	generate/STIM_006.jpg	99
1841.313	1.063	1063.0	generate	Run3	generate/STIM_006.jpg	99
1844.865	1.692	1691.7	generate	Run3	generate/STIM_006.jpg	100
1850.219	0.994	994.5	generate	Run3	generate/STIM_006.jpg	99
1853.545	1.199	1199.3	generate	Run3	generate/STIM_007.jpg	100
1857.647	1.122	1121.5	generate	Run3	generate/STIM_007.jpg	100
1862.225	1.308	1307.7	generate	Run3	generate/STIM_007.jpg	99
1865.594	0.88	879.7	generate	Run3	generate/STIM_007.jpg	99
1870.31	1.89	1890.1	generate	Run3	generate/STIM_007.jpg	100
1876.116	1.351	1350.7	generate	Run3	generate/STIM_008.jpg	99
1880.634	1.624	1623.6	generate	Run3	generate/STIM_008.jpg	99
1885.621	0.924	923.8	generate	Run3	generate/STIM_008.jpg	99
1889.463	1.948	1947.6	generate	Run3	generate/STIM_008.jpg	100
1893.454	1.109	1109.3	generate	Run3	generate/STIM_008.jpg	99
1897.029	1.363	1363.4	generate	Run3	generate/STIM_009.jpg	100
1900.545	1.199	1198.9	generate	Run3	generate/STIM_009.jpg	99
1904.683	1.324	1324.1	generate	Run3	generate/STIM_009.jpg	100
1909.668	1.548	1547.7	generate	Run3	generate/STIM_009.jpg	100
1914.993	1.068	1068.5	generate	Run3	generate/STIM_009.jpg	100
1918.24	1.822	1821.8	generate	Run3	generate/STIM_010.jpg	100
1923.033	1.714	1713.6	generate	Run3	generate/STIM_010.jpg	99
1927.51	1.814	1814.0	generate	Run3	generate/STIM_010.jpg	99
1932.335	1.944	1944.1	generate	Run3	generate/STIM_010.jpg	99
1937.642	1.66	1659.8	generate	Run3	generate/STIM_010.jpg	100
1942.715	1.295	1294.9	generate	Run3	generate/STIM_011.jpg	99
1946.495	1.126	1126.2	generate	Run3	generate/STIM_011.jpg	100
1950.19	1.767	1766.7	generate	Run3	generate/STIM_011.jpg	99
1955.749	1.761	1760.9	generate	Run3	generate/STIM_011.jpg	100
1961.362	1.361	1361.0	generate	Run3	generate/STIM_011.jpg	99
1966.704	1.007	1007.4	generate	Run3	generate/STIM_012.jpg	100
1970.537	1.566	1566.3	generate	Run3	generate/STIM_012.jpg	100
1975.328	1.109	1109.0	generate	Run3	generate/STIM_012.jpg	99
1978.947	1.311	1310.9	generate	Run3	generate/STIM_012.jpg	99
1982.707	1.37	1369.8	generate	Run3	generate/STIM_012.jpg	99
1986.562	1.709	1709.1	generate	Run3	generate/STIM_013.jpg	99
1990.674	1.653	1652.9	generate	Run3	generate/STIM_013.jpg	100
1994.715	0.964	963.5	generate	Run3	generate/STIM_013.jpg	99
1999.317	1.956	1955.5	generate	Run3	generate/STIM_013.jpg	100
2003.519	1.035	1035.0	generate	Run3	generate/STIM_013.jpg	99
2007.307	1.611	1610.9	generate	Run3	generate/STIM_014.jpg	99
2012.824	1.049	1049.0	generate	Run3	generate/STIM_014.jpg	99
2016.825	1.167	1166.9	generate	Run3	generate/STIM_014.jpg	100
2021.139	1.152	1151.5	generate	Run3	generate/STIM_014.jpg	99
2026.008	0.832	831.8	generate	Run3	generate/STIM_014.jpg	99
2029.527	1.247	1247.0	generate	Run3	generate/STIM_015.jpg	99
2033.6	1.442	1442.2	generate	Run3	generate/STIM_015.jpg	99
2037.976	1.786	1786.3	generate	Run3	generate/STIM_015.jpg	99
2043.356	0.962	962.1	generate	Run3	generate/STIM_015.jpg	99
2047.39	1.046	1045.8	generate	Run3	generate/STIM_015.jpg	99
2051.899	1.249	1248.7	generate	Run3	generate/STIM_016.jpg	99
2056.48	1.333	1333.3	generate	Run3	generate/STIM_016.jpg	99
2060.159	1.447	1447.4	generate	Run3	generate/STIM_016.jpg	99
2065.458	1.443	1443.0	generate	Run3	generate/STIM_016.jpg	99
2070.084	0.832	831.7	generate	Run3	generate/STIM_016.jpg	100
2074.853	1.519	1518.7	generate	Run3	generate/STIM_017.jpg	100
2079.288	1.966	1965.5	generate	Run3	generate/STIM_017.jpg	99
2084.974	1.866	1866.3	generate	Run3	generate/STIM_017.jpg	100
2089.121	1.973	1973.2	generate	Run3	generate/STIM_017.jpg	99
2094.898	1.65	1649.5	generate	Run3	generate/STIM_017.jpg	99
2100.114	1.221	1220.7	generate	Run3	generate/STIM_018.jpg	100
2103.407	1.743	1743.3	generate	Run3	generate/STIM_018.jpg	99
2107.429	0.99	990.0	generate	Run3	generate/STIM_018.jpg	99
2110.689	0.889	888.8	generate	Run3	generate/STIM_018.jpg	100
2114.548	1.24	1239.9	generate	Run3	generate/STIM_018.jpg	99
2118.778	1.792	1791.7	generate	Run3	generate/STIM_019.jpg	99
2123.143	1.356	1356.0	generate	Run3	generate/STIM_019.jpg	100
2126.622	1.094	1093.5	generate	Run3	generate/STIM_019.jpg	99
2131.524	1.695	1695.1	generate	Run3	generate/STIM_019.jpg	99
2135.345	1.923	1922.9	generate	Run3	generate/STIM_019.jpg	100
2140.531	1.064	1063.7	generate	Run3	generate/STIM_020.jpg	100
2144.4	0.817	817.4	generate	Run3	generate/STIM_020.jpg	99
2147.698	1.609	1609.2	generate	Run3	generate/STIM_020.jpg	100
2151.607	1.392	1392.0	generate	Run3	generate/STIM_020.jpg	100
2155.088	1.387	1386.6	generate	Run3	generate/STIM_020.jpg	100
2160.152	1.732	1732.5	generate	Run3	generate/STIM_021.jpg	99
2165.239	0.925	925.4	generate	Run3	generate/STIM_021.jpg	99
2169.761	0.91	909.5	generate	Run3	generate/STIM_021.jpg	100
2172.932	1.563	1563.3	generate	Run3	generate/STIM_021.jpg	99
2176.643	1.846	1845.6	generate	Run3	generate/STIM_021.jpg	100
2182.313	1.453	1453.4	generate	Run3	generate/STIM_022.jpg	100
2187.235	1.541	1541.3	generate	Run3	generate/STIM_022.jpg	99
2192.733	1.478	1478.4	generate	Run3	generate/STIM_022.jpg	99
2197.105	1.475	1475.2	generate	Run3	generate/STIM_022.jpg	100
2201.516	0.993	993.4	generate	Run3	generate/STIM_022.jpg	100
2206.107	1.464	1463.8	generate	Run3	generate/STIM_023.jpg	100
2209.725	1.895	1895.0	generate	Run3	generate/STIM_023.jpg	100
2214.916	1.559	1558.7	generate	Run3	generate/STIM_023.jpg	99
2219.978	1.256	1256.2	generate	Run3	generate/STIM_023.jpg	100
2223.776	1.058	1058.0	generate	Run3	generate/STIM_023.jpg	100
2228.622	1.102	1101.5	generate	Run3	generate/STIM_024.jpg	99
2232.372	0.937	936.7	generate	Run3	generate/STIM_024.jpg	99
2237.283	0.958	958.0	generate	Run3	generate/STIM_024.jpg	100
2240.72	1.524	1524.1	generate	Run3	generate/STIM_024.jpg	99
2245.338	1.02	1019.9	generate	Run3	generate/STIM_024.jpg	100
2249.066	0.478	478.4	repeat	Run3	repeat/STIM_000.jpg	100
2252.831	0.702	702.5	repeat	Run3	repeat/STIM_000.jpg	99
2257.121	0.494	493.6	repeat	Run3	repeat/STIM_000.jpg	99
2261.027	0.585	585.0	repeat	Run3	repeat/STIM_000.jpg	100
2263.89	0.828	828.0	repeat	Run3	repeat/STIM_000.jpg	99
2267.292	0.871	871.0	repeat	Run3	repeat/STIM_001.jpg	99
2271.972	0.794	793.7	repeat	Run3	repeat/STIM_001.jpg	100
2275.294	0.894	894.5	repeat	Run3	repeat/STIM_001.jpg	100
2278.994	0.769	769.1	repeat	Run3	repeat/STIM_001.jpg	100
2282.883	0.821	820.6	repeat	Run3	repeat/STIM_001.jpg	99
2286.871	0.88	879.6	repeat	Run3	repeat/STIM_002.jpg	100
2290.828	0.494	493.6	repeat	Run3	repeat/STIM_002.jpg	99
2293.532	0.553	553.1	repeat	Run3	repeat/STIM_002.jpg	99
2296.716	0.475	474.7	repeat	Run3	repeat/STIM_002.jpg	99
2300.383	0.758	758.1	repeat	Run3	repeat/STIM_002.jpg	99
2303.716	0.524	524.1	repeat	Run3	repeat/STIM_003.jpg	99
2307.595	0.644	644.2	repeat	Run3	repeat/STIM_003.jpg	99
2311.539	0.67	669.6	repeat	Run3	repeat/STIM_003.jpg	100
2314.959	0.854	853.9	repeat	Run3	repeat/STIM_003.jpg	100
2317.836	0.682	682.5	repeat	Run3	repeat/STIM_003.jpg	100
2321.0	0.772	771.8	repeat	Run3	repeat/STIM_004.jpg	100
2324.472	0.682	682.5	repeat	Run3	repeat/STIM_004.jpg	99
2328.835	0.663	663.0	repeat	Run3	repeat/STIM_004.jpg	99
2333.082	0.653	653.1	repeat	Run3	repeat/STIM_004.jpg	99
2336.318	0.537	537.3	repeat	Run3	repeat/STIM_004.jpg	99
2339.188	0.525	524.6	repeat	Run3	repeat/STIM_005.jpg	99
2343.289	0.65	650.1	repeat	Run3	repeat/STIM_005.jpg	99
2346.001	0.502	502.0	repeat	Run3	repeat/STIM_005.jpg	100
2348.733	0.601	601.3	repeat	Run3	repeat/STIM_005.jpg	100
2351.948	0.612	612.1	repeat	Run3	repeat/STIM_005.jpg	99
2355.017	0.896	896.5	repeat	Run3	repeat/STIM_006.jpg	100
2358.655	0.496	496.3	repeat	Run3	repeat/STIM_006.jpg	100
2361.221	0.934	934.0	repeat	Run3	repeat/STIM_006.jpg	100
2364.803	0.499	498.6	repeat	Run3	repeat/STIM_006.jpg	99
2367.901	0.542	542.2	repeat	Run3	repeat/STIM_006.jpg	99
2371.302	0.714	714.1	repeat	Run3	repeat/STIM_007.jpg	99
2374.582	0.69	689.7	repeat	Run3	repeat/STIM_007.jpg	99
2378.738	0.494	493.6	repeat	Run3	repeat/STIM_007.jpg	99
2381.404	0.814	813.8	repeat	Run3	repeat/STIM_007.jpg	99
2386.079	0.748	748.1	repeat	Run3	repeat/STIM_007.jpg	99
2389.124	0.782	781.7	repeat	Run3	repeat/STIM_008.jpg	100
2393.806	0.889	888.7	repeat	Run3	repeat/STIM_008.jpg	99
2397.053	0.573	573.2	repeat	Run3	repeat/STIM_008.jpg	99
2401.29	0.798	797.9	repeat	Run3	repeat/STIM_008.jpg	100
2404.894	0.584	584.1	repeat	Run3	repeat/STIM_008.jpg	100
2409.207	0.791	791.0	repeat	Run3	repeat/STIM_009.jpg	100
2413.404	0.503	502.8	repeat	Run3	repeat/STIM_009.jpg	99
2417.589	0.476	476.4	repeat	Run3	repeat/STIM_009.jpg	99
2420.622	0.825	825.0	repeat	Run3	repeat/STIM_009.jpg	99
2425.302	0.639	639.2	repeat	Run3	repeat/STIM_009.jpg	100
2429.734	0.877	876.7	repeat	Run3	repeat/STIM_010.jpg	99
2434.168	0.54	540.5	repeat	Run3	repeat/STIM_010.jpg	99
2438.673	0.725	724.6	repeat	Run3	repeat/STIM_010.jpg	100
2441.512	0.514	514.4	repeat	Run3	repeat/STIM_010.jpg	100
2444.775	0.667	666.8	repeat	Run3	repeat/STIM_010.jpg	99
2448.401	0.585	584.7	repeat	Run3	repeat/STIM_011.jpg	99
2451.552	0.745	745.1	repeat	Run3	repeat/STIM_011.jpg	100
2455.433	0.813	812.9	repeat	Run3	repeat/STIM_011.jpg	100
2460.157	0.471	470.9	repeat	Run3	repeat/STIM_011.jpg	100
2464.285	0.714	713.6	repeat	Run3	repeat/STIM_011.jpg	99
2467.429	0.854	853.6	repeat	Run3	repeat/STIM_012.jpg	99
2470.34	0.586	585.8	repeat	Run3	repeat/STIM_012.jpg	100
2473.159	0.921	920.8	repeat	Run3	repeat/STIM_012.jpg	100
2477.922	0.875	874.6	repeat	Run3	repeat/STIM_012.jpg	100
2482.735	0.891	890.6	repeat	Run3	repeat/STIM_012.jpg	99
2486.218	0.846	845.7	repeat	Run3	repeat/STIM_013.jpg	100
2490.785	0.471	470.8	repeat	Run3	repeat/STIM_013.jpg	100
2493.933	0.852	851.9	repeat	Run3	repeat/STIM_013.jpg	99
2498.33	0.511	510.7	repeat	Run3	repeat/STIM_013.jpg	99
2502.362	0.624	624.2	repeat	Run3	repeat/STIM_013.jpg	100
2505.619	0.616	616.3	repeat	Run3	repeat/STIM_014.jpg	100
2509.771	0.504	504.0	repeat	Run3	repeat/STIM_014.jpg	99
2514.138	0.926	926.5	repeat	Run3	repeat/STIM_014.jpg	99
2518.39	0.529	529.0	repeat	Run3	repeat/STIM_014.jpg	100
2522.292	0.537	537.4	repeat	Run3	repeat/STIM_014.jpg	100
2525.121	1.559	1558.8	generate	Run4	generate/STIM_000.jpg	99
2530.496	1.1	1099.8	generate	Run4	generate/STIM_000.jpg	100
2534.078	1.767	1767.0	generate	Run4	generate/STIM_000.jpg	99
2538.107	1.558	1558.3	generate	Run4	generate/STIM_000.jpg	100
2541.956	1.614	1614.1	generate	Run4	generate/STIM_000.jpg	100
2547.067	1.34	1340.4	generate	Run4	generate/STIM_001.jpg	99
2551.913	0.808	808.3	generate	Run4	generate/STIM_001.jpg	99
2556.269	0.943	942.7	generate	Run4	generate/STIM_001.jpg	100
2559.34	1.089	1088.9	generate	Run4	generate/STIM_001.jpg	100
2562.512	1.832	1832.0	generate	Run4	generate/STIM_001.jpg	100
2567.43	1.091	1091.3	generate	Run4	generate/STIM_002.jpg	99
2571.456	0.941	941.2	generate	Run4	generate/STIM_002.jpg	99
2574.697	1.308	1308.4	generate	Run4	generate/STIM_002.jpg	100
2579.717	1.188	1187.8	generate	Run4	generate/STIM_002.jpg	99
2583.053	1.788	1788.2	generate	Run4	generate/STIM_002.jpg	100
2587.688	0.894	894.2	generate	Run4	generate/STIM_003.jpg	100
2591.232	1.932	1932.4	generate	Run4	generate/STIM_003.jpg	100
2596.057	1.029	1029.3	generate	Run4	generate/STIM_003.jpg	99
2599.316	1.478	1477.9	generate	Run4	generate/STIM_003.jpg	100
2603.6	1.724	1724.3	generate	Run4	generate/STIM_003.jpg	99
2607.525	1.27	1270.0	generate	Run4	generate/STIM_004.jpg	100
2611.489	1.434	1434.2	generate	Run4	generate/STIM_004.jpg	100
2615.995	1.049	1048.8	generate	Run4	generate/STIM_004.jpg	99
2620.78	1.961	1961.2	generate	Run4	generate/STIM_004.jpg	99
2625.062	1.054	1054.4	generate	Run4	generate/STIM_004.jpg	99
2629.804	1.889	1888.7	generate	Run4	generate/STIM_005.jpg	99
2634.014	1.113	1113.2	generate	Run4	generate/STIM_005.jpg	100
2638.746	1.873	1873.2	generate	Run4	generate/STIM_005.jpg	99
2643.24	1.119	1118.6	generate	Run4	generate/STIM_005.jpg	100
2648.327	1.459	1459.1	generate	Run4	generate/STIM_005.jpg	100
2651.881	1.668	1667.9	generate	Run4	generate/STIM_006.jpg	100
2655.845	1.016	1015.7	generate	Run4	generate/STIM_006.jpg	99
2659.06	1.45	1450.3	generate	Run4	generate/STIM_006.jpg	99
2664.163	0.972	972.3	generate	Run4	generate/STIM_006.jpg	100
2667.652	1.921	1920.9	generate	Run4	generate/STIM_006.jpg	100
2673.283	1.803	1803.1	generate	Run4	generate/STIM_007.jpg	99
2678.299	1.767	1767.0	generate	Run4	generate/STIM_007.jpg	100
2683.617	0.916	916.1	generate	Run4	generate/STIM_007.jpg	100
2686.851	1.805	1804.7	generate	Run4	generate/STIM_007.jpg	99
2692.582	1.192	1191.8	generate	Run4	generate/STIM_007.jpg	99
2697.415	0.796	796.0	generate	Run4	generate/STIM_008.jpg	100
2700.521	1.575	1575.2	generate	Run4	generate/STIM_008.jpg	100
2705.443	1.302	1302.5	generate	Run4	generate/STIM_008.jpg	100
2709.457	1.803	1802.9	generate	Run4	generate/STIM_008.jpg	99
2714.785	1.781	1781.4	generate	Run4	generate/STIM_008.jpg	100
2720.49	1.63	1630.0	generate	Run4	generate/STIM_009.jpg	99
2725.998	1.343	1343.3	generate	Run4	generate/STIM_009.jpg	99
2731.194	1.815	1815.4	generate	Run4	generate/STIM_009.jpg	100
2736.562	1.677	1676.9	generate	Run4	generate/STIM_009.jpg	99
2741.422	1.11	1109.8	generate	Run4	generate/STIM_009.jpg	99
2746.274	0.978	977.5	generate	Run4	generate/STIM_010.jpg	99
2751.051	0.933	933.4	generate	Run4	generate/STIM_010.jpg	99
2755.902	1.699	1699.3	generate	Run4	generate/STIM_010.jpg	100
2761.145	1.816	1815.5	generate	Run4	generate/STIM_010.jpg	99
2766.87	1.109	1108.6	generate	Run4	generate/STIM_010.jpg	100
2770.906	1.256	1255.8	generate	Run4	generate/STIM_011.jpg	100
2776.133	1.91	1909.6	generate	Run4	generate/STIM_011.jpg	100
2780.869	1.352	1351.6	generate	Run4	generate/STIM_011.jpg	100
2786.11	1.14	1140.1	generate	Run4	generate/STIM_011.jpg	99
2791.141	1.045	1044.7	generate	Run4	generate/STIM_011.jpg	99
2795.059	1.624	1623.6	generate	Run4	generate/STIM_012.jpg	100
2798.999	1.799	1799.2	generate	Run4	generate/STIM_012.jpg	99
2802.889	1.098	1098.1	generate	Run4	generate/STIM_012.jpg	99
2806.969	1.274	1273.8	generate	Run4	generate/STIM_012.jpg	100
2811.552	1.812	1812.0	generate	Run4	generate/STIM_012.jpg	99
2816.859	1.022	1021.5	generate	Run4	generate/STIM_013.jpg	99
2821.12	1.503	1503.4	generate	Run4	generate/STIM_013.jpg	99
2826.406	1.43	1430.2	generate	Run4	generate/STIM_013.jpg	99
2831.786	1.93	1930.4	generate	Run4	generate/STIM_013.jpg	99
2836.334	1.756	1755.5	generate	Run4	generate/STIM_013.jpg	100
2841.521	1.072	1071.6	generate	Run4	generate/STIM_014.jpg	99
2846.244	1.458	1457.6	generate	Run4	generate/STIM_014.jpg	99
2850.453	1.483	1483.1	generate	Run4	generate/STIM_014.jpg	99
2854.392	1.126	1126.0	generate	Run4	generate/STIM_014.jpg	99
2858.522	1.586	1585.9	generate	Run4	generate/STIM_014.jpg	99
2863.842	1.251	1250.9	generate	Run4	generate/STIM_015.jpg	100
2867.256	1.217	1217.2	generate	Run4	generate/STIM_015.jpg	100
2871.147	1.169	1169.3	generate	Run4	generate/STIM_015.jpg	99
2874.976	0.955	955.1	generate	Run4	generate/STIM_015.jpg	100
2879.084	1.894	1893.6	generate	Run4	generate/STIM_015.jpg	100
2883.023	1.405	1404.6	generate	Run4	generate/STIM_016.jpg	100
2887.711	1.013	1013.4	generate	Run4	generate/STIM_016.jpg	100
2891.815	1.397	1397.1	generate	Run4	generate/STIM_016.jpg	99
2896.996	1.663	1663.2	generate	Run4	generate/STIM_016.jpg	100
2902.353	1.323	1322.8	generate	Run4	generate/STIM_016.jpg	100
2906.599	0.928	927.6	generate	Run4	generate/STIM_017.jpg	100
2911.388	0.889	889.2	generate	Run4	generate/STIM_017.jpg	99
2914.88	1.12	1119.5	generate	Run4	generate/STIM_017.jpg	99
2919.641	1.918	1918.0	generate	Run4	generate/STIM_017.jpg	99
2924.655	1.409	1409.4	generate	Run4	generate/STIM_017.jpg	99
2929.281	1.407	1407.3	generate	Run4	generate/STIM_018.jpg	99
2934.011	1.759	1758.6	generate	Run4	generate/STIM_018.jpg	100
2937.814	1.103	1103.2	generate	Run4	generate/STIM_018.jpg	99
2941.88	1.79	1790.3	generate	Run4	generate/STIM_018.jpg	100
2947.223	1.191	1191.4	generate	Run4	generate/STIM_018.jpg	100
2951.648	1.8	1800.3	generate	Run4	generate/STIM_019.jpg	100
2956.804	1.868	1868.1	generate	Run4	generate/STIM_019.jpg	99
2960.868	1.834	1834.0	generate	Run4	generate/STIM_019.jpg	99
2965.854	1.778	1778.0	generate	Run4	generate/STIM_019.jpg	99
2970.496	0.792	792.3	generate	Run4	generate/STIM_019.jpg	100
2974.892	1.361	1360.8	generate	Run4	generate/STIM_020.jpg	99
2978.409	1.874	1873.7	generate	Run4	generate/STIM_020.jpg	100
2983.412	1.675	1675.3	generate	Run4	generate/STIM_020.jpg	100
2987.863	1.848	1848.0	generate	Run4	generate/STIM_020.jpg	100
2993.537	1.494	1493.5	generate	Run4	generate/STIM_020.jpg	100
2997.094	1.12	1119.8	generate	Run4	generate/STIM_021.jpg	100
3000.373	1.492	1491.7	generate	Run4	generate/STIM_021.jpg	99
3005.726	1.344	1343.6	generate	Run4	generate/STIM_021.jpg	100
3010.907	1.772	1772.1	generate	Run4	generate/STIM_021.jpg	100
3016.368	1.66	1660.0	generate	Run4	generate/STIM_021.jpg	100
3020.758	1.512	1511.9	generate	Run4	generate/STIM_022.jpg	99
3024.662	1.033	1033.1	generate	Run4	generate/STIM_022.jpg	100
3029.143	1.971	1971.4	generate	Run4	generate/STIM_022.jpg	99
3034.217	1.517	1517.3	generate	Run4	generate/STIM_022.jpg	100
3039.144	1.234	1233.6	generate	Run4	generate/STIM_022.jpg	100
3044.117	1.73	1730.2	generate	Run4	generate/STIM_023.jpg	99
3049.447	0.832	831.6	generate	Run4	generate/STIM_023.jpg	100
3052.488	1.223	1223.3	generate	Run4	generate/STIM_023.jpg	100
3056.775	1.548	1548.5	generate	Run4	generate/STIM_023.jpg	99
3060.349	1.596	1595.8	generate	Run4	generate/STIM_023.jpg	99
3065.238	1.913	1913.4	generate	Run4	generate/STIM_024.jpg	100
3070.97	1.76	1760.3	generate	Run4	generate/STIM_024.jpg	99
3075.732	1.441	1441.2	generate	Run4	generate/STIM_024.jpg	100
3080.966	1.137	1136.7	generate	Run4	generate/STIM_024.jpg	100
3085.069	0.964	964.3	generate	Run4	generate/STIM_024.jpg	100
3089.36	0.902	901.8	repeat	Run4	repeat/STIM_000.jpg	100
3094.165	0.928	927.6	repeat	Run4	repeat/STIM_000.jpg	99
3098.773	0.913	913.4	repeat	Run4	repeat/STIM_000.jpg	100
3101.935	0.741	741.1	repeat	Run4	repeat/STIM_000.jpg	100
3105.671	0.847	846.6	repeat	Run4	repeat/STIM_000.jpg	99
3110.173	0.671	670.7	repeat	Run4	repeat/STIM_001.jpg	100
3113.252	0.668	668.2	repeat	Run4	repeat/STIM_001.jpg	100
3115.978	0.477	477.0	repeat	Run4	repeat/STIM_001.jpg	99
3119.006	0.656	656.0	repeat	Run4	repeat/STIM_001.jpg	100
3122.123	0.514	513.6	repeat	Run4	repeat/STIM_001.jpg	99
3126.568	0.836	836.4	repeat	Run4	repeat/STIM_002.jpg	99
3131.348	0.605	604.7	repeat	Run4	repeat/STIM_002.jpg	99
3134.566	0.784	783.5	repeat	Run4	repeat/STIM_002.jpg	99
3137.569	0.727	726.8	repeat	Run4	repeat/STIM_002.jpg	100
3141.341	0.752	751.7	repeat	Run4	repeat/STIM_002.jpg	100
3144.306	0.764	763.7	repeat	Run4	repeat/STIM_003.jpg	100
3148.882	0.82	819.5	repeat	Run4	repeat/STIM_003.jpg	100
3152.528	0.721	721.3	repeat	Run4	repeat/STIM_003.jpg	100
3155.49	0.774	773.6	repeat	Run4	repeat/STIM_003.jpg	99
3159.866	0.614	613.7	repeat	Run4	repeat/STIM_003.jpg	99
3164.15	0.529	529.4	repeat	Run4	repeat/STIM_004.jpg	100
3167.73	0.716	716.4	repeat	Run4	repeat/STIM_004.jpg	99
3171.445	0.726	726.4	repeat	Run4	repeat/STIM_004.jpg	99
3174.864	0.586	585.8	repeat	Run4	repeat/STIM_004.jpg	100
3178.639	0.765	765.1	repeat	Run4	repeat/STIM_004.jpg	100
3182.479	0.736	736.4	repeat	Run4	repeat/STIM_005.jpg	99
3187.157	0.677	677.2	repeat	Run4	repeat/STIM_005.jpg	100
3190.087	0.524	524.5	repeat	Run4	repeat/STIM_005.jpg	99
3193.33	0.511	510.7	repeat	Run4	repeat/STIM_005.jpg	100
3197.4	0.87	870.0	repeat	Run4	repeat/STIM_005.jpg	99
3200.523	0.718	718.4	repeat	Run4	repeat/STIM_006.jpg	100
3203.891	0.593	592.6	repeat	Run4	repeat/STIM_006.jpg	99
3208.095	0.666	666.0	repeat	Run4	repeat/STIM_006.jpg	100
3211.26	0.86	859.7	repeat	Run4	repeat/STIM_006.jpg	99
3214.665	0.907	906.8	repeat	Run4	repeat/STIM_006.jpg	100
3218.934	0.924	924.3	repeat	Run4	repeat/STIM_007.jpg	100
3223.062	0.525	525.2	repeat	Run4	repeat/STIM_007.jpg	100
3225.715	0.836	836.1	repeat	Run4	repeat/STIM_007.jpg	100
3228.909	0.938	937.6	repeat	Run4	repeat/STIM_007.jpg	99
3232.369	0.554	554.3	repeat	Run4	repeat/STIM_007.jpg	100
3236.274	0.917	917.2	repeat	Run4	repeat/STIM_008.jpg	99
3240.108	0.737	736.9	repeat	Run4	repeat/STIM_008.jpg	100
3243.982	0.628	627.7	repeat	Run4	repeat/STIM_008.jpg	99
3247.326	0.53	529.9	repeat	Run4	repeat/STIM_008.jpg	99
3251.341	0.853	853.1	repeat	Run4	repeat/STIM_008.jpg	100
3254.713	0.624	624.5	repeat	Run4	repeat/STIM_009.jpg	99
3258.599	0.86	860.1	repeat	Run4	repeat/STIM_009.jpg	99
3262.199	0.546	546.1	repeat	Run4	repeat/STIM_009.jpg	99
3265.969	0.847	846.9	repeat	Run4	repeat/STIM_009.jpg	100
3268.909	0.926	926.0	repeat	Run4	repeat/STIM_009.jpg	99
3272.854	0.619	619.0	repeat	Run4	repeat/STIM_010.jpg	100
3276.465	0.623	623.4	repeat	Run4	repeat/STIM_010.jpg	99
3280.354	0.557	557.1	repeat	Run4	repeat/STIM_010.jpg	99
3283.344	0.834	834.1	repeat	Run4	repeat/STIM_010.jpg	99
3287.073	0.515	515.4	repeat	Run4	repeat/STIM_010.jpg	99
3290.817	0.714	714.5	repeat	Run4	repeat/STIM_011.jpg	100
3295.421	0.768	767.7	repeat	Run4	repeat/STIM_011.jpg	100
3298.813	0.576	576.2	repeat	Run4	repeat/STIM_011.jpg	100
3303.217	0.763	762.8	repeat	Run4	repeat/STIM_011.jpg	99
3306.657	0.534	533.6	repeat	Run4	repeat/STIM_011.jpg	99
3310.082	0.774	774.2	repeat	Run4	repeat/STIM_012.jpg	99
3313.1	0.873	872.6	repeat	Run4	repeat/STIM_012.jpg	100
3317.653	0.841	841.2	repeat	Run4	repeat/STIM_012.jpg	99
3321.814	0.502	501.7	repeat	Run4	repeat/STIM_012.jpg	100
3325.876	0.577	577.2	repeat	Run4	repeat/STIM_012.jpg	100
3330.128	0.568	567.5	repeat	Run4	repeat/STIM_013.jpg	99
3334.364	0.645	645.3	repeat	Run4	repeat/STIM_013.jpg	99
3337.221	0.677	677.2	repeat	Run4	repeat/STIM_013.jpg	100
3341.436	0.857	857.1	repeat	Run4	repeat/STIM_013.jpg	99
3345.169	0.929	928.6	repeat	Run4	repeat/STIM_013.jpg	100
3349.569	0.862	862.3	repeat	Run4	repeat/STIM_014.jpg	99
3353.417	0.8	799.5	repeat	Run4	repeat/STIM_014.jpg	99
3357.486	0.752	752.2	repeat	Run4	repeat/STIM_014.jpg	99
3360.505	0.775	775.3	repeat	Run4	repeat/STIM_014.jpg	99
3364.927	0.776	775.9	repeat	Run4	repeat/STIM_014.jpg	100
