onset	duration	accuracy	trial_type	learning_stage	stimulus
0.0	1.997	incorrect	generate	Run1	generate/STIM_000.jpg
5.336	2.191	incorrect	generate	Run1	generate/STIM_000.jpg
11.216	1.962	incorrect	generate	Run1	generate/STIM_000.jpg
15.383	2.046	correct	generate	Run1	generate/STIM_000.jpg
20.37	1.863	correct	generate	Run1	generate/STIM_000.jpg
25.195	2.81	correct	generate	Run1	generate/STIM_001.jpg
31.377	1.396	incorrect	generate	Run1	generate/STIM_001.jpg
36.222	1.54	correct	generate	Run1	generate/STIM_001.jpg
41.21	1.15	correct	generate	Run1	generate/STIM_001.jpg
45.411	2.196	correct	generate	Run1	generate/STIM_001.jpg
50.066	1.783	incorrect	generate	Run1	generate/STIM_002.jpg
54.603	2.409	incorrect	generate	Run1	generate/STIM_002.jpg
59.427	2.262	correct	generate	Run1	generate/STIM_002.jpg
63.445	2.196	correct	generate	Run1	generate/STIM_002.jpg
68.599	2.49	incorrect	generate	Run1	generate/STIM_002.jpg
74.117	2.59	correct	generate	Run1	generate/STIM_003.jpg
79.455	2.457	correct	generate	Run1	generate/STIM_003.jpg
84.128	2.514	correct	generate	Run1	generate/STIM_003.jpg
88.492	2.737	correct	generate	Run1	generate/STIM_003.jpg
94.783	1.446	correct	generate	Run1	generate/STIM_003.jpg
98.251	1.726	correct	generate	Run1	generate/STIM_004.jpg
102.33	1.443	correct	generate	Run1	generate/STIM_004.jpg
106.491	1.71	correct	generate	Run1	generate/STIM_004.jpg
110.852	2.163	incorrect	generate	Run1	generate/STIM_004.jpg
115.25	1.203	correct	generate	Run1	generate/STIM_004.jpg
119.813	2.54	correct	generate	Run1	generate/STIM_005.jpg
124.847	2.644	correct	generate	Run1	generate/STIM_005.jpg
131.092	2.092	correct	generate	Run1	generate/STIM_005.jpg
136.837	2.731	correct	generate	Run1	generate/STIM_005.jpg
142.39	2.344	correct	generate	Run1	generate/STIM_005.jpg
147.378	1.324	correct	generate	Run1	generate/STIM_006.jpg
151.147	1.738	correct	generate	Run1	generate/STIM_006.jpg
154.905	2.056	correct	generate	Run1	generate/STIM_006.jpg
160.264	2.62	correct	generate	Run1	generate/STIM_006.jpg
166.476	1.41	correct	generate	Run1	generate/STIM_006.jpg
170.047	2.146	incorrect	generate	Run1	generate/STIM_007.jpg
174.449	1.349	correct	generate	Run1	generate/STIM_007.jpg
179.572	1.977	correct	generate	Run1	generate/STIM_007.jpg
184.4	2.719	correct	generate	Run1	generate/STIM_007.jpg
190.069	1.41	correct	generate	Run1	generate/STIM_007.jpg
194.885	2.219	correct	generate	Run1	generate/STIM_008.jpg
199.824	2.874	correct	generate	Run1	generate/STIM_008.jpg
205.166	1.661	correct	generate	Run1	generate/STIM_008.jpg
210.521	2.362	correct	generate	Run1	generate/STIM_008.jpg
215.176	2.138	correct	generate	Run1	generate/STIM_008.jpg
219.577	2.056	correct	generate	Run1	generate/STIM_009.jpg
224.257	2.341	correct	generate	Run1	generate/STIM_009.jpg
229.889	2.353	correct	generate	Run1	generate/STIM_009.jpg
234.422	1.651	correct	generate	Run1	generate/STIM_009.jpg
238.19	2.6	correct	generate	Run1	generate/STIM_009.jpg
242.651	1.784	correct	generate	Run1	generate/STIM_010.jpg
247.467	1.335	correct	generate	Run1	generate/STIM_010.jpg
251.877	1.356	correct	generate	Run1	generate/STIM_010.jpg
256.549	1.899	correct	generate	Run1	generate/STIM_010.jpg
261.493	1.83	correct	generate	Run1	generate/STIM_010.jpg
266.524	3.239	incorrect	generate	Run1	generate/STIM_011.jpg
272.918	2.16	correct	generate	Run1	generate/STIM_011.jpg
278.76	2.028	correct	generate	Run1	generate/STIM_011.jpg
282.94	1.817	incorrect	generate	Run1	generate/STIM_011.jpg
287.361	2.223	incorrect	generate	Run1	generate/STIM_011.jpg
292.597	2.172	correct	generate	Run1	generate/STIM_012.jpg
297.3	2.337	incorrect	generate	Run1	generate/STIM_012.jpg
302.236	2.816	correct	generate	Run1	generate/STIM_012.jpg
306.929	1.702	correct	generate	Run1	generate/STIM_012.jpg
312.034	2.277	correct	generate	Run1	generate/STIM_012.jpg
317.557	2.862	correct	generate	Run1	generate/STIM_013.jpg
322.131	2.204	correct	generate	Run1	generate/STIM_013.jpg
327.168	2.916	correct	generate	Run1	generate/STIM_013.jpg
333.04	1.484	correct	generate	Run1	generate/STIM_013.jpg
338.092	2.433	incorrect	generate	Run1	generate/STIM_013.jpg
342.646	3.187	incorrect	generate	Run1	generate/STIM_014.jpg
349.101	3.126	correct	generate	Run1	generate/STIM_014.jpg
355.193	2.846	incorrect	generate	Run1	generate/STIM_014.jpg
360.065	1.846	incorrect	generate	Run1	generate/STIM_014.jpg
364.744	1.213	correct	generate	Run1	generate/STIM_014.jpg
368.55	3.368	correct	generate	Run1	generate/STIM_015.jpg
374.163	2.9	correct	generate	Run1	generate/STIM_015.jpg
380.423	1.365	correct	generate	Run1	generate/STIM_015.jpg
385.398	1.349	incorrect	generate	Run1	generate/STIM_015.jpg
390.01	1.916	correct	generate	Run1	generate/STIM_015.jpg
393.927	2.341	correct	generate	Run1	generate/STIM_016.jpg
399.295	1.859	correct	generate	Run1	generate/STIM_016.jpg
403.696	2.602	correct	generate	Run1	generate/STIM_016.jpg
408.061	1.938	correct	generate	Run1	generate/STIM_016.jpg
412.252	2.574	correct	generate	Run1	generate/STIM_016.jpg
417.955	1.555	correct	generate	Run1	generate/STIM_017.jpg
422.883	2.285	correct	generate	Run1	generate/STIM_017.jpg
427.356	2.61	incorrect	generate	Run1	generate/STIM_017.jpg
432.371	1.795	incorrect	generate	Run1	generate/STIM_017.jpg
437.409	1.492	correct	generate	Run1	generate/STIM_017.jpg
442.463	2.825	incorrect	generate	Run1	generate/STIM_018.jpg
447.176	1.783	correct	generate	Run1	generate/STIM_018.jpg
452.486	1.689	correct	generate	Run1	generate/STIM_018.jpg
457.432	2.726	correct	generate	Run1	generate/STIM_018.jpg
462.659	1.456	correct	generate	Run1	generate/STIM_018.jpg
466.744	2.651	correct	generate	Run1	generate/STIM_019.jpg
471.576	2.638	correct	generate	Run1	generate/STIM_019.jpg
477.65	1.485	correct	generate	Run1	generate/STIM_019.jpg
481.044	2.512	correct	generate	Run1	generate/STIM_019.jpg
485.914	2.13	incorrect	generate	Run1	generate/STIM_019.jpg
491.275	3.079	incorrect	generate	Run1	generate/STIM_020.jpg
496.728	3.053	correct	generate	Run1	generate/STIM_020.jpg
501.529	2.362	correct	generate	Run1	generate/STIM_020.jpg
505.941	2.521	incorrect	generate	Run1	generate/STIM_020.jpg
510.705	1.096	correct	generate	Run1	generate/STIM_020.jpg
514.637	1.78	correct	generate	Run1	generate/STIM_021.jpg
518.637	3.155	correct	generate	Run1	generate/STIM_021.jpg
524.09	1.498	incorrect	generate	Run1	generate/STIM_021.jpg
528.411	2.203	correct	generate	Run1	generate/STIM_021.jpg
533.341	1.8	incorrect	generate	Run1	generate/STIM_021.jpg
538.908	2.872	correct	generate	Run1	generate/STIM_022.jpg
543.466	1.81	correct	generate	Run1	generate/STIM_022.jpg
548.711	2.327	correct	generate	Run1	generate/STIM_022.jpg
554.451	2.174	correct	generate	Run1	generate/STIM_022.jpg
559.157	2.658	correct	generate	Run1	generate/STIM_022.jpg
563.912	1.512	correct	generate	Run1	generate/STIM_023.jpg
568.032	1.687	incorrect	generate	Run1	generate/STIM_023.jpg
572.381	2.074	correct	generate	Run1	generate/STIM_023.jpg
578.071	2.801	correct	generate	Run1	generate/STIM_023.jpg
584.517	2.111	incorrect	generate	Run1	generate/STIM_023.jpg
588.442	2.348	correct	generate	Run1	generate/STIM_024.jpg
593.287	2.565	incorrect	generate	Run1	generate/STIM_024.jpg
599.371	2.217	correct	generate	Run1	generate/STIM_024.jpg
604.3	2.313	incorrect	generate	Run1	generate/STIM_024.jpg
610.16	1.811	correct	generate	Run1	generate/STIM_024.jpg
614.206	0.745	correct	repeat	Run1	repeat/STIM_000.jpg
618.107	0.775	correct	repeat	Run1	repeat/STIM_000.jpg
621.437	1.015	correct	repeat	Run1	repeat/STIM_000.jpg
625.14	0.679	correct	repeat	Run1	repeat/STIM_000.jpg
629.368	1.047	correct	repeat	Run1	repeat/STIM_000.jpg
632.733	1.05	correct	repeat	Run1	repeat/STIM_001.jpg
637.056	0.58	correct	repeat	Run1	repeat/STIM_001.jpg
639.936	0.654	incorrect	repeat	Run1	repeat/STIM_001.jpg
642.602	1.071	correct	repeat	Run1	repeat/STIM_001.jpg
647.254	0.905	correct	repeat	Run1	repeat/STIM_001.jpg
651.988	1.057	correct	repeat	Run1	repeat/STIM_002.jpg
656.463	0.675	correct	repeat	Run1	repeat/STIM_002.jpg
660.727	1.082	correct	repeat	Run1	repeat/STIM_002.jpg
663.965	1.049	correct	repeat	Run1	repeat/STIM_002.jpg
668.761	0.819	correct	repeat	Run1	repeat/STIM_002.jpg
672.461	0.744	correct	repeat	Run1	repeat/STIM_003.jpg
676.886	0.572	correct	repeat	Run1	repeat/STIM_003.jpg
681.226	1.099	correct	repeat	Run1	repeat/STIM_003.jpg
685.422	1.096	correct	repeat	Run1	repeat/STIM_003.jpg
689.736	0.978	correct	repeat	Run1	repeat/STIM_003.jpg
692.888	1.077	correct	repeat	Run1	repeat/STIM_004.jpg
696.366	0.757	correct	repeat	Run1	repeat/STIM_004.jpg
700.779	0.846	correct	repeat	Run1	repeat/STIM_004.jpg
703.788	1.103	correct	repeat	Run1	repeat/STIM_004.jpg
707.691	0.599	correct	repeat	Run1	repeat/STIM_004.jpg
710.981	0.708	correct	repeat	Run1	repeat/STIM_005.jpg
715.101	0.738	correct	repeat	Run1	repeat/STIM_005.jpg
718.952	0.731	correct	repeat	Run1	repeat/STIM_005.jpg
723.178	0.743	incorrect	repeat	Run1	repeat/STIM_005.jpg
727.17	0.794	correct	repeat	Run1	repeat/STIM_005.jpg
731.832	1.119	correct	repeat	Run1	repeat/STIM_006.jpg
736.099	0.964	correct	repeat	Run1	repeat/STIM_006.jpg
740.136	0.927	correct	repeat	Run1	repeat/STIM_006.jpg
742.999	1.116	incorrect	repeat	Run1	repeat/STIM_006.jpg
747.899	1.115	correct	repeat	Run1	repeat/STIM_006.jpg
751.539	0.622	correct	repeat	Run1	repeat/STIM_007.jpg
754.843	0.97	incorrect	repeat	Run1	repeat/STIM_007.jpg
758.974	1.144	correct	repeat	Run1	repeat/STIM_007.jpg
762.957	0.681	correct	repeat	Run1	repeat/STIM_007.jpg
766.279	1.118	correct	repeat	Run1	repeat/STIM_007.jpg
770.183	0.753	correct	repeat	Run1	repeat/STIM_008.jpg
773.114	1.061	correct	repeat	Run1	repeat/STIM_008.jpg
777.233	0.552	correct	repeat	Run1	repeat/STIM_008.jpg
780.114	0.849	correct	repeat	Run1	repeat/STIM_008.jpg
783.273	0.61	correct	repeat	Run1	repeat/STIM_008.jpg
786.505	0.872	incorrect	repeat	Run1	repeat/STIM_009.jpg
789.709	0.79	correct	repeat	Run1	repeat/STIM_009.jpg
792.72	0.681	correct	repeat	Run1	repeat/STIM_009.jpg
796.817	1.039	correct	repeat	Run1	repeat/STIM_009.jpg
800.219	0.433	correct	repeat	Run1	repeat/STIM_009.jpg
803.724	0.839	correct	repeat	Run1	repeat/STIM_010.jpg
808.285	0.961	correct	repeat	Run1	repeat/STIM_010.jpg
811.299	0.664	correct	repeat	Run1	repeat/STIM_010.jpg
815.283	0.97	correct	repeat	Run1	repeat/STIM_010.jpg
818.973	1.001	correct	repeat	Run1	repeat/STIM_010.jpg
823.079	0.826	correct	repeat	Run1	repeat/STIM_011.jpg
825.768	0.783	correct	repeat	Run1	repeat/STIM_011.jpg
829.543	0.918	correct	repeat	Run1	repeat/STIM_011.jpg
833.725	0.954	correct	repeat	Run1	repeat/STIM_011.jpg
837.698	0.589	correct	repeat	Run1	repeat/STIM_011.jpg
841.547	0.928	correct	repeat	Run1	repeat/STIM_012.jpg
844.774	1.118	correct	repeat	Run1	repeat/STIM_012.jpg
849.455	0.905	incorrect	repeat	Run1	repeat/STIM_012.jpg
852.901	0.816	correct	repeat	Run1	repeat/STIM_012.jpg
856.654	1.056	correct	repeat	Run1	repeat/STIM_012.jpg
860.501	0.941	correct	repeat	Run1	repeat/STIM_013.jpg
865.105	0.931	correct	repeat	Run1	repeat/STIM_013.jpg
869.909	0.639	correct	repeat	Run1	repeat/STIM_013.jpg
873.865	1.123	correct	repeat	Run1	repeat/STIM_013.jpg
877.406	0.767	correct	repeat	Run1	repeat/STIM_013.jpg
881.504	0.96	incorrect	repeat	Run1	repeat/STIM_014.jpg
884.905	0.932	correct	repeat	Run1	repeat/STIM_014.jpg
889.231	0.887	correct	repeat	Run1	repeat/STIM_014.jpg
893.849	0.59	correct	repeat	Run1	repeat/STIM_014.jpg
896.78	1.058	correct	repeat	Run1	repeat/STIM_014.jpg
900.71	1.681	correct	generate	Run2	generate/STIM_000.jpg
905.977	1.532	correct	generate	Run2	generate/STIM_000.jpg
910.425	1.012	correct	generate	Run2	generate/STIM_000.jpg
915.088	1.733	incorrect	generate	Run2	generate/STIM_000.jpg
918.816	1.003	correct	generate	Run2	generate/STIM_000.jpg
923.53	2.828	correct	generate	Run2	generate/STIM_001.jpg
929.94	2.046	correct	generate	Run2	generate/STIM_001.jpg
935.625	2.274	correct	generate	Run2	generate/STIM_001.jpg
941.445	0.937	correct	generate	Run2	generate/STIM_001.jpg
944.889	1.812	correct	generate	Run2	generate/STIM_001.jpg
950.062	1.394	correct	generate	Run2	generate/STIM_002.jpg
955.257	1.751	correct	generate	Run2	generate/STIM_002.jpg
959.652	1.498	correct	generate	Run2	generate/STIM_002.jpg
964.491	2.302	correct	generate	Run2	generate/STIM_002.jpg
969.246	1.746	correct	generate	Run2	generate/STIM_002.jpg
974.572	1.232	correct	generate	Run2	generate/STIM_003.jpg
978.31	1.198	correct	generate	Run2	generate/STIM_003.jpg
982.43	2.222	correct	generate	Run2	generate/STIM_003.jpg
986.362	1.838	correct	generate	Run2	generate/STIM_003.jpg
990.372	2.23	correct	generate	Run2	generate/STIM_003.jpg
994.931	2.647	correct	generate	Run2	generate/STIM_004.jpg
999.876	1.866	correct	generate	Run2	generate/STIM_004.jpg
1003.916	2.165	correct	generate	Run2	generate/STIM_004.jpg
1009.66	1.683	correct	generate	Run2	generate/STIM_004.jpg
1013.632	1.621	incorrect	generate	Run2	generate/STIM_004.jpg
1017.247	2.243	correct	generate	Run2	generate/STIM_005.jpg
1022.481	1.833	correct	generate	Run2	generate/STIM_005.jpg
1027.715	1.229	incorrect	generate	Run2	generate/STIM_005.jpg
1032.626	1.029	incorrect	generate	Run2	generate/STIM_005.jpg
1036.968	1.575	correct	generate	Run2	generate/STIM_005.jpg
1040.751	2.344	correct	generate	Run2	generate/STIM_006.jpg
1045.315	1.932	correct	generate	Run2	generate/STIM_006.jpg
1050.386	2.519	correct	generate	Run2	generate/STIM_006.jpg
1055.854	2.213	correct	generate	Run2	generate/STIM_006.jpg
1061.713	2.183	correct	generate	Run2	generate/STIM_006.jpg
1067.349	1.874	correct	generate	Run2	generate/STIM_007.jpg
1071.009	2.324	correct	generate	Run2	generate/STIM_007.jpg
1076.078	1.609	incorrect	generate	Run2	generate/STIM_007.jpg
1080.719	1.905	correct	generate	Run2	generate/STIM_007.jpg
1086.239	1.737	correct	generate	Run2	generate/STIM_007.jpg
1091.725	2.642	incorrect	generate	Run2	generate/STIM_008.jpg
1097.275	1.354	correct	generate	Run2	generate/STIM_008.jpg
1101.035	2.001	correct	generate	Run2	generate/STIM_008.jpg
1105.277	1.16	correct	generate	Run2	generate/STIM_008.jpg
1108.315	2.0	correct	generate	Run2	generate/STIM_008.jpg
1113.209	2.776	incorrect	generate	Run2	generate/STIM_009.jpg
1119.514	1.847	correct	generate	Run2	generate/STIM_009.jpg
1123.418	2.093	correct	generate	Run2	generate/STIM_009.jpg
1129.002	1.577	correct	generate	Run2	generate/STIM_009.jpg
1133.545	1.894	correct	generate	Run2	generate/STIM_009.jpg
1139.182	2.176	correct	generate	Run2	generate/STIM_010.jpg
1144.384	1.744	correct	generate	Run2	generate/STIM_010.jpg
1148.31	1.572	correct	generate	Run2	generate/STIM_010.jpg
1152.035	2.089	correct	generate	Run2	generate/STIM_010.jpg
1157.623	1.94	correct	generate	Run2	generate/STIM_010.jpg
1162.491	2.524	correct	generate	Run2	generate/STIM_011.jpg
1167.737	1.641	correct	generate	Run2	generate/STIM_011.jpg
1172.741	1.677	incorrect	generate	Run2	generate/STIM_011.jpg
1178.117	2.298	correct	generate	Run2	generate/STIM_011.jpg
1182.465	1.812	correct	generate	Run2	generate/STIM_011.jpg
1187.46	1.49	correct	generate	Run2	generate/STIM_012.jpg
1192.705	1.931	correct	generate	Run2	generate/STIM_012.jpg
1198.264	1.824	correct	generate	Run2	generate/STIM_012.jpg
1203.817	1.068	correct	generate	Run2	generate/STIM_012.jpg
1207.213	2.188	correct	generate	Run2	generate/STIM_012.jpg
1211.5	2.141	correct	generate	Run2	generate/STIM_013.jpg
1216.985	1.325	incorrect	generate	Run2	generate/STIM_013.jpg
1221.191	2.06	correct	generate	Run2	generate/STIM_013.jpg
1225.227	1.373	correct	generate	Run2	generate/STIM_013.jpg
1229.089	1.777	correct	generate	Run2	generate/STIM_013.jpg
1232.675	1.968	correct	generate	Run2	generate/STIM_014.jpg
1238.175	2.022	correct	generate	Run2	generate/STIM_014.jpg
1243.938	1.345	correct	generate	Run2	generate/STIM_014.jpg
1248.002	1.399	incorrect	generate	Run2	generate/STIM_014.jpg
1252.757	2.04	correct	generate	Run2	generate/STIM_014.jpg
1257.177	2.452	correct	generate	Run2	generate/STIM_015.jpg
1261.641	2.285	correct	generate	Run2	generate/STIM_015.jpg
1265.846	1.969	incorrect	generate	Run2	generate/STIM_015.jpg
1270.986	2.059	correct	generate	Run2	generate/STIM_015.jpg
1276.495	1.024	correct	generate	Run2	generate/STIM_015.jpg
1280.354	2.155	correct	generate	Run2	generate/STIM_016.jpg
1285.872	2.21	correct	generate	Run2	generate/STIM_016.jpg
1290.704	2.144	correct	generate	Run2	generate/STIM_016.jpg
1295.207	1.597	correct	generate	Run2	generate/STIM_016.jpg
1298.624	1.695	correct	generate	Run2	generate/STIM_016.jpg
1304.04	1.643	correct	generate	Run2	generate/STIM_017.jpg
1308.184	2.554	incorrect	generate	Run2	generate/STIM_017.jpg
1313.785	1.949	correct	generate	Run2	generate/STIM_017.jpg
1318.41	1.874	correct	generate	Run2	generate/STIM_017.jpg
1322.154	1.61	correct	generate	Run2	generate/STIM_017.jpg
1326.631	1.852	incorrect	generate	Run2	generate/STIM_018.jpg
1330.877	1.438	correct	generate	Run2	generate/STIM_018.jpg
1334.754	1.158	correct	generate	Run2	generate/STIM_018.jpg
1338.725	1.81	correct	generate	Run2	generate/STIM_018.jpg
1344.276	2.28	correct	generate	Run2	generate/STIM_018.jpg
1349.296	2.436	incorrect	generate	Run2	generate/STIM_019.jpg
1354.101	2.597	correct	generate	Run2	generate/STIM_019.jpg
1359.924	2.044	correct	generate	Run2	generate/STIM_019.jpg
1365.454	1.631	correct	generate	Run2	generate/STIM_019.jpg
1369.895	1.944	correct	generate	Run2	generate/STIM_019.jpg
1375.011	2.295	correct	generate	Run2	generate/STIM_020.jpg
1379.463	2.1	correct	generate	Run2	generate/STIM_020.jpg
1383.822	2.43	correct	generate	Run2	generate/STIM_020.jpg
1388.249	2.048	correct	generate	Run2	generate/STIM_020.jpg
1392.082	1.885	correct	generate	Run2	generate/STIM_020.jpg
1395.993	1.33	correct	generate	Run2	generate/STIM_021.jpg
1400.259	2.452	correct	generate	Run2	generate/STIM_021.jpg
1405.572	1.134	correct	generate	Run2	generate/STIM_021.jpg
1410.233	1.955	correct	generate	Run2	generate/STIM_021.jpg
1415.851	1.549	correct	generate	Run2	generate/STIM_021.jpg
1420.425	1.61	incorrect	generate	Run2	generate/STIM_022.jpg
1425.577	1.773	correct	generate	Run2	generate/STIM_022.jpg
1430.074	1.419	correct	generate	Run2	generate/STIM_022.jpg
1433.661	1.722	incorrect	generate	Run2	generate/STIM_022.jpg
1438.032	1.952	correct	generate	Run2	generate/STIM_022.jpg
1443.595	2.279	correct	generate	Run2	generate/STIM_023.jpg
1448.52	2.335	correct	generate	Run2	generate/STIM_023.jpg
1454.29	1.994	incorrect	generate	Run2	generate/STIM_023.jpg
1459.718	2.326	correct	generate	Run2	generate/STIM_023.jpg
1465.178	1.495	correct	generate	Run2	generate/STIM_023.jpg
1468.715	1.451	correct	generate	Run2	generate/STIM_024.jpg
1472.319	1.101	incorrect	generate	Run2	generate/STIM_024.jpg
1476.083	1.612	incorrect	generate	Run2	generate/STIM_024.jpg
1480.773	1.754	correct	generate	Run2	generate/STIM_024.jpg
1484.807	1.205	correct	generate	Run2	generate/STIM_024.jpg
1488.28	0.689	correct	repeat	Run2	repeat/STIM_000.jpg
1491.754	1.069	correct	repeat	Run2	repeat/STIM_000.jpg
1495.619	0.676	correct	repeat	Run2	repeat/STIM_000.jpg
1499.023	0.843	incorrect	repeat	Run2	repeat/STIM_000.jpg
1503.163	0.616	correct	repeat	Run2	repeat/STIM_000.jpg
1506.524	0.978	correct	repeat	Run2	repeat/STIM_001.jpg
1510.587	0.712	incorrect	repeat	Run2	repeat/STIM_001.jpg
1514.43	0.916	correct	repeat	Run2	repeat/STIM_001.jpg
1517.779	0.722	correct	repeat	Run2	repeat/STIM_001.jpg
1521.002	0.99	correct	repeat	Run2	repeat/STIM_001.jpg
1525.397	0.568	correct	repeat	Run2	repeat/STIM_002.jpg
1528.586	0.756	incorrect	repeat	Run2	repeat/STIM_002.jpg
1531.564	1.042	correct	repeat	Run2	repeat/STIM_002.jpg
1535.895	1.171	correct	repeat	Run2	repeat/STIM_002.jpg
1540.6	0.764	correct	repeat	Run2	repeat/STIM_002.jpg
1545.246	1.142	correct	repeat	Run2	repeat/STIM_003.jpg
1549.273	0.858	correct	repeat	Run2	repeat/STIM_003.jpg
1552.339	0.621	correct	repeat	Run2	repeat/STIM_003.jpg
1555.223	0.962	correct	repeat	Run2	repeat/STIM_003.jpg
1559.034	0.876	correct	repeat	Run2	repeat/STIM_003.jpg
1562.212	0.625	correct	repeat	Run2	repeat/STIM_004.jpg
1565.254	0.76	correct	repeat	Run2	repeat/STIM_004.jpg
1569.803	0.554	correct	repeat	Run2	repeat/STIM_004.jpg
1572.808	0.998	correct	repeat	Run2	repeat/STIM_004.jpg
1575.875	0.922	incorrect	repeat	Run2	repeat/STIM_004.jpg
1579.348	0.972	correct	repeat	Run2	repeat/STIM_005.jpg
1583.245	0.749	incorrect	repeat	Run2	repeat/STIM_005.jpg
1586.56	0.872	correct	repeat	Run2	repeat/STIM_005.jpg
1590.719	1.099	correct	repeat	Run2	repeat/STIM_005.jpg
1594.975	0.704	incorrect	repeat	Run2	repeat/STIM_005.jpg
1599.428	0.744	correct	repeat	Run2	repeat/STIM_006.jpg
1602.595	1.016	correct	repeat	Run2	repeat/STIM_006.jpg
1606.314	0.614	correct	repeat	Run2	repeat/STIM_006.jpg
1609.872	0.78	correct	repeat	Run2	repeat/STIM_006.jpg
1612.764	0.88	correct	repeat	Run2	repeat/STIM_006.jpg
1616.961	0.596	correct	repeat	Run2	repeat/STIM_007.jpg
1619.699	0.619	correct	repeat	Run2	repeat/STIM_007.jpg
1623.514	0.93	correct	repeat	Run2	repeat/STIM_007.jpg
1627.754	0.602	correct	repeat	Run2	repeat/STIM_007.jpg
1632.057	0.584	correct	repeat	Run2	repeat/STIM_007.jpg
1636.279	1.01	correct	repeat	Run2	repeat/STIM_008.jpg
1640.034	0.938	correct	repeat	Run2	repeat/STIM_008.jpg
1643.314	0.686	correct	repeat	Run2	repeat/STIM_008.jpg
1647.882	0.687	correct	repeat	Run2	repeat/STIM_008.jpg
1650.981	0.818	incorrect	repeat	Run2	repeat/STIM_008.jpg
1655.129	0.718	correct	repeat	Run2	repeat/STIM_009.jpg
1658.533	0.884	correct	repeat	Run2	repeat/STIM_009.jpg
1662.99	1.088	correct	repeat	Run2	repeat/STIM_009.jpg
1667.852	0.703	correct	repeat	Run2	repeat/STIM_009.jpg
1671.972	0.558	correct	repeat	Run2	repeat/STIM_009.jpg
1675.388	0.872	correct	repeat	Run2	repeat/STIM_010.jpg
1678.233	1.065	correct	repeat	Run2	repeat/STIM_010.jpg
1682.898	1.0	correct	repeat	Run2	repeat/STIM_010.jpg
1687.314	0.835	correct	repeat	Run2	repeat/STIM_010.jpg
1691.787	0.745	correct	repeat	Run2	repeat/STIM_010.jpg
1695.219	0.995	correct	repeat	Run2	repeat/STIM_011.jpg
1699.57	0.711	correct	repeat	Run2	repeat/STIM_011.jpg
1702.295	0.992	correct	repeat	Run2	repeat/STIM_011.jpg
1706.048	0.669	correct	repeat	Run2	repeat/STIM_011.jpg
1709.132	0.656	correct	repeat	Run2	repeat/STIM_011.jpg
1713.462	0.924	correct	repeat	Run2	repeat/STIM_012.jpg
1717.304	0.615	incorrect	repeat	Run2	repeat/STIM_012.jpg
1720.454	1.104	correct	repeat	Run2	repeat/STIM_012.jpg
1723.924	0.916	correct	repeat	Run2	repeat/STIM_012.jpg
1728.267	0.945	correct	repeat	Run2	repeat/STIM_012.jpg
1731.891	0.641	correct	repeat	Run2	repeat/STIM_013.jpg
1735.947	0.726	correct	repeat	Run2	repeat/STIM_013.jpg
1739.831	1.128	correct	repeat	Run2	repeat/STIM_013.jpg
1743.896	0.871	correct	repeat	Run2	repeat/STIM_013.jpg
1747.724	0.88	correct	repeat	Run2	repeat/STIM_013.jpg
1752.221	0.518	correct	repeat	Run2	repeat/STIM_014.jpg
1755.54	0.817	correct	repeat	Run2	repeat/STIM_014.jpg
1759.465	1.031	correct	repeat	Run2	repeat/STIM_014.jpg
1762.568	0.812	correct	repeat	Run2	repeat/STIM_014.jpg
1765.286	1.022	incorrect	repeat	Run2	repeat/STIM_014.jpg
1768.531	1.81	correct	generate	Run3	generate/STIM_000.jpg
1773.082	1.828	correct	generate	Run3	generate/STIM_000.jpg
1778.44	1.213	correct	generate	Run3	generate/STIM_000.jpg
1783.174	1.503	correct	generate	Run3	generate/STIM_000.jpg
1786.671	1.846	correct	generate	Run3	generate/STIM_000.jpg
1791.698	1.818	correct	generate	Run3	generate/STIM_001.jpg
1795.338	1.294	correct	generate	Run3	generate/STIM_001.jpg
1798.949	1.059	correct	generate	Run3	generate/STIM_001.jpg
1803.803	1.467	correct	generate	Run3	generate/STIM_001.jpg
1807.477	1.406	correct	generate	Run3	generate/STIM_001.jpg
1811.006	1.626	correct	generate	Run3	generate/STIM_002.jpg
1815.239	1.21	correct	generate	Run3	generate/STIM_002.jpg
1818.585	1.388	correct	generate	Run3	generate/STIM_002.jpg
1822.521	1.817	correct	generate	Run3	generate/STIM_002.jpg
1827.23	0.961	correct	generate	Run3	generate/STIM_002.jpg
1830.481	1.139	correct	generate	Run3	generate/STIM_003.jpg
1833.542	2.289	correct	generate	Run3	generate/STIM_003.jpg
1838.295	2.173	incorrect	generate	Run3	generate/STIM_003.jpg
1843.199	1.833	correct	generate	Run3	generate/STIM_003.jpg
1847.978	1.631	correct	generate	Run3	generate/STIM_003.jpg
1852.933	1.0	correct	generate	Run3	generate/STIM_004.jpg
1855.956	1.849	correct	generate	Run3	generate/STIM_004.jpg
1861.412	1.095	correct	generate	Run3	generate/STIM_004.jpg
1864.728	1.998	correct	generate	Run3	generate/STIM_004.jpg
1869.202	2.138	correct	generate	Run3	generate/STIM_004.jpg
1873.982	1.044	incorrect	generate	Run3	generate/STIM_005.jpg
1877.771	0.98	correct	generate	Run3	generate/STIM_005.jpg
1880.861	1.785	correct	generate	Run3	generate/STIM_005.jpg
1884.588	1.989	correct	generate	Run3	generate/STIM_005.jpg
1888.948	1.92	correct	generate	Run3	generate/STIM_005.jpg
1893.508	2.238	correct	generate	Run3	generate/STIM_006.jpg
1898.645	2.085	correct	generate	Run3	generate/STIM_006.jpg
1902.66	1.018	correct	generate	Run3	generate/STIM_006.jpg
1907.556	1.165	correct	generate	Run3	generate/STIM_006.jpg
1911.966	1.93	correct	generate	Run3	generate/STIM_006.jpg
1917.605	1.411	correct	generate	Run3	generate/STIM_007.jpg
1920.933	2.367	correct	generate	Run3	generate/STIM_007.jpg
1925.794	1.267	correct	generate	Run3	generate/STIM_007.jpg
1930.357	1.159	correct	generate	Run3	generate/STIM_007.jpg
1934.781	2.16	correct	generate	Run3	generate/STIM_007.jpg
1940.644	1.864	incorrect	generate	Run3	generate/STIM_008.jpg
1944.377	1.209	correct	generate	Run3	generate/STIM_008.jpg
1947.887	1.99	correct	generate	Run3	generate/STIM_008.jpg
1952.665	1.325	correct	generate	Run3	generate/STIM_008.jpg
1956.318	1.736	correct	generate	Run3	generate/STIM_008.jpg
1961.293	2.3	correct	generate	Run3	generate/STIM_009.jpg
1965.439	1.297	correct	generate	Run3	generate/STIM_009.jpg
1968.813	2.318	correct	generate	Run3	generate/STIM_009.jpg
1974.635	2.196	correct	generate	Run3	generate/STIM_009.jpg
1979.782	1.796	correct	generate	Run3	generate/STIM_009.jpg
1984.108	1.294	incorrect	generate	Run3	generate/STIM_010.jpg
1987.417	1.872	incorrect	generate	Run3	generate/STIM_010.jpg
1992.355	1.522	correct	generate	Run3	generate/STIM_010.jpg
1997.455	1.044	correct	generate	Run3	generate/STIM_010.jpg
2001.217	1.498	correct	generate	Run3	generate/STIM_010.jpg
2004.592	1.696	correct	generate	Run3	generate/STIM_011.jpg
2009.798	1.837	correct	generate	Run3	generate/STIM_011.jpg
2015.104	1.887	correct	generate	Run3	generate/STIM_011.jpg
2019.851	1.215	correct	generate	Run3	generate/STIM_011.jpg
2024.372	1.994	incorrect	generate	Run3	generate/STIM_011.jpg
2029.011	2.334	correct	generate	Run3	generate/STIM_012.jpg
2033.827	1.374	correct	generate	Run3	generate/STIM_012.jpg
2038.957	1.049	correct	generate	Run3	generate/STIM_012.jpg
2043.381	1.647	correct	generate	Run3	generate/STIM_012.jpg
2047.325	1.927	correct	generate	Run3	generate/STIM_012.jpg
2052.182	1.86	correct	generate	Run3	generate/STIM_013.jpg
2056.541	1.954	incorrect	generate	Run3	generate/STIM_013.jpg
2060.998	1.598	correct	generate	Run3	generate/STIM_013.jpg
2065.959	1.336	correct	generate	Run3	generate/STIM_013.jpg
2071.026	2.158	correct	generate	Run3	generate/STIM_013.jpg
2075.757	2.373	correct	generate	Run3	generate/STIM_014.jpg
2081.41	2.312	correct	generate	Run3	generate/STIM_014.jpg
2086.757	1.352	correct	generate	Run3	generate/STIM_014.jpg
2091.208	2.056	correct	generate	Run3	generate/STIM_014.jpg
2096.955	2.013	correct	generate	Run3	generate/STIM_014.jpg
2101.857	1.294	correct	generate	Run3	generate/STIM_015.jpg
2106.42	1.163	correct	generate	Run3	generate/STIM_015.jpg
2109.52	1.458	correct	generate	Run3	generate/STIM_015.jpg
2114.14	1.297	correct	generate	Run3	generate/STIM_015.jpg
2118.643	1.332	correct	generate	Run3	generate/STIM_015.jpg
2123.155	1.727	correct	generate	Run3	generate/STIM_016.jpg
2126.813	1.777	correct	generate	Run3	generate/STIM_016.jpg
2131.389	2.261	correct	generate	Run3	generate/STIM_016.jpg
2136.653	0.995	correct	generate	Run3	generate/STIM_016.jpg
2140.844	1.466	correct	generate	Run3	generate/STIM_016.jpg
2145.215	2.102	correct	generate	Run3	generate/STIM_017.jpg
2150.885	1.466	incorrect	generate	Run3	generate/STIM_017.jpg
2154.43	1.219	correct	generate	Run3	generate/STIM_017.jpg
2158.056	2.215	correct	generate	Run3	generate/STIM_017.jpg
2163.285	1.497	correct	generate	Run3	generate/STIM_017.jpg
2168.041	1.017	correct	generate	Run3	generate/STIM_018.jpg
2171.333	1.452	correct	generate	Run3	generate/STIM_018.jpg
2174.949	1.266	correct	generate	Run3	generate/STIM_018.jpg
2179.52	1.562	correct	generate	Run3	generate/STIM_018.jpg
2183.439	2.191	correct	generate	Run3	generate/STIM_018.jpg
2189.313	1.595	correct	generate	Run3	generate/STIM_019.jpg
2193.665	2.307	correct	generate	Run3	generate/STIM_019.jpg
2197.83	2.063	correct	generate	Run3	generate/STIM_019.jpg
2202.995	1.906	correct	generate	Run3	generate/STIM_019.jpg
2208.359	1.042	correct	generate	Run3	generate/STIM_019.jpg
2212.684	1.506	correct	generate	Run3	generate/STIM_020.jpg
2216.719	1.12	correct	generate	Run3	generate/STIM_020.jpg
2221.385	2.096	incorrect	generate	Run3	generate/STIM_020.jpg
2225.257	1.234	correct	generate	Run3	generate/STIM_020.jpg
2228.409	2.277	correct	generate	Run3	generate/STIM_020.jpg
2233.519	1.186	correct	generate	Run3	generate/STIM_021.jpg
2237.321	2.064	correct	generate	Run3	generate/STIM_021.jpg
2241.322	1.521	correct	generate	Run3	generate/STIM_021.jpg
2244.849	2.227	correct	generate	Run3	generate/STIM_021.jpg
2249.488	1.038	correct	generate	Run3	generate/STIM_021.jpg
2253.407	2.144	correct	generate	Run3	generate/STIM_022.jpg
2257.662	2.372	correct	generate	Run3	generate/STIM_022.jpg
2261.784	1.709	correct	generate	Run3	generate/STIM_022.jpg
2266.93	1.341	correct	generate	Run3	generate/STIM_022.jpg
2271.054	2.135	incorrect	generate	Run3	generate/STIM_022.jpg
2276.014	1.06	correct	generate	Run3	generate/STIM_023.jpg
2279.364	1.297	correct	generate	Run3	generate/STIM_023.jpg
2283.33	2.293	correct	generate	Run3	generate/STIM_023.jpg
2287.902	1.113	correct	generate	Run3	generate/STIM_023.jpg
2291.344	2.208	incorrect	generate	Run3	generate/STIM_023.jpg
2297.077	1.494	incorrect	generate	Run3	generate/STIM_024.jpg
2302.306	1.571	correct	generate	Run3	generate/STIM_024.jpg
2306.959	1.386	correct	generate	Run3	generate/STIM_024.jpg
2311.719	2.0	correct	generate	Run3	generate/STIM_024.jpg
2316.149	1.659	correct	generate	Run3	generate/STIM_024.jpg
2319.773	0.741	correct	repeat	Run3	repeat/STIM_000.jpg
2323.639	0.687	correct	repeat	Run3	repeat/STIM_000.jpg
2327.647	0.716	correct	repeat	Run3	repeat/STIM_000.jpg
2330.288	1.129	correct	repeat	Run3	repeat/STIM_000.jpg
2334.972	1.038	correct	repeat	Run3	repeat/STIM_000.jpg
2338.224	0.759	correct	repeat	Run3	repeat/STIM_001.jpg
2341.747	0.623	correct	repeat	Run3	repeat/STIM_001.jpg
2344.295	0.973	correct	repeat	Run3	repeat/STIM_001.jpg
2348.261	0.662	incorrect	repeat	Run3	repeat/STIM_001.jpg
2351.219	0.88	correct	repeat	Run3	repeat/STIM_001.jpg
2355.759	1.08	correct	repeat	Run3	repeat/STIM_002.jpg
2360.136	0.827	correct	repeat	Run3	repeat/STIM_002.jpg
2364.116	0.799	correct	repeat	Run3	repeat/STIM_002.jpg
2367.825	0.761	correct	repeat	Run3	repeat/STIM_002.jpg
2371.741	0.8	correct	repeat	Run3	repeat/STIM_002.jpg
2374.528	1.09	correct	repeat	Run3	repeat/STIM_003.jpg
2378.439	0.588	correct	repeat	Run3	repeat/STIM_003.jpg
2382.77	1.114	correct	repeat	Run3	repeat/STIM_003.jpg
2386.575	0.653	correct	repeat	Run3	repeat/STIM_003.jpg
2389.696	0.956	correct	repeat	Run3	repeat/STIM_003.jpg
2392.881	1.081	correct	repeat	Run3	repeat/STIM_004.jpg
2397.729	0.964	correct	repeat	Run3	repeat/STIM_004.jpg
2400.946	0.616	correct	repeat	Run3	repeat/STIM_004.jpg
2404.525	1.058	correct	repeat	Run3	repeat/STIM_004.jpg
2409.207	0.668	correct	repeat	Run3	repeat/STIM_004.jpg
2413.569	0.745	correct	repeat	Run3	repeat/STIM_005.jpg
2417.801	1.068	correct	repeat	Run3	repeat/STIM_005.jpg
2421.402	0.868	correct	repeat	Run3	repeat/STIM_005.jpg
2425.805	0.9	correct	repeat	Run3	repeat/STIM_005.jpg
2429.64	1.151	correct	repeat	Run3	repeat/STIM_005.jpg
2433.173	0.804	correct	repeat	Run3	repeat/STIM_006.jpg
2436.03	0.891	correct	repeat	Run3	repeat/STIM_006.jpg
2438.901	0.801	correct	repeat	Run3	repeat/STIM_006.jpg
2442.402	0.863	correct	repeat	Run3	repeat/STIM_006.jpg
2446.544	0.904	correct	repeat	Run3	repeat/STIM_006.jpg
2450.596	0.539	correct	repeat	Run3	repeat/STIM_007.jpg
2453.866	0.983	correct	repeat	Run3	repeat/STIM_007.jpg
2458.451	0.849	correct	repeat	Run3	repeat/STIM_007.jpg
2461.423	0.694	correct	repeat	Run3	repeat/STIM_007.jpg
2465.692	0.71	correct	repeat	Run3	repeat/STIM_007.jpg
2468.845	0.803	correct	repeat	Run3	repeat/STIM_008.jpg
2472.023	0.734	correct	repeat	Run3	repeat/STIM_008.jpg
2475.113	0.59	correct	repeat	Run3	repeat/STIM_008.jpg
2479.459	0.576	correct	repeat	Run3	repeat/STIM_008.jpg
2482.636	1.085	correct	repeat	Run3	repeat/STIM_008.jpg
2486.161	0.832	correct	repeat	Run3	repeat/STIM_009.jpg
2490.835	0.579	correct	repeat	Run3	repeat/STIM_009.jpg
2494.855	1.024	correct	repeat	Run3	repeat/STIM_009.jpg
2498.411	0.677	correct	repeat	Run3	repeat/STIM_009.jpg
2502.707	0.663	correct	repeat	Run3	repeat/STIM_009.jpg
2506.23	1.014	correct	repeat	Run3	repeat/STIM_010.jpg
2509.8	0.76	correct	repeat	Run3	repeat/STIM_010.jpg
2512.55	0.742	correct	repeat	Run3	repeat/STIM_010.jpg
2516.198	0.974	correct	repeat	Run3	repeat/STIM_010.jpg
2519.61	0.509	correct	repeat	Run3	repeat/STIM_010.jpg
2522.994	0.792	correct	repeat	Run3	repeat/STIM_011.jpg
2527.666	1.042	correct	repeat	Run3	repeat/STIM_011.jpg
2531.975	0.83	correct	repeat	Run3	repeat/STIM_011.jpg
2536.414	1.163	correct	repeat	Run3	repeat/STIM_011.jpg
2539.433	0.975	correct	repeat	Run3	repeat/STIM_011.jpg
2543.197	1.044	correct	repeat	Run3	repeat/STIM_012.jpg
2546.475	1.068	correct	repeat	Run3	repeat/STIM_012.jpg
2550.071	0.854	correct	repeat	Run3	repeat/STIM_012.jpg
2553.212	0.568	correct	repeat	Run3	repeat/STIM_012.jpg
2556.775	0.915	correct	repeat	Run3	repeat/STIM_012.jpg
2561.37	0.982	correct	repeat	Run3	repeat/STIM_013.jpg
2565.675	1.011	correct	repeat	Run3	repeat/STIM_013.jpg
2568.95	0.595	correct	repeat	Run3	repeat/STIM_013.jpg
2572.93	0.62	correct	repeat	Run3	repeat/STIM_013.jpg
2577.257	1.15	correct	repeat	Run3	repeat/STIM_013.jpg
2580.607	0.586	correct	repeat	Run3	repeat/STIM_014.jpg
2584.408	1.114	correct	repeat	Run3	repeat/STIM_014.jpg
2587.88	0.791	correct	repeat	Run3	repeat/STIM_014.jpg
2591.882	0.691	correct	repeat	Run3	repeat/STIM_014.jpg
2595.914	0.683	correct	repeat	Run3	repeat/STIM_014.jpg
2600.437	1.66	correct	generate	Run4	generate/STIM_000.jpg
2605.268	1.217	correct	generate	Run4	generate/STIM_000.jpg
2609.756	1.19	correct	generate	Run4	generate/STIM_000.jpg
2614.44	1.859	correct	generate	Run4	generate/STIM_000.jpg
2618.77	2.244	correct	generate	Run4	generate/STIM_000.jpg
2623.888	1.14	correct	generate	Run4	generate/STIM_001.jpg
2628.061	1.595	correct	generate	Run4	generate/STIM_001.jpg
2631.77	2.301	correct	generate	Run4	generate/STIM_001.jpg
2637.66	1.884	correct	generate	Run4	generate/STIM_001.jpg
2641.709	1.905	correct	generate	Run4	generate/STIM_001.jpg
2645.595	2.164	correct	generate	Run4	generate/STIM_002.jpg
2650.298	1.843	correct	generate	Run4	generate/STIM_002.jpg
2654.596	1.64	correct	generate	Run4	generate/STIM_002.jpg
2658.464	1.048	correct	generate	Run4	generate/STIM_002.jpg
2662.885	1.301	correct	generate	Run4	generate/STIM_002.jpg
2668.034	2.005	correct	generate	Run4	generate/STIM_003.jpg
2673.189	1.591	correct	generate	Run4	generate/STIM_003.jpg
2677.898	1.354	correct	generate	Run4	generate/STIM_003.jpg
2681.402	2.123	correct	generate	Run4	generate/STIM_003.jpg
2687.048	1.45	correct	generate	Run4	generate/STIM_003.jpg
2691.841	1.364	correct	generate	Run4	generate/STIM_004.jpg
2696.784	1.271	correct	generate	Run4	generate/STIM_004.jpg
2701.636	0.929	incorrect	generate	Run4	generate/STIM_004.jpg
2705.386	2.184	correct	generate	Run4	generate/STIM_004.jpg
2711.234	2.379	correct	generate	Run4	generate/STIM_004.jpg
2716.472	1.566	correct	generate	Run4	generate/STIM_005.jpg
2720.303	0.973	correct	generate	Run4	generate/STIM_005.jpg
2723.672	2.172	correct	generate	Run4	generate/STIM_005.jpg
2729.266	1.584	correct	generate	Run4	generate/STIM_005.jpg
2733.892	2.284	correct	generate	Run4	generate/STIM_005.jpg
2739.595	2.215	correct	generate	Run4	generate/STIM_006.jpg
2744.179	1.177	correct	generate	Run4	generate/STIM_006.jpg
2749.068	2.228	correct	generate	Run4	generate/STIM_006.jpg
2753.704	0.924	correct	generate	Run4	generate/STIM_006.jpg
2756.871	1.862	correct	generate	Run4	generate/STIM_006.jpg
2760.613	2.102	correct	generate	Run4	generate/STIM_007.jpg
2766.057	1.626	incorrect	generate	Run4	generate/STIM_007.jpg
2770.907	1.542	correct	generate	Run4	generate/STIM_007.jpg
2774.754	1.46	correct	generate	Run4	generate/STIM_007.jpg
2778.199	1.058	correct	generate	Run4	generate/STIM_007.jpg
2782.472	1.768	correct	generate	Run4	generate/STIM_008.jpg
2787.316	1.207	correct	generate	Run4	generate/STIM_008.jpg
2791.982	1.7	correct	generate	Run4	generate/STIM_008.jpg
2797.164	2.388	correct	generate	Run4	generate/STIM_008.jpg
2802.79	1.608	correct	generate	Run4	generate/STIM_008.jpg
2806.647	2.104	correct	generate	Run4	generate/STIM_009.jpg
2811.383	1.189	correct	generate	Run4	generate/STIM_009.jpg
2815.015	1.563	correct	generate	Run4	generate/STIM_009.jpg
2819.896	1.19	correct	generate	Run4	generate/STIM_009.jpg
2824.052	1.981	correct	generate	Run4	generate/STIM_009.jpg
2827.863	1.627	correct	generate	Run4	generate/STIM_010.jpg
2832.41	1.349	correct	generate	Run4	generate/STIM_010.jpg
2836.041	1.958	correct	generate	Run4	generate/STIM_010.jpg
2840.11	2.108	correct	generate	Run4	generate/STIM_010.jpg
2845.842	2.098	correct	generate	Run4	generate/STIM_010.jpg
2849.75	1.647	correct	generate	Run4	generate/STIM_011.jpg
2854.017	1.977	correct	generate	Run4	generate/STIM_011.jpg
2858.078	1.957	correct	generate	Run4	generate/STIM_011.jpg
2862.753	2.057	correct	generate	Run4	generate/STIM_011.jpg
2867.927	2.174	correct	generate	Run4	generate/STIM_011.jpg
2872.327	1.424	correct	generate	Run4	generate/STIM_012.jpg
2875.698	1.252	correct	generate	Run4	generate/STIM_012.jpg
2880.227	0.992	correct	generate	Run4	generate/STIM_012.jpg
2883.411	1.505	correct	generate	Run4	generate/STIM_012.jpg
2886.879	1.572	correct	generate	Run4	generate/STIM_012.jpg
2891.041	1.583	correct	generate	Run4	generate/STIM_013.jpg
2895.66	1.208	correct	generate	Run4	generate/STIM_013.jpg
2899.446	1.197	correct	generate	Run4	generate/STIM_013.jpg
2903.369	1.698	correct	generate	Run4	generate/STIM_013.jpg
2907.191	1.649	correct	generate	Run4	generate/STIM_013.jpg
2911.502	2.377	incorrect	generate	Run4	generate/STIM_014.jpg
2915.688	1.738	correct	generate	Run4	generate/STIM_014.jpg
2921.001	1.692	correct	generate	Run4	generate/STIM_014.jpg
2924.773	1.612	correct	generate	Run4	generate/STIM_014.jpg
2929.362	1.136	incorrect	generate	Run4	generate/STIM_014.jpg
2934.109	1.392	correct	generate	Run4	generate/STIM_015.jpg
2938.509	1.595	correct	generate	Run4	generate/STIM_015.jpg
2942.657	1.022	correct	generate	Run4	generate/STIM_015.jpg
2946.169	1.014	correct	generate	Run4	generate/STIM_015.jpg
2949.655	2.327	correct	generate	Run4	generate/STIM_015.jpg
2955.113	1.756	correct	generate	Run4	generate/STIM_016.jpg
2959.512	0.967	correct	generate	Run4	generate/STIM_016.jpg
2963.27	1.52	correct	generate	Run4	generate/STIM_016.jpg
2967.98	1.173	correct	generate	Run4	generate/STIM_016.jpg
2971.792	2.179	correct	generate	Run4	generate/STIM_016.jpg
2976.658	2.13	correct	generate	Run4	generate/STIM_017.jpg
2981.265	1.227	correct	generate	Run4	generate/STIM_017.jpg
2985.845	1.341	correct	generate	Run4	generate/STIM_017.jpg
2989.417	2.422	correct	generate	Run4	generate/STIM_017.jpg
2993.926	1.41	correct	generate	Run4	generate/STIM_017.jpg
2998.347	1.697	correct	generate	Run4	generate/STIM_018.jpg
3003.383	1.876	correct	generate	Run4	generate/STIM_018.jpg
3008.492	1.136	correct	generate	Run4	generate/STIM_018.jpg
3012.978	0.954	correct	generate	Run4	generate/STIM_018.jpg
3016.827	1.448	correct	generate	Run4	generate/STIM_018.jpg
3020.942	1.938	correct	generate	Run4	generate/STIM_019.jpg
3025.263	1.213	correct	generate	Run4	generate/STIM_019.jpg
3030.306	2.126	correct	generate	Run4	generate/STIM_019.jpg
3035.838	1.198	correct	generate	Run4	generate/STIM_019.jpg
3040.23	0.952	correct	generate	Run4	generate/STIM_019.jpg
3044.869	1.279	correct	generate	Run4	generate/STIM_020.jpg
3048.608	1.056	correct	generate	Run4	generate/STIM_020.jpg
3053.002	1.962	correct	generate	Run4	generate/STIM_020.jpg
3058.249	0.937	correct	generate	Run4	generate/STIM_020.jpg
3062.543	1.283	correct	generate	Run4	generate/STIM_020.jpg
3067.306	1.65	correct	generate	Run4	generate/STIM_021.jpg
3072.103	2.049	correct	generate	Run4	generate/STIM_021.jpg
3076.569	1.423	correct	generate	Run4	generate/STIM_021.jpg
3080.205	1.79	correct	generate	Run4	generate/STIM_021.jpg
3085.042	2.229	correct	generate	Run4	generate/STIM_021.jpg
3089.178	2.306	correct	generate	Run4	generate/STIM_022.jpg
3094.566	2.344	correct	generate	Run4	generate/STIM_022.jpg
3098.875	1.418	correct	generate	Run4	generate/STIM_022.jpg
3102.35	1.053	correct	generate	Run4	generate/STIM_022.jpg
3106.546	1.996	correct	generate	Run4	generate/STIM_022.jpg
3111.76	2.032	correct	generate	Run4	generate/STIM_023.jpg
3117.021	1.47	correct	generate	Run4	generate/STIM_023.jpg
3120.693	1.09	correct	generate	Run4	generate/STIM_023.jpg
3124.175	1.801	correct	generate	Run4	generate/STIM_023.jpg
3127.87	1.814	correct	generate	Run4	generate/STIM_023.jpg
3131.569	1.954	correct	generate	Run4	generate/STIM_024.jpg
3136.716	1.994	incorrect	generate	Run4	generate/STIM_024.jpg
3141.246	1.879	correct	generate	Run4	generate/STIM_024.jpg
3146.079	2.186	correct	generate	Run4	generate/STIM_024.jpg
3150.207	1.59	correct	generate	Run4	generate/STIM_024.jpg
3154.066	0.731	correct	repeat	Run4	repeat/STIM_000.jpg
3157.701	1.061	correct	repeat	Run4	repeat/STIM_000.jpg
3161.491	0.827	correct	repeat	Run4	repeat/STIM_000.jpg
3165.141	1.072	correct	repeat	Run4	repeat/STIM_000.jpg
3169.343	0.68	correct	repeat	Run4	repeat/STIM_000.jpg
3172.609	0.846	correct	repeat	Run4	repeat/STIM_001.jpg
3177.195	0.603	correct	repeat	Run4	repeat/STIM_001.jpg
3179.956	0.923	correct	repeat	Run4	repeat/STIM_001.jpg
3183.838	0.723	correct	repeat	Run4	repeat/STIM_001.jpg
3186.588	0.916	correct	repeat	Run4	repeat/STIM_001.jpg
3191.375	0.929	correct	repeat	Run4	repeat/STIM_002.jpg
3195.191	0.866	correct	repeat	Run4	repeat/STIM_002.jpg
3199.66	0.667	correct	repeat	Run4	repeat/STIM_002.jpg
3202.816	0.86	correct	repeat	Run4	repeat/STIM_002.jpg
3205.764	0.577	correct	repeat	Run4	repeat/STIM_002.jpg
3208.97	0.895	correct	repeat	Run4	repeat/STIM_003.jpg
3213.384	0.584	correct	repeat	Run4	repeat/STIM_003.jpg
3216.463	0.64	correct	repeat	Run4	repeat/STIM_003.jpg
3220.075	0.73	correct	repeat	Run4	repeat/STIM_003.jpg
3224.165	1.006	correct	repeat	Run4	repeat/STIM_003.jpg
3229.005	0.915	correct	repeat	Run4	repeat/STIM_004.jpg
3233.276	0.835	correct	repeat	Run4	repeat/STIM_004.jpg
3236.05	0.625	correct	repeat	Run4	repeat/STIM_004.jpg
3239.542	0.886	correct	repeat	Run4	repeat/STIM_004.jpg
3242.967	1.01	incorrect	repeat	Run4	repeat/STIM_004.jpg
3245.862	0.761	correct	repeat	Run4	repeat/STIM_005.jpg
3248.845	1.029	correct	repeat	Run4	repeat/STIM_005.jpg
3253.614	0.825	correct	repeat	Run4	repeat/STIM_005.jpg
3257.559	0.871	correct	repeat	Run4	repeat/STIM_005.jpg
3261.549	1.065	correct	repeat	Run4	repeat/STIM_005.jpg
3265.852	0.541	incorrect	repeat	Run4	repeat/STIM_006.jpg
3269.202	0.917	correct	repeat	Run4	repeat/STIM_006.jpg
3273.837	1.008	correct	repeat	Run4	repeat/STIM_006.jpg
3277.405	0.732	correct	repeat	Run4	repeat/STIM_006.jpg
3280.827	0.812	correct	repeat	Run4	repeat/STIM_006.jpg
3285.127	0.698	correct	repeat	Run4	repeat/STIM_007.jpg
3288.427	1.115	correct	repeat	Run4	repeat/STIM_007.jpg
3292.0	0.944	correct	repeat	Run4	repeat/STIM_007.jpg
3295.425	0.798	correct	repeat	Run4	repeat/STIM_007.jpg
3300.072	0.754	correct	repeat	Run4	repeat/STIM_007.jpg
3304.281	0.593	correct	repeat	Run4	repeat/STIM_008.jpg
3307.358	0.652	correct	repeat	Run4	repeat/STIM_008.jpg
3311.578	0.85	correct	repeat	Run4	repeat/STIM_008.jpg
3316.129	0.78	correct	repeat	Run4	repeat/STIM_008.jpg
3319.75	0.862	correct	repeat	Run4	repeat/STIM_008.jpg
3323.927	0.679	correct	repeat	Run4	repeat/STIM_009.jpg
3327.408	1.028	correct	repeat	Run4	repeat/STIM_009.jpg
3331.426	0.716	correct	repeat	Run4	repeat/STIM_009.jpg
3334.814	0.537	correct	repeat	Run4	repeat/STIM_009.jpg
3338.693	0.648	correct	repeat	Run4	repeat/STIM_009.jpg
3341.624	0.599	correct	repeat	Run4	repeat/STIM_010.jpg
3345.48	0.982	correct	repeat	Run4	repeat/STIM_010.jpg
3349.614	0.586	correct	repeat	Run4	repeat/STIM_010.jpg
3354.072	1.027	correct	repeat	Run4	repeat/STIM_010.jpg
3358.538	1.03	correct	repeat	Run4	repeat/STIM_010.jpg
3363.025	0.968	correct	repeat	Run4	repeat/STIM_011.jpg
3366.358	1.088	correct	repeat	Run4	repeat/STIM_011.jpg
3370.143	0.549	correct	repeat	Run4	repeat/STIM_011.jpg
3372.815	0.66	correct	repeat	Run4	repeat/STIM_011.jpg
3375.964	0.87	correct	repeat	Run4	repeat/STIM_011.jpg
3379.237	0.649	correct	repeat	Run4	repeat/STIM_012.jpg
3382.766	1.148	correct	repeat	Run4	repeat/STIM_012.jpg
3387.208	0.958	correct	repeat	Run4	repeat/STIM_012.jpg
3391.231	0.973	correct	repeat	Run4	repeat/STIM_012.jpg
3394.652	0.802	correct	repeat	Run4	repeat/STIM_012.jpg
3399.29	0.818	correct	repeat	Run4	repeat/STIM_013.jpg
3402.3	0.968	correct	repeat	Run4	repeat/STIM_013.jpg
3406.94	0.656	correct	repeat	Run4	repeat/STIM_013.jpg
3410.942	1.0	correct	repeat	Run4	repeat/STIM_013.jpg
3415.083	0.899	correct	repeat	Run4	repeat/STIM_013.jpg
3418.101	0.989	correct	repeat	Run4	repeat/STIM_014.jpg
3422.25	0.936	correct	repeat	Run4	repeat/STIM_014.jpg
3426.183	0.59	correct	repeat	Run4	repeat/STIM_014.jpg
3429.955	0.641	correct	repeat	Run4	repeat/STIM_014.jpg
3433.913	0.657	correct	repeat	Run4	repeat/STIM_014.jpg
