onset	duration	response_time_ms	trial_type	learning_stage	stimulus	response_port
0.0	0.898	897.5	incongruent	Block1	incongruent/STIM_000.jpg	100
4.391	0.912	912.3	incongruent	Block1	incongruent/STIM_000.jpg	100
7.862	1.201	1201.1	incongruent	Block1	incongruent/STIM_000.jpg	99
12.303	0.598	598.1	incongruent	Block1	incongruent/STIM_000.jpg	100
16.78	0.71	710.0	incongruent	Block1	incongruent/STIM_000.jpg	100
19.515	0.646	646.0	incongruent	Block1	incongruent/STIM_001.jpg	99
22.867	0.651	650.9	incongruent	Block1	incongruent/STIM_001.jpg	100
26.031	0.908	908.1	incongruent	Block1	incongruent/STIM_001.jpg	99
29.471	0.675	674.8	incongruent	Block1	incongruent/STIM_001.jpg	99
32.858	0.76	760.4	incongruent	Block1	incongruent/STIM_001.jpg	99
36.213	1.13	1129.7	incongruent	Block1	incongruent/STIM_002.jpg	100
41.128	0.855	855.3	incongruent	Block1	incongruent/STIM_002.jpg	99
45.236	0.634	634.3	incongruent	Block1	incongruent/STIM_002.jpg	100
49.867	1.07	1070.0	incongruent	Block1	incongruent/STIM_002.jpg	100
53.952	1.043	1042.7	incongruent	Block1	incongruent/STIM_002.jpg	99
57.817	0.767	766.9	incongruent	Block1	incongruent/STIM_003.jpg	99
60.676	0.629	629.0	incongruent	Block1	incongruent/STIM_003.jpg	99
65.231	0.585	585.3	incongruent	Block1	incongruent/STIM_003.jpg	100
68.067	0.583	583.2	incongruent	Block1	incongruent/STIM_003.jpg	99
71.317	0.542	542.3	incongruent	Block1	incongruent/STIM_003.jpg	99
75.007	1.319	1318.8	incongruent	Block1	incongruent/STIM_004.jpg	100
78.785	1.008	1007.6	incongruent	Block1	incongruent/STIM_004.jpg	99
82.061	0.951	951.1	incongruent	Block1	incongruent/STIM_004.jpg	100
85.931	0.62	619.6	incongruent	Block1	incongruent/STIM_004.jpg	100
90.355	0.603	603.2	incongruent	Block1	incongruent/STIM_004.jpg	100
94.911	1.056	1055.5	incongruent	Block1	incongruent/STIM_005.jpg	100
99.001	0.88	879.6	incongruent	Block1	incongruent/STIM_005.jpg	99
102.559	1.211	1211.0	incongruent	Block1	incongruent/STIM_005.jpg	100
107.145	0.669	669.1	incongruent	Block1	incongruent/STIM_005.jpg	100
111.43	0.905	904.7	incongruent	Block1	incongruent/STIM_005.jpg	99
114.992	1.326	1326.1	incongruent	Block1	incongruent/STIM_006.jpg	100
119.334	0.969	969.1	incongruent	Block1	incongruent/STIM_006.jpg	100
124.154	0.744	744.4	incongruent	Block1	incongruent/STIM_006.jpg	99
128.679	0.613	613.1	incongruent	Block1	incongruent/STIM_006.jpg	99
131.853	0.722	721.6	incongruent	Block1	incongruent/STIM_006.jpg	100
135.805	0.774	773.9	incongruent	Block1	incongruent/STIM_007.jpg	100
139.133	0.837	836.9	incongruent	Block1	incongruent/STIM_007.jpg	100
142.71	0.721	721.2	incongruent	Block1	incongruent/STIM_007.jpg	99
147.182	0.971	970.9	incongruent	Block1	incongruent/STIM_007.jpg	99
151.195	0.635	634.9	incongruent	Block1	incongruent/STIM_007.jpg	100
155.24	1.169	1169.1	incongruent	Block1	incongruent/STIM_008.jpg	100
158.641	1.277	1277.4	incongruent	Block1	incongruent/STIM_008.jpg	99
163.226	0.817	816.8	incongruent	Block1	incongruent/STIM_008.jpg	100
166.159	0.609	609.1	incongruent	Block1	incongruent/STIM_008.jpg	99
168.894	0.938	937.5	incongruent	Block1	incongruent/STIM_008.jpg	100
173.748	1.33	1329.6	incongruent	Block1	incongruent/STIM_009.jpg	99
178.954	1.279	1278.7	incongruent	Block1	incongruent/STIM_009.jpg	100
183.273	0.791	791.2	incongruent	Block1	incongruent/STIM_009.jpg	100
187.213	0.83	829.5	incongruent	Block1	incongruent/STIM_009.jpg	99
190.472	0.791	791.3	incongruent	Block1	incongruent/STIM_009.jpg	99
193.316	1.18	1180.1	incongruent	Block1	incongruent/STIM_010.jpg	100
197.947	0.757	757.2	incongruent	Block1	incongruent/STIM_010.jpg	100
200.808	1.178	1178.3	incongruent	Block1	incongruent/STIM_010.jpg	100
204.701	0.962	961.7	incongruent	Block1	incongruent/STIM_010.jpg	100
209.032	0.553	552.9	incongruent	Block1	incongruent/STIM_010.jpg	99
211.959	0.872	871.5	incongruent	Block1	incongruent/STIM_011.jpg	99
215.137	0.706	706.2	incongruent	Block1	incongruent/STIM_011.jpg	100
219.315	0.62	620.2	incongruent	Block1	incongruent/STIM_011.jpg	100
222.778	0.545	545.1	incongruent	Block1	incongruent/STIM_011.jpg	99
226.542	0.697	697.3	incongruent	Block1	incongruent/STIM_011.jpg	100
229.635	1.124	1123.8	incongruent	Block1	incongruent/STIM_012.jpg	99
233.922	0.88	880.3	incongruent	Block1	incongruent/STIM_012.jpg	100
238.719	1.045	1044.8	incongruent	Block1	incongruent/STIM_012.jpg	100
242.986	0.731	730.9	incongruent	Block1	incongruent/STIM_012.jpg	100
246.306	0.881	881.4	incongruent	Block1	incongruent/STIM_012.jpg	100
249.366	0.748	748.1	incongruent	Block1	incongruent/STIM_013.jpg	100
253.348	1.099	1099.0	incongruent	Block1	incongruent/STIM_013.jpg	99
256.827	0.886	885.8	incongruent	Block1	incongruent/STIM_013.jpg	99
261.055	0.89	890.0	incongruent	Block1	incongruent/STIM_013.jpg	99
265.749	0.863	863.0	incongruent	Block1	incongruent/STIM_013.jpg	99
269.299	1.157	1156.9	incongruent	Block1	incongruent/STIM_014.jpg	100
272.982	1.281	1281.4	incongruent	Block1	incongruent/STIM_014.jpg	100
278.231	0.966	966.5	incongruent	Block1	incongruent/STIM_014.jpg	99
283.015	0.936	935.5	incongruent	Block1	incongruent/STIM_014.jpg	100
286.254	0.666	665.9	incongruent	Block1	incongruent/STIM_014.jpg	100
289.757	1.275	1274.9	incongruent	Block1	incongruent/STIM_015.jpg	99
294.07	0.722	722.4	incongruent	Block1	incongruent/STIM_015.jpg	99
297.332	0.873	873.1	incongruent	Block1	incongruent/STIM_015.jpg	99
300.769	0.977	976.6	incongruent	Block1	incongruent/STIM_015.jpg	99
305.503	0.662	662.0	incongruent	Block1	incongruent/STIM_015.jpg	100
309.059	1.042	1042.0	incongruent	Block1	incongruent/STIM_016.jpg	99
313.965	0.997	996.9	incongruent	Block1	incongruent/STIM_016.jpg	100
318.446	0.704	704.2	incongruent	Block1	incongruent/STIM_016.jpg	100
322.187	0.584	584.1	incongruent	Block1	incongruent/STIM_016.jpg	100
325.755	0.817	816.8	incongruent	Block1	incongruent/STIM_016.jpg	99
328.826	1.124	1124.0	incongruent	Block1	incongruent/STIM_017.jpg	99
333.739	0.721	720.6	incongruent	Block1	incongruent/STIM_017.jpg	100
337.59	0.641	641.3	incongruent	Block1	incongruent/STIM_017.jpg	100
340.719	0.577	577.1	incongruent	Block1	incongruent/STIM_017.jpg	100
345.226	0.898	898.1	incongruent	Block1	incongruent/STIM_017.jpg	99
348.354	1.03	1029.5	incongruent	Block1	incongruent/STIM_018.jpg	99
352.593	0.674	673.8	incongruent	Block1	incongruent/STIM_018.jpg	100
356.114	0.812	812.4	incongruent	Block1	incongruent/STIM_018.jpg	100
360.263	1.005	1005.2	incongruent	Block1	incongruent/STIM_018.jpg	100
364.293	0.691	691.3	incongruent	Block1	incongruent/STIM_018.jpg	100
367.983	1.231	1230.8	incongruent	Block1	incongruent/STIM_019.jpg	99
371.437	0.998	997.9	incongruent	Block1	incongruent/STIM_019.jpg	99
376.334	0.853	852.7	incongruent	Block1	incongruent/STIM_019.jpg	100
379.665	0.81	810.3	incongruent	Block1	incongruent/STIM_019.jpg	100
383.282	0.653	652.9	incongruent	Block1	incongruent/STIM_019.jpg	100
386.225	0.86	860.1	incongruent	Block1	incongruent/STIM_020.jpg	100
390.289	0.781	780.6	incongruent	Block1	incongruent/STIM_020.jpg	99
394.765	1.219	1218.8	incongruent	Block1	incongruent/STIM_020.jpg	100
399.402	0.744	744.2	incongruent	Block1	incongruent/STIM_020.jpg	100
402.961	0.56	560.3	incongruent	Block1	incongruent/STIM_020.jpg	100
407.244	1.249	1248.9	incongruent	Block1	incongruent/STIM_021.jpg	99
411.091	1.117	1117.3	incongruent	Block1	incongruent/STIM_021.jpg	99
415.283	0.855	854.7	incongruent	Block1	incongruent/STIM_021.jpg	99
419.96	0.772	772.3	incongruent	Block1	incongruent/STIM_021.jpg	100
424.495	0.845	845.2	incongruent	Block1	incongruent/STIM_021.jpg	100
429.284	1.355	1355.3	incongruent	Block1	incongruent/STIM_022.jpg	99
433.509	0.661	660.9	incongruent	Block1	incongruent/STIM_022.jpg	100
438.115	0.781	781.0	incongruent	Block1	incongruent/STIM_022.jpg	99
440.943	1.058	1057.8	incongruent	Block1	incongruent/STIM_022.jpg	100
444.082	0.778	778.1	incongruent	Block1	incongruent/STIM_022.jpg	99
447.407	1.042	1042.2	incongruent	Block1	incongruent/STIM_023.jpg	99
451.879	0.753	752.9	incongruent	Block1	incongruent/STIM_023.jpg	100
456.056	0.689	689.4	incongruent	Block1	incongruent/STIM_023.jpg	99
459.174	1.048	1048.3	incongruent	Block1	incongruent/STIM_023.jpg	99
463.917	0.801	801.4	incongruent	Block1	incongruent/STIM_023.jpg	99
466.791	0.849	848.9	incongruent	Block1	incongruent/STIM_024.jpg	100
469.911	0.972	971.7	incongruent	Block1	incongruent/STIM_024.jpg	99
473.623	1.089	1089.2	incongruent	Block1	incongruent/STIM_024.jpg	99
477.515	0.554	554.1	incongruent	Block1	incongruent/STIM_024.jpg	99
480.501	0.74	739.9	incongruent	Block1	incongruent/STIM_024.jpg	99
484.296	1.315	1315.0	incongruent	Block1	incongruent/STIM_025.jpg	99
487.873	1.023	1023.1	incongruent	Block1	incongruent/STIM_025.jpg	99
491.589	0.584	584.5	incongruent	Block1	incongruent/STIM_025.jpg	100
495.81	1.065	1065.3	incongruent	Block1	incongruent/STIM_025.jpg	99
499.967	0.689	688.8	incongruent	Block1	incongruent/STIM_025.jpg	100
504.384	0.757	756.8	incongruent	Block1	incongruent/STIM_026.jpg	99
507.173	0.996	996.3	incongruent	Block1	incongruent/STIM_026.jpg	99
510.638	1.137	1137.2	incongruent	Block1	incongruent/STIM_026.jpg	100
514.426	1.131	1130.8	incongruent	Block1	incongruent/STIM_026.jpg	99
518.506	0.811	811.2	incongruent	Block1	incongruent/STIM_026.jpg	99
523.173	1.254	1253.6	incongruent	Block1	incongruent/STIM_027.jpg	100
528.129	1.041	1041.0	incongruent	Block1	incongruent/STIM_027.jpg	100
533.17	0.687	686.7	incongruent	Block1	incongruent/STIM_027.jpg	100
536.146	0.791	791.3	incongruent	Block1	incongruent/STIM_027.jpg	100
539.174	0.99	989.9	incongruent	Block1	incongruent/STIM_027.jpg	99
544.118	0.645	644.7	incongruent	Block1	incongruent/STIM_028.jpg	100
547.317	0.956	955.7	incongruent	Block1	incongruent/STIM_028.jpg	100
551.559	1.089	1089.0	incongruent	Block1	incongruent/STIM_028.jpg	100
555.611	0.814	813.9	incongruent	Block1	incongruent/STIM_028.jpg	99
560.047	0.689	688.8	incongruent	Block1	incongruent/STIM_028.jpg	100
563.76	0.903	902.8	incongruent	Block1	incongruent/STIM_029.jpg	100
568.03	1.268	1268.2	incongruent	Block1	incongruent/STIM_029.jpg	99
571.958	0.622	621.8	incongruent	Block1	incongruent/STIM_029.jpg	99
575.225	1.077	1077.3	incongruent	Block1	incongruent/STIM_029.jpg	100
579.919	0.64	639.8	incongruent	Block1	incongruent/STIM_029.jpg	100
583.945	0.49	490.1	congruent	Block1	congruent/STIM_000.jpg	100
586.532	0.721	721.3	congruent	Block1	congruent/STIM_000.jpg	99
589.509	0.595	594.9	congruent	Block1	congruent/STIM_000.jpg	100
592.318	0.536	535.8	congruent	Block1	congruent/STIM_000.jpg	100
594.936	0.597	597.0	congruent	Block1	congruent/STIM_000.jpg	100
598.074	0.672	671.6	congruent	Block1	congruent/STIM_001.jpg	100
600.771	0.705	705.2	congruent	Block1	congruent/STIM_001.jpg	99
604.456	0.719	719.3	congruent	Block1	congruent/STIM_001.jpg	100
608.567	0.674	673.5	congruent	Block1	congruent/STIM_001.jpg	99
611.56	0.815	815.2	congruent	Block1	congruent/STIM_001.jpg	100
615.492	0.686	686.1	congruent	Block1	congruent/STIM_002.jpg	100
619.328	0.496	496.5	congruent	Block1	congruent/STIM_002.jpg	99
623.313	0.46	459.8	congruent	Block1	congruent/STIM_002.jpg	99
626.897	0.784	784.1	congruent	Block1	congruent/STIM_002.jpg	100
629.708	0.59	590.5	congruent	Block1	congruent/STIM_002.jpg	100
632.7	0.506	506.3	congruent	Block1	congruent/STIM_003.jpg	100
635.389	0.607	606.7	congruent	Block1	congruent/STIM_003.jpg	100
639.491	0.591	591.3	congruent	Block1	congruent/STIM_003.jpg	99
643.299	0.691	691.1	congruent	Block1	congruent/STIM_003.jpg	100
646.218	0.632	632.4	congruent	Block1	congruent/STIM_003.jpg	100
649.045	0.587	587.3	congruent	Block1	congruent/STIM_004.jpg	100
653.431	0.676	675.9	congruent	Block1	congruent/STIM_004.jpg	99
657.837	0.757	757.0	congruent	Block1	congruent/STIM_004.jpg	99
662.028	0.471	470.7	congruent	Block1	congruent/STIM_004.jpg	99
665.693	0.532	531.5	congruent	Block1	congruent/STIM_004.jpg	100
669.905	0.603	602.9	congruent	Block1	congruent/STIM_005.jpg	99
673.7	0.759	759.0	congruent	Block1	congruent/STIM_005.jpg	99
677.035	0.624	624.2	congruent	Block1	congruent/STIM_005.jpg	100
680.321	0.551	550.9	congruent	Block1	congruent/STIM_005.jpg	99
684.61	0.504	503.8	congruent	Block1	congruent/STIM_005.jpg	99
688.703	0.661	660.9	congruent	Block1	congruent/STIM_006.jpg	100
691.978	0.656	656.3	congruent	Block1	congruent/STIM_006.jpg	99
695.85	0.769	768.6	congruent	Block1	congruent/STIM_006.jpg	100
699.478	0.57	570.2	congruent	Block1	congruent/STIM_006.jpg	100
702.397	0.744	744.0	congruent	Block1	congruent/STIM_006.jpg	100
706.302	0.795	795.0	congruent	Block1	congruent/STIM_007.jpg	100
709.124	0.637	637.1	congruent	Block1	congruent/STIM_007.jpg	99
713.26	0.612	611.5	congruent	Block1	congruent/STIM_007.jpg	99
717.197	0.472	472.1	congruent	Block1	congruent/STIM_007.jpg	99
721.048	0.668	668.0	congruent	Block1	congruent/STIM_007.jpg	100
724.155	0.795	795.2	congruent	Block1	congruent/STIM_008.jpg	100
727.296	0.649	648.8	congruent	Block1	congruent/STIM_008.jpg	100
731.455	0.583	582.6	congruent	Block1	congruent/STIM_008.jpg	99
735.584	0.76	759.6	congruent	Block1	congruent/STIM_008.jpg	100
739.367	0.584	584.4	congruent	Block1	congruent/STIM_008.jpg	100
742.489	0.458	458.2	congruent	Block1	congruent/STIM_009.jpg	99
745.868	0.619	618.7	congruent	Block1	congruent/STIM_009.jpg	99
749.444	0.48	480.5	congruent	Block1	congruent/STIM_009.jpg	99
753.042	0.767	766.6	congruent	Block1	congruent/STIM_009.jpg	100
757.347	0.642	642.5	congruent	Block1	congruent/STIM_009.jpg	99
760.265	0.51	509.9	congruent	Block1	congruent/STIM_010.jpg	100
764.115	0.556	555.8	congruent	Block1	congruent/STIM_010.jpg	99
767.112	0.519	518.7	congruent	Block1	congruent/STIM_010.jpg	99
769.789	0.522	521.8	congruent	Block1	congruent/STIM_010.jpg	99
772.761	0.789	788.6	congruent	Block1	congruent/STIM_010.jpg	100
775.559	0.6	600.0	congruent	Block1	congruent/STIM_011.jpg	99
779.48	0.594	594.5	congruent	Block1	congruent/STIM_011.jpg	100
783.104	0.624	624.4	congruent	Block1	congruent/STIM_011.jpg	100
785.948	0.619	619.1	congruent	Block1	congruent/STIM_011.jpg	99
788.671	0.591	591.1	congruent	Block1	congruent/STIM_011.jpg	100
791.375	0.771	771.1	congruent	Block1	congruent/STIM_012.jpg	100
795.898	0.724	724.2	congruent	Block1	congruent/STIM_012.jpg	99
798.664	0.687	687.3	congruent	Block1	congruent/STIM_012.jpg	100
801.746	0.517	516.8	congruent	Block1	congruent/STIM_012.jpg	99
805.524	0.741	741.1	congruent	Block1	congruent/STIM_012.jpg	99
808.987	0.625	624.7	congruent	Block1	congruent/STIM_013.jpg	100
811.891	0.599	599.4	congruent	Block1	congruent/STIM_013.jpg	100
815.918	0.477	476.9	congruent	Block1	congruent/STIM_013.jpg	99
819.392	0.489	488.7	congruent	Block1	congruent/STIM_013.jpg	99
823.091	0.461	461.0	congruent	Block1	congruent/STIM_013.jpg	100
826.605	0.541	541.4	congruent	Block1	congruent/STIM_014.jpg	99
829.437	0.558	558.3	congruent	Block1	congruent/STIM_014.jpg	100
833.464	0.53	529.5	congruent	Block1	congruent/STIM_014.jpg	100
836.719	0.455	455.3	congruent	Block1	congruent/STIM_014.jpg	99
839.797	0.458	457.8	congruent	Block1	congruent/STIM_014.jpg	99
843.042	0.693	693.1	congruent	Block1	congruent/STIM_015.jpg	100
845.945	0.495	495.1	congruent	Block1	congruent/STIM_015.jpg	99
849.538	0.733	733.4	congruent	Block1	congruent/STIM_015.jpg	100
852.822	0.614	614.1	congruent	Block1	congruent/STIM_015.jpg	99
856.668	0.497	497.3	congruent	Block1	congruent/STIM_015.jpg	100
860.949	0.521	520.8	congruent	Block1	congruent/STIM_016.jpg	99
863.665	0.744	743.7	congruent	Block1	congruent/STIM_016.jpg	99
866.866	0.521	521.0	congruent	Block1	congruent/STIM_016.jpg	100
869.87	0.78	779.5	congruent	Block1	congruent/STIM_016.jpg	99
872.948	0.606	606.3	congruent	Block1	congruent/STIM_016.jpg	100
876.054	0.549	549.2	congruent	Block1	congruent/STIM_017.jpg	99
879.495	0.625	624.7	congruent	Block1	congruent/STIM_017.jpg	99
882.637	0.536	536.4	congruent	Block1	congruent/STIM_017.jpg	100
886.788	0.652	652.1	congruent	Block1	congruent/STIM_017.jpg	100
889.603	0.457	457.2	congruent	Block1	congruent/STIM_017.jpg	100
892.52	0.728	728.3	congruent	Block1	congruent/STIM_018.jpg	99
896.218	0.715	714.9	congruent	Block1	congruent/STIM_018.jpg	100
899.5	0.686	685.5	congruent	Block1	congruent/STIM_018.jpg	99
903.705	0.621	621.0	congruent	Block1	congruent/STIM_018.jpg	99
907.539	0.502	502.1	congruent	Block1	congruent/STIM_018.jpg	99
911.644	0.633	632.6	congruent	Block1	congruent/STIM_019.jpg	100
914.934	0.552	551.7	congruent	Block1	congruent/STIM_019.jpg	100
917.663	0.704	704.3	congruent	Block1	congruent/STIM_019.jpg	100
920.959	0.706	706.0	congruent	Block1	congruent/STIM_019.jpg	99
925.27	0.771	771.4	congruent	Block1	congruent/STIM_019.jpg	99
929.297	0.627	627.2	congruent	Block1	congruent/STIM_020.jpg	99
932.115	0.514	513.7	congruent	Block1	congruent/STIM_020.jpg	100
935.647	0.813	812.6	congruent	Block1	congruent/STIM_020.jpg	99
940.042	0.74	739.7	congruent	Block1	congruent/STIM_020.jpg	100
942.999	0.734	734.5	congruent	Block1	congruent/STIM_020.jpg	100
946.788	0.738	738.2	congruent	Block1	congruent/STIM_021.jpg	99
950.049	0.547	547.2	congruent	Block1	congruent/STIM_021.jpg	99
954.013	0.497	496.8	congruent	Block1	congruent/STIM_021.jpg	99
957.899	0.68	680.2	congruent	Block1	congruent/STIM_021.jpg	100
961.833	0.772	772.1	congruent	Block1	congruent/STIM_021.jpg	100
964.999	0.594	594.2	congruent	Block1	congruent/STIM_022.jpg	99
968.11	0.58	579.7	congruent	Block1	congruent/STIM_022.jpg	100
971.477	0.66	660.1	congruent	Block1	congruent/STIM_022.jpg	99
975.064	0.526	526.1	congruent	Block1	congruent/STIM_022.jpg	99
978.041	0.694	693.6	congruent	Block1	congruent/STIM_022.jpg	100
981.647	0.464	463.8	congruent	Block1	congruent/STIM_023.jpg	100
984.115	0.797	796.9	congruent	Block1	congruent/STIM_023.jpg	99
987.874	0.697	697.0	congruent	Block1	congruent/STIM_023.jpg	100
992.283	0.668	667.6	congruent	Block1	congruent/STIM_023.jpg	99
996.424	0.659	659.4	congruent	Block1	congruent/STIM_023.jpg	100
1000.252	0.755	754.9	congruent	Block1	congruent/STIM_024.jpg	99
1004.637	0.57	569.7	congruent	Block1	congruent/STIM_024.jpg	100
1007.944	0.66	660.0	congruent	Block1	congruent/STIM_024.jpg	100
1011.697	0.462	461.7	congruent	Block1	congruent/STIM_024.jpg	99
1014.188	0.572	571.8	congruent	Block1	congruent/STIM_024.jpg	100
1017.391	0.741	740.6	congruent	Block1	congruent/STIM_025.jpg	100
1020.329	0.482	481.9	congruent	Block1	congruent/STIM_025.jpg	100
1024.804	0.468	467.6	congruent	Block1	congruent/STIM_025.jpg	100
1027.673	0.621	620.6	congruent	Block1	congruent/STIM_025.jpg	100
1031.889	0.808	808.4	congruent	Block1	congruent/STIM_025.jpg	100
1036.587	0.642	641.5	congruent	Block1	congruent/STIM_026.jpg	100
1039.562	0.749	748.7	congruent	Block1	congruent/STIM_026.jpg	99
1043.804	0.71	710.1	congruent	Block1	congruent/STIM_026.jpg	99
1047.814	0.513	512.9	congruent	Block1	congruent/STIM_026.jpg	100
1051.502	0.654	654.3	congruent	Block1	congruent/STIM_026.jpg	99
1054.747	0.791	790.9	congruent	Block1	congruent/STIM_027.jpg	100
1058.668	0.766	765.9	congruent	Block1	congruent/STIM_027.jpg	99
1062.999	0.585	585.4	congruent	Block1	congruent/STIM_027.jpg	100
1066.089	0.674	674.3	congruent	Block1	congruent/STIM_027.jpg	100
1069.92	0.506	506.0	congruent	Block1	congruent/STIM_027.jpg	99
1073.83	0.534	534.0	congruent	Block1	congruent/STIM_028.jpg	100
1078.346	0.709	708.9	congruent	Block1	congruent/STIM_028.jpg	99
1081.172	0.778	777.8	congruent	Block1	congruent/STIM_028.jpg	100
1085.884	0.463	462.9	congruent	Block1	congruent/STIM_028.jpg	99
1089.472	0.602	601.7	congruent	Block1	congruent/STIM_028.jpg	99
1092.557	0.602	602.5	congruent	Block1	congruent/STIM_029.jpg	100
1096.182	0.554	554.3	congruent	Block1	congruent/STIM_029.jpg	100
1099.999	0.546	546.1	congruent	Block1	congruent/STIM_029.jpg	100
1102.834	0.66	660.3	congruent	Block1	congruent/STIM_029.jpg	99
1106.259	0.493	493.3	congruent	Block1	congruent/STIM_029.jpg	100
1109.779	0.588	588.4	incongruent	Block2	incongruent/STIM_000.jpg	100
1113.274	0.737	736.9	incongruent	Block2	incongruent/STIM_000.jpg	99
1116.968	0.992	991.7	incongruent	Block2	incongruent/STIM_000.jpg	99
1120.468	0.871	870.6	incongruent	Block2	incongruent/STIM_000.jpg	100
1125.068	0.558	558.3	incongruent	Block2	incongruent/STIM_000.jpg	100
1127.802	0.871	871.0	incongruent	Block2	incongruent/STIM_001.jpg	100
1131.987	1.025	1024.7	incongruent	Block2	incongruent/STIM_001.jpg	99
1135.389	0.774	774.1	incongruent	Block2	incongruent/STIM_001.jpg	99
1138.407	0.72	720.0	incongruent	Block2	incongruent/STIM_001.jpg	99
1142.772	0.581	580.6	incongruent	Block2	incongruent/STIM_001.jpg	100
1146.784	0.981	980.6	incongruent	Block2	incongruent/STIM_002.jpg	100
1151.177	0.589	589.2	incongruent	Block2	incongruent/STIM_002.jpg	100
1153.907	0.894	894.3	incongruent	Block2	incongruent/STIM_002.jpg	100
1157.611	0.889	889.0	incongruent	Block2	incongruent/STIM_002.jpg	99
1160.963	0.844	844.3	incongruent	Block2	incongruent/STIM_002.jpg	100
1164.119	0.71	710.2	incongruent	Block2	incongruent/STIM_003.jpg	99
1167.505	0.874	874.1	incongruent	Block2	incongruent/STIM_003.jpg	99
1171.398	0.524	523.9	incongruent	Block2	incongruent/STIM_003.jpg	99
1175.29	0.471	470.8	incongruent	Block2	incongruent/STIM_003.jpg	99
1178.282	0.659	659.0	incongruent	Block2	incongruent/STIM_003.jpg	99
1181.968	1.044	1044.2	incongruent	Block2	incongruent/STIM_004.jpg	99
1185.867	0.806	805.5	incongruent	Block2	incongruent/STIM_004.jpg	100
1188.82	0.821	820.6	incongruent	Block2	incongruent/STIM_004.jpg	99
1193.582	0.507	506.6	incongruent	Block2	incongruent/STIM_004.jpg	100
1196.807	0.783	783.0	incongruent	Block2	incongruent/STIM_004.jpg	100
1201.029	0.77	770.2	incongruent	Block2	incongruent/STIM_005.jpg	100
1204.808	0.986	986.0	incongruent	Block2	incongruent/STIM_005.jpg	99
1209.173	0.554	553.9	incongruent	Block2	incongruent/STIM_005.jpg	100
1213.006	0.452	451.7	incongruent	Block2	incongruent/STIM_005.jpg	100
1216.67	0.597	597.0	incongruent	Block2	incongruent/STIM_005.jpg	100
1220.82	0.774	773.6	incongruent	Block2	incongruent/STIM_006.jpg	100
1225.01	0.728	727.9	incongruent	Block2	incongruent/STIM_006.jpg	99
1228.401	0.508	508.5	incongruent	Block2	incongruent/STIM_006.jpg	100
1231.723	0.624	624.5	incongruent	Block2	incongruent/STIM_006.jpg	100
1235.672	0.65	650.1	incongruent	Block2	incongruent/STIM_006.jpg	100
1239.575	1.066	1065.6	incongruent	Block2	incongruent/STIM_007.jpg	100
1243.135	0.886	886.5	incongruent	Block2	incongruent/STIM_007.jpg	99
1247.664	0.903	903.1	incongruent	Block2	incongruent/STIM_007.jpg	99
1252.396	0.647	646.8	incongruent	Block2	incongruent/STIM_007.jpg	100
1256.379	0.772	771.6	incongruent	Block2	incongruent/STIM_007.jpg	99
1259.998	0.64	639.6	incongruent	Block2	incongruent/STIM_008.jpg	100
1263.02	0.591	590.7	incongruent	Block2	incongruent/STIM_008.jpg	100
1267.56	0.542	541.9	incongruent	Block2	incongruent/STIM_008.jpg	99
1272.08	0.696	695.6	incongruent	Block2	incongruent/STIM_008.jpg	100
1274.851	0.674	673.9	incongruent	Block2	incongruent/STIM_008.jpg	100
1278.602	0.775	774.8	incongruent	Block2	incongruent/STIM_009.jpg	99
1282.188	0.908	908.5	incongruent	Block2	incongruent/STIM_009.jpg	99
1285.157	0.946	945.9	incongruent	Block2	incongruent/STIM_009.jpg	100
1288.523	0.477	477.4	incongruent	Block2	incongruent/STIM_009.jpg	100
1291.256	0.879	878.7	incongruent	Block2	incongruent/STIM_009.jpg	100
1296.058	0.792	792.4	incongruent	Block2	incongruent/STIM_010.jpg	100
1300.243	0.883	883.1	incongruent	Block2	incongruent/STIM_010.jpg	100
1303.676	0.927	927.0	incongruent	Block2	incongruent/STIM_010.jpg	99
1306.837	0.528	528.3	incongruent	Block2	incongruent/STIM_010.jpg	99
1310.988	0.538	538.4	incongruent	Block2	incongruent/STIM_010.jpg	99
1315.116	0.996	995.9	incongruent	Block2	incongruent/STIM_011.jpg	99
1318.846	0.66	659.5	incongruent	Block2	incongruent/STIM_011.jpg	100
1322.972	0.572	571.9	incongruent	Block2	incongruent/STIM_011.jpg	100
1326.234	0.854	854.3	incongruent	Block2	incongruent/STIM_011.jpg	99
1330.613	0.777	776.9	incongruent	Block2	incongruent/STIM_011.jpg	100
1333.759	0.547	546.6	incongruent	Block2	incongruent/STIM_012.jpg	99
1337.809	0.944	943.6	incongruent	Block2	incongruent/STIM_012.jpg	99
1342.43	0.935	935.2	incongruent	Block2	incongruent/STIM_012.jpg	100
1346.132	0.748	747.6	incongruent	Block2	incongruent/STIM_012.jpg	99
1350.868	0.814	814.1	incongruent	Block2	incongruent/STIM_012.jpg	100
1354.026	0.992	991.8	incongruent	Block2	incongruent/STIM_013.jpg	99
1357.281	1.006	1006.2	incongruent	Block2	incongruent/STIM_013.jpg	99
1361.811	0.719	718.6	incongruent	Block2	incongruent/STIM_013.jpg	100
1365.122	0.777	776.7	incongruent	Block2	incongruent/STIM_013.jpg	100
1368.562	0.483	483.0	incongruent	Block2	incongruent/STIM_013.jpg	99
1371.8	1.001	1001.1	incongruent	Block2	incongruent/STIM_014.jpg	99
1374.881	1.036	1035.5	incongruent	Block2	incongruent/STIM_014.jpg	99
1379.134	0.942	941.6	incongruent	Block2	incongruent/STIM_014.jpg	99
1384.048	0.76	760.4	incongruent	Block2	incongruent/STIM_014.jpg	99
1388.781	0.618	617.6	incongruent	Block2	incongruent/STIM_014.jpg	99
1392.36	1.131	1131.3	incongruent	Block2	incongruent/STIM_015.jpg	99
1397.066	0.946	945.5	incongruent	Block2	incongruent/STIM_015.jpg	100
1401.257	0.738	737.7	incongruent	Block2	incongruent/STIM_015.jpg	100
1405.871	0.505	504.7	incongruent	Block2	incongruent/STIM_015.jpg	100
1410.369	0.456	456.3	incongruent	Block2	incongruent/STIM_015.jpg	99
1413.479	1.136	1136.3	incongruent	Block2	incongruent/STIM_016.jpg	100
1418.473	0.668	668.3	incongruent	Block2	incongruent/STIM_016.jpg	100
1421.983	0.506	506.4	incongruent	Block2	incongruent/STIM_016.jpg	99
1426.127	0.503	503.3	incongruent	Block2	incongruent/STIM_016.jpg	100
1429.788	0.834	833.5	incongruent	Block2	incongruent/STIM_016.jpg	100
1433.67	1.093	1093.3	incongruent	Block2	incongruent/STIM_017.jpg	99
1438.351	0.854	854.2	incongruent	Block2	incongruent/STIM_017.jpg	100
1442.475	0.932	932.1	incongruent	Block2	incongruent/STIM_017.jpg	99
1446.129	0.66	659.7	incongruent	Block2	incongruent/STIM_017.jpg	100
1449.453	0.897	897.2	incongruent	Block2	incongruent/STIM_017.jpg	100
1453.265	0.938	937.8	incongruent	Block2	incongruent/STIM_018.jpg	99
1457.792	1.073	1073.3	incongruent	Block2	incongruent/STIM_018.jpg	100
1462.55	1.014	1013.7	incongruent	Block2	incongruent/STIM_018.jpg	100
1466.535	0.802	802.2	incongruent	Block2	incongruent/STIM_018.jpg	100
1469.517	0.68	680.4	incongruent	Block2	incongruent/STIM_018.jpg	99
1474.054	0.924	924.0	incongruent	Block2	incongruent/STIM_019.jpg	100
1478.942	0.947	946.6	incongruent	Block2	incongruent/STIM_019.jpg	99
1482.706	0.742	741.6	incongruent	Block2	incongruent/STIM_019.jpg	99
1486.678	0.589	588.8	incongruent	Block2	incongruent/STIM_019.jpg	100
1490.461	0.463	462.6	incongruent	Block2	incongruent/STIM_019.jpg	100
1493.883	0.613	612.8	incongruent	Block2	incongruent/STIM_020.jpg	99
1497.165	0.887	886.8	incongruent	Block2	incongruent/STIM_020.jpg	99
1501.677	0.792	791.9	incongruent	Block2	incongruent/STIM_020.jpg	99
1504.932	0.57	569.5	incongruent	Block2	incongruent/STIM_020.jpg	100
1509.152	0.69	689.5	incongruent	Block2	incongruent/STIM_020.jpg	99
1513.535	1.153	1152.9	incongruent	Block2	incongruent/STIM_021.jpg	99
1517.593	0.511	510.8	incongruent	Block2	incongruent/STIM_021.jpg	100
1521.265	0.721	720.9	incongruent	Block2	incongruent/STIM_021.jpg	99
1524.261	0.867	867.0	incongruent	Block2	incongruent/STIM_021.jpg	100
1527.907	0.593	593.1	incongruent	Block2	incongruent/STIM_021.jpg	99
1530.862	0.671	671.0	incongruent	Block2	incongruent/STIM_022.jpg	99
1534.826	0.696	695.5	incongruent	Block2	incongruent/STIM_022.jpg	100
1538.229	0.532	532.0	incongruent	Block2	incongruent/STIM_022.jpg	100
1541.967	0.856	855.9	incongruent	Block2	incongruent/STIM_022.jpg	100
1545.174	0.824	823.9	incongruent	Block2	incongruent/STIM_022.jpg	99
1548.792	0.579	578.7	incongruent	Block2	incongruent/STIM_023.jpg	99
1551.691	0.968	968.4	incongruent	Block2	incongruent/STIM_023.jpg	99
1554.81	0.932	932.0	incongruent	Block2	incongruent/STIM_023.jpg	99
1559.101	0.822	821.5	incongruent	Block2	incongruent/STIM_023.jpg	100
1562.649	0.468	467.9	incongruent	Block2	incongruent/STIM_023.jpg	100
1566.552	0.543	543.0	incongruent	Block2	incongruent/STIM_024.jpg	99
1570.436	1.071	1070.7	incongruent	Block2	incongruent/STIM_024.jpg	99
1575.147	0.647	647.4	incongruent	Block2	incongruent/STIM_024.jpg	99
1578.219	0.891	890.9	incongruent	Block2	incongruent/STIM_024.jpg	99
1581.898	0.692	691.8	incongruent	Block2	incongruent/STIM_024.jpg	99
1585.445	0.771	771.0	incongruent	Block2	incongruent/STIM_025.jpg	99
1589.841	0.966	965.6	incongruent	Block2	incongruent/STIM_025.jpg	100
1592.845	1.006	1006.5	incongruent	Block2	incongruent/STIM_025.jpg	99
1596.291	0.793	792.9	incongruent	Block2	incongruent/STIM_025.jpg	100
1599.346	0.947	947.4	incongruent	Block2	incongruent/STIM_025.jpg	100
1603.436	1.044	1043.8	incongruent	Block2	incongruent/STIM_026.jpg	100
1607.062	1.013	1013.4	incongruent	Block2	incongruent/STIM_026.jpg	100
1611.216	0.829	828.8	incongruent	Block2	incongruent/STIM_026.jpg	99
1615.271	0.608	607.6	incongruent	Block2	incongruent/STIM_026.jpg	99
1618.889	0.553	553.2	incongruent	Block2	incongruent/STIM_026.jpg	100
1622.99	1.104	1103.7	incongruent	Block2	incongruent/STIM_027.jpg	99
1627.257	1.062	1061.7	incongruent	Block2	incongruent/STIM_027.jpg	99
1630.84	0.699	698.6	incongruent	Block2	incongruent/STIM_027.jpg	100
1634.696	0.694	693.5	incongruent	Block2	incongruent/STIM_027.jpg	100
1637.619	0.846	845.5	incongruent	Block2	incongruent/STIM_027.jpg	100
1640.754	0.876	875.8	incongruent	Block2	incongruent/STIM_028.jpg	100
1645.285	0.825	824.7	incongruent	Block2	incongruent/STIM_028.jpg	100
1649.091	0.701	700.8	incongruent	Block2	incongruent/STIM_028.jpg	99
1651.795	0.876	875.5	incongruent	Block2	incongruent/STIM_028.jpg	99
1656.227	0.564	564.5	incongruent	Block2	incongruent/STIM_028.jpg	100
1658.796	0.55	549.7	incongruent	Block2	incongruent/STIM_029.jpg	99
1662.438	1.054	1053.7	incongruent	Block2	incongruent/STIM_029.jpg	100
1667.001	0.774	773.7	incongruent	Block2	incongruent/STIM_029.jpg	100
1671.155	0.722	721.8	incongruent	Block2	incongruent/STIM_029.jpg	100
1675.0	0.49	490.1	incongruent	Block2	incongruent/STIM_029.jpg	99
1679.148	0.603	603.4	congruent	Block2	congruent/STIM_000.jpg	99
1683.738	0.808	807.9	congruent	Block2	congruent/STIM_000.jpg	99
1686.64	0.484	483.8	congruent	Block2	congruent/STIM_000.jpg	100
1690.031	0.813	812.9	congruent	Block2	congruent/STIM_000.jpg	100
1692.994	0.592	592.3	congruent	Block2	congruent/STIM_000.jpg	100
1696.35	0.767	766.9	congruent	Block2	congruent/STIM_001.jpg	99
1699.476	0.771	771.1	congruent	Block2	congruent/STIM_001.jpg	100
1703.879	0.502	501.6	congruent	Block2	congruent/STIM_001.jpg	99
1707.725	0.671	671.3	congruent	Block2	congruent/STIM_001.jpg	100
1710.42	0.806	805.6	congruent	Block2	congruent/STIM_001.jpg	100
1714.362	0.799	799.1	congruent	Block2	congruent/STIM_002.jpg	100
1718.833	0.492	491.6	congruent	Block2	congruent/STIM_002.jpg	100
1722.671	0.546	546.1	congruent	Block2	congruent/STIM_002.jpg	100
1726.166	0.706	706.3	congruent	Block2	congruent/STIM_002.jpg	99
1730.341	0.65	649.6	congruent	Block2	congruent/STIM_002.jpg	100
1734.962	0.518	517.8	congruent	Block2	congruent/STIM_003.jpg	99
1737.841	0.479	479.3	congruent	Block2	congruent/STIM_003.jpg	100
1741.156	0.493	493.1	congruent	Block2	congruent/STIM_003.jpg	100
1744.959	0.551	550.8	congruent	Block2	congruent/STIM_003.jpg	99
1748.637	0.707	707.2	congruent	Block2	congruent/STIM_003.jpg	100
1752.183	0.782	782.2	congruent	Block2	congruent/STIM_004.jpg	100
1756.752	0.568	567.7	congruent	Block2	congruent/STIM_004.jpg	100
1760.39	0.574	573.8	congruent	Block2	congruent/STIM_004.jpg	99
1764.894	0.744	744.5	congruent	Block2	congruent/STIM_004.jpg	100
1769.244	0.691	691.2	congruent	Block2	congruent/STIM_004.jpg	100
1772.2	0.802	802.3	congruent	Block2	congruent/STIM_005.jpg	99
1775.786	0.49	490.1	congruent	Block2	congruent/STIM_005.jpg	99
1779.241	0.735	735.2	congruent	Block2	congruent/STIM_005.jpg	99
1782.503	0.612	611.7	congruent	Block2	congruent/STIM_005.jpg	99
1785.976	0.795	794.6	congruent	Block2	congruent/STIM_005.jpg	99
1790.262	0.465	465.1	congruent	Block2	congruent/STIM_006.jpg	100
1794.216	0.674	673.8	congruent	Block2	congruent/STIM_006.jpg	99
1797.112	0.68	680.2	congruent	Block2	congruent/STIM_006.jpg	99
1800.019	0.608	607.8	congruent	Block2	congruent/STIM_006.jpg	100
1803.648	0.548	548.2	congruent	Block2	congruent/STIM_006.jpg	99
1808.065	0.798	798.1	congruent	Block2	congruent/STIM_007.jpg	100
1811.165	0.672	671.7	congruent	Block2	congruent/STIM_007.jpg	100
1813.86	0.632	632.1	congruent	Block2	congruent/STIM_007.jpg	99
1817.714	0.534	533.9	congruent	Block2	congruent/STIM_007.jpg	100
1821.968	0.658	658.5	congruent	Block2	congruent/STIM_007.jpg	100
1825.237	0.472	471.5	congruent	Block2	congruent/STIM_008.jpg	99
1829.577	0.522	522.0	congruent	Block2	congruent/STIM_008.jpg	100
1832.829	0.458	458.4	congruent	Block2	congruent/STIM_008.jpg	99
1837.244	0.749	749.2	congruent	Block2	congruent/STIM_008.jpg	100
1840.139	0.813	813.4	congruent	Block2	congruent/STIM_008.jpg	100
1844.706	0.63	629.8	congruent	Block2	congruent/STIM_009.jpg	100
1848.101	0.545	544.9	congruent	Block2	congruent/STIM_009.jpg	99
1852.232	0.797	796.9	congruent	Block2	congruent/STIM_009.jpg	99
1856.127	0.47	470.2	congruent	Block2	congruent/STIM_009.jpg	100
1859.145	0.714	713.7	congruent	Block2	congruent/STIM_009.jpg	100
1862.31	0.487	487.2	congruent	Block2	congruent/STIM_010.jpg	99
1865.032	0.473	472.7	congruent	Block2	congruent/STIM_010.jpg	100
1868.128	0.468	468.5	congruent	Block2	congruent/STIM_010.jpg	99
1871.971	0.66	660.5	congruent	Block2	congruent/STIM_010.jpg	99
1875.359	0.546	546.4	congruent	Block2	congruent/STIM_010.jpg	100
1878.631	0.61	609.9	congruent	Block2	congruent/STIM_011.jpg	100
1881.961	0.462	462.5	congruent	Block2	congruent/STIM_011.jpg	99
1886.293	0.674	673.5	congruent	Block2	congruent/STIM_011.jpg	99
1890.768	0.577	577.3	congruent	Block2	congruent/STIM_011.jpg	99
1895.057	0.505	505.0	congruent	Block2	congruent/STIM_011.jpg	100
1899.089	0.602	602.4	congruent	Block2	congruent/STIM_012.jpg	100
1901.71	0.477	476.8	congruent	Block2	congruent/STIM_012.jpg	99
1904.393	0.642	642.4	congruent	Block2	congruent/STIM_012.jpg	100
1907.856	0.533	533.3	congruent	Block2	congruent/STIM_012.jpg	99
1911.39	0.639	639.4	congruent	Block2	congruent/STIM_012.jpg	100
1914.81	0.779	779.4	congruent	Block2	congruent/STIM_013.jpg	99
1918.919	0.574	574.1	congruent	Block2	congruent/STIM_013.jpg	99
1921.741	0.539	538.9	congruent	Block2	congruent/STIM_013.jpg	99
1925.214	0.717	716.9	congruent	Block2	congruent/STIM_013.jpg	100
1929.925	0.565	565.0	congruent	Block2	congruent/STIM_013.jpg	99
1932.731	0.716	716.5	congruent	Block2	congruent/STIM_014.jpg	100
1935.532	0.744	744.5	congruent	Block2	congruent/STIM_014.jpg	100
1939.474	0.524	523.5	congruent	Block2	congruent/STIM_014.jpg	99
1943.099	0.624	624.2	congruent	Block2	congruent/STIM_014.jpg	100
1947.434	0.616	616.0	congruent	Block2	congruent/STIM_014.jpg	99
1950.816	0.553	552.6	congruent	Block2	congruent/STIM_015.jpg	99
1953.821	0.486	485.5	congruent	Block2	congruent/STIM_015.jpg	100
1957.44	0.55	550.3	congruent	Block2	congruent/STIM_015.jpg	99
1961.039	0.744	743.6	congruent	Block2	congruent/STIM_015.jpg	99
1965.447	0.788	788.0	congruent	Block2	congruent/STIM_015.jpg	100
1969.913	0.578	577.7	congruent	Block2	congruent/STIM_016.jpg	99
1973.305	0.73	729.5	congruent	Block2	congruent/STIM_016.jpg	100
1976.609	0.531	531.0	congruent	Block2	congruent/STIM_016.jpg	100
1980.388	0.498	497.8	congruent	Block2	congruent/STIM_016.jpg	100
1983.992	0.583	583.1	congruent	Block2	congruent/STIM_016.jpg	100
1987.972	0.69	689.6	congruent	Block2	congruent/STIM_017.jpg	100
1992.541	0.496	496.2	congruent	Block2	congruent/STIM_017.jpg	99
1995.794	0.732	731.7	congruent	Block2	congruent/STIM_017.jpg	100
1999.996	0.8	799.6	congruent	Block2	congruent/STIM_017.jpg	99
2003.567	0.581	580.6	congruent	Block2	congruent/STIM_017.jpg	100
2007.144	0.787	787.1	congruent	Block2	congruent/STIM_018.jpg	99
2011.104	0.501	501.5	congruent	Block2	congruent/STIM_018.jpg	100
2014.565	0.509	509.5	congruent	Block2	congruent/STIM_018.jpg	99
2017.467	0.593	593.3	congruent	Block2	congruent/STIM_018.jpg	100
2021.375	0.495	494.9	congruent	Block2	congruent/STIM_018.jpg	100
2024.938	0.656	655.5	congruent	Block2	congruent/STIM_019.jpg	100
2028.927	0.524	524.4	congruent	Block2	congruent/STIM_019.jpg	100
2033.36	0.733	732.9	congruent	Block2	congruent/STIM_019.jpg	100
2038.051	0.73	730.0	congruent	Block2	congruent/STIM_019.jpg	100
2042.351	0.54	539.6	congruent	Block2	congruent/STIM_019.jpg	99
2045.701	0.565	564.9	congruent	Block2	congruent/STIM_020.jpg	100
2049.046	0.545	545.3	congruent	Block2	congruent/STIM_020.jpg	100
2053.554	0.764	763.8	congruent	Block2	congruent/STIM_020.jpg	99
2056.612	0.768	767.5	congruent	Block2	congruent/STIM_020.jpg	99
2061.207	0.708	707.9	congruent	Block2	congruent/STIM_020.jpg	99
2064.937	0.466	465.6	congruent	Block2	congruent/STIM_021.jpg	99
2068.23	0.56	559.7	congruent	Block2	congruent/STIM_021.jpg	99
2071.121	0.81	809.7	congruent	Block2	congruent/STIM_021.jpg	100
2074.987	0.814	813.5	congruent	Block2	congruent/STIM_021.jpg	100
2079.342	0.707	707.4	congruent	Block2	congruent/STIM_021.jpg	100
2083.016	0.67	670.1	congruent	Block2	congruent/STIM_022.jpg	100
2087.396	0.523	522.9	congruent	Block2	congruent/STIM_022.jpg	100
2091.89	0.746	746.3	congruent	Block2	congruent/STIM_022.jpg	100
2096.181	0.592	592.0	congruent	Block2	congruent/STIM_022.jpg	99
2100.767	0.642	641.6	congruent	Block2	congruent/STIM_022.jpg	100
2103.727	0.709	709.0	congruent	Block2	congruent/STIM_023.jpg	99
2106.905	0.562	561.9	congruent	Block2	congruent/STIM_023.jpg	100
2110.387	0.498	498.1	congruent	Block2	congruent/STIM_023.jpg	100
2114.276	0.621	620.9	congruent	Block2	congruent/STIM_023.jpg	99
2117.547	0.55	550.4	congruent	Block2	congruent/STIM_023.jpg	100
2121.08	0.59	590.2	congruent	Block2	congruent/STIM_024.jpg	99
2125.055	0.785	785.2	congruent	Block2	congruent/STIM_024.jpg	100
2129.64	0.629	629.4	congruent	Block2	congruent/STIM_024.jpg	99
2132.881	0.707	706.9	congruent	Block2	congruent/STIM_024.jpg	99
2137.52	0.477	476.6	congruent	Block2	congruent/STIM_024.jpg	100
2141.21	0.566	565.6	congruent	Block2	congruent/STIM_025.jpg	100
2144.36	0.574	574.1	congruent	Block2	congruent/STIM_025.jpg	100
2148.404	0.601	601.0	congruent	Block2	congruent/STIM_025.jpg	99
2151.921	0.748	748.0	congruent	Block2	congruent/STIM_025.jpg	100
2156.323	0.747	746.9	congruent	Block2	congruent/STIM_025.jpg	100
2159.459	0.59	589.8	congruent	Block2	congruent/STIM_026.jpg	100
2162.666	0.609	608.8	congruent	Block2	congruent/STIM_026.jpg	100
2167.218	0.656	655.6	congruent	Block2	congruent/STIM_026.jpg	99
2170.069	0.699	699.0	congruent	Block2	congruent/STIM_026.jpg	100
2173.49	0.804	803.5	congruent	Block2	congruent/STIM_026.jpg	99
2178.054	0.533	533.4	congruent	Block2	congruent/STIM_027.jpg	100
2182.408	0.575	574.8	congruent	Block2	congruent/STIM_027.jpg	99
2185.12	0.479	479.4	congruent	Block2	congruent/STIM_027.jpg	99
2188.276	0.59	589.9	congruent	Block2	congruent/STIM_027.jpg	99
2192.7	0.812	812.5	congruent	Block2	congruent/STIM_027.jpg	100
2196.314	0.492	492.0	congruent	Block2	congruent/STIM_028.jpg	99
2199.894	0.713	713.4	congruent	Block2	congruent/STIM_028.jpg	100
2203.193	0.703	703.4	congruent	Block2	congruent/STIM_028.jpg	99
2206.783	0.664	663.7	congruent	Block2	congruent/STIM_028.jpg	100
2210.215	0.696	696.0	congruent	Block2	congruent/STIM_028.jpg	99
2214.704	0.712	711.8	congruent	Block2	congruent/STIM_029.jpg	100
2218.795	0.476	476.5	congruent	Block2	congruent/STIM_029.jpg	100
2221.453	0.633	633.1	congruent	Block2	congruent/STIM_029.jpg	99
2225.795	0.586	586.2	congruent	Block2	congruent/STIM_029.jpg	99
2228.841	0.802	801.9	congruent	Block2	congruent/STIM_029.jpg	100
2231.73	0.755	754.8	incongruent	Block3	incongruent/STIM_000.jpg	100
2234.859	0.862	861.7	incongruent	Block3	incongruent/STIM_000.jpg	99
2238.507	0.581	581.0	incongruent	Block3	incongruent/STIM_000.jpg	99
2242.18	0.834	834.3	incongruent	Block3	incongruent/STIM_000.jpg	100
2245.221	0.773	773.2	incongruent	Block3	incongruent/STIM_000.jpg	100
2249.914	0.884	884.5	incongruent	Block3	incongruent/STIM_001.jpg	99
2254.473	0.657	657.2	incongruent	Block3	incongruent/STIM_001.jpg	99
2258.071	0.502	501.6	incongruent	Block3	incongruent/STIM_001.jpg	100
2262.154	0.684	683.7	incongruent	Block3	incongruent/STIM_001.jpg	100
2265.24	0.632	632.2	incongruent	Block3	incongruent/STIM_001.jpg	100
2268.545	0.575	575.1	incongruent	Block3	incongruent/STIM_002.jpg	99
2272.496	0.545	544.6	incongruent	Block3	incongruent/STIM_002.jpg	99
2276.062	0.474	474.4	incongruent	Block3	incongruent/STIM_002.jpg	99
2280.035	0.776	775.8	incongruent	Block3	incongruent/STIM_002.jpg	99
2283.419	0.906	906.4	incongruent	Block3	incongruent/STIM_002.jpg	99
2287.443	0.657	657.3	incongruent	Block3	incongruent/STIM_003.jpg	99
2291.001	0.864	863.7	incongruent	Block3	incongruent/STIM_003.jpg	100
2295.199	0.752	752.3	incongruent	Block3	incongruent/STIM_003.jpg	100
2299.03	0.798	798.5	incongruent	Block3	incongruent/STIM_003.jpg	100
2303.494	0.812	812.2	incongruent	Block3	incongruent/STIM_003.jpg	99
2308.258	0.576	576.1	incongruent	Block3	incongruent/STIM_004.jpg	100
2311.922	0.569	568.7	incongruent	Block3	incongruent/STIM_004.jpg	99
2315.931	0.739	739.0	incongruent	Block3	incongruent/STIM_004.jpg	100
2320.45	0.767	766.7	incongruent	Block3	incongruent/STIM_004.jpg	100
2324.982	0.537	536.7	incongruent	Block3	incongruent/STIM_004.jpg	100
2327.874	0.8	800.5	incongruent	Block3	incongruent/STIM_005.jpg	99
2331.45	0.611	610.7	incongruent	Block3	incongruent/STIM_005.jpg	99
2334.093	0.661	661.0	incongruent	Block3	incongruent/STIM_005.jpg	100
2337.33	0.487	487.0	incongruent	Block3	incongruent/STIM_005.jpg	99
2341.002	0.938	937.9	incongruent	Block3	incongruent/STIM_005.jpg	100
2345.119	0.57	570.1	incongruent	Block3	incongruent/STIM_006.jpg	99
2349.035	0.519	519.1	incongruent	Block3	incongruent/STIM_006.jpg	100
2352.681	0.779	778.6	incongruent	Block3	incongruent/STIM_006.jpg	99
2356.192	0.561	561.4	incongruent	Block3	incongruent/STIM_006.jpg	100
2360.381	0.475	474.7	incongruent	Block3	incongruent/STIM_006.jpg	99
2364.798	0.771	771.3	incongruent	Block3	incongruent/STIM_007.jpg	100
2369.493	0.539	538.7	incongruent	Block3	incongruent/STIM_007.jpg	100
2373.558	0.53	530.2	incongruent	Block3	incongruent/STIM_007.jpg	100
2377.723	0.835	835.1	incongruent	Block3	incongruent/STIM_007.jpg	100
2381.966	0.806	806.1	incongruent	Block3	incongruent/STIM_007.jpg	100
2385.207	0.859	858.9	incongruent	Block3	incongruent/STIM_008.jpg	99
2388.854	0.519	519.2	incongruent	Block3	incongruent/STIM_008.jpg	99
2392.631	0.612	611.5	incongruent	Block3	incongruent/STIM_008.jpg	100
2395.848	0.815	814.6	incongruent	Block3	incongruent/STIM_008.jpg	100
2399.022	0.794	793.9	incongruent	Block3	incongruent/STIM_008.jpg	100
2402.171	0.455	455.4	incongruent	Block3	incongruent/STIM_009.jpg	100
2405.7	0.633	633.2	incongruent	Block3	incongruent/STIM_009.jpg	99
2408.881	0.492	491.9	incongruent	Block3	incongruent/STIM_009.jpg	100
2411.73	0.837	836.6	incongruent	Block3	incongruent/STIM_009.jpg	99
2416.449	0.603	603.4	incongruent	Block3	incongruent/STIM_009.jpg	100
2419.145	0.836	835.6	incongruent	Block3	incongruent/STIM_010.jpg	99
2422.171	0.903	902.7	incongruent	Block3	incongruent/STIM_010.jpg	99
2425.955	0.72	719.5	incongruent	Block3	incongruent/STIM_010.jpg	100
2428.72	0.851	851.2	incongruent	Block3	incongruent/STIM_010.jpg	100
2431.64	0.555	555.4	incongruent	Block3	incongruent/STIM_010.jpg	100
2435.255	0.545	545.3	incongruent	Block3	incongruent/STIM_011.jpg	100
2438.415	0.622	622.3	incongruent	Block3	incongruent/STIM_011.jpg	99
2442.97	0.824	823.8	incongruent	Block3	incongruent/STIM_011.jpg	100
2446.878	0.558	558.4	incongruent	Block3	incongruent/STIM_011.jpg	99
2450.288	0.696	696.1	incongruent	Block3	incongruent/STIM_011.jpg	99
2453.537	0.517	517.1	incongruent	Block3	incongruent/STIM_012.jpg	99
2457.899	0.525	525.3	incongruent	Block3	incongruent/STIM_012.jpg	100
2462.062	0.642	642.2	incongruent	Block3	incongruent/STIM_012.jpg	99
2466.021	0.777	777.2	incongruent	Block3	incongruent/STIM_012.jpg	99
2469.778	0.613	612.9	incongruent	Block3	incongruent/STIM_012.jpg	100
2472.779	0.473	472.6	incongruent	Block3	incongruent/STIM_013.jpg	99
2477.058	0.489	489.0	incongruent	Block3	incongruent/STIM_013.jpg	99
2481.171	0.535	534.8	incongruent	Block3	incongruent/STIM_013.jpg	99
2484.085	0.509	509.0	incongruent	Block3	incongruent/STIM_013.jpg	100
2487.097	0.681	680.9	incongruent	Block3	incongruent/STIM_013.jpg	100
2490.057	0.703	703.2	incongruent	Block3	incongruent/STIM_014.jpg	99
2494.239	0.611	611.0	incongruent	Block3	incongruent/STIM_014.jpg	100
2498.081	0.887	887.4	incongruent	Block3	incongruent/STIM_014.jpg	99
2502.947	0.736	735.6	incongruent	Block3	incongruent/STIM_014.jpg	99
2506.625	0.714	714.5	incongruent	Block3	incongruent/STIM_014.jpg	100
2509.791	0.674	673.9	incongruent	Block3	incongruent/STIM_015.jpg	99
2513.866	0.762	761.8	incongruent	Block3	incongruent/STIM_015.jpg	100
2517.946	0.915	914.9	incongruent	Block3	incongruent/STIM_015.jpg	99
2522.059	0.677	676.9	incongruent	Block3	incongruent/STIM_015.jpg	100
2524.871	0.683	683.2	incongruent	Block3	incongruent/STIM_015.jpg	99
2528.673	0.745	744.8	incongruent	Block3	incongruent/STIM_016.jpg	100
2531.542	0.782	781.8	incongruent	Block3	incongruent/STIM_016.jpg	99
2536.135	0.649	649.1	incongruent	Block3	incongruent/STIM_016.jpg	100
2540.636	0.73	729.8	incongruent	Block3	incongruent/STIM_016.jpg	100
2544.012	0.753	752.8	incongruent	Block3	incongruent/STIM_016.jpg	100
2547.989	0.636	636.4	incongruent	Block3	incongruent/STIM_017.jpg	100
2551.419	0.624	624.2	incongruent	Block3	incongruent/STIM_017.jpg	99
2555.25	0.934	934.1	incongruent	Block3	incongruent/STIM_017.jpg	99
2559.399	0.548	548.5	incongruent	Block3	incongruent/STIM_017.jpg	100
2562.037	0.828	828.1	incongruent	Block3	incongruent/STIM_017.jpg	100
2566.468	0.863	863.4	incongruent	Block3	incongruent/STIM_018.jpg	99
2571.19	0.517	516.8	incongruent	Block3	incongruent/STIM_018.jpg	99
2574.755	0.472	471.8	incongruent	Block3	incongruent/STIM_018.jpg	99
2577.274	0.664	663.7	incongruent	Block3	incongruent/STIM_018.jpg	99
2581.101	0.67	669.6	incongruent	Block3	incongruent/STIM_018.jpg	99
2584.322	0.776	776.0	incongruent	Block3	incongruent/STIM_019.jpg	100
2587.148	0.499	499.0	incongruent	Block3	incongruent/STIM_019.jpg	99
2590.884	0.822	822.5	incongruent	Block3	incongruent/STIM_019.jpg	99
2594.387	0.469	468.9	incongruent	Block3	incongruent/STIM_019.jpg	100
2598.768	0.622	622.3	incongruent	Block3	incongruent/STIM_019.jpg	100
2602.584	0.533	532.8	incongruent	Block3	incongruent/STIM_020.jpg	100
2606.825	0.698	697.5	incongruent	Block3	incongruent/STIM_020.jpg	99
2611.08	0.826	826.2	incongruent	Block3	incongruent/STIM_020.jpg	99
2614.911	0.458	457.6	incongruent	Block3	incongruent/STIM_020.jpg	99
2617.716	0.626	626.3	incongruent	Block3	incongruent/STIM_020.jpg	100
2621.687	0.798	798.1	incongruent	Block3	incongruent/STIM_021.jpg	99
2626.411	0.76	759.9	incongruent	Block3	incongruent/STIM_021.jpg	99
2630.974	0.456	456.2	incongruent	Block3	incongruent/STIM_021.jpg	99
2634.071	0.811	810.7	incongruent	Block3	incongruent/STIM_021.jpg	100
2637.716	0.456	455.9	incongruent	Block3	incongruent/STIM_021.jpg	99
2641.664	0.95	950.5	incongruent	Block3	incongruent/STIM_022.jpg	99
2645.479	0.905	904.8	incongruent	Block3	incongruent/STIM_022.jpg	100
2650.206	0.721	720.6	incongruent	Block3	incongruent/STIM_022.jpg	99
2654.26	0.721	721.2	incongruent	Block3	incongruent/STIM_022.jpg	99
2658.872	0.502	501.7	incongruent	Block3	incongruent/STIM_022.jpg	99
2661.841	0.755	754.6	incongruent	Block3	incongruent/STIM_023.jpg	99
2666.122	0.736	736.3	incongruent	Block3	incongruent/STIM_023.jpg	100
2670.778	0.628	628.0	incongruent	Block3	incongruent/STIM_023.jpg	99
2674.252	0.471	470.9	incongruent	Block3	incongruent/STIM_023.jpg	99
2678.006	0.558	557.5	incongruent	Block3	incongruent/STIM_023.jpg	100
2682.199	0.464	464.0	incongruent	Block3	incongruent/STIM_024.jpg	99
2685.504	0.843	843.1	incongruent	Block3	incongruent/STIM_024.jpg	99
2689.03	0.697	697.3	incongruent	Block3	incongruent/STIM_024.jpg	100
2692.995	0.658	657.5	incongruent	Block3	incongruent/STIM_024.jpg	100
2697.091	0.64	640.5	incongruent	Block3	incongruent/STIM_024.jpg	100
2700.799	0.838	838.1	incongruent	Block3	incongruent/STIM_025.jpg	100
2704.651	0.928	928.1	incongruent	Block3	incongruent/STIM_025.jpg	99
2709.171	0.843	843.0	incongruent	Block3	incongruent/STIM_025.jpg	100
2712.147	0.93	930.0	incongruent	Block3	incongruent/STIM_025.jpg	99
2716.872	0.871	871.3	incongruent	Block3	incongruent/STIM_025.jpg	99
2719.988	0.889	889.0	incongruent	Block3	incongruent/STIM_026.jpg	100
2724.763	0.531	530.8	incongruent	Block3	incongruent/STIM_026.jpg	100
2727.544	0.637	637.4	incongruent	Block3	incongruent/STIM_026.jpg	100
2730.989	0.834	834.3	incongruent	Block3	incongruent/STIM_026.jpg	100
2733.933	0.665	664.9	incongruent	Block3	incongruent/STIM_026.jpg	99
2737.626	0.588	588.3	incongruent	Block3	incongruent/STIM_027.jpg	99
2741.32	0.704	703.5	incongruent	Block3	incongruent/STIM_027.jpg	99
2744.746	0.922	921.8	incongruent	Block3	incongruent/STIM_027.jpg	99
2749.442	0.857	857.4	incongruent	Block3	incongruent/STIM_027.jpg	100
2753.07	0.768	767.7	incongruent	Block3	incongruent/STIM_027.jpg	99
2755.96	0.533	532.7	incongruent	Block3	incongruent/STIM_028.jpg	99
2758.766	0.814	813.7	incongruent	Block3	incongruent/STIM_028.jpg	99
2763.533	0.558	558.1	incongruent	Block3	incongruent/STIM_028.jpg	100
2766.258	0.546	545.6	incongruent	Block3	incongruent/STIM_028.jpg	99
2770.611	0.52	520.0	incongruent	Block3	incongruent/STIM_028.jpg	99
2774.084	0.604	604.2	incongruent	Block3	incongruent/STIM_029.jpg	100
2777.898	0.501	501.0	incongruent	Block3	incongruent/STIM_029.jpg	100
2782.251	0.873	872.6	incongruent	Block3	incongruent/STIM_029.jpg	100
2785.96	0.662	662.3	incongruent	Block3	incongruent/STIM_029.jpg	100
2788.835	0.741	741.2	incongruent	Block3	incongruent/STIM_029.jpg	100
2792.317	0.719	719.2	congruent	Block3	congruent/STIM_000.jpg	100
2796.693	0.6	600.5	congruent	Block3	congruent/STIM_000.jpg	99
2800.736	0.594	593.9	congruent	Block3	congruent/STIM_000.jpg	99
2804.065	0.746	746.0	congruent	Block3	congruent/STIM_000.jpg	100
2806.91	0.519	519.4	congruent	Block3	congruent/STIM_000.jpg	100
2810.018	0.703	703.0	congruent	Block3	congruent/STIM_001.jpg	99
2814.456	0.459	459.0	congruent	Block3	congruent/STIM_001.jpg	100
2817.543	0.798	798.2	congruent	Block3	congruent/STIM_001.jpg	99
2820.962	0.678	677.7	congruent	Block3	congruent/STIM_001.jpg	99
2825.078	0.583	582.8	congruent	Block3	congruent/STIM_001.jpg	99
2828.159	0.794	794.4	congruent	Block3	congruent/STIM_002.jpg	99
2831.368	0.674	674.3	congruent	Block3	congruent/STIM_002.jpg	100
2835.091	0.513	513.4	congruent	Block3	congruent/STIM_002.jpg	100
2837.943	0.626	625.8	congruent	Block3	congruent/STIM_002.jpg	100
2842.385	0.463	463.0	congruent	Block3	congruent/STIM_002.jpg	100
2844.888	0.703	703.3	congruent	Block3	congruent/STIM_003.jpg	99
2848.314	0.504	503.8	congruent	Block3	congruent/STIM_003.jpg	100
2852.246	0.725	724.6	congruent	Block3	congruent/STIM_003.jpg	100
2855.85	0.643	642.7	congruent	Block3	congruent/STIM_003.jpg	100
2860.005	0.728	727.9	congruent	Block3	congruent/STIM_003.jpg	100
2863.462	0.627	626.6	congruent	Block3	congruent/STIM_004.jpg	99
2867.932	0.581	580.9	congruent	Block3	congruent/STIM_004.jpg	99
2871.451	0.467	467.3	congruent	Block3	congruent/STIM_004.jpg	100
2875.714	0.649	649.1	congruent	Block3	congruent/STIM_004.jpg	99
2878.714	0.729	729.3	congruent	Block3	congruent/STIM_004.jpg	99
2882.797	0.592	592.1	congruent	Block3	congruent/STIM_005.jpg	99
2886.142	0.55	550.2	congruent	Block3	congruent/STIM_005.jpg	100
2890.29	0.659	658.9	congruent	Block3	congruent/STIM_005.jpg	100
2893.53	0.671	670.6	congruent	Block3	congruent/STIM_005.jpg	99
2897.432	0.56	559.5	congruent	Block3	congruent/STIM_005.jpg	99
2901.447	0.501	501.5	congruent	Block3	congruent/STIM_006.jpg	100
2905.119	0.81	810.1	congruent	Block3	congruent/STIM_006.jpg	99
2907.984	0.471	470.7	congruent	Block3	congruent/STIM_006.jpg	100
2911.369	0.61	609.9	congruent	Block3	congruent/STIM_006.jpg	100
2915.402	0.66	660.1	congruent	Block3	congruent/STIM_006.jpg	99
2918.808	0.567	567.1	congruent	Block3	congruent/STIM_007.jpg	99
2923.072	0.767	766.9	congruent	Block3	congruent/STIM_007.jpg	100
2927.767	0.724	723.5	congruent	Block3	congruent/STIM_007.jpg	99
2931.478	0.517	517.0	congruent	Block3	congruent/STIM_007.jpg	99
2935.426	0.614	613.7	congruent	Block3	congruent/STIM_007.jpg	100
2938.124	0.528	527.9	congruent	Block3	congruent/STIM_008.jpg	99
2940.706	0.512	512.1	congruent	Block3	congruent/STIM_008.jpg	100
2943.865	0.595	594.8	congruent	Block3	congruent/STIM_008.jpg	100
2947.352	0.458	457.7	congruent	Block3	congruent/STIM_008.jpg	100
2951.737	0.629	629.1	congruent	Block3	congruent/STIM_008.jpg	99
2954.599	0.737	737.0	congruent	Block3	congruent/STIM_009.jpg	99
2959.308	0.498	498.2	congruent	Block3	congruent/STIM_009.jpg	100
2962.145	0.788	787.7	congruent	Block3	congruent/STIM_009.jpg	99
2965.898	0.657	657.0	congruent	Block3	congruent/STIM_009.jpg	100
2970.289	0.647	647.0	congruent	Block3	congruent/STIM_009.jpg	100
2973.757	0.529	528.9	congruent	Block3	congruent/STIM_010.jpg	100
2978.222	0.767	767.2	congruent	Block3	congruent/STIM_010.jpg	99
2981.761	0.639	638.8	congruent	Block3	congruent/STIM_010.jpg	99
2985.252	0.66	659.6	congruent	Block3	congruent/STIM_010.jpg	99
2988.098	0.74	739.8	congruent	Block3	congruent/STIM_010.jpg	99
2992.47	0.569	569.1	congruent	Block3	congruent/STIM_011.jpg	99
2996.826	0.595	595.4	congruent	Block3	congruent/STIM_011.jpg	99
3001.03	0.494	494.5	congruent	Block3	congruent/STIM_011.jpg	99
3004.962	0.771	771.0	congruent	Block3	congruent/STIM_011.jpg	100
3009.29	0.631	631.4	congruent	Block3	congruent/STIM_011.jpg	99
3013.046	0.766	766.5	congruent	Block3	congruent/STIM_012.jpg	99
3016.032	0.628	628.1	congruent	Block3	congruent/STIM_012.jpg	100
3020.176	0.787	787.2	congruent	Block3	congruent/STIM_012.jpg	99
3024.918	0.751	750.9	congruent	Block3	congruent/STIM_012.jpg	99
3027.73	0.742	741.6	congruent	Block3	congruent/STIM_012.jpg	100
3030.649	0.539	539.3	congruent	Block3	congruent/STIM_013.jpg	99
3035.082	0.477	477.2	congruent	Block3	congruent/STIM_013.jpg	99
3038.272	0.52	519.5	congruent	Block3	congruent/STIM_013.jpg	100
3041.657	0.473	473.4	congruent	Block3	congruent/STIM_013.jpg	99
3045.764	0.691	691.1	congruent	Block3	congruent/STIM_013.jpg	100
3049.892	0.486	485.7	congruent	Block3	congruent/STIM_014.jpg	100
3053.181	0.717	716.7	congruent	Block3	congruent/STIM_014.jpg	99
3057.611	0.62	620.5	congruent	Block3	congruent/STIM_014.jpg	100
3060.338	0.665	665.3	congruent	Block3	congruent/STIM_014.jpg	100
3064.491	0.714	713.5	congruent	Block3	congruent/STIM_014.jpg	100
3067.407	0.697	697.0	congruent	Block3	congruent/STIM_015.jpg	100
3071.378	0.658	657.6	congruent	Block3	congruent/STIM_015.jpg	100
3074.836	0.743	743.3	congruent	Block3	congruent/STIM_015.jpg	100
3079.031	0.65	649.5	congruent	Block3	congruent/STIM_015.jpg	100
3082.706	0.672	672.4	congruent	Block3	congruent/STIM_015.jpg	100
3085.746	0.721	720.8	congruent	Block3	congruent/STIM_016.jpg	99
3088.769	0.626	626.5	congruent	Block3	congruent/STIM_016.jpg	99
3093.374	0.519	519.2	congruent	Block3	congruent/STIM_016.jpg	100
3096.457	0.628	628.0	congruent	Block3	congruent/STIM_016.jpg	100
3099.914	0.614	613.8	congruent	Block3	congruent/STIM_016.jpg	100
3103.77	0.486	486.3	congruent	Block3	congruent/STIM_017.jpg	99
3106.379	0.613	612.7	congruent	Block3	congruent/STIM_017.jpg	99
3109.204	0.799	799.2	congruent	Block3	congruent/STIM_017.jpg	100
3113.997	0.722	721.6	congruent	Block3	congruent/STIM_017.jpg	100
3118.242	0.515	515.1	congruent	Block3	congruent/STIM_017.jpg	100
3121.949	0.688	687.5	congruent	Block3	congruent/STIM_018.jpg	99
3125.833	0.631	630.9	congruent	Block3	congruent/STIM_018.jpg	99
3130.375	0.502	502.0	congruent	Block3	congruent/STIM_018.jpg	100
3134.599	0.717	717.1	congruent	Block3	congruent/STIM_018.jpg	100
3138.612	0.528	527.7	congruent	Block3	congruent/STIM_018.jpg	100
3142.138	0.794	794.5	congruent	Block3	congruent/STIM_019.jpg	99
3146.49	0.694	694.1	congruent	Block3	congruent/STIM_019.jpg	99
3149.908	0.558	558.3	congruent	Block3	congruent/STIM_019.jpg	100
3154.106	0.587	587.0	congruent	Block3	congruent/STIM_019.jpg	99
3158.101	0.798	797.9	congruent	Block3	congruent/STIM_019.jpg	100
3162.848	0.48	479.7	congruent	Block3	congruent/STIM_020.jpg	99
3166.798	0.786	785.6	congruent	Block3	congruent/STIM_020.jpg	99
3169.601	0.736	736.1	congruent	Block3	congruent/STIM_020.jpg	99
3173.445	0.727	726.8	congruent	Block3	congruent/STIM_020.jpg	99
3177.133	0.765	764.9	congruent	Block3	congruent/STIM_020.jpg	100
3181.108	0.519	519.1	congruent	Block3	congruent/STIM_021.jpg	99
3184.568	0.756	755.7	congruent	Block3	congruent/STIM_021.jpg	100
3189.115	0.628	628.1	congruent	Block3	congruent/STIM_021.jpg	99
3192.74	0.514	514.1	congruent	Block3	congruent/STIM_021.jpg	99
3195.672	0.646	645.8	congruent	Block3	congruent/STIM_021.jpg	99
3199.636	0.542	541.9	congruent	Block3	congruent/STIM_022.jpg	100
3203.431	0.623	623.1	congruent	Block3	congruent/STIM_022.jpg	100
3206.535	0.541	541.1	congruent	Block3	congruent/STIM_022.jpg	99
3210.055	0.49	490.3	congruent	Block3	congruent/STIM_022.jpg	100
3214.389	0.815	815.2	congruent	Block3	congruent/STIM_022.jpg	100
3217.534	0.622	622.1	congruent	Block3	congruent/STIM_023.jpg	99
3220.236	0.511	511.1	congruent	Block3	congruent/STIM_023.jpg	99
3224.17	0.606	605.7	congruent	Block3	congruent/STIM_023.jpg	99
3228.676	0.718	717.7	congruent	Block3	congruent/STIM_023.jpg	100
3231.977	0.731	730.8	congruent	Block3	congruent/STIM_023.jpg	99
3236.291	0.467	467.4	congruent	Block3	congruent/STIM_024.jpg	99
3239.528	0.701	700.7	congruent	Block3	congruent/STIM_024.jpg	99
3243.647	0.601	601.4	congruent	Block3	congruent/STIM_024.jpg	99
3246.996	0.706	706.4	congruent	Block3	congruent/STIM_024.jpg	100
3251.611	0.459	459.0	congruent	Block3	congruent/STIM_024.jpg	99
3254.558	0.49	489.8	congruent	Block3	congruent/STIM_025.jpg	100
3257.067	0.797	797.4	congruent	Block3	congruent/STIM_025.jpg	99
3259.872	0.458	458.4	congruent	Block3	congruent/STIM_025.jpg	100
3263.678	0.73	729.5	congruent	Block3	congruent/STIM_025.jpg	100
3268.093	0.464	464.5	congruent	Block3	congruent/STIM_025.jpg	99
3272.106	0.676	675.8	congruent	Block3	congruent/STIM_026.jpg	100
3276.497	0.765	765.4	congruent	Block3	congruent/STIM_026.jpg	99
3279.474	0.541	540.6	congruent	Block3	congruent/STIM_026.jpg	100
3283.7	0.636	635.6	congruent	Block3	congruent/STIM_026.jpg	99
3288.068	0.584	583.9	congruent	Block3	congruent/STIM_026.jpg	100
3292.384	0.635	634.7	congruent	Block3	congruent/STIM_027.jpg	99
3296.739	0.483	482.7	congruent	Block3	congruent/STIM_027.jpg	100
3301.173	0.551	550.9	congruent	Block3	congruent/STIM_027.jpg	100
3304.028	0.792	791.9	congruent	Block3	congruent/STIM_027.jpg	99
3307.04	0.637	637.1	congruent	Block3	congruent/STIM_027.jpg	99
3311.041	0.506	506.4	congruent	Block3	congruent/STIM_028.jpg	100
3313.683	0.578	577.5	congruent	Block3	congruent/STIM_028.jpg	99
3318.237	0.725	725.2	congruent	Block3	congruent/STIM_028.jpg	99
3322.932	0.8	800.4	congruent	Block3	congruent/STIM_028.jpg	99
3326.533	0.569	568.7	congruent	Block3	congruent/STIM_028.jpg	99
3330.432	0.747	746.8	congruent	Block3	congruent/STIM_029.jpg	100
3334.194	0.744	743.9	congruent	Block3	congruent/STIM_029.jpg	100
3338.929	0.486	485.5	congruent	Block3	congruent/STIM_029.jpg	99
3343.291	0.697	696.7	congruent	Block3	congruent/STIM_029.jpg	100
3346.591	0.525	524.6	congruent	Block3	congruent/STIM_029.jpg	100
