onset	duration	accuracy	trial_type	learning_stage	stimulus
0.0	1.306	correct	incongruent	Block1	incongruent/STIM_000.jpg
4.481	1.003	correct	incongruent	Block1	incongruent/STIM_000.jpg
8.618	0.867	correct	incongruent	Block1	incongruent/STIM_000.jpg
11.982	0.751	correct	incongruent	Block1	incongruent/STIM_000.jpg
16.283	1.157	correct	incongruent	Block1	incongruent/STIM_000.jpg
19.415	1.056	correct	incongruent	Block1	incongruent/STIM_001.jpg
23.231	0.799	correct	incongruent	Block1	incongruent/STIM_001.jpg
27.733	1.356	correct	incongruent	Block1	incongruent/STIM_001.jpg
31.904	1.274	correct	incongruent	Block1	incongruent/STIM_001.jpg
36.227	0.963	correct	incongruent	Block1	incongruent/STIM_001.jpg
40.781	0.992	correct	incongruent	Block1	incongruent/STIM_002.jpg
44.073	1.557	correct	incongruent	Block1	incongruent/STIM_002.jpg
49.181	1.363	correct	incongruent	Block1	incongruent/STIM_002.jpg
52.56	1.133	correct	incongruent	Block1	incongruent/STIM_002.jpg
55.843	1.395	correct	incongruent	Block1	incongruent/STIM_002.jpg
59.172	1.073	correct	incongruent	Block1	incongruent/STIM_003.jpg
63.776	1.338	incorrect	incongruent	Block1	incongruent/STIM_003.jpg
68.377	0.988	correct	incongruent	Block1	incongruent/STIM_003.jpg
71.279	1.375	correct	incongruent	Block1	incongruent/STIM_003.jpg
75.091	1.076	correct	incongruent	Block1	incongruent/STIM_003.jpg
79.08	1.54	correct	incongruent	Block1	incongruent/STIM_004.jpg
82.453	1.171	correct	incongruent	Block1	incongruent/STIM_004.jpg
85.688	1.379	correct	incongruent	Block1	incongruent/STIM_004.jpg
90.655	0.807	correct	incongruent	Block1	incongruent/STIM_004.jpg
94.768	1.36	correct	incongruent	Block1	incongruent/STIM_004.jpg
98.356	0.833	correct	incongruent	Block1	incongruent/STIM_005.jpg
101.376	0.968	correct	incongruent	Block1	incongruent/STIM_005.jpg
104.483	1.432	correct	incongruent	Block1	incongruent/STIM_005.jpg
108.913	1.202	correct	incongruent	Block1	incongruent/STIM_005.jpg
112.376	0.956	correct	incongruent	Block1	incongruent/STIM_005.jpg
115.867	1.475	correct	incongruent	Block1	incongruent/STIM_006.jpg
120.548	0.918	correct	incongruent	Block1	incongruent/STIM_006.jpg
124.768	1.209	correct	incongruent	Block1	incongruent/STIM_006.jpg
127.955	0.832	correct	incongruent	Block1	incongruent/STIM_006.jpg
132.19	1.293	correct	incongruent	Block1	incongruent/STIM_006.jpg
135.825	1.012	correct	incongruent	Block1	incongruent/STIM_007.jpg
139.642	1.44	correct	incongruent	Block1	incongruent/STIM_007.jpg
143.859	0.944	correct	incongruent	Block1	incongruent/STIM_007.jpg
148.164	0.972	correct	incongruent	Block1	incongruent/STIM_007.jpg
151.953	1.2	correct	incongruent	Block1	incongruent/STIM_007.jpg
156.034	1.082	correct	incongruent	Block1	incongruent/STIM_008.jpg
159.571	1.013	incorrect	incongruent	Block1	incongruent/STIM_008.jpg
163.777	0.993	correct	incongruent	Block1	incongruent/STIM_008.jpg
167.414	1.385	correct	incongruent	Block1	incongruent/STIM_008.jpg
171.506	1.236	correct	incongruent	Block1	incongruent/STIM_008.jpg
175.47	1.323	correct	incongruent	Block1	incongruent/STIM_009.jpg
178.791	1.486	correct	incongruent	Block1	incongruent/STIM_009.jpg
183.023	1.393	correct	incongruent	Block1	incongruent/STIM_009.jpg
188.16	0.702	correct	incongruent	Block1	incongruent/STIM_009.jpg
191.534	0.928	correct	incongruent	Block1	incongruent/STIM_009.jpg
196.088	1.691	incorrect	incongruent	Block1	incongruent/STIM_010.jpg
200.546	1.554	correct	incongruent	Block1	incongruent/STIM_010.jpg
205.296	1.284	correct	incongruent	Block1	incongruent/STIM_010.jpg
209.058	1.4	correct	incongruent	Block1	incongruent/STIM_010.jpg
212.954	1.11	correct	incongruent	Block1	incongruent/STIM_010.jpg
216.636	0.95	correct	incongruent	Block1	incongruent/STIM_011.jpg
219.979	0.738	correct	incongruent	Block1	incongruent/STIM_011.jpg
223.42	1.514	correct	incongruent	Block1	incongruent/STIM_011.jpg
228.28	0.893	correct	incongruent	Block1	incongruent/STIM_011.jpg
231.586	0.723	correct	incongruent	Block1	incongruent/STIM_011.jpg
235.506	1.582	correct	incongruent	Block1	incongruent/STIM_012.jpg
239.033	1.657	correct	incongruent	Block1	incongruent/STIM_012.jpg
244.133	1.536	correct	incongruent	Block1	incongruent/STIM_012.jpg
248.844	1.066	correct	incongruent	Block1	incongruent/STIM_012.jpg
252.295	0.874	correct	incongruent	Block1	incongruent/STIM_012.jpg
255.155	1.638	correct	incongruent	Block1	incongruent/STIM_013.jpg
260.17	0.788	correct	incongruent	Block1	incongruent/STIM_013.jpg
263.462	0.946	correct	incongruent	Block1	incongruent/STIM_013.jpg
268.186	0.644	correct	incongruent	Block1	incongruent/STIM_013.jpg
271.67	1.32	correct	incongruent	Block1	incongruent/STIM_013.jpg
276.713	1.565	correct	incongruent	Block1	incongruent/STIM_014.jpg
281.584	1.469	correct	incongruent	Block1	incongruent/STIM_014.jpg
286.632	1.142	correct	incongruent	Block1	incongruent/STIM_014.jpg
291.24	0.891	correct	incongruent	Block1	incongruent/STIM_014.jpg
294.534	0.692	correct	incongruent	Block1	incongruent/STIM_014.jpg
299.073	1.508	incorrect	incongruent	Block1	incongruent/STIM_015.jpg
303.753	1.1	correct	incongruent	Block1	incongruent/STIM_015.jpg
306.889	1.141	correct	incongruent	Block1	incongruent/STIM_015.jpg
310.333	0.899	correct	incongruent	Block1	incongruent/STIM_015.jpg
314.249	0.998	correct	incongruent	Block1	incongruent/STIM_015.jpg
317.151	1.552	incorrect	incongruent	Block1	incongruent/STIM_016.jpg
320.891	0.896	correct	incongruent	Block1	incongruent/STIM_016.jpg
325.708	0.98	correct	incongruent	Block1	incongruent/STIM_016.jpg
330.533	1.063	correct	incongruent	Block1	incongruent/STIM_016.jpg
333.435	0.934	correct	incongruent	Block1	incongruent/STIM_016.jpg
337.677	1.535	correct	incongruent	Block1	incongruent/STIM_017.jpg
342.955	1.413	incorrect	incongruent	Block1	incongruent/STIM_017.jpg
347.407	1.057	correct	incongruent	Block1	incongruent/STIM_017.jpg
350.695	0.883	correct	incongruent	Block1	incongruent/STIM_017.jpg
355.243	0.754	correct	incongruent	Block1	incongruent/STIM_017.jpg
359.516	1.26	correct	incongruent	Block1	incongruent/STIM_018.jpg
362.977	1.436	correct	incongruent	Block1	incongruent/STIM_018.jpg
366.996	1.262	correct	incongruent	Block1	incongruent/STIM_018.jpg
372.104	1.356	correct	incongruent	Block1	incongruent/STIM_018.jpg
376.269	1.256	correct	incongruent	Block1	incongruent/STIM_018.jpg
380.201	1.009	correct	incongruent	Block1	incongruent/STIM_019.jpg
384.483	1.57	correct	incongruent	Block1	incongruent/STIM_019.jpg
389.23	1.378	correct	incongruent	Block1	incongruent/STIM_019.jpg
393.76	0.884	correct	incongruent	Block1	incongruent/STIM_019.jpg
397.455	0.768	correct	incongruent	Block1	incongruent/STIM_019.jpg
400.967	1.373	correct	incongruent	Block1	incongruent/STIM_020.jpg
405.099	1.259	correct	incongruent	Block1	incongruent/STIM_020.jpg
409.465	0.761	correct	incongruent	Block1	incongruent/STIM_020.jpg
413.648	1.221	incorrect	incongruent	Block1	incongruent/STIM_020.jpg
417.876	1.062	correct	incongruent	Block1	incongruent/STIM_020.jpg
422.224	1.361	correct	incongruent	Block1	incongruent/STIM_021.jpg
426.875	0.906	correct	incongruent	Block1	incongruent/STIM_021.jpg
429.994	1.165	correct	incongruent	Block1	incongruent/STIM_021.jpg
433.401	1.375	correct	incongruent	Block1	incongruent/STIM_021.jpg
438.215	1.228	correct	incongruent	Block1	incongruent/STIM_021.jpg
443.02	1.594	correct	incongruent	Block1	incongruent/STIM_022.jpg
447.305	0.994	correct	incongruent	Block1	incongruent/STIM_022.jpg
451.169	0.873	correct	incongruent	Block1	incongruent/STIM_022.jpg
455.617	1.108	correct	incongruent	Block1	incongruent/STIM_022.jpg
460.134	1.152	correct	incongruent	Block1	incongruent/STIM_022.jpg
463.608	1.064	incorrect	incongruent	Block1	incongruent/STIM_023.jpg
467.441	1.309	correct	incongruent	Block1	incongruent/STIM_023.jpg
472.214	1.507	correct	incongruent	Block1	incongruent/STIM_023.jpg
475.948	0.663	incorrect	incongruent	Block1	incongruent/STIM_023.jpg
478.864	1.356	correct	incongruent	Block1	incongruent/STIM_023.jpg
482.814	1.635	correct	incongruent	Block1	incongruent/STIM_024.jpg
487.288	1.111	correct	incongruent	Block1	incongruent/STIM_024.jpg
491.7	0.799	correct	incongruent	Block1	incongruent/STIM_024.jpg
495.711	1.16	correct	incongruent	Block1	incongruent/STIM_024.jpg
499.202	0.871	correct	incongruent	Block1	incongruent/STIM_024.jpg
503.311	1.633	correct	incongruent	Block1	incongruent/STIM_025.jpg
507.35	1.57	correct	incongruent	Block1	incongruent/STIM_025.jpg
512.229	1.256	correct	incongruent	Block1	incongruent/STIM_025.jpg
515.936	1.271	correct	incongruent	Block1	incongruent/STIM_025.jpg
520.067	1.433	correct	incongruent	Block1	incongruent/STIM_025.jpg
523.648	1.166	correct	incongruent	Block1	incongruent/STIM_026.jpg
528.016	1.352	correct	incongruent	Block1	incongruent/STIM_026.jpg
531.708	1.457	correct	incongruent	Block1	incongruent/STIM_026.jpg
535.097	1.099	correct	incongruent	Block1	incongruent/STIM_026.jpg
538.938	0.943	correct	incongruent	Block1	incongruent/STIM_026.jpg
543.206	1.129	correct	incongruent	Block1	incongruent/STIM_027.jpg
547.978	1.04	correct	incongruent	Block1	incongruent/STIM_027.jpg
552.636	0.689	correct	incongruent	Block1	incongruent/STIM_027.jpg
556.654	1.077	correct	incongruent	Block1	incongruent/STIM_027.jpg
560.482	0.972	correct	incongruent	Block1	incongruent/STIM_027.jpg
563.582	0.802	correct	incongruent	Block1	incongruent/STIM_028.jpg
567.213	1.018	correct	incongruent	Block1	incongruent/STIM_028.jpg
572.022	1.503	correct	incongruent	Block1	incongruent/STIM_028.jpg
575.321	1.067	correct	incongruent	Block1	incongruent/STIM_028.jpg
580.009	1.177	correct	incongruent	Block1	incongruent/STIM_028.jpg
583.648	0.786	correct	incongruent	Block1	incongruent/STIM_029.jpg
586.657	1.345	correct	incongruent	Block1	incongruent/STIM_029.jpg
591.877	1.098	correct	incongruent	Block1	incongruent/STIM_029.jpg
595.476	0.868	correct	incongruent	Block1	incongruent/STIM_029.jpg
600.091	0.963	correct	incongruent	Block1	incongruent/STIM_029.jpg
603.346	0.677	correct	congruent	Block1	congruent/STIM_000.jpg
607.211	0.728	correct	congruent	Block1	congruent/STIM_000.jpg
611.51	0.817	correct	congruent	Block1	congruent/STIM_000.jpg
616.209	0.827	correct	congruent	Block1	congruent/STIM_000.jpg
620.827	0.92	correct	congruent	Block1	congruent/STIM_000.jpg
624.582	0.706	correct	congruent	Block1	congruent/STIM_001.jpg
627.734	0.859	correct	congruent	Block1	congruent/STIM_001.jpg
631.668	1.033	correct	congruent	Block1	congruent/STIM_001.jpg
636.154	0.768	correct	congruent	Block1	congruent/STIM_001.jpg
640.279	0.919	correct	congruent	Block1	congruent/STIM_001.jpg
644.34	1.034	correct	congruent	Block1	congruent/STIM_002.jpg
647.874	0.988	correct	congruent	Block1	congruent/STIM_002.jpg
651.737	0.688	correct	congruent	Block1	congruent/STIM_002.jpg
655.721	0.626	correct	congruent	Block1	congruent/STIM_002.jpg
658.471	1.002	correct	congruent	Block1	congruent/STIM_002.jpg
663.019	0.634	correct	congruent	Block1	congruent/STIM_003.jpg
665.853	0.578	correct	congruent	Block1	congruent/STIM_003.jpg
670.256	0.711	correct	congruent	Block1	congruent/STIM_003.jpg
673.321	0.549	correct	congruent	Block1	congruent/STIM_003.jpg
676.397	0.881	correct	congruent	Block1	congruent/STIM_003.jpg
681.179	0.86	correct	congruent	Block1	congruent/STIM_004.jpg
684.397	0.801	correct	congruent	Block1	congruent/STIM_004.jpg
687.835	1.015	correct	congruent	Block1	congruent/STIM_004.jpg
690.792	1.023	correct	congruent	Block1	congruent/STIM_004.jpg
694.463	0.902	correct	congruent	Block1	congruent/STIM_004.jpg
699.177	0.808	correct	congruent	Block1	congruent/STIM_005.jpg
702.124	0.69	correct	congruent	Block1	congruent/STIM_005.jpg
706.565	1.016	correct	congruent	Block1	congruent/STIM_005.jpg
711.338	0.876	correct	congruent	Block1	congruent/STIM_005.jpg
715.267	0.835	correct	congruent	Block1	congruent/STIM_005.jpg
718.104	1.038	correct	congruent	Block1	congruent/STIM_006.jpg
722.05	0.828	correct	congruent	Block1	congruent/STIM_006.jpg
725.038	0.845	correct	congruent	Block1	congruent/STIM_006.jpg
729.41	0.881	correct	congruent	Block1	congruent/STIM_006.jpg
733.755	0.893	correct	congruent	Block1	congruent/STIM_006.jpg
737.792	0.562	correct	congruent	Block1	congruent/STIM_007.jpg
741.946	0.637	correct	congruent	Block1	congruent/STIM_007.jpg
745.697	0.893	correct	congruent	Block1	congruent/STIM_007.jpg
749.781	0.956	correct	congruent	Block1	congruent/STIM_007.jpg
754.578	0.664	incorrect	congruent	Block1	congruent/STIM_007.jpg
757.694	1.028	correct	congruent	Block1	congruent/STIM_008.jpg
760.74	0.684	correct	congruent	Block1	congruent/STIM_008.jpg
763.801	0.82	correct	congruent	Block1	congruent/STIM_008.jpg
766.791	0.915	correct	congruent	Block1	congruent/STIM_008.jpg
770.607	0.827	correct	congruent	Block1	congruent/STIM_008.jpg
774.887	0.517	correct	congruent	Block1	congruent/STIM_009.jpg
778.293	0.968	correct	congruent	Block1	congruent/STIM_009.jpg
782.184	0.881	correct	congruent	Block1	congruent/STIM_009.jpg
785.87	0.719	correct	congruent	Block1	congruent/STIM_009.jpg
788.757	0.813	correct	congruent	Block1	congruent/STIM_009.jpg
791.506	0.958	correct	congruent	Block1	congruent/STIM_010.jpg
795.4	0.792	incorrect	congruent	Block1	congruent/STIM_010.jpg
799.766	0.696	incorrect	congruent	Block1	congruent/STIM_010.jpg
803.152	0.926	correct	congruent	Block1	congruent/STIM_010.jpg
806.823	0.879	correct	congruent	Block1	congruent/STIM_010.jpg
810.366	0.67	correct	congruent	Block1	congruent/STIM_011.jpg
814.338	0.745	incorrect	congruent	Block1	congruent/STIM_011.jpg
818.839	0.576	correct	congruent	Block1	congruent/STIM_011.jpg
822.642	0.812	correct	congruent	Block1	congruent/STIM_011.jpg
826.092	0.57	correct	congruent	Block1	congruent/STIM_011.jpg
830.348	0.762	correct	congruent	Block1	congruent/STIM_012.jpg
833.461	0.683	correct	congruent	Block1	congruent/STIM_012.jpg
837.238	0.804	correct	congruent	Block1	congruent/STIM_012.jpg
841.776	0.777	correct	congruent	Block1	congruent/STIM_012.jpg
845.617	0.81	correct	congruent	Block1	congruent/STIM_012.jpg
848.671	0.859	incorrect	congruent	Block1	congruent/STIM_013.jpg
851.72	0.879	correct	congruent	Block1	congruent/STIM_013.jpg
854.719	0.61	correct	congruent	Block1	congruent/STIM_013.jpg
857.912	0.88	correct	congruent	Block1	congruent/STIM_013.jpg
862.022	0.813	correct	congruent	Block1	congruent/STIM_013.jpg
865.389	0.57	correct	congruent	Block1	congruent/STIM_014.jpg
868.602	0.756	correct	congruent	Block1	congruent/STIM_014.jpg
873.208	0.972	correct	congruent	Block1	congruent/STIM_014.jpg
877.397	0.737	correct	congruent	Block1	congruent/STIM_014.jpg
881.593	0.797	correct	congruent	Block1	congruent/STIM_014.jpg
885.628	0.91	correct	congruent	Block1	congruent/STIM_015.jpg
888.809	0.922	correct	congruent	Block1	congruent/STIM_015.jpg
893.577	0.82	correct	congruent	Block1	congruent/STIM_015.jpg
896.9	0.632	correct	congruent	Block1	congruent/STIM_015.jpg
901.171	0.726	correct	congruent	Block1	congruent/STIM_015.jpg
904.023	0.607	correct	congruent	Block1	congruent/STIM_016.jpg
907.737	0.681	correct	congruent	Block1	congruent/STIM_016.jpg
911.611	0.999	correct	congruent	Block1	congruent/STIM_016.jpg
915.282	0.771	incorrect	congruent	Block1	congruent/STIM_016.jpg
918.213	0.748	correct	congruent	Block1	congruent/STIM_016.jpg
922.813	0.629	correct	congruent	Block1	congruent/STIM_017.jpg
926.176	0.891	correct	congruent	Block1	congruent/STIM_017.jpg
930.046	0.732	correct	congruent	Block1	congruent/STIM_017.jpg
933.075	0.695	correct	congruent	Block1	congruent/STIM_017.jpg
936.857	0.885	correct	congruent	Block1	congruent/STIM_017.jpg
940.686	0.952	correct	congruent	Block1	congruent/STIM_018.jpg
944.006	0.671	correct	congruent	Block1	congruent/STIM_018.jpg
948.244	0.964	correct	congruent	Block1	congruent/STIM_018.jpg
951.602	0.799	correct	congruent	Block1	congruent/STIM_018.jpg
954.794	0.838	correct	congruent	Block1	congruent/STIM_018.jpg
958.837	0.781	correct	congruent	Block1	congruent/STIM_019.jpg
962.782	0.866	correct	congruent	Block1	congruent/STIM_019.jpg
967.284	0.701	incorrect	congruent	Block1	congruent/STIM_019.jpg
970.266	0.689	incorrect	congruent	Block1	congruent/STIM_019.jpg
974.048	0.799	correct	congruent	Block1	congruent/STIM_019.jpg
977.744	0.725	correct	congruent	Block1	congruent/STIM_020.jpg
981.565	0.89	correct	congruent	Block1	congruent/STIM_020.jpg
985.772	0.787	correct	congruent	Block1	congruent/STIM_020.jpg
989.33	0.766	correct	congruent	Block1	congruent/STIM_020.jpg
993.884	0.963	correct	congruent	Block1	congruent/STIM_020.jpg
997.298	1.077	correct	congruent	Block1	congruent/STIM_021.jpg
1001.946	0.624	correct	congruent	Block1	congruent/STIM_021.jpg
1005.897	1.03	correct	congruent	Block1	congruent/STIM_021.jpg
1009.009	0.877	correct	congruent	Block1	congruent/STIM_021.jpg
1013.298	0.844	correct	congruent	Block1	congruent/STIM_021.jpg
1016.422	0.57	correct	congruent	Block1	congruent/STIM_022.jpg
1019.274	0.748	correct	congruent	Block1	congruent/STIM_022.jpg
1023.132	0.927	correct	congruent	Block1	congruent/STIM_022.jpg
1027.141	0.66	correct	congruent	Block1	congruent/STIM_022.jpg
1030.915	0.922	correct	congruent	Block1	congruent/STIM_022.jpg
1034.698	0.886	correct	congruent	Block1	congruent/STIM_023.jpg
1037.513	0.787	incorrect	congruent	Block1	congruent/STIM_023.jpg
1040.693	0.835	correct	congruent	Block1	congruent/STIM_023.jpg
1043.72	0.66	correct	congruent	Block1	congruent/STIM_023.jpg
1046.581	0.614	correct	congruent	Block1	congruent/STIM_023.jpg
1050.274	0.766	correct	congruent	Block1	congruent/STIM_024.jpg
1054.5	0.636	correct	congruent	Block1	congruent/STIM_024.jpg
1057.714	1.01	correct	congruent	Block1	congruent/STIM_024.jpg
1062.33	0.848	correct	congruent	Block1	congruent/STIM_024.jpg
1065.633	0.706	correct	congruent	Block1	congruent/STIM_024.jpg
1069.169	0.762	correct	congruent	Block1	congruent/STIM_025.jpg
1072.199	0.916	correct	congruent	Block1	congruent/STIM_025.jpg
1075.774	0.572	correct	congruent	Block1	congruent/STIM_025.jpg
1079.079	0.75	correct	congruent	Block1	congruent/STIM_025.jpg
1083.397	0.987	correct	congruent	Block1	congruent/STIM_025.jpg
1086.568	0.844	correct	congruent	Block1	congruent/STIM_026.jpg
1089.639	0.723	correct	congruent	Block1	congruent/STIM_026.jpg
1092.431	0.513	correct	congruent	Block1	congruent/STIM_026.jpg
1095.781	0.926	correct	congruent	Block1	congruent/STIM_026.jpg
1100.084	0.845	correct	congruent	Block1	congruent/STIM_026.jpg
1103.437	0.965	correct	congruent	Block1	congruent/STIM_027.jpg
1107.709	0.895	correct	congruent	Block1	congruent/STIM_027.jpg
1111.738	0.668	correct	congruent	Block1	congruent/STIM_027.jpg
1116.087	0.793	correct	congruent	Block1	congruent/STIM_027.jpg
1120.043	0.792	correct	congruent	Block1	congruent/STIM_027.jpg
1123.718	0.992	correct	congruent	Block1	congruent/STIM_028.jpg
1127.154	0.658	correct	congruent	Block1	congruent/STIM_028.jpg
1130.818	0.585	correct	congruent	Block1	congruent/STIM_028.jpg
1135.045	0.643	correct	congruent	Block1	congruent/STIM_028.jpg
1138.427	0.934	correct	congruent	Block1	congruent/STIM_028.jpg
1143.107	1.038	correct	congruent	Block1	congruent/STIM_029.jpg
1147.823	0.688	correct	congruent	Block1	congruent/STIM_029.jpg
1151.136	0.656	correct	congruent	Block1	congruent/STIM_029.jpg
1154.415	0.783	correct	congruent	Block1	congruent/STIM_029.jpg
1158.069	0.741	correct	congruent	Block1	congruent/STIM_029.jpg
1161.611	0.703	correct	incongruent	Block2	incongruent/STIM_000.jpg
1164.255	1.102	correct	incongruent	Block2	incongruent/STIM_000.jpg
1168.984	0.854	correct	incongruent	Block2	incongruent/STIM_000.jpg
1172.02	0.925	correct	incongruent	Block2	incongruent/STIM_000.jpg
1175.975	0.988	correct	incongruent	Block2	incongruent/STIM_000.jpg
1179.321	1.16	correct	incongruent	Block2	incongruent/STIM_001.jpg
1183.797	1.361	correct	incongruent	Block2	incongruent/STIM_001.jpg
1188.416	0.693	incorrect	incongruent	Block2	incongruent/STIM_001.jpg
1191.238	1.207	correct	incongruent	Block2	incongruent/STIM_001.jpg
1194.947	1.01	correct	incongruent	Block2	incongruent/STIM_001.jpg
1198.817	1.0	correct	incongruent	Block2	incongruent/STIM_002.jpg
1203.274	1.038	correct	incongruent	Block2	incongruent/STIM_002.jpg
1206.434	0.626	correct	incongruent	Block2	incongruent/STIM_002.jpg
1210.131	0.97	correct	incongruent	Block2	incongruent/STIM_002.jpg
1213.823	0.592	correct	incongruent	Block2	incongruent/STIM_002.jpg
1217.643	1.127	correct	incongruent	Block2	incongruent/STIM_003.jpg
1221.604	0.792	correct	incongruent	Block2	incongruent/STIM_003.jpg
1224.759	0.76	correct	incongruent	Block2	incongruent/STIM_003.jpg
1228.478	0.656	correct	incongruent	Block2	incongruent/STIM_003.jpg
1232.613	0.907	correct	incongruent	Block2	incongruent/STIM_003.jpg
1237.123	1.121	correct	incongruent	Block2	incongruent/STIM_004.jpg
1241.331	0.622	correct	incongruent	Block2	incongruent/STIM_004.jpg
1245.208	1.152	correct	incongruent	Block2	incongruent/STIM_004.jpg
1248.862	1.09	correct	incongruent	Block2	incongruent/STIM_004.jpg
1252.791	0.638	correct	incongruent	Block2	incongruent/STIM_004.jpg
1257.055	1.162	incorrect	incongruent	Block2	incongruent/STIM_005.jpg
1261.901	1.164	correct	incongruent	Block2	incongruent/STIM_005.jpg
1265.537	0.91	correct	incongruent	Block2	incongruent/STIM_005.jpg
1269.257	0.898	correct	incongruent	Block2	incongruent/STIM_005.jpg
1274.01	0.869	correct	incongruent	Block2	incongruent/STIM_005.jpg
1278.595	1.219	correct	incongruent	Block2	incongruent/STIM_006.jpg
1282.434	1.195	correct	incongruent	Block2	incongruent/STIM_006.jpg
1287.003	1.014	correct	incongruent	Block2	incongruent/STIM_006.jpg
1290.248	0.858	correct	incongruent	Block2	incongruent/STIM_006.jpg
1294.934	0.7	correct	incongruent	Block2	incongruent/STIM_006.jpg
1299.222	1.336	correct	incongruent	Block2	incongruent/STIM_007.jpg
1303.577	1.157	correct	incongruent	Block2	incongruent/STIM_007.jpg
1307.748	1.109	correct	incongruent	Block2	incongruent/STIM_007.jpg
1311.892	0.668	correct	incongruent	Block2	incongruent/STIM_007.jpg
1316.233	0.55	correct	incongruent	Block2	incongruent/STIM_007.jpg
1320.104	1.071	correct	incongruent	Block2	incongruent/STIM_008.jpg
1324.571	1.186	correct	incongruent	Block2	incongruent/STIM_008.jpg
1327.969	0.684	correct	incongruent	Block2	incongruent/STIM_008.jpg
1332.444	1.011	correct	incongruent	Block2	incongruent/STIM_008.jpg
1336.682	0.756	correct	incongruent	Block2	incongruent/STIM_008.jpg
1340.541	0.99	correct	incongruent	Block2	incongruent/STIM_009.jpg
1344.14	0.681	correct	incongruent	Block2	incongruent/STIM_009.jpg
1347.094	0.708	correct	incongruent	Block2	incongruent/STIM_009.jpg
1351.249	0.678	correct	incongruent	Block2	incongruent/STIM_009.jpg
1354.471	0.919	correct	incongruent	Block2	incongruent/STIM_009.jpg
1358.746	1.243	correct	incongruent	Block2	incongruent/STIM_010.jpg
1363.709	0.87	correct	incongruent	Block2	incongruent/STIM_010.jpg
1368.516	0.643	correct	incongruent	Block2	incongruent/STIM_010.jpg
1372.96	0.634	correct	incongruent	Block2	incongruent/STIM_010.jpg
1377.265	0.717	correct	incongruent	Block2	incongruent/STIM_010.jpg
1381.181	0.773	correct	incongruent	Block2	incongruent/STIM_011.jpg
1385.562	1.205	correct	incongruent	Block2	incongruent/STIM_011.jpg
1390.549	1.223	correct	incongruent	Block2	incongruent/STIM_011.jpg
1393.763	0.901	correct	incongruent	Block2	incongruent/STIM_011.jpg
1396.996	0.838	correct	incongruent	Block2	incongruent/STIM_011.jpg
1400.106	0.735	correct	incongruent	Block2	incongruent/STIM_012.jpg
1402.976	0.785	correct	incongruent	Block2	incongruent/STIM_012.jpg
1405.883	0.99	correct	incongruent	Block2	incongruent/STIM_012.jpg
1410.052	0.698	correct	incongruent	Block2	incongruent/STIM_012.jpg
1413.65	0.89	correct	incongruent	Block2	incongruent/STIM_012.jpg
1417.878	1.272	correct	incongruent	Block2	incongruent/STIM_013.jpg
1421.493	0.997	correct	incongruent	Block2	incongruent/STIM_013.jpg
1425.938	0.609	correct	incongruent	Block2	incongruent/STIM_013.jpg
1430.497	0.735	correct	incongruent	Block2	incongruent/STIM_013.jpg
1433.851	1.019	correct	incongruent	Block2	incongruent/STIM_013.jpg
1436.865	0.935	correct	incongruent	Block2	incongruent/STIM_014.jpg
1439.898	0.938	correct	incongruent	Block2	incongruent/STIM_014.jpg
1444.556	1.294	correct	incongruent	Block2	incongruent/STIM_014.jpg
1448.604	1.077	correct	incongruent	Block2	incongruent/STIM_014.jpg
1453.382	0.758	correct	incongruent	Block2	incongruent/STIM_014.jpg
1457.895	0.79	correct	incongruent	Block2	incongruent/STIM_015.jpg
1461.524	0.831	correct	incongruent	Block2	incongruent/STIM_015.jpg
1465.52	1.064	correct	incongruent	Block2	incongruent/STIM_015.jpg
1469.763	1.104	correct	incongruent	Block2	incongruent/STIM_015.jpg
1473.423	1.163	correct	incongruent	Block2	incongruent/STIM_015.jpg
1477.639	0.78	incorrect	incongruent	Block2	incongruent/STIM_016.jpg
1481.252	1.213	correct	incongruent	Block2	incongruent/STIM_016.jpg
1484.748	1.283	correct	incongruent	Block2	incongruent/STIM_016.jpg
1488.197	0.87	correct	incongruent	Block2	incongruent/STIM_016.jpg
1492.683	1.09	correct	incongruent	Block2	incongruent/STIM_016.jpg
1497.057	0.852	incorrect	incongruent	Block2	incongruent/STIM_017.jpg
1501.094	1.134	correct	incongruent	Block2	incongruent/STIM_017.jpg
1504.129	0.589	correct	incongruent	Block2	incongruent/STIM_017.jpg
1506.695	1.009	correct	incongruent	Block2	incongruent/STIM_017.jpg
1509.908	0.927	correct	incongruent	Block2	incongruent/STIM_017.jpg
1514.418	0.893	correct	incongruent	Block2	incongruent/STIM_018.jpg
1517.253	1.224	correct	incongruent	Block2	incongruent/STIM_018.jpg
1521.322	0.791	correct	incongruent	Block2	incongruent/STIM_018.jpg
1525.18	0.65	correct	incongruent	Block2	incongruent/STIM_018.jpg
1529.757	0.831	correct	incongruent	Block2	incongruent/STIM_018.jpg
1534.096	1.385	correct	incongruent	Block2	incongruent/STIM_019.jpg
1539.074	0.824	correct	incongruent	Block2	incongruent/STIM_019.jpg
1542.572	0.963	correct	incongruent	Block2	incongruent/STIM_019.jpg
1546.904	0.711	correct	incongruent	Block2	incongruent/STIM_019.jpg
1551.023	0.925	correct	incongruent	Block2	incongruent/STIM_019.jpg
1554.991	0.766	correct	incongruent	Block2	incongruent/STIM_020.jpg
1558.274	1.362	correct	incongruent	Block2	incongruent/STIM_020.jpg
1562.042	0.72	correct	incongruent	Block2	incongruent/STIM_020.jpg
1566.661	0.779	correct	incongruent	Block2	incongruent/STIM_020.jpg
1570.553	1.105	correct	incongruent	Block2	incongruent/STIM_020.jpg
1573.772	1.367	correct	incongruent	Block2	incongruent/STIM_021.jpg
1578.661	0.642	correct	incongruent	Block2	incongruent/STIM_021.jpg
1582.226	1.112	correct	incongruent	Block2	incongruent/STIM_021.jpg
1585.879	1.134	correct	incongruent	Block2	incongruent/STIM_021.jpg
1589.397	0.72	correct	incongruent	Block2	incongruent/STIM_021.jpg
1592.353	1.353	correct	incongruent	Block2	incongruent/STIM_022.jpg
1596.65	1.181	correct	incongruent	Block2	incongruent/STIM_022.jpg
1600.631	1.215	correct	incongruent	Block2	incongruent/STIM_022.jpg
1604.778	0.723	correct	incongruent	Block2	incongruent/STIM_022.jpg
1608.562	0.952	correct	incongruent	Block2	incongruent/STIM_022.jpg
1612.431	1.181	incorrect	incongruent	Block2	incongruent/STIM_023.jpg
1616.423	1.265	correct	incongruent	Block2	incongruent/STIM_023.jpg
1620.648	1.131	correct	incongruent	Block2	incongruent/STIM_023.jpg
1624.977	1.078	correct	incongruent	Block2	incongruent/STIM_023.jpg
1629.643	1.044	correct	incongruent	Block2	incongruent/STIM_023.jpg
1633.695	0.703	correct	incongruent	Block2	incongruent/STIM_024.jpg
1636.322	0.706	correct	incongruent	Block2	incongruent/STIM_024.jpg
1639.938	0.633	correct	incongruent	Block2	incongruent/STIM_024.jpg
1643.254	1.11	incorrect	incongruent	Block2	incongruent/STIM_024.jpg
1647.726	0.931	correct	incongruent	Block2	incongruent/STIM_024.jpg
1650.726	1.197	correct	incongruent	Block2	incongruent/STIM_025.jpg
1655.465	0.68	correct	incongruent	Block2	incongruent/STIM_025.jpg
1660.025	1.063	correct	incongruent	Block2	incongruent/STIM_025.jpg
1663.21	0.706	correct	incongruent	Block2	incongruent/STIM_025.jpg
1667.518	0.559	correct	incongruent	Block2	incongruent/STIM_025.jpg
1671.863	1.062	incorrect	incongruent	Block2	incongruent/STIM_026.jpg
1676.439	0.69	correct	incongruent	Block2	incongruent/STIM_026.jpg
1680.803	0.876	correct	incongruent	Block2	incongruent/STIM_026.jpg
1683.979	0.75	correct	incongruent	Block2	incongruent/STIM_026.jpg
1687.002	1.246	correct	incongruent	Block2	incongruent/STIM_026.jpg
1690.176	0.768	correct	incongruent	Block2	incongruent/STIM_027.jpg
1694.47	1.296	correct	incongruent	Block2	incongruent/STIM_027.jpg
1697.872	0.761	incorrect	incongruent	Block2	incongruent/STIM_027.jpg
1700.529	1.137	incorrect	incongruent	Block2	incongruent/STIM_027.jpg
1705.438	1.106	incorrect	incongruent	Block2	incongruent/STIM_027.jpg
1709.959	1.074	correct	incongruent	Block2	incongruent/STIM_028.jpg
1713.85	1.307	correct	incongruent	Block2	incongruent/STIM_028.jpg
1717.485	0.872	correct	incongruent	Block2	incongruent/STIM_028.jpg
1721.105	0.871	correct	incongruent	Block2	incongruent/STIM_028.jpg
1723.856	0.727	correct	incongruent	Block2	incongruent/STIM_028.jpg
1727.731	1.145	correct	incongruent	Block2	incongruent/STIM_029.jpg
1732.236	0.939	correct	incongruent	Block2	incongruent/STIM_029.jpg
1736.013	0.849	correct	incongruent	Block2	incongruent/STIM_029.jpg
1738.973	1.238	correct	incongruent	Block2	incongruent/STIM_029.jpg
1743.546	0.786	correct	incongruent	Block2	incongruent/STIM_029.jpg
1747.978	1.015	correct	congruent	Block2	congruent/STIM_000.jpg
1751.856	0.718	correct	congruent	Block2	congruent/STIM_000.jpg
1755.27	0.84	correct	congruent	Block2	congruent/STIM_000.jpg
1759.995	0.606	incorrect	congruent	Block2	congruent/STIM_000.jpg
1762.913	0.604	correct	congruent	Block2	congruent/STIM_000.jpg
1765.869	0.984	correct	congruent	Block2	congruent/STIM_001.jpg
1768.833	0.874	correct	congruent	Block2	congruent/STIM_001.jpg
1772.237	0.798	correct	congruent	Block2	congruent/STIM_001.jpg
1776.578	0.956	correct	congruent	Block2	congruent/STIM_001.jpg
1780.691	1.052	correct	congruent	Block2	congruent/STIM_001.jpg
1785.573	0.6	correct	congruent	Block2	congruent/STIM_002.jpg
1788.631	0.69	correct	congruent	Block2	congruent/STIM_002.jpg
1792.901	0.652	correct	congruent	Block2	congruent/STIM_002.jpg
1796.192	0.654	correct	congruent	Block2	congruent/STIM_002.jpg
1799.785	0.641	correct	congruent	Block2	congruent/STIM_002.jpg
1803.273	0.987	correct	congruent	Block2	congruent/STIM_003.jpg
1807.12	0.744	incorrect	congruent	Block2	congruent/STIM_003.jpg
1811.506	0.844	correct	congruent	Block2	congruent/STIM_003.jpg
1815.011	0.821	correct	congruent	Block2	congruent/STIM_003.jpg
1819.1	0.98	correct	congruent	Block2	congruent/STIM_003.jpg
1822.774	0.615	correct	congruent	Block2	congruent/STIM_004.jpg
1826.453	0.784	correct	congruent	Block2	congruent/STIM_004.jpg
1830.259	1.039	correct	congruent	Block2	congruent/STIM_004.jpg
1833.241	0.961	correct	congruent	Block2	congruent/STIM_004.jpg
1836.183	0.626	correct	congruent	Block2	congruent/STIM_004.jpg
1839.336	0.615	correct	congruent	Block2	congruent/STIM_005.jpg
1842.377	0.8	correct	congruent	Block2	congruent/STIM_005.jpg
1846.152	1.092	correct	congruent	Block2	congruent/STIM_005.jpg
1849.552	1.088	correct	congruent	Block2	congruent/STIM_005.jpg
1854.27	0.782	correct	congruent	Block2	congruent/STIM_005.jpg
1857.937	0.706	correct	congruent	Block2	congruent/STIM_006.jpg
1861.593	0.987	correct	congruent	Block2	congruent/STIM_006.jpg
1865.32	0.679	correct	congruent	Block2	congruent/STIM_006.jpg
1869.288	0.753	correct	congruent	Block2	congruent/STIM_006.jpg
1873.583	0.816	correct	congruent	Block2	congruent/STIM_006.jpg
1877.83	0.822	correct	congruent	Block2	congruent/STIM_007.jpg
1881.307	0.614	correct	congruent	Block2	congruent/STIM_007.jpg
1883.991	0.708	correct	congruent	Block2	congruent/STIM_007.jpg
1886.893	0.926	correct	congruent	Block2	congruent/STIM_007.jpg
1889.885	0.548	correct	congruent	Block2	congruent/STIM_007.jpg
1894.004	1.001	correct	congruent	Block2	congruent/STIM_008.jpg
1897.584	0.668	correct	congruent	Block2	congruent/STIM_008.jpg
1900.435	0.842	correct	congruent	Block2	congruent/STIM_008.jpg
1903.472	0.825	correct	congruent	Block2	congruent/STIM_008.jpg
1908.163	1.008	correct	congruent	Block2	congruent/STIM_008.jpg
1912.489	0.98	correct	congruent	Block2	congruent/STIM_009.jpg
1915.837	0.754	correct	congruent	Block2	congruent/STIM_009.jpg
1919.497	0.599	correct	congruent	Block2	congruent/STIM_009.jpg
1923.207	0.988	incorrect	congruent	Block2	congruent/STIM_009.jpg
1927.378	0.694	correct	congruent	Block2	congruent/STIM_009.jpg
1931.171	0.512	correct	congruent	Block2	congruent/STIM_010.jpg
1934.992	0.73	correct	congruent	Block2	congruent/STIM_010.jpg
1938.89	0.77	correct	congruent	Block2	congruent/STIM_010.jpg
1943.362	0.7	correct	congruent	Block2	congruent/STIM_010.jpg
1946.238	0.785	correct	congruent	Block2	congruent/STIM_010.jpg
1949.242	0.664	correct	congruent	Block2	congruent/STIM_011.jpg
1953.746	0.652	correct	congruent	Block2	congruent/STIM_011.jpg
1956.571	0.581	correct	congruent	Block2	congruent/STIM_011.jpg
1959.6	0.892	correct	congruent	Block2	congruent/STIM_011.jpg
1963.648	0.861	correct	congruent	Block2	congruent/STIM_011.jpg
1966.456	0.646	correct	congruent	Block2	congruent/STIM_012.jpg
1969.361	0.737	correct	congruent	Block2	congruent/STIM_012.jpg
1972.523	0.974	correct	congruent	Block2	congruent/STIM_012.jpg
1975.504	0.873	correct	congruent	Block2	congruent/STIM_012.jpg
1979.034	0.804	incorrect	congruent	Block2	congruent/STIM_012.jpg
1982.707	0.851	correct	congruent	Block2	congruent/STIM_013.jpg
1987.387	0.792	correct	congruent	Block2	congruent/STIM_013.jpg
1991.365	1.046	correct	congruent	Block2	congruent/STIM_013.jpg
1995.515	0.692	correct	congruent	Block2	congruent/STIM_013.jpg
1998.761	0.853	correct	congruent	Block2	congruent/STIM_013.jpg
2001.796	0.648	correct	congruent	Block2	congruent/STIM_014.jpg
2005.658	0.825	correct	congruent	Block2	congruent/STIM_014.jpg
2009.068	1.022	correct	congruent	Block2	congruent/STIM_014.jpg
2012.391	0.771	correct	congruent	Block2	congruent/STIM_014.jpg
2016.78	0.953	correct	congruent	Block2	congruent/STIM_014.jpg
2020.297	0.823	correct	congruent	Block2	congruent/STIM_015.jpg
2022.961	0.818	correct	congruent	Block2	congruent/STIM_015.jpg
2025.875	0.642	correct	congruent	Block2	congruent/STIM_015.jpg
2029.702	0.966	correct	congruent	Block2	congruent/STIM_015.jpg
2033.462	0.612	correct	congruent	Block2	congruent/STIM_015.jpg
2036.377	0.874	correct	congruent	Block2	congruent/STIM_016.jpg
2039.602	0.833	correct	congruent	Block2	congruent/STIM_016.jpg
2043.921	0.846	correct	congruent	Block2	congruent/STIM_016.jpg
2048.21	0.94	correct	congruent	Block2	congruent/STIM_016.jpg
2052.857	0.708	correct	congruent	Block2	congruent/STIM_016.jpg
2056.985	0.627	correct	congruent	Block2	congruent/STIM_017.jpg
2059.991	0.854	correct	congruent	Block2	congruent/STIM_017.jpg
2062.79	0.635	correct	congruent	Block2	congruent/STIM_017.jpg
2067.152	0.597	correct	congruent	Block2	congruent/STIM_017.jpg
2069.863	0.964	correct	congruent	Block2	congruent/STIM_017.jpg
2074.527	0.548	correct	congruent	Block2	congruent/STIM_018.jpg
2077.418	0.593	correct	congruent	Block2	congruent/STIM_018.jpg
2081.052	0.6	correct	congruent	Block2	congruent/STIM_018.jpg
2085.157	0.713	correct	congruent	Block2	congruent/STIM_018.jpg
2088.847	0.855	correct	congruent	Block2	congruent/STIM_018.jpg
2093.038	0.821	correct	congruent	Block2	congruent/STIM_019.jpg
2096.505	0.674	correct	congruent	Block2	congruent/STIM_019.jpg
2099.965	0.61	correct	congruent	Block2	congruent/STIM_019.jpg
2103.695	0.846	incorrect	congruent	Block2	congruent/STIM_019.jpg
2107.133	0.641	correct	congruent	Block2	congruent/STIM_019.jpg
2111.2	0.917	correct	congruent	Block2	congruent/STIM_020.jpg
2115.787	0.615	correct	congruent	Block2	congruent/STIM_020.jpg
2120.149	0.574	correct	congruent	Block2	congruent/STIM_020.jpg
2123.178	0.998	correct	congruent	Block2	congruent/STIM_020.jpg
2127.979	0.727	correct	congruent	Block2	congruent/STIM_020.jpg
2132.607	0.87	correct	congruent	Block2	congruent/STIM_021.jpg
2135.915	0.945	correct	congruent	Block2	congruent/STIM_021.jpg
2139.258	0.755	correct	congruent	Block2	congruent/STIM_021.jpg
2142.997	0.621	correct	congruent	Block2	congruent/STIM_021.jpg
2146.725	0.784	correct	congruent	Block2	congruent/STIM_021.jpg
2151.087	0.898	correct	congruent	Block2	congruent/STIM_022.jpg
2155.121	0.821	correct	congruent	Block2	congruent/STIM_022.jpg
2159.873	0.82	correct	congruent	Block2	congruent/STIM_022.jpg
2163.51	0.693	correct	congruent	Block2	congruent/STIM_022.jpg
2168.119	0.986	correct	congruent	Block2	congruent/STIM_022.jpg
2171.577	0.718	correct	congruent	Block2	congruent/STIM_023.jpg
2175.106	0.672	incorrect	congruent	Block2	congruent/STIM_023.jpg
2177.85	0.745	correct	congruent	Block2	congruent/STIM_023.jpg
2182.092	0.959	correct	congruent	Block2	congruent/STIM_023.jpg
2186.073	0.895	correct	congruent	Block2	congruent/STIM_023.jpg
2189.943	0.77	correct	congruent	Block2	congruent/STIM_024.jpg
2194.316	1.03	correct	congruent	Block2	congruent/STIM_024.jpg
2198.171	0.837	correct	congruent	Block2	congruent/STIM_024.jpg
2200.973	0.579	correct	congruent	Block2	congruent/STIM_024.jpg
2204.775	0.717	correct	congruent	Block2	congruent/STIM_024.jpg
2208.651	0.871	correct	congruent	Block2	congruent/STIM_025.jpg
2212.593	0.841	correct	congruent	Block2	congruent/STIM_025.jpg
2217.205	0.656	correct	congruent	Block2	congruent/STIM_025.jpg
2220.852	0.766	correct	congruent	Block2	congruent/STIM_025.jpg
2225.242	0.977	correct	congruent	Block2	congruent/STIM_025.jpg
2229.899	0.614	correct	congruent	Block2	congruent/STIM_026.jpg
2234.362	0.791	correct	congruent	Block2	congruent/STIM_026.jpg
2238.436	0.628	correct	congruent	Block2	congruent/STIM_026.jpg
2243.025	0.554	correct	congruent	Block2	congruent/STIM_026.jpg
2246.979	0.661	correct	congruent	Block2	congruent/STIM_026.jpg
2250.743	0.722	correct	congruent	Block2	congruent/STIM_027.jpg
2255.133	0.651	correct	congruent	Block2	congruent/STIM_027.jpg
2258.174	0.99	correct	congruent	Block2	congruent/STIM_027.jpg
2262.092	0.647	correct	congruent	Block2	congruent/STIM_027.jpg
2264.982	0.738	correct	congruent	Block2	congruent/STIM_027.jpg
2268.898	0.87	correct	congruent	Block2	congruent/STIM_028.jpg
2272.1	1.013	correct	congruent	Block2	congruent/STIM_028.jpg
2276.861	0.787	correct	congruent	Block2	congruent/STIM_028.jpg
2280.554	0.774	correct	congruent	Block2	congruent/STIM_028.jpg
2284.661	0.691	correct	congruent	Block2	congruent/STIM_028.jpg
2288.053	0.8	correct	congruent	Block2	congruent/STIM_029.jpg
2292.184	0.558	correct	congruent	Block2	congruent/STIM_029.jpg
2296.345	0.743	correct	congruent	Block2	congruent/STIM_029.jpg
2300.422	0.661	correct	congruent	Block2	congruent/STIM_029.jpg
2304.913	0.955	correct	congruent	Block2	congruent/STIM_029.jpg
2309.724	0.882	correct	incongruent	Block3	incongruent/STIM_000.jpg
2313.762	0.804	correct	incongruent	Block3	incongruent/STIM_000.jpg
2317.787	0.994	correct	incongruent	Block3	incongruent/STIM_000.jpg
2321.047	1.135	correct	incongruent	Block3	incongruent/STIM_000.jpg
2325.363	0.945	correct	incongruent	Block3	incongruent/STIM_000.jpg
2329.209	1.014	correct	incongruent	Block3	incongruent/STIM_001.jpg
2334.143	1.14	correct	incongruent	Block3	incongruent/STIM_001.jpg
2338.082	1.073	correct	incongruent	Block3	incongruent/STIM_001.jpg
2341.345	0.652	correct	incongruent	Block3	incongruent/STIM_001.jpg
2345.786	0.575	correct	incongruent	Block3	incongruent/STIM_001.jpg
2348.625	0.806	correct	incongruent	Block3	incongruent/STIM_002.jpg
2353.157	1.069	correct	incongruent	Block3	incongruent/STIM_002.jpg
2357.892	1.126	correct	incongruent	Block3	incongruent/STIM_002.jpg
2362.019	0.962	correct	incongruent	Block3	incongruent/STIM_002.jpg
2365.284	0.692	correct	incongruent	Block3	incongruent/STIM_002.jpg
2368.224	1.041	correct	incongruent	Block3	incongruent/STIM_003.jpg
2372.188	0.814	correct	incongruent	Block3	incongruent/STIM_003.jpg
2376.78	1.096	correct	incongruent	Block3	incongruent/STIM_003.jpg
2381.55	1.11	correct	incongruent	Block3	incongruent/STIM_003.jpg
2385.144	1.114	correct	incongruent	Block3	incongruent/STIM_003.jpg
2388.588	0.874	correct	incongruent	Block3	incongruent/STIM_004.jpg
2393.248	1.234	correct	incongruent	Block3	incongruent/STIM_004.jpg
2397.21	0.932	correct	incongruent	Block3	incongruent/STIM_004.jpg
2400.301	0.728	correct	incongruent	Block3	incongruent/STIM_004.jpg
2403.302	1.076	correct	incongruent	Block3	incongruent/STIM_004.jpg
2407.779	0.866	correct	incongruent	Block3	incongruent/STIM_005.jpg
2410.924	0.585	correct	incongruent	Block3	incongruent/STIM_005.jpg
2414.12	0.592	correct	incongruent	Block3	incongruent/STIM_005.jpg
2416.892	0.851	correct	incongruent	Block3	incongruent/STIM_005.jpg
2419.676	0.684	correct	incongruent	Block3	incongruent/STIM_005.jpg
2423.74	0.922	correct	incongruent	Block3	incongruent/STIM_006.jpg
2427.068	1.119	correct	incongruent	Block3	incongruent/STIM_006.jpg
2431.411	0.774	correct	incongruent	Block3	incongruent/STIM_006.jpg
2435.942	0.623	correct	incongruent	Block3	incongruent/STIM_006.jpg
2439.943	1.172	correct	incongruent	Block3	incongruent/STIM_006.jpg
2444.35	0.851	correct	incongruent	Block3	incongruent/STIM_007.jpg
2448.841	1.176	correct	incongruent	Block3	incongruent/STIM_007.jpg
2453.238	0.852	correct	incongruent	Block3	incongruent/STIM_007.jpg
2457.769	1.01	correct	incongruent	Block3	incongruent/STIM_007.jpg
2460.891	0.712	correct	incongruent	Block3	incongruent/STIM_007.jpg
2465.457	0.972	correct	incongruent	Block3	incongruent/STIM_008.jpg
2469.98	1.233	correct	incongruent	Block3	incongruent/STIM_008.jpg
2473.542	1.032	correct	incongruent	Block3	incongruent/STIM_008.jpg
2477.422	0.577	correct	incongruent	Block3	incongruent/STIM_008.jpg
2480.647	0.918	correct	incongruent	Block3	incongruent/STIM_008.jpg
2484.593	0.769	correct	incongruent	Block3	incongruent/STIM_009.jpg
2487.566	0.872	correct	incongruent	Block3	incongruent/STIM_009.jpg
2491.615	1.139	correct	incongruent	Block3	incongruent/STIM_009.jpg
2496.374	1.113	correct	incongruent	Block3	incongruent/STIM_009.jpg
2501.281	1.091	correct	incongruent	Block3	incongruent/STIM_009.jpg
2505.346	0.961	correct	incongruent	Block3	incongruent/STIM_010.jpg
2509.871	0.683	correct	incongruent	Block3	incongruent/STIM_010.jpg
2512.985	0.953	correct	incongruent	Block3	incongruent/STIM_010.jpg
2516.856	0.619	correct	incongruent	Block3	incongruent/STIM_010.jpg
2520.959	0.792	correct	incongruent	Block3	incongruent/STIM_010.jpg
2524.795	0.708	correct	incongruent	Block3	incongruent/STIM_011.jpg
2528.024	1.042	correct	incongruent	Block3	incongruent/STIM_011.jpg
2532.75	0.668	correct	incongruent	Block3	incongruent/STIM_011.jpg
2536.232	0.668	correct	incongruent	Block3	incongruent/STIM_011.jpg
2540.529	0.649	correct	incongruent	Block3	incongruent/STIM_011.jpg
2544.109	0.965	correct	incongruent	Block3	incongruent/STIM_012.jpg
2548.303	1.052	correct	incongruent	Block3	incongruent/STIM_012.jpg
2552.235	0.743	correct	incongruent	Block3	incongruent/STIM_012.jpg
2556.525	0.764	correct	incongruent	Block3	incongruent/STIM_012.jpg
2559.637	0.76	correct	incongruent	Block3	incongruent/STIM_012.jpg
2562.929	1.099	correct	incongruent	Block3	incongruent/STIM_013.jpg
2567.25	0.811	correct	incongruent	Block3	incongruent/STIM_013.jpg
2570.964	0.694	correct	incongruent	Block3	incongruent/STIM_013.jpg
2575.228	1.204	correct	incongruent	Block3	incongruent/STIM_013.jpg
2579.796	1.023	correct	incongruent	Block3	incongruent/STIM_013.jpg
2583.142	1.067	correct	incongruent	Block3	incongruent/STIM_014.jpg
2586.539	0.88	correct	incongruent	Block3	incongruent/STIM_014.jpg
2590.811	0.927	correct	incongruent	Block3	incongruent/STIM_014.jpg
2594.31	0.739	correct	incongruent	Block3	incongruent/STIM_014.jpg
2598.493	0.935	correct	incongruent	Block3	incongruent/STIM_014.jpg
2602.782	0.748	correct	incongruent	Block3	incongruent/STIM_015.jpg
2606.744	0.591	correct	incongruent	Block3	incongruent/STIM_015.jpg
2610.847	0.786	correct	incongruent	Block3	incongruent/STIM_015.jpg
2613.754	1.054	correct	incongruent	Block3	incongruent/STIM_015.jpg
2617.669	1.192	correct	incongruent	Block3	incongruent/STIM_015.jpg
2622.597	0.69	correct	incongruent	Block3	incongruent/STIM_016.jpg
2626.078	1.215	correct	incongruent	Block3	incongruent/STIM_016.jpg
2630.272	1.132	correct	incongruent	Block3	incongruent/STIM_016.jpg
2634.15	0.9	correct	incongruent	Block3	incongruent/STIM_016.jpg
2638.494	0.766	correct	incongruent	Block3	incongruent/STIM_016.jpg
2642.416	0.845	correct	incongruent	Block3	incongruent/STIM_017.jpg
2645.973	1.142	correct	incongruent	Block3	incongruent/STIM_017.jpg
2649.86	0.847	correct	incongruent	Block3	incongruent/STIM_017.jpg
2652.653	1.062	correct	incongruent	Block3	incongruent/STIM_017.jpg
2655.846	1.127	correct	incongruent	Block3	incongruent/STIM_017.jpg
2660.215	0.989	correct	incongruent	Block3	incongruent/STIM_018.jpg
2663.673	0.67	correct	incongruent	Block3	incongruent/STIM_018.jpg
2667.168	0.902	correct	incongruent	Block3	incongruent/STIM_018.jpg
2670.313	1.013	correct	incongruent	Block3	incongruent/STIM_018.jpg
2675.024	0.888	correct	incongruent	Block3	incongruent/STIM_018.jpg
2679.555	0.793	correct	incongruent	Block3	incongruent/STIM_019.jpg
2682.292	0.897	correct	incongruent	Block3	incongruent/STIM_019.jpg
2686.166	0.604	correct	incongruent	Block3	incongruent/STIM_019.jpg
2690.116	0.649	correct	incongruent	Block3	incongruent/STIM_019.jpg
2693.993	0.954	correct	incongruent	Block3	incongruent/STIM_019.jpg
2698.237	1.206	correct	incongruent	Block3	incongruent/STIM_020.jpg
2702.715	0.782	correct	incongruent	Block3	incongruent/STIM_020.jpg
2705.798	0.998	correct	incongruent	Block3	incongruent/STIM_020.jpg
2708.76	0.673	correct	incongruent	Block3	incongruent/STIM_020.jpg
2711.727	0.96	correct	incongruent	Block3	incongruent/STIM_020.jpg
2715.886	0.818	correct	incongruent	Block3	incongruent/STIM_021.jpg
2719.164	1.06	correct	incongruent	Block3	incongruent/STIM_021.jpg
2722.418	0.718	correct	incongruent	Block3	incongruent/STIM_021.jpg
2727.044	1.156	correct	incongruent	Block3	incongruent/STIM_021.jpg
2730.244	1.068	correct	incongruent	Block3	incongruent/STIM_021.jpg
2734.439	0.72	correct	incongruent	Block3	incongruent/STIM_022.jpg
2738.629	1.206	correct	incongruent	Block3	incongruent/STIM_022.jpg
2743.526	1.12	correct	incongruent	Block3	incongruent/STIM_022.jpg
2747.286	0.552	correct	incongruent	Block3	incongruent/STIM_022.jpg
2751.471	0.898	correct	incongruent	Block3	incongruent/STIM_022.jpg
2755.966	1.098	correct	incongruent	Block3	incongruent/STIM_023.jpg
2759.472	0.896	correct	incongruent	Block3	incongruent/STIM_023.jpg
2763.891	1.029	correct	incongruent	Block3	incongruent/STIM_023.jpg
2768.52	1.041	correct	incongruent	Block3	incongruent/STIM_023.jpg
2772.518	0.732	incorrect	incongruent	Block3	incongruent/STIM_023.jpg
2776.394	0.594	correct	incongruent	Block3	incongruent/STIM_024.jpg
2780.07	0.866	correct	incongruent	Block3	incongruent/STIM_024.jpg
2784.485	0.974	correct	incongruent	Block3	incongruent/STIM_024.jpg
2787.575	1.068	correct	incongruent	Block3	incongruent/STIM_024.jpg
2791.554	1.121	correct	incongruent	Block3	incongruent/STIM_024.jpg
2796.188	0.938	correct	incongruent	Block3	incongruent/STIM_025.jpg
2799.361	0.533	correct	incongruent	Block3	incongruent/STIM_025.jpg
2803.079	0.754	correct	incongruent	Block3	incongruent/STIM_025.jpg
2805.799	0.799	correct	incongruent	Block3	incongruent/STIM_025.jpg
2809.523	1.108	correct	incongruent	Block3	incongruent/STIM_025.jpg
2814.023	1.006	correct	incongruent	Block3	incongruent/STIM_026.jpg
2817.278	0.669	correct	incongruent	Block3	incongruent/STIM_026.jpg
2820.509	0.656	correct	incongruent	Block3	incongruent/STIM_026.jpg
2823.1	0.826	correct	incongruent	Block3	incongruent/STIM_026.jpg
2826.735	0.593	incorrect	incongruent	Block3	incongruent/STIM_026.jpg
2830.747	0.986	correct	incongruent	Block3	incongruent/STIM_027.jpg
2834.026	0.621	correct	incongruent	Block3	incongruent/STIM_027.jpg
2838.075	1.051	correct	incongruent	Block3	incongruent/STIM_027.jpg
2841.349	0.958	correct	incongruent	Block3	incongruent/STIM_027.jpg
2846.041	0.882	correct	incongruent	Block3	incongruent/STIM_027.jpg
2848.944	1.18	correct	incongruent	Block3	incongruent/STIM_028.jpg
2852.677	1.066	correct	incongruent	Block3	incongruent/STIM_028.jpg
2856.191	0.952	correct	incongruent	Block3	incongruent/STIM_028.jpg
2859.283	0.839	correct	incongruent	Block3	incongruent/STIM_028.jpg
2863.261	0.851	correct	incongruent	Block3	incongruent/STIM_028.jpg
2867.23	0.87	correct	incongruent	Block3	incongruent/STIM_029.jpg
2870.398	1.011	correct	incongruent	Block3	incongruent/STIM_029.jpg
2875.289	0.773	correct	incongruent	Block3	incongruent/STIM_029.jpg
2878.603	0.562	correct	incongruent	Block3	incongruent/STIM_029.jpg
2882.419	0.622	correct	incongruent	Block3	incongruent/STIM_029.jpg
2886.143	0.943	correct	congruent	Block3	congruent/STIM_000.jpg
2889.344	0.647	correct	congruent	Block3	congruent/STIM_000.jpg
2892.833	0.579	correct	congruent	Block3	congruent/STIM_000.jpg
2897.004	0.995	correct	congruent	Block3	congruent/STIM_000.jpg
2899.907	0.915	correct	congruent	Block3	congruent/STIM_000.jpg
2902.786	0.846	correct	congruent	Block3	congruent/STIM_001.jpg
2906.707	0.635	correct	congruent	Block3	congruent/STIM_001.jpg
2911.194	0.751	correct	congruent	Block3	congruent/STIM_001.jpg
2914.926	0.751	correct	congruent	Block3	congruent/STIM_001.jpg
2918.056	1.032	correct	congruent	Block3	congruent/STIM_001.jpg
2921.961	0.633	correct	congruent	Block3	congruent/STIM_002.jpg
2925.102	0.934	correct	congruent	Block3	congruent/STIM_002.jpg
2929.476	0.693	correct	congruent	Block3	congruent/STIM_002.jpg
2932.605	0.596	incorrect	congruent	Block3	congruent/STIM_002.jpg
2936.027	0.605	correct	congruent	Block3	congruent/STIM_002.jpg
2939.644	0.661	correct	congruent	Block3	congruent/STIM_003.jpg
2942.505	0.609	correct	congruent	Block3	congruent/STIM_003.jpg
2945.154	0.75	correct	congruent	Block3	congruent/STIM_003.jpg
2949.526	0.992	correct	congruent	Block3	congruent/STIM_003.jpg
2953.38	0.679	correct	congruent	Block3	congruent/STIM_003.jpg
2957.737	0.598	correct	congruent	Block3	congruent/STIM_004.jpg
2960.995	0.722	correct	congruent	Block3	congruent/STIM_004.jpg
2964.697	1.035	correct	congruent	Block3	congruent/STIM_004.jpg
2969.546	0.663	correct	congruent	Block3	congruent/STIM_004.jpg
2972.615	0.792	correct	congruent	Block3	congruent/STIM_004.jpg
2977.25	0.699	correct	congruent	Block3	congruent/STIM_005.jpg
2981.474	1.054	correct	congruent	Block3	congruent/STIM_005.jpg
2985.826	0.809	correct	congruent	Block3	congruent/STIM_005.jpg
2989.199	0.627	correct	congruent	Block3	congruent/STIM_005.jpg
2993.504	0.918	correct	congruent	Block3	congruent/STIM_005.jpg
2996.637	0.727	correct	congruent	Block3	congruent/STIM_006.jpg
3000.395	0.569	correct	congruent	Block3	congruent/STIM_006.jpg
3004.619	1.081	correct	congruent	Block3	congruent/STIM_006.jpg
3008.547	1.064	correct	congruent	Block3	congruent/STIM_006.jpg
3011.961	0.702	correct	congruent	Block3	congruent/STIM_006.jpg
3016.151	0.637	correct	congruent	Block3	congruent/STIM_007.jpg
3019.943	0.623	correct	congruent	Block3	congruent/STIM_007.jpg
3023.1	0.887	correct	congruent	Block3	congruent/STIM_007.jpg
3026.556	0.923	correct	congruent	Block3	congruent/STIM_007.jpg
3030.724	0.906	correct	congruent	Block3	congruent/STIM_007.jpg
3034.755	1.014	correct	congruent	Block3	congruent/STIM_008.jpg
3039.306	0.753	correct	congruent	Block3	congruent/STIM_008.jpg
3042.782	0.948	correct	congruent	Block3	congruent/STIM_008.jpg
3046.072	0.701	correct	congruent	Block3	congruent/STIM_008.jpg
3050.073	0.728	correct	congruent	Block3	congruent/STIM_008.jpg
3052.959	0.918	correct	congruent	Block3	congruent/STIM_009.jpg
3056.636	0.647	correct	congruent	Block3	congruent/STIM_009.jpg
3059.98	0.656	correct	congruent	Block3	congruent/STIM_009.jpg
3063.416	0.56	correct	congruent	Block3	congruent/STIM_009.jpg
3066.225	0.978	correct	congruent	Block3	congruent/STIM_009.jpg
3069.505	0.953	correct	congruent	Block3	congruent/STIM_010.jpg
3073.881	0.664	correct	congruent	Block3	congruent/STIM_010.jpg
3078.268	0.8	correct	congruent	Block3	congruent/STIM_010.jpg
3082.309	0.782	correct	congruent	Block3	congruent/STIM_010.jpg
3086.397	0.757	correct	congruent	Block3	congruent/STIM_010.jpg
3089.159	0.957	correct	congruent	Block3	congruent/STIM_011.jpg
3092.236	0.867	correct	congruent	Block3	congruent/STIM_011.jpg
3095.83	0.9	correct	congruent	Block3	congruent/STIM_011.jpg
3099.79	0.763	correct	congruent	Block3	congruent/STIM_011.jpg
3102.945	0.883	correct	congruent	Block3	congruent/STIM_011.jpg
3106.186	0.817	correct	congruent	Block3	congruent/STIM_012.jpg
3110.271	0.908	correct	congruent	Block3	congruent/STIM_012.jpg
3114.381	0.983	correct	congruent	Block3	congruent/STIM_012.jpg
3118.004	0.713	correct	congruent	Block3	congruent/STIM_012.jpg
3122.238	0.928	correct	congruent	Block3	congruent/STIM_012.jpg
3126.835	0.733	correct	congruent	Block3	congruent/STIM_013.jpg
3131.375	0.877	correct	congruent	Block3	congruent/STIM_013.jpg
3136.075	0.895	correct	congruent	Block3	congruent/STIM_013.jpg
3140.754	1.019	correct	congruent	Block3	congruent/STIM_013.jpg
3145.335	0.94	correct	congruent	Block3	congruent/STIM_013.jpg
3148.229	0.544	correct	congruent	Block3	congruent/STIM_014.jpg
3151.444	0.898	correct	congruent	Block3	congruent/STIM_014.jpg
3155.426	0.827	correct	congruent	Block3	congruent/STIM_014.jpg
3159.597	0.897	correct	congruent	Block3	congruent/STIM_014.jpg
3162.928	0.607	correct	congruent	Block3	congruent/STIM_014.jpg
3166.054	0.592	correct	congruent	Block3	congruent/STIM_015.jpg
3169.993	0.788	correct	congruent	Block3	congruent/STIM_015.jpg
3174.584	1.078	correct	congruent	Block3	congruent/STIM_015.jpg
3178.515	0.672	incorrect	congruent	Block3	congruent/STIM_015.jpg
3182.464	0.99	correct	congruent	Block3	congruent/STIM_015.jpg
3187.255	0.855	correct	congruent	Block3	congruent/STIM_016.jpg
3191.03	0.573	correct	congruent	Block3	congruent/STIM_016.jpg
3193.63	0.942	correct	congruent	Block3	congruent/STIM_016.jpg
3197.945	0.702	correct	congruent	Block3	congruent/STIM_016.jpg
3202.074	0.872	correct	congruent	Block3	congruent/STIM_016.jpg
3206.723	0.72	correct	congruent	Block3	congruent/STIM_017.jpg
3209.891	0.634	correct	congruent	Block3	congruent/STIM_017.jpg
3212.431	0.706	correct	congruent	Block3	congruent/STIM_017.jpg
3216.073	0.652	correct	congruent	Block3	congruent/STIM_017.jpg
3219.383	0.73	correct	congruent	Block3	congruent/STIM_017.jpg
3222.799	0.529	correct	congruent	Block3	congruent/STIM_018.jpg
3225.734	0.652	correct	congruent	Block3	congruent/STIM_018.jpg
3229.578	0.804	correct	congruent	Block3	congruent/STIM_018.jpg
3233.113	0.718	correct	congruent	Block3	congruent/STIM_018.jpg
3236.273	0.56	correct	congruent	Block3	congruent/STIM_018.jpg
3240.279	0.714	correct	congruent	Block3	congruent/STIM_019.jpg
3243.885	0.614	correct	congruent	Block3	congruent/STIM_019.jpg
3247.156	0.756	incorrect	congruent	Block3	congruent/STIM_019.jpg
3251.243	0.782	correct	congruent	Block3	congruent/STIM_019.jpg
3255.465	0.852	correct	congruent	Block3	congruent/STIM_019.jpg
3259.406	0.879	correct	congruent	Block3	congruent/STIM_020.jpg
3262.458	0.617	correct	congruent	Block3	congruent/STIM_020.jpg
3265.482	0.936	correct	congruent	Block3	congruent/STIM_020.jpg
3269.941	0.706	correct	congruent	Block3	congruent/STIM_020.jpg
3274.145	0.572	correct	congruent	Block3	congruent/STIM_020.jpg
3278.333	1.1	correct	congruent	Block3	congruent/STIM_021.jpg
3281.91	0.748	correct	congruent	Block3	congruent/STIM_021.jpg
3285.359	0.893	correct	congruent	Block3	congruent/STIM_021.jpg
3289.644	0.787	incorrect	congruent	Block3	congruent/STIM_021.jpg
3293.341	0.676	correct	congruent	Block3	congruent/STIM_021.jpg
3297.014	0.723	correct	congruent	Block3	congruent/STIM_022.jpg
3301.109	0.622	incorrect	congruent	Block3	congruent/STIM_022.jpg
3303.891	0.798	incorrect	congruent	Block3	congruent/STIM_022.jpg
3308.417	0.962	correct	congruent	Block3	congruent/STIM_022.jpg
3312.786	0.673	correct	congruent	Block3	congruent/STIM_022.jpg
3315.912	0.795	correct	congruent	Block3	congruent/STIM_023.jpg
3318.971	0.723	correct	congruent	Block3	congruent/STIM_023.jpg
3322.871	0.644	correct	congruent	Block3	congruent/STIM_023.jpg
3326.42	0.683	correct	congruent	Block3	congruent/STIM_023.jpg
3329.31	0.883	correct	congruent	Block3	congruent/STIM_023.jpg
3333.144	0.805	correct	congruent	Block3	congruent/STIM_024.jpg
3336.312	0.727	correct	congruent	Block3	congruent/STIM_024.jpg
3340.495	0.698	correct	congruent	Block3	congruent/STIM_024.jpg
3343.839	1.007	correct	congruent	Block3	congruent/STIM_024.jpg
3347.17	0.731	correct	congruent	Block3	congruent/STIM_024.jpg
3350.662	0.713	correct	congruent	Block3	congruent/STIM_025.jpg
3354.856	0.542	incorrect	congruent	Block3	congruent/STIM_025.jpg
3357.405	0.826	correct	congruent	Block3	congruent/STIM_025.jpg
3361.122	0.957	correct	congruent	Block3	congruent/STIM_025.jpg
3364.365	0.692	correct	congruent	Block3	congruent/STIM_025.jpg
3367.285	0.912	correct	congruent	Block3	congruent/STIM_026.jpg
3370.843	0.821	correct	congruent	Block3	congruent/STIM_026.jpg
3373.97	1.02	correct	congruent	Block3	congruent/STIM_026.jpg
3377.282	0.697	correct	congruent	Block3	congruent/STIM_026.jpg
3380.315	0.697	correct	congruent	Block3	congruent/STIM_026.jpg
3384.074	0.964	correct	congruent	Block3	congruent/STIM_027.jpg
3387.647	0.656	correct	congruent	Block3	congruent/STIM_027.jpg
3390.848	0.735	correct	congruent	Block3	congruent/STIM_027.jpg
3393.64	0.665	correct	congruent	Block3	congruent/STIM_027.jpg
3396.558	0.955	correct	congruent	Block3	congruent/STIM_027.jpg
3399.754	0.845	correct	congruent	Block3	congruent/STIM_028.jpg
3403.223	0.881	correct	congruent	Block3	congruent/STIM_028.jpg
3407.605	0.689	correct	congruent	Block3	congruent/STIM_028.jpg
3411.313	0.966	correct	congruent	Block3	congruent/STIM_028.jpg
3414.167	0.861	correct	congruent	Block3	congruent/STIM_028.jpg
3417.991	0.766	correct	congruent	Block3	congruent/STIM_029.jpg
3422.566	0.837	correct	congruent	Block3	congruent/STIM_029.jpg
3425.525	0.777	correct	congruent	Block3	congruent/STIM_029.jpg
3428.51	0.762	correct	congruent	Block3	congruent/STIM_029.jpg
3431.241	0.776	correct	congruent	Block3	congruent/STIM_029.jpg
