onset	duration	accuracy_binary	trial_type	learning_stage	stimulus
0.0	0.898	1	incongruent	Block1	incongruent/STIM_000.jpg
4.391	0.912	1	incongruent	Block1	incongruent/STIM_000.jpg
7.862	1.201	1	incongruent	Block1	incongruent/STIM_000.jpg
12.303	0.598	1	incongruent	Block1	incongruent/STIM_000.jpg
16.78	0.71	1	incongruent	Block1	incongruent/STIM_000.jpg
19.515	0.646	1	incongruent	Block1	incongruent/STIM_001.jpg
22.867	0.651	1	incongruent	Block1	incongruent/STIM_001.jpg
26.031	0.908	1	incongruent	Block1	incongruent/STIM_001.jpg
29.471	0.675	1	incongruent	Block1	incongruent/STIM_001.jpg
32.858	0.76	1	incongruent	Block1	incongruent/STIM_001.jpg
36.213	1.13	1	incongruent	Block1	incongruent/STIM_002.jpg
41.128	0.855	1	incongruent	Block1	incongruent/STIM_002.jpg
45.236	0.634	1	incongruent	Block1	incongruent/STIM_002.jpg
49.867	1.07	1	incongruent	Block1	incongruent/STIM_002.jpg
53.952	1.043	1	incongruent	Block1	incongruent/STIM_002.jpg
57.817	0.767	1	incongruent	Block1	incongruent/STIM_003.jpg
60.676	0.629	1	incongruent	Block1	incongruent/STIM_003.jpg
65.231	0.585	1	incongruent	Block1	incongruent/STIM_003.jpg
68.067	0.583	1	incongruent	Block1	incongruent/STIM_003.jpg
71.317	0.542	1	incongruent	Block1	incongruent/STIM_003.jpg
75.007	1.319	1	incongruent	Block1	incongruent/STIM_004.jpg
78.785	1.008	1	incongruent	Block1	incongruent/STIM_004.jpg
82.061	0.951	1	incongruent	Block1	incongruent/STIM_004.jpg
85.931	0.62	1	incongruent	Block1	incongruent/STIM_004.jpg
90.355	0.603	1	incongruent	Block1	incongruent/STIM_004.jpg
94.911	1.056	1	incongruent	Block1	incongruent/STIM_005.jpg
99.001	0.88	1	incongruent	Block1	incongruent/STIM_005.jpg
102.559	1.211	1	incongruent	Block1	incongruent/STIM_005.jpg
107.145	0.669	1	incongruent	Block1	incongruent/STIM_005.jpg
111.43	0.905	1	incongruent	Block1	incongruent/STIM_005.jpg
114.992	1.326	1	incongruent	Block1	incongruent/STIM_006.jpg
119.334	0.969	1	incongruent	Block1	incongruent/STIM_006.jpg
124.154	0.744	1	incongruent	Block1	incongruent/STIM_006.jpg
128.679	0.613	1	incongruent	Block1	incongruent/STIM_006.jpg
131.853	0.722	1	incongruent	Block1	incongruent/STIM_006.jpg
135.805	0.774	1	incongruent	Block1	incongruent/STIM_007.jpg
139.133	0.837	1	incongruent	Block1	incongruent/STIM_007.jpg
142.71	0.721	1	incongruent	Block1	incongruent/STIM_007.jpg
147.182	0.971	1	incongruent	Block1	incongruent/STIM_007.jpg
151.195	0.635	1	incongruent	Block1	incongruent/STIM_007.jpg
155.24	1.169	1	incongruent	Block1	incongruent/STIM_008.jpg
158.641	1.277	1	incongruent	Block1	incongruent/STIM_008.jpg
163.226	0.817	1	incongruent	Block1	incongruent/STIM_008.jpg
166.159	0.609	1	incongruent	Block1	incongruent/STIM_008.jpg
168.894	0.938	1	incongruent	Block1	incongruent/STIM_008.jpg
173.748	1.33	1	incongruent	Block1	incongruent/STIM_009.jpg
178.954	1.279	1	incongruent	Block1	incongruent/STIM_009.jpg
183.273	0.791	1	incongruent	Block1	incongruent/STIM_009.jpg
187.213	0.83	1	incongruent	Block1	incongruent/STIM_009.jpg
190.472	0.791	1	incongruent	Block1	incongruent/STIM_009.jpg
193.316	1.18	1	incongruent	Block1	incongruent/STIM_010.jpg
197.947	0.757	1	incongruent	Block1	incongruent/STIM_010.jpg
200.808	1.178	1	incongruent	Block1	incongruent/STIM_010.jpg
204.701	0.962	1	incongruent	Block1	incongruent/STIM_010.jpg
209.032	0.553	1	incongruent	Block1	incongruent/STIM_010.jpg
211.959	0.872	1	incongruent	Block1	incongruent/STIM_011.jpg
215.137	0.706	1	incongruent	Block1	incongruent/STIM_011.jpg
219.315	0.62	1	incongruent	Block1	incongruent/STIM_011.jpg
222.778	0.545	1	incongruent	Block1	incongruent/STIM_011.jpg
226.542	0.697	1	incongruent	Block1	incongruent/STIM_011.jpg
229.635	1.124	1	incongruent	Block1	incongruent/STIM_012.jpg
233.922	0.88	1	incongruent	Block1	incongruent/STIM_012.jpg
238.719	1.045	1	incongruent	Block1	incongruent/STIM_012.jpg
242.986	0.731	1	incongruent	Block1	incongruent/STIM_012.jpg
246.306	0.881	1	incongruent	Block1	incongruent/STIM_012.jpg
249.366	0.748	1	incongruent	Block1	incongruent/STIM_013.jpg
253.348	1.099	1	incongruent	Block1	incongruent/STIM_013.jpg
256.827	0.886	1	incongruent	Block1	incongruent/STIM_013.jpg
261.055	0.89	1	incongruent	Block1	incongruent/STIM_013.jpg
265.749	0.863	1	incongruent	Block1	incongruent/STIM_013.jpg
269.299	1.157	1	incongruent	Block1	incongruent/STIM_014.jpg
272.982	1.281	1	incongruent	Block1	incongruent/STIM_014.jpg
278.231	0.966	1	incongruent	Block1	incongruent/STIM_014.jpg
283.015	0.936	1	incongruent	Block1	incongruent/STIM_014.jpg
286.254	0.666	1	incongruent	Block1	incongruent/STIM_014.jpg
289.757	1.275	1	incongruent	Block1	incongruent/STIM_015.jpg
294.07	0.722	1	incongruent	Block1	incongruent/STIM_015.jpg
297.332	0.873	1	incongruent	Block1	incongruent/STIM_015.jpg
300.769	0.977	1	incongruent	Block1	incongruent/STIM_015.jpg
305.503	0.662	1	incongruent	Block1	incongruent/STIM_015.jpg
309.059	1.042	1	incongruent	Block1	incongruent/STIM_016.jpg
313.965	0.997	1	incongruent	Block1	incongruent/STIM_016.jpg
318.446	0.704	1	incongruent	Block1	incongruent/STIM_016.jpg
322.187	0.584	1	incongruent	Block1	incongruent/STIM_016.jpg
325.755	0.817	1	incongruent	Block1	incongruent/STIM_016.jpg
328.826	1.124	1	incongruent	Block1	incongruent/STIM_017.jpg
333.739	0.721	1	incongruent	Block1	incongruent/STIM_017.jpg
337.59	0.641	1	incongruent	Block1	incongruent/STIM_017.jpg
340.719	0.577	1	incongruent	Block1	incongruent/STIM_017.jpg
345.226	0.898	1	incongruent	Block1	incongruent/STIM_017.jpg
348.354	1.03	1	incongruent	Block1	incongruent/STIM_018.jpg
352.593	0.674	1	incongruent	Block1	incongruent/STIM_018.jpg
356.114	0.812	1	incongruent	Block1	incongruent/STIM_018.jpg
360.263	1.005	1	incongruent	Block1	incongruent/STIM_018.jpg
364.293	0.691	1	incongruent	Block1	incongruent/STIM_018.jpg
367.983	1.231	1	incongruent	Block1	incongruent/STIM_019.jpg
371.437	0.998	1	incongruent	Block1	incongruent/STIM_019.jpg
376.334	0.853	1	incongruent	Block1	incongruent/STIM_019.jpg
379.665	0.81	1	incongruent	Block1	incongruent/STIM_019.jpg
383.282	0.653	1	incongruent	Block1	incongruent/STIM_019.jpg
386.225	0.86	1	incongruent	Block1	incongruent/STIM_020.jpg
390.289	0.781	1	incongruent	Block1	incongruent/STIM_020.jpg
394.765	1.219	1	incongruent	Block1	incongruent/STIM_020.jpg
399.402	0.744	1	incongruent	Block1	incongruent/STIM_020.jpg
402.961	0.56	1	incongruent	Block1	incongruent/STIM_020.jpg
407.244	1.249	1	incongruent	Block1	incongruent/STIM_021.jpg
411.091	1.117	1	incongruent	Block1	incongruent/STIM_021.jpg
415.283	0.855	1	incongruent	Block1	incongruent/STIM_021.jpg
419.96	0.772	1	incongruent	Block1	incongruent/STIM_021.jpg
424.495	0.845	1	incongruent	Block1	incongruent/STIM_021.jpg
429.284	1.355	1	incongruent	Block1	incongruent/STIM_022.jpg
433.509	0.661	1	incongruent	Block1	incongruent/STIM_022.jpg
438.115	0.781	1	incongruent	Block1	incongruent/STIM_022.jpg
440.943	1.058	1	incongruent	Block1	incongruent/STIM_022.jpg
444.082	0.778	1	incongruent	Block1	incongruent/STIM_022.jpg
447.407	1.042	1	incongruent	Block1	incongruent/STIM_023.jpg
451.879	0.753	1	incongruent	Block1	incongruent/STIM_023.jpg
456.056	0.689	1	incongruent	Block1	incongruent/STIM_023.jpg
459.174	1.048	1	incongruent	Block1	incongruent/STIM_023.jpg
463.917	0.801	1	incongruent	Block1	incongruent/STIM_023.jpg
466.791	0.849	1	incongruent	Block1	incongruent/STIM_024.jpg
469.911	0.972	1	incongruent	Block1	incongruent/STIM_024.jpg
473.623	1.089	1	incongruent	Block1	incongruent/STIM_024.jpg
477.515	0.554	1	incongruent	Block1	incongruent/STIM_024.jpg
480.501	0.74	1	incongruent	Block1	incongruent/STIM_024.jpg
484.296	1.315	1	incongruent	Block1	incongruent/STIM_025.jpg
487.873	1.023	1	incongruent	Block1	incongruent/STIM_025.jpg
491.589	0.584	1	incongruent	Block1	incongruent/STIM_025.jpg
495.81	1.065	1	incongruent	Block1	incongruent/STIM_025.jpg
499.967	0.689	1	incongruent	Block1	incongruent/STIM_025.jpg
504.384	0.757	1	incongruent	Block1	incongruent/STIM_026.jpg
507.173	0.996	1	incongruent	Block1	incongruent/STIM_026.jpg
510.638	1.137	1	incongruent	Block1	incongruent/STIM_026.jpg
514.426	1.131	1	incongruent	Block1	incongruent/STIM_026.jpg
518.506	0.811	1	incongruent	Block1	incongruent/STIM_026.jpg
523.173	1.254	1	incongruent	Block1	incongruent/STIM_027.jpg
528.129	1.041	1	incongruent	Block1	incongruent/STIM_027.jpg
533.17	0.687	1	incongruent	Block1	incongruent/STIM_027.jpg
536.146	0.791	1	incongruent	Block1	incongruent/STIM_027.jpg
539.174	0.99	1	incongruent	Block1	incongruent/STIM_027.jpg
544.118	0.645	1	incongruent	Block1	incongruent/STIM_028.jpg
547.317	0.956	1	incongruent	Block1	incongruent/STIM_028.jpg
551.559	1.089	1	incongruent	Block1	incongruent/STIM_028.jpg
555.611	0.814	1	incongruent	Block1	incongruent/STIM_028.jpg
560.047	0.689	1	incongruent	Block1	incongruent/STIM_028.jpg
563.76	0.903	1	incongruent	Block1	incongruent/STIM_029.jpg
568.03	1.268	1	incongruent	Block1	incongruent/STIM_029.jpg
571.958	0.622	1	incongruent	Block1	incongruent/STIM_029.jpg
575.225	1.077	1	incongruent	Block1	incongruent/STIM_029.jpg
579.919	0.64	1	incongruent	Block1	incongruent/STIM_029.jpg
583.945	0.49	1	congruent	Block1	congruent/STIM_000.jpg
586.532	0.721	1	congruent	Block1	congruent/STIM_000.jpg
589.509	0.595	1	congruent	Block1	congruent/STIM_000.jpg
592.318	0.536	1	congruent	Block1	congruent/STIM_000.jpg
594.936	0.597	1	congruent	Block1	congruent/STIM_000.jpg
598.074	0.672	1	congruent	Block1	congruent/STIM_001.jpg
600.771	0.705	1	congruent	Block1	congruent/STIM_001.jpg
604.456	0.719	1	congruent	Block1	congruent/STIM_001.jpg
608.567	0.674	1	congruent	Block1	congruent/STIM_001.jpg
611.56	0.815	1	congruent	Block1	congruent/STIM_001.jpg
615.492	0.686	1	congruent	Block1	congruent/STIM_002.jpg
619.328	0.496	1	congruent	Block1	congruent/STIM_002.jpg
623.313	0.46	1	congruent	Block1	congruent/STIM_002.jpg
626.897	0.784	1	congruent	Block1	congruent/STIM_002.jpg
629.708	0.59	1	congruent	Block1	congruent/STIM_002.jpg
632.7	0.506	1	congruent	Block1	congruent/STIM_003.jpg
635.389	0.607	1	congruent	Block1	congruent/STIM_003.jpg
639.491	0.591	1	congruent	Block1	congruent/STIM_003.jpg
643.299	0.691	1	congruent	Block1	congruent/STIM_003.jpg
646.218	0.632	1	congruent	Block1	congruent/STIM_003.jpg
649.045	0.587	1	congruent	Block1	congruent/STIM_004.jpg
653.431	0.676	1	congruent	Block1	congruent/STIM_004.jpg
657.837	0.757	1	congruent	Block1	congruent/STIM_004.jpg
662.028	0.471	1	congruent	Block1	congruent/STIM_004.jpg
665.693	0.532	1	congruent	Block1	congruent/STIM_004.jpg
669.905	0.603	1	congruent	Block1	congruent/STIM_005.jpg
673.7	0.759	1	congruent	Block1	congruent/STIM_005.jpg
677.035	0.624	1	congruent	Block1	congruent/STIM_005.jpg
680.321	0.551	1	congruent	Block1	congruent/STIM_005.jpg
684.61	0.504	1	congruent	Block1	congruent/STIM_005.jpg
688.703	0.661	1	congruent	Block1	congruent/STIM_006.jpg
691.978	0.656	1	congruent	Block1	congruent/STIM_006.jpg
695.85	0.769	1	congruent	Block1	congruent/STIM_006.jpg
699.478	0.57	1	congruent	Block1	congruent/STIM_006.jpg
702.397	0.744	1	congruent	Block1	congruent/STIM_006.jpg
706.302	0.795	1	congruent	Block1	congruent/STIM_007.jpg
709.124	0.637	1	congruent	Block1	congruent/STIM_007.jpg
713.26	0.612	1	congruent	Block1	congruent/STIM_007.jpg
717.197	0.472	1	congruent	Block1	congruent/STIM_007.jpg
721.048	0.668	0	congruent	Block1	congruent/STIM_007.jpg
724.155	0.795	1	congruent	Block1	congruent/STIM_008.jpg
727.296	0.649	1	congruent	Block1	congruent/STIM_008.jpg
731.455	0.583	1	congruent	Block1	congruent/STIM_008.jpg
735.584	0.76	1	congruent	Block1	congruent/STIM_008.jpg
739.367	0.584	1	congruent	Block1	congruent/STIM_008.jpg
742.489	0.458	1	congruent	Block1	congruent/STIM_009.jpg
745.868	0.619	1	congruent	Block1	congruent/STIM_009.jpg
749.444	0.48	1	congruent	Block1	congruent/STIM_009.jpg
753.042	0.767	1	congruent	Block1	congruent/STIM_009.jpg
757.347	0.642	1	congruent	Block1	congruent/STIM_009.jpg
760.265	0.51	1	congruent	Block1	congruent/STIM_010.jpg
764.115	0.556	1	congruent	Block1	congruent/STIM_010.jpg
767.112	0.519	1	congruent	Block1	congruent/STIM_010.jpg
769.789	0.522	1	congruent	Block1	congruent/STIM_010.jpg
772.761	0.789	1	congruent	Block1	congruent/STIM_010.jpg
775.559	0.6	1	congruent	Block1	congruent/STIM_011.jpg
779.48	0.594	1	congruent	Block1	congruent/STIM_011.jpg
783.104	0.624	1	congruent	Block1	congruent/STIM_011.jpg
785.948	0.619	1	congruent	Block1	congruent/STIM_011.jpg
788.671	0.591	1	congruent	Block1	congruent/STIM_011.jpg
791.375	0.771	1	congruent	Block1	congruent/STIM_012.jpg
795.898	0.724	1	congruent	Block1	congruent/STIM_012.jpg
798.664	0.687	1	congruent	Block1	congruent/STIM_012.jpg
801.746	0.517	1	congruent	Block1	congruent/STIM_012.jpg
805.524	0.741	1	congruent	Block1	congruent/STIM_012.jpg
808.987	0.625	0	congruent	Block1	congruent/STIM_013.jpg
811.891	0.599	1	congruent	Block1	congruent/STIM_013.jpg
815.918	0.477	1	congruent	Block1	congruent/STIM_013.jpg
819.392	0.489	1	congruent	Block1	congruent/STIM_013.jpg
823.091	0.461	1	congruent	Block1	congruent/STIM_013.jpg
826.605	0.541	1	congruent	Block1	congruent/STIM_014.jpg
829.437	0.558	1	congruent	Block1	congruent/STIM_014.jpg
833.464	0.53	1	congruent	Block1	congruent/STIM_014.jpg
836.719	0.455	1	congruent	Block1	congruent/STIM_014.jpg
839.797	0.458	1	congruent	Block1	congruent/STIM_014.jpg
843.042	0.693	1	congruent	Block1	congruent/STIM_015.jpg
845.945	0.495	1	congruent	Block1	congruent/STIM_015.jpg
849.538	0.733	1	congruent	Block1	congruent/STIM_015.jpg
852.822	0.614	1	congruent	Block1	congruent/STIM_015.jpg
856.668	0.497	1	congruent	Block1	congruent/STIM_015.jpg
860.949	0.521	1	congruent	Block1	congruent/STIM_016.jpg
863.665	0.744	1	congruent	Block1	congruent/STIM_016.jpg
866.866	0.521	1	congruent	Block1	congruent/STIM_016.jpg
869.87	0.78	1	congruent	Block1	congruent/STIM_016.jpg
872.948	0.606	1	congruent	Block1	congruent/STIM_016.jpg
876.054	0.549	1	congruent	Block1	congruent/STIM_017.jpg
879.495	0.625	1	congruent	Block1	congruent/STIM_017.jpg
882.637	0.536	1	congruent	Block1	congruent/STIM_017.jpg
886.788	0.652	1	congruent	Block1	congruent/STIM_017.jpg
889.603	0.457	1	congruent	Block1	congruent/STIM_017.jpg
892.52	0.728	1	congruent	Block1	congruent/STIM_018.jpg
896.218	0.715	1	congruent	Block1	congruent/STIM_018.jpg
899.5	0.686	1	congruent	Block1	congruent/STIM_018.jpg
903.705	0.621	1	congruent	Block1	congruent/STIM_018.jpg
907.539	0.502	1	congruent	Block1	congruent/STIM_018.jpg
911.644	0.633	1	congruent	Block1	congruent/STIM_019.jpg
914.934	0.552	1	congruent	Block1	congruent/STIM_019.jpg
917.663	0.704	0	congruent	Block1	congruent/STIM_019.jpg
920.959	0.706	1	congruent	Block1	congruent/STIM_019.jpg
925.27	0.771	1	congruent	Block1	congruent/STIM_019.jpg
929.297	0.627	1	congruent	Block1	congruent/STIM_020.jpg
932.115	0.514	1	congruent	Block1	congruent/STIM_020.jpg
935.647	0.813	1	congruent	Block1	congruent/STIM_020.jpg
940.042	0.74	1	congruent	Block1	congruent/STIM_020.jpg
942.999	0.734	1	congruent	Block1	congruent/STIM_020.jpg
946.788	0.738	1	congruent	Block1	congruent/STIM_021.jpg
950.049	0.547	1	congruent	Block1	congruent/STIM_021.jpg
954.013	0.497	1	congruent	Block1	congruent/STIM_021.jpg
957.899	0.68	1	congruent	Block1	congruent/STIM_021.jpg
961.833	0.772	1	congruent	Block1	congruent/STIM_021.jpg
964.999	0.594	1	congruent	Block1	congruent/STIM_022.jpg
968.11	0.58	1	congruent	Block1	congruent/STIM_022.jpg
971.477	0.66	1	congruent	Block1	congruent/STIM_022.jpg
975.064	0.526	1	congruent	Block1	congruent/STIM_022.jpg
978.041	0.694	1	congruent	Block1	congruent/STIM_022.jpg
981.647	0.464	1	congruent	Block1	congruent/STIM_023.jpg
984.115	0.797	0	congruent	Block1	congruent/STIM_023.jpg
987.874	0.697	1	congruent	Block1	congruent/STIM_023.jpg
992.283	0.668	1	congruent	Block1	congruent/STIM_023.jpg
996.424	0.659	1	congruent	Block1	congruent/STIM_023.jpg
1000.252	0.755	1	congruent	Block1	congruent/STIM_024.jpg
1004.637	0.57	1	congruent	Block1	congruent/STIM_024.jpg
1007.944	0.66	1	congruent	Block1	congruent/STIM_024.jpg
1011.697	0.462	1	congruent	Block1	congruent/STIM_024.jpg
1014.188	0.572	1	congruent	Block1	congruent/STIM_024.jpg
1017.391	0.741	1	congruent	Block1	congruent/STIM_025.jpg
1020.329	0.482	1	congruent	Block1	congruent/STIM_025.jpg
1024.804	0.468	1	congruent	Block1	congruent/STIM_025.jpg
1027.673	0.621	1	congruent	Block1	congruent/STIM_025.jpg
1031.889	0.808	1	congruent	Block1	congruent/STIM_025.jpg
1036.587	0.642	1	congruent	Block1	congruent/STIM_026.jpg
1039.562	0.749	1	congruent	Block1	congruent/STIM_026.jpg
1043.804	0.71	1	congruent	Block1	congruent/STIM_026.jpg
1047.814	0.513	1	congruent	Block1	congruent/STIM_026.jpg
1051.502	0.654	1	congruent	Block1	congruent/STIM_026.jpg
1054.747	0.791	1	congruent	Block1	congruent/STIM_027.jpg
1058.668	0.766	1	congruent	Block1	congruent/STIM_027.jpg
1062.999	0.585	1	congruent	Block1	congruent/STIM_027.jpg
1066.089	0.674	1	congruent	Block1	congruent/STIM_027.jpg
1069.92	0.506	1	congruent	Block1	congruent/STIM_027.jpg
1073.83	0.534	1	congruent	Block1	congruent/STIM_028.jpg
1078.346	0.709	1	congruent	Block1	congruent/STIM_028.jpg
1081.172	0.778	1	congruent	Block1	congruent/STIM_028.jpg
1085.884	0.463	1	congruent	Block1	congruent/STIM_028.jpg
1089.472	0.602	1	congruent	Block1	congruent/STIM_028.jpg
1092.557	0.602	1	congruent	Block1	congruent/STIM_029.jpg
1096.182	0.554	1	congruent	Block1	congruent/STIM_029.jpg
1099.999	0.546	1	congruent	Block1	congruent/STIM_029.jpg
1102.834	0.66	1	congruent	Block1	congruent/STIM_029.jpg
1106.259	0.493	1	congruent	Block1	congruent/STIM_029.jpg
1109.779	0.588	1	incongruent	Block2	incongruent/STIM_000.jpg
1113.274	0.737	1	incongruent	Block2	incongruent/STIM_000.jpg
1116.968	0.992	1	incongruent	Block2	incongruent/STIM_000.jpg
1120.468	0.871	1	incongruent	Block2	incongruent/STIM_000.jpg
1125.068	0.558	1	incongruent	Block2	incongruent/STIM_000.jpg
1127.802	0.871	1	incongruent	Block2	incongruent/STIM_001.jpg
1131.987	1.025	1	incongruent	Block2	incongruent/STIM_001.jpg
1135.389	0.774	1	incongruent	Block2	incongruent/STIM_001.jpg
1138.407	0.72	1	incongruent	Block2	incongruent/STIM_001.jpg
1142.772	0.581	1	incongruent	Block2	incongruent/STIM_001.jpg
1146.784	0.981	1	incongruent	Block2	incongruent/STIM_002.jpg
1151.177	0.589	1	incongruent	Block2	incongruent/STIM_002.jpg
1153.907	0.894	1	incongruent	Block2	incongruent/STIM_002.jpg
1157.611	0.889	1	incongruent	Block2	incongruent/STIM_002.jpg
1160.963	0.844	1	incongruent	Block2	incongruent/STIM_002.jpg
1164.119	0.71	1	incongruent	Block2	incongruent/STIM_003.jpg
1167.505	0.874	1	incongruent	Block2	incongruent/STIM_003.jpg
1171.398	0.524	1	incongruent	Block2	incongruent/STIM_003.jpg
1175.29	0.471	1	incongruent	Block2	incongruent/STIM_003.jpg
1178.282	0.659	1	incongruent	Block2	incongruent/STIM_003.jpg
1181.968	1.044	1	incongruent	Block2	incongruent/STIM_004.jpg
1185.867	0.806	1	incongruent	Block2	incongruent/STIM_004.jpg
1188.82	0.821	1	incongruent	Block2	incongruent/STIM_004.jpg
1193.582	0.507	1	incongruent	Block2	incongruent/STIM_004.jpg
1196.807	0.783	1	incongruent	Block2	incongruent/STIM_004.jpg
1201.029	0.77	0	incongruent	Block2	incongruent/STIM_005.jpg
1204.808	0.986	1	incongruent	Block2	incongruent/STIM_005.jpg
1209.173	0.554	1	incongruent	Block2	incongruent/STIM_005.jpg
1213.006	0.452	1	incongruent	Block2	incongruent/STIM_005.jpg
1216.67	0.597	1	incongruent	Block2	incongruent/STIM_005.jpg
1220.82	0.774	1	incongruent	Block2	incongruent/STIM_006.jpg
1225.01	0.728	1	incongruent	Block2	incongruent/STIM_006.jpg
1228.401	0.508	1	incongruent	Block2	incongruent/STIM_006.jpg
1231.723	0.624	1	incongruent	Block2	incongruent/STIM_006.jpg
1235.672	0.65	1	incongruent	Block2	incongruent/STIM_006.jpg
1239.575	1.066	1	incongruent	Block2	incongruent/STIM_007.jpg
1243.135	0.886	1	incongruent	Block2	incongruent/STIM_007.jpg
1247.664	0.903	1	incongruent	Block2	incongruent/STIM_007.jpg
1252.396	0.647	1	incongruent	Block2	incongruent/STIM_007.jpg
1256.379	0.772	1	incongruent	Block2	incongruent/STIM_007.jpg
1259.998	0.64	1	incongruent	Block2	incongruent/STIM_008.jpg
1263.02	0.591	1	incongruent	Block2	incongruent/STIM_008.jpg
1267.56	0.542	1	incongruent	Block2	incongruent/STIM_008.jpg
1272.08	0.696	1	incongruent	Block2	incongruent/STIM_008.jpg
1274.851	0.674	1	incongruent	Block2	incongruent/STIM_008.jpg
1278.602	0.775	1	incongruent	Block2	incongruent/STIM_009.jpg
1282.188	0.908	1	incongruent	Block2	incongruent/STIM_009.jpg
1285.157	0.946	1	incongruent	Block2	incongruent/STIM_009.jpg
1288.523	0.477	1	incongruent	Block2	incongruent/STIM_009.jpg
1291.256	0.879	1	incongruent	Block2	incongruent/STIM_009.jpg
1296.058	0.792	1	incongruent	Block2	incongruent/STIM_010.jpg
1300.243	0.883	1	incongruent	Block2	incongruent/STIM_010.jpg
1303.676	0.927	1	incongruent	Block2	incongruent/STIM_010.jpg
1306.837	0.528	1	incongruent	Block2	incongruent/STIM_010.jpg
1310.988	0.538	1	incongruent	Block2	incongruent/STIM_010.jpg
1315.116	0.996	1	incongruent	Block2	incongruent/STIM_011.jpg
1318.846	0.66	1	incongruent	Block2	incongruent/STIM_011.jpg
1322.972	0.572	1	incongruent	Block2	incongruent/STIM_011.jpg
1326.234	0.854	1	incongruent	Block2	incongruent/STIM_011.jpg
1330.613	0.777	1	incongruent	Block2	incongruent/STIM_011.jpg
1333.759	0.547	1	incongruent	Block2	incongruent/STIM_012.jpg
1337.809	0.944	1	incongruent	Block2	incongruent/STIM_012.jpg
1342.43	0.935	1	incongruent	Block2	incongruent/STIM_012.jpg
1346.132	0.748	1	incongruent	Block2	incongruent/STIM_012.jpg
1350.868	0.814	1	incongruent	Block2	incongruent/STIM_012.jpg
1354.026	0.992	1	incongruent	Block2	incongruent/STIM_013.jpg
1357.281	1.006	1	incongruent	Block2	incongruent/STIM_013.jpg
1361.811	0.719	1	incongruent	Block2	incongruent/STIM_013.jpg
1365.122	0.777	1	incongruent	Block2	incongruent/STIM_013.jpg
1368.562	0.483	1	incongruent	Block2	incongruent/STIM_013.jpg
1371.8	1.001	1	incongruent	Block2	incongruent/STIM_014.jpg
1374.881	1.036	1	incongruent	Block2	incongruent/STIM_014.jpg
1379.134	0.942	1	incongruent	Block2	incongruent/STIM_014.jpg
1384.048	0.76	1	incongruent	Block2	incongruent/STIM_014.jpg
1388.781	0.618	1	incongruent	Block2	incongruent/STIM_014.jpg
1392.36	1.131	1	incongruent	Block2	incongruent/STIM_015.jpg
1397.066	0.946	1	incongruent	Block2	incongruent/STIM_015.jpg
1401.257	0.738	1	incongruent	Block2	incongruent/STIM_015.jpg
1405.871	0.505	1	incongruent	Block2	incongruent/STIM_015.jpg
1410.369	0.456	1	incongruent	Block2	incongruent/STIM_015.jpg
1413.479	1.136	1	incongruent	Block2	incongruent/STIM_016.jpg
1418.473	0.668	1	incongruent	Block2	incongruent/STIM_016.jpg
1421.983	0.506	1	incongruent	Block2	incongruent/STIM_016.jpg
1426.127	0.503	1	incongruent	Block2	incongruent/STIM_016.jpg
1429.788	0.834	1	incongruent	Block2	incongruent/STIM_016.jpg
1433.67	1.093	1	incongruent	Block2	incongruent/STIM_017.jpg
1438.351	0.854	1	incongruent	Block2	incongruent/STIM_017.jpg
1442.475	0.932	1	incongruent	Block2	incongruent/STIM_017.jpg
1446.129	0.66	1	incongruent	Block2	incongruent/STIM_017.jpg
1449.453	0.897	1	incongruent	Block2	incongruent/STIM_017.jpg
1453.265	0.938	1	incongruent	Block2	incongruent/STIM_018.jpg
1457.792	1.073	1	incongruent	Block2	incongruent/STIM_018.jpg
1462.55	1.014	1	incongruent	Block2	incongruent/STIM_018.jpg
1466.535	0.802	1	incongruent	Block2	incongruent/STIM_018.jpg
1469.517	0.68	1	incongruent	Block2	incongruent/STIM_018.jpg
1474.054	0.924	1	incongruent	Block2	incongruent/STIM_019.jpg
1478.942	0.947	1	incongruent	Block2	incongruent/STIM_019.jpg
1482.706	0.742	1	incongruent	Block2	incongruent/STIM_019.jpg
1486.678	0.589	1	incongruent	Block2	incongruent/STIM_019.jpg
1490.461	0.463	1	incongruent	Block2	incongruent/STIM_019.jpg
1493.883	0.613	1	incongruent	Block2	incongruent/STIM_020.jpg
1497.165	0.887	1	incongruent	Block2	incongruent/STIM_020.jpg
1501.677	0.792	1	incongruent	Block2	incongruent/STIM_020.jpg
1504.932	0.57	1	incongruent	Block2	incongruent/STIM_020.jpg
1509.152	0.69	1	incongruent	Block2	incongruent/STIM_020.jpg
1513.535	1.153	1	incongruent	Block2	incongruent/STIM_021.jpg
1517.593	0.511	1	incongruent	Block2	incongruent/STIM_021.jpg
1521.265	0.721	1	incongruent	Block2	incongruent/STIM_021.jpg
1524.261	0.867	1	incongruent	Block2	incongruent/STIM_021.jpg
1527.907	0.593	1	incongruent	Block2	incongruent/STIM_021.jpg
1530.862	0.671	1	incongruent	Block2	incongruent/STIM_022.jpg
1534.826	0.696	1	incongruent	Block2	incongruent/STIM_022.jpg
1538.229	0.532	1	incongruent	Block2	incongruent/STIM_022.jpg
1541.967	0.856	1	incongruent	Block2	incongruent/STIM_022.jpg
1545.174	0.824	1	incongruent	Block2	incongruent/STIM_022.jpg
1548.792	0.579	1	incongruent	Block2	incongruent/STIM_023.jpg
1551.691	0.968	1	incongruent	Block2	incongruent/STIM_023.jpg
1554.81	0.932	1	incongruent	Block2	incongruent/STIM_023.jpg
1559.101	0.822	1	incongruent	Block2	incongruent/STIM_023.jpg
1562.649	0.468	1	incongruent	Block2	incongruent/STIM_023.jpg
1566.552	0.543	1	incongruent	Block2	incongruent/STIM_024.jpg
1570.436	1.071	1	incongruent	Block2	incongruent/STIM_024.jpg
1575.147	0.647	1	incongruent	Block2	incongruent/STIM_024.jpg
1578.219	0.891	0	incongruent	Block2	incongruent/STIM_024.jpg
1581.898	0.692	1	incongruent	Block2	incongruent/STIM_024.jpg
1585.445	0.771	1	incongruent	Block2	incongruent/STIM_025.jpg
1589.841	0.966	1	incongruent	Block2	incongruent/STIM_025.jpg
1592.845	1.006	1	incongruent	Block2	incongruent/STIM_025.jpg
1596.291	0.793	1	incongruent	Block2	incongruent/STIM_025.jpg
1599.346	0.947	1	incongruent	Block2	incongruent/STIM_025.jpg
1603.436	1.044	1	incongruent	Block2	incongruent/STIM_026.jpg
1607.062	1.013	1	incongruent	Block2	incongruent/STIM_026.jpg
1611.216	0.829	1	incongruent	Block2	incongruent/STIM_026.jpg
1615.271	0.608	1	incongruent	Block2	incongruent/STIM_026.jpg
1618.889	0.553	1	incongruent	Block2	incongruent/STIM_026.jpg
1622.99	1.104	1	incongruent	Block2	incongruent/STIM_027.jpg
1627.257	1.062	1	incongruent	Block2	incongruent/STIM_027.jpg
1630.84	0.699	1	incongruent	Block2	incongruent/STIM_027.jpg
1634.696	0.694	1	incongruent	Block2	incongruent/STIM_027.jpg
1637.619	0.846	0	incongruent	Block2	incongruent/STIM_027.jpg
1640.754	0.876	1	incongruent	Block2	incongruent/STIM_028.jpg
1645.285	0.825	1	incongruent	Block2	incongruent/STIM_028.jpg
1649.091	0.701	1	incongruent	Block2	incongruent/STIM_028.jpg
1651.795	0.876	1	incongruent	Block2	incongruent/STIM_028.jpg
1656.227	0.564	1	incongruent	Block2	incongruent/STIM_028.jpg
1658.796	0.55	1	incongruent	Block2	incongruent/STIM_029.jpg
1662.438	1.054	1	incongruent	Block2	incongruent/STIM_029.jpg
1667.001	0.774	1	incongruent	Block2	incongruent/STIM_029.jpg
1671.155	0.722	1	incongruent	Block2	incongruent/STIM_029.jpg
1675.0	0.49	1	incongruent	Block2	incongruent/STIM_029.jpg
1679.148	0.603	1	congruent	Block2	congruent/STIM_000.jpg
1683.738	0.808	1	congruent	Block2	congruent/STIM_000.jpg
1686.64	0.484	1	congruent	Block2	congruent/STIM_000.jpg
1690.031	0.813	1	congruent	Block2	congruent/STIM_000.jpg
1692.994	0.592	1	congruent	Block2	congruent/STIM_000.jpg
1696.35	0.767	1	congruent	Block2	congruent/STIM_001.jpg
1699.476	0.771	1	congruent	Block2	congruent/STIM_001.jpg
1703.879	0.502	1	congruent	Block2	congruent/STIM_001.jpg
1707.725	0.671	1	congruent	Block2	congruent/STIM_001.jpg
1710.42	0.806	1	congruent	Block2	congruent/STIM_001.jpg
1714.362	0.799	1	congruent	Block2	congruent/STIM_002.jpg
1718.833	0.492	1	congruent	Block2	congruent/STIM_002.jpg
1722.671	0.546	1	congruent	Block2	congruent/STIM_002.jpg
1726.166	0.706	1	congruent	Block2	congruent/STIM_002.jpg
1730.341	0.65	1	congruent	Block2	congruent/STIM_002.jpg
1734.962	0.518	1	congruent	Block2	congruent/STIM_003.jpg
1737.841	0.479	0	congruent	Block2	congruent/STIM_003.jpg
1741.156	0.493	1	congruent	Block2	congruent/STIM_003.jpg
1744.959	0.551	1	congruent	Block2	congruent/STIM_003.jpg
1748.637	0.707	1	congruent	Block2	congruent/STIM_003.jpg
1752.183	0.782	1	congruent	Block2	congruent/STIM_004.jpg
1756.752	0.568	1	congruent	Block2	congruent/STIM_004.jpg
1760.39	0.574	1	congruent	Block2	congruent/STIM_004.jpg
1764.894	0.744	1	congruent	Block2	congruent/STIM_004.jpg
1769.244	0.691	1	congruent	Block2	congruent/STIM_004.jpg
1772.2	0.802	1	congruent	Block2	congruent/STIM_005.jpg
1775.786	0.49	1	congruent	Block2	congruent/STIM_005.jpg
1779.241	0.735	1	congruent	Block2	congruent/STIM_005.jpg
1782.503	0.612	1	congruent	Block2	congruent/STIM_005.jpg
1785.976	0.795	1	congruent	Block2	congruent/STIM_005.jpg
1790.262	0.465	1	congruent	Block2	congruent/STIM_006.jpg
1794.216	0.674	1	congruent	Block2	congruent/STIM_006.jpg
1797.112	0.68	1	congruent	Block2	congruent/STIM_006.jpg
1800.019	0.608	1	congruent	Block2	congruent/STIM_006.jpg
1803.648	0.548	1	congruent	Block2	congruent/STIM_006.jpg
1808.065	0.798	1	congruent	Block2	congruent/STIM_007.jpg
1811.165	0.672	1	congruent	Block2	congruent/STIM_007.jpg
1813.86	0.632	1	congruent	Block2	congruent/STIM_007.jpg
1817.714	0.534	1	congruent	Block2	congruent/STIM_007.jpg
1821.968	0.658	1	congruent	Block2	congruent/STIM_007.jpg
1825.237	0.472	1	congruent	Block2	congruent/STIM_008.jpg
1829.577	0.522	1	congruent	Block2	congruent/STIM_008.jpg
1832.829	0.458	1	congruent	Block2	congruent/STIM_008.jpg
1837.244	0.749	1	congruent	Block2	congruent/STIM_008.jpg
1840.139	0.813	1	congruent	Block2	congruent/STIM_008.jpg
1844.706	0.63	1	congruent	Block2	congruent/STIM_009.jpg
1848.101	0.545	1	congruent	Block2	congruent/STIM_009.jpg
1852.232	0.797	1	congruent	Block2	congruent/STIM_009.jpg
1856.127	0.47	1	congruent	Block2	congruent/STIM_009.jpg
1859.145	0.714	1	congruent	Block2	congruent/STIM_009.jpg
1862.31	0.487	1	congruent	Block2	congruent/STIM_010.jpg
1865.032	0.473	1	congruent	Block2	congruent/STIM_010.jpg
1868.128	0.468	1	congruent	Block2	congruent/STIM_010.jpg
1871.971	0.66	1	congruent	Block2	congruent/STIM_010.jpg
1875.359	0.546	1	congruent	Block2	congruent/STIM_010.jpg
1878.631	0.61	1	congruent	Block2	congruent/STIM_011.jpg
1881.961	0.462	1	congruent	Block2	congruent/STIM_011.jpg
1886.293	0.674	1	congruent	Block2	congruent/STIM_011.jpg
1890.768	0.577	1	congruent	Block2	congruent/STIM_011.jpg
1895.057	0.505	1	congruent	Block2	congruent/STIM_011.jpg
1899.089	0.602	1	congruent	Block2	congruent/STIM_012.jpg
1901.71	0.477	1	congruent	Block2	congruent/STIM_012.jpg
1904.393	0.642	1	congruent	Block2	congruent/STIM_012.jpg
1907.856	0.533	1	congruent	Block2	congruent/STIM_012.jpg
1911.39	0.639	0	congruent	Block2	congruent/STIM_012.jpg
1914.81	0.779	1	congruent	Block2	congruent/STIM_013.jpg
1918.919	0.574	1	congruent	Block2	congruent/STIM_013.jpg
1921.741	0.539	1	congruent	Block2	congruent/STIM_013.jpg
1925.214	0.717	1	congruent	Block2	congruent/STIM_013.jpg
1929.925	0.565	1	congruent	Block2	congruent/STIM_013.jpg
1932.731	0.716	1	congruent	Block2	congruent/STIM_014.jpg
1935.532	0.744	1	congruent	Block2	congruent/STIM_014.jpg
1939.474	0.524	1	congruent	Block2	congruent/STIM_014.jpg
1943.099	0.624	1	congruent	Block2	congruent/STIM_014.jpg
1947.434	0.616	1	congruent	Block2	congruent/STIM_014.jpg
1950.816	0.553	1	congruent	Block2	congruent/STIM_015.jpg
1953.821	0.486	1	congruent	Block2	congruent/STIM_015.jpg
1957.44	0.55	1	congruent	Block2	congruent/STIM_015.jpg
1961.039	0.744	1	congruent	Block2	congruent/STIM_015.jpg
1965.447	0.788	1	congruent	Block2	congruent/STIM_015.jpg
1969.913	0.578	1	congruent	Block2	congruent/STIM_016.jpg
1973.305	0.73	1	congruent	Block2	congruent/STIM_016.jpg
1976.609	0.531	1	congruent	Block2	congruent/STIM_016.jpg
1980.388	0.498	1	congruent	Block2	congruent/STIM_016.jpg
1983.992	0.583	1	congruent	Block2	congruent/STIM_016.jpg
1987.972	0.69	1	congruent	Block2	congruent/STIM_017.jpg
1992.541	0.496	1	congruent	Block2	congruent/STIM_017.jpg
1995.794	0.732	1	congruent	Block2	congruent/STIM_017.jpg
1999.996	0.8	1	congruent	Block2	congruent/STIM_017.jpg
2003.567	0.581	1	congruent	Block2	congruent/STIM_017.jpg
2007.144	0.787	1	congruent	Block2	congruent/STIM_018.jpg
2011.104	0.501	1	congruent	Block2	congruent/STIM_018.jpg
2014.565	0.509	1	congruent	Block2	congruent/STIM_018.jpg
2017.467	0.593	1	congruent	Block2	congruent/STIM_018.jpg
2021.375	0.495	1	congruent	Block2	congruent/STIM_018.jpg
2024.938	0.656	1	congruent	Block2	congruent/STIM_019.jpg
2028.927	0.524	1	congruent	Block2	congruent/STIM_019.jpg
2033.36	0.733	1	congruent	Block2	congruent/STIM_019.jpg
2038.051	0.73	1	congruent	Block2	congruent/STIM_019.jpg
2042.351	0.54	1	congruent	Block2	congruent/STIM_019.jpg
2045.701	0.565	1	congruent	Block2	congruent/STIM_020.jpg
2049.046	0.545	1	congruent	Block2	congruent/STIM_020.jpg
2053.554	0.764	1	congruent	Block2	congruent/STIM_020.jpg
2056.612	0.768	1	congruent	Block2	congruent/STIM_020.jpg
2061.207	0.708	1	congruent	Block2	congruent/STIM_020.jpg
2064.937	0.466	1	congruent	Block2	congruent/STIM_021.jpg
2068.23	0.56	1	congruent	Block2	congruent/STIM_021.jpg
2071.121	0.81	1	congruent	Block2	congruent/STIM_021.jpg
2074.987	0.814	1	congruent	Block2	congruent/STIM_021.jpg
2079.342	0.707	1	congruent	Block2	congruent/STIM_021.jpg
2083.016	0.67	1	congruent	Block2	congruent/STIM_022.jpg
2087.396	0.523	1	congruent	Block2	congruent/STIM_022.jpg
2091.89	0.746	1	congruent	Block2	congruent/STIM_022.jpg
2096.181	0.592	1	congruent	Block2	congruent/STIM_022.jpg
2100.767	0.642	1	congruent	Block2	congruent/STIM_022.jpg
2103.727	0.709	1	congruent	Block2	congruent/STIM_023.jpg
2106.905	0.562	1	congruent	Block2	congruent/STIM_023.jpg
2110.387	0.498	1	congruent	Block2	congruent/STIM_023.jpg
2114.276	0.621	1	congruent	Block2	congruent/STIM_023.jpg
2117.547	0.55	1	congruent	Block2	congruent/STIM_023.jpg
2121.08	0.59	1	congruent	Block2	congruent/STIM_024.jpg
2125.055	0.785	1	congruent	Block2	congruent/STIM_024.jpg
2129.64	0.629	1	congruent	Block2	congruent/STIM_024.jpg
2132.881	0.707	1	congruent	Block2	congruent/STIM_024.jpg
2137.52	0.477	1	congruent	Block2	congruent/STIM_024.jpg
2141.21	0.566	1	congruent	Block2	congruent/STIM_025.jpg
2144.36	0.574	1	congruent	Block2	congruent/STIM_025.jpg
2148.404	0.601	1	congruent	Block2	congruent/STIM_025.jpg
2151.921	0.748	1	congruent	Block2	congruent/STIM_025.jpg
2156.323	0.747	1	congruent	Block2	congruent/STIM_025.jpg
2159.459	0.59	1	congruent	Block2	congruent/STIM_026.jpg
2162.666	0.609	1	congruent	Block2	congruent/STIM_026.jpg
2167.218	0.656	1	congruent	Block2	congruent/STIM_026.jpg
2170.069	0.699	1	congruent	Block2	congruent/STIM_026.jpg
2173.49	0.804	1	congruent	Block2	congruent/STIM_026.jpg
2178.054	0.533	1	congruent	Block2	congruent/STIM_027.jpg
2182.408	0.575	1	congruent	Block2	congruent/STIM_027.jpg
2185.12	0.479	1	congruent	Block2	congruent/STIM_027.jpg
2188.276	0.59	1	congruent	Block2	congruent/STIM_027.jpg
2192.7	0.812	1	congruent	Block2	congruent/STIM_027.jpg
2196.314	0.492	1	congruent	Block2	congruent/STIM_028.jpg
2199.894	0.713	1	congruent	Block2	congruent/STIM_028.jpg
2203.193	0.703	1	congruent	Block2	congruent/STIM_028.jpg
2206.783	0.664	1	congruent	Block2	congruent/STIM_028.jpg
2210.215	0.696	1	congruent	Block2	congruent/STIM_028.jpg
2214.704	0.712	1	congruent	Block2	congruent/STIM_029.jpg
2218.795	0.476	1	congruent	Block2	congruent/STIM_029.jpg
2221.453	0.633	1	congruent	Block2	congruent/STIM_029.jpg
2225.795	0.586	1	congruent	Block2	congruent/STIM_029.jpg
2228.841	0.802	1	congruent	Block2	congruent/STIM_029.jpg
2231.73	0.755	1	incongruent	Block3	incongruent/STIM_000.jpg
2234.859	0.862	1	incongruent	Block3	incongruent/STIM_000.jpg
2238.507	0.581	1	incongruent	Block3	incongruent/STIM_000.jpg
2242.18	0.834	1	incongruent	Block3	incongruent/STIM_000.jpg
2245.221	0.773	1	incongruent	Block3	incongruent/STIM_000.jpg
2249.914	0.884	1	incongruent	Block3	incongruent/STIM_001.jpg
2254.473	0.657	1	incongruent	Block3	incongruent/STIM_001.jpg
2258.071	0.502	1	incongruent	Block3	incongruent/STIM_001.jpg
2262.154	0.684	1	incongruent	Block3	incongruent/STIM_001.jpg
2265.24	0.632	1	incongruent	Block3	incongruent/STIM_001.jpg
2268.545	0.575	1	incongruent	Block3	incongruent/STIM_002.jpg
2272.496	0.545	1	incongruent	Block3	incongruent/STIM_002.jpg
2276.062	0.474	1	incongruent	Block3	incongruent/STIM_002.jpg
2280.035	0.776	1	incongruent	Block3	incongruent/STIM_002.jpg
2283.419	0.906	1	incongruent	Block3	incongruent/STIM_002.jpg
2287.443	0.657	1	incongruent	Block3	incongruent/STIM_003.jpg
2291.001	0.864	1	incongruent	Block3	incongruent/STIM_003.jpg
2295.199	0.752	1	incongruent	Block3	incongruent/STIM_003.jpg
2299.03	0.798	1	incongruent	Block3	incongruent/STIM_003.jpg
2303.494	0.812	1	incongruent	Block3	incongruent/STIM_003.jpg
2308.258	0.576	1	incongruent	Block3	incongruent/STIM_004.jpg
2311.922	0.569	1	incongruent	Block3	incongruent/STIM_004.jpg
2315.931	0.739	1	incongruent	Block3	incongruent/STIM_004.jpg
2320.45	0.767	1	incongruent	Block3	incongruent/STIM_004.jpg
2324.982	0.537	1	incongruent	Block3	incongruent/STIM_004.jpg
2327.874	0.8	1	incongruent	Block3	incongruent/STIM_005.jpg
2331.45	0.611	1	incongruent	Block3	incongruent/STIM_005.jpg
2334.093	0.661	1	incongruent	Block3	incongruent/STIM_005.jpg
2337.33	0.487	1	incongruent	Block3	incongruent/STIM_005.jpg
2341.002	0.938	1	incongruent	Block3	incongruent/STIM_005.jpg
2345.119	0.57	1	incongruent	Block3	incongruent/STIM_006.jpg
2349.035	0.519	1	incongruent	Block3	incongruent/STIM_006.jpg
2352.681	0.779	1	incongruent	Block3	incongruent/STIM_006.jpg
2356.192	0.561	1	incongruent	Block3	incongruent/STIM_006.jpg
2360.381	0.475	1	incongruent	Block3	incongruent/STIM_006.jpg
2364.798	0.771	1	incongruent	Block3	incongruent/STIM_007.jpg
2369.493	0.539	1	incongruent	Block3	incongruent/STIM_007.jpg
2373.558	0.53	1	incongruent	Block3	incongruent/STIM_007.jpg
2377.723	0.835	1	incongruent	Block3	incongruent/STIM_007.jpg
2381.966	0.806	1	incongruent	Block3	incongruent/STIM_007.jpg
2385.207	0.859	1	incongruent	Block3	incongruent/STIM_008.jpg
2388.854	0.519	1	incongruent	Block3	incongruent/STIM_008.jpg
2392.631	0.612	1	incongruent	Block3	incongruent/STIM_008.jpg
2395.848	0.815	1	incongruent	Block3	incongruent/STIM_008.jpg
2399.022	0.794	1	incongruent	Block3	incongruent/STIM_008.jpg
2402.171	0.455	1	incongruent	Block3	incongruent/STIM_009.jpg
2405.7	0.633	1	incongruent	Block3	incongruent/STIM_009.jpg
2408.881	0.492	1	incongruent	Block3	incongruent/STIM_009.jpg
2411.73	0.837	1	incongruent	Block3	incongruent/STIM_009.jpg
2416.449	0.603	1	incongruent	Block3	incongruent/STIM_009.jpg
2419.145	0.836	1	incongruent	Block3	incongruent/STIM_010.jpg
2422.171	0.903	1	incongruent	Block3	incongruent/STIM_010.jpg
2425.955	0.72	1	incongruent	Block3	incongruent/STIM_010.jpg
2428.72	0.851	1	incongruent	Block3	incongruent/STIM_010.jpg
2431.64	0.555	1	incongruent	Block3	incongruent/STIM_010.jpg
2435.255	0.545	1	incongruent	Block3	incongruent/STIM_011.jpg
2438.415	0.622	1	incongruent	Block3	incongruent/STIM_011.jpg
2442.97	0.824	1	incongruent	Block3	incongruent/STIM_011.jpg
2446.878	0.558	1	incongruent	Block3	incongruent/STIM_011.jpg
2450.288	0.696	1	incongruent	Block3	incongruent/STIM_011.jpg
2453.537	0.517	1	incongruent	Block3	incongruent/STIM_012.jpg
2457.899	0.525	1	incongruent	Block3	incongruent/STIM_012.jpg
2462.062	0.642	1	incongruent	Block3	incongruent/STIM_012.jpg
2466.021	0.777	1	incongruent	Block3	incongruent/STIM_012.jpg
2469.778	0.613	1	incongruent	Block3	incongruent/STIM_012.jpg
2472.779	0.473	1	incongruent	Block3	incongruent/STIM_013.jpg
2477.058	0.489	1	incongruent	Block3	incongruent/STIM_013.jpg
2481.171	0.535	1	incongruent	Block3	incongruent/STIM_013.jpg
2484.085	0.509	1	incongruent	Block3	incongruent/STIM_013.jpg
2487.097	0.681	1	incongruent	Block3	incongruent/STIM_013.jpg
2490.057	0.703	1	incongruent	Block3	incongruent/STIM_014.jpg
2494.239	0.611	1	incongruent	Block3	incongruent/STIM_014.jpg
2498.081	0.887	1	incongruent	Block3	incongruent/STIM_014.jpg
2502.947	0.736	1	incongruent	Block3	incongruent/STIM_014.jpg
2506.625	0.714	1	incongruent	Block3	incongruent/STIM_014.jpg
2509.791	0.674	1	incongruent	Block3	incongruent/STIM_015.jpg
2513.866	0.762	1	incongruent	Block3	incongruent/STIM_015.jpg
2517.946	0.915	1	incongruent	Block3	incongruent/STIM_015.jpg
2522.059	0.677	1	incongruent	Block3	incongruent/STIM_015.jpg
2524.871	0.683	1	incongruent	Block3	incongruent/STIM_015.jpg
2528.673	0.745	1	incongruent	Block3	incongruent/STIM_016.jpg
2531.542	0.782	1	incongruent	Block3	incongruent/STIM_016.jpg
2536.135	0.649	1	incongruent	Block3	incongruent/STIM_016.jpg
2540.636	0.73	1	incongruent	Block3	incongruent/STIM_016.jpg
2544.012	0.753	1	incongruent	Block3	incongruent/STIM_016.jpg
2547.989	0.636	1	incongruent	Block3	incongruent/STIM_017.jpg
2551.419	0.624	1	incongruent	Block3	incongruent/STIM_017.jpg
2555.25	0.934	1	incongruent	Block3	incongruent/STIM_017.jpg
2559.399	0.548	1	incongruent	Block3	incongruent/STIM_017.jpg
2562.037	0.828	1	incongruent	Block3	incongruent/STIM_017.jpg
2566.468	0.863	1	incongruent	Block3	incongruent/STIM_018.jpg
2571.19	0.517	1	incongruent	Block3	incongruent/STIM_018.jpg
2574.755	0.472	1	incongruent	Block3	incongruent/STIM_018.jpg
2577.274	0.664	1	incongruent	Block3	incongruent/STIM_018.jpg
2581.101	0.67	1	incongruent	Block3	incongruent/STIM_018.jpg
2584.322	0.776	1	incongruent	Block3	incongruent/STIM_019.jpg
2587.148	0.499	1	incongruent	Block3	incongruent/STIM_019.jpg
2590.884	0.822	1	incongruent	Block3	incongruent/STIM_019.jpg
2594.387	0.469	1	incongruent	Block3	incongruent/STIM_019.jpg
2598.768	0.622	1	incongruent	Block3	incongruent/STIM_019.jpg
2602.584	0.533	1	incongruent	Block3	incongruent/STIM_020.jpg
2606.825	0.698	1	incongruent	Block3	incongruent/STIM_020.jpg
2611.08	0.826	1	incongruent	Block3	incongruent/STIM_020.jpg
2614.911	0.458	1	incongruent	Block3	incongruent/STIM_020.jpg
2617.716	0.626	1	incongruent	Block3	incongruent/STIM_020.jpg
2621.687	0.798	1	incongruent	Block3	incongruent/STIM_021.jpg
2626.411	0.76	1	incongruent	Block3	incongruent/STIM_021.jpg
2630.974	0.456	1	incongruent	Block3	incongruent/STIM_021.jpg
2634.071	0.811	1	incongruent	Block3	incongruent/STIM_021.jpg
2637.716	0.456	1	incongruent	Block3	incongruent/STIM_021.jpg
2641.664	0.95	1	incongruent	Block3	incongruent/STIM_022.jpg
2645.479	0.905	1	incongruent	Block3	incongruent/STIM_022.jpg
2650.206	0.721	1	incongruent	Block3	incongruent/STIM_022.jpg
2654.26	0.721	1	incongruent	Block3	incongruent/STIM_022.jpg
2658.872	0.502	1	incongruent	Block3	incongruent/STIM_022.jpg
2661.841	0.755	1	incongruent	Block3	incongruent/STIM_023.jpg
2666.122	0.736	1	incongruent	Block3	incongruent/STIM_023.jpg
2670.778	0.628	1	incongruent	Block3	incongruent/STIM_023.jpg
2674.252	0.471	1	incongruent	Block3	incongruent/STIM_023.jpg
2678.006	0.558	0	incongruent	Block3	incongruent/STIM_023.jpg
2682.199	0.464	1	incongruent	Block3	incongruent/STIM_024.jpg
2685.504	0.843	1	incongruent	Block3	incongruent/STIM_024.jpg
2689.03	0.697	1	incongruent	Block3	incongruent/STIM_024.jpg
2692.995	0.658	1	incongruent	Block3	incongruent/STIM_024.jpg
2697.091	0.64	1	incongruent	Block3	incongruent/STIM_024.jpg
2700.799	0.838	1	incongruent	Block3	incongruent/STIM_025.jpg
2704.651	0.928	1	incongruent	Block3	incongruent/STIM_025.jpg
2709.171	0.843	1	incongruent	Block3	incongruent/STIM_025.jpg
2712.147	0.93	1	incongruent	Block3	incongruent/STIM_025.jpg
2716.872	0.871	1	incongruent	Block3	incongruent/STIM_025.jpg
2719.988	0.889	1	incongruent	Block3	incongruent/STIM_026.jpg
2724.763	0.531	1	incongruent	Block3	incongruent/STIM_026.jpg
2727.544	0.637	1	incongruent	Block3	incongruent/STIM_026.jpg
2730.989	0.834	1	incongruent	Block3	incongruent/STIM_026.jpg
2733.933	0.665	0	incongruent	Block3	incongruent/STIM_026.jpg
2737.626	0.588	1	incongruent	Block3	incongruent/STIM_027.jpg
2741.32	0.704	1	incongruent	Block3	incongruent/STIM_027.jpg
2744.746	0.922	1	incongruent	Block3	incongruent/STIM_027.jpg
2749.442	0.857	1	incongruent	Block3	incongruent/STIM_027.jpg
2753.07	0.768	1	incongruent	Block3	incongruent/STIM_027.jpg
2755.96	0.533	1	incongruent	Block3	incongruent/STIM_028.jpg
2758.766	0.814	1	incongruent	Block3	incongruent/STIM_028.jpg
2763.533	0.558	1	incongruent	Block3	incongruent/STIM_028.jpg
2766.258	0.546	1	incongruent	Block3	incongruent/STIM_028.jpg
2770.611	0.52	1	incongruent	Block3	incongruent/STIM_028.jpg
2774.084	0.604	1	incongruent	Block3	incongruent/STIM_029.jpg
2777.898	0.501	1	incongruent	Block3	incongruent/STIM_029.jpg
2782.251	0.873	1	incongruent	Block3	incongruent/STIM_029.jpg
2785.96	0.662	1	incongruent	Block3	incongruent/STIM_029.jpg
2788.835	0.741	1	incongruent	Block3	incongruent/STIM_029.jpg
2792.317	0.719	1	congruent	Block3	congruent/STIM_000.jpg
2796.693	0.6	1	congruent	Block3	congruent/STIM_000.jpg
2800.736	0.594	1	congruent	Block3	congruent/STIM_000.jpg
2804.065	0.746	1	congruent	Block3	congruent/STIM_000.jpg
2806.91	0.519	1	congruent	Block3	congruent/STIM_000.jpg
2810.018	0.703	1	congruent	Block3	congruent/STIM_001.jpg
2814.456	0.459	1	congruent	Block3	congruent/STIM_001.jpg
2817.543	0.798	1	congruent	Block3	congruent/STIM_001.jpg
2820.962	0.678	1	congruent	Block3	congruent/STIM_001.jpg
2825.078	0.583	1	congruent	Block3	congruent/STIM_001.jpg
2828.159	0.794	1	congruent	Block3	congruent/STIM_002.jpg
2831.368	0.674	1	congruent	Block3	congruent/STIM_002.jpg
2835.091	0.513	1	congruent	Block3	congruent/STIM_002.jpg
2837.943	0.626	0	congruent	Block3	congruent/STIM_002.jpg
2842.385	0.463	1	congruent	Block3	congruent/STIM_002.jpg
2844.888	0.703	1	congruent	Block3	congruent/STIM_003.jpg
2848.314	0.504	1	congruent	Block3	congruent/STIM_003.jpg
2852.246	0.725	1	congruent	Block3	congruent/STIM_003.jpg
2855.85	0.643	1	congruent	Block3	congruent/STIM_003.jpg
2860.005	0.728	1	congruent	Block3	congruent/STIM_003.jpg
2863.462	0.627	1	congruent	Block3	congruent/STIM_004.jpg
2867.932	0.581	1	congruent	Block3	congruent/STIM_004.jpg
2871.451	0.467	1	congruent	Block3	congruent/STIM_004.jpg
2875.714	0.649	1	congruent	Block3	congruent/STIM_004.jpg
2878.714	0.729	1	congruent	Block3	congruent/STIM_004.jpg
2882.797	0.592	1	congruent	Block3	congruent/STIM_005.jpg
2886.142	0.55	1	congruent	Block3	congruent/STIM_005.jpg
2890.29	0.659	1	congruent	Block3	congruent/STIM_005.jpg
2893.53	0.671	1	congruent	Block3	congruent/STIM_005.jpg
2897.432	0.56	1	congruent	Block3	congruent/STIM_005.jpg
2901.447	0.501	1	congruent	Block3	congruent/STIM_006.jpg
2905.119	0.81	1	congruent	Block3	congruent/STIM_006.jpg
2907.984	0.471	1	congruent	Block3	congruent/STIM_006.jpg
2911.369	0.61	1	congruent	Block3	congruent/STIM_006.jpg
2915.402	0.66	1	congruent	Block3	congruent/STIM_006.jpg
2918.808	0.567	1	congruent	Block3	congruent/STIM_007.jpg
2923.072	0.767	1	congruent	Block3	congruent/STIM_007.jpg
2927.767	0.724	1	congruent	Block3	congruent/STIM_007.jpg
2931.478	0.517	1	congruent	Block3	congruent/STIM_007.jpg
2935.426	0.614	1	congruent	Block3	congruent/STIM_007.jpg
2938.124	0.528	1	congruent	Block3	congruent/STIM_008.jpg
2940.706	0.512	1	congruent	Block3	congruent/STIM_008.jpg
2943.865	0.595	1	congruent	Block3	congruent/STIM_008.jpg
2947.352	0.458	1	congruent	Block3	congruent/STIM_008.jpg
2951.737	0.629	1	congruent	Block3	congruent/STIM_008.jpg
2954.599	0.737	1	congruent	Block3	congruent/STIM_009.jpg
2959.308	0.498	1	congruent	Block3	congruent/STIM_009.jpg
2962.145	0.788	1	congruent	Block3	congruent/STIM_009.jpg
2965.898	0.657	1	congruent	Block3	congruent/STIM_009.jpg
2970.289	0.647	1	congruent	Block3	congruent/STIM_009.jpg
2973.757	0.529	1	congruent	Block3	congruent/STIM_010.jpg
2978.222	0.767	1	congruent	Block3	congruent/STIM_010.jpg
2981.761	0.639	1	congruent	Block3	congruent/STIM_010.jpg
2985.252	0.66	1	congruent	Block3	congruent/STIM_010.jpg
2988.098	0.74	1	congruent	Block3	congruent/STIM_010.jpg
2992.47	0.569	1	congruent	Block3	congruent/STIM_011.jpg
2996.826	0.595	1	congruent	Block3	congruent/STIM_011.jpg
3001.03	0.494	1	congruent	Block3	congruent/STIM_011.jpg
3004.962	0.771	1	congruent	Block3	congruent/STIM_011.jpg
3009.29	0.631	1	congruent	Block3	congruent/STIM_011.jpg
3013.046	0.766	1	congruent	Block3	congruent/STIM_012.jpg
3016.032	0.628	1	congruent	Block3	congruent/STIM_012.jpg
3020.176	0.787	1	congruent	Block3	congruent/STIM_012.jpg
3024.918	0.751	1	congruent	Block3	congruent/STIM_012.jpg
3027.73	0.742	1	congruent	Block3	congruent/STIM_012.jpg
3030.649	0.539	1	congruent	Block3	congruent/STIM_013.jpg
3035.082	0.477	1	congruent	Block3	congruent/STIM_013.jpg
3038.272	0.52	1	congruent	Block3	congruent/STIM_013.jpg
3041.657	0.473	1	congruent	Block3	congruent/STIM_013.jpg
3045.764	0.691	1	congruent	Block3	congruent/STIM_013.jpg
3049.892	0.486	1	congruent	Block3	congruent/STIM_014.jpg
3053.181	0.717	1	congruent	Block3	congruent/STIM_014.jpg
3057.611	0.62	1	congruent	Block3	congruent/STIM_014.jpg
3060.338	0.665	1	congruent	Block3	congruent/STIM_014.jpg
3064.491	0.714	1	congruent	Block3	congruent/STIM_014.jpg
3067.407	0.697	1	congruent	Block3	congruent/STIM_015.jpg
3071.378	0.658	1	congruent	Block3	congruent/STIM_015.jpg
3074.836	0.743	1	congruent	Block3	congruent/STIM_015.jpg
3079.031	0.65	1	congruent	Block3	congruent/STIM_015.jpg
3082.706	0.672	1	congruent	Block3	congruent/STIM_015.jpg
3085.746	0.721	1	congruent	Block3	congruent/STIM_016.jpg
3088.769	0.626	1	congruent	Block3	congruent/STIM_016.jpg
3093.374	0.519	1	congruent	Block3	congruent/STIM_016.jpg
3096.457	0.628	1	congruent	Block3	congruent/STIM_016.jpg
3099.914	0.614	1	congruent	Block3	congruent/STIM_016.jpg
3103.77	0.486	1	congruent	Block3	congruent/STIM_017.jpg
3106.379	0.613	1	congruent	Block3	congruent/STIM_017.jpg
3109.204	0.799	1	congruent	Block3	congruent/STIM_017.jpg
3113.997	0.722	0	congruent	Block3	congruent/STIM_017.jpg
3118.242	0.515	1	congruent	Block3	congruent/STIM_017.jpg
3121.949	0.688	1	congruent	Block3	congruent/STIM_018.jpg
3125.833	0.631	1	congruent	Block3	congruent/STIM_018.jpg
3130.375	0.502	1	congruent	Block3	congruent/STIM_018.jpg
3134.599	0.717	1	congruent	Block3	congruent/STIM_018.jpg
3138.612	0.528	1	congruent	Block3	congruent/STIM_018.jpg
3142.138	0.794	1	congruent	Block3	congruent/STIM_019.jpg
3146.49	0.694	1	congruent	Block3	congruent/STIM_019.jpg
3149.908	0.558	1	congruent	Block3	congruent/STIM_019.jpg
3154.106	0.587	1	congruent	Block3	congruent/STIM_019.jpg
3158.101	0.798	1	congruent	Block3	congruent/STIM_019.jpg
3162.848	0.48	1	congruent	Block3	congruent/STIM_020.jpg
3166.798	0.786	1	congruent	Block3	congruent/STIM_020.jpg
3169.601	0.736	1	congruent	Block3	congruent/STIM_020.jpg
3173.445	0.727	1	congruent	Block3	congruent/STIM_020.jpg
3177.133	0.765	1	congruent	Block3	congruent/STIM_020.jpg
3181.108	0.519	1	congruent	Block3	congruent/STIM_021.jpg
3184.568	0.756	1	congruent	Block3	congruent/STIM_021.jpg
3189.115	0.628	1	congruent	Block3	congruent/STIM_021.jpg
3192.74	0.514	0	congruent	Block3	congruent/STIM_021.jpg
3195.672	0.646	1	congruent	Block3	congruent/STIM_021.jpg
3199.636	0.542	1	congruent	Block3	congruent/STIM_022.jpg
3203.431	0.623	0	congruent	Block3	congruent/STIM_022.jpg
3206.535	0.541	0	congruent	Block3	congruent/STIM_022.jpg
3210.055	0.49	1	congruent	Block3	congruent/STIM_022.jpg
3214.389	0.815	1	congruent	Block3	congruent/STIM_022.jpg
3217.534	0.622	1	congruent	Block3	congruent/STIM_023.jpg
3220.236	0.511	1	congruent	Block3	congruent/STIM_023.jpg
3224.17	0.606	1	congruent	Block3	congruent/STIM_023.jpg
3228.676	0.718	1	congruent	Block3	congruent/STIM_023.jpg
3231.977	0.731	1	congruent	Block3	congruent/STIM_023.jpg
3236.291	0.467	1	congruent	Block3	congruent/STIM_024.jpg
3239.528	0.701	1	congruent	Block3	congruent/STIM_024.jpg
3243.647	0.601	1	congruent	Block3	congruent/STIM_024.jpg
3246.996	0.706	1	congruent	Block3	congruent/STIM_024.jpg
3251.611	0.459	1	congruent	Block3	congruent/STIM_024.jpg
3254.558	0.49	1	congruent	Block3	congruent/STIM_025.jpg
3257.067	0.797	0	congruent	Block3	congruent/STIM_025.jpg
3259.872	0.458	1	congruent	Block3	congruent/STIM_025.jpg
3263.678	0.73	1	congruent	Block3	congruent/STIM_025.jpg
3268.093	0.464	1	congruent	Block3	congruent/STIM_025.jpg
3272.106	0.676	1	congruent	Block3	congruent/STIM_026.jpg
3276.497	0.765	1	congruent	Block3	congruent/STIM_026.jpg
3279.474	0.541	1	congruent	Block3	congruent/STIM_026.jpg
3283.7	0.636	1	congruent	Block3	congruent/STIM_026.jpg
3288.068	0.584	1	congruent	Block3	congruent/STIM_026.jpg
3292.384	0.635	1	congruent	Block3	congruent/STIM_027.jpg
3296.739	0.483	1	congruent	Block3	congruent/STIM_027.jpg
3301.173	0.551	1	congruent	Block3	congruent/STIM_027.jpg
3304.028	0.792	1	congruent	Block3	congruent/STIM_027.jpg
3307.04	0.637	1	congruent	Block3	congruent/STIM_027.jpg
3311.041	0.506	1	congruent	Block3	congruent/STIM_028.jpg
3313.683	0.578	1	congruent	Block3	congruent/STIM_028.jpg
3318.237	0.725	1	congruent	Block3	congruent/STIM_028.jpg
3322.932	0.8	1	congruent	Block3	congruent/STIM_028.jpg
3326.533	0.569	1	congruent	Block3	congruent/STIM_028.jpg
3330.432	0.747	1	congruent	Block3	congruent/STIM_029.jpg
3334.194	0.744	1	congruent	Block3	congruent/STIM_029.jpg
3338.929	0.486	1	congruent	Block3	congruent/STIM_029.jpg
3343.291	0.697	1	congruent	Block3	congruent/STIM_029.jpg
3346.591	0.525	1	congruent	Block3	congruent/STIM_029.jpg
