onset	duration	response_time_ms	trial_type	learning_stage	stimulus	response_port
0.0	1.306	1305.7	incongruent	Block1	incongruent/STIM_000.jpg	100
4.481	1.003	1003.0	incongruent	Block1	incongruent/STIM_000.jpg	100
8.618	0.867	867.2	incongruent	Block1	incongruent/STIM_000.jpg	99
11.982	0.751	751.4	incongruent	Block1	incongruent/STIM_000.jpg	100
16.283	1.157	1157.3	incongruent	Block1	incongruent/STIM_000.jpg	100
19.415	1.056	1056.0	incongruent	Block1	incongruent/STIM_001.jpg	99
23.231	0.799	799.3	incongruent	Block1	incongruent/STIM_001.jpg	100
27.733	1.356	1356.5	incongruent	Block1	incongruent/STIM_001.jpg	99
31.904	1.274	1274.5	incongruent	Block1	incongruent/STIM_001.jpg	99
36.227	0.963	962.8	incongruent	Block1	incongruent/STIM_001.jpg	99
40.781	0.992	992.1	incongruent	Block1	incongruent/STIM_002.jpg	100
44.073	1.557	1557.2	incongruent	Block1	incongruent/STIM_002.jpg	99
49.181	1.363	1363.4	incongruent	Block1	incongruent/STIM_002.jpg	100
52.56	1.133	1132.8	incongruent	Block1	incongruent/STIM_002.jpg	100
55.843	1.395	1395.0	incongruent	Block1	incongruent/STIM_002.jpg	99
59.172	1.073	1073.3	incongruent	Block1	incongruent/STIM_003.jpg	99
63.776	1.338	1338.4	incongruent	Block1	incongruent/STIM_003.jpg	99
68.377	0.988	987.7	incongruent	Block1	incongruent/STIM_003.jpg	100
71.279	1.375	1375.3	incongruent	Block1	incongruent/STIM_003.jpg	99
75.091	1.076	1076.1	incongruent	Block1	incongruent/STIM_003.jpg	99
79.08	1.54	1539.7	incongruent	Block1	incongruent/STIM_004.jpg	100
82.453	1.171	1171.4	incongruent	Block1	incongruent/STIM_004.jpg	99
85.688	1.379	1378.7	incongruent	Block1	incongruent/STIM_004.jpg	100
90.655	0.807	807.1	incongruent	Block1	incongruent/STIM_004.jpg	100
94.768	1.36	1360.4	incongruent	Block1	incongruent/STIM_004.jpg	100
98.356	0.833	833.2	incongruent	Block1	incongruent/STIM_005.jpg	100
101.376	0.968	968.2	incongruent	Block1	incongruent/STIM_005.jpg	99
104.483	1.432	1431.9	incongruent	Block1	incongruent/STIM_005.jpg	100
108.913	1.202	1202.5	incongruent	Block1	incongruent/STIM_005.jpg	100
112.376	0.956	955.9	incongruent	Block1	incongruent/STIM_005.jpg	99
115.867	1.475	1475.4	incongruent	Block1	incongruent/STIM_006.jpg	100
120.548	0.918	918.4	incongruent	Block1	incongruent/STIM_006.jpg	100
124.768	1.209	1208.6	incongruent	Block1	incongruent/STIM_006.jpg	99
127.955	0.832	831.9	incongruent	Block1	incongruent/STIM_006.jpg	99
132.19	1.293	1293.3	incongruent	Block1	incongruent/STIM_006.jpg	100
135.825	1.012	1012.2	incongruent	Block1	incongruent/STIM_007.jpg	100
139.642	1.44	1440.0	incongruent	Block1	incongruent/STIM_007.jpg	100
143.859	0.944	943.9	incongruent	Block1	incongruent/STIM_007.jpg	99
148.164	0.972	972.4	incongruent	Block1	incongruent/STIM_007.jpg	99
151.953	1.2	1199.7	incongruent	Block1	incongruent/STIM_007.jpg	100
156.034	1.082	1081.8	incongruent	Block1	incongruent/STIM_008.jpg	100
159.571	1.013	1012.8	incongruent	Block1	incongruent/STIM_008.jpg	99
163.777	0.993	992.7	incongruent	Block1	incongruent/STIM_008.jpg	100
167.414	1.385	1385.2	incongruent	Block1	incongruent/STIM_008.jpg	99
171.506	1.236	1236.2	incongruent	Block1	incongruent/STIM_008.jpg	100
175.47	1.323	1322.8	incongruent	Block1	incongruent/STIM_009.jpg	99
178.791	1.486	1485.9	incongruent	Block1	incongruent/STIM_009.jpg	100
183.023	1.393	1393.2	incongruent	Block1	incongruent/STIM_009.jpg	100
188.16	0.702	702.2	incongruent	Block1	incongruent/STIM_009.jpg	99
191.534	0.928	928.1	incongruent	Block1	incongruent/STIM_009.jpg	99
196.088	1.691	1690.8	incongruent	Block1	incongruent/STIM_010.jpg	100
200.546	1.554	1554.3	incongruent	Block1	incongruent/STIM_010.jpg	100
205.296	1.284	1283.6	incongruent	Block1	incongruent/STIM_010.jpg	100
209.058	1.4	1400.3	incongruent	Block1	incongruent/STIM_010.jpg	100
212.954	1.11	1109.9	incongruent	Block1	incongruent/STIM_010.jpg	99
216.636	0.95	949.6	incongruent	Block1	incongruent/STIM_011.jpg	99
219.979	0.738	738.0	incongruent	Block1	incongruent/STIM_011.jpg	100
223.42	1.514	1513.6	incongruent	Block1	incongruent/STIM_011.jpg	100
228.28	0.893	892.8	incongruent	Block1	incongruent/STIM_011.jpg	99
231.586	0.723	722.7	incongruent	Block1	incongruent/STIM_011.jpg	100
235.506	1.582	1582.5	incongruent	Block1	incongruent/STIM_012.jpg	99
239.033	1.657	1656.7	incongruent	Block1	incongruent/STIM_012.jpg	100
244.133	1.536	1535.5	incongruent	Block1	incongruent/STIM_012.jpg	100
248.844	1.066	1065.6	incongruent	Block1	incongruent/STIM_012.jpg	100
252.295	0.874	874.5	incongruent	Block1	incongruent/STIM_012.jpg	100
255.155	1.638	1638.0	incongruent	Block1	incongruent/STIM_013.jpg	100
260.17	0.788	788.0	incongruent	Block1	incongruent/STIM_013.jpg	99
263.462	0.946	946.3	incongruent	Block1	incongruent/STIM_013.jpg	99
268.186	0.644	643.6	incongruent	Block1	incongruent/STIM_013.jpg	99
271.67	1.32	1319.5	incongruent	Block1	incongruent/STIM_013.jpg	99
276.713	1.565	1565.4	incongruent	Block1	incongruent/STIM_014.jpg	100
281.584	1.469	1468.8	incongruent	Block1	incongruent/STIM_014.jpg	100
286.632	1.142	1141.8	incongruent	Block1	incongruent/STIM_014.jpg	99
291.24	0.891	891.1	incongruent	Block1	incongruent/STIM_014.jpg	100
294.534	0.692	692.0	incongruent	Block1	incongruent/STIM_014.jpg	100
299.073	1.508	1507.6	incongruent	Block1	incongruent/STIM_015.jpg	99
303.753	1.1	1099.9	incongruent	Block1	incongruent/STIM_015.jpg	99
306.889	1.141	1141.2	incongruent	Block1	incongruent/STIM_015.jpg	99
310.333	0.899	898.8	incongruent	Block1	incongruent/STIM_015.jpg	99
314.249	0.998	998.4	incongruent	Block1	incongruent/STIM_015.jpg	100
317.151	1.552	1551.7	incongruent	Block1	incongruent/STIM_016.jpg	99
320.891	0.896	896.4	incongruent	Block1	incongruent/STIM_016.jpg	100
325.708	0.98	979.7	incongruent	Block1	incongruent/STIM_016.jpg	100
330.533	1.063	1062.6	incongruent	Block1	incongruent/STIM_016.jpg	100
333.435	0.934	934.1	incongruent	Block1	incongruent/STIM_016.jpg	99
337.677	1.535	1535.2	incongruent	Block1	incongruent/STIM_017.jpg	99
342.955	1.413	1413.3	incongruent	Block1	incongruent/STIM_017.jpg	100
347.407	1.057	1057.1	incongruent	Block1	incongruent/STIM_017.jpg	100
350.695	0.883	882.9	incongruent	Block1	incongruent/STIM_017.jpg	100
355.243	0.754	753.7	incongruent	Block1	incongruent/STIM_017.jpg	99
359.516	1.26	1259.8	incongruent	Block1	incongruent/STIM_018.jpg	99
362.977	1.436	1435.7	incongruent	Block1	incongruent/STIM_018.jpg	100
366.996	1.262	1261.6	incongruent	Block1	incongruent/STIM_018.jpg	100
372.104	1.356	1356.0	incongruent	Block1	incongruent/STIM_018.jpg	100
376.269	1.256	1256.1	incongruent	Block1	incongruent/STIM_018.jpg	100
380.201	1.009	1009.1	incongruent	Block1	incongruent/STIM_019.jpg	99
384.483	1.57	1569.8	incongruent	Block1	incongruent/STIM_019.jpg	99
389.23	1.378	1377.8	incongruent	Block1	incongruent/STIM_019.jpg	100
393.76	0.884	883.6	incongruent	Block1	incongruent/STIM_019.jpg	100
397.455	0.768	768.3	incongruent	Block1	incongruent/STIM_019.jpg	100
400.967	1.373	1372.8	incongruent	Block1	incongruent/STIM_020.jpg	100
405.099	1.259	1259.2	incongruent	Block1	incongruent/STIM_020.jpg	99
409.465	0.761	760.7	incongruent	Block1	incongruent/STIM_020.jpg	100
413.648	1.221	1221.2	incongruent	Block1	incongruent/STIM_020.jpg	100
417.876	1.062	1061.6	incongruent	Block1	incongruent/STIM_020.jpg	100
422.224	1.361	1361.4	incongruent	Block1	incongruent/STIM_021.jpg	99
426.875	0.906	906.4	incongruent	Block1	incongruent/STIM_021.jpg	99
429.994	1.165	1165.4	incongruent	Block1	incongruent/STIM_021.jpg	99
433.401	1.375	1374.7	incongruent	Block1	incongruent/STIM_021.jpg	100
438.215	1.228	1228.2	incongruent	Block1	incongruent/STIM_021.jpg	100
443.02	1.594	1594.5	incongruent	Block1	incongruent/STIM_022.jpg	99
447.305	0.994	993.6	incongruent	Block1	incongruent/STIM_022.jpg	100
451.169	0.873	873.1	incongruent	Block1	incongruent/STIM_022.jpg	99
455.617	1.108	1107.6	incongruent	Block1	incongruent/STIM_022.jpg	100
460.134	1.152	1152.4	incongruent	Block1	incongruent/STIM_022.jpg	99
463.608	1.064	1064.4	incongruent	Block1	incongruent/STIM_023.jpg	99
467.441	1.309	1308.6	incongruent	Block1	incongruent/STIM_023.jpg	100
472.214	1.507	1506.6	incongruent	Block1	incongruent/STIM_023.jpg	99
475.948	0.663	663.1	incongruent	Block1	incongruent/STIM_023.jpg	99
478.864	1.356	1356.0	incongruent	Block1	incongruent/STIM_023.jpg	99
482.814	1.635	1634.8	incongruent	Block1	incongruent/STIM_024.jpg	100
487.288	1.111	1111.2	incongruent	Block1	incongruent/STIM_024.jpg	99
491.7	0.799	798.7	incongruent	Block1	incongruent/STIM_024.jpg	99
495.711	1.16	1160.0	incongruent	Block1	incongruent/STIM_024.jpg	99
499.202	0.871	870.6	incongruent	Block1	incongruent/STIM_024.jpg	99
503.311	1.633	1633.4	incongruent	Block1	incongruent/STIM_025.jpg	99
507.35	1.57	1570.4	incongruent	Block1	incongruent/STIM_025.jpg	99
512.229	1.256	1256.4	incongruent	Block1	incongruent/STIM_025.jpg	100
515.936	1.271	1270.9	incongruent	Block1	incongruent/STIM_025.jpg	99
520.067	1.433	1432.6	incongruent	Block1	incongruent/STIM_025.jpg	100
523.648	1.166	1166.1	incongruent	Block1	incongruent/STIM_026.jpg	99
528.016	1.352	1352.0	incongruent	Block1	incongruent/STIM_026.jpg	99
531.708	1.457	1457.3	incongruent	Block1	incongruent/STIM_026.jpg	100
535.097	1.099	1099.2	incongruent	Block1	incongruent/STIM_026.jpg	99
538.938	0.943	943.3	incongruent	Block1	incongruent/STIM_026.jpg	99
543.206	1.129	1128.8	incongruent	Block1	incongruent/STIM_027.jpg	100
547.978	1.04	1039.6	incongruent	Block1	incongruent/STIM_027.jpg	100
552.636	0.689	688.7	incongruent	Block1	incongruent/STIM_027.jpg	100
556.654	1.077	1076.9	incongruent	Block1	incongruent/STIM_027.jpg	100
560.482	0.972	972.4	incongruent	Block1	incongruent/STIM_027.jpg	99
563.582	0.802	801.9	incongruent	Block1	incongruent/STIM_028.jpg	100
567.213	1.018	1017.7	incongruent	Block1	incongruent/STIM_028.jpg	100
572.022	1.503	1503.0	incongruent	Block1	incongruent/STIM_028.jpg	100
575.321	1.067	1066.9	incongruent	Block1	incongruent/STIM_028.jpg	99
580.009	1.177	1176.6	incongruent	Block1	incongruent/STIM_028.jpg	100
583.648	0.786	786.4	incongruent	Block1	incongruent/STIM_029.jpg	100
586.657	1.345	1345.0	incongruent	Block1	incongruent/STIM_029.jpg	99
591.877	1.098	1098.3	incongruent	Block1	incongruent/STIM_029.jpg	99
595.476	0.868	868.1	incongruent	Block1	incongruent/STIM_029.jpg	100
600.091	0.963	963.4	incongruent	Block1	incongruent/STIM_029.jpg	100
603.346	0.677	676.9	congruent	Block1	congruent/STIM_000.jpg	100
607.211	0.728	727.8	congruent	Block1	congruent/STIM_000.jpg	99
611.51	0.817	816.9	congruent	Block1	congruent/STIM_000.jpg	100
616.209	0.827	827.4	congruent	Block1	congruent/STIM_000.jpg	100
620.827	0.92	920.0	congruent	Block1	congruent/STIM_000.jpg	100
624.582	0.706	706.5	congruent	Block1	congruent/STIM_001.jpg	100
627.734	0.859	858.9	congruent	Block1	congruent/STIM_001.jpg	99
631.668	1.033	1033.2	congruent	Block1	congruent/STIM_001.jpg	100
636.154	0.768	768.0	congruent	Block1	congruent/STIM_001.jpg	99
640.279	0.919	918.9	congruent	Block1	congruent/STIM_001.jpg	100
644.34	1.034	1034.3	congruent	Block1	congruent/STIM_002.jpg	100
647.874	0.988	988.0	congruent	Block1	congruent/STIM_002.jpg	99
651.737	0.688	688.4	congruent	Block1	congruent/STIM_002.jpg	99
655.721	0.626	626.5	congruent	Block1	congruent/STIM_002.jpg	100
658.471	1.002	1002.4	congruent	Block1	congruent/STIM_002.jpg	100
663.019	0.634	634.4	congruent	Block1	congruent/STIM_003.jpg	100
665.853	0.578	578.0	congruent	Block1	congruent/STIM_003.jpg	100
670.256	0.711	711.1	congruent	Block1	congruent/STIM_003.jpg	99
673.321	0.549	549.2	congruent	Block1	congruent/STIM_003.jpg	100
676.397	0.881	881.4	congruent	Block1	congruent/STIM_003.jpg	100
681.179	0.86	859.8	congruent	Block1	congruent/STIM_004.jpg	100
684.397	0.801	800.9	congruent	Block1	congruent/STIM_004.jpg	99
687.835	1.015	1014.9	congruent	Block1	congruent/STIM_004.jpg	99
690.792	1.023	1022.6	congruent	Block1	congruent/STIM_004.jpg	99
694.463	0.902	902.4	congruent	Block1	congruent/STIM_004.jpg	100
699.177	0.808	808.1	congruent	Block1	congruent/STIM_005.jpg	99
702.124	0.69	689.6	congruent	Block1	congruent/STIM_005.jpg	99
706.565	1.016	1016.5	congruent	Block1	congruent/STIM_005.jpg	100
711.338	0.876	875.8	congruent	Block1	congruent/STIM_005.jpg	99
715.267	0.835	834.7	congruent	Block1	congruent/STIM_005.jpg	99
718.104	1.038	1037.9	congruent	Block1	congruent/STIM_006.jpg	100
722.05	0.828	827.6	congruent	Block1	congruent/STIM_006.jpg	99
725.038	0.845	844.6	congruent	Block1	congruent/STIM_006.jpg	100
729.41	0.881	881.1	congruent	Block1	congruent/STIM_006.jpg	100
733.755	0.893	892.6	congruent	Block1	congruent/STIM_006.jpg	100
737.792	0.562	562.2	congruent	Block1	congruent/STIM_007.jpg	100
741.946	0.637	636.9	congruent	Block1	congruent/STIM_007.jpg	99
745.697	0.893	892.8	congruent	Block1	congruent/STIM_007.jpg	99
749.781	0.956	955.6	congruent	Block1	congruent/STIM_007.jpg	99
754.578	0.664	663.6	congruent	Block1	congruent/STIM_007.jpg	100
757.694	1.028	1027.7	congruent	Block1	congruent/STIM_008.jpg	100
760.74	0.684	683.5	congruent	Block1	congruent/STIM_008.jpg	100
763.801	0.82	819.9	congruent	Block1	congruent/STIM_008.jpg	99
766.791	0.915	915.2	congruent	Block1	congruent/STIM_008.jpg	100
770.607	0.827	827.2	congruent	Block1	congruent/STIM_008.jpg	100
774.887	0.517	517.2	congruent	Block1	congruent/STIM_009.jpg	99
778.293	0.968	967.6	congruent	Block1	congruent/STIM_009.jpg	99
782.184	0.881	881.3	congruent	Block1	congruent/STIM_009.jpg	99
785.87	0.719	719.0	congruent	Block1	congruent/STIM_009.jpg	100
788.757	0.813	812.8	congruent	Block1	congruent/STIM_009.jpg	99
791.506	0.958	958.3	congruent	Block1	congruent/STIM_010.jpg	100
795.4	0.792	792.0	congruent	Block1	congruent/STIM_010.jpg	99
799.766	0.696	695.5	congruent	Block1	congruent/STIM_010.jpg	99
803.152	0.926	926.2	congruent	Block1	congruent/STIM_010.jpg	99
806.823	0.879	879.2	congruent	Block1	congruent/STIM_010.jpg	100
810.366	0.67	670.3	congruent	Block1	congruent/STIM_011.jpg	99
814.338	0.745	744.8	congruent	Block1	congruent/STIM_011.jpg	100
818.839	0.576	576.2	congruent	Block1	congruent/STIM_011.jpg	100
822.642	0.812	811.8	congruent	Block1	congruent/STIM_011.jpg	99
826.092	0.57	569.8	congruent	Block1	congruent/STIM_011.jpg	100
830.348	0.762	761.6	congruent	Block1	congruent/STIM_012.jpg	100
833.461	0.683	683.2	congruent	Block1	congruent/STIM_012.jpg	99
837.238	0.804	804.4	congruent	Block1	congruent/STIM_012.jpg	100
841.776	0.777	776.6	congruent	Block1	congruent/STIM_012.jpg	99
845.617	0.81	809.6	congruent	Block1	congruent/STIM_012.jpg	99
848.671	0.859	859.3	congruent	Block1	congruent/STIM_013.jpg	100
851.72	0.879	878.8	congruent	Block1	congruent/STIM_013.jpg	100
854.719	0.61	609.8	congruent	Block1	congruent/STIM_013.jpg	99
857.912	0.88	879.7	congruent	Block1	congruent/STIM_013.jpg	99
862.022	0.813	813.0	congruent	Block1	congruent/STIM_013.jpg	100
865.389	0.57	569.6	congruent	Block1	congruent/STIM_014.jpg	99
868.602	0.756	756.2	congruent	Block1	congruent/STIM_014.jpg	100
873.208	0.972	972.2	congruent	Block1	congruent/STIM_014.jpg	100
877.397	0.737	736.7	congruent	Block1	congruent/STIM_014.jpg	99
881.593	0.797	797.1	congruent	Block1	congruent/STIM_014.jpg	99
885.628	0.91	910.3	congruent	Block1	congruent/STIM_015.jpg	100
888.809	0.922	921.9	congruent	Block1	congruent/STIM_015.jpg	99
893.577	0.82	819.8	congruent	Block1	congruent/STIM_015.jpg	100
896.9	0.632	631.5	congruent	Block1	congruent/STIM_015.jpg	99
901.171	0.726	725.8	congruent	Block1	congruent/STIM_015.jpg	100
904.023	0.607	606.9	congruent	Block1	congruent/STIM_016.jpg	99
907.737	0.681	680.9	congruent	Block1	congruent/STIM_016.jpg	99
911.611	0.999	999.2	congruent	Block1	congruent/STIM_016.jpg	100
915.282	0.771	771.2	congruent	Block1	congruent/STIM_016.jpg	99
918.213	0.748	748.3	congruent	Block1	congruent/STIM_016.jpg	100
922.813	0.629	629.0	congruent	Block1	congruent/STIM_017.jpg	99
926.176	0.891	890.8	congruent	Block1	congruent/STIM_017.jpg	99
930.046	0.732	732.3	congruent	Block1	congruent/STIM_017.jpg	100
933.075	0.695	694.7	congruent	Block1	congruent/STIM_017.jpg	100
936.857	0.885	885.1	congruent	Block1	congruent/STIM_017.jpg	100
940.686	0.952	951.6	congruent	Block1	congruent/STIM_018.jpg	99
944.006	0.671	670.6	congruent	Block1	congruent/STIM_018.jpg	100
948.244	0.964	964.0	congruent	Block1	congruent/STIM_018.jpg	99
951.602	0.799	799.2	congruent	Block1	congruent/STIM_018.jpg	99
954.794	0.838	837.9	congruent	Block1	congruent/STIM_018.jpg	99
958.837	0.781	780.6	congruent	Block1	congruent/STIM_019.jpg	100
962.782	0.866	865.6	congruent	Block1	congruent/STIM_019.jpg	100
967.284	0.701	700.6	congruent	Block1	congruent/STIM_019.jpg	100
970.266	0.689	689.2	congruent	Block1	congruent/STIM_019.jpg	99
974.048	0.799	799.3	congruent	Block1	congruent/STIM_019.jpg	99
977.744	0.725	724.7	congruent	Block1	congruent/STIM_020.jpg	99
981.565	0.89	889.9	congruent	Block1	congruent/STIM_020.jpg	100
985.772	0.787	786.7	congruent	Block1	congruent/STIM_020.jpg	99
989.33	0.766	766.0	congruent	Block1	congruent/STIM_020.jpg	100
993.884	0.963	963.3	congruent	Block1	congruent/STIM_020.jpg	100
997.298	1.077	1077.1	congruent	Block1	congruent/STIM_021.jpg	99
1001.946	0.624	624.4	congruent	Block1	congruent/STIM_021.jpg	99
1005.897	1.03	1029.5	congruent	Block1	congruent/STIM_021.jpg	99
1009.009	0.877	877.4	congruent	Block1	congruent/STIM_021.jpg	100
1013.298	0.844	843.9	congruent	Block1	congruent/STIM_021.jpg	100
1016.422	0.57	569.9	congruent	Block1	congruent/STIM_022.jpg	99
1019.274	0.748	748.2	congruent	Block1	congruent/STIM_022.jpg	100
1023.132	0.927	926.8	congruent	Block1	congruent/STIM_022.jpg	99
1027.141	0.66	660.2	congruent	Block1	congruent/STIM_022.jpg	99
1030.915	0.922	922.3	congruent	Block1	congruent/STIM_022.jpg	100
1034.698	0.886	885.5	congruent	Block1	congruent/STIM_023.jpg	100
1037.513	0.787	787.0	congruent	Block1	congruent/STIM_023.jpg	99
1040.693	0.835	835.1	congruent	Block1	congruent/STIM_023.jpg	100
1043.72	0.66	659.8	congruent	Block1	congruent/STIM_023.jpg	99
1046.581	0.614	613.8	congruent	Block1	congruent/STIM_023.jpg	100
1050.274	0.766	765.9	congruent	Block1	congruent/STIM_024.jpg	99
1054.5	0.636	635.6	congruent	Block1	congruent/STIM_024.jpg	100
1057.714	1.01	1009.8	congruent	Block1	congruent/STIM_024.jpg	100
1062.33	0.848	848.5	congruent	Block1	congruent/STIM_024.jpg	99
1065.633	0.706	706.3	congruent	Block1	congruent/STIM_024.jpg	100
1069.169	0.762	761.5	congruent	Block1	congruent/STIM_025.jpg	100
1072.199	0.916	915.6	congruent	Block1	congruent/STIM_025.jpg	100
1075.774	0.572	571.7	congruent	Block1	congruent/STIM_025.jpg	100
1079.079	0.75	749.6	congruent	Block1	congruent/STIM_025.jpg	100
1083.397	0.987	986.8	congruent	Block1	congruent/STIM_025.jpg	100
1086.568	0.844	843.7	congruent	Block1	congruent/STIM_026.jpg	100
1089.639	0.723	722.8	congruent	Block1	congruent/STIM_026.jpg	99
1092.431	0.513	513.3	congruent	Block1	congruent/STIM_026.jpg	99
1095.781	0.926	925.8	congruent	Block1	congruent/STIM_026.jpg	100
1100.084	0.845	845.0	congruent	Block1	congruent/STIM_026.jpg	99
1103.437	0.965	964.9	congruent	Block1	congruent/STIM_027.jpg	100
1107.709	0.895	894.8	congruent	Block1	congruent/STIM_027.jpg	99
1111.738	0.668	668.2	congruent	Block1	congruent/STIM_027.jpg	100
1116.087	0.793	792.8	congruent	Block1	congruent/STIM_027.jpg	100
1120.043	0.792	792.5	congruent	Block1	congruent/STIM_027.jpg	99
1123.718	0.992	991.8	congruent	Block1	congruent/STIM_028.jpg	100
1127.154	0.658	658.1	congruent	Block1	congruent/STIM_028.jpg	99
1130.818	0.585	585.3	congruent	Block1	congruent/STIM_028.jpg	100
1135.045	0.643	642.7	congruent	Block1	congruent/STIM_028.jpg	99
1138.427	0.934	933.7	congruent	Block1	congruent/STIM_028.jpg	99
1143.107	1.038	1038.0	congruent	Block1	congruent/STIM_029.jpg	100
1147.823	0.688	688.5	congruent	Block1	congruent/STIM_029.jpg	100
1151.136	0.656	655.5	congruent	Block1	congruent/STIM_029.jpg	100
1154.415	0.783	783.0	congruent	Block1	congruent/STIM_029.jpg	99
1158.069	0.741	741.3	congruent	Block1	congruent/STIM_029.jpg	100
1161.611	0.703	703.0	incongruent	Block2	incongruent/STIM_000.jpg	100
1164.255	1.102	1101.6	incongruent	Block2	incongruent/STIM_000.jpg	99
1168.984	0.854	854.2	incongruent	Block2	incongruent/STIM_000.jpg	99
1172.02	0.925	925.0	incongruent	Block2	incongruent/STIM_000.jpg	100
1175.975	0.988	988.5	incongruent	Block2	incongruent/STIM_000.jpg	100
1179.321	1.16	1159.7	incongruent	Block2	incongruent/STIM_001.jpg	100
1183.797	1.361	1360.8	incongruent	Block2	incongruent/STIM_001.jpg	99
1188.416	0.693	693.1	incongruent	Block2	incongruent/STIM_001.jpg	99
1191.238	1.207	1206.6	incongruent	Block2	incongruent/STIM_001.jpg	99
1194.947	1.01	1009.8	incongruent	Block2	incongruent/STIM_001.jpg	100
1198.817	1.0	999.6	incongruent	Block2	incongruent/STIM_002.jpg	100
1203.274	1.038	1038.0	incongruent	Block2	incongruent/STIM_002.jpg	100
1206.434	0.626	626.4	incongruent	Block2	incongruent/STIM_002.jpg	100
1210.131	0.97	970.4	incongruent	Block2	incongruent/STIM_002.jpg	99
1213.823	0.592	591.7	incongruent	Block2	incongruent/STIM_002.jpg	100
1217.643	1.127	1127.1	incongruent	Block2	incongruent/STIM_003.jpg	99
1221.604	0.792	792.3	incongruent	Block2	incongruent/STIM_003.jpg	99
1224.759	0.76	760.4	incongruent	Block2	incongruent/STIM_003.jpg	99
1228.478	0.656	656.2	incongruent	Block2	incongruent/STIM_003.jpg	99
1232.613	0.907	907.0	incongruent	Block2	incongruent/STIM_003.jpg	99
1237.123	1.121	1121.2	incongruent	Block2	incongruent/STIM_004.jpg	99
1241.331	0.622	622.3	incongruent	Block2	incongruent/STIM_004.jpg	100
1245.208	1.152	1151.5	incongruent	Block2	incongruent/STIM_004.jpg	99
1248.862	1.09	1089.9	incongruent	Block2	incongruent/STIM_004.jpg	100
1252.791	0.638	638.5	incongruent	Block2	incongruent/STIM_004.jpg	100
1257.055	1.162	1162.3	incongruent	Block2	incongruent/STIM_005.jpg	100
1261.901	1.164	1163.5	incongruent	Block2	incongruent/STIM_005.jpg	99
1265.537	0.91	909.8	incongruent	Block2	incongruent/STIM_005.jpg	100
1269.257	0.898	897.6	incongruent	Block2	incongruent/STIM_005.jpg	100
1274.01	0.869	869.3	incongruent	Block2	incongruent/STIM_005.jpg	100
1278.595	1.219	1218.9	incongruent	Block2	incongruent/STIM_006.jpg	100
1282.434	1.195	1195.2	incongruent	Block2	incongruent/STIM_006.jpg	99
1287.003	1.014	1014.0	incongruent	Block2	incongruent/STIM_006.jpg	100
1290.248	0.858	857.9	incongruent	Block2	incongruent/STIM_006.jpg	100
1294.934	0.7	699.5	incongruent	Block2	incongruent/STIM_006.jpg	100
1299.222	1.336	1335.9	incongruent	Block2	incongruent/STIM_007.jpg	100
1303.577	1.157	1156.8	incongruent	Block2	incongruent/STIM_007.jpg	99
1307.748	1.109	1109.3	incongruent	Block2	incongruent/STIM_007.jpg	99
1311.892	0.668	668.5	incongruent	Block2	incongruent/STIM_007.jpg	100
1316.233	0.55	549.9	incongruent	Block2	incongruent/STIM_007.jpg	99
1320.104	1.071	1071.2	incongruent	Block2	incongruent/STIM_008.jpg	100
1324.571	1.186	1186.4	incongruent	Block2	incongruent/STIM_008.jpg	100
1327.969	0.684	683.9	incongruent	Block2	incongruent/STIM_008.jpg	99
1332.444	1.011	1010.8	incongruent	Block2	incongruent/STIM_008.jpg	100
1336.682	0.756	755.5	incongruent	Block2	incongruent/STIM_008.jpg	100
1340.541	0.99	989.9	incongruent	Block2	incongruent/STIM_009.jpg	99
1344.14	0.681	680.8	incongruent	Block2	incongruent/STIM_009.jpg	99
1347.094	0.708	707.9	incongruent	Block2	incongruent/STIM_009.jpg	100
1351.249	0.678	678.3	incongruent	Block2	incongruent/STIM_009.jpg	100
1354.471	0.919	918.8	incongruent	Block2	incongruent/STIM_009.jpg	100
1358.746	1.243	1243.1	incongruent	Block2	incongruent/STIM_010.jpg	100
1363.709	0.87	869.5	incongruent	Block2	incongruent/STIM_010.jpg	100
1368.516	0.643	643.3	incongruent	Block2	incongruent/STIM_010.jpg	99
1372.96	0.634	633.6	incongruent	Block2	incongruent/STIM_010.jpg	99
1377.265	0.717	717.1	incongruent	Block2	incongruent/STIM_010.jpg	99
1381.181	0.773	773.3	incongruent	Block2	incongruent/STIM_011.jpg	99
1385.562	1.205	1204.7	incongruent	Block2	incongruent/STIM_011.jpg	100
1390.549	1.223	1222.8	incongruent	Block2	incongruent/STIM_011.jpg	100
1393.763	0.901	901.1	incongruent	Block2	incongruent/STIM_011.jpg	99
1396.996	0.838	837.8	incongruent	Block2	incongruent/STIM_011.jpg	100
1400.106	0.735	734.9	incongruent	Block2	incongruent/STIM_012.jpg	99
1402.976	0.785	785.2	incongruent	Block2	incongruent/STIM_012.jpg	99
1405.883	0.99	990.3	incongruent	Block2	incongruent/STIM_012.jpg	100
1410.052	0.698	698.4	incongruent	Block2	incongruent/STIM_012.jpg	99
1413.65	0.89	889.5	incongruent	Block2	incongruent/STIM_012.jpg	100
1417.878	1.272	1272.3	incongruent	Block2	incongruent/STIM_013.jpg	99
1421.493	0.997	997.0	incongruent	Block2	incongruent/STIM_013.jpg	99
1425.938	0.609	609.1	incongruent	Block2	incongruent/STIM_013.jpg	100
1430.497	0.735	735.3	incongruent	Block2	incongruent/STIM_013.jpg	100
1433.851	1.019	1019.4	incongruent	Block2	incongruent/STIM_013.jpg	99
1436.865	0.935	934.9	incongruent	Block2	incongruent/STIM_014.jpg	99
1439.898	0.938	937.6	incongruent	Block2	incongruent/STIM_014.jpg	99
1444.556	1.294	1294.0	incongruent	Block2	incongruent/STIM_014.jpg	99
1448.604	1.077	1077.4	incongruent	Block2	incongruent/STIM_014.jpg	99
1453.382	0.758	757.7	incongruent	Block2	incongruent/STIM_014.jpg	99
1457.895	0.79	789.6	incongruent	Block2	incongruent/STIM_015.jpg	99
1461.524	0.831	831.2	incongruent	Block2	incongruent/STIM_015.jpg	100
1465.52	1.064	1063.6	incongruent	Block2	incongruent/STIM_015.jpg	100
1469.763	1.104	1104.5	incongruent	Block2	incongruent/STIM_015.jpg	100
1473.423	1.163	1163.1	incongruent	Block2	incongruent/STIM_015.jpg	99
1477.639	0.78	779.5	incongruent	Block2	incongruent/STIM_016.jpg	100
1481.252	1.213	1212.9	incongruent	Block2	incongruent/STIM_016.jpg	100
1484.748	1.283	1283.2	incongruent	Block2	incongruent/STIM_016.jpg	99
1488.197	0.87	870.3	incongruent	Block2	incongruent/STIM_016.jpg	100
1492.683	1.09	1090.2	incongruent	Block2	incongruent/STIM_016.jpg	100
1497.057	0.852	852.5	incongruent	Block2	incongruent/STIM_017.jpg	99
1501.094	1.134	1134.3	incongruent	Block2	incongruent/STIM_017.jpg	100
1504.129	0.589	589.2	incongruent	Block2	incongruent/STIM_017.jpg	99
1506.695	1.009	1008.9	incongruent	Block2	incongruent/STIM_017.jpg	100
1509.908	0.927	927.0	incongruent	Block2	incongruent/STIM_017.jpg	100
1514.418	0.893	893.2	incongruent	Block2	incongruent/STIM_018.jpg	99
1517.253	1.224	1223.8	incongruent	Block2	incongruent/STIM_018.jpg	100
1521.322	0.791	790.7	incongruent	Block2	incongruent/STIM_018.jpg	100
1525.18	0.65	650.0	incongruent	Block2	incongruent/STIM_018.jpg	100
1529.757	0.831	831.3	incongruent	Block2	incongruent/STIM_018.jpg	99
1534.096	1.385	1384.6	incongruent	Block2	incongruent/STIM_019.jpg	100
1539.074	0.824	824.5	incongruent	Block2	incongruent/STIM_019.jpg	99
1542.572	0.963	963.3	incongruent	Block2	incongruent/STIM_019.jpg	99
1546.904	0.711	710.6	incongruent	Block2	incongruent/STIM_019.jpg	100
1551.023	0.925	925.3	incongruent	Block2	incongruent/STIM_019.jpg	100
1554.991	0.766	765.5	incongruent	Block2	incongruent/STIM_020.jpg	99
1558.274	1.362	1361.7	incongruent	Block2	incongruent/STIM_020.jpg	99
1562.042	0.72	720.0	incongruent	Block2	incongruent/STIM_020.jpg	99
1566.661	0.779	778.8	incongruent	Block2	incongruent/STIM_020.jpg	100
1570.553	1.105	1104.8	incongruent	Block2	incongruent/STIM_020.jpg	99
1573.772	1.367	1367.1	incongruent	Block2	incongruent/STIM_021.jpg	99
1578.661	0.642	642.5	incongruent	Block2	incongruent/STIM_021.jpg	100
1582.226	1.112	1112.1	incongruent	Block2	incongruent/STIM_021.jpg	99
1585.879	1.134	1134.0	incongruent	Block2	incongruent/STIM_021.jpg	100
1589.397	0.72	719.8	incongruent	Block2	incongruent/STIM_021.jpg	99
1592.353	1.353	1353.0	incongruent	Block2	incongruent/STIM_022.jpg	99
1596.65	1.181	1181.1	incongruent	Block2	incongruent/STIM_022.jpg	100
1600.631	1.215	1214.9	incongruent	Block2	incongruent/STIM_022.jpg	100
1604.778	0.723	723.2	incongruent	Block2	incongruent/STIM_022.jpg	100
1608.562	0.952	952.1	incongruent	Block2	incongruent/STIM_022.jpg	99
1612.431	1.181	1180.8	incongruent	Block2	incongruent/STIM_023.jpg	99
1616.423	1.265	1264.7	incongruent	Block2	incongruent/STIM_023.jpg	99
1620.648	1.131	1131.4	incongruent	Block2	incongruent/STIM_023.jpg	99
1624.977	1.078	1077.5	incongruent	Block2	incongruent/STIM_023.jpg	100
1629.643	1.044	1043.9	incongruent	Block2	incongruent/STIM_023.jpg	100
1633.695	0.703	703.4	incongruent	Block2	incongruent/STIM_024.jpg	99
1636.322	0.706	706.1	incongruent	Block2	incongruent/STIM_024.jpg	99
1639.938	0.633	632.8	incongruent	Block2	incongruent/STIM_024.jpg	99
1643.254	1.11	1110.1	incongruent	Block2	incongruent/STIM_024.jpg	99
1647.726	0.931	931.1	incongruent	Block2	incongruent/STIM_024.jpg	99
1650.726	1.197	1197.2	incongruent	Block2	incongruent/STIM_025.jpg	99
1655.465	0.68	680.0	incongruent	Block2	incongruent/STIM_025.jpg	100
1660.025	1.063	1062.6	incongruent	Block2	incongruent/STIM_025.jpg	99
1663.21	0.706	706.1	incongruent	Block2	incongruent/STIM_025.jpg	100
1667.518	0.559	558.9	incongruent	Block2	incongruent/STIM_025.jpg	100
1671.863	1.062	1062.5	incongruent	Block2	incongruent/STIM_026.jpg	100
1676.439	0.69	690.4	incongruent	Block2	incongruent/STIM_026.jpg	100
1680.803	0.876	876.4	incongruent	Block2	incongruent/STIM_026.jpg	99
1683.979	0.75	749.9	incongruent	Block2	incongruent/STIM_026.jpg	99
1687.002	1.246	1246.3	incongruent	Block2	incongruent/STIM_026.jpg	100
1690.176	0.768	767.8	incongruent	Block2	incongruent/STIM_027.jpg	99
1694.47	1.296	1296.2	incongruent	Block2	incongruent/STIM_027.jpg	99
1697.872	0.761	761.4	incongruent	Block2	incongruent/STIM_027.jpg	100
1700.529	1.137	1136.8	incongruent	Block2	incongruent/STIM_027.jpg	100
1705.438	1.106	1106.4	incongruent	Block2	incongruent/STIM_027.jpg	100
1709.959	1.074	1074.0	incongruent	Block2	incongruent/STIM_028.jpg	100
1713.85	1.307	1307.1	incongruent	Block2	incongruent/STIM_028.jpg	100
1717.485	0.872	871.5	incongruent	Block2	incongruent/STIM_028.jpg	99
1721.105	0.871	870.9	incongruent	Block2	incongruent/STIM_028.jpg	99
1723.856	0.727	726.6	incongruent	Block2	incongruent/STIM_028.jpg	100
1727.731	1.145	1144.8	incongruent	Block2	incongruent/STIM_029.jpg	99
1732.236	0.939	939.1	incongruent	Block2	incongruent/STIM_029.jpg	100
1736.013	0.849	849.1	incongruent	Block2	incongruent/STIM_029.jpg	100
1738.973	1.238	1237.7	incongruent	Block2	incongruent/STIM_029.jpg	100
1743.546	0.786	786.0	incongruent	Block2	incongruent/STIM_029.jpg	99
1747.978	1.015	1015.1	congruent	Block2	congruent/STIM_000.jpg	99
1751.856	0.718	717.8	congruent	Block2	congruent/STIM_000.jpg	99
1755.27	0.84	840.2	congruent	Block2	congruent/STIM_000.jpg	100
1759.995	0.606	605.8	congruent	Block2	congruent/STIM_000.jpg	100
1762.913	0.604	603.6	congruent	Block2	congruent/STIM_000.jpg	100
1765.869	0.984	984.1	congruent	Block2	congruent/STIM_001.jpg	99
1768.833	0.874	874.3	congruent	Block2	congruent/STIM_001.jpg	100
1772.237	0.798	798.1	congruent	Block2	congruent/STIM_001.jpg	99
1776.578	0.956	956.1	congruent	Block2	congruent/STIM_001.jpg	100
1780.691	1.052	1051.6	congruent	Block2	congruent/STIM_001.jpg	100
1785.573	0.6	600.0	congruent	Block2	congruent/STIM_002.jpg	100
1788.631	0.69	690.2	congruent	Block2	congruent/STIM_002.jpg	100
1792.901	0.652	652.2	congruent	Block2	congruent/STIM_002.jpg	100
1796.192	0.654	654.2	congruent	Block2	congruent/STIM_002.jpg	99
1799.785	0.641	640.7	congruent	Block2	congruent/STIM_002.jpg	100
1803.273	0.987	987.4	congruent	Block2	congruent/STIM_003.jpg	99
1807.12	0.744	744.3	congruent	Block2	congruent/STIM_003.jpg	100
1811.506	0.844	844.4	congruent	Block2	congruent/STIM_003.jpg	100
1815.011	0.821	821.1	congruent	Block2	congruent/STIM_003.jpg	99
1819.1	0.98	980.3	congruent	Block2	congruent/STIM_003.jpg	100
1822.774	0.615	614.8	congruent	Block2	congruent/STIM_004.jpg	100
1826.453	0.784	784.1	congruent	Block2	congruent/STIM_004.jpg	100
1830.259	1.039	1038.9	congruent	Block2	congruent/STIM_004.jpg	99
1833.241	0.961	960.6	congruent	Block2	congruent/STIM_004.jpg	100
1836.183	0.626	625.8	congruent	Block2	congruent/STIM_004.jpg	100
1839.336	0.615	614.7	congruent	Block2	congruent/STIM_005.jpg	99
1842.377	0.8	799.9	congruent	Block2	congruent/STIM_005.jpg	99
1846.152	1.092	1091.6	congruent	Block2	congruent/STIM_005.jpg	99
1849.552	1.088	1087.6	congruent	Block2	congruent/STIM_005.jpg	99
1854.27	0.782	782.1	congruent	Block2	congruent/STIM_005.jpg	99
1857.937	0.706	706.4	congruent	Block2	congruent/STIM_006.jpg	100
1861.593	0.987	987.4	congruent	Block2	congruent/STIM_006.jpg	99
1865.32	0.679	679.0	congruent	Block2	congruent/STIM_006.jpg	99
1869.288	0.753	752.7	congruent	Block2	congruent/STIM_006.jpg	100
1873.583	0.816	815.7	congruent	Block2	congruent/STIM_006.jpg	99
1877.83	0.822	822.1	congruent	Block2	congruent/STIM_007.jpg	100
1881.307	0.614	614.0	congruent	Block2	congruent/STIM_007.jpg	100
1883.991	0.708	708.0	congruent	Block2	congruent/STIM_007.jpg	99
1886.893	0.926	926.1	congruent	Block2	congruent/STIM_007.jpg	100
1889.885	0.548	547.9	congruent	Block2	congruent/STIM_007.jpg	100
1894.004	1.001	1001.4	congruent	Block2	congruent/STIM_008.jpg	99
1897.584	0.668	668.2	congruent	Block2	congruent/STIM_008.jpg	100
1900.435	0.842	841.6	congruent	Block2	congruent/STIM_008.jpg	99
1903.472	0.825	825.2	congruent	Block2	congruent/STIM_008.jpg	100
1908.163	1.008	1008.0	congruent	Block2	congruent/STIM_008.jpg	100
1912.489	0.98	979.8	congruent	Block2	congruent/STIM_009.jpg	100
1915.837	0.754	754.4	congruent	Block2	congruent/STIM_009.jpg	99
1919.497	0.599	598.8	congruent	Block2	congruent/STIM_009.jpg	99
1923.207	0.988	987.8	congruent	Block2	congruent/STIM_009.jpg	100
1927.378	0.694	693.5	congruent	Block2	congruent/STIM_009.jpg	100
1931.171	0.512	512.4	congruent	Block2	congruent/STIM_010.jpg	99
1934.992	0.73	729.6	congruent	Block2	congruent/STIM_010.jpg	100
1938.89	0.77	770.1	congruent	Block2	congruent/STIM_010.jpg	99
1943.362	0.7	700.0	congruent	Block2	congruent/STIM_010.jpg	99
1946.238	0.785	784.9	congruent	Block2	congruent/STIM_010.jpg	100
1949.242	0.664	664.3	congruent	Block2	congruent/STIM_011.jpg	100
1953.746	0.652	651.9	congruent	Block2	congruent/STIM_011.jpg	99
1956.571	0.581	581.1	congruent	Block2	congruent/STIM_011.jpg	99
1959.6	0.892	892.5	congruent	Block2	congruent/STIM_011.jpg	99
1963.648	0.861	860.7	congruent	Block2	congruent/STIM_011.jpg	100
1966.456	0.646	645.9	congruent	Block2	congruent/STIM_012.jpg	100
1969.361	0.737	736.9	congruent	Block2	congruent/STIM_012.jpg	99
1972.523	0.974	974.5	congruent	Block2	congruent/STIM_012.jpg	100
1975.504	0.873	873.2	congruent	Block2	congruent/STIM_012.jpg	99
1979.034	0.804	803.7	congruent	Block2	congruent/STIM_012.jpg	100
1982.707	0.851	851.4	congruent	Block2	congruent/STIM_013.jpg	99
1987.387	0.792	792.0	congruent	Block2	congruent/STIM_013.jpg	99
1991.365	1.046	1046.4	congruent	Block2	congruent/STIM_013.jpg	99
1995.515	0.692	691.5	congruent	Block2	congruent/STIM_013.jpg	100
1998.761	0.853	853.3	congruent	Block2	congruent/STIM_013.jpg	99
2001.796	0.648	647.5	congruent	Block2	congruent/STIM_014.jpg	100
2005.658	0.825	825.1	congruent	Block2	congruent/STIM_014.jpg	100
2009.068	1.022	1021.7	congruent	Block2	congruent/STIM_014.jpg	99
2012.391	0.771	771.0	congruent	Block2	congruent/STIM_014.jpg	100
2016.78	0.953	952.6	congruent	Block2	congruent/STIM_014.jpg	99
2020.297	0.823	823.3	congruent	Block2	congruent/STIM_015.jpg	99
2022.961	0.818	817.8	congruent	Block2	congruent/STIM_015.jpg	100
2025.875	0.642	642.5	congruent	Block2	congruent/STIM_015.jpg	99
2029.702	0.966	966.4	congruent	Block2	congruent/STIM_015.jpg	99
2033.462	0.612	611.5	congruent	Block2	congruent/STIM_015.jpg	100
2036.377	0.874	874.4	congruent	Block2	congruent/STIM_016.jpg	99
2039.602	0.833	832.9	congruent	Block2	congruent/STIM_016.jpg	100
2043.921	0.846	846.0	congruent	Block2	congruent/STIM_016.jpg	100
2048.21	0.94	940.5	congruent	Block2	congruent/STIM_016.jpg	100
2052.857	0.708	708.5	congruent	Block2	congruent/STIM_016.jpg	100
2056.985	0.627	627.1	congruent	Block2	congruent/STIM_017.jpg	100
2059.991	0.854	854.2	congruent	Block2	congruent/STIM_017.jpg	99
2062.79	0.635	634.8	congruent	Block2	congruent/STIM_017.jpg	100
2067.152	0.597	597.2	congruent	Block2	congruent/STIM_017.jpg	99
2069.863	0.964	964.0	congruent	Block2	congruent/STIM_017.jpg	100
2074.527	0.548	547.6	congruent	Block2	congruent/STIM_018.jpg	99
2077.418	0.593	592.8	congruent	Block2	congruent/STIM_018.jpg	100
2081.052	0.6	599.9	congruent	Block2	congruent/STIM_018.jpg	99
2085.157	0.713	713.1	congruent	Block2	congruent/STIM_018.jpg	100
2088.847	0.855	854.6	congruent	Block2	congruent/STIM_018.jpg	100
2093.038	0.821	820.9	congruent	Block2	congruent/STIM_019.jpg	100
2096.505	0.674	673.9	congruent	Block2	congruent/STIM_019.jpg	100
2099.965	0.61	609.9	congruent	Block2	congruent/STIM_019.jpg	100
2103.695	0.846	846.3	congruent	Block2	congruent/STIM_019.jpg	100
2107.133	0.641	640.9	congruent	Block2	congruent/STIM_019.jpg	99
2111.2	0.917	917.3	congruent	Block2	congruent/STIM_020.jpg	100
2115.787	0.615	615.0	congruent	Block2	congruent/STIM_020.jpg	100
2120.149	0.574	574.0	congruent	Block2	congruent/STIM_020.jpg	99
2123.178	0.998	997.7	congruent	Block2	congruent/STIM_020.jpg	99
2127.979	0.727	727.4	congruent	Block2	congruent/STIM_020.jpg	99
2132.607	0.87	870.3	congruent	Block2	congruent/STIM_021.jpg	99
2135.915	0.945	945.4	congruent	Block2	congruent/STIM_021.jpg	99
2139.258	0.755	755.3	congruent	Block2	congruent/STIM_021.jpg	100
2142.997	0.621	621.0	congruent	Block2	congruent/STIM_021.jpg	100
2146.725	0.784	784.4	congruent	Block2	congruent/STIM_021.jpg	100
2151.087	0.898	897.9	congruent	Block2	congruent/STIM_022.jpg	100
2155.121	0.821	821.2	congruent	Block2	congruent/STIM_022.jpg	100
2159.873	0.82	820.2	congruent	Block2	congruent/STIM_022.jpg	100
2163.51	0.693	693.0	congruent	Block2	congruent/STIM_022.jpg	99
2168.119	0.986	985.8	congruent	Block2	congruent/STIM_022.jpg	100
2171.577	0.718	718.2	congruent	Block2	congruent/STIM_023.jpg	99
2175.106	0.672	672.5	congruent	Block2	congruent/STIM_023.jpg	100
2177.85	0.745	745.1	congruent	Block2	congruent/STIM_023.jpg	100
2182.092	0.959	959.1	congruent	Block2	congruent/STIM_023.jpg	99
2186.073	0.895	894.8	congruent	Block2	congruent/STIM_023.jpg	100
2189.943	0.77	770.1	congruent	Block2	congruent/STIM_024.jpg	99
2194.316	1.03	1029.9	congruent	Block2	congruent/STIM_024.jpg	100
2198.171	0.837	837.3	congruent	Block2	congruent/STIM_024.jpg	99
2200.973	0.579	578.9	congruent	Block2	congruent/STIM_024.jpg	99
2204.775	0.717	716.8	congruent	Block2	congruent/STIM_024.jpg	100
2208.651	0.871	871.1	congruent	Block2	congruent/STIM_025.jpg	100
2212.593	0.841	841.4	congruent	Block2	congruent/STIM_025.jpg	100
2217.205	0.656	655.5	congruent	Block2	congruent/STIM_025.jpg	99
2220.852	0.766	765.9	congruent	Block2	congruent/STIM_025.jpg	100
2225.242	0.977	977.0	congruent	Block2	congruent/STIM_025.jpg	100
2229.899	0.614	613.5	congruent	Block2	congruent/STIM_026.jpg	100
2234.362	0.791	790.6	congruent	Block2	congruent/STIM_026.jpg	100
2238.436	0.628	628.2	congruent	Block2	congruent/STIM_026.jpg	99
2243.025	0.554	554.3	congruent	Block2	congruent/STIM_026.jpg	100
2246.979	0.661	661.0	congruent	Block2	congruent/STIM_026.jpg	99
2250.743	0.722	722.0	congruent	Block2	congruent/STIM_027.jpg	100
2255.133	0.651	651.3	congruent	Block2	congruent/STIM_027.jpg	99
2258.174	0.99	990.2	congruent	Block2	congruent/STIM_027.jpg	99
2262.092	0.647	647.0	congruent	Block2	congruent/STIM_027.jpg	99
2264.982	0.738	737.8	congruent	Block2	congruent/STIM_027.jpg	100
2268.898	0.87	869.6	congruent	Block2	congruent/STIM_028.jpg	99
2272.1	1.013	1012.6	congruent	Block2	congruent/STIM_028.jpg	100
2276.861	0.787	787.4	congruent	Block2	congruent/STIM_028.jpg	99
2280.554	0.774	774.4	congruent	Block2	congruent/STIM_028.jpg	100
2284.661	0.691	691.2	congruent	Block2	congruent/STIM_028.jpg	99
2288.053	0.8	799.7	congruent	Block2	congruent/STIM_029.jpg	100
2292.184	0.558	557.7	congruent	Block2	congruent/STIM_029.jpg	100
2296.345	0.743	742.6	congruent	Block2	congruent/STIM_029.jpg	99
2300.422	0.661	660.6	congruent	Block2	congruent/STIM_029.jpg	99
2304.913	0.955	955.0	congruent	Block2	congruent/STIM_029.jpg	100
2309.724	0.882	882.2	incongruent	Block3	incongruent/STIM_000.jpg	100
2313.762	0.804	803.9	incongruent	Block3	incongruent/STIM_000.jpg	99
2317.787	0.994	993.7	incongruent	Block3	incongruent/STIM_000.jpg	99
2321.047	1.135	1134.7	incongruent	Block3	incongruent/STIM_000.jpg	100
2325.363	0.945	945.4	incongruent	Block3	incongruent/STIM_000.jpg	100
2329.209	1.014	1013.6	incongruent	Block3	incongruent/STIM_001.jpg	99
2334.143	1.14	1140.0	incongruent	Block3	incongruent/STIM_001.jpg	99
2338.082	1.073	1072.6	incongruent	Block3	incongruent/STIM_001.jpg	100
2341.345	0.652	652.0	incongruent	Block3	incongruent/STIM_001.jpg	100
2345.786	0.575	574.7	incongruent	Block3	incongruent/STIM_001.jpg	100
2348.625	0.806	805.8	incongruent	Block3	incongruent/STIM_002.jpg	99
2353.157	1.069	1069.3	incongruent	Block3	incongruent/STIM_002.jpg	99
2357.892	1.126	1125.6	incongruent	Block3	incongruent/STIM_002.jpg	99
2362.019	0.962	961.8	incongruent	Block3	incongruent/STIM_002.jpg	99
2365.284	0.692	691.7	incongruent	Block3	incongruent/STIM_002.jpg	99
2368.224	1.041	1040.6	incongruent	Block3	incongruent/STIM_003.jpg	99
2372.188	0.814	814.2	incongruent	Block3	incongruent/STIM_003.jpg	100
2376.78	1.096	1095.7	incongruent	Block3	incongruent/STIM_003.jpg	100
2381.55	1.11	1109.9	incongruent	Block3	incongruent/STIM_003.jpg	100
2385.144	1.114	1114.3	incongruent	Block3	incongruent/STIM_003.jpg	99
2388.588	0.874	874.1	incongruent	Block3	incongruent/STIM_004.jpg	100
2393.248	1.234	1234.1	incongruent	Block3	incongruent/STIM_004.jpg	99
2397.21	0.932	932.2	incongruent	Block3	incongruent/STIM_004.jpg	100
2400.301	0.728	727.6	incongruent	Block3	incongruent/STIM_004.jpg	100
2403.302	1.076	1076.5	incongruent	Block3	incongruent/STIM_004.jpg	100
2407.779	0.866	865.9	incongruent	Block3	incongruent/STIM_005.jpg	99
2410.924	0.585	584.7	incongruent	Block3	incongruent/STIM_005.jpg	99
2414.12	0.592	592.5	incongruent	Block3	incongruent/STIM_005.jpg	100
2416.892	0.851	851.0	incongruent	Block3	incongruent/STIM_005.jpg	99
2419.676	0.684	684.5	incongruent	Block3	incongruent/STIM_005.jpg	100
2423.74	0.922	921.8	incongruent	Block3	incongruent/STIM_006.jpg	99
2427.068	1.119	1119.4	incongruent	Block3	incongruent/STIM_006.jpg	100
2431.411	0.774	773.7	incongruent	Block3	incongruent/STIM_006.jpg	99
2435.942	0.623	622.6	incongruent	Block3	incongruent/STIM_006.jpg	100
2439.943	1.172	1172.2	incongruent	Block3	incongruent/STIM_006.jpg	99
2444.35	0.851	851.2	incongruent	Block3	incongruent/STIM_007.jpg	100
2448.841	1.176	1176.2	incongruent	Block3	incongruent/STIM_007.jpg	100
2453.238	0.852	851.6	incongruent	Block3	incongruent/STIM_007.jpg	100
2457.769	1.01	1010.2	incongruent	Block3	incongruent/STIM_007.jpg	100
2460.891	0.712	711.5	incongruent	Block3	incongruent/STIM_007.jpg	100
2465.457	0.972	972.5	incongruent	Block3	incongruent/STIM_008.jpg	99
2469.98	1.233	1232.7	incongruent	Block3	incongruent/STIM_008.jpg	99
2473.542	1.032	1032.0	incongruent	Block3	incongruent/STIM_008.jpg	100
2477.422	0.577	576.8	incongruent	Block3	incongruent/STIM_008.jpg	100
2480.647	0.918	918.3	incongruent	Block3	incongruent/STIM_008.jpg	100
2484.593	0.769	768.9	incongruent	Block3	incongruent/STIM_009.jpg	100
2487.566	0.872	871.6	incongruent	Block3	incongruent/STIM_009.jpg	99
2491.615	1.139	1138.7	incongruent	Block3	incongruent/STIM_009.jpg	100
2496.374	1.113	1113.4	incongruent	Block3	incongruent/STIM_009.jpg	99
2501.281	1.091	1090.7	incongruent	Block3	incongruent/STIM_009.jpg	100
2505.346	0.961	960.9	incongruent	Block3	incongruent/STIM_010.jpg	99
2509.871	0.683	683.3	incongruent	Block3	incongruent/STIM_010.jpg	99
2512.985	0.953	953.2	incongruent	Block3	incongruent/STIM_010.jpg	100
2516.856	0.619	618.9	incongruent	Block3	incongruent/STIM_010.jpg	100
2520.959	0.792	792.2	incongruent	Block3	incongruent/STIM_010.jpg	100
2524.795	0.708	708.5	incongruent	Block3	incongruent/STIM_011.jpg	100
2528.024	1.042	1042.4	incongruent	Block3	incongruent/STIM_011.jpg	99
2532.75	0.668	667.5	incongruent	Block3	incongruent/STIM_011.jpg	100
2536.232	0.668	668.2	incongruent	Block3	incongruent/STIM_011.jpg	99
2540.529	0.649	648.8	incongruent	Block3	incongruent/STIM_011.jpg	99
2544.109	0.965	965.2	incongruent	Block3	incongruent/STIM_012.jpg	99
2548.303	1.052	1051.9	incongruent	Block3	incongruent/STIM_012.jpg	100
2552.235	0.743	743.4	incongruent	Block3	incongruent/STIM_012.jpg	99
2556.525	0.764	764.4	incongruent	Block3	incongruent/STIM_012.jpg	99
2559.637	0.76	760.5	incongruent	Block3	incongruent/STIM_012.jpg	100
2562.929	1.099	1098.7	incongruent	Block3	incongruent/STIM_013.jpg	99
2567.25	0.811	810.8	incongruent	Block3	incongruent/STIM_013.jpg	99
2570.964	0.694	694.4	incongruent	Block3	incongruent/STIM_013.jpg	99
2575.228	1.204	1204.2	incongruent	Block3	incongruent/STIM_013.jpg	100
2579.796	1.023	1022.8	incongruent	Block3	incongruent/STIM_013.jpg	100
2583.142	1.067	1067.1	incongruent	Block3	incongruent/STIM_014.jpg	99
2586.539	0.88	879.8	incongruent	Block3	incongruent/STIM_014.jpg	100
2590.811	0.927	926.6	incongruent	Block3	incongruent/STIM_014.jpg	99
2594.31	0.739	738.6	incongruent	Block3	incongruent/STIM_014.jpg	99
2598.493	0.935	935.2	incongruent	Block3	incongruent/STIM_014.jpg	100
2602.782	0.748	748.1	incongruent	Block3	incongruent/STIM_015.jpg	99
2606.744	0.591	590.9	incongruent	Block3	incongruent/STIM_015.jpg	100
2610.847	0.786	785.6	incongruent	Block3	incongruent/STIM_015.jpg	99
2613.754	1.054	1054.2	incongruent	Block3	incongruent/STIM_015.jpg	100
2617.669	1.192	1191.8	incongruent	Block3	incongruent/STIM_015.jpg	99
2622.597	0.69	689.8	incongruent	Block3	incongruent/STIM_016.jpg	100
2626.078	1.215	1215.1	incongruent	Block3	incongruent/STIM_016.jpg	99
2630.272	1.132	1131.5	incongruent	Block3	incongruent/STIM_016.jpg	100
2634.15	0.9	899.7	incongruent	Block3	incongruent/STIM_016.jpg	100
2638.494	0.766	765.8	incongruent	Block3	incongruent/STIM_016.jpg	100
2642.416	0.845	844.8	incongruent	Block3	incongruent/STIM_017.jpg	100
2645.973	1.142	1141.8	incongruent	Block3	incongruent/STIM_017.jpg	99
2649.86	0.847	847.1	incongruent	Block3	incongruent/STIM_017.jpg	99
2652.653	1.062	1062.3	incongruent	Block3	incongruent/STIM_017.jpg	100
2655.846	1.127	1127.3	incongruent	Block3	incongruent/STIM_017.jpg	100
2660.215	0.989	988.9	incongruent	Block3	incongruent/STIM_018.jpg	99
2663.673	0.67	670.4	incongruent	Block3	incongruent/STIM_018.jpg	99
2667.168	0.902	901.9	incongruent	Block3	incongruent/STIM_018.jpg	99
2670.313	1.013	1013.2	incongruent	Block3	incongruent/STIM_018.jpg	99
2675.024	0.888	888.2	incongruent	Block3	incongruent/STIM_018.jpg	99
2679.555	0.793	793.0	incongruent	Block3	incongruent/STIM_019.jpg	100
2682.292	0.897	897.0	incongruent	Block3	incongruent/STIM_019.jpg	99
2686.166	0.604	604.0	incongruent	Block3	incongruent/STIM_019.jpg	99
2690.116	0.649	648.6	incongruent	Block3	incongruent/STIM_019.jpg	100
2693.993	0.954	953.7	incongruent	Block3	incongruent/STIM_019.jpg	100
2698.237	1.206	1206.2	incongruent	Block3	incongruent/STIM_020.jpg	100
2702.715	0.782	782.3	incongruent	Block3	incongruent/STIM_020.jpg	99
2705.798	0.998	997.5	incongruent	Block3	incongruent/STIM_020.jpg	99
2708.76	0.673	673.3	incongruent	Block3	incongruent/STIM_020.jpg	99
2711.727	0.96	959.6	incongruent	Block3	incongruent/STIM_020.jpg	100
2715.886	0.818	817.9	incongruent	Block3	incongruent/STIM_021.jpg	99
2719.164	1.06	1059.8	incongruent	Block3	incongruent/STIM_021.jpg	99
2722.418	0.718	718.1	incongruent	Block3	incongruent/STIM_021.jpg	99
2727.044	1.156	1156.2	incongruent	Block3	incongruent/STIM_021.jpg	100
2730.244	1.068	1068.2	incongruent	Block3	incongruent/STIM_021.jpg	99
2734.439	0.72	719.6	incongruent	Block3	incongruent/STIM_022.jpg	99
2738.629	1.206	1205.7	incongruent	Block3	incongruent/STIM_022.jpg	100
2743.526	1.12	1120.5	incongruent	Block3	incongruent/STIM_022.jpg	99
2747.286	0.552	551.9	incongruent	Block3	incongruent/STIM_022.jpg	99
2751.471	0.898	898.1	incongruent	Block3	incongruent/STIM_022.jpg	99
2755.966	1.098	1098.2	incongruent	Block3	incongruent/STIM_023.jpg	99
2759.472	0.896	895.8	incongruent	Block3	incongruent/STIM_023.jpg	100
2763.891	1.029	1029.2	incongruent	Block3	incongruent/STIM_023.jpg	99
2768.52	1.041	1041.2	incongruent	Block3	incongruent/STIM_023.jpg	99
2772.518	0.732	731.7	incongruent	Block3	incongruent/STIM_023.jpg	100
2776.394	0.594	593.9	incongruent	Block3	incongruent/STIM_024.jpg	99
2780.07	0.866	866.0	incongruent	Block3	incongruent/STIM_024.jpg	99
2784.485	0.974	973.5	incongruent	Block3	incongruent/STIM_024.jpg	100
2787.575	1.068	1067.9	incongruent	Block3	incongruent/STIM_024.jpg	100
2791.554	1.121	1121.2	incongruent	Block3	incongruent/STIM_024.jpg	100
2796.188	0.938	938.4	incongruent	Block3	incongruent/STIM_025.jpg	100
2799.361	0.533	533.2	incongruent	Block3	incongruent/STIM_025.jpg	99
2803.079	0.754	753.7	incongruent	Block3	incongruent/STIM_025.jpg	100
2805.799	0.799	798.6	incongruent	Block3	incongruent/STIM_025.jpg	99
2809.523	1.108	1107.7	incongruent	Block3	incongruent/STIM_025.jpg	99
2814.023	1.006	1005.9	incongruent	Block3	incongruent/STIM_026.jpg	100
2817.278	0.669	668.7	incongruent	Block3	incongruent/STIM_026.jpg	100
2820.509	0.656	655.5	incongruent	Block3	incongruent/STIM_026.jpg	100
2823.1	0.826	825.6	incongruent	Block3	incongruent/STIM_026.jpg	100
2826.735	0.593	592.9	incongruent	Block3	incongruent/STIM_026.jpg	99
2830.747	0.986	986.5	incongruent	Block3	incongruent/STIM_027.jpg	99
2834.026	0.621	620.7	incongruent	Block3	incongruent/STIM_027.jpg	99
2838.075	1.051	1050.7	incongruent	Block3	incongruent/STIM_027.jpg	99
2841.349	0.958	958.1	incongruent	Block3	incongruent/STIM_027.jpg	100
2846.041	0.882	881.8	incongruent	Block3	incongruent/STIM_027.jpg	99
2848.944	1.18	1180.0	incongruent	Block3	incongruent/STIM_028.jpg	99
2852.677	1.066	1065.7	incongruent	Block3	incongruent/STIM_028.jpg	99
2856.191	0.952	951.5	incongruent	Block3	incongruent/STIM_028.jpg	100
2859.283	0.839	838.8	incongruent	Block3	incongruent/STIM_028.jpg	99
2863.261	0.851	851.1	incongruent	Block3	incongruent/STIM_028.jpg	99
2867.23	0.87	870.1	incongruent	Block3	incongruent/STIM_029.jpg	100
2870.398	1.011	1011.4	incongruent	Block3	incongruent/STIM_029.jpg	100
2875.289	0.773	773.1	incongruent	Block3	incongruent/STIM_029.jpg	100
2878.603	0.562	561.9	incongruent	Block3	incongruent/STIM_029.jpg	100
2882.419	0.622	622.3	incongruent	Block3	incongruent/STIM_029.jpg	100
2886.143	0.943	943.3	congruent	Block3	congruent/STIM_000.jpg	100
2889.344	0.647	647.0	congruent	Block3	congruent/STIM_000.jpg	99
2892.833	0.579	579.0	congruent	Block3	congruent/STIM_000.jpg	99
2897.004	0.995	994.9	congruent	Block3	congruent/STIM_000.jpg	100
2899.907	0.915	914.6	congruent	Block3	congruent/STIM_000.jpg	100
2902.786	0.846	846.5	congruent	Block3	congruent/STIM_001.jpg	99
2906.707	0.635	634.9	congruent	Block3	congruent/STIM_001.jpg	100
2911.194	0.751	750.7	congruent	Block3	congruent/STIM_001.jpg	99
2914.926	0.751	750.8	congruent	Block3	congruent/STIM_001.jpg	99
2918.056	1.032	1031.7	congruent	Block3	congruent/STIM_001.jpg	99
2921.961	0.633	633.4	congruent	Block3	congruent/STIM_002.jpg	99
2925.102	0.934	933.7	congruent	Block3	congruent/STIM_002.jpg	100
2929.476	0.693	693.0	congruent	Block3	congruent/STIM_002.jpg	100
2932.605	0.596	595.6	congruent	Block3	congruent/STIM_002.jpg	100
2936.027	0.605	605.2	congruent	Block3	congruent/STIM_002.jpg	100
2939.644	0.661	660.8	congruent	Block3	congruent/STIM_003.jpg	99
2942.505	0.609	608.9	congruent	Block3	congruent/STIM_003.jpg	100
2945.154	0.75	750.1	congruent	Block3	congruent/STIM_003.jpg	100
2949.526	0.992	992.1	congruent	Block3	congruent/STIM_003.jpg	100
2953.38	0.679	678.9	congruent	Block3	congruent/STIM_003.jpg	100
2957.737	0.598	598.1	congruent	Block3	congruent/STIM_004.jpg	99
2960.995	0.722	721.7	congruent	Block3	congruent/STIM_004.jpg	99
2964.697	1.035	1034.8	congruent	Block3	congruent/STIM_004.jpg	100
2969.546	0.663	663.4	congruent	Block3	congruent/STIM_004.jpg	99
2972.615	0.792	792.1	congruent	Block3	congruent/STIM_004.jpg	99
2977.25	0.699	699.3	congruent	Block3	congruent/STIM_005.jpg	99
2981.474	1.054	1054.0	congruent	Block3	congruent/STIM_005.jpg	100
2985.826	0.809	809.3	congruent	Block3	congruent/STIM_005.jpg	100
2989.199	0.627	627.3	congruent	Block3	congruent/STIM_005.jpg	99
2993.504	0.918	918.3	congruent	Block3	congruent/STIM_005.jpg	99
2996.637	0.727	726.8	congruent	Block3	congruent/STIM_006.jpg	100
3000.395	0.569	568.6	congruent	Block3	congruent/STIM_006.jpg	99
3004.619	1.081	1080.7	congruent	Block3	congruent/STIM_006.jpg	100
3008.547	1.064	1064.1	congruent	Block3	congruent/STIM_006.jpg	100
3011.961	0.702	702.5	congruent	Block3	congruent/STIM_006.jpg	99
3016.151	0.637	636.8	congruent	Block3	congruent/STIM_007.jpg	99
3019.943	0.623	622.8	congruent	Block3	congruent/STIM_007.jpg	100
3023.1	0.887	887.4	congruent	Block3	congruent/STIM_007.jpg	99
3026.556	0.923	923.4	congruent	Block3	congruent/STIM_007.jpg	99
3030.724	0.906	906.2	congruent	Block3	congruent/STIM_007.jpg	100
3034.755	1.014	1014.5	congruent	Block3	congruent/STIM_008.jpg	99
3039.306	0.753	753.0	congruent	Block3	congruent/STIM_008.jpg	100
3042.782	0.948	947.6	congruent	Block3	congruent/STIM_008.jpg	100
3046.072	0.701	700.9	congruent	Block3	congruent/STIM_008.jpg	100
3050.073	0.728	727.9	congruent	Block3	congruent/STIM_008.jpg	99
3052.959	0.918	917.9	congruent	Block3	congruent/STIM_009.jpg	99
3056.636	0.647	646.6	congruent	Block3	congruent/STIM_009.jpg	100
3059.98	0.656	656.2	congruent	Block3	congruent/STIM_009.jpg	99
3063.416	0.56	559.7	congruent	Block3	congruent/STIM_009.jpg	100
3066.225	0.978	978.3	congruent	Block3	congruent/STIM_009.jpg	100
3069.505	0.953	953.1	congruent	Block3	congruent/STIM_010.jpg	100
3073.881	0.664	663.5	congruent	Block3	congruent/STIM_010.jpg	99
3078.268	0.8	800.2	congruent	Block3	congruent/STIM_010.jpg	99
3082.309	0.782	782.5	congruent	Block3	congruent/STIM_010.jpg	99
3086.397	0.757	757.3	congruent	Block3	congruent/STIM_010.jpg	99
3089.159	0.957	957.2	congruent	Block3	congruent/STIM_011.jpg	99
3092.236	0.867	867.1	congruent	Block3	congruent/STIM_011.jpg	99
3095.83	0.9	899.5	congruent	Block3	congruent/STIM_011.jpg	99
3099.79	0.763	763.2	congruent	Block3	congruent/STIM_011.jpg	100
3102.945	0.883	883.1	congruent	Block3	congruent/STIM_011.jpg	99
3106.186	0.817	816.6	congruent	Block3	congruent/STIM_012.jpg	99
3110.271	0.908	907.9	congruent	Block3	congruent/STIM_012.jpg	100
3114.381	0.983	982.7	congruent	Block3	congruent/STIM_012.jpg	99
3118.004	0.713	712.6	congruent	Block3	congruent/STIM_012.jpg	99
3122.238	0.928	927.8	congruent	Block3	congruent/STIM_012.jpg	100
3126.835	0.733	732.8	congruent	Block3	congruent/STIM_013.jpg	99
3131.375	0.877	877.0	congruent	Block3	congruent/STIM_013.jpg	99
3136.075	0.895	895.2	congruent	Block3	congruent/STIM_013.jpg	100
3140.754	1.019	1018.6	congruent	Block3	congruent/STIM_013.jpg	99
3145.335	0.94	940.2	congruent	Block3	congruent/STIM_013.jpg	100
3148.229	0.544	544.2	congruent	Block3	congruent/STIM_014.jpg	100
3151.444	0.898	898.1	congruent	Block3	congruent/STIM_014.jpg	99
3155.426	0.827	827.2	congruent	Block3	congruent/STIM_014.jpg	100
3159.597	0.897	897.1	congruent	Block3	congruent/STIM_014.jpg	100
3162.928	0.607	606.7	congruent	Block3	congruent/STIM_014.jpg	100
3166.054	0.592	592.4	congruent	Block3	congruent/STIM_015.jpg	100
3169.993	0.788	788.3	congruent	Block3	congruent/STIM_015.jpg	100
3174.584	1.078	1078.1	congruent	Block3	congruent/STIM_015.jpg	100
3178.515	0.672	672.3	congruent	Block3	congruent/STIM_015.jpg	100
3182.464	0.99	990.1	congruent	Block3	congruent/STIM_015.jpg	100
3187.255	0.855	855.0	congruent	Block3	congruent/STIM_016.jpg	99
3191.03	0.573	573.3	congruent	Block3	congruent/STIM_016.jpg	99
3193.63	0.942	942.5	congruent	Block3	congruent/STIM_016.jpg	100
3197.945	0.702	701.9	congruent	Block3	congruent/STIM_016.jpg	100
3202.074	0.872	872.1	congruent	Block3	congruent/STIM_016.jpg	100
3206.723	0.72	720.1	congruent	Block3	congruent/STIM_017.jpg	99
3209.891	0.634	634.1	congruent	Block3	congruent/STIM_017.jpg	99
3212.431	0.706	705.5	congruent	Block3	congruent/STIM_017.jpg	100
3216.073	0.652	651.7	congruent	Block3	congruent/STIM_017.jpg	100
3219.383	0.73	729.6	congruent	Block3	congruent/STIM_017.jpg	100
3222.799	0.529	528.8	congruent	Block3	congruent/STIM_018.jpg	99
3225.734	0.652	652.4	congruent	Block3	congruent/STIM_018.jpg	99
3229.578	0.804	803.6	congruent	Block3	congruent/STIM_018.jpg	100
3233.113	0.718	718.2	congruent	Block3	congruent/STIM_018.jpg	100
3236.273	0.56	560.0	congruent	Block3	congruent/STIM_018.jpg	100
3240.279	0.714	713.8	congruent	Block3	congruent/STIM_019.jpg	99
3243.885	0.614	614.1	congruent	Block3	congruent/STIM_019.jpg	99
3247.156	0.756	755.5	congruent	Block3	congruent/STIM_019.jpg	100
3251.243	0.782	781.7	congruent	Block3	congruent/STIM_019.jpg	99
3255.465	0.852	852.3	congruent	Block3	congruent/STIM_019.jpg	100
3259.406	0.879	879.1	congruent	Block3	congruent/STIM_020.jpg	99
3262.458	0.617	616.8	congruent	Block3	congruent/STIM_020.jpg	99
3265.482	0.936	936.2	congruent	Block3	congruent/STIM_020.jpg	99
3269.941	0.706	706.3	congruent	Block3	congruent/STIM_020.jpg	99
3274.145	0.572	571.7	congruent	Block3	congruent/STIM_020.jpg	100
3278.333	1.1	1099.7	congruent	Block3	congruent/STIM_021.jpg	99
3281.91	0.748	748.1	congruent	Block3	congruent/STIM_021.jpg	100
3285.359	0.893	893.2	congruent	Block3	congruent/STIM_021.jpg	99
3289.644	0.787	786.6	congruent	Block3	congruent/STIM_021.jpg	99
3293.341	0.676	675.8	congruent	Block3	congruent/STIM_021.jpg	99
3297.014	0.723	722.7	congruent	Block3	congruent/STIM_022.jpg	100
3301.109	0.622	621.6	congruent	Block3	congruent/STIM_022.jpg	100
3303.891	0.798	798.3	congruent	Block3	congruent/STIM_022.jpg	99
3308.417	0.962	962.2	congruent	Block3	congruent/STIM_022.jpg	100
3312.786	0.673	673.3	congruent	Block3	congruent/STIM_022.jpg	100
3315.912	0.795	794.7	congruent	Block3	congruent/STIM_023.jpg	99
3318.971	0.723	723.3	congruent	Block3	congruent/STIM_023.jpg	99
3322.871	0.644	643.5	congruent	Block3	congruent/STIM_023.jpg	99
3326.42	0.683	683.3	congruent	Block3	congruent/STIM_023.jpg	100
3329.31	0.883	882.9	congruent	Block3	congruent/STIM_023.jpg	99
3333.144	0.805	805.3	congruent	Block3	congruent/STIM_024.jpg	99
3336.312	0.727	727.4	congruent	Block3	congruent/STIM_024.jpg	99
3340.495	0.698	697.9	congruent	Block3	congruent/STIM_024.jpg	99
3343.839	1.007	1007.2	congruent	Block3	congruent/STIM_024.jpg	100
3347.17	0.731	731.3	congruent	Block3	congruent/STIM_024.jpg	99
3350.662	0.713	712.8	congruent	Block3	congruent/STIM_025.jpg	100
3354.856	0.542	541.9	congruent	Block3	congruent/STIM_025.jpg	99
3357.405	0.826	826.5	congruent	Block3	congruent/STIM_025.jpg	100
3361.122	0.957	956.9	congruent	Block3	congruent/STIM_025.jpg	100
3364.365	0.692	691.6	congruent	Block3	congruent/STIM_025.jpg	99
3367.285	0.912	912.5	congruent	Block3	congruent/STIM_026.jpg	100
3370.843	0.821	821.2	congruent	Block3	congruent/STIM_026.jpg	99
3373.97	1.02	1019.6	congruent	Block3	congruent/STIM_026.jpg	100
3377.282	0.697	696.8	congruent	Block3	congruent/STIM_026.jpg	99
3380.315	0.697	697.4	congruent	Block3	congruent/STIM_026.jpg	100
3384.074	0.964	964.4	congruent	Block3	congruent/STIM_027.jpg	99
3387.647	0.656	655.8	congruent	Block3	congruent/STIM_027.jpg	100
3390.848	0.735	734.6	congruent	Block3	congruent/STIM_027.jpg	100
3393.64	0.665	665.1	congruent	Block3	congruent/STIM_027.jpg	99
3396.558	0.955	954.8	congruent	Block3	congruent/STIM_027.jpg	99
3399.754	0.845	845.2	congruent	Block3	congruent/STIM_028.jpg	100
3403.223	0.881	880.6	congruent	Block3	congruent/STIM_028.jpg	99
3407.605	0.689	689.2	congruent	Block3	congruent/STIM_028.jpg	99
3411.313	0.966	966.5	congruent	Block3	congruent/STIM_028.jpg	99
3414.167	0.861	860.8	congruent	Block3	congruent/STIM_028.jpg	99
3417.991	0.766	765.6	congruent	Block3	congruent/STIM_029.jpg	100
3422.566	0.837	837.1	congruent	Block3	congruent/STIM_029.jpg	100
3425.525	0.777	776.8	congruent	Block3	congruent/STIM_029.jpg	99
3428.51	0.762	762.0	congruent	Block3	congruent/STIM_029.jpg	100
3431.241	0.776	776.5	congruent	Block3	congruent/STIM_029.jpg	100
