onset	duration	accuracy	trial_type	learning_stage	stimulus
0.0	0.996	correct	2back	Block1	2back/STIM_000.jpg
3.685	1.059	correct	2back	Block1	2back/STIM_000.jpg
8.026	1.304	correct	2back	Block1	2back/STIM_000.jpg
12.211	0.833	correct	2back	Block1	2back/STIM_001.jpg
16.292	0.746	correct	2back	Block1	2back/STIM_001.jpg
19.93	0.941	correct	2back	Block1	2back/STIM_001.jpg
23.505	1.185	correct	2back	Block1	2back/STIM_002.jpg
28.303	1.1	correct	2back	Block1	2back/STIM_002.jpg
32.431	0.806	correct	2back	Block1	2back/STIM_002.jpg
35.577	0.776	correct	2back	Block1	2back/STIM_003.jpg
40.222	0.698	correct	2back	Block1	2back/STIM_003.jpg
43.155	1.078	correct	2back	Block1	2back/STIM_003.jpg
47.406	1.129	correct	2back	Block1	2back/STIM_004.jpg
50.91	1.308	incorrect	2back	Block1	2back/STIM_004.jpg
55.703	1.002	correct	2back	Block1	2back/STIM_004.jpg
59.937	1.243	correct	2back	Block1	2back/STIM_005.jpg
63.827	1.361	correct	2back	Block1	2back/STIM_005.jpg
68.231	0.886	correct	2back	Block1	2back/STIM_005.jpg
72.222	0.768	correct	2back	Block1	2back/STIM_006.jpg
75.798	1.117	correct	2back	Block1	2back/STIM_006.jpg
80.44	0.88	correct	2back	Block1	2back/STIM_006.jpg
83.542	0.765	correct	2back	Block1	2back/STIM_007.jpg
87.131	0.749	correct	2back	Block1	2back/STIM_007.jpg
90.361	0.627	incorrect	2back	Block1	2back/STIM_007.jpg
93.799	0.646	incorrect	2back	Block1	2back/STIM_008.jpg
97.976	0.885	correct	2back	Block1	2back/STIM_008.jpg
101.496	0.965	correct	2back	Block1	2back/STIM_008.jpg
105.457	1.025	incorrect	2back	Block1	2back/STIM_009.jpg
108.712	0.814	correct	2back	Block1	2back/STIM_009.jpg
111.901	1.117	correct	2back	Block1	2back/STIM_009.jpg
115.017	0.828	correct	2back	Block1	2back/STIM_010.jpg
119.328	1.366	correct	2back	Block1	2back/STIM_010.jpg
123.636	1.228	correct	2back	Block1	2back/STIM_010.jpg
127.051	0.739	correct	2back	Block1	2back/STIM_011.jpg
130.076	1.1	correct	2back	Block1	2back/STIM_011.jpg
134.515	0.826	correct	2back	Block1	2back/STIM_011.jpg
139.067	1.38	correct	2back	Block1	2back/STIM_012.jpg
143.782	1.238	correct	2back	Block1	2back/STIM_012.jpg
147.687	0.738	correct	2back	Block1	2back/STIM_012.jpg
151.439	0.959	correct	2back	Block1	2back/STIM_013.jpg
154.554	0.782	incorrect	2back	Block1	2back/STIM_013.jpg
158.79	0.873	correct	2back	Block1	2back/STIM_013.jpg
162.18	0.758	correct	2back	Block1	2back/STIM_014.jpg
166.561	0.943	correct	2back	Block1	2back/STIM_014.jpg
171.088	1.197	correct	2back	Block1	2back/STIM_014.jpg
175.015	0.829	correct	2back	Block1	2back/STIM_015.jpg
179.73	0.697	correct	2back	Block1	2back/STIM_015.jpg
183.07	0.744	correct	2back	Block1	2back/STIM_015.jpg
186.573	1.101	incorrect	2back	Block1	2back/STIM_016.jpg
190.165	0.712	correct	2back	Block1	2back/STIM_016.jpg
193.762	1.223	correct	2back	Block1	2back/STIM_016.jpg
198.103	1.05	correct	2back	Block1	2back/STIM_017.jpg
202.712	0.913	incorrect	2back	Block1	2back/STIM_017.jpg
206.43	0.671	correct	2back	Block1	2back/STIM_017.jpg
209.701	0.624	correct	2back	Block1	2back/STIM_018.jpg
212.419	0.794	incorrect	2back	Block1	2back/STIM_018.jpg
217.136	1.054	correct	2back	Block1	2back/STIM_018.jpg
221.681	1.122	correct	2back	Block1	2back/STIM_019.jpg
226.13	1.306	correct	2back	Block1	2back/STIM_019.jpg
230.419	1.209	correct	2back	Block1	2back/STIM_019.jpg
234.526	0.977	correct	2back	Block1	2back/STIM_020.jpg
238.82	0.72	correct	2back	Block1	2back/STIM_020.jpg
242.23	1.072	correct	2back	Block1	2back/STIM_020.jpg
247.093	1.281	correct	2back	Block1	2back/STIM_021.jpg
251.791	0.95	correct	2back	Block1	2back/STIM_021.jpg
256.416	0.687	correct	2back	Block1	2back/STIM_021.jpg
259.304	1.11	correct	2back	Block1	2back/STIM_022.jpg
264.128	1.356	correct	2back	Block1	2back/STIM_022.jpg
268.34	1.25	correct	2back	Block1	2back/STIM_022.jpg
272.43	1.156	incorrect	2back	Block1	2back/STIM_023.jpg
276.615	1.016	correct	2back	Block1	2back/STIM_023.jpg
281.592	1.073	correct	2back	Block1	2back/STIM_023.jpg
285.603	1.423	correct	2back	Block1	2back/STIM_024.jpg
290.309	0.989	correct	2back	Block1	2back/STIM_024.jpg
293.693	0.653	correct	2back	Block1	2back/STIM_024.jpg
297.783	1.437	correct	2back	Block1	2back/STIM_025.jpg
302.131	0.603	correct	2back	Block1	2back/STIM_025.jpg
305.995	0.778	correct	2back	Block1	2back/STIM_025.jpg
308.887	0.72	correct	2back	Block1	2back/STIM_026.jpg
311.611	1.102	correct	2back	Block1	2back/STIM_026.jpg
314.909	1.094	correct	2back	Block1	2back/STIM_026.jpg
319.711	1.008	correct	2back	Block1	2back/STIM_027.jpg
323.79	0.711	correct	2back	Block1	2back/STIM_027.jpg
327.177	0.567	incorrect	2back	Block1	2back/STIM_027.jpg
330.436	1.381	correct	2back	Block1	2back/STIM_028.jpg
334.504	1.196	incorrect	2back	Block1	2back/STIM_028.jpg
338.739	1.106	correct	2back	Block1	2back/STIM_028.jpg
341.948	0.656	correct	2back	Block1	2back/STIM_029.jpg
346.049	1.305	correct	2back	Block1	2back/STIM_029.jpg
350.358	0.981	correct	2back	Block1	2back/STIM_029.jpg
354.695	1.051	correct	2back	Block1	2back/STIM_030.jpg
359.044	1.317	correct	2back	Block1	2back/STIM_030.jpg
363.774	0.681	correct	2back	Block1	2back/STIM_030.jpg
367.173	1.133	incorrect	2back	Block1	2back/STIM_031.jpg
370.303	0.781	correct	2back	Block1	2back/STIM_031.jpg
373.968	0.749	correct	2back	Block1	2back/STIM_031.jpg
376.827	1.137	incorrect	2back	Block1	2back/STIM_032.jpg
380.594	0.725	correct	2back	Block1	2back/STIM_032.jpg
383.555	0.74	correct	2back	Block1	2back/STIM_032.jpg
388.003	1.154	correct	2back	Block1	2back/STIM_033.jpg
391.191	0.763	correct	2back	Block1	2back/STIM_033.jpg
394.308	0.806	correct	2back	Block1	2back/STIM_033.jpg
398.604	1.111	correct	2back	Block1	2back/STIM_034.jpg
401.844	1.187	correct	2back	Block1	2back/STIM_034.jpg
405.796	0.673	incorrect	2back	Block1	2back/STIM_034.jpg
410.325	0.621	correct	2back	Block1	2back/STIM_035.jpg
414.769	1.336	correct	2back	Block1	2back/STIM_035.jpg
418.68	0.87	correct	2back	Block1	2back/STIM_035.jpg
423.303	1.214	correct	2back	Block1	2back/STIM_036.jpg
427.105	1.363	incorrect	2back	Block1	2back/STIM_036.jpg
430.729	1.201	correct	2back	Block1	2back/STIM_036.jpg
435.793	1.092	correct	2back	Block1	2back/STIM_037.jpg
439.54	0.891	correct	2back	Block1	2back/STIM_037.jpg
442.959	0.981	correct	2back	Block1	2back/STIM_037.jpg
447.733	1.34	incorrect	2back	Block1	2back/STIM_038.jpg
451.822	0.956	correct	2back	Block1	2back/STIM_038.jpg
455.551	0.723	correct	2back	Block1	2back/STIM_038.jpg
458.448	1.369	correct	2back	Block1	2back/STIM_039.jpg
462.696	0.954	correct	2back	Block1	2back/STIM_039.jpg
466.267	0.614	correct	2back	Block1	2back/STIM_039.jpg
469.498	0.488	correct	0back	Block1	0back/STIM_000.jpg
472.989	0.544	correct	0back	Block1	0back/STIM_000.jpg
476.667	0.46	correct	0back	Block1	0back/STIM_000.jpg
479.253	0.586	correct	0back	Block1	0back/STIM_001.jpg
483.593	0.768	correct	0back	Block1	0back/STIM_001.jpg
487.887	0.438	correct	0back	Block1	0back/STIM_001.jpg
491.152	0.424	correct	0back	Block1	0back/STIM_002.jpg
495.482	0.556	correct	0back	Block1	0back/STIM_002.jpg
499.425	0.433	correct	0back	Block1	0back/STIM_002.jpg
503.058	0.475	correct	0back	Block1	0back/STIM_003.jpg
505.987	0.546	correct	0back	Block1	0back/STIM_003.jpg
509.215	0.632	correct	0back	Block1	0back/STIM_003.jpg
512.176	0.623	correct	0back	Block1	0back/STIM_004.jpg
516.554	0.563	correct	0back	Block1	0back/STIM_004.jpg
520.825	0.526	correct	0back	Block1	0back/STIM_004.jpg
523.564	0.737	correct	0back	Block1	0back/STIM_005.jpg
527.858	0.738	correct	0back	Block1	0back/STIM_005.jpg
532.26	0.755	correct	0back	Block1	0back/STIM_005.jpg
535.506	0.585	correct	0back	Block1	0back/STIM_006.jpg
539.223	0.731	incorrect	0back	Block1	0back/STIM_006.jpg
542.591	0.825	correct	0back	Block1	0back/STIM_006.jpg
546.011	0.76	correct	0back	Block1	0back/STIM_007.jpg
549.031	0.76	correct	0back	Block1	0back/STIM_007.jpg
552.564	0.492	correct	0back	Block1	0back/STIM_007.jpg
556.3	0.744	correct	0back	Block1	0back/STIM_008.jpg
560.831	0.713	correct	0back	Block1	0back/STIM_008.jpg
565.35	0.472	correct	0back	Block1	0back/STIM_008.jpg
568.279	0.827	correct	0back	Block1	0back/STIM_009.jpg
572.009	0.808	correct	0back	Block1	0back/STIM_009.jpg
574.976	0.696	correct	0back	Block1	0back/STIM_009.jpg
578.684	0.612	correct	0back	Block1	0back/STIM_010.jpg
582.541	0.453	correct	0back	Block1	0back/STIM_010.jpg
585.212	0.736	correct	0back	Block1	0back/STIM_010.jpg
589.1	0.704	correct	0back	Block1	0back/STIM_011.jpg
593.102	0.764	correct	0back	Block1	0back/STIM_011.jpg
597.834	0.497	correct	0back	Block1	0back/STIM_011.jpg
601.326	0.76	correct	0back	Block1	0back/STIM_012.jpg
604.604	0.73	correct	0back	Block1	0back/STIM_012.jpg
608.818	0.512	correct	0back	Block1	0back/STIM_012.jpg
612.558	0.817	correct	0back	Block1	0back/STIM_013.jpg
617.192	0.457	correct	0back	Block1	0back/STIM_013.jpg
620.942	0.812	correct	0back	Block1	0back/STIM_013.jpg
625.211	0.468	correct	0back	Block1	0back/STIM_014.jpg
628.456	0.605	correct	0back	Block1	0back/STIM_014.jpg
632.081	0.758	correct	0back	Block1	0back/STIM_014.jpg
635.867	0.724	correct	0back	Block1	0back/STIM_015.jpg
640.252	0.499	correct	0back	Block1	0back/STIM_015.jpg
643.031	0.808	correct	0back	Block1	0back/STIM_015.jpg
646.46	0.507	correct	0back	Block1	0back/STIM_016.jpg
650.594	0.69	correct	0back	Block1	0back/STIM_016.jpg
653.756	0.644	correct	0back	Block1	0back/STIM_016.jpg
656.614	0.648	correct	0back	Block1	0back/STIM_017.jpg
660.776	0.5	correct	0back	Block1	0back/STIM_017.jpg
664.759	0.54	correct	0back	Block1	0back/STIM_017.jpg
667.993	0.7	correct	0back	Block1	0back/STIM_018.jpg
671.091	0.44	correct	0back	Block1	0back/STIM_018.jpg
674.535	0.715	correct	0back	Block1	0back/STIM_018.jpg
678.777	0.655	correct	0back	Block1	0back/STIM_019.jpg
682.331	0.697	correct	0back	Block1	0back/STIM_019.jpg
685.489	0.624	correct	0back	Block1	0back/STIM_019.jpg
689.814	0.986	correct	2back	Block2	2back/STIM_000.jpg
693.788	0.987	correct	2back	Block2	2back/STIM_000.jpg
697.641	0.473	correct	2back	Block2	2back/STIM_000.jpg
701.846	0.576	correct	2back	Block2	2back/STIM_001.jpg
705.804	0.967	correct	2back	Block2	2back/STIM_001.jpg
709.847	0.636	correct	2back	Block2	2back/STIM_001.jpg
713.374	0.974	correct	2back	Block2	2back/STIM_002.jpg
716.919	0.515	correct	2back	Block2	2back/STIM_002.jpg
720.974	0.779	correct	2back	Block2	2back/STIM_002.jpg
725.254	0.88	correct	2back	Block2	2back/STIM_003.jpg
728.686	0.931	correct	2back	Block2	2back/STIM_003.jpg
732.634	0.746	correct	2back	Block2	2back/STIM_003.jpg
736.579	0.991	correct	2back	Block2	2back/STIM_004.jpg
741.03	0.837	incorrect	2back	Block2	2back/STIM_004.jpg
745.016	1.024	correct	2back	Block2	2back/STIM_004.jpg
749.771	1.105	correct	2back	Block2	2back/STIM_005.jpg
753.002	0.975	correct	2back	Block2	2back/STIM_005.jpg
757.193	1.032	correct	2back	Block2	2back/STIM_005.jpg
762.092	0.889	correct	2back	Block2	2back/STIM_006.jpg
766.603	0.936	correct	2back	Block2	2back/STIM_006.jpg
770.226	0.5	correct	2back	Block2	2back/STIM_006.jpg
772.719	1.048	correct	2back	Block2	2back/STIM_007.jpg
777.029	0.656	incorrect	2back	Block2	2back/STIM_007.jpg
780.536	0.795	correct	2back	Block2	2back/STIM_007.jpg
785.1	0.678	correct	2back	Block2	2back/STIM_008.jpg
788.697	0.564	incorrect	2back	Block2	2back/STIM_008.jpg
792.09	0.679	correct	2back	Block2	2back/STIM_008.jpg
794.931	0.834	correct	2back	Block2	2back/STIM_009.jpg
798.354	1.02	correct	2back	Block2	2back/STIM_009.jpg
802.264	0.736	correct	2back	Block2	2back/STIM_009.jpg
805.948	0.803	correct	2back	Block2	2back/STIM_010.jpg
809.004	0.695	correct	2back	Block2	2back/STIM_010.jpg
813.465	0.812	correct	2back	Block2	2back/STIM_010.jpg
817.559	0.675	correct	2back	Block2	2back/STIM_011.jpg
821.944	0.915	correct	2back	Block2	2back/STIM_011.jpg
826.613	0.925	correct	2back	Block2	2back/STIM_011.jpg
831.072	0.992	correct	2back	Block2	2back/STIM_012.jpg
835.406	0.884	incorrect	2back	Block2	2back/STIM_012.jpg
839.381	0.49	correct	2back	Block2	2back/STIM_012.jpg
842.62	0.609	correct	2back	Block2	2back/STIM_013.jpg
846.412	0.795	incorrect	2back	Block2	2back/STIM_013.jpg
850.911	0.523	correct	2back	Block2	2back/STIM_013.jpg
855.369	0.787	incorrect	2back	Block2	2back/STIM_014.jpg
858.204	1.025	correct	2back	Block2	2back/STIM_014.jpg
862.257	1.047	correct	2back	Block2	2back/STIM_014.jpg
866.496	0.825	correct	2back	Block2	2back/STIM_015.jpg
870.172	1.129	correct	2back	Block2	2back/STIM_015.jpg
873.391	0.755	correct	2back	Block2	2back/STIM_015.jpg
877.001	1.1	correct	2back	Block2	2back/STIM_016.jpg
880.183	0.931	correct	2back	Block2	2back/STIM_016.jpg
884.788	0.54	correct	2back	Block2	2back/STIM_016.jpg
888.575	0.576	correct	2back	Block2	2back/STIM_017.jpg
891.442	0.822	correct	2back	Block2	2back/STIM_017.jpg
895.903	0.65	correct	2back	Block2	2back/STIM_017.jpg
899.805	1.178	correct	2back	Block2	2back/STIM_018.jpg
903.321	0.97	incorrect	2back	Block2	2back/STIM_018.jpg
907.185	0.639	correct	2back	Block2	2back/STIM_018.jpg
911.181	0.951	correct	2back	Block2	2back/STIM_019.jpg
914.928	0.712	correct	2back	Block2	2back/STIM_019.jpg
918.867	0.871	correct	2back	Block2	2back/STIM_019.jpg
922.528	0.892	correct	2back	Block2	2back/STIM_020.jpg
925.982	0.869	correct	2back	Block2	2back/STIM_020.jpg
930.739	0.985	correct	2back	Block2	2back/STIM_020.jpg
934.316	1.017	correct	2back	Block2	2back/STIM_021.jpg
939.241	1.145	correct	2back	Block2	2back/STIM_021.jpg
944.155	0.859	correct	2back	Block2	2back/STIM_021.jpg
947.148	1.071	correct	2back	Block2	2back/STIM_022.jpg
951.652	1.158	correct	2back	Block2	2back/STIM_022.jpg
955.644	0.71	correct	2back	Block2	2back/STIM_022.jpg
959.832	0.768	correct	2back	Block2	2back/STIM_023.jpg
962.961	1.156	correct	2back	Block2	2back/STIM_023.jpg
967.494	0.62	correct	2back	Block2	2back/STIM_023.jpg
971.002	0.914	correct	2back	Block2	2back/STIM_024.jpg
975.778	0.602	correct	2back	Block2	2back/STIM_024.jpg
979.505	0.868	correct	2back	Block2	2back/STIM_024.jpg
983.228	1.194	correct	2back	Block2	2back/STIM_025.jpg
987.306	0.678	correct	2back	Block2	2back/STIM_025.jpg
991.185	0.522	correct	2back	Block2	2back/STIM_025.jpg
995.51	0.784	correct	2back	Block2	2back/STIM_026.jpg
998.852	0.936	correct	2back	Block2	2back/STIM_026.jpg
1002.687	0.824	correct	2back	Block2	2back/STIM_026.jpg
1006.712	0.538	correct	2back	Block2	2back/STIM_027.jpg
1009.75	0.699	correct	2back	Block2	2back/STIM_027.jpg
1012.665	0.856	correct	2back	Block2	2back/STIM_027.jpg
1017.134	0.832	correct	2back	Block2	2back/STIM_028.jpg
1021.058	0.695	correct	2back	Block2	2back/STIM_028.jpg
1023.861	0.775	correct	2back	Block2	2back/STIM_028.jpg
1027.472	1.157	correct	2back	Block2	2back/STIM_029.jpg
1032.022	1.148	correct	2back	Block2	2back/STIM_029.jpg
1036.666	0.826	correct	2back	Block2	2back/STIM_029.jpg
1039.962	0.546	correct	2back	Block2	2back/STIM_030.jpg
1044.265	1.118	correct	2back	Block2	2back/STIM_030.jpg
1047.901	0.792	correct	2back	Block2	2back/STIM_030.jpg
1051.143	0.883	correct	2back	Block2	2back/STIM_031.jpg
1054.081	0.687	correct	2back	Block2	2back/STIM_031.jpg
1058.238	0.828	correct	2back	Block2	2back/STIM_031.jpg
1063.022	0.966	correct	2back	Block2	2back/STIM_032.jpg
1066.814	1.056	correct	2back	Block2	2back/STIM_032.jpg
1071.002	0.484	correct	2back	Block2	2back/STIM_032.jpg
1074.779	0.88	correct	2back	Block2	2back/STIM_033.jpg
1077.882	0.625	correct	2back	Block2	2back/STIM_033.jpg
1081.381	0.694	correct	2back	Block2	2back/STIM_033.jpg
1084.164	1.044	correct	2back	Block2	2back/STIM_034.jpg
1087.708	0.703	correct	2back	Block2	2back/STIM_034.jpg
1091.423	1.076	correct	2back	Block2	2back/STIM_034.jpg
1095.197	0.578	incorrect	2back	Block2	2back/STIM_035.jpg
1099.439	0.889	correct	2back	Block2	2back/STIM_035.jpg
1103.407	0.788	correct	2back	Block2	2back/STIM_035.jpg
1106.367	1.17	incorrect	2back	Block2	2back/STIM_036.jpg
1111.392	1.122	correct	2back	Block2	2back/STIM_036.jpg
1114.745	0.53	correct	2back	Block2	2back/STIM_036.jpg
1118.654	0.573	correct	2back	Block2	2back/STIM_037.jpg
1121.831	1.139	correct	2back	Block2	2back/STIM_037.jpg
1126.27	0.63	correct	2back	Block2	2back/STIM_037.jpg
1129.391	0.818	correct	2back	Block2	2back/STIM_038.jpg
1132.372	1.007	correct	2back	Block2	2back/STIM_038.jpg
1137.096	0.852	correct	2back	Block2	2back/STIM_038.jpg
1140.06	0.64	correct	2back	Block2	2back/STIM_039.jpg
1144.527	0.666	incorrect	2back	Block2	2back/STIM_039.jpg
1148.181	0.545	correct	2back	Block2	2back/STIM_039.jpg
1152.389	0.781	correct	0back	Block2	0back/STIM_000.jpg
1155.976	0.704	correct	0back	Block2	0back/STIM_000.jpg
1159.909	0.816	correct	0back	Block2	0back/STIM_000.jpg
1163.097	0.601	correct	0back	Block2	0back/STIM_001.jpg
1167.092	0.67	correct	0back	Block2	0back/STIM_001.jpg
1171.028	0.804	correct	0back	Block2	0back/STIM_001.jpg
1174.305	0.554	correct	0back	Block2	0back/STIM_002.jpg
1177.175	0.794	correct	0back	Block2	0back/STIM_002.jpg
1180.969	0.505	correct	0back	Block2	0back/STIM_002.jpg
1183.986	0.748	correct	0back	Block2	0back/STIM_003.jpg
1187.394	0.803	correct	0back	Block2	0back/STIM_003.jpg
1191.241	0.609	incorrect	0back	Block2	0back/STIM_003.jpg
1195.07	0.666	correct	0back	Block2	0back/STIM_004.jpg
1198.739	0.681	correct	0back	Block2	0back/STIM_004.jpg
1202.749	0.797	correct	0back	Block2	0back/STIM_004.jpg
1207.104	0.579	correct	0back	Block2	0back/STIM_005.jpg
1211.244	0.496	correct	0back	Block2	0back/STIM_005.jpg
1214.725	0.81	correct	0back	Block2	0back/STIM_005.jpg
1218.18	0.642	correct	0back	Block2	0back/STIM_006.jpg
1222.506	0.748	correct	0back	Block2	0back/STIM_006.jpg
1227.05	0.664	correct	0back	Block2	0back/STIM_006.jpg
1231.101	0.674	correct	0back	Block2	0back/STIM_007.jpg
1235.3	0.647	correct	0back	Block2	0back/STIM_007.jpg
1239.15	0.614	correct	0back	Block2	0back/STIM_007.jpg
1242.178	0.734	correct	0back	Block2	0back/STIM_008.jpg
1246.88	0.57	correct	0back	Block2	0back/STIM_008.jpg
1250.271	0.484	correct	0back	Block2	0back/STIM_008.jpg
1253.81	0.491	correct	0back	Block2	0back/STIM_009.jpg
1257.186	0.659	correct	0back	Block2	0back/STIM_009.jpg
1261.474	0.499	correct	0back	Block2	0back/STIM_009.jpg
1264.202	0.448	correct	0back	Block2	0back/STIM_010.jpg
1267.928	0.643	correct	0back	Block2	0back/STIM_010.jpg
1272.165	0.45	correct	0back	Block2	0back/STIM_010.jpg
1276.049	0.719	correct	0back	Block2	0back/STIM_011.jpg
1279.723	0.58	correct	0back	Block2	0back/STIM_011.jpg
1283.328	0.826	correct	0back	Block2	0back/STIM_011.jpg
1287.512	0.702	incorrect	0back	Block2	0back/STIM_012.jpg
1291.124	0.565	correct	0back	Block2	0back/STIM_012.jpg
1294.716	0.635	correct	0back	Block2	0back/STIM_012.jpg
1297.919	0.544	correct	0back	Block2	0back/STIM_013.jpg
1300.529	0.734	correct	0back	Block2	0back/STIM_013.jpg
1304.925	0.48	correct	0back	Block2	0back/STIM_013.jpg
1308.805	0.731	correct	0back	Block2	0back/STIM_014.jpg
1313.19	0.501	incorrect	0back	Block2	0back/STIM_014.jpg
1317.48	0.824	correct	0back	Block2	0back/STIM_014.jpg
1321.966	0.45	correct	0back	Block2	0back/STIM_015.jpg
1325.655	0.567	correct	0back	Block2	0back/STIM_015.jpg
1329.83	0.813	correct	0back	Block2	0back/STIM_015.jpg
1333.134	0.787	incorrect	0back	Block2	0back/STIM_016.jpg
1336.181	0.733	correct	0back	Block2	0back/STIM_016.jpg
1340.579	0.486	correct	0back	Block2	0back/STIM_016.jpg
1343.178	0.507	correct	0back	Block2	0back/STIM_017.jpg
1346.406	0.625	correct	0back	Block2	0back/STIM_017.jpg
1349.6	0.464	correct	0back	Block2	0back/STIM_017.jpg
1353.194	0.527	correct	0back	Block2	0back/STIM_018.jpg
1356.235	0.472	correct	0back	Block2	0back/STIM_018.jpg
1360.346	0.766	correct	0back	Block2	0back/STIM_018.jpg
1363.658	0.602	correct	0back	Block2	0back/STIM_019.jpg
1367.713	0.767	correct	0back	Block2	0back/STIM_019.jpg
1370.732	0.802	correct	0back	Block2	0back/STIM_019.jpg
1374.759	0.713	correct	2back	Block3	2back/STIM_000.jpg
1378.139	0.725	correct	2back	Block3	2back/STIM_000.jpg
1381.488	0.55	correct	2back	Block3	2back/STIM_000.jpg
1385.007	0.875	correct	2back	Block3	2back/STIM_001.jpg
1388.108	0.594	correct	2back	Block3	2back/STIM_001.jpg
1391.792	0.78	correct	2back	Block3	2back/STIM_001.jpg
1395.421	0.566	correct	2back	Block3	2back/STIM_002.jpg
1399.245	0.86	correct	2back	Block3	2back/STIM_002.jpg
1402.638	0.674	correct	2back	Block3	2back/STIM_002.jpg
1406.356	1.009	correct	2back	Block3	2back/STIM_003.jpg
1409.816	0.738	correct	2back	Block3	2back/STIM_003.jpg
1413.357	0.707	correct	2back	Block3	2back/STIM_003.jpg
1416.273	0.929	correct	2back	Block3	2back/STIM_004.jpg
1420.244	0.993	correct	2back	Block3	2back/STIM_004.jpg
1424.278	0.717	correct	2back	Block3	2back/STIM_004.jpg
1427.455	0.619	incorrect	2back	Block3	2back/STIM_005.jpg
1431.801	0.748	correct	2back	Block3	2back/STIM_005.jpg
1436.312	0.883	correct	2back	Block3	2back/STIM_005.jpg
1439.195	0.58	correct	2back	Block3	2back/STIM_006.jpg
1443.1	0.799	correct	2back	Block3	2back/STIM_006.jpg
1445.964	0.936	correct	2back	Block3	2back/STIM_006.jpg
1449.124	0.791	correct	2back	Block3	2back/STIM_007.jpg
1453.577	1.001	correct	2back	Block3	2back/STIM_007.jpg
1457.982	0.944	correct	2back	Block3	2back/STIM_007.jpg
1461.773	0.825	correct	2back	Block3	2back/STIM_008.jpg
1465.763	0.657	correct	2back	Block3	2back/STIM_008.jpg
1470.006	0.848	correct	2back	Block3	2back/STIM_008.jpg
1473.414	0.539	incorrect	2back	Block3	2back/STIM_009.jpg
1476.51	0.706	correct	2back	Block3	2back/STIM_009.jpg
1480.727	0.557	correct	2back	Block3	2back/STIM_009.jpg
1484.665	0.701	correct	2back	Block3	2back/STIM_010.jpg
1487.595	0.565	correct	2back	Block3	2back/STIM_010.jpg
1490.95	0.718	correct	2back	Block3	2back/STIM_010.jpg
1494.693	0.779	correct	2back	Block3	2back/STIM_011.jpg
1498.587	0.598	correct	2back	Block3	2back/STIM_011.jpg
1502.67	0.44	correct	2back	Block3	2back/STIM_011.jpg
1506.088	0.738	correct	2back	Block3	2back/STIM_012.jpg
1509.391	0.636	correct	2back	Block3	2back/STIM_012.jpg
1512.511	0.754	correct	2back	Block3	2back/STIM_012.jpg
1516.125	0.572	correct	2back	Block3	2back/STIM_013.jpg
1520.535	0.63	correct	2back	Block3	2back/STIM_013.jpg
1523.841	0.887	correct	2back	Block3	2back/STIM_013.jpg
1528.584	0.96	correct	2back	Block3	2back/STIM_014.jpg
1531.557	0.67	correct	2back	Block3	2back/STIM_014.jpg
1535.947	0.73	correct	2back	Block3	2back/STIM_014.jpg
1540.498	0.917	correct	2back	Block3	2back/STIM_015.jpg
1543.528	0.463	correct	2back	Block3	2back/STIM_015.jpg
1547.775	1.005	correct	2back	Block3	2back/STIM_015.jpg
1551.812	0.831	correct	2back	Block3	2back/STIM_016.jpg
1554.998	0.515	correct	2back	Block3	2back/STIM_016.jpg
1558.049	0.699	correct	2back	Block3	2back/STIM_016.jpg
1562.307	0.914	correct	2back	Block3	2back/STIM_017.jpg
1566.934	0.588	correct	2back	Block3	2back/STIM_017.jpg
1569.716	0.702	correct	2back	Block3	2back/STIM_017.jpg
1573.521	1.001	correct	2back	Block3	2back/STIM_018.jpg
1578.211	0.876	correct	2back	Block3	2back/STIM_018.jpg
1582.564	0.841	correct	2back	Block3	2back/STIM_018.jpg
1585.796	0.84	incorrect	2back	Block3	2back/STIM_019.jpg
1590.551	0.924	correct	2back	Block3	2back/STIM_019.jpg
1594.353	0.593	correct	2back	Block3	2back/STIM_019.jpg
1597.816	0.619	incorrect	2back	Block3	2back/STIM_020.jpg
1601.376	0.707	correct	2back	Block3	2back/STIM_020.jpg
1605.329	0.819	correct	2back	Block3	2back/STIM_020.jpg
1608.147	0.797	correct	2back	Block3	2back/STIM_021.jpg
1611.904	0.977	incorrect	2back	Block3	2back/STIM_021.jpg
1616.189	0.996	correct	2back	Block3	2back/STIM_021.jpg
1620.025	0.782	correct	2back	Block3	2back/STIM_022.jpg
1622.985	0.786	correct	2back	Block3	2back/STIM_022.jpg
1627.72	0.552	correct	2back	Block3	2back/STIM_022.jpg
1631.476	0.651	correct	2back	Block3	2back/STIM_023.jpg
1634.722	0.597	correct	2back	Block3	2back/STIM_023.jpg
1638.971	0.853	correct	2back	Block3	2back/STIM_023.jpg
1643.61	0.44	correct	2back	Block3	2back/STIM_024.jpg
1647.794	0.954	correct	2back	Block3	2back/STIM_024.jpg
1652.573	0.749	correct	2back	Block3	2back/STIM_024.jpg
1656.71	0.977	correct	2back	Block3	2back/STIM_025.jpg
1661.192	0.531	correct	2back	Block3	2back/STIM_025.jpg
1664.878	0.458	correct	2back	Block3	2back/STIM_025.jpg
1668.232	0.587	correct	2back	Block3	2back/STIM_026.jpg
1672.275	0.564	correct	2back	Block3	2back/STIM_026.jpg
1675.154	0.878	correct	2back	Block3	2back/STIM_026.jpg
1679.912	0.732	correct	2back	Block3	2back/STIM_027.jpg
1683.745	0.725	correct	2back	Block3	2back/STIM_027.jpg
1687.673	0.871	correct	2back	Block3	2back/STIM_027.jpg
1690.872	0.95	correct	2back	Block3	2back/STIM_028.jpg
1694.846	0.964	correct	2back	Block3	2back/STIM_028.jpg
1698.978	0.653	correct	2back	Block3	2back/STIM_028.jpg
1702.524	0.982	correct	2back	Block3	2back/STIM_029.jpg
1707.081	0.444	correct	2back	Block3	2back/STIM_029.jpg
1709.795	0.566	correct	2back	Block3	2back/STIM_029.jpg
1713.303	0.932	correct	2back	Block3	2back/STIM_030.jpg
1718.047	0.801	correct	2back	Block3	2back/STIM_030.jpg
1721.566	0.735	correct	2back	Block3	2back/STIM_030.jpg
1724.985	0.663	correct	2back	Block3	2back/STIM_031.jpg
1727.812	1.013	correct	2back	Block3	2back/STIM_031.jpg
1731.329	0.543	correct	2back	Block3	2back/STIM_031.jpg
1734.981	0.471	correct	2back	Block3	2back/STIM_032.jpg
1737.885	0.485	correct	2back	Block3	2back/STIM_032.jpg
1740.561	0.703	correct	2back	Block3	2back/STIM_032.jpg
1743.774	0.663	correct	2back	Block3	2back/STIM_033.jpg
1747.602	0.505	correct	2back	Block3	2back/STIM_033.jpg
1750.643	0.714	correct	2back	Block3	2back/STIM_033.jpg
1753.835	0.731	correct	2back	Block3	2back/STIM_034.jpg
1758.012	0.907	correct	2back	Block3	2back/STIM_034.jpg
1762.371	0.479	correct	2back	Block3	2back/STIM_034.jpg
1765.024	0.95	correct	2back	Block3	2back/STIM_035.jpg
1769.527	0.596	correct	2back	Block3	2back/STIM_035.jpg
1773.482	0.777	correct	2back	Block3	2back/STIM_035.jpg
1776.437	0.756	correct	2back	Block3	2back/STIM_036.jpg
1779.582	0.85	correct	2back	Block3	2back/STIM_036.jpg
1783.411	0.87	correct	2back	Block3	2back/STIM_036.jpg
1787.347	0.787	correct	2back	Block3	2back/STIM_037.jpg
1790.514	0.454	correct	2back	Block3	2back/STIM_037.jpg
1793.738	0.702	correct	2back	Block3	2back/STIM_037.jpg
1797.007	0.721	correct	2back	Block3	2back/STIM_038.jpg
1800.727	0.485	correct	2back	Block3	2back/STIM_038.jpg
1804.508	0.63	incorrect	2back	Block3	2back/STIM_038.jpg
1807.484	0.688	correct	2back	Block3	2back/STIM_039.jpg
1811.108	0.493	correct	2back	Block3	2back/STIM_039.jpg
1814.609	0.769	correct	2back	Block3	2back/STIM_039.jpg
1817.831	0.737	correct	0back	Block3	0back/STIM_000.jpg
1821.141	0.568	incorrect	0back	Block3	0back/STIM_000.jpg
1824.723	0.73	correct	0back	Block3	0back/STIM_000.jpg
1827.925	0.797	correct	0back	Block3	0back/STIM_001.jpg
1832.586	0.62	correct	0back	Block3	0back/STIM_001.jpg
1836.986	0.621	correct	0back	Block3	0back/STIM_001.jpg
1840.487	0.695	correct	0back	Block3	0back/STIM_002.jpg
1844.052	0.558	correct	0back	Block3	0back/STIM_002.jpg
1848.591	0.593	correct	0back	Block3	0back/STIM_002.jpg
1852.998	0.554	correct	0back	Block3	0back/STIM_003.jpg
1856.885	0.565	correct	0back	Block3	0back/STIM_003.jpg
1860.803	0.434	correct	0back	Block3	0back/STIM_003.jpg
1863.904	0.746	correct	0back	Block3	0back/STIM_004.jpg
1868.516	0.565	correct	0back	Block3	0back/STIM_004.jpg
1872.578	0.49	correct	0back	Block3	0back/STIM_004.jpg
1876.608	0.668	correct	0back	Block3	0back/STIM_005.jpg
1881.215	0.563	correct	0back	Block3	0back/STIM_005.jpg
1884.494	0.603	correct	0back	Block3	0back/STIM_005.jpg
1888.807	0.722	correct	0back	Block3	0back/STIM_006.jpg
1892.278	0.692	correct	0back	Block3	0back/STIM_006.jpg
1895.864	0.709	correct	0back	Block3	0back/STIM_006.jpg
1899.006	0.572	correct	0back	Block3	0back/STIM_007.jpg
1902.885	0.507	correct	0back	Block3	0back/STIM_007.jpg
1905.908	0.444	correct	0back	Block3	0back/STIM_007.jpg
1909.011	0.605	correct	0back	Block3	0back/STIM_008.jpg
1912.296	0.517	correct	0back	Block3	0back/STIM_008.jpg
1914.869	0.752	incorrect	0back	Block3	0back/STIM_008.jpg
1918.521	0.662	incorrect	0back	Block3	0back/STIM_009.jpg
1921.447	0.721	incorrect	0back	Block3	0back/STIM_009.jpg
1925.983	0.679	correct	0back	Block3	0back/STIM_009.jpg
1929.832	0.528	correct	0back	Block3	0back/STIM_010.jpg
1932.58	0.431	correct	0back	Block3	0back/STIM_010.jpg
1935.189	0.666	correct	0back	Block3	0back/STIM_010.jpg
1939.672	0.65	correct	0back	Block3	0back/STIM_011.jpg
1942.93	0.521	correct	0back	Block3	0back/STIM_011.jpg
1947.006	0.553	correct	0back	Block3	0back/STIM_011.jpg
1950.423	0.426	correct	0back	Block3	0back/STIM_012.jpg
1953.8	0.824	correct	0back	Block3	0back/STIM_012.jpg
1957.091	0.774	correct	0back	Block3	0back/STIM_012.jpg
1959.935	0.785	correct	0back	Block3	0back/STIM_013.jpg
1962.793	0.516	correct	0back	Block3	0back/STIM_013.jpg
1966.287	0.469	correct	0back	Block3	0back/STIM_013.jpg
1970.423	0.477	correct	0back	Block3	0back/STIM_014.jpg
1974.104	0.487	correct	0back	Block3	0back/STIM_014.jpg
1976.728	0.602	correct	0back	Block3	0back/STIM_014.jpg
1980.227	0.429	correct	0back	Block3	0back/STIM_015.jpg
1984.417	0.571	correct	0back	Block3	0back/STIM_015.jpg
1988.305	0.468	correct	0back	Block3	0back/STIM_015.jpg
1992.616	0.59	correct	0back	Block3	0back/STIM_016.jpg
1995.475	0.593	correct	0back	Block3	0back/STIM_016.jpg
1999.743	0.653	correct	0back	Block3	0back/STIM_016.jpg
2002.851	0.776	correct	0back	Block3	0back/STIM_017.jpg
2006.937	0.661	correct	0back	Block3	0back/STIM_017.jpg
2010.07	0.787	correct	0back	Block3	0back/STIM_017.jpg
2014.128	0.541	incorrect	0back	Block3	0back/STIM_018.jpg
2016.969	0.744	correct	0back	Block3	0back/STIM_018.jpg
2020.7	0.755	correct	0back	Block3	0back/STIM_018.jpg
2024.13	0.516	correct	0back	Block3	0back/STIM_019.jpg
2028.395	0.486	correct	0back	Block3	0back/STIM_019.jpg
2031.187	0.676	incorrect	0back	Block3	0back/STIM_019.jpg
2033.944	0.618	correct	2back	Block4	2back/STIM_000.jpg
2037.517	0.489	correct	2back	Block4	2back/STIM_000.jpg
2040.097	0.9	correct	2back	Block4	2back/STIM_000.jpg
2044.659	0.644	correct	2back	Block4	2back/STIM_001.jpg
2047.938	0.874	correct	2back	Block4	2back/STIM_001.jpg
2052.724	0.971	correct	2back	Block4	2back/STIM_001.jpg
2055.811	0.644	correct	2back	Block4	2back/STIM_002.jpg
2060.244	0.891	correct	2back	Block4	2back/STIM_002.jpg
2064.815	0.857	correct	2back	Block4	2back/STIM_002.jpg
2069.026	0.651	correct	2back	Block4	2back/STIM_003.jpg
2072.421	0.517	correct	2back	Block4	2back/STIM_003.jpg
2076.845	0.78	correct	2back	Block4	2back/STIM_003.jpg
2081.363	0.916	correct	2back	Block4	2back/STIM_004.jpg
2085.995	0.561	correct	2back	Block4	2back/STIM_004.jpg
2088.592	0.598	correct	2back	Block4	2back/STIM_004.jpg
2092.19	0.762	correct	2back	Block4	2back/STIM_005.jpg
2095.685	0.824	correct	2back	Block4	2back/STIM_005.jpg
2100.04	0.791	correct	2back	Block4	2back/STIM_005.jpg
2104.03	0.971	correct	2back	Block4	2back/STIM_006.jpg
2108.515	0.774	correct	2back	Block4	2back/STIM_006.jpg
2112.978	0.64	incorrect	2back	Block4	2back/STIM_006.jpg
2116.138	0.67	correct	2back	Block4	2back/STIM_007.jpg
2120.269	0.772	correct	2back	Block4	2back/STIM_007.jpg
2123.178	0.898	correct	2back	Block4	2back/STIM_007.jpg
2127.427	0.987	correct	2back	Block4	2back/STIM_008.jpg
2132.283	0.7	correct	2back	Block4	2back/STIM_008.jpg
2134.986	0.707	correct	2back	Block4	2back/STIM_008.jpg
2139.192	0.829	correct	2back	Block4	2back/STIM_009.jpg
2143.165	0.957	correct	2back	Block4	2back/STIM_009.jpg
2148.041	0.888	correct	2back	Block4	2back/STIM_009.jpg
2151.985	0.911	correct	2back	Block4	2back/STIM_010.jpg
2156.66	0.778	correct	2back	Block4	2back/STIM_010.jpg
2161.251	1.011	correct	2back	Block4	2back/STIM_010.jpg
2164.68	0.522	correct	2back	Block4	2back/STIM_011.jpg
2169.132	0.907	correct	2back	Block4	2back/STIM_011.jpg
2173.817	0.444	correct	2back	Block4	2back/STIM_011.jpg
2177.425	0.483	correct	2back	Block4	2back/STIM_012.jpg
2180.934	0.705	correct	2back	Block4	2back/STIM_012.jpg
2185.46	0.622	correct	2back	Block4	2back/STIM_012.jpg
2189.215	0.5	correct	2back	Block4	2back/STIM_013.jpg
2192.757	0.936	correct	2back	Block4	2back/STIM_013.jpg
2196.737	0.845	correct	2back	Block4	2back/STIM_013.jpg
2200.254	0.52	correct	2back	Block4	2back/STIM_014.jpg
2203.418	0.737	correct	2back	Block4	2back/STIM_014.jpg
2206.528	0.96	correct	2back	Block4	2back/STIM_014.jpg
2209.831	0.635	correct	2back	Block4	2back/STIM_015.jpg
2213.794	0.578	correct	2back	Block4	2back/STIM_015.jpg
2216.78	0.884	correct	2back	Block4	2back/STIM_015.jpg
2220.536	0.565	correct	2back	Block4	2back/STIM_016.jpg
2223.103	0.524	correct	2back	Block4	2back/STIM_016.jpg
2227.474	0.487	correct	2back	Block4	2back/STIM_016.jpg
2231.846	0.718	correct	2back	Block4	2back/STIM_017.jpg
2236.255	0.878	correct	2back	Block4	2back/STIM_017.jpg
2240.143	0.495	correct	2back	Block4	2back/STIM_017.jpg
2242.986	0.856	correct	2back	Block4	2back/STIM_018.jpg
2247.586	0.902	correct	2back	Block4	2back/STIM_018.jpg
2250.914	0.487	correct	2back	Block4	2back/STIM_018.jpg
2254.036	0.537	correct	2back	Block4	2back/STIM_019.jpg
2257.271	0.642	incorrect	2back	Block4	2back/STIM_019.jpg
2260.271	0.54	correct	2back	Block4	2back/STIM_019.jpg
2262.977	0.518	correct	2back	Block4	2back/STIM_020.jpg
2265.623	0.613	correct	2back	Block4	2back/STIM_020.jpg
2270.133	0.473	correct	2back	Block4	2back/STIM_020.jpg
2272.974	0.94	correct	2back	Block4	2back/STIM_021.jpg
2277.285	0.665	correct	2back	Block4	2back/STIM_021.jpg
2281.014	0.987	correct	2back	Block4	2back/STIM_021.jpg
2284.8	0.596	correct	2back	Block4	2back/STIM_022.jpg
2289.328	0.883	correct	2back	Block4	2back/STIM_022.jpg
2292.235	0.614	correct	2back	Block4	2back/STIM_022.jpg
2294.959	0.749	correct	2back	Block4	2back/STIM_023.jpg
2299.141	0.989	correct	2back	Block4	2back/STIM_023.jpg
2303.455	0.647	correct	2back	Block4	2back/STIM_023.jpg
2307.985	1.009	correct	2back	Block4	2back/STIM_024.jpg
2312.9	0.809	correct	2back	Block4	2back/STIM_024.jpg
2316.403	0.904	correct	2back	Block4	2back/STIM_024.jpg
2319.88	0.55	correct	2back	Block4	2back/STIM_025.jpg
2324.374	0.87	correct	2back	Block4	2back/STIM_025.jpg
2327.48	0.474	correct	2back	Block4	2back/STIM_025.jpg
2330.888	0.485	correct	2back	Block4	2back/STIM_026.jpg
2334.788	0.493	correct	2back	Block4	2back/STIM_026.jpg
2339.224	0.482	correct	2back	Block4	2back/STIM_026.jpg
2342.013	0.851	correct	2back	Block4	2back/STIM_027.jpg
2345.761	0.519	correct	2back	Block4	2back/STIM_027.jpg
2349.014	0.748	correct	2back	Block4	2back/STIM_027.jpg
2352.146	0.976	correct	2back	Block4	2back/STIM_028.jpg
2355.126	0.556	correct	2back	Block4	2back/STIM_028.jpg
2359.347	0.859	correct	2back	Block4	2back/STIM_028.jpg
2363.501	0.775	correct	2back	Block4	2back/STIM_029.jpg
2367.812	0.861	correct	2back	Block4	2back/STIM_029.jpg
2370.965	0.875	correct	2back	Block4	2back/STIM_029.jpg
2375.238	0.992	correct	2back	Block4	2back/STIM_030.jpg
2378.702	0.775	correct	2back	Block4	2back/STIM_030.jpg
2381.696	1.012	correct	2back	Block4	2back/STIM_030.jpg
2385.026	0.536	correct	2back	Block4	2back/STIM_031.jpg
2389.362	0.836	correct	2back	Block4	2back/STIM_031.jpg
2393.093	0.759	correct	2back	Block4	2back/STIM_031.jpg
2397.609	0.615	incorrect	2back	Block4	2back/STIM_032.jpg
2401.913	0.557	correct	2back	Block4	2back/STIM_032.jpg
2405.369	0.712	correct	2back	Block4	2back/STIM_032.jpg
2408.442	0.865	correct	2back	Block4	2back/STIM_033.jpg
2412.223	0.435	correct	2back	Block4	2back/STIM_033.jpg
2415.644	0.919	correct	2back	Block4	2back/STIM_033.jpg
2418.662	0.994	correct	2back	Block4	2back/STIM_034.jpg
2423.262	0.879	correct	2back	Block4	2back/STIM_034.jpg
2426.919	0.514	correct	2back	Block4	2back/STIM_034.jpg
2429.819	0.962	correct	2back	Block4	2back/STIM_035.jpg
2433.888	0.451	correct	2back	Block4	2back/STIM_035.jpg
2436.436	0.683	correct	2back	Block4	2back/STIM_035.jpg
2441.048	0.486	correct	2back	Block4	2back/STIM_036.jpg
2443.578	0.65	correct	2back	Block4	2back/STIM_036.jpg
2446.384	0.744	correct	2back	Block4	2back/STIM_036.jpg
2450.859	0.694	correct	2back	Block4	2back/STIM_037.jpg
2453.87	0.76	correct	2back	Block4	2back/STIM_037.jpg
2458.517	0.637	correct	2back	Block4	2back/STIM_037.jpg
2461.69	0.792	correct	2back	Block4	2back/STIM_038.jpg
2465.52	0.915	correct	2back	Block4	2back/STIM_038.jpg
2470.334	0.837	incorrect	2back	Block4	2back/STIM_038.jpg
2475.126	0.587	correct	2back	Block4	2back/STIM_039.jpg
2479.282	0.816	correct	2back	Block4	2back/STIM_039.jpg
2483.194	0.511	correct	2back	Block4	2back/STIM_039.jpg
2487.071	0.808	correct	0back	Block4	0back/STIM_000.jpg
2491.448	0.701	correct	0back	Block4	0back/STIM_000.jpg
2495.006	0.58	correct	0back	Block4	0back/STIM_000.jpg
2498.957	0.682	correct	0back	Block4	0back/STIM_001.jpg
2501.632	0.774	incorrect	0back	Block4	0back/STIM_001.jpg
2505.422	0.822	correct	0back	Block4	0back/STIM_001.jpg
2510.206	0.708	correct	0back	Block4	0back/STIM_002.jpg
2514.483	0.756	correct	0back	Block4	0back/STIM_002.jpg
2517.479	0.472	correct	0back	Block4	0back/STIM_002.jpg
2520.333	0.477	correct	0back	Block4	0back/STIM_003.jpg
2523.827	0.516	correct	0back	Block4	0back/STIM_003.jpg
2527.033	0.653	correct	0back	Block4	0back/STIM_003.jpg
2530.772	0.789	correct	0back	Block4	0back/STIM_004.jpg
2534.736	0.698	correct	0back	Block4	0back/STIM_004.jpg
2539.321	0.795	correct	0back	Block4	0back/STIM_004.jpg
2542.786	0.483	correct	0back	Block4	0back/STIM_005.jpg
2546.022	0.726	correct	0back	Block4	0back/STIM_005.jpg
2549.53	0.696	correct	0back	Block4	0back/STIM_005.jpg
2553.988	0.461	correct	0back	Block4	0back/STIM_006.jpg
2557.641	0.659	correct	0back	Block4	0back/STIM_006.jpg
2560.603	0.735	correct	0back	Block4	0back/STIM_006.jpg
2563.865	0.46	correct	0back	Block4	0back/STIM_007.jpg
2568.025	0.544	correct	0back	Block4	0back/STIM_007.jpg
2571.083	0.584	correct	0back	Block4	0back/STIM_007.jpg
2573.695	0.419	correct	0back	Block4	0back/STIM_008.jpg
2577.363	0.586	correct	0back	Block4	0back/STIM_008.jpg
2581.275	0.609	correct	0back	Block4	0back/STIM_008.jpg
2584.733	0.646	correct	0back	Block4	0back/STIM_009.jpg
2589.165	0.759	correct	0back	Block4	0back/STIM_009.jpg
2592.231	0.632	correct	0back	Block4	0back/STIM_009.jpg
2594.858	0.568	correct	0back	Block4	0back/STIM_010.jpg
2599.126	0.425	correct	0back	Block4	0back/STIM_010.jpg
2603.514	0.74	correct	0back	Block4	0back/STIM_010.jpg
2606.302	0.578	correct	0back	Block4	0back/STIM_011.jpg
2610.354	0.499	correct	0back	Block4	0back/STIM_011.jpg
2613.468	0.642	correct	0back	Block4	0back/STIM_011.jpg
2616.429	0.758	correct	0back	Block4	0back/STIM_012.jpg
2619.805	0.774	incorrect	0back	Block4	0back/STIM_012.jpg
2623.363	0.628	correct	0back	Block4	0back/STIM_012.jpg
2626.505	0.739	correct	0back	Block4	0back/STIM_013.jpg
2631.018	0.649	correct	0back	Block4	0back/STIM_013.jpg
2633.831	0.702	correct	0back	Block4	0back/STIM_013.jpg
2637.256	0.617	correct	0back	Block4	0back/STIM_014.jpg
2641.641	0.604	correct	0back	Block4	0back/STIM_014.jpg
2645.295	0.661	correct	0back	Block4	0back/STIM_014.jpg
2649.205	0.634	correct	0back	Block4	0back/STIM_015.jpg
2652.885	0.462	correct	0back	Block4	0back/STIM_015.jpg
2655.524	0.808	correct	0back	Block4	0back/STIM_015.jpg
2660.066	0.53	correct	0back	Block4	0back/STIM_016.jpg
2663.62	0.618	correct	0back	Block4	0back/STIM_016.jpg
2666.692	0.481	correct	0back	Block4	0back/STIM_016.jpg
2669.267	0.818	correct	0back	Block4	0back/STIM_017.jpg
2672.484	0.482	correct	0back	Block4	0back/STIM_017.jpg
2675.33	0.516	correct	0back	Block4	0back/STIM_017.jpg
2679.418	0.485	correct	0back	Block4	0back/STIM_018.jpg
2682.279	0.745	correct	0back	Block4	0back/STIM_018.jpg
2686.391	0.792	correct	0back	Block4	0back/STIM_018.jpg
2690.823	0.481	correct	0back	Block4	0back/STIM_019.jpg
2694.246	0.511	correct	0back	Block4	0back/STIM_019.jpg
2698.102	0.779	correct	0back	Block4	0back/STIM_019.jpg
