onset	duration	response_time_ms	trial_type	learning_stage	stimulus	response_port
0.0	3.347	3346.9	navigation	Trial1	navigation/STIM_000.jpg	99
6.163	2.592	2592.4	navigation	Trial1	navigation/STIM_000.jpg	99
11.046	3.064	3064.0	navigation	Trial1	navigation/STIM_000.jpg	100
17.721	3.019	3018.7	navigation	Trial1	navigation/STIM_000.jpg	100
23.033	1.61	1610.3	navigation	Trial1	navigation/STIM_000.jpg	100
28.767	2.721	2721.4	navigation	Trial1	navigation/STIM_000.jpg	100
34.546	4.475	4474.6	navigation	Trial1	navigation/STIM_001.jpg	100
41.644	2.54	2540.1	navigation	Trial1	navigation/STIM_001.jpg	99
46.69	3.324	3324.2	navigation	Trial1	navigation/STIM_001.jpg	100
53.956	3.506	3505.9	navigation	Trial1	navigation/STIM_001.jpg	99
61.408	1.937	1937.0	navigation	Trial1	navigation/STIM_001.jpg	100
66.209	2.506	2505.6	navigation	Trial1	navigation/STIM_001.jpg	100
71.75	2.495	2495.0	navigation	Trial1	navigation/STIM_002.jpg	99
77.183	2.203	2202.6	navigation	Trial1	navigation/STIM_002.jpg	100
82.718	3.879	3879.2	navigation	Trial1	navigation/STIM_002.jpg	99
90.056	3.408	3407.9	navigation	Trial1	navigation/STIM_002.jpg	99
96.732	2.506	2505.5	navigation	Trial1	navigation/STIM_002.jpg	100
101.935	2.371	2370.6	navigation	Trial1	navigation/STIM_002.jpg	100
108.17	2.043	2043.1	navigation	Trial1	navigation/STIM_003.jpg	99
113.162	2.033	2033.3	navigation	Trial1	navigation/STIM_003.jpg	100
117.67	2.239	2239.3	navigation	Trial1	navigation/STIM_003.jpg	99
123.356	1.659	1659.1	navigation	Trial1	navigation/STIM_003.jpg	100
127.724	2.02	2020.2	navigation	Trial1	navigation/STIM_003.jpg	99
132.202	2.28	2280.0	navigation	Trial1	navigation/STIM_003.jpg	99
137.294	3.12	3119.6	navigation	Trial1	navigation/STIM_004.jpg	100
143.792	3.568	3567.8	navigation	Trial1	navigation/STIM_004.jpg	100
151.02	3.757	3757.4	navigation	Trial1	navigation/STIM_004.jpg	99
157.197	2.314	2313.9	navigation	Trial1	navigation/STIM_004.jpg	100
162.023	2.468	2468.0	navigation	Trial1	navigation/STIM_004.jpg	100
167.653	2.203	2202.8	navigation	Trial1	navigation/STIM_004.jpg	100
172.931	4.42	4419.9	navigation	Trial1	navigation/STIM_005.jpg	100
180.629	3.259	3259.2	navigation	Trial1	navigation/STIM_005.jpg	100
186.637	4.092	4092.1	navigation	Trial1	navigation/STIM_005.jpg	100
195.001	3.676	3675.5	navigation	Trial1	navigation/STIM_005.jpg	100
201.973	2.869	2869.1	navigation	Trial1	navigation/STIM_005.jpg	100
207.935	1.644	1643.5	navigation	Trial1	navigation/STIM_005.jpg	100
213.388	2.924	2924.1	navigation	Trial1	navigation/STIM_006.jpg	100
219.691	3.306	3305.7	navigation	Trial1	navigation/STIM_006.jpg	99
226.698	3.982	3982.1	navigation	Trial1	navigation/STIM_006.jpg	99
234.296	1.799	1798.8	navigation	Trial1	navigation/STIM_006.jpg	99
240.209	3.251	3251.2	navigation	Trial1	navigation/STIM_006.jpg	100
247.623	2.216	2216.0	navigation	Trial1	navigation/STIM_006.jpg	100
254.007	4.571	4571.0	navigation	Trial1	navigation/STIM_007.jpg	99
262.039	3.906	3906.1	navigation	Trial1	navigation/STIM_007.jpg	99
268.287	3.267	3266.6	navigation	Trial1	navigation/STIM_007.jpg	99
275.035	1.655	1654.6	navigation	Trial1	navigation/STIM_007.jpg	100
280.056	2.343	2343.3	navigation	Trial1	navigation/STIM_007.jpg	100
286.031	2.083	2082.8	navigation	Trial1	navigation/STIM_007.jpg	99
292.149	3.217	3217.3	navigation	Trial1	navigation/STIM_008.jpg	100
298.923	3.454	3454.2	navigation	Trial1	navigation/STIM_008.jpg	100
306.349	3.136	3136.5	navigation	Trial1	navigation/STIM_008.jpg	100
312.81	3.531	3530.8	navigation	Trial1	navigation/STIM_008.jpg	100
319.86	2.047	2046.9	navigation	Trial1	navigation/STIM_008.jpg	100
324.7	2.582	2582.1	navigation	Trial1	navigation/STIM_008.jpg	99
330.709	3.059	3058.9	navigation	Trial1	navigation/STIM_009.jpg	99
337.42	4.059	4058.6	navigation	Trial1	navigation/STIM_009.jpg	99
345.608	3.958	3957.7	navigation	Trial1	navigation/STIM_009.jpg	100
352.235	2.234	2233.7	navigation	Trial1	navigation/STIM_009.jpg	100
358.17	2.309	2308.6	navigation	Trial1	navigation/STIM_009.jpg	100
363.095	1.676	1675.9	navigation	Trial1	navigation/STIM_009.jpg	100
367.936	3.497	3496.8	navigation	Trial1	navigation/STIM_010.jpg	100
373.992	1.926	1925.7	navigation	Trial1	navigation/STIM_010.jpg	100
378.907	3.579	3578.7	navigation	Trial1	navigation/STIM_010.jpg	99
385.956	3.146	3145.8	navigation	Trial1	navigation/STIM_010.jpg	99
392.91	2.927	2927.3	navigation	Trial1	navigation/STIM_010.jpg	100
398.958	2.385	2384.8	navigation	Trial1	navigation/STIM_010.jpg	99
403.614	2.902	2902.3	navigation	Trial1	navigation/STIM_011.jpg	100
409.701	4.194	4193.5	navigation	Trial1	navigation/STIM_011.jpg	100
417.658	3.129	3129.2	navigation	Trial1	navigation/STIM_011.jpg	100
424.683	3.404	3403.8	navigation	Trial1	navigation/STIM_011.jpg	100
430.923	2.897	2896.7	navigation	Trial1	navigation/STIM_011.jpg	99
437.26	1.4	1400.5	navigation	Trial1	navigation/STIM_011.jpg	100
441.191	0.932	932.0	pointing	Trial1	pointing/STIM_000.jpg	99
446.15	1.015	1015.1	pointing	Trial1	pointing/STIM_000.jpg	99
451.127	0.764	763.8	pointing	Trial1	pointing/STIM_000.jpg	100
454.908	0.771	770.8	pointing	Trial1	pointing/STIM_000.jpg	100
458.471	0.844	843.8	pointing	Trial1	pointing/STIM_000.jpg	100
462.647	1.072	1071.9	pointing	Trial1	pointing/STIM_000.jpg	99
467.171	1.267	1267.4	pointing	Trial1	pointing/STIM_001.jpg	100
472.26	0.802	802.3	pointing	Trial1	pointing/STIM_001.jpg	99
475.816	0.956	955.8	pointing	Trial1	pointing/STIM_001.jpg	100
479.459	1.38	1380.4	pointing	Trial1	pointing/STIM_001.jpg	99
483.32	1.344	1343.8	pointing	Trial1	pointing/STIM_001.jpg	99
488.379	1.226	1225.5	pointing	Trial1	pointing/STIM_001.jpg	100
492.418	0.848	847.8	pointing	Trial1	pointing/STIM_002.jpg	99
496.67	1.26	1260.1	pointing	Trial1	pointing/STIM_002.jpg	100
501.588	1.338	1337.6	pointing	Trial1	pointing/STIM_002.jpg	100
506.13	1.199	1199.2	pointing	Trial1	pointing/STIM_002.jpg	100
510.016	1.303	1303.0	pointing	Trial1	pointing/STIM_002.jpg	99
514.737	1.348	1347.9	pointing	Trial1	pointing/STIM_002.jpg	100
519.879	0.85	849.5	pointing	Trial1	pointing/STIM_003.jpg	100
523.673	1.292	1292.3	pointing	Trial1	pointing/STIM_003.jpg	99
528.451	0.898	898.4	pointing	Trial1	pointing/STIM_003.jpg	100
531.551	1.108	1107.9	pointing	Trial1	pointing/STIM_003.jpg	100
536.509	0.886	886.4	pointing	Trial1	pointing/STIM_003.jpg	99
540.692	0.79	789.8	pointing	Trial1	pointing/STIM_003.jpg	99
543.801	0.829	829.3	pointing	Trial1	pointing/STIM_004.jpg	99
548.274	0.879	878.6	pointing	Trial1	pointing/STIM_004.jpg	99
551.808	0.799	798.6	pointing	Trial1	pointing/STIM_004.jpg	99
555.216	0.824	824.3	pointing	Trial1	pointing/STIM_004.jpg	99
559.837	0.926	926.4	pointing	Trial1	pointing/STIM_004.jpg	99
563.826	0.868	867.8	pointing	Trial1	pointing/STIM_004.jpg	99
568.358	0.931	931.2	pointing	Trial1	pointing/STIM_005.jpg	100
572.406	0.989	988.7	pointing	Trial1	pointing/STIM_005.jpg	100
576.703	0.816	816.2	pointing	Trial1	pointing/STIM_005.jpg	100
579.628	1.359	1358.7	pointing	Trial1	pointing/STIM_005.jpg	100
583.134	1.098	1098.3	pointing	Trial1	pointing/STIM_005.jpg	99
587.268	1.048	1048.3	pointing	Trial1	pointing/STIM_005.jpg	100
592.235	1.04	1039.6	pointing	Trial1	pointing/STIM_006.jpg	100
596.394	1.245	1245.2	pointing	Trial1	pointing/STIM_006.jpg	99
600.034	1.322	1322.1	pointing	Trial1	pointing/STIM_006.jpg	100
603.733	0.82	820.5	pointing	Trial1	pointing/STIM_006.jpg	100
607.337	0.92	919.7	pointing	Trial1	pointing/STIM_006.jpg	99
611.399	1.072	1072.5	pointing	Trial1	pointing/STIM_006.jpg	100
614.564	0.886	885.8	pointing	Trial1	pointing/STIM_007.jpg	99
618.684	1.196	1196.3	pointing	Trial1	pointing/STIM_007.jpg	99
623.392	0.843	842.7	pointing	Trial1	pointing/STIM_007.jpg	99
626.643	1.268	1268.5	pointing	Trial1	pointing/STIM_007.jpg	99
630.408	1.081	1080.6	pointing	Trial1	pointing/STIM_007.jpg	100
634.04	1.066	1065.7	pointing	Trial1	pointing/STIM_007.jpg	100
638.969	0.914	913.9	pointing	Trial1	pointing/STIM_008.jpg	100
643.892	1.25	1250.4	pointing	Trial1	pointing/STIM_008.jpg	99
648.858	0.887	886.9	pointing	Trial1	pointing/STIM_008.jpg	99
653.302	0.884	884.4	pointing	Trial1	pointing/STIM_008.jpg	100
656.506	0.976	975.9	pointing	Trial1	pointing/STIM_008.jpg	99
659.88	1.195	1195.0	pointing	Trial1	pointing/STIM_008.jpg	99
663.524	1.364	1364.5	pointing	Trial1	pointing/STIM_009.jpg	100
667.95	1.353	1352.7	pointing	Trial1	pointing/STIM_009.jpg	99
671.851	0.74	739.7	pointing	Trial1	pointing/STIM_009.jpg	100
675.175	0.975	974.6	pointing	Trial1	pointing/STIM_009.jpg	100
679.049	0.88	880.5	pointing	Trial1	pointing/STIM_009.jpg	100
682.563	1.145	1145.1	pointing	Trial1	pointing/STIM_009.jpg	99
686.765	1.116	1116.2	pointing	Trial1	pointing/STIM_010.jpg	100
691.71	0.744	743.9	pointing	Trial1	pointing/STIM_010.jpg	100
696.21	1.158	1158.2	pointing	Trial1	pointing/STIM_010.jpg	99
700.785	1.29	1289.7	pointing	Trial1	pointing/STIM_010.jpg	100
706.075	1.095	1094.7	pointing	Trial1	pointing/STIM_010.jpg	100
710.906	1.134	1133.6	pointing	Trial1	pointing/STIM_010.jpg	99
715.172	0.944	944.3	pointing	Trial1	pointing/STIM_011.jpg	99
718.558	0.742	742.3	pointing	Trial1	pointing/STIM_011.jpg	100
721.85	0.818	818.4	pointing	Trial1	pointing/STIM_011.jpg	99
726.24	1.363	1363.2	pointing	Trial1	pointing/STIM_011.jpg	99
731.714	0.916	915.8	pointing	Trial1	pointing/STIM_011.jpg	100
735.704	0.848	847.6	pointing	Trial1	pointing/STIM_011.jpg	100
739.748	1.656	1656.4	navigation	Trial2	navigation/STIM_000.jpg	100
745.512	2.353	2353.2	navigation	Trial2	navigation/STIM_000.jpg	100
750.387	1.592	1591.7	navigation	Trial2	navigation/STIM_000.jpg	99
755.196	1.494	1493.7	navigation	Trial2	navigation/STIM_000.jpg	100
760.47	3.042	3042.1	navigation	Trial2	navigation/STIM_000.jpg	99
766.158	1.707	1707.4	navigation	Trial2	navigation/STIM_000.jpg	100
771.383	1.698	1698.5	navigation	Trial2	navigation/STIM_001.jpg	100
776.752	2.503	2503.0	navigation	Trial2	navigation/STIM_001.jpg	100
782.043	1.936	1936.5	navigation	Trial2	navigation/STIM_001.jpg	100
787.435	2.506	2506.3	navigation	Trial2	navigation/STIM_001.jpg	99
794.056	2.237	2236.9	navigation	Trial2	navigation/STIM_001.jpg	99
799.87	1.527	1527.3	navigation	Trial2	navigation/STIM_001.jpg	100
805.272	2.3	2299.8	navigation	Trial2	navigation/STIM_002.jpg	100
810.963	2.006	2006.0	navigation	Trial2	navigation/STIM_002.jpg	99
815.601	2.879	2879.3	navigation	Trial2	navigation/STIM_002.jpg	100
820.991	1.752	1751.8	navigation	Trial2	navigation/STIM_002.jpg	100
826.075	3.184	3184.4	navigation	Trial2	navigation/STIM_002.jpg	99
832.493	2.107	2107.1	navigation	Trial2	navigation/STIM_002.jpg	99
837.777	3.188	3188.0	navigation	Trial2	navigation/STIM_003.jpg	99
844.581	3.414	3413.6	navigation	Trial2	navigation/STIM_003.jpg	100
851.142	2.749	2749.4	navigation	Trial2	navigation/STIM_003.jpg	100
858.051	2.32	2319.5	navigation	Trial2	navigation/STIM_003.jpg	99
863.666	1.966	1965.8	navigation	Trial2	navigation/STIM_003.jpg	99
869.015	2.168	2167.8	navigation	Trial2	navigation/STIM_003.jpg	99
874.909	3.296	3296.1	navigation	Trial2	navigation/STIM_004.jpg	99
880.504	3.579	3578.7	navigation	Trial2	navigation/STIM_004.jpg	100
886.52	2.648	2647.5	navigation	Trial2	navigation/STIM_004.jpg	100
893.304	2.074	2073.8	navigation	Trial2	navigation/STIM_004.jpg	100
898.568	1.926	1925.5	navigation	Trial2	navigation/STIM_004.jpg	99
904.317	1.973	1972.6	navigation	Trial2	navigation/STIM_004.jpg	99
909.969	2.79	2790.4	navigation	Trial2	navigation/STIM_005.jpg	100
915.863	3.461	3460.7	navigation	Trial2	navigation/STIM_005.jpg	99
923.274	2.563	2562.8	navigation	Trial2	navigation/STIM_005.jpg	100
928.07	2.746	2745.7	navigation	Trial2	navigation/STIM_005.jpg	100
934.678	2.049	2049.1	navigation	Trial2	navigation/STIM_005.jpg	99
940.477	1.445	1444.6	navigation	Trial2	navigation/STIM_005.jpg	100
944.857	2.784	2783.6	navigation	Trial2	navigation/STIM_006.jpg	99
951.396	1.944	1944.2	navigation	Trial2	navigation/STIM_006.jpg	100
955.842	3.132	3131.9	navigation	Trial2	navigation/STIM_006.jpg	99
963.138	1.395	1395.2	navigation	Trial2	navigation/STIM_006.jpg	99
968.058	1.771	1771.4	navigation	Trial2	navigation/STIM_006.jpg	99
973.695	2.688	2688.4	navigation	Trial2	navigation/STIM_006.jpg	100
980.162	2.058	2058.1	navigation	Trial2	navigation/STIM_007.jpg	99
985.414	2.106	2105.6	navigation	Trial2	navigation/STIM_007.jpg	100
991.194	3.035	3034.8	navigation	Trial2	navigation/STIM_007.jpg	99
998.037	3.08	3080.5	navigation	Trial2	navigation/STIM_007.jpg	100
1004.151	2.977	2977.4	navigation	Trial2	navigation/STIM_007.jpg	99
1009.571	2.371	2371.4	navigation	Trial2	navigation/STIM_007.jpg	99
1015.018	2.154	2154.0	navigation	Trial2	navigation/STIM_008.jpg	100
1020.438	3.533	3533.0	navigation	Trial2	navigation/STIM_008.jpg	100
1027.61	1.638	1638.3	navigation	Trial2	navigation/STIM_008.jpg	99
1031.454	2.075	2074.6	navigation	Trial2	navigation/STIM_008.jpg	99
1037.452	2.58	2580.4	navigation	Trial2	navigation/STIM_008.jpg	100
1042.733	3.09	3090.3	navigation	Trial2	navigation/STIM_008.jpg	100
1048.511	3.348	3348.2	navigation	Trial2	navigation/STIM_009.jpg	100
1055.379	3.53	3529.9	navigation	Trial2	navigation/STIM_009.jpg	99
1062.041	2.087	2087.0	navigation	Trial2	navigation/STIM_009.jpg	99
1067.294	1.335	1334.9	navigation	Trial2	navigation/STIM_009.jpg	99
1072.39	2.665	2665.1	navigation	Trial2	navigation/STIM_009.jpg	100
1079.147	1.989	1988.9	navigation	Trial2	navigation/STIM_009.jpg	99
1084.811	3.1	3099.9	navigation	Trial2	navigation/STIM_010.jpg	100
1090.295	2.016	2016.1	navigation	Trial2	navigation/STIM_010.jpg	99
1096.432	1.501	1501.2	navigation	Trial2	navigation/STIM_010.jpg	100
1100.921	1.958	1958.2	navigation	Trial2	navigation/STIM_010.jpg	99
1106.245	2.894	2894.2	navigation	Trial2	navigation/STIM_010.jpg	99
1113.241	2.258	2258.3	navigation	Trial2	navigation/STIM_010.jpg	99
1119.013	3.697	3697.1	navigation	Trial2	navigation/STIM_011.jpg	100
1126.141	3.034	3034.5	navigation	Trial2	navigation/STIM_011.jpg	100
1131.953	2.735	2735.4	navigation	Trial2	navigation/STIM_011.jpg	99
1137.038	1.711	1710.7	navigation	Trial2	navigation/STIM_011.jpg	100
1142.313	2.049	2049.4	navigation	Trial2	navigation/STIM_011.jpg	99
1146.618	1.882	1882.4	navigation	Trial2	navigation/STIM_011.jpg	99
1151.485	1.105	1105.4	pointing	Trial2	pointing/STIM_000.jpg	99
1154.748	0.918	917.6	pointing	Trial2	pointing/STIM_000.jpg	100
1159.277	0.881	880.6	pointing	Trial2	pointing/STIM_000.jpg	100
1163.46	1.219	1219.2	pointing	Trial2	pointing/STIM_000.jpg	100
1168.174	1.269	1269.0	pointing	Trial2	pointing/STIM_000.jpg	99
1171.708	1.166	1166.4	pointing	Trial2	pointing/STIM_000.jpg	100
1176.284	1.365	1365.3	pointing	Trial2	pointing/STIM_001.jpg	100
1180.284	0.888	888.4	pointing	Trial2	pointing/STIM_001.jpg	99
1183.977	1.268	1268.2	pointing	Trial2	pointing/STIM_001.jpg	99
1187.984	1.285	1285.4	pointing	Trial2	pointing/STIM_001.jpg	100
1191.917	0.919	919.4	pointing	Trial2	pointing/STIM_001.jpg	99
1196.867	0.971	971.0	pointing	Trial2	pointing/STIM_001.jpg	99
1201.123	1.162	1162.5	pointing	Trial2	pointing/STIM_002.jpg	100
1205.923	0.893	893.4	pointing	Trial2	pointing/STIM_002.jpg	99
1209.26	1.362	1362.1	pointing	Trial2	pointing/STIM_002.jpg	99
1214.366	0.94	939.8	pointing	Trial2	pointing/STIM_002.jpg	100
1217.479	1.305	1305.3	pointing	Trial2	pointing/STIM_002.jpg	100
1222.754	1.246	1246.5	pointing	Trial2	pointing/STIM_002.jpg	100
1226.833	1.06	1060.4	pointing	Trial2	pointing/STIM_003.jpg	100
1230.073	0.909	909.3	pointing	Trial2	pointing/STIM_003.jpg	100
1234.777	1.174	1174.3	pointing	Trial2	pointing/STIM_003.jpg	99
1238.519	1.242	1242.3	pointing	Trial2	pointing/STIM_003.jpg	100
1242.886	1.372	1372.4	pointing	Trial2	pointing/STIM_003.jpg	99
1247.845	1.097	1097.1	pointing	Trial2	pointing/STIM_003.jpg	100
1253.002	0.995	994.6	pointing	Trial2	pointing/STIM_004.jpg	99
1258.054	1.248	1247.5	pointing	Trial2	pointing/STIM_004.jpg	99
1263.29	1.376	1375.9	pointing	Trial2	pointing/STIM_004.jpg	99
1267.486	1.187	1187.4	pointing	Trial2	pointing/STIM_004.jpg	100
1271.764	0.748	748.3	pointing	Trial2	pointing/STIM_004.jpg	99
1275.2	0.839	838.7	pointing	Trial2	pointing/STIM_004.jpg	100
1279.637	1.153	1152.6	pointing	Trial2	pointing/STIM_005.jpg	99
1283.313	1.29	1289.9	pointing	Trial2	pointing/STIM_005.jpg	100
1287.699	0.763	763.1	pointing	Trial2	pointing/STIM_005.jpg	99
1292.249	1.315	1314.9	pointing	Trial2	pointing/STIM_005.jpg	99
1295.752	0.88	880.2	pointing	Trial2	pointing/STIM_005.jpg	99
1298.741	1.24	1239.7	pointing	Trial2	pointing/STIM_005.jpg	99
1302.647	1.084	1084.5	pointing	Trial2	pointing/STIM_006.jpg	99
1307.577	1.192	1191.6	pointing	Trial2	pointing/STIM_006.jpg	100
1312.848	1.091	1091.1	pointing	Trial2	pointing/STIM_006.jpg	99
1317.856	1.29	1290.5	pointing	Trial2	pointing/STIM_006.jpg	100
1321.594	0.952	952.3	pointing	Trial2	pointing/STIM_006.jpg	99
1324.698	1.298	1298.5	pointing	Trial2	pointing/STIM_006.jpg	99
1328.675	1.125	1124.8	pointing	Trial2	pointing/STIM_007.jpg	99
1333.032	1.369	1369.4	pointing	Trial2	pointing/STIM_007.jpg	100
1337.331	1.377	1377.0	pointing	Trial2	pointing/STIM_007.jpg	100
1342.756	0.749	749.3	pointing	Trial2	pointing/STIM_007.jpg	100
1346.191	1.275	1275.0	pointing	Trial2	pointing/STIM_007.jpg	99
1350.129	1.226	1226.1	pointing	Trial2	pointing/STIM_007.jpg	100
1354.241	1.136	1135.5	pointing	Trial2	pointing/STIM_008.jpg	100
1357.714	1.372	1371.9	pointing	Trial2	pointing/STIM_008.jpg	99
1362.402	0.985	984.8	pointing	Trial2	pointing/STIM_008.jpg	99
1366.035	0.848	848.1	pointing	Trial2	pointing/STIM_008.jpg	100
1370.49	0.968	967.5	pointing	Trial2	pointing/STIM_008.jpg	99
1374.603	1.348	1347.7	pointing	Trial2	pointing/STIM_008.jpg	99
1378.735	0.984	984.2	pointing	Trial2	pointing/STIM_009.jpg	99
1382.96	1.058	1057.5	pointing	Trial2	pointing/STIM_009.jpg	99
1386.61	0.788	787.7	pointing	Trial2	pointing/STIM_009.jpg	100
1391.057	1.02	1020.3	pointing	Trial2	pointing/STIM_009.jpg	99
1395.661	1.376	1375.5	pointing	Trial2	pointing/STIM_009.jpg	100
1400.0	0.851	851.0	pointing	Trial2	pointing/STIM_009.jpg	99
1403.329	1.08	1080.2	pointing	Trial2	pointing/STIM_010.jpg	99
1407.35	1.161	1160.6	pointing	Trial2	pointing/STIM_010.jpg	100
1412.247	1.369	1369.0	pointing	Trial2	pointing/STIM_010.jpg	99
1416.162	0.828	828.2	pointing	Trial2	pointing/STIM_010.jpg	99
1419.703	1.095	1094.9	pointing	Trial2	pointing/STIM_010.jpg	100
1423.013	0.993	993.3	pointing	Trial2	pointing/STIM_010.jpg	100
1426.404	0.984	984.2	pointing	Trial2	pointing/STIM_011.jpg	100
1429.67	1.134	1134.4	pointing	Trial2	pointing/STIM_011.jpg	100
1434.417	0.938	937.6	pointing	Trial2	pointing/STIM_011.jpg	100
1439.242	1.158	1157.7	pointing	Trial2	pointing/STIM_011.jpg	100
1443.932	1.385	1384.6	pointing	Trial2	pointing/STIM_011.jpg	100
1447.703	0.906	906.3	pointing	Trial2	pointing/STIM_011.jpg	99
1450.815	1.856	1855.6	navigation	Trial3	navigation/STIM_000.jpg	100
1455.094	1.328	1328.2	navigation	Trial3	navigation/STIM_000.jpg	100
1458.936	1.552	1551.9	navigation	Trial3	navigation/STIM_000.jpg	99
1463.024	2.453	2452.8	navigation	Trial3	navigation/STIM_000.jpg	100
1468.697	2.11	2110.3	navigation	Trial3	navigation/STIM_000.jpg	99
1473.45	1.55	1549.6	navigation	Trial3	navigation/STIM_000.jpg	99
1477.52	2.07	2070.0	navigation	Trial3	navigation/STIM_001.jpg	100
1481.97	2.671	2670.7	navigation	Trial3	navigation/STIM_001.jpg	100
1488.288	2.427	2427.1	navigation	Trial3	navigation/STIM_001.jpg	99
1493.785	3.203	3202.9	navigation	Trial3	navigation/STIM_001.jpg	100
1499.817	2.614	2613.6	navigation	Trial3	navigation/STIM_001.jpg	99
1506.344	1.755	1754.9	navigation	Trial3	navigation/STIM_001.jpg	99
1510.68	1.325	1324.8	navigation	Trial3	navigation/STIM_002.jpg	99
1515.516	2.763	2762.9	navigation	Trial3	navigation/STIM_002.jpg	100
1520.792	2.385	2385.0	navigation	Trial3	navigation/STIM_002.jpg	99
1525.755	1.645	1645.3	navigation	Trial3	navigation/STIM_002.jpg	99
1530.362	2.78	2779.7	navigation	Trial3	navigation/STIM_002.jpg	99
1536.513	2.578	2577.7	navigation	Trial3	navigation/STIM_002.jpg	99
1543.232	1.422	1422.3	navigation	Trial3	navigation/STIM_003.jpg	99
1547.97	2.347	2346.8	navigation	Trial3	navigation/STIM_003.jpg	100
1552.55	3.084	3083.5	navigation	Trial3	navigation/STIM_003.jpg	99
1558.039	2.44	2439.6	navigation	Trial3	navigation/STIM_003.jpg	99
1563.726	3.109	3109.2	navigation	Trial3	navigation/STIM_003.jpg	100
1570.708	1.734	1733.5	navigation	Trial3	navigation/STIM_003.jpg	100
1575.846	3.131	3131.2	navigation	Trial3	navigation/STIM_004.jpg	99
1582.687	1.83	1830.4	navigation	Trial3	navigation/STIM_004.jpg	99
1587.024	2.172	2172.5	navigation	Trial3	navigation/STIM_004.jpg	100
1593.092	2.217	2217.3	navigation	Trial3	navigation/STIM_004.jpg	100
1598.32	1.718	1718.0	navigation	Trial3	navigation/STIM_004.jpg	100
1603.47	2.655	2655.2	navigation	Trial3	navigation/STIM_004.jpg	99
1609.503	2.668	2668.4	navigation	Trial3	navigation/STIM_005.jpg	99
1615.978	2.932	2931.6	navigation	Trial3	navigation/STIM_005.jpg	100
1622.123	2.121	2121.3	navigation	Trial3	navigation/STIM_005.jpg	99
1626.846	1.986	1985.6	navigation	Trial3	navigation/STIM_005.jpg	100
1631.959	2.505	2504.6	navigation	Trial3	navigation/STIM_005.jpg	99
1637.583	1.37	1369.6	navigation	Trial3	navigation/STIM_005.jpg	99
1642.408	2.522	2522.2	navigation	Trial3	navigation/STIM_006.jpg	99
1648.221	2.029	2029.4	navigation	Trial3	navigation/STIM_006.jpg	99
1653.377	1.903	1903.0	navigation	Trial3	navigation/STIM_006.jpg	100
1658.911	2.734	2733.8	navigation	Trial3	navigation/STIM_006.jpg	99
1664.334	2.937	2936.6	navigation	Trial3	navigation/STIM_006.jpg	99
1669.716	3.074	3073.8	navigation	Trial3	navigation/STIM_006.jpg	100
1676.984	2.15	2150.1	navigation	Trial3	navigation/STIM_007.jpg	99
1682.153	2.371	2370.7	navigation	Trial3	navigation/STIM_007.jpg	100
1688.655	1.444	1444.4	navigation	Trial3	navigation/STIM_007.jpg	100
1694.021	1.995	1994.9	navigation	Trial3	navigation/STIM_007.jpg	99
1698.649	3.031	3031.0	navigation	Trial3	navigation/STIM_007.jpg	99
1705.844	3.045	3045.0	navigation	Trial3	navigation/STIM_007.jpg	99
1712.546	1.838	1838.0	navigation	Trial3	navigation/STIM_008.jpg	100
1717.051	2.246	2246.4	navigation	Trial3	navigation/STIM_008.jpg	99
1722.429	2.843	2842.8	navigation	Trial3	navigation/STIM_008.jpg	100
1728.407	2.894	2894.2	navigation	Trial3	navigation/STIM_008.jpg	100
1733.644	1.763	1762.9	navigation	Trial3	navigation/STIM_008.jpg	100
1737.761	3.183	3183.1	navigation	Trial3	navigation/STIM_008.jpg	100
1743.62	1.936	1936.0	navigation	Trial3	navigation/STIM_009.jpg	100
1748.341	2.973	2972.8	navigation	Trial3	navigation/STIM_009.jpg	100
1754.913	3.204	3203.7	navigation	Trial3	navigation/STIM_009.jpg	100
1761.523	2.498	2498.1	navigation	Trial3	navigation/STIM_009.jpg	100
1767.861	1.749	1748.8	navigation	Trial3	navigation/STIM_009.jpg	99
1771.883	2.04	2040.3	navigation	Trial3	navigation/STIM_009.jpg	100
1776.794	1.844	1844.4	navigation	Trial3	navigation/STIM_010.jpg	100
1782.063	1.691	1690.6	navigation	Trial3	navigation/STIM_010.jpg	100
1787.557	1.407	1406.8	navigation	Trial3	navigation/STIM_010.jpg	99
1792.743	2.183	2183.4	navigation	Trial3	navigation/STIM_010.jpg	99
1798.321	3.176	3175.8	navigation	Trial3	navigation/STIM_010.jpg	99
1804.831	1.842	1841.5	navigation	Trial3	navigation/STIM_010.jpg	100
1808.946	2.328	2327.8	navigation	Trial3	navigation/STIM_011.jpg	99
1814.477	2.415	2415.2	navigation	Trial3	navigation/STIM_011.jpg	99
1820.254	2.985	2985.4	navigation	Trial3	navigation/STIM_011.jpg	99
1827.087	2.662	2661.7	navigation	Trial3	navigation/STIM_011.jpg	99
1833.693	2.014	2014.3	navigation	Trial3	navigation/STIM_011.jpg	100
1838.858	2.903	2903.0	navigation	Trial3	navigation/STIM_011.jpg	100
1845.923	1.049	1049.4	pointing	Trial3	pointing/STIM_000.jpg	99
1849.085	1.183	1183.1	pointing	Trial3	pointing/STIM_000.jpg	100
1853.451	1.144	1144.0	pointing	Trial3	pointing/STIM_000.jpg	100
1858.122	1.037	1037.1	pointing	Trial3	pointing/STIM_000.jpg	99
1862.052	0.846	846.2	pointing	Trial3	pointing/STIM_000.jpg	100
1865.496	1.181	1181.0	pointing	Trial3	pointing/STIM_000.jpg	99
1869.766	1.024	1024.2	pointing	Trial3	pointing/STIM_001.jpg	100
1874.141	1.112	1111.8	pointing	Trial3	pointing/STIM_001.jpg	99
1877.493	1.381	1380.8	pointing	Trial3	pointing/STIM_001.jpg	100
1881.002	0.814	814.0	pointing	Trial3	pointing/STIM_001.jpg	100
1884.926	1.26	1259.8	pointing	Trial3	pointing/STIM_001.jpg	99
1889.065	1.221	1220.9	pointing	Trial3	pointing/STIM_001.jpg	99
1892.851	1.215	1215.0	pointing	Trial3	pointing/STIM_002.jpg	99
1896.602	0.936	935.6	pointing	Trial3	pointing/STIM_002.jpg	100
1900.415	1.259	1258.6	pointing	Trial3	pointing/STIM_002.jpg	100
1904.097	1.127	1127.2	pointing	Trial3	pointing/STIM_002.jpg	99
1909.161	1.069	1069.4	pointing	Trial3	pointing/STIM_002.jpg	99
1913.95	1.172	1172.0	pointing	Trial3	pointing/STIM_002.jpg	100
1917.626	0.924	924.1	pointing	Trial3	pointing/STIM_003.jpg	99
1921.344	1.21	1209.7	pointing	Trial3	pointing/STIM_003.jpg	99
1926.095	1.374	1373.5	pointing	Trial3	pointing/STIM_003.jpg	99
1929.952	0.837	836.9	pointing	Trial3	pointing/STIM_003.jpg	100
1933.883	0.904	904.3	pointing	Trial3	pointing/STIM_003.jpg	99
1937.834	0.742	742.0	pointing	Trial3	pointing/STIM_003.jpg	100
1940.847	1.032	1032.5	pointing	Trial3	pointing/STIM_004.jpg	99
1943.985	1.087	1087.2	pointing	Trial3	pointing/STIM_004.jpg	99
1948.689	1.223	1222.6	pointing	Trial3	pointing/STIM_004.jpg	99
1953.608	0.957	957.3	pointing	Trial3	pointing/STIM_004.jpg	99
1957.639	0.974	973.9	pointing	Trial3	pointing/STIM_004.jpg	99
1960.921	0.842	842.3	pointing	Trial3	pointing/STIM_004.jpg	100
1964.784	1.048	1047.8	pointing	Trial3	pointing/STIM_005.jpg	99
1968.961	0.786	785.9	pointing	Trial3	pointing/STIM_005.jpg	100
1973.416	0.899	899.3	pointing	Trial3	pointing/STIM_005.jpg	100
1977.337	1.265	1264.8	pointing	Trial3	pointing/STIM_005.jpg	99
1981.749	1.268	1268.1	pointing	Trial3	pointing/STIM_005.jpg	100
1986.518	1.338	1338.2	pointing	Trial3	pointing/STIM_005.jpg	99
1990.594	0.766	766.0	pointing	Trial3	pointing/STIM_006.jpg	100
1994.801	1.206	1206.2	pointing	Trial3	pointing/STIM_006.jpg	99
1999.785	1.327	1326.9	pointing	Trial3	pointing/STIM_006.jpg	100
2004.733	1.286	1286.1	pointing	Trial3	pointing/STIM_006.jpg	99
2009.274	0.755	754.6	pointing	Trial3	pointing/STIM_006.jpg	100
2013.402	0.811	810.8	pointing	Trial3	pointing/STIM_006.jpg	100
2017.499	1.292	1291.5	pointing	Trial3	pointing/STIM_007.jpg	99
2021.237	1.027	1027.4	pointing	Trial3	pointing/STIM_007.jpg	99
2025.35	1.257	1256.7	pointing	Trial3	pointing/STIM_007.jpg	99
2028.792	0.935	934.6	pointing	Trial3	pointing/STIM_007.jpg	99
2032.973	0.859	859.3	pointing	Trial3	pointing/STIM_007.jpg	99
2037.4	0.821	820.7	pointing	Trial3	pointing/STIM_007.jpg	100
2040.732	0.927	927.4	pointing	Trial3	pointing/STIM_008.jpg	99
2044.063	1.217	1217.4	pointing	Trial3	pointing/STIM_008.jpg	100
2049.321	1.304	1303.7	pointing	Trial3	pointing/STIM_008.jpg	100
2053.72	1.236	1235.8	pointing	Trial3	pointing/STIM_008.jpg	100
2057.096	1.061	1060.9	pointing	Trial3	pointing/STIM_008.jpg	99
2060.866	1.062	1062.2	pointing	Trial3	pointing/STIM_008.jpg	100
2064.165	1.297	1296.6	pointing	Trial3	pointing/STIM_009.jpg	99
2069.007	0.864	864.4	pointing	Trial3	pointing/STIM_009.jpg	100
2072.205	1.168	1167.5	pointing	Trial3	pointing/STIM_009.jpg	99
2076.936	1.155	1155.3	pointing	Trial3	pointing/STIM_009.jpg	99
2081.928	1.288	1288.4	pointing	Trial3	pointing/STIM_009.jpg	100
2086.772	1.324	1324.5	pointing	Trial3	pointing/STIM_009.jpg	100
2091.547	1.122	1121.9	pointing	Trial3	pointing/STIM_010.jpg	99
2095.798	1.189	1188.9	pointing	Trial3	pointing/STIM_010.jpg	100
2100.761	0.996	996.5	pointing	Trial3	pointing/STIM_010.jpg	100
2103.86	1.19	1189.8	pointing	Trial3	pointing/STIM_010.jpg	99
2108.336	1.158	1158.2	pointing	Trial3	pointing/STIM_010.jpg	100
2112.337	1.23	1230.5	pointing	Trial3	pointing/STIM_010.jpg	99
2117.047	1.101	1101.0	pointing	Trial3	pointing/STIM_011.jpg	100
2120.927	0.879	878.9	pointing	Trial3	pointing/STIM_011.jpg	99
2124.528	0.783	783.0	pointing	Trial3	pointing/STIM_011.jpg	99
2129.341	1.309	1309.3	pointing	Trial3	pointing/STIM_011.jpg	100
2134.16	0.937	937.2	pointing	Trial3	pointing/STIM_011.jpg	99
2138.36	0.868	868.2	pointing	Trial3	pointing/STIM_011.jpg	99
