onset	duration	accuracy_binary	trial_type	learning_stage	stimulus
0.0	3.347	1	navigation	Trial1	navigation/STIM_000.jpg
6.163	2.592	1	navigation	Trial1	navigation/STIM_000.jpg
11.046	3.064	1	navigation	Trial1	navigation/STIM_000.jpg
17.721	3.019	1	navigation	Trial1	navigation/STIM_000.jpg
23.033	1.61	1	navigation	Trial1	navigation/STIM_000.jpg
28.767	2.721	1	navigation	Trial1	navigation/STIM_000.jpg
34.546	4.475	1	navigation	Trial1	navigation/STIM_001.jpg
41.644	2.54	0	navigation	Trial1	navigation/STIM_001.jpg
46.69	3.324	1	navigation	Trial1	navigation/STIM_001.jpg
53.956	3.506	1	navigation	Trial1	navigation/STIM_001.jpg
61.408	1.937	0	navigation	Trial1	navigation/STIM_001.jpg
66.209	2.506	1	navigation	Trial1	navigation/STIM_001.jpg
71.75	2.495	0	navigation	Trial1	navigation/STIM_002.jpg
77.183	2.203	1	navigation	Trial1	navigation/STIM_002.jpg
82.718	3.879	0	navigation	Trial1	navigation/STIM_002.jpg
90.056	3.408	0	navigation	Trial1	navigation/STIM_002.jpg
96.732	2.506	1	navigation	Trial1	navigation/STIM_002.jpg
101.935	2.371	1	navigation	Trial1	navigation/STIM_002.jpg
108.17	2.043	0	navigation	Trial1	navigation/STIM_003.jpg
113.162	2.033	0	navigation	Trial1	navigation/STIM_003.jpg
117.67	2.239	1	navigation	Trial1	navigation/STIM_003.jpg
123.356	1.659	1	navigation	Trial1	navigation/STIM_003.jpg
127.724	2.02	1	navigation	Trial1	navigation/STIM_003.jpg
132.202	2.28	1	navigation	Trial1	navigation/STIM_003.jpg
137.294	3.12	1	navigation	Trial1	navigation/STIM_004.jpg
143.792	3.568	1	navigation	Trial1	navigation/STIM_004.jpg
151.02	3.757	1	navigation	Trial1	navigation/STIM_004.jpg
157.197	2.314	0	navigation	Trial1	navigation/STIM_004.jpg
162.023	2.468	1	navigation	Trial1	navigation/STIM_004.jpg
167.653	2.203	1	navigation	Trial1	navigation/STIM_004.jpg
172.931	4.42	1	navigation	Trial1	navigation/STIM_005.jpg
180.629	3.259	1	navigation	Trial1	navigation/STIM_005.jpg
186.637	4.092	1	navigation	Trial1	navigation/STIM_005.jpg
195.001	3.676	1	navigation	Trial1	navigation/STIM_005.jpg
201.973	2.869	1	navigation	Trial1	navigation/STIM_005.jpg
207.935	1.644	0	navigation	Trial1	navigation/STIM_005.jpg
213.388	2.924	0	navigation	Trial1	navigation/STIM_006.jpg
219.691	3.306	0	navigation	Trial1	navigation/STIM_006.jpg
226.698	3.982	1	navigation	Trial1	navigation/STIM_006.jpg
234.296	1.799	1	navigation	Trial1	navigation/STIM_006.jpg
240.209	3.251	1	navigation	Trial1	navigation/STIM_006.jpg
247.623	2.216	0	navigation	Trial1	navigation/STIM_006.jpg
254.007	4.571	1	navigation	Trial1	navigation/STIM_007.jpg
262.039	3.906	1	navigation	Trial1	navigation/STIM_007.jpg
268.287	3.267	1	navigation	Trial1	navigation/STIM_007.jpg
275.035	1.655	1	navigation	Trial1	navigation/STIM_007.jpg
280.056	2.343	1	navigation	Trial1	navigation/STIM_007.jpg
286.031	2.083	1	navigation	Trial1	navigation/STIM_007.jpg
292.149	3.217	1	navigation	Trial1	navigation/STIM_008.jpg
298.923	3.454	1	navigation	Trial1	navigation/STIM_008.jpg
306.349	3.136	1	navigation	Trial1	navigation/STIM_008.jpg
312.81	3.531	1	navigation	Trial1	navigation/STIM_008.jpg
319.86	2.047	1	navigation	Trial1	navigation/STIM_008.jpg
324.7	2.582	1	navigation	Trial1	navigation/STIM_008.jpg
330.709	3.059	1	navigation	Trial1	navigation/STIM_009.jpg
337.42	4.059	1	navigation	Trial1	navigation/STIM_009.jpg
345.608	3.958	1	navigation	Trial1	navigation/STIM_009.jpg
352.235	2.234	1	navigation	Trial1	navigation/STIM_009.jpg
358.17	2.309	1	navigation	Trial1	navigation/STIM_009.jpg
363.095	1.676	1	navigation	Trial1	navigation/STIM_009.jpg
367.936	3.497	1	navigation	Trial1	navigation/STIM_010.jpg
373.992	1.926	1	navigation	Trial1	navigation/STIM_010.jpg
378.907	3.579	1	navigation	Trial1	navigation/STIM_010.jpg
385.956	3.146	1	navigation	Trial1	navigation/STIM_010.jpg
392.91	2.927	0	navigation	Trial1	navigation/STIM_010.jpg
398.958	2.385	1	navigation	Trial1	navigation/STIM_010.jpg
403.614	2.902	0	navigation	Trial1	navigation/STIM_011.jpg
409.701	4.194	0	navigation	Trial1	navigation/STIM_011.jpg
417.658	3.129	1	navigation	Trial1	navigation/STIM_011.jpg
424.683	3.404	1	navigation	Trial1	navigation/STIM_011.jpg
430.923	2.897	0	navigation	Trial1	navigation/STIM_011.jpg
437.26	1.4	1	navigation	Trial1	navigation/STIM_011.jpg
441.191	0.932	1	pointing	Trial1	pointing/STIM_000.jpg
446.15	1.015	1	pointing	Trial1	pointing/STIM_000.jpg
451.127	0.764	1	pointing	Trial1	pointing/STIM_000.jpg
454.908	0.771	1	pointing	Trial1	pointing/STIM_000.jpg
458.471	0.844	1	pointing	Trial1	pointing/STIM_000.jpg
462.647	1.072	1	pointing	Trial1	pointing/STIM_000.jpg
467.171	1.267	1	pointing	Trial1	pointing/STIM_001.jpg
472.26	0.802	1	pointing	Trial1	pointing/STIM_001.jpg
475.816	0.956	1	pointing	Trial1	pointing/STIM_001.jpg
479.459	1.38	1	pointing	Trial1	pointing/STIM_001.jpg
483.32	1.344	1	pointing	Trial1	pointing/STIM_001.jpg
488.379	1.226	1	pointing	Trial1	pointing/STIM_001.jpg
492.418	0.848	1	pointing	Trial1	pointing/STIM_002.jpg
496.67	1.26	1	pointing	Trial1	pointing/STIM_002.jpg
501.588	1.338	0	pointing	Trial1	pointing/STIM_002.jpg
506.13	1.199	1	pointing	Trial1	pointing/STIM_002.jpg
510.016	1.303	1	pointing	Trial1	pointing/STIM_002.jpg
514.737	1.348	0	pointing	Trial1	pointing/STIM_002.jpg
519.879	0.85	1	pointing	Trial1	pointing/STIM_003.jpg
523.673	1.292	1	pointing	Trial1	pointing/STIM_003.jpg
528.451	0.898	1	pointing	Trial1	pointing/STIM_003.jpg
531.551	1.108	1	pointing	Trial1	pointing/STIM_003.jpg
536.509	0.886	1	pointing	Trial1	pointing/STIM_003.jpg
540.692	0.79	1	pointing	Trial1	pointing/STIM_003.jpg
543.801	0.829	1	pointing	Trial1	pointing/STIM_004.jpg
548.274	0.879	1	pointing	Trial1	pointing/STIM_004.jpg
551.808	0.799	1	pointing	Trial1	pointing/STIM_004.jpg
555.216	0.824	1	pointing	Trial1	pointing/STIM_004.jpg
559.837	0.926	1	pointing	Trial1	pointing/STIM_004.jpg
563.826	0.868	1	pointing	Trial1	pointing/STIM_004.jpg
568.358	0.931	1	pointing	Trial1	pointing/STIM_005.jpg
572.406	0.989	0	pointing	Trial1	pointing/STIM_005.jpg
576.703	0.816	1	pointing	Trial1	pointing/STIM_005.jpg
579.628	1.359	1	pointing	Trial1	pointing/STIM_005.jpg
583.134	1.098	1	pointing	Trial1	pointing/STIM_005.jpg
587.268	1.048	1	pointing	Trial1	pointing/STIM_005.jpg
592.235	1.04	1	pointing	Trial1	pointing/STIM_006.jpg
596.394	1.245	1	pointing	Trial1	pointing/STIM_006.jpg
600.034	1.322	1	pointing	Trial1	pointing/STIM_006.jpg
603.733	0.82	1	pointing	Trial1	pointing/STIM_006.jpg
607.337	0.92	1	pointing	Trial1	pointing/STIM_006.jpg
611.399	1.072	1	pointing	Trial1	pointing/STIM_006.jpg
614.564	0.886	0	pointing	Trial1	pointing/STIM_007.jpg
618.684	1.196	1	pointing	Trial1	pointing/STIM_007.jpg
623.392	0.843	1	pointing	Trial1	pointing/STIM_007.jpg
626.643	1.268	0	pointing	Trial1	pointing/STIM_007.jpg
630.408	1.081	1	pointing	Trial1	pointing/STIM_007.jpg
634.04	1.066	1	pointing	Trial1	pointing/STIM_007.jpg
638.969	0.914	1	pointing	Trial1	pointing/STIM_008.jpg
643.892	1.25	1	pointing	Trial1	pointing/STIM_008.jpg
648.858	0.887	1	pointing	Trial1	pointing/STIM_008.jpg
653.302	0.884	1	pointing	Trial1	pointing/STIM_008.jpg
656.506	0.976	1	pointing	Trial1	pointing/STIM_008.jpg
659.88	1.195	1	pointing	Trial1	pointing/STIM_008.jpg
663.524	1.364	1	pointing	Trial1	pointing/STIM_009.jpg
667.95	1.353	1	pointing	Trial1	pointing/STIM_009.jpg
671.851	0.74	1	pointing	Trial1	pointing/STIM_009.jpg
675.175	0.975	1	pointing	Trial1	pointing/STIM_009.jpg
679.049	0.88	1	pointing	Trial1	pointing/STIM_009.jpg
682.563	1.145	1	pointing	Trial1	pointing/STIM_009.jpg
686.765	1.116	0	pointing	Trial1	pointing/STIM_010.jpg
691.71	0.744	1	pointing	Trial1	pointing/STIM_010.jpg
696.21	1.158	1	pointing	Trial1	pointing/STIM_010.jpg
700.785	1.29	1	pointing	Trial1	pointing/STIM_010.jpg
706.075	1.095	1	pointing	Trial1	pointing/STIM_010.jpg
710.906	1.134	1	pointing	Trial1	pointing/STIM_010.jpg
715.172	0.944	1	pointing	Trial1	pointing/STIM_011.jpg
718.558	0.742	1	pointing	Trial1	pointing/STIM_011.jpg
721.85	0.818	1	pointing	Trial1	pointing/STIM_011.jpg
726.24	1.363	1	pointing	Trial1	pointing/STIM_011.jpg
731.714	0.916	1	pointing	Trial1	pointing/STIM_011.jpg
735.704	0.848	0	pointing	Trial1	pointing/STIM_011.jpg
739.748	1.656	0	navigation	Trial2	navigation/STIM_000.jpg
745.512	2.353	1	navigation	Trial2	navigation/STIM_000.jpg
750.387	1.592	1	navigation	Trial2	navigation/STIM_000.jpg
755.196	1.494	1	navigation	Trial2	navigation/STIM_000.jpg
760.47	3.042	1	navigation	Trial2	navigation/STIM_000.jpg
766.158	1.707	0	navigation	Trial2	navigation/STIM_000.jpg
771.383	1.698	1	navigation	Trial2	navigation/STIM_001.jpg
776.752	2.503	1	navigation	Trial2	navigation/STIM_001.jpg
782.043	1.936	1	navigation	Trial2	navigation/STIM_001.jpg
787.435	2.506	1	navigation	Trial2	navigation/STIM_001.jpg
794.056	2.237	1	navigation	Trial2	navigation/STIM_001.jpg
799.87	1.527	1	navigation	Trial2	navigation/STIM_001.jpg
805.272	2.3	1	navigation	Trial2	navigation/STIM_002.jpg
810.963	2.006	1	navigation	Trial2	navigation/STIM_002.jpg
815.601	2.879	0	navigation	Trial2	navigation/STIM_002.jpg
820.991	1.752	1	navigation	Trial2	navigation/STIM_002.jpg
826.075	3.184	1	navigation	Trial2	navigation/STIM_002.jpg
832.493	2.107	1	navigation	Trial2	navigation/STIM_002.jpg
837.777	3.188	1	navigation	Trial2	navigation/STIM_003.jpg
844.581	3.414	1	navigation	Trial2	navigation/STIM_003.jpg
851.142	2.749	0	navigation	Trial2	navigation/STIM_003.jpg
858.051	2.32	1	navigation	Trial2	navigation/STIM_003.jpg
863.666	1.966	0	navigation	Trial2	navigation/STIM_003.jpg
869.015	2.168	1	navigation	Trial2	navigation/STIM_003.jpg
874.909	3.296	0	navigation	Trial2	navigation/STIM_004.jpg
880.504	3.579	1	navigation	Trial2	navigation/STIM_004.jpg
886.52	2.648	0	navigation	Trial2	navigation/STIM_004.jpg
893.304	2.074	1	navigation	Trial2	navigation/STIM_004.jpg
898.568	1.926	1	navigation	Trial2	navigation/STIM_004.jpg
904.317	1.973	1	navigation	Trial2	navigation/STIM_004.jpg
909.969	2.79	1	navigation	Trial2	navigation/STIM_005.jpg
915.863	3.461	1	navigation	Trial2	navigation/STIM_005.jpg
923.274	2.563	1	navigation	Trial2	navigation/STIM_005.jpg
928.07	2.746	1	navigation	Trial2	navigation/STIM_005.jpg
934.678	2.049	1	navigation	Trial2	navigation/STIM_005.jpg
940.477	1.445	1	navigation	Trial2	navigation/STIM_005.jpg
944.857	2.784	1	navigation	Trial2	navigation/STIM_006.jpg
951.396	1.944	1	navigation	Trial2	navigation/STIM_006.jpg
955.842	3.132	1	navigation	Trial2	navigation/STIM_006.jpg
963.138	1.395	1	navigation	Trial2	navigation/STIM_006.jpg
968.058	1.771	1	navigation	Trial2	navigation/STIM_006.jpg
973.695	2.688	1	navigation	Trial2	navigation/STIM_006.jpg
980.162	2.058	1	navigation	Trial2	navigation/STIM_007.jpg
985.414	2.106	1	navigation	Trial2	navigation/STIM_007.jpg
991.194	3.035	1	navigation	Trial2	navigation/STIM_007.jpg
998.037	3.08	1	navigation	Trial2	navigation/STIM_007.jpg
1004.151	2.977	1	navigation	Trial2	navigation/STIM_007.jpg
1009.571	2.371	1	navigation	Trial2	navigation/STIM_007.jpg
1015.018	2.154	0	navigation	Trial2	navigation/STIM_008.jpg
1020.438	3.533	1	navigation	Trial2	navigation/STIM_008.jpg
1027.61	1.638	1	navigation	Trial2	navigation/STIM_008.jpg
1031.454	2.075	1	navigation	Trial2	navigation/STIM_008.jpg
1037.452	2.58	0	navigation	Trial2	navigation/STIM_008.jpg
1042.733	3.09	1	navigation	Trial2	navigation/STIM_008.jpg
1048.511	3.348	0	navigation	Trial2	navigation/STIM_009.jpg
1055.379	3.53	1	navigation	Trial2	navigation/STIM_009.jpg
1062.041	2.087	1	navigation	Trial2	navigation/STIM_009.jpg
1067.294	1.335	0	navigation	Trial2	navigation/STIM_009.jpg
1072.39	2.665	1	navigation	Trial2	navigation/STIM_009.jpg
1079.147	1.989	1	navigation	Trial2	navigation/STIM_009.jpg
1084.811	3.1	0	navigation	Trial2	navigation/STIM_010.jpg
1090.295	2.016	1	navigation	Trial2	navigation/STIM_010.jpg
1096.432	1.501	1	navigation	Trial2	navigation/STIM_010.jpg
1100.921	1.958	1	navigation	Trial2	navigation/STIM_010.jpg
1106.245	2.894	1	navigation	Trial2	navigation/STIM_010.jpg
1113.241	2.258	1	navigation	Trial2	navigation/STIM_010.jpg
1119.013	3.697	1	navigation	Trial2	navigation/STIM_011.jpg
1126.141	3.034	1	navigation	Trial2	navigation/STIM_011.jpg
1131.953	2.735	1	navigation	Trial2	navigation/STIM_011.jpg
1137.038	1.711	1	navigation	Trial2	navigation/STIM_011.jpg
1142.313	2.049	1	navigation	Trial2	navigation/STIM_011.jpg
1146.618	1.882	1	navigation	Trial2	navigation/STIM_011.jpg
1151.485	1.105	1	pointing	Trial2	pointing/STIM_000.jpg
1154.748	0.918	1	pointing	Trial2	pointing/STIM_000.jpg
1159.277	0.881	1	pointing	Trial2	pointing/STIM_000.jpg
1163.46	1.219	1	pointing	Trial2	pointing/STIM_000.jpg
1168.174	1.269	1	pointing	Trial2	pointing/STIM_000.jpg
1171.708	1.166	1	pointing	Trial2	pointing/STIM_000.jpg
1176.284	1.365	1	pointing	Trial2	pointing/STIM_001.jpg
1180.284	0.888	0	pointing	Trial2	pointing/STIM_001.jpg
1183.977	1.268	1	pointing	Trial2	pointing/STIM_001.jpg
1187.984	1.285	1	pointing	Trial2	pointing/STIM_001.jpg
1191.917	0.919	0	pointing	Trial2	pointing/STIM_001.jpg
1196.867	0.971	1	pointing	Trial2	pointing/STIM_001.jpg
1201.123	1.162	0	pointing	Trial2	pointing/STIM_002.jpg
1205.923	0.893	1	pointing	Trial2	pointing/STIM_002.jpg
1209.26	1.362	0	pointing	Trial2	pointing/STIM_002.jpg
1214.366	0.94	1	pointing	Trial2	pointing/STIM_002.jpg
1217.479	1.305	1	pointing	Trial2	pointing/STIM_002.jpg
1222.754	1.246	1	pointing	Trial2	pointing/STIM_002.jpg
1226.833	1.06	1	pointing	Trial2	pointing/STIM_003.jpg
1230.073	0.909	1	pointing	Trial2	pointing/STIM_003.jpg
1234.777	1.174	1	pointing	Trial2	pointing/STIM_003.jpg
1238.519	1.242	0	pointing	Trial2	pointing/STIM_003.jpg
1242.886	1.372	0	pointing	Trial2	pointing/STIM_003.jpg
1247.845	1.097	1	pointing	Trial2	pointing/STIM_003.jpg
1253.002	0.995	1	pointing	Trial2	pointing/STIM_004.jpg
1258.054	1.248	0	pointing	Trial2	pointing/STIM_004.jpg
1263.29	1.376	1	pointing	Trial2	pointing/STIM_004.jpg
1267.486	1.187	0	pointing	Trial2	pointing/STIM_004.jpg
1271.764	0.748	1	pointing	Trial2	pointing/STIM_004.jpg
1275.2	0.839	1	pointing	Trial2	pointing/STIM_004.jpg
1279.637	1.153	1	pointing	Trial2	pointing/STIM_005.jpg
1283.313	1.29	1	pointing	Trial2	pointing/STIM_005.jpg
1287.699	0.763	1	pointing	Trial2	pointing/STIM_005.jpg
1292.249	1.315	1	pointing	Trial2	pointing/STIM_005.jpg
1295.752	0.88	1	pointing	Trial2	pointing/STIM_005.jpg
1298.741	1.24	1	pointing	Trial2	pointing/STIM_005.jpg
1302.647	1.084	1	pointing	Trial2	pointing/STIM_006.jpg
1307.577	1.192	0	pointing	Trial2	pointing/STIM_006.jpg
1312.848	1.091	1	pointing	Trial2	pointing/STIM_006.jpg
1317.856	1.29	0	pointing	Trial2	pointing/STIM_006.jpg
1321.594	0.952	1	pointing	Trial2	pointing/STIM_006.jpg
1324.698	1.298	1	pointing	Trial2	pointing/STIM_006.jpg
1328.675	1.125	1	pointing	Trial2	pointing/STIM_007.jpg
1333.032	1.369	1	pointing	Trial2	pointing/STIM_007.jpg
1337.331	1.377	1	pointing	Trial2	pointing/STIM_007.jpg
1342.756	0.749	1	pointing	Trial2	pointing/STIM_007.jpg
1346.191	1.275	1	pointing	Trial2	pointing/STIM_007.jpg
1350.129	1.226	0	pointing	Trial2	pointing/STIM_007.jpg
1354.241	1.136	1	pointing	Trial2	pointing/STIM_008.jpg
1357.714	1.372	1	pointing	Trial2	pointing/STIM_008.jpg
1362.402	0.985	1	pointing	Trial2	pointing/STIM_008.jpg
1366.035	0.848	1	pointing	Trial2	pointing/STIM_008.jpg
1370.49	0.968	1	pointing	Trial2	pointing/STIM_008.jpg
1374.603	1.348	1	pointing	Trial2	pointing/STIM_008.jpg
1378.735	0.984	1	pointing	Trial2	pointing/STIM_009.jpg
1382.96	1.058	1	pointing	Trial2	pointing/STIM_009.jpg
1386.61	0.788	1	pointing	Trial2	pointing/STIM_009.jpg
1391.057	1.02	1	pointing	Trial2	pointing/STIM_009.jpg
1395.661	1.376	1	pointing	Trial2	pointing/STIM_009.jpg
1400.0	0.851	1	pointing	Trial2	pointing/STIM_009.jpg
1403.329	1.08	1	pointing	Trial2	pointing/STIM_010.jpg
1407.35	1.161	1	pointing	Trial2	pointing/STIM_010.jpg
1412.247	1.369	1	pointing	Trial2	pointing/STIM_010.jpg
1416.162	0.828	1	pointing	Trial2	pointing/STIM_010.jpg
1419.703	1.095	1	pointing	Trial2	pointing/STIM_010.jpg
1423.013	0.993	1	pointing	Trial2	pointing/STIM_010.jpg
1426.404	0.984	1	pointing	Trial2	pointing/STIM_011.jpg
1429.67	1.134	1	pointing	Trial2	pointing/STIM_011.jpg
1434.417	0.938	1	pointing	Trial2	pointing/STIM_011.jpg
1439.242	1.158	0	pointing	Trial2	pointing/STIM_011.jpg
1443.932	1.385	1	pointing	Trial2	pointing/STIM_011.jpg
1447.703	0.906	1	pointing	Trial2	pointing/STIM_011.jpg
1450.815	1.856	0	navigation	Trial3	navigation/STIM_000.jpg
1455.094	1.328	1	navigation	Trial3	navigation/STIM_000.jpg
1458.936	1.552	0	navigation	Trial3	navigation/STIM_000.jpg
1463.024	2.453	0	navigation	Trial3	navigation/STIM_000.jpg
1468.697	2.11	1	navigation	Trial3	navigation/STIM_000.jpg
1473.45	1.55	1	navigation	Trial3	navigation/STIM_000.jpg
1477.52	2.07	1	navigation	Trial3	navigation/STIM_001.jpg
1481.97	2.671	1	navigation	Trial3	navigation/STIM_001.jpg
1488.288	2.427	1	navigation	Trial3	navigation/STIM_001.jpg
1493.785	3.203	1	navigation	Trial3	navigation/STIM_001.jpg
1499.817	2.614	1	navigation	Trial3	navigation/STIM_001.jpg
1506.344	1.755	1	navigation	Trial3	navigation/STIM_001.jpg
1510.68	1.325	0	navigation	Trial3	navigation/STIM_002.jpg
1515.516	2.763	1	navigation	Trial3	navigation/STIM_002.jpg
1520.792	2.385	1	navigation	Trial3	navigation/STIM_002.jpg
1525.755	1.645	1	navigation	Trial3	navigation/STIM_002.jpg
1530.362	2.78	1	navigation	Trial3	navigation/STIM_002.jpg
1536.513	2.578	1	navigation	Trial3	navigation/STIM_002.jpg
1543.232	1.422	1	navigation	Trial3	navigation/STIM_003.jpg
1547.97	2.347	1	navigation	Trial3	navigation/STIM_003.jpg
1552.55	3.084	1	navigation	Trial3	navigation/STIM_003.jpg
1558.039	2.44	1	navigation	Trial3	navigation/STIM_003.jpg
1563.726	3.109	1	navigation	Trial3	navigation/STIM_003.jpg
1570.708	1.734	1	navigation	Trial3	navigation/STIM_003.jpg
1575.846	3.131	1	navigation	Trial3	navigation/STIM_004.jpg
1582.687	1.83	1	navigation	Trial3	navigation/STIM_004.jpg
1587.024	2.172	1	navigation	Trial3	navigation/STIM_004.jpg
1593.092	2.217	1	navigation	Trial3	navigation/STIM_004.jpg
1598.32	1.718	1	navigation	Trial3	navigation/STIM_004.jpg
1603.47	2.655	1	navigation	Trial3	navigation/STIM_004.jpg
1609.503	2.668	1	navigation	Trial3	navigation/STIM_005.jpg
1615.978	2.932	1	navigation	Trial3	navigation/STIM_005.jpg
1622.123	2.121	1	navigation	Trial3	navigation/STIM_005.jpg
1626.846	1.986	1	navigation	Trial3	navigation/STIM_005.jpg
1631.959	2.505	1	navigation	Trial3	navigation/STIM_005.jpg
1637.583	1.37	1	navigation	Trial3	navigation/STIM_005.jpg
1642.408	2.522	1	navigation	Trial3	navigation/STIM_006.jpg
1648.221	2.029	1	navigation	Trial3	navigation/STIM_006.jpg
1653.377	1.903	1	navigation	Trial3	navigation/STIM_006.jpg
1658.911	2.734	1	navigation	Trial3	navigation/STIM_006.jpg
1664.334	2.937	1	navigation	Trial3	navigation/STIM_006.jpg
1669.716	3.074	1	navigation	Trial3	navigation/STIM_006.jpg
1676.984	2.15	1	navigation	Trial3	navigation/STIM_007.jpg
1682.153	2.371	1	navigation	Trial3	navigation/STIM_007.jpg
1688.655	1.444	1	navigation	Trial3	navigation/STIM_007.jpg
1694.021	1.995	0	navigation	Trial3	navigation/STIM_007.jpg
1698.649	3.031	1	navigation	Trial3	navigation/STIM_007.jpg
1705.844	3.045	0	navigation	Trial3	navigation/STIM_007.jpg
1712.546	1.838	1	navigation	Trial3	navigation/STIM_008.jpg
1717.051	2.246	1	navigation	Trial3	navigation/STIM_008.jpg
1722.429	2.843	0	navigation	Trial3	navigation/STIM_008.jpg
1728.407	2.894	1	navigation	Trial3	navigation/STIM_008.jpg
1733.644	1.763	1	navigation	Trial3	navigation/STIM_008.jpg
1737.761	3.183	1	navigation	Trial3	navigation/STIM_008.jpg
1743.62	1.936	0	navigation	Trial3	navigation/STIM_009.jpg
1748.341	2.973	1	navigation	Trial3	navigation/STIM_009.jpg
1754.913	3.204	1	navigation	Trial3	navigation/STIM_009.jpg
1761.523	2.498	1	navigation	Trial3	navigation/STIM_009.jpg
1767.861	1.749	1	navigation	Trial3	navigation/STIM_009.jpg
1771.883	2.04	1	navigation	Trial3	navigation/STIM_009.jpg
1776.794	1.844	1	navigation	Trial3	navigation/STIM_010.jpg
1782.063	1.691	0	navigation	Trial3	navigation/STIM_010.jpg
1787.557	1.407	1	navigation	Trial3	navigation/STIM_010.jpg
1792.743	2.183	1	navigation	Trial3	navigation/STIM_010.jpg
1798.321	3.176	1	navigation	Trial3	navigation/STIM_010.jpg
1804.831	1.842	0	navigation	Trial3	navigation/STIM_010.jpg
1808.946	2.328	1	navigation	Trial3	navigation/STIM_011.jpg
1814.477	2.415	0	navigation	Trial3	navigation/STIM_011.jpg
1820.254	2.985	1	navigation	Trial3	navigation/STIM_011.jpg
1827.087	2.662	1	navigation	Trial3	navigation/STIM_011.jpg
1833.693	2.014	1	navigation	Trial3	navigation/STIM_011.jpg
1838.858	2.903	1	navigation	Trial3	navigation/STIM_011.jpg
1845.923	1.049	1	pointing	Trial3	pointing/STIM_000.jpg
1849.085	1.183	1	pointing	Trial3	pointing/STIM_000.jpg
1853.451	1.144	1	pointing	Trial3	pointing/STIM_000.jpg
1858.122	1.037	1	pointing	Trial3	pointing/STIM_000.jpg
1862.052	0.846	1	pointing	Trial3	pointing/STIM_000.jpg
1865.496	1.181	0	pointing	Trial3	pointing/STIM_000.jpg
1869.766	1.024	0	pointing	Trial3	pointing/STIM_001.jpg
1874.141	1.112	1	pointing	Trial3	pointing/STIM_001.jpg
1877.493	1.381	1	pointing	Trial3	pointing/STIM_001.jpg
1881.002	0.814	0	pointing	Trial3	pointing/STIM_001.jpg
1884.926	1.26	1	pointing	Trial3	pointing/STIM_001.jpg
1889.065	1.221	1	pointing	Trial3	pointing/STIM_001.jpg
1892.851	1.215	1	pointing	Trial3	pointing/STIM_002.jpg
1896.602	0.936	0	pointing	Trial3	pointing/STIM_002.jpg
1900.415	1.259	1	pointing	Trial3	pointing/STIM_002.jpg
1904.097	1.127	1	pointing	Trial3	pointing/STIM_002.jpg
1909.161	1.069	1	pointing	Trial3	pointing/STIM_002.jpg
1913.95	1.172	1	pointing	Trial3	pointing/STIM_002.jpg
1917.626	0.924	1	pointing	Trial3	pointing/STIM_003.jpg
1921.344	1.21	1	pointing	Trial3	pointing/STIM_003.jpg
1926.095	1.374	1	pointing	Trial3	pointing/STIM_003.jpg
1929.952	0.837	1	pointing	Trial3	pointing/STIM_003.jpg
1933.883	0.904	1	pointing	Trial3	pointing/STIM_003.jpg
1937.834	0.742	1	pointing	Trial3	pointing/STIM_003.jpg
1940.847	1.032	1	pointing	Trial3	pointing/STIM_004.jpg
1943.985	1.087	0	pointing	Trial3	pointing/STIM_004.jpg
1948.689	1.223	1	pointing	Trial3	pointing/STIM_004.jpg
1953.608	0.957	1	pointing	Trial3	pointing/STIM_004.jpg
1957.639	0.974	1	pointing	Trial3	pointing/STIM_004.jpg
1960.921	0.842	1	pointing	Trial3	pointing/STIM_004.jpg
1964.784	1.048	1	pointing	Trial3	pointing/STIM_005.jpg
1968.961	0.786	1	pointing	Trial3	pointing/STIM_005.jpg
1973.416	0.899	1	pointing	Trial3	pointing/STIM_005.jpg
1977.337	1.265	1	pointing	Trial3	pointing/STIM_005.jpg
1981.749	1.268	1	pointing	Trial3	pointing/STIM_005.jpg
1986.518	1.338	1	pointing	Trial3	pointing/STIM_005.jpg
1990.594	0.766	1	pointing	Trial3	pointing/STIM_006.jpg
1994.801	1.206	0	pointing	Trial3	pointing/STIM_006.jpg
1999.785	1.327	1	pointing	Trial3	pointing/STIM_006.jpg
2004.733	1.286	1	pointing	Trial3	pointing/STIM_006.jpg
2009.274	0.755	1	pointing	Trial3	pointing/STIM_006.jpg
2013.402	0.811	1	pointing	Trial3	pointing/STIM_006.jpg
2017.499	1.292	1	pointing	Trial3	pointing/STIM_007.jpg
2021.237	1.027	1	pointing	Trial3	pointing/STIM_007.jpg
2025.35	1.257	1	pointing	Trial3	pointing/STIM_007.jpg
2028.792	0.935	1	pointing	Trial3	pointing/STIM_007.jpg
2032.973	0.859	1	pointing	Trial3	pointing/STIM_007.jpg
2037.4	0.821	1	pointing	Trial3	pointing/STIM_007.jpg
2040.732	0.927	0	pointing	Trial3	pointing/STIM_008.jpg
2044.063	1.217	1	pointing	Trial3	pointing/STIM_008.jpg
2049.321	1.304	1	pointing	Trial3	pointing/STIM_008.jpg
2053.72	1.236	0	pointing	Trial3	pointing/STIM_008.jpg
2057.096	1.061	1	pointing	Trial3	pointing/STIM_008.jpg
2060.866	1.062	1	pointing	Trial3	pointing/STIM_008.jpg
2064.165	1.297	1	pointing	Trial3	pointing/STIM_009.jpg
2069.007	0.864	1	pointing	Trial3	pointing/STIM_009.jpg
2072.205	1.168	1	pointing	Trial3	pointing/STIM_009.jpg
2076.936	1.155	1	pointing	Trial3	pointing/STIM_009.jpg
2081.928	1.288	1	pointing	Trial3	pointing/STIM_009.jpg
2086.772	1.324	0	pointing	Trial3	pointing/STIM_009.jpg
2091.547	1.122	1	pointing	Trial3	pointing/STIM_010.jpg
2095.798	1.189	1	pointing	Trial3	pointing/STIM_010.jpg
2100.761	0.996	1	pointing	Trial3	pointing/STIM_010.jpg
2103.86	1.19	0	pointing	Trial3	pointing/STIM_010.jpg
2108.336	1.158	1	pointing	Trial3	pointing/STIM_010.jpg
2112.337	1.23	1	pointing	Trial3	pointing/STIM_010.jpg
2117.047	1.101	1	pointing	Trial3	pointing/STIM_011.jpg
2120.927	0.879	1	pointing	Trial3	pointing/STIM_011.jpg
2124.528	0.783	1	pointing	Trial3	pointing/STIM_011.jpg
2129.341	1.309	1	pointing	Trial3	pointing/STIM_011.jpg
2134.16	0.937	1	pointing	Trial3	pointing/STIM_011.jpg
2138.36	0.868	1	pointing	Trial3	pointing/STIM_011.jpg
