onset	duration	accuracy	trial_type	learning_stage	stimulus
0.0	1.434	incorrect	study	Phase1	study/STIM_000.jpg
4.233	1.032	correct	study	Phase1	study/STIM_000.jpg
7.55	0.997	correct	study	Phase1	study/STIM_000.jpg
12.317	1.367	correct	study	Phase1	study/STIM_001.jpg
16.717	1.433	correct	study	Phase1	study/STIM_001.jpg
20.431	0.973	correct	study	Phase1	study/STIM_001.jpg
24.16	0.769	correct	study	Phase1	study/STIM_002.jpg
27.035	1.789	correct	study	Phase1	study/STIM_002.jpg
32.582	1.761	correct	study	Phase1	study/STIM_002.jpg
36.265	0.863	correct	study	Phase1	study/STIM_003.jpg
39.959	1.444	correct	study	Phase1	study/STIM_003.jpg
45.163	1.246	correct	study	Phase1	study/STIM_003.jpg
50.157	0.914	correct	study	Phase1	study/STIM_004.jpg
53.319	0.868	incorrect	study	Phase1	study/STIM_004.jpg
56.854	1.141	correct	study	Phase1	study/STIM_004.jpg
60.268	1.368	correct	study	Phase1	study/STIM_005.jpg
64.246	1.24	correct	study	Phase1	study/STIM_005.jpg
68.29	0.721	correct	study	Phase1	study/STIM_005.jpg
71.359	1.024	incorrect	study	Phase1	study/STIM_006.jpg
74.524	1.254	correct	study	Phase1	study/STIM_006.jpg
78.569	0.763	correct	study	Phase1	study/STIM_006.jpg
82.041	1.61	incorrect	study	Phase1	study/STIM_007.jpg
86.569	1.179	correct	study	Phase1	study/STIM_007.jpg
89.742	1.133	correct	study	Phase1	study/STIM_007.jpg
94.167	0.999	correct	study	Phase1	study/STIM_008.jpg
98.897	1.47	correct	study	Phase1	study/STIM_008.jpg
104.058	1.073	correct	study	Phase1	study/STIM_008.jpg
108.101	1.661	correct	study	Phase1	study/STIM_009.jpg
113.611	0.784	correct	study	Phase1	study/STIM_009.jpg
116.487	0.983	correct	study	Phase1	study/STIM_009.jpg
120.406	1.393	correct	study	Phase1	study/STIM_010.jpg
125.68	1.003	incorrect	study	Phase1	study/STIM_010.jpg
130.51	0.713	correct	study	Phase1	study/STIM_010.jpg
134.662	1.447	correct	study	Phase1	study/STIM_011.jpg
138.314	1.579	correct	study	Phase1	study/STIM_011.jpg
142.685	0.895	incorrect	study	Phase1	study/STIM_011.jpg
146.812	1.805	incorrect	study	Phase1	study/STIM_012.jpg
151.636	1.733	incorrect	study	Phase1	study/STIM_012.jpg
156.404	1.277	correct	study	Phase1	study/STIM_012.jpg
161.338	1.031	correct	study	Phase1	study/STIM_013.jpg
165.767	1.709	correct	study	Phase1	study/STIM_013.jpg
170.404	1.378	correct	study	Phase1	study/STIM_013.jpg
174.639	1.806	correct	study	Phase1	study/STIM_014.jpg
180.136	0.905	correct	study	Phase1	study/STIM_014.jpg
184.924	1.058	correct	study	Phase1	study/STIM_014.jpg
189.527	1.331	correct	study	Phase1	study/STIM_015.jpg
193.801	1.516	correct	study	Phase1	study/STIM_015.jpg
198.227	1.598	correct	study	Phase1	study/STIM_015.jpg
202.542	1.021	correct	study	Phase1	study/STIM_016.jpg
206.918	1.709	correct	study	Phase1	study/STIM_016.jpg
211.263	0.851	correct	study	Phase1	study/STIM_016.jpg
216.042	1.407	incorrect	study	Phase1	study/STIM_017.jpg
220.59	0.926	correct	study	Phase1	study/STIM_017.jpg
224.638	1.272	correct	study	Phase1	study/STIM_017.jpg
229.522	1.62	correct	study	Phase1	study/STIM_018.jpg
235.082	1.348	correct	study	Phase1	study/STIM_018.jpg
239.313	1.476	correct	study	Phase1	study/STIM_018.jpg
242.855	0.9	incorrect	study	Phase1	study/STIM_019.jpg
246.725	1.157	incorrect	study	Phase1	study/STIM_019.jpg
251.3	0.924	incorrect	study	Phase1	study/STIM_019.jpg
255.613	1.408	correct	study	Phase1	study/STIM_020.jpg
260.255	0.942	correct	study	Phase1	study/STIM_020.jpg
263.732	0.93	correct	study	Phase1	study/STIM_020.jpg
268.01	0.99	incorrect	study	Phase1	study/STIM_021.jpg
272.67	1.443	correct	study	Phase1	study/STIM_021.jpg
277.484	0.82	correct	study	Phase1	study/STIM_021.jpg
280.353	1.205	correct	study	Phase1	study/STIM_022.jpg
284.495	1.261	correct	study	Phase1	study/STIM_022.jpg
287.746	1.092	correct	study	Phase1	study/STIM_022.jpg
291.53	1.586	correct	study	Phase1	study/STIM_023.jpg
295.891	1.401	correct	study	Phase1	study/STIM_023.jpg
299.405	0.771	correct	study	Phase1	study/STIM_023.jpg
304.053	1.891	correct	study	Phase1	study/STIM_024.jpg
308.778	1.456	correct	study	Phase1	study/STIM_024.jpg
313.419	1.496	correct	study	Phase1	study/STIM_024.jpg
317.92	1.38	correct	study	Phase1	study/STIM_025.jpg
322.093	1.166	correct	study	Phase1	study/STIM_025.jpg
325.636	1.247	correct	study	Phase1	study/STIM_025.jpg
329.353	1.294	correct	study	Phase1	study/STIM_026.jpg
332.885	1.76	correct	study	Phase1	study/STIM_026.jpg
336.713	1.51	correct	study	Phase1	study/STIM_026.jpg
342.07	1.131	correct	study	Phase1	study/STIM_027.jpg
346.308	1.596	incorrect	study	Phase1	study/STIM_027.jpg
351.281	0.833	correct	study	Phase1	study/STIM_027.jpg
354.218	1.759	correct	study	Phase1	study/STIM_028.jpg
358.828	1.835	correct	study	Phase1	study/STIM_028.jpg
363.813	0.874	correct	study	Phase1	study/STIM_028.jpg
367.706	1.345	correct	study	Phase1	study/STIM_029.jpg
371.058	1.46	correct	study	Phase1	study/STIM_029.jpg
374.725	1.23	correct	study	Phase1	study/STIM_029.jpg
379.323	0.652	correct	test	Phase1	test/STIM_000.jpg
382.544	0.971	correct	test	Phase1	test/STIM_000.jpg
386.91	0.683	correct	test	Phase1	test/STIM_000.jpg
391.532	0.702	correct	test	Phase1	test/STIM_001.jpg
395.647	1.287	incorrect	test	Phase1	test/STIM_001.jpg
399.364	1.226	correct	test	Phase1	test/STIM_001.jpg
402.724	1.064	correct	test	Phase1	test/STIM_002.jpg
407.338	1.116	correct	test	Phase1	test/STIM_002.jpg
411.957	0.734	correct	test	Phase1	test/STIM_002.jpg
416.184	0.921	correct	test	Phase1	test/STIM_003.jpg
420.548	0.62	correct	test	Phase1	test/STIM_003.jpg
423.361	0.746	correct	test	Phase1	test/STIM_003.jpg
427.789	1.023	correct	test	Phase1	test/STIM_004.jpg
431.467	0.857	correct	test	Phase1	test/STIM_004.jpg
434.793	0.984	correct	test	Phase1	test/STIM_004.jpg
438.433	0.733	correct	test	Phase1	test/STIM_005.jpg
442.647	1.239	correct	test	Phase1	test/STIM_005.jpg
446.187	0.98	correct	test	Phase1	test/STIM_005.jpg
450.127	1.057	correct	test	Phase1	test/STIM_006.jpg
454.105	1.116	correct	test	Phase1	test/STIM_006.jpg
458.525	1.037	correct	test	Phase1	test/STIM_006.jpg
462.048	0.892	correct	test	Phase1	test/STIM_007.jpg
466.273	1.273	correct	test	Phase1	test/STIM_007.jpg
469.556	1.352	correct	test	Phase1	test/STIM_007.jpg
473.1	0.954	correct	test	Phase1	test/STIM_008.jpg
476.547	1.067	correct	test	Phase1	test/STIM_008.jpg
479.785	0.81	correct	test	Phase1	test/STIM_008.jpg
483.84	0.622	correct	test	Phase1	test/STIM_009.jpg
487.805	1.226	correct	test	Phase1	test/STIM_009.jpg
492.165	0.719	correct	test	Phase1	test/STIM_009.jpg
494.925	1.129	correct	test	Phase1	test/STIM_010.jpg
499.695	1.071	incorrect	test	Phase1	test/STIM_010.jpg
503.362	0.764	correct	test	Phase1	test/STIM_010.jpg
507.527	1.301	correct	test	Phase1	test/STIM_011.jpg
511.419	1.139	correct	test	Phase1	test/STIM_011.jpg
515.674	0.962	correct	test	Phase1	test/STIM_011.jpg
519.046	0.823	correct	test	Phase1	test/STIM_012.jpg
523.109	0.732	correct	test	Phase1	test/STIM_012.jpg
527.675	0.997	correct	test	Phase1	test/STIM_012.jpg
532.05	1.226	correct	test	Phase1	test/STIM_013.jpg
536.183	1.065	correct	test	Phase1	test/STIM_013.jpg
540.755	1.308	incorrect	test	Phase1	test/STIM_013.jpg
544.567	0.83	correct	test	Phase1	test/STIM_014.jpg
548.243	0.719	correct	test	Phase1	test/STIM_014.jpg
551.558	0.834	correct	test	Phase1	test/STIM_014.jpg
554.67	0.626	correct	test	Phase1	test/STIM_015.jpg
558.529	0.685	correct	test	Phase1	test/STIM_015.jpg
562.469	1.055	correct	test	Phase1	test/STIM_015.jpg
567.298	0.896	correct	test	Phase1	test/STIM_016.jpg
570.924	0.732	correct	test	Phase1	test/STIM_016.jpg
574.04	0.711	incorrect	test	Phase1	test/STIM_016.jpg
578.07	0.735	correct	test	Phase1	test/STIM_017.jpg
580.854	0.938	correct	test	Phase1	test/STIM_017.jpg
584.252	0.696	incorrect	test	Phase1	test/STIM_017.jpg
588.466	1.045	correct	test	Phase1	test/STIM_018.jpg
591.585	1.315	correct	test	Phase1	test/STIM_018.jpg
596.843	0.893	correct	test	Phase1	test/STIM_018.jpg
600.327	0.822	correct	test	Phase1	test/STIM_019.jpg
604.669	1.344	correct	test	Phase1	test/STIM_019.jpg
608.89	0.797	correct	test	Phase1	test/STIM_019.jpg
612.656	1.161	incorrect	test	Phase1	test/STIM_020.jpg
616.842	1.311	incorrect	test	Phase1	test/STIM_020.jpg
620.687	0.757	correct	test	Phase1	test/STIM_020.jpg
623.517	0.66	correct	test	Phase1	test/STIM_021.jpg
627.203	0.981	incorrect	test	Phase1	test/STIM_021.jpg
632.002	1.292	correct	test	Phase1	test/STIM_021.jpg
636.732	0.943	correct	test	Phase1	test/STIM_022.jpg
640.262	0.958	correct	test	Phase1	test/STIM_022.jpg
643.788	1.158	correct	test	Phase1	test/STIM_022.jpg
648.263	0.744	correct	test	Phase1	test/STIM_023.jpg
651.631	0.99	correct	test	Phase1	test/STIM_023.jpg
656.138	0.938	correct	test	Phase1	test/STIM_023.jpg
660.868	1.11	correct	test	Phase1	test/STIM_024.jpg
665.266	0.71	correct	test	Phase1	test/STIM_024.jpg
668.972	0.9	correct	test	Phase1	test/STIM_024.jpg
672.603	1.223	correct	test	Phase1	test/STIM_025.jpg
676.785	1.187	correct	test	Phase1	test/STIM_025.jpg
680.893	1.046	correct	test	Phase1	test/STIM_025.jpg
684.235	0.674	correct	test	Phase1	test/STIM_026.jpg
688.69	0.693	incorrect	test	Phase1	test/STIM_026.jpg
692.105	1.181	correct	test	Phase1	test/STIM_026.jpg
697.035	0.684	correct	test	Phase1	test/STIM_027.jpg
700.795	1.095	correct	test	Phase1	test/STIM_027.jpg
705.42	0.826	incorrect	test	Phase1	test/STIM_027.jpg
708.928	1.302	correct	test	Phase1	test/STIM_028.jpg
713.16	1.084	correct	test	Phase1	test/STIM_028.jpg
717.842	1.23	correct	test	Phase1	test/STIM_028.jpg
721.925	1.256	correct	test	Phase1	test/STIM_029.jpg
726.489	0.924	correct	test	Phase1	test/STIM_029.jpg
730.5	0.926	correct	test	Phase1	test/STIM_029.jpg
734.19	1.24	correct	study	Phase2	study/STIM_000.jpg
737.885	1.318	correct	study	Phase2	study/STIM_000.jpg
741.269	0.93	correct	study	Phase2	study/STIM_000.jpg
745.656	1.124	correct	study	Phase2	study/STIM_001.jpg
748.764	1.455	correct	study	Phase2	study/STIM_001.jpg
752.191	1.005	correct	study	Phase2	study/STIM_001.jpg
756.194	1.382	correct	study	Phase2	study/STIM_002.jpg
760.354	1.058	incorrect	study	Phase2	study/STIM_002.jpg
763.433	1.166	correct	study	Phase2	study/STIM_002.jpg
767.982	1.197	incorrect	study	Phase2	study/STIM_003.jpg
772.199	0.898	correct	study	Phase2	study/STIM_003.jpg
776.584	0.936	correct	study	Phase2	study/STIM_003.jpg
780.979	0.844	correct	study	Phase2	study/STIM_004.jpg
784.776	1.049	correct	study	Phase2	study/STIM_004.jpg
789.196	0.691	incorrect	study	Phase2	study/STIM_004.jpg
793.563	0.729	correct	study	Phase2	study/STIM_005.jpg
797.714	1.242	correct	study	Phase2	study/STIM_005.jpg
802.303	1.126	correct	study	Phase2	study/STIM_005.jpg
806.713	1.001	correct	study	Phase2	study/STIM_006.jpg
811.169	1.404	correct	study	Phase2	study/STIM_006.jpg
815.194	1.34	correct	study	Phase2	study/STIM_006.jpg
818.85	1.315	correct	study	Phase2	study/STIM_007.jpg
823.741	1.279	correct	study	Phase2	study/STIM_007.jpg
828.73	1.013	correct	study	Phase2	study/STIM_007.jpg
832.384	0.755	correct	study	Phase2	study/STIM_008.jpg
835.656	1.257	correct	study	Phase2	study/STIM_008.jpg
840.25	1.295	incorrect	study	Phase2	study/STIM_008.jpg
845.059	1.436	correct	study	Phase2	study/STIM_009.jpg
849.471	1.161	correct	study	Phase2	study/STIM_009.jpg
853.118	1.293	correct	study	Phase2	study/STIM_009.jpg
857.256	1.331	correct	study	Phase2	study/STIM_010.jpg
861.856	1.229	correct	study	Phase2	study/STIM_010.jpg
865.832	0.677	correct	study	Phase2	study/STIM_010.jpg
869.825	1.424	correct	study	Phase2	study/STIM_011.jpg
873.289	1.57	correct	study	Phase2	study/STIM_011.jpg
878.295	1.281	correct	study	Phase2	study/STIM_011.jpg
881.775	1.341	correct	study	Phase2	study/STIM_012.jpg
885.874	1.035	correct	study	Phase2	study/STIM_012.jpg
889.009	1.345	correct	study	Phase2	study/STIM_012.jpg
894.274	1.246	correct	study	Phase2	study/STIM_013.jpg
897.857	1.161	incorrect	study	Phase2	study/STIM_013.jpg
902.833	1.285	correct	study	Phase2	study/STIM_013.jpg
907.794	1.403	correct	study	Phase2	study/STIM_014.jpg
912.904	1.157	correct	study	Phase2	study/STIM_014.jpg
916.143	1.111	correct	study	Phase2	study/STIM_014.jpg
920.187	1.322	correct	study	Phase2	study/STIM_015.jpg
925.097	1.053	correct	study	Phase2	study/STIM_015.jpg
928.577	0.935	correct	study	Phase2	study/STIM_015.jpg
933.399	1.224	incorrect	study	Phase2	study/STIM_016.jpg
937.272	1.086	correct	study	Phase2	study/STIM_016.jpg
940.421	1.347	correct	study	Phase2	study/STIM_016.jpg
943.767	0.817	correct	study	Phase2	study/STIM_017.jpg
946.787	0.751	correct	study	Phase2	study/STIM_017.jpg
950.706	0.651	correct	study	Phase2	study/STIM_017.jpg
954.225	0.768	correct	study	Phase2	study/STIM_018.jpg
957.211	0.665	correct	study	Phase2	study/STIM_018.jpg
960.384	0.748	incorrect	study	Phase2	study/STIM_018.jpg
964.886	1.402	correct	study	Phase2	study/STIM_019.jpg
969.926	1.422	correct	study	Phase2	study/STIM_019.jpg
974.56	0.92	correct	study	Phase2	study/STIM_019.jpg
978.808	1.672	correct	study	Phase2	study/STIM_020.jpg
983.781	1.094	correct	study	Phase2	study/STIM_020.jpg
987.638	1.084	correct	study	Phase2	study/STIM_020.jpg
992.114	1.524	correct	study	Phase2	study/STIM_021.jpg
995.992	1.359	correct	study	Phase2	study/STIM_021.jpg
999.968	1.176	incorrect	study	Phase2	study/STIM_021.jpg
1003.219	1.035	correct	study	Phase2	study/STIM_022.jpg
1006.87	1.189	correct	study	Phase2	study/STIM_022.jpg
1011.481	1.364	correct	study	Phase2	study/STIM_022.jpg
1015.087	1.005	correct	study	Phase2	study/STIM_023.jpg
1019.466	0.527	correct	study	Phase2	study/STIM_023.jpg
1023.676	1.077	correct	study	Phase2	study/STIM_023.jpg
1028.403	1.284	correct	study	Phase2	study/STIM_024.jpg
1032.628	1.486	incorrect	study	Phase2	study/STIM_024.jpg
1036.46	0.861	correct	study	Phase2	study/STIM_024.jpg
1041.129	0.876	correct	study	Phase2	study/STIM_025.jpg
1045.724	1.373	correct	study	Phase2	study/STIM_025.jpg
1049.851	1.168	correct	study	Phase2	study/STIM_025.jpg
1054.7	0.835	correct	study	Phase2	study/STIM_026.jpg
1057.889	0.837	correct	study	Phase2	study/STIM_026.jpg
1060.889	1.135	correct	study	Phase2	study/STIM_026.jpg
1065.884	1.028	correct	study	Phase2	study/STIM_027.jpg
1069.327	0.951	correct	study	Phase2	study/STIM_027.jpg
1073.281	1.303	correct	study	Phase2	study/STIM_027.jpg
1077.799	1.128	correct	study	Phase2	study/STIM_028.jpg
1082.106	1.446	correct	study	Phase2	study/STIM_028.jpg
1085.626	0.914	correct	study	Phase2	study/STIM_028.jpg
1089.91	1.166	correct	study	Phase2	study/STIM_029.jpg
1093.623	0.777	correct	study	Phase2	study/STIM_029.jpg
1097.557	1.049	correct	study	Phase2	study/STIM_029.jpg
1101.9	0.664	incorrect	test	Phase2	test/STIM_000.jpg
1105.94	0.856	correct	test	Phase2	test/STIM_000.jpg
1110.461	1.244	correct	test	Phase2	test/STIM_000.jpg
1114.631	1.038	correct	test	Phase2	test/STIM_001.jpg
1119.314	0.795	correct	test	Phase2	test/STIM_001.jpg
1123.254	1.037	correct	test	Phase2	test/STIM_001.jpg
1126.582	1.195	correct	test	Phase2	test/STIM_002.jpg
1130.016	0.754	correct	test	Phase2	test/STIM_002.jpg
1133.905	0.867	correct	test	Phase2	test/STIM_002.jpg
1136.95	0.86	correct	test	Phase2	test/STIM_003.jpg
1139.95	0.979	correct	test	Phase2	test/STIM_003.jpg
1143.366	0.75	incorrect	test	Phase2	test/STIM_003.jpg
1147.429	0.997	correct	test	Phase2	test/STIM_004.jpg
1150.551	0.572	correct	test	Phase2	test/STIM_004.jpg
1154.784	0.82	correct	test	Phase2	test/STIM_004.jpg
1158.201	0.678	correct	test	Phase2	test/STIM_005.jpg
1161.955	1.183	correct	test	Phase2	test/STIM_005.jpg
1166.135	0.759	incorrect	test	Phase2	test/STIM_005.jpg
1169.108	0.866	correct	test	Phase2	test/STIM_006.jpg
1173.563	1.087	incorrect	test	Phase2	test/STIM_006.jpg
1176.94	0.776	correct	test	Phase2	test/STIM_006.jpg
1181.222	1.387	correct	test	Phase2	test/STIM_007.jpg
1184.664	0.954	correct	test	Phase2	test/STIM_007.jpg
1188.701	0.633	correct	test	Phase2	test/STIM_007.jpg
1192.991	0.714	correct	test	Phase2	test/STIM_008.jpg
1196.584	0.923	incorrect	test	Phase2	test/STIM_008.jpg
1201.114	1.117	incorrect	test	Phase2	test/STIM_008.jpg
1206.09	0.861	correct	test	Phase2	test/STIM_009.jpg
1210.066	0.78	incorrect	test	Phase2	test/STIM_009.jpg
1214.538	0.902	correct	test	Phase2	test/STIM_009.jpg
1218.44	1.12	incorrect	test	Phase2	test/STIM_010.jpg
1222.124	0.865	correct	test	Phase2	test/STIM_010.jpg
1225.914	0.701	correct	test	Phase2	test/STIM_010.jpg
1230.257	0.664	correct	test	Phase2	test/STIM_011.jpg
1234.286	0.777	correct	test	Phase2	test/STIM_011.jpg
1238.383	1.156	correct	test	Phase2	test/STIM_011.jpg
1242.043	0.804	correct	test	Phase2	test/STIM_012.jpg
1245.201	0.773	correct	test	Phase2	test/STIM_012.jpg
1249.432	0.913	correct	test	Phase2	test/STIM_012.jpg
1253.247	0.8	correct	test	Phase2	test/STIM_013.jpg
1257.655	0.715	correct	test	Phase2	test/STIM_013.jpg
1261.489	0.989	correct	test	Phase2	test/STIM_013.jpg
1266.138	1.197	correct	test	Phase2	test/STIM_014.jpg
1270.984	1.148	correct	test	Phase2	test/STIM_014.jpg
1276.023	0.803	correct	test	Phase2	test/STIM_014.jpg
1280.587	1.239	correct	test	Phase2	test/STIM_015.jpg
1283.854	1.042	correct	test	Phase2	test/STIM_015.jpg
1287.902	0.773	correct	test	Phase2	test/STIM_015.jpg
1290.635	1.154	correct	test	Phase2	test/STIM_016.jpg
1293.886	0.832	incorrect	test	Phase2	test/STIM_016.jpg
1298.596	0.89	correct	test	Phase2	test/STIM_016.jpg
1303.1	1.079	correct	test	Phase2	test/STIM_017.jpg
1307.425	1.353	correct	test	Phase2	test/STIM_017.jpg
1312.665	1.145	correct	test	Phase2	test/STIM_017.jpg
1317.172	1.009	correct	test	Phase2	test/STIM_018.jpg
1320.662	1.299	correct	test	Phase2	test/STIM_018.jpg
1324.692	1.129	correct	test	Phase2	test/STIM_018.jpg
1327.851	1.129	correct	test	Phase2	test/STIM_019.jpg
1331.297	1.304	correct	test	Phase2	test/STIM_019.jpg
1335.482	0.74	correct	test	Phase2	test/STIM_019.jpg
1338.914	0.857	correct	test	Phase2	test/STIM_020.jpg
1341.78	1.158	correct	test	Phase2	test/STIM_020.jpg
1346.911	1.031	correct	test	Phase2	test/STIM_020.jpg
1350.025	1.223	correct	test	Phase2	test/STIM_021.jpg
1353.935	1.023	correct	test	Phase2	test/STIM_021.jpg
1358.901	1.229	correct	test	Phase2	test/STIM_021.jpg
1363.899	1.284	correct	test	Phase2	test/STIM_022.jpg
1368.798	1.107	correct	test	Phase2	test/STIM_022.jpg
1373.037	0.731	correct	test	Phase2	test/STIM_022.jpg
1377.07	0.709	correct	test	Phase2	test/STIM_023.jpg
1381.021	0.865	correct	test	Phase2	test/STIM_023.jpg
1384.149	1.394	correct	test	Phase2	test/STIM_023.jpg
1387.41	1.129	correct	test	Phase2	test/STIM_024.jpg
1390.565	0.877	correct	test	Phase2	test/STIM_024.jpg
1394.329	1.124	incorrect	test	Phase2	test/STIM_024.jpg
1397.782	1.262	correct	test	Phase2	test/STIM_025.jpg
1402.501	0.802	correct	test	Phase2	test/STIM_025.jpg
1406.085	0.769	incorrect	test	Phase2	test/STIM_025.jpg
1409.134	1.033	correct	test	Phase2	test/STIM_026.jpg
1412.25	1.168	correct	test	Phase2	test/STIM_026.jpg
1415.91	1.118	correct	test	Phase2	test/STIM_026.jpg
1419.972	0.772	correct	test	Phase2	test/STIM_027.jpg
1423.896	0.777	incorrect	test	Phase2	test/STIM_027.jpg
1428.212	1.067	correct	test	Phase2	test/STIM_027.jpg
1431.955	0.741	correct	test	Phase2	test/STIM_028.jpg
1436.412	0.953	correct	test	Phase2	test/STIM_028.jpg
1441.128	1.072	correct	test	Phase2	test/STIM_028.jpg
1444.655	0.972	correct	test	Phase2	test/STIM_029.jpg
1448.474	1.283	correct	test	Phase2	test/STIM_029.jpg
1453.267	1.055	correct	test	Phase2	test/STIM_029.jpg
1456.613	0.845	correct	study	Phase3	study/STIM_000.jpg
1460.294	1.142	correct	study	Phase3	study/STIM_000.jpg
1464.488	1.089	correct	study	Phase3	study/STIM_000.jpg
1469.28	1.302	correct	study	Phase3	study/STIM_001.jpg
1472.792	0.713	correct	study	Phase3	study/STIM_001.jpg
1476.189	1.08	correct	study	Phase3	study/STIM_001.jpg
1480.517	1.17	correct	study	Phase3	study/STIM_002.jpg
1484.695	0.686	correct	study	Phase3	study/STIM_002.jpg
1488.409	0.897	correct	study	Phase3	study/STIM_002.jpg
1493.105	1.176	correct	study	Phase3	study/STIM_003.jpg
1497.675	0.834	correct	study	Phase3	study/STIM_003.jpg
1501.198	0.714	correct	study	Phase3	study/STIM_003.jpg
1504.729	1.266	correct	study	Phase3	study/STIM_004.jpg
1509.762	0.7	correct	study	Phase3	study/STIM_004.jpg
1513.521	1.032	correct	study	Phase3	study/STIM_004.jpg
1516.994	0.916	correct	study	Phase3	study/STIM_005.jpg
1521.298	0.988	correct	study	Phase3	study/STIM_005.jpg
1526.004	0.725	correct	study	Phase3	study/STIM_005.jpg
1530.329	1.37	correct	study	Phase3	study/STIM_006.jpg
1534.795	0.838	correct	study	Phase3	study/STIM_006.jpg
1538.516	0.92	correct	study	Phase3	study/STIM_006.jpg
1541.483	1.214	correct	study	Phase3	study/STIM_007.jpg
1545.673	0.936	correct	study	Phase3	study/STIM_007.jpg
1550.565	0.653	correct	study	Phase3	study/STIM_007.jpg
1554.566	1.308	correct	study	Phase3	study/STIM_008.jpg
1559.068	0.664	correct	study	Phase3	study/STIM_008.jpg
1561.987	1.257	correct	study	Phase3	study/STIM_008.jpg
1566.679	1.031	correct	study	Phase3	study/STIM_009.jpg
1569.996	0.829	incorrect	study	Phase3	study/STIM_009.jpg
1574.236	0.656	correct	study	Phase3	study/STIM_009.jpg
1578.293	0.974	correct	study	Phase3	study/STIM_010.jpg
1581.804	0.77	correct	study	Phase3	study/STIM_010.jpg
1584.815	1.165	correct	study	Phase3	study/STIM_010.jpg
1588.328	1.086	correct	study	Phase3	study/STIM_011.jpg
1592.888	0.699	correct	study	Phase3	study/STIM_011.jpg
1596.053	0.881	correct	study	Phase3	study/STIM_011.jpg
1600.345	1.235	correct	study	Phase3	study/STIM_012.jpg
1603.576	1.156	correct	study	Phase3	study/STIM_012.jpg
1607.294	0.935	correct	study	Phase3	study/STIM_012.jpg
1611.522	0.824	correct	study	Phase3	study/STIM_013.jpg
1615.977	0.665	correct	study	Phase3	study/STIM_013.jpg
1619.719	1.27	correct	study	Phase3	study/STIM_013.jpg
1624.134	0.872	correct	study	Phase3	study/STIM_014.jpg
1628.188	0.931	correct	study	Phase3	study/STIM_014.jpg
1631.849	0.799	correct	study	Phase3	study/STIM_014.jpg
1635.811	0.866	correct	study	Phase3	study/STIM_015.jpg
1640.597	1.14	correct	study	Phase3	study/STIM_015.jpg
1644.094	1.249	correct	study	Phase3	study/STIM_015.jpg
1649.167	0.806	correct	study	Phase3	study/STIM_016.jpg
1653.368	0.734	correct	study	Phase3	study/STIM_016.jpg
1657.389	0.896	correct	study	Phase3	study/STIM_016.jpg
1661.952	1.192	correct	study	Phase3	study/STIM_017.jpg
1666.083	0.947	correct	study	Phase3	study/STIM_017.jpg
1669.891	0.764	correct	study	Phase3	study/STIM_017.jpg
1672.907	1.164	correct	study	Phase3	study/STIM_018.jpg
1676.472	1.284	correct	study	Phase3	study/STIM_018.jpg
1681.276	1.013	correct	study	Phase3	study/STIM_018.jpg
1685.791	1.091	correct	study	Phase3	study/STIM_019.jpg
1689.153	1.286	correct	study	Phase3	study/STIM_019.jpg
1693.43	0.637	correct	study	Phase3	study/STIM_019.jpg
1697.299	1.327	correct	study	Phase3	study/STIM_020.jpg
1702.49	0.818	correct	study	Phase3	study/STIM_020.jpg
1706.205	1.098	correct	study	Phase3	study/STIM_020.jpg
1710.373	1.327	correct	study	Phase3	study/STIM_021.jpg
1714.976	1.213	incorrect	study	Phase3	study/STIM_021.jpg
1719.538	1.12	correct	study	Phase3	study/STIM_021.jpg
1722.757	0.68	incorrect	study	Phase3	study/STIM_022.jpg
1725.677	0.906	correct	study	Phase3	study/STIM_022.jpg
1729.665	1.134	correct	study	Phase3	study/STIM_022.jpg
1733.751	0.959	correct	study	Phase3	study/STIM_023.jpg
1738.359	0.902	correct	study	Phase3	study/STIM_023.jpg
1742.638	0.838	correct	study	Phase3	study/STIM_023.jpg
1746.105	1.08	correct	study	Phase3	study/STIM_024.jpg
1749.928	0.793	correct	study	Phase3	study/STIM_024.jpg
1754.662	0.941	correct	study	Phase3	study/STIM_024.jpg
1758.944	1.204	correct	study	Phase3	study/STIM_025.jpg
1762.336	1.136	incorrect	study	Phase3	study/STIM_025.jpg
1765.428	0.791	correct	study	Phase3	study/STIM_025.jpg
1770.016	1.188	correct	study	Phase3	study/STIM_026.jpg
1774.749	0.594	correct	study	Phase3	study/STIM_026.jpg
1777.377	0.725	correct	study	Phase3	study/STIM_026.jpg
1781.01	1.238	correct	study	Phase3	study/STIM_027.jpg
1785.396	1.222	correct	study	Phase3	study/STIM_027.jpg
1790.384	0.88	correct	study	Phase3	study/STIM_027.jpg
1795.094	0.817	correct	study	Phase3	study/STIM_028.jpg
1798.584	1.088	correct	study	Phase3	study/STIM_028.jpg
1801.659	1.182	correct	study	Phase3	study/STIM_028.jpg
1805.577	0.756	correct	study	Phase3	study/STIM_029.jpg
1808.356	1.047	correct	study	Phase3	study/STIM_029.jpg
1811.571	1.095	correct	study	Phase3	study/STIM_029.jpg
1815.119	0.811	correct	test	Phase3	test/STIM_000.jpg
1819.23	0.635	correct	test	Phase3	test/STIM_000.jpg
1822.705	0.906	correct	test	Phase3	test/STIM_000.jpg
1827.112	1.156	correct	test	Phase3	test/STIM_001.jpg
1831.552	1.148	correct	test	Phase3	test/STIM_001.jpg
1836.311	1.148	correct	test	Phase3	test/STIM_001.jpg
1840.06	1.148	correct	test	Phase3	test/STIM_002.jpg
1844.741	1.134	correct	test	Phase3	test/STIM_002.jpg
1848.85	0.736	correct	test	Phase3	test/STIM_002.jpg
1853.072	1.285	correct	test	Phase3	test/STIM_003.jpg
1856.58	1.285	correct	test	Phase3	test/STIM_003.jpg
1860.702	0.975	correct	test	Phase3	test/STIM_003.jpg
1865.191	1.467	correct	test	Phase3	test/STIM_004.jpg
1869.63	1.136	correct	test	Phase3	test/STIM_004.jpg
1874.462	1.336	correct	test	Phase3	test/STIM_004.jpg
1879.408	0.876	correct	test	Phase3	test/STIM_005.jpg
1882.814	1.227	correct	test	Phase3	test/STIM_005.jpg
1886.5	0.654	correct	test	Phase3	test/STIM_005.jpg
1890.379	1.223	correct	test	Phase3	test/STIM_006.jpg
1893.793	0.925	correct	test	Phase3	test/STIM_006.jpg
1897.261	0.752	correct	test	Phase3	test/STIM_006.jpg
1900.162	1.41	correct	test	Phase3	test/STIM_007.jpg
1904.317	1.291	correct	test	Phase3	test/STIM_007.jpg
1908.783	1.188	correct	test	Phase3	test/STIM_007.jpg
1913.632	1.079	incorrect	test	Phase3	test/STIM_008.jpg
1917.752	0.818	correct	test	Phase3	test/STIM_008.jpg
1921.629	1.333	correct	test	Phase3	test/STIM_008.jpg
1925.659	1.392	correct	test	Phase3	test/STIM_009.jpg
1930.805	1.378	correct	test	Phase3	test/STIM_009.jpg
1935.2	1.037	correct	test	Phase3	test/STIM_009.jpg
1939.805	1.075	correct	test	Phase3	test/STIM_010.jpg
1944.217	1.342	correct	test	Phase3	test/STIM_010.jpg
1947.778	0.936	correct	test	Phase3	test/STIM_010.jpg
1952.26	0.757	correct	test	Phase3	test/STIM_011.jpg
1955.602	0.973	correct	test	Phase3	test/STIM_011.jpg
1959.661	0.714	correct	test	Phase3	test/STIM_011.jpg
1963.794	0.841	correct	test	Phase3	test/STIM_012.jpg
1968.11	0.672	correct	test	Phase3	test/STIM_012.jpg
1970.822	0.804	correct	test	Phase3	test/STIM_012.jpg
1973.845	1.283	correct	test	Phase3	test/STIM_013.jpg
1977.277	1.434	correct	test	Phase3	test/STIM_013.jpg
1980.738	0.601	correct	test	Phase3	test/STIM_013.jpg
1984.602	0.896	correct	test	Phase3	test/STIM_014.jpg
1988.867	0.91	correct	test	Phase3	test/STIM_014.jpg
1993.593	0.698	correct	test	Phase3	test/STIM_014.jpg
1997.185	0.983	correct	test	Phase3	test/STIM_015.jpg
2000.735	1.059	correct	test	Phase3	test/STIM_015.jpg
2004.958	0.59	correct	test	Phase3	test/STIM_015.jpg
2008.35	0.922	correct	test	Phase3	test/STIM_016.jpg
2012.255	0.612	correct	test	Phase3	test/STIM_016.jpg
2016.506	1.242	incorrect	test	Phase3	test/STIM_016.jpg
2020.151	0.953	correct	test	Phase3	test/STIM_017.jpg
2025.077	1.062	correct	test	Phase3	test/STIM_017.jpg
2029.11	0.834	correct	test	Phase3	test/STIM_017.jpg
2032.948	1.375	incorrect	test	Phase3	test/STIM_018.jpg
2036.381	1.184	correct	test	Phase3	test/STIM_018.jpg
2039.96	0.931	correct	test	Phase3	test/STIM_018.jpg
2043.796	0.672	incorrect	test	Phase3	test/STIM_019.jpg
2047.239	1.216	correct	test	Phase3	test/STIM_019.jpg
2051.902	0.762	correct	test	Phase3	test/STIM_019.jpg
2056.097	1.374	correct	test	Phase3	test/STIM_020.jpg
2060.225	1.17	correct	test	Phase3	test/STIM_020.jpg
2064.121	1.227	correct	test	Phase3	test/STIM_020.jpg
2069.352	0.66	correct	test	Phase3	test/STIM_021.jpg
2073.153	1.002	correct	test	Phase3	test/STIM_021.jpg
2076.363	1.233	correct	test	Phase3	test/STIM_021.jpg
2080.108	1.159	correct	test	Phase3	test/STIM_022.jpg
2084.968	0.908	correct	test	Phase3	test/STIM_022.jpg
2089.113	0.684	correct	test	Phase3	test/STIM_022.jpg
2092.195	0.881	correct	test	Phase3	test/STIM_023.jpg
2095.127	0.757	correct	test	Phase3	test/STIM_023.jpg
2098.839	0.978	correct	test	Phase3	test/STIM_023.jpg
2103.16	1.131	correct	test	Phase3	test/STIM_024.jpg
2108.015	1.044	correct	test	Phase3	test/STIM_024.jpg
2111.621	0.611	correct	test	Phase3	test/STIM_024.jpg
2115.866	0.623	correct	test	Phase3	test/STIM_025.jpg
2119.875	1.11	correct	test	Phase3	test/STIM_025.jpg
2123.212	0.79	correct	test	Phase3	test/STIM_025.jpg
2126.892	0.618	correct	test	Phase3	test/STIM_026.jpg
2130.557	1.283	correct	test	Phase3	test/STIM_026.jpg
2134.207	0.756	correct	test	Phase3	test/STIM_026.jpg
2138.594	0.937	correct	test	Phase3	test/STIM_027.jpg
2141.595	0.737	correct	test	Phase3	test/STIM_027.jpg
2145.14	0.982	correct	test	Phase3	test/STIM_027.jpg
2148.519	0.717	correct	test	Phase3	test/STIM_028.jpg
2152.661	0.752	correct	test	Phase3	test/STIM_028.jpg
2155.55	0.824	correct	test	Phase3	test/STIM_028.jpg
2158.812	0.925	correct	test	Phase3	test/STIM_029.jpg
2161.914	1.147	correct	test	Phase3	test/STIM_029.jpg
2167.011	0.968	correct	test	Phase3	test/STIM_029.jpg
