onset	duration	response_time_ms	trial_type	learning_stage	stimulus	response_port
0.0	1.26	1259.5	study	Phase1	study/STIM_000.jpg	99
4.275	1.496	1496.3	study	Phase1	study/STIM_000.jpg	99
9.379	1.189	1189.2	study	Phase1	study/STIM_000.jpg	99
14.189	1.296	1295.6	study	Phase1	study/STIM_001.jpg	99
18.353	1.221	1220.9	study	Phase1	study/STIM_001.jpg	100
21.924	1.081	1081.4	study	Phase1	study/STIM_001.jpg	99
25.724	1.087	1087.4	study	Phase1	study/STIM_002.jpg	100
30.407	1.591	1590.7	study	Phase1	study/STIM_002.jpg	99
35.976	1.324	1323.9	study	Phase1	study/STIM_002.jpg	100
40.971	1.614	1614.5	study	Phase1	study/STIM_003.jpg	100
44.977	1.272	1271.6	study	Phase1	study/STIM_003.jpg	99
49.257	1.409	1409.0	study	Phase1	study/STIM_003.jpg	100
54.351	1.145	1144.6	study	Phase1	study/STIM_004.jpg	100
57.742	1.494	1494.0	study	Phase1	study/STIM_004.jpg	99
61.322	1.402	1401.7	study	Phase1	study/STIM_004.jpg	100
64.971	1.287	1287.4	study	Phase1	study/STIM_005.jpg	100
69.09	1.187	1187.4	study	Phase1	study/STIM_005.jpg	100
73.826	1.336	1336.4	study	Phase1	study/STIM_005.jpg	100
79.024	1.568	1568.5	study	Phase1	study/STIM_006.jpg	100
84.23	1.003	1002.8	study	Phase1	study/STIM_006.jpg	100
88.167	1.159	1158.6	study	Phase1	study/STIM_006.jpg	99
92.2	0.924	923.8	study	Phase1	study/STIM_007.jpg	99
96.965	1.488	1488.3	study	Phase1	study/STIM_007.jpg	99
100.639	1.511	1510.9	study	Phase1	study/STIM_007.jpg	100
104.287	1.411	1411.4	study	Phase1	study/STIM_008.jpg	99
107.714	1.226	1226.3	study	Phase1	study/STIM_008.jpg	99
111.261	0.833	832.9	study	Phase1	study/STIM_008.jpg	100
115.525	1.698	1698.0	study	Phase1	study/STIM_009.jpg	99
120.236	0.835	834.8	study	Phase1	study/STIM_009.jpg	100
123.586	1.276	1276.4	study	Phase1	study/STIM_009.jpg	99
128.072	1.258	1258.1	study	Phase1	study/STIM_010.jpg	100
132.892	1.167	1166.8	study	Phase1	study/STIM_010.jpg	99
137.085	1.461	1461.4	study	Phase1	study/STIM_010.jpg	99
142.388	1.409	1409.0	study	Phase1	study/STIM_011.jpg	99
146.329	1.74	1740.3	study	Phase1	study/STIM_011.jpg	99
150.324	1.171	1170.8	study	Phase1	study/STIM_011.jpg	99
154.5	1.437	1436.6	study	Phase1	study/STIM_012.jpg	100
158.08	1.748	1748.0	study	Phase1	study/STIM_012.jpg	100
163.506	1.108	1108.3	study	Phase1	study/STIM_012.jpg	99
167.585	1.056	1056.5	study	Phase1	study/STIM_013.jpg	99
171.331	0.94	940.0	study	Phase1	study/STIM_013.jpg	100
174.37	1.179	1178.8	study	Phase1	study/STIM_013.jpg	99
178.15	1.447	1447.2	study	Phase1	study/STIM_014.jpg	99
183.165	1.135	1135.4	study	Phase1	study/STIM_014.jpg	99
187.731	1.604	1604.3	study	Phase1	study/STIM_014.jpg	100
192.552	1.254	1254.2	study	Phase1	study/STIM_015.jpg	99
197.344	1.682	1681.9	study	Phase1	study/STIM_015.jpg	99
201.795	1.497	1497.0	study	Phase1	study/STIM_015.jpg	100
205.957	1.278	1278.4	study	Phase1	study/STIM_016.jpg	100
211.235	1.296	1296.3	study	Phase1	study/STIM_016.jpg	99
214.857	0.8	800.1	study	Phase1	study/STIM_016.jpg	99
218.746	1.061	1060.9	study	Phase1	study/STIM_017.jpg	100
223.289	1.062	1061.8	study	Phase1	study/STIM_017.jpg	100
228.332	1.115	1115.3	study	Phase1	study/STIM_017.jpg	99
232.353	1.682	1681.5	study	Phase1	study/STIM_018.jpg	99
237.37	1.659	1659.0	study	Phase1	study/STIM_018.jpg	99
242.189	0.985	985.4	study	Phase1	study/STIM_018.jpg	99
246.691	1.531	1531.2	study	Phase1	study/STIM_019.jpg	99
250.324	1.487	1486.8	study	Phase1	study/STIM_019.jpg	99
254.811	1.469	1469.1	study	Phase1	study/STIM_019.jpg	99
258.446	1.04	1040.1	study	Phase1	study/STIM_020.jpg	100
262.002	1.369	1368.9	study	Phase1	study/STIM_020.jpg	99
265.777	0.824	824.0	study	Phase1	study/STIM_020.jpg	99
270.57	1.339	1338.8	study	Phase1	study/STIM_021.jpg	99
275.606	1.315	1314.9	study	Phase1	study/STIM_021.jpg	100
279.307	1.414	1413.7	study	Phase1	study/STIM_021.jpg	99
284.385	0.933	932.6	study	Phase1	study/STIM_022.jpg	99
287.517	1.686	1685.5	study	Phase1	study/STIM_022.jpg	100
292.511	1.223	1222.9	study	Phase1	study/STIM_022.jpg	99
297.025	1.844	1844.2	study	Phase1	study/STIM_023.jpg	100
302.707	1.413	1412.7	study	Phase1	study/STIM_023.jpg	100
306.888	1.208	1208.0	study	Phase1	study/STIM_023.jpg	99
310.925	1.408	1408.5	study	Phase1	study/STIM_024.jpg	100
314.651	1.445	1445.4	study	Phase1	study/STIM_024.jpg	99
319.262	0.896	896.0	study	Phase1	study/STIM_024.jpg	100
322.868	1.367	1367.4	study	Phase1	study/STIM_025.jpg	100
327.787	0.886	886.3	study	Phase1	study/STIM_025.jpg	99
331.617	1.466	1466.4	study	Phase1	study/STIM_025.jpg	99
336.424	1.094	1093.7	study	Phase1	study/STIM_026.jpg	99
339.552	0.954	954.1	study	Phase1	study/STIM_026.jpg	99
342.985	0.855	854.8	study	Phase1	study/STIM_026.jpg	99
345.898	1.496	1496.2	study	Phase1	study/STIM_027.jpg	100
351.285	1.738	1737.6	study	Phase1	study/STIM_027.jpg	99
356.251	0.786	786.4	study	Phase1	study/STIM_027.jpg	99
360.084	0.89	889.9	study	Phase1	study/STIM_028.jpg	100
363.127	1.196	1196.0	study	Phase1	study/STIM_028.jpg	99
367.263	1.124	1124.3	study	Phase1	study/STIM_028.jpg	100
370.877	0.95	950.0	study	Phase1	study/STIM_029.jpg	100
374.098	1.399	1399.0	study	Phase1	study/STIM_029.jpg	99
377.949	1.367	1367.2	study	Phase1	study/STIM_029.jpg	100
382.116	1.071	1071.2	test	Phase1	test/STIM_000.jpg	100
385.794	1.046	1046.2	test	Phase1	test/STIM_000.jpg	100
388.894	0.977	977.4	test	Phase1	test/STIM_000.jpg	100
392.244	1.047	1047.3	test	Phase1	test/STIM_001.jpg	100
397.057	0.685	684.9	test	Phase1	test/STIM_001.jpg	100
400.908	0.742	741.9	test	Phase1	test/STIM_001.jpg	99
405.138	1.3	1300.5	test	Phase1	test/STIM_002.jpg	100
408.872	1.244	1244.3	test	Phase1	test/STIM_002.jpg	100
413.905	0.675	675.4	test	Phase1	test/STIM_002.jpg	99
417.719	0.66	659.6	test	Phase1	test/STIM_003.jpg	100
421.597	0.774	774.5	test	Phase1	test/STIM_003.jpg	100
425.652	0.979	979.2	test	Phase1	test/STIM_003.jpg	100
429.316	0.83	830.2	test	Phase1	test/STIM_004.jpg	100
433.969	0.655	654.6	test	Phase1	test/STIM_004.jpg	100
436.844	0.654	653.5	test	Phase1	test/STIM_004.jpg	99
440.036	1.238	1238.5	test	Phase1	test/STIM_005.jpg	99
445.238	1.159	1158.8	test	Phase1	test/STIM_005.jpg	100
449.795	1.372	1371.5	test	Phase1	test/STIM_005.jpg	99
454.69	1.326	1326.4	test	Phase1	test/STIM_006.jpg	100
459.426	1.262	1261.7	test	Phase1	test/STIM_006.jpg	100
463.109	1.006	1005.5	test	Phase1	test/STIM_006.jpg	100
466.61	1.077	1076.8	test	Phase1	test/STIM_007.jpg	100
470.353	0.959	959.4	test	Phase1	test/STIM_007.jpg	99
474.212	0.998	997.5	test	Phase1	test/STIM_007.jpg	100
477.527	0.668	668.2	test	Phase1	test/STIM_008.jpg	99
481.359	1.214	1213.9	test	Phase1	test/STIM_008.jpg	99
484.79	1.187	1186.7	test	Phase1	test/STIM_008.jpg	100
489.88	1.161	1160.9	test	Phase1	test/STIM_009.jpg	100
493.62	1.02	1020.1	test	Phase1	test/STIM_009.jpg	99
496.875	0.763	763.1	test	Phase1	test/STIM_009.jpg	99
500.666	0.641	641.0	test	Phase1	test/STIM_010.jpg	100
504.155	1.011	1010.6	test	Phase1	test/STIM_010.jpg	100
508.269	1.356	1356.5	test	Phase1	test/STIM_010.jpg	100
512.193	0.813	812.7	test	Phase1	test/STIM_011.jpg	100
515.763	1.238	1237.6	test	Phase1	test/STIM_011.jpg	99
519.405	1.034	1034.3	test	Phase1	test/STIM_011.jpg	99
523.483	0.954	953.9	test	Phase1	test/STIM_012.jpg	99
527.413	0.93	929.6	test	Phase1	test/STIM_012.jpg	100
531.87	0.732	732.2	test	Phase1	test/STIM_012.jpg	99
536.419	1.029	1028.8	test	Phase1	test/STIM_013.jpg	99
539.564	1.022	1022.2	test	Phase1	test/STIM_013.jpg	100
544.307	0.705	705.3	test	Phase1	test/STIM_013.jpg	99
547.826	1.273	1272.8	test	Phase1	test/STIM_014.jpg	100
553.084	1.342	1341.8	test	Phase1	test/STIM_014.jpg	99
556.521	0.742	742.2	test	Phase1	test/STIM_014.jpg	100
560.923	1.293	1292.6	test	Phase1	test/STIM_015.jpg	100
565.455	1.311	1310.9	test	Phase1	test/STIM_015.jpg	99
568.973	0.971	971.4	test	Phase1	test/STIM_015.jpg	100
573.1	0.957	957.3	test	Phase1	test/STIM_016.jpg	100
578.045	1.035	1034.7	test	Phase1	test/STIM_016.jpg	100
582.989	0.748	748.3	test	Phase1	test/STIM_016.jpg	99
587.354	0.826	825.9	test	Phase1	test/STIM_017.jpg	100
590.723	0.658	657.7	test	Phase1	test/STIM_017.jpg	100
593.774	1.193	1193.1	test	Phase1	test/STIM_017.jpg	100
598.814	1.212	1211.6	test	Phase1	test/STIM_018.jpg	100
603.626	1.107	1107.3	test	Phase1	test/STIM_018.jpg	99
608.398	1.057	1057.1	test	Phase1	test/STIM_018.jpg	100
612.728	0.853	853.3	test	Phase1	test/STIM_019.jpg	99
616.815	0.806	806.0	test	Phase1	test/STIM_019.jpg	99
619.622	1.083	1082.6	test	Phase1	test/STIM_019.jpg	100
624.209	0.91	910.4	test	Phase1	test/STIM_020.jpg	100
627.933	1.114	1113.8	test	Phase1	test/STIM_020.jpg	99
632.975	1.325	1324.8	test	Phase1	test/STIM_020.jpg	99
638.14	0.965	965.0	test	Phase1	test/STIM_021.jpg	99
642.589	1.148	1147.5	test	Phase1	test/STIM_021.jpg	99
647.17	1.37	1370.4	test	Phase1	test/STIM_021.jpg	100
652.206	1.149	1148.6	test	Phase1	test/STIM_022.jpg	99
656.006	1.214	1213.6	test	Phase1	test/STIM_022.jpg	99
659.657	1.095	1095.3	test	Phase1	test/STIM_022.jpg	100
664.731	0.987	986.9	test	Phase1	test/STIM_023.jpg	99
668.482	1.116	1116.2	test	Phase1	test/STIM_023.jpg	100
672.805	1.321	1321.1	test	Phase1	test/STIM_023.jpg	100
676.262	1.367	1367.1	test	Phase1	test/STIM_024.jpg	100
679.953	0.642	642.4	test	Phase1	test/STIM_024.jpg	100
684.272	0.649	649.2	test	Phase1	test/STIM_024.jpg	99
688.436	1.066	1066.2	test	Phase1	test/STIM_025.jpg	100
692.994	0.671	670.6	test	Phase1	test/STIM_025.jpg	100
696.119	1.042	1042.0	test	Phase1	test/STIM_025.jpg	100
699.498	1.354	1354.4	test	Phase1	test/STIM_026.jpg	99
702.968	1.326	1325.6	test	Phase1	test/STIM_026.jpg	100
707.692	1.021	1021.2	test	Phase1	test/STIM_026.jpg	100
710.779	0.832	831.5	test	Phase1	test/STIM_027.jpg	99
713.764	1.155	1154.7	test	Phase1	test/STIM_027.jpg	99
717.464	0.636	635.7	test	Phase1	test/STIM_027.jpg	99
721.767	0.925	925.0	test	Phase1	test/STIM_028.jpg	100
725.148	1.093	1092.8	test	Phase1	test/STIM_028.jpg	99
729.218	1.109	1109.1	test	Phase1	test/STIM_028.jpg	100
733.09	1.198	1198.5	test	Phase1	test/STIM_029.jpg	99
738.142	0.928	927.5	test	Phase1	test/STIM_029.jpg	100
742.844	0.67	669.6	test	Phase1	test/STIM_029.jpg	99
745.678	1.474	1473.9	study	Phase2	study/STIM_000.jpg	99
750.876	1.056	1056.4	study	Phase2	study/STIM_000.jpg	100
754.735	0.781	781.1	study	Phase2	study/STIM_000.jpg	99
758.875	1.155	1155.0	study	Phase2	study/STIM_001.jpg	100
763.342	1.386	1386.3	study	Phase2	study/STIM_001.jpg	99
768.389	0.792	791.9	study	Phase2	study/STIM_001.jpg	100
771.825	0.73	729.7	study	Phase2	study/STIM_002.jpg	99
776.438	1.229	1228.9	study	Phase2	study/STIM_002.jpg	99
780.171	1.002	1002.5	study	Phase2	study/STIM_002.jpg	100
783.472	1.459	1458.6	study	Phase2	study/STIM_003.jpg	100
788.548	1.452	1452.4	study	Phase2	study/STIM_003.jpg	99
792.731	1.268	1268.2	study	Phase2	study/STIM_003.jpg	99
797.368	1.276	1276.3	study	Phase2	study/STIM_004.jpg	100
802.334	0.841	840.7	study	Phase2	study/STIM_004.jpg	99
805.675	1.214	1214.1	study	Phase2	study/STIM_004.jpg	99
809.525	0.996	995.7	study	Phase2	study/STIM_005.jpg	100
813.634	1.421	1420.9	study	Phase2	study/STIM_005.jpg	100
818.439	1.229	1229.2	study	Phase2	study/STIM_005.jpg	100
822.47	1.151	1150.7	study	Phase2	study/STIM_006.jpg	100
826.265	1.255	1254.9	study	Phase2	study/STIM_006.jpg	99
830.938	1.373	1373.3	study	Phase2	study/STIM_006.jpg	99
835.534	0.78	779.5	study	Phase2	study/STIM_007.jpg	99
838.885	1.195	1194.7	study	Phase2	study/STIM_007.jpg	100
843.27	1.207	1206.8	study	Phase2	study/STIM_007.jpg	100
846.598	1.433	1433.1	study	Phase2	study/STIM_008.jpg	100
851.432	0.695	694.8	study	Phase2	study/STIM_008.jpg	100
854.443	1.04	1040.3	study	Phase2	study/STIM_008.jpg	99
858.398	1.023	1023.3	study	Phase2	study/STIM_009.jpg	100
862.044	1.045	1045.3	study	Phase2	study/STIM_009.jpg	100
866.222	0.822	821.5	study	Phase2	study/STIM_009.jpg	100
870.045	0.892	891.8	study	Phase2	study/STIM_010.jpg	99
874.67	0.694	693.8	study	Phase2	study/STIM_010.jpg	99
878.459	0.767	767.4	study	Phase2	study/STIM_010.jpg	99
881.965	0.981	981.2	study	Phase2	study/STIM_011.jpg	100
886.223	1.434	1433.8	study	Phase2	study/STIM_011.jpg	100
891.138	1.295	1295.3	study	Phase2	study/STIM_011.jpg	100
895.986	1.268	1268.2	study	Phase2	study/STIM_012.jpg	100
900.271	0.745	745.0	study	Phase2	study/STIM_012.jpg	100
904.109	1.388	1388.0	study	Phase2	study/STIM_012.jpg	99
908.709	0.907	907.4	study	Phase2	study/STIM_013.jpg	100
913.062	1.285	1285.2	study	Phase2	study/STIM_013.jpg	99
918.054	0.694	694.4	study	Phase2	study/STIM_013.jpg	100
922.123	1.165	1164.9	study	Phase2	study/STIM_014.jpg	99
926.393	1.019	1019.4	study	Phase2	study/STIM_014.jpg	99
931.032	0.956	955.8	study	Phase2	study/STIM_014.jpg	99
934.104	1.486	1485.7	study	Phase2	study/STIM_015.jpg	99
938.966	0.983	983.0	study	Phase2	study/STIM_015.jpg	99
943.275	1.302	1301.5	study	Phase2	study/STIM_015.jpg	100
947.335	1.147	1147.0	study	Phase2	study/STIM_016.jpg	100
951.066	1.332	1332.4	study	Phase2	study/STIM_016.jpg	99
955.847	1.001	1001.4	study	Phase2	study/STIM_016.jpg	100
958.962	1.053	1053.4	study	Phase2	study/STIM_017.jpg	99
963.234	0.681	680.9	study	Phase2	study/STIM_017.jpg	100
966.643	1.304	1304.5	study	Phase2	study/STIM_017.jpg	99
970.208	1.433	1433.1	study	Phase2	study/STIM_018.jpg	100
974.696	1.11	1109.8	study	Phase2	study/STIM_018.jpg	99
979.118	1.354	1354.5	study	Phase2	study/STIM_018.jpg	99
982.999	1.527	1527.0	study	Phase2	study/STIM_019.jpg	99
987.834	1.127	1127.0	study	Phase2	study/STIM_019.jpg	100
991.793	0.871	870.7	study	Phase2	study/STIM_019.jpg	100
996.152	1.387	1386.9	study	Phase2	study/STIM_020.jpg	99
1000.826	0.881	881.2	study	Phase2	study/STIM_020.jpg	100
1005.325	1.022	1021.9	study	Phase2	study/STIM_020.jpg	99
1008.55	0.774	773.9	study	Phase2	study/STIM_021.jpg	100
1012.934	1.451	1451.1	study	Phase2	study/STIM_021.jpg	99
1018.225	1.352	1351.7	study	Phase2	study/STIM_021.jpg	99
1022.015	1.434	1433.5	study	Phase2	study/STIM_022.jpg	100
1025.983	0.872	872.3	study	Phase2	study/STIM_022.jpg	99
1029.499	0.755	755.2	study	Phase2	study/STIM_022.jpg	100
1034.002	1.229	1229.4	study	Phase2	study/STIM_023.jpg	100
1037.624	0.816	816.4	study	Phase2	study/STIM_023.jpg	100
1041.367	1.156	1155.7	study	Phase2	study/STIM_023.jpg	99
1046.025	1.563	1562.9	study	Phase2	study/STIM_024.jpg	99
1050.001	1.14	1140.5	study	Phase2	study/STIM_024.jpg	99
1053.719	0.798	797.8	study	Phase2	study/STIM_024.jpg	99
1056.739	0.746	746.2	study	Phase2	study/STIM_025.jpg	99
1060.706	1.274	1273.5	study	Phase2	study/STIM_025.jpg	99
1064.208	0.864	863.6	study	Phase2	study/STIM_025.jpg	100
1068.757	1.388	1387.6	study	Phase2	study/STIM_026.jpg	99
1072.828	1.492	1491.5	study	Phase2	study/STIM_026.jpg	100
1077.921	0.843	842.6	study	Phase2	study/STIM_026.jpg	99
1082.332	1.333	1332.9	study	Phase2	study/STIM_027.jpg	99
1086.77	1.151	1151.2	study	Phase2	study/STIM_027.jpg	100
1090.461	0.912	912.4	study	Phase2	study/STIM_027.jpg	100
1093.991	1.208	1207.7	study	Phase2	study/STIM_028.jpg	100
1099.199	1.043	1042.9	study	Phase2	study/STIM_028.jpg	99
1103.927	1.271	1270.8	study	Phase2	study/STIM_028.jpg	100
1108.124	1.008	1008.2	study	Phase2	study/STIM_029.jpg	100
1112.885	1.422	1421.6	study	Phase2	study/STIM_029.jpg	100
1117.163	1.001	1001.0	study	Phase2	study/STIM_029.jpg	100
1121.52	0.934	934.1	test	Phase2	test/STIM_000.jpg	99
1125.585	0.704	704.2	test	Phase2	test/STIM_000.jpg	100
1129.794	0.973	973.4	test	Phase2	test/STIM_000.jpg	100
1134.562	0.846	846.3	test	Phase2	test/STIM_001.jpg	100
1139.287	1.231	1231.0	test	Phase2	test/STIM_001.jpg	99
1142.909	0.739	739.1	test	Phase2	test/STIM_001.jpg	100
1146.122	1.205	1205.1	test	Phase2	test/STIM_002.jpg	100
1150.785	0.819	819.3	test	Phase2	test/STIM_002.jpg	100
1155.571	0.814	814.1	test	Phase2	test/STIM_002.jpg	100
1158.987	0.714	714.2	test	Phase2	test/STIM_003.jpg	100
1162.458	1.146	1146.5	test	Phase2	test/STIM_003.jpg	100
1166.693	0.657	657.0	test	Phase2	test/STIM_003.jpg	100
1169.461	1.088	1088.5	test	Phase2	test/STIM_004.jpg	99
1172.945	1.238	1238.5	test	Phase2	test/STIM_004.jpg	99
1177.81	0.859	858.6	test	Phase2	test/STIM_004.jpg	100
1182.498	0.87	870.1	test	Phase2	test/STIM_005.jpg	99
1185.387	0.636	635.9	test	Phase2	test/STIM_005.jpg	99
1189.546	1.216	1216.1	test	Phase2	test/STIM_005.jpg	100
1192.998	0.805	804.6	test	Phase2	test/STIM_006.jpg	99
1196.157	1.137	1137.2	test	Phase2	test/STIM_006.jpg	99
1199.461	0.844	843.9	test	Phase2	test/STIM_006.jpg	99
1204.009	1.156	1155.9	test	Phase2	test/STIM_007.jpg	100
1208.157	0.854	853.9	test	Phase2	test/STIM_007.jpg	99
1211.829	0.654	654.3	test	Phase2	test/STIM_007.jpg	99
1215.348	0.942	942.4	test	Phase2	test/STIM_008.jpg	99
1219.469	1.039	1039.3	test	Phase2	test/STIM_008.jpg	100
1224.395	0.707	706.6	test	Phase2	test/STIM_008.jpg	99
1227.102	1.285	1285.0	test	Phase2	test/STIM_009.jpg	99
1231.902	0.9	900.4	test	Phase2	test/STIM_009.jpg	100
1235.606	0.686	685.6	test	Phase2	test/STIM_009.jpg	99
1238.434	1.314	1314.4	test	Phase2	test/STIM_010.jpg	99
1242.707	1.167	1167.3	test	Phase2	test/STIM_010.jpg	99
1246.309	1.194	1194.0	test	Phase2	test/STIM_010.jpg	100
1251.349	0.911	911.1	test	Phase2	test/STIM_011.jpg	100
1254.986	0.823	823.1	test	Phase2	test/STIM_011.jpg	99
1258.488	0.95	949.5	test	Phase2	test/STIM_011.jpg	99
1262.863	1.311	1311.2	test	Phase2	test/STIM_012.jpg	99
1267.118	1.209	1208.8	test	Phase2	test/STIM_012.jpg	100
1270.448	0.704	703.9	test	Phase2	test/STIM_012.jpg	99
1274.065	1.243	1243.3	test	Phase2	test/STIM_013.jpg	100
1278.077	1.305	1305.1	test	Phase2	test/STIM_013.jpg	99
1282.712	0.83	830.3	test	Phase2	test/STIM_013.jpg	100
1285.574	0.712	712.3	test	Phase2	test/STIM_014.jpg	99
1289.39	0.68	680.5	test	Phase2	test/STIM_014.jpg	100
1292.433	1.1	1100.1	test	Phase2	test/STIM_014.jpg	100
1296.634	0.818	818.3	test	Phase2	test/STIM_015.jpg	100
1299.646	0.8	800.5	test	Phase2	test/STIM_015.jpg	99
1304.406	1.112	1111.7	test	Phase2	test/STIM_015.jpg	100
1308.803	0.658	657.7	test	Phase2	test/STIM_016.jpg	100
1311.659	1.138	1137.5	test	Phase2	test/STIM_016.jpg	100
1315.58	1.11	1110.4	test	Phase2	test/STIM_016.jpg	100
1319.192	0.88	880.3	test	Phase2	test/STIM_017.jpg	100
1323.991	1.223	1223.2	test	Phase2	test/STIM_017.jpg	100
1327.613	1.232	1232.3	test	Phase2	test/STIM_017.jpg	99
1331.267	0.904	903.6	test	Phase2	test/STIM_018.jpg	100
1334.434	0.724	723.5	test	Phase2	test/STIM_018.jpg	100
1337.71	1.053	1053.3	test	Phase2	test/STIM_018.jpg	99
1341.633	0.716	715.9	test	Phase2	test/STIM_019.jpg	99
1345.992	1.288	1287.6	test	Phase2	test/STIM_019.jpg	99
1349.506	0.673	672.7	test	Phase2	test/STIM_019.jpg	100
1353.609	0.909	908.6	test	Phase2	test/STIM_020.jpg	100
1357.944	1.324	1324.2	test	Phase2	test/STIM_020.jpg	99
1361.653	0.684	683.8	test	Phase2	test/STIM_020.jpg	99
1365.922	1.058	1057.7	test	Phase2	test/STIM_021.jpg	100
1369.526	0.853	853.1	test	Phase2	test/STIM_021.jpg	99
1372.895	0.687	687.1	test	Phase2	test/STIM_021.jpg	100
1376.181	0.967	967.4	test	Phase2	test/STIM_022.jpg	99
1380.753	1.051	1051.0	test	Phase2	test/STIM_022.jpg	100
1384.795	1.329	1328.7	test	Phase2	test/STIM_022.jpg	100
1389.277	1.323	1323.1	test	Phase2	test/STIM_023.jpg	99
1393.331	0.667	666.8	test	Phase2	test/STIM_023.jpg	100
1397.442	1.205	1204.6	test	Phase2	test/STIM_023.jpg	100
1401.535	0.764	763.9	test	Phase2	test/STIM_024.jpg	100
1404.614	1.301	1301.1	test	Phase2	test/STIM_024.jpg	100
1408.498	1.262	1261.8	test	Phase2	test/STIM_024.jpg	99
1411.808	0.999	998.6	test	Phase2	test/STIM_025.jpg	100
1416.777	1.068	1067.7	test	Phase2	test/STIM_025.jpg	99
1420.972	0.69	690.0	test	Phase2	test/STIM_025.jpg	100
1425.513	1.279	1279.2	test	Phase2	test/STIM_026.jpg	100
1429.444	0.659	659.1	test	Phase2	test/STIM_026.jpg	99
1433.173	0.972	972.5	test	Phase2	test/STIM_026.jpg	99
1436.481	0.64	640.3	test	Phase2	test/STIM_027.jpg	100
1439.568	0.658	657.8	test	Phase2	test/STIM_027.jpg	99
1442.854	0.766	766.5	test	Phase2	test/STIM_027.jpg	100
1446.03	1.141	1141.2	test	Phase2	test/STIM_028.jpg	100
1450.194	1.323	1323.1	test	Phase2	test/STIM_028.jpg	100
1454.518	1.264	1264.4	test	Phase2	test/STIM_028.jpg	100
1458.336	0.927	927.0	test	Phase2	test/STIM_029.jpg	100
1463.045	0.664	663.5	test	Phase2	test/STIM_029.jpg	100
1466.358	0.805	805.2	test	Phase2	test/STIM_029.jpg	100
1469.606	0.736	735.7	study	Phase3	study/STIM_000.jpg	99
1474.21	0.698	697.5	study	Phase3	study/STIM_000.jpg	99
1477.4	1.28	1280.2	study	Phase3	study/STIM_000.jpg	100
1482.259	0.668	668.4	study	Phase3	study/STIM_001.jpg	100
1485.744	0.785	785.1	study	Phase3	study/STIM_001.jpg	99
1490.174	1.166	1166.2	study	Phase3	study/STIM_001.jpg	99
1495.196	0.767	766.9	study	Phase3	study/STIM_002.jpg	100
1497.992	1.241	1240.6	study	Phase3	study/STIM_002.jpg	100
1502.956	0.834	834.3	study	Phase3	study/STIM_002.jpg	100
1505.868	0.832	832.5	study	Phase3	study/STIM_003.jpg	99
1508.752	0.891	891.2	study	Phase3	study/STIM_003.jpg	99
1512.385	0.718	718.5	study	Phase3	study/STIM_003.jpg	99
1516.859	0.913	913.1	study	Phase3	study/STIM_004.jpg	100
1520.951	0.696	696.0	study	Phase3	study/STIM_004.jpg	100
1524.739	0.766	766.5	study	Phase3	study/STIM_004.jpg	99
1528.488	1.161	1161.3	study	Phase3	study/STIM_005.jpg	99
1531.881	0.838	838.2	study	Phase3	study/STIM_005.jpg	99
1535.022	1.19	1189.6	study	Phase3	study/STIM_005.jpg	100
1539.18	0.988	988.3	study	Phase3	study/STIM_006.jpg	100
1543.28	1.176	1175.6	study	Phase3	study/STIM_006.jpg	100
1546.986	1.084	1084.1	study	Phase3	study/STIM_006.jpg	100
1551.16	0.951	951.2	study	Phase3	study/STIM_007.jpg	99
1555.549	1.244	1243.9	study	Phase3	study/STIM_007.jpg	99
1560.66	0.969	968.9	study	Phase3	study/STIM_007.jpg	99
1565.34	0.936	936.1	study	Phase3	study/STIM_008.jpg	100
1568.631	0.709	708.6	study	Phase3	study/STIM_008.jpg	99
1573.08	1.25	1250.3	study	Phase3	study/STIM_008.jpg	100
1577.381	0.836	835.8	study	Phase3	study/STIM_009.jpg	100
1580.857	1.141	1140.8	study	Phase3	study/STIM_009.jpg	100
1585.214	0.882	881.7	study	Phase3	study/STIM_009.jpg	99
1589.239	1.284	1283.8	study	Phase3	study/STIM_010.jpg	99
1593.668	1.121	1120.8	study	Phase3	study/STIM_010.jpg	99
1598.599	0.594	594.2	study	Phase3	study/STIM_010.jpg	100
1602.138	0.613	612.6	study	Phase3	study/STIM_011.jpg	100
1605.195	0.94	940.2	study	Phase3	study/STIM_011.jpg	99
1609.179	0.872	871.7	study	Phase3	study/STIM_011.jpg	100
1612.721	0.88	880.2	study	Phase3	study/STIM_012.jpg	100
1616.017	0.993	993.4	study	Phase3	study/STIM_012.jpg	99
1620.594	1.325	1324.8	study	Phase3	study/STIM_012.jpg	100
1624.898	1.105	1105.4	study	Phase3	study/STIM_013.jpg	100
1628.886	1.189	1188.6	study	Phase3	study/STIM_013.jpg	100
1633.48	1.142	1141.9	study	Phase3	study/STIM_013.jpg	100
1638.373	0.931	930.7	study	Phase3	study/STIM_014.jpg	99
1643.035	0.9	899.7	study	Phase3	study/STIM_014.jpg	100
1647.031	0.873	873.1	study	Phase3	study/STIM_014.jpg	100
1651.073	0.88	879.5	study	Phase3	study/STIM_015.jpg	100
1655.743	0.617	617.2	study	Phase3	study/STIM_015.jpg	100
1659.08	1.063	1063.3	study	Phase3	study/STIM_015.jpg	100
1662.447	1.01	1009.8	study	Phase3	study/STIM_016.jpg	99
1666.972	0.979	979.3	study	Phase3	study/STIM_016.jpg	100
1671.466	1.212	1212.3	study	Phase3	study/STIM_016.jpg	100
1675.387	1.327	1327.3	study	Phase3	study/STIM_017.jpg	99
1678.763	0.859	858.9	study	Phase3	study/STIM_017.jpg	99
1681.865	0.799	799.0	study	Phase3	study/STIM_017.jpg	99
1686.041	0.646	645.7	study	Phase3	study/STIM_018.jpg	99
1688.872	0.638	637.7	study	Phase3	study/STIM_018.jpg	100
1692.653	1.304	1303.6	study	Phase3	study/STIM_018.jpg	99
1697.709	0.721	721.1	study	Phase3	study/STIM_019.jpg	100
1700.583	1.166	1166.1	study	Phase3	study/STIM_019.jpg	100
1704.862	0.774	774.1	study	Phase3	study/STIM_019.jpg	99
1709.618	1.15	1150.1	study	Phase3	study/STIM_020.jpg	99
1713.912	1.234	1234.4	study	Phase3	study/STIM_020.jpg	100
1719.039	0.799	798.8	study	Phase3	study/STIM_020.jpg	100
1723.218	0.881	881.3	study	Phase3	study/STIM_021.jpg	99
1728.059	0.956	955.8	study	Phase3	study/STIM_021.jpg	99
1731.958	1.221	1220.9	study	Phase3	study/STIM_021.jpg	100
1735.269	0.992	991.5	study	Phase3	study/STIM_022.jpg	100
1739.817	0.834	833.5	study	Phase3	study/STIM_022.jpg	100
1744.248	0.625	625.3	study	Phase3	study/STIM_022.jpg	99
1747.669	0.761	760.8	study	Phase3	study/STIM_023.jpg	99
1752.427	1.201	1200.8	study	Phase3	study/STIM_023.jpg	99
1757.501	0.843	842.9	study	Phase3	study/STIM_023.jpg	99
1760.812	1.204	1204.2	study	Phase3	study/STIM_024.jpg	99
1764.489	0.87	869.5	study	Phase3	study/STIM_024.jpg	99
1768.415	1.248	1247.5	study	Phase3	study/STIM_024.jpg	99
1773.479	0.917	917.0	study	Phase3	study/STIM_025.jpg	100
1778.257	1.262	1261.5	study	Phase3	study/STIM_025.jpg	99
1781.93	0.943	943.3	study	Phase3	study/STIM_025.jpg	99
1786.155	1.289	1288.9	study	Phase3	study/STIM_026.jpg	100
1790.347	0.733	733.1	study	Phase3	study/STIM_026.jpg	99
1795.01	0.945	944.6	study	Phase3	study/STIM_026.jpg	100
1799.525	1.106	1106.0	study	Phase3	study/STIM_027.jpg	100
1804.406	1.312	1311.9	study	Phase3	study/STIM_027.jpg	99
1808.849	0.811	810.8	study	Phase3	study/STIM_027.jpg	99
1812.539	0.814	814.2	study	Phase3	study/STIM_028.jpg	99
1815.859	0.737	737.2	study	Phase3	study/STIM_028.jpg	99
1819.799	1.041	1040.6	study	Phase3	study/STIM_028.jpg	99
1823.682	1.207	1207.3	study	Phase3	study/STIM_029.jpg	100
1828.865	0.916	915.8	study	Phase3	study/STIM_029.jpg	99
1831.882	1.074	1073.6	study	Phase3	study/STIM_029.jpg	100
1836.84	1.37	1370.0	test	Phase3	test/STIM_000.jpg	100
1841.361	0.966	966.2	test	Phase3	test/STIM_000.jpg	99
1844.642	1.266	1265.7	test	Phase3	test/STIM_000.jpg	100
1848.807	0.84	840.4	test	Phase3	test/STIM_001.jpg	99
1853.015	0.864	863.9	test	Phase3	test/STIM_001.jpg	99
1857.221	1.11	1110.2	test	Phase3	test/STIM_001.jpg	99
1860.423	1.322	1321.7	test	Phase3	test/STIM_002.jpg	99
1865.732	1.03	1030.2	test	Phase3	test/STIM_002.jpg	100
1868.875	1.1	1099.9	test	Phase3	test/STIM_002.jpg	99
1873.532	1.202	1202.1	test	Phase3	test/STIM_003.jpg	99
1878.685	1.368	1368.4	test	Phase3	test/STIM_003.jpg	99
1883.926	0.847	847.0	test	Phase3	test/STIM_003.jpg	100
1887.449	1.348	1348.1	test	Phase3	test/STIM_004.jpg	99
1891.793	0.949	949.4	test	Phase3	test/STIM_004.jpg	100
1896.033	0.73	730.0	test	Phase3	test/STIM_004.jpg	99
1900.725	1.228	1227.6	test	Phase3	test/STIM_005.jpg	99
1904.671	0.873	873.2	test	Phase3	test/STIM_005.jpg	100
1907.636	1.332	1331.6	test	Phase3	test/STIM_005.jpg	100
1912.774	0.695	695.0	test	Phase3	test/STIM_006.jpg	100
1915.773	0.661	661.4	test	Phase3	test/STIM_006.jpg	100
1918.994	1.161	1161.0	test	Phase3	test/STIM_006.jpg	100
1922.373	1.322	1321.8	test	Phase3	test/STIM_007.jpg	99
1927.164	1.003	1003.3	test	Phase3	test/STIM_007.jpg	100
1930.773	0.781	781.2	test	Phase3	test/STIM_007.jpg	99
1934.434	0.921	921.4	test	Phase3	test/STIM_008.jpg	100
1938.737	0.667	667.1	test	Phase3	test/STIM_008.jpg	100
1942.227	0.705	704.8	test	Phase3	test/STIM_008.jpg	100
1945.035	1.369	1369.2	test	Phase3	test/STIM_009.jpg	99
1948.58	0.648	648.2	test	Phase3	test/STIM_009.jpg	100
1952.106	1.214	1214.4	test	Phase3	test/STIM_009.jpg	99
1956.519	0.771	771.4	test	Phase3	test/STIM_010.jpg	99
1961.202	1.062	1061.8	test	Phase3	test/STIM_010.jpg	100
1964.939	0.915	915.1	test	Phase3	test/STIM_010.jpg	100
1969.71	1.098	1097.9	test	Phase3	test/STIM_011.jpg	99
1973.151	0.79	789.8	test	Phase3	test/STIM_011.jpg	99
1976.294	1.102	1102.3	test	Phase3	test/STIM_011.jpg	99
1980.979	1.23	1230.2	test	Phase3	test/STIM_012.jpg	100
1984.571	1.111	1111.0	test	Phase3	test/STIM_012.jpg	99
1988.927	0.66	659.6	test	Phase3	test/STIM_012.jpg	100
1992.227	0.778	777.8	test	Phase3	test/STIM_013.jpg	100
1996.695	0.824	824.3	test	Phase3	test/STIM_013.jpg	99
1999.992	1.304	1304.3	test	Phase3	test/STIM_013.jpg	100
2004.608	0.94	940.1	test	Phase3	test/STIM_014.jpg	100
2008.32	0.884	884.1	test	Phase3	test/STIM_014.jpg	100
2012.386	0.85	850.0	test	Phase3	test/STIM_014.jpg	100
2015.973	0.94	939.9	test	Phase3	test/STIM_015.jpg	100
2020.742	0.66	659.9	test	Phase3	test/STIM_015.jpg	100
2023.79	1.004	1004.3	test	Phase3	test/STIM_015.jpg	99
2028.252	0.812	812.3	test	Phase3	test/STIM_016.jpg	99
2032.832	1.306	1306.0	test	Phase3	test/STIM_016.jpg	100
2037.685	1.302	1302.5	test	Phase3	test/STIM_016.jpg	100
2041.382	0.638	638.0	test	Phase3	test/STIM_017.jpg	99
2045.895	0.771	771.3	test	Phase3	test/STIM_017.jpg	100
2050.159	1.318	1318.5	test	Phase3	test/STIM_017.jpg	99
2055.418	0.888	887.8	test	Phase3	test/STIM_018.jpg	99
2059.392	0.916	916.5	test	Phase3	test/STIM_018.jpg	100
2063.772	1.188	1188.5	test	Phase3	test/STIM_018.jpg	99
2067.651	1.019	1019.0	test	Phase3	test/STIM_019.jpg	100
2070.702	1.049	1048.7	test	Phase3	test/STIM_019.jpg	99
2073.911	1.191	1191.3	test	Phase3	test/STIM_019.jpg	100
2079.02	1.014	1013.8	test	Phase3	test/STIM_020.jpg	100
2082.15	1.064	1064.3	test	Phase3	test/STIM_020.jpg	99
2086.901	0.9	900.1	test	Phase3	test/STIM_020.jpg	99
2091.516	0.91	910.0	test	Phase3	test/STIM_021.jpg	99
2095.207	1.117	1116.7	test	Phase3	test/STIM_021.jpg	99
2099.188	0.675	675.1	test	Phase3	test/STIM_021.jpg	99
2103.375	0.938	938.5	test	Phase3	test/STIM_022.jpg	100
2106.49	0.782	782.4	test	Phase3	test/STIM_022.jpg	99
2110.236	1.024	1024.2	test	Phase3	test/STIM_022.jpg	100
2113.407	1.076	1076.4	test	Phase3	test/STIM_023.jpg	100
2117.516	1.278	1278.2	test	Phase3	test/STIM_023.jpg	100
2120.875	1.13	1129.8	test	Phase3	test/STIM_023.jpg	100
2124.041	0.819	818.9	test	Phase3	test/STIM_024.jpg	99
2128.093	0.761	760.7	test	Phase3	test/STIM_024.jpg	100
2131.819	0.972	972.5	test	Phase3	test/STIM_024.jpg	99
2134.882	1.336	1335.7	test	Phase3	test/STIM_025.jpg	100
2139.809	0.951	951.2	test	Phase3	test/STIM_025.jpg	100
2144.519	1.295	1295.1	test	Phase3	test/STIM_025.jpg	99
2148.213	1.0	999.8	test	Phase3	test/STIM_026.jpg	99
2151.857	1.115	1114.9	test	Phase3	test/STIM_026.jpg	99
2156.529	1.05	1049.8	test	Phase3	test/STIM_026.jpg	100
2161.513	1.085	1084.8	test	Phase3	test/STIM_027.jpg	99
2165.288	1.128	1128.1	test	Phase3	test/STIM_027.jpg	100
2168.906	1.161	1161.2	test	Phase3	test/STIM_027.jpg	99
2173.434	0.832	832.3	test	Phase3	test/STIM_028.jpg	99
2177.154	1.074	1074.2	test	Phase3	test/STIM_028.jpg	100
2181.659	1.229	1228.6	test	Phase3	test/STIM_028.jpg	100
2185.489	1.122	1121.6	test	Phase3	test/STIM_029.jpg	99
2190.019	1.138	1137.5	test	Phase3	test/STIM_029.jpg	100
2193.946	0.821	821.4	test	Phase3	test/STIM_029.jpg	100
