onset	duration	accuracy	trial_type	learning_stage	stimulus
0.0	1.873	correct	generate	Run1	generate/STIM_000.jpg
5.397	2.565	correct	generate	Run1	generate/STIM_000.jpg
11.467	1.381	correct	generate	Run1	generate/STIM_000.jpg
15.671	1.059	correct	generate	Run1	generate/STIM_000.jpg
19.392	1.334	incorrect	generate	Run1	generate/STIM_000.jpg
24.534	2.516	correct	generate	Run1	generate/STIM_001.jpg
30.479	1.614	correct	generate	Run1	generate/STIM_001.jpg
35.909	2.314	correct	generate	Run1	generate/STIM_001.jpg
40.723	1.312	correct	generate	Run1	generate/STIM_001.jpg
44.384	1.982	correct	generate	Run1	generate/STIM_001.jpg
50.299	1.89	correct	generate	Run1	generate/STIM_002.jpg
55.368	1.546	correct	generate	Run1	generate/STIM_002.jpg
59.602	1.719	correct	generate	Run1	generate/STIM_002.jpg
65.169	1.898	correct	generate	Run1	generate/STIM_002.jpg
70.681	2.035	incorrect	generate	Run1	generate/STIM_002.jpg
75.35	2.147	correct	generate	Run1	generate/STIM_003.jpg
79.748	1.956	correct	generate	Run1	generate/STIM_003.jpg
84.74	1.913	correct	generate	Run1	generate/STIM_003.jpg
89.677	1.704	correct	generate	Run1	generate/STIM_003.jpg
95.141	2.223	correct	generate	Run1	generate/STIM_003.jpg
101.235	1.876	correct	generate	Run1	generate/STIM_004.jpg
105.548	2.407	correct	generate	Run1	generate/STIM_004.jpg
111.67	1.396	correct	generate	Run1	generate/STIM_004.jpg
117.022	1.575	incorrect	generate	Run1	generate/STIM_004.jpg
121.161	1.609	incorrect	generate	Run1	generate/STIM_004.jpg
125.863	1.836	correct	generate	Run1	generate/STIM_005.jpg
131.289	1.402	incorrect	generate	Run1	generate/STIM_005.jpg
134.902	1.363	correct	generate	Run1	generate/STIM_005.jpg
138.791	1.386	incorrect	generate	Run1	generate/STIM_005.jpg
142.768	1.648	correct	generate	Run1	generate/STIM_005.jpg
147.341	1.321	incorrect	generate	Run1	generate/STIM_006.jpg
151.086	2.669	correct	generate	Run1	generate/STIM_006.jpg
156.888	1.567	correct	generate	Run1	generate/STIM_006.jpg
161.232	1.713	correct	generate	Run1	generate/STIM_006.jpg
166.704	1.559	incorrect	generate	Run1	generate/STIM_006.jpg
171.774	2.854	incorrect	generate	Run1	generate/STIM_007.jpg
177.006	1.651	correct	generate	Run1	generate/STIM_007.jpg
181.969	1.724	correct	generate	Run1	generate/STIM_007.jpg
187.734	2.107	correct	generate	Run1	generate/STIM_007.jpg
192.247	1.253	correct	generate	Run1	generate/STIM_007.jpg
195.838	2.505	correct	generate	Run1	generate/STIM_008.jpg
202.364	2.623	correct	generate	Run1	generate/STIM_008.jpg
207.284	1.888	correct	generate	Run1	generate/STIM_008.jpg
211.851	1.879	correct	generate	Run1	generate/STIM_008.jpg
216.834	1.105	correct	generate	Run1	generate/STIM_008.jpg
221.218	1.374	correct	generate	Run1	generate/STIM_009.jpg
225.387	2.576	correct	generate	Run1	generate/STIM_009.jpg
230.865	2.503	incorrect	generate	Run1	generate/STIM_009.jpg
236.086	2.057	correct	generate	Run1	generate/STIM_009.jpg
240.765	1.935	correct	generate	Run1	generate/STIM_009.jpg
245.176	1.906	correct	generate	Run1	generate/STIM_010.jpg
249.581	2.005	correct	generate	Run1	generate/STIM_010.jpg
254.075	1.306	correct	generate	Run1	generate/STIM_010.jpg
258.042	2.213	incorrect	generate	Run1	generate/STIM_010.jpg
262.564	1.614	correct	generate	Run1	generate/STIM_010.jpg
266.5	2.263	correct	generate	Run1	generate/STIM_011.jpg
272.232	2.184	correct	generate	Run1	generate/STIM_011.jpg
277.3	2.035	correct	generate	Run1	generate/STIM_011.jpg
283.235	1.121	incorrect	generate	Run1	generate/STIM_011.jpg
287.075	1.166	correct	generate	Run1	generate/STIM_011.jpg
291.655	2.201	correct	generate	Run1	generate/STIM_012.jpg
296.343	2.37	correct	generate	Run1	generate/STIM_012.jpg
301.988	1.277	correct	generate	Run1	generate/STIM_012.jpg
306.241	1.838	correct	generate	Run1	generate/STIM_012.jpg
311.097	1.166	correct	generate	Run1	generate/STIM_012.jpg
315.366	1.505	correct	generate	Run1	generate/STIM_013.jpg
320.828	2.063	correct	generate	Run1	generate/STIM_013.jpg
325.094	1.163	incorrect	generate	Run1	generate/STIM_013.jpg
330.192	1.565	correct	generate	Run1	generate/STIM_013.jpg
334.539	1.8	correct	generate	Run1	generate/STIM_013.jpg
339.113	1.42	correct	generate	Run1	generate/STIM_014.jpg
342.697	2.461	correct	generate	Run1	generate/STIM_014.jpg
349.132	1.97	incorrect	generate	Run1	generate/STIM_014.jpg
353.437	2.119	correct	generate	Run1	generate/STIM_014.jpg
357.767	1.695	correct	generate	Run1	generate/STIM_014.jpg
361.642	1.338	incorrect	generate	Run1	generate/STIM_015.jpg
365.713	1.602	correct	generate	Run1	generate/STIM_015.jpg
369.472	1.802	correct	generate	Run1	generate/STIM_015.jpg
373.528	1.225	correct	generate	Run1	generate/STIM_015.jpg
377.726	0.982	correct	generate	Run1	generate/STIM_015.jpg
381.423	1.397	correct	generate	Run1	generate/STIM_016.jpg
386.15	1.421	correct	generate	Run1	generate/STIM_016.jpg
389.734	1.1	correct	generate	Run1	generate/STIM_016.jpg
394.316	2.291	correct	generate	Run1	generate/STIM_016.jpg
398.936	1.811	correct	generate	Run1	generate/STIM_016.jpg
404.462	1.427	incorrect	generate	Run1	generate/STIM_017.jpg
409.759	1.199	correct	generate	Run1	generate/STIM_017.jpg
413.12	1.454	correct	generate	Run1	generate/STIM_017.jpg
417.729	1.934	correct	generate	Run1	generate/STIM_017.jpg
421.884	1.05	correct	generate	Run1	generate/STIM_017.jpg
425.241	2.176	correct	generate	Run1	generate/STIM_018.jpg
431.557	1.285	correct	generate	Run1	generate/STIM_018.jpg
435.082	1.898	correct	generate	Run1	generate/STIM_018.jpg
440.131	0.994	correct	generate	Run1	generate/STIM_018.jpg
443.856	1.063	correct	generate	Run1	generate/STIM_018.jpg
447.906	1.468	correct	generate	Run1	generate/STIM_019.jpg
452.064	2.136	correct	generate	Run1	generate/STIM_019.jpg
458.043	1.676	correct	generate	Run1	generate/STIM_019.jpg
462.828	2.18	correct	generate	Run1	generate/STIM_019.jpg
468.231	1.97	incorrect	generate	Run1	generate/STIM_019.jpg
473.788	1.362	correct	generate	Run1	generate/STIM_020.jpg
478.629	1.797	incorrect	generate	Run1	generate/STIM_020.jpg
483.3	2.143	correct	generate	Run1	generate/STIM_020.jpg
489.451	2.284	correct	generate	Run1	generate/STIM_020.jpg
495.535	2.149	correct	generate	Run1	generate/STIM_020.jpg
501.16	2.523	correct	generate	Run1	generate/STIM_021.jpg
506.726	1.332	incorrect	generate	Run1	generate/STIM_021.jpg
510.569	1.578	correct	generate	Run1	generate/STIM_021.jpg
515.895	2.28	correct	generate	Run1	generate/STIM_021.jpg
521.864	1.459	correct	generate	Run1	generate/STIM_021.jpg
525.915	2.776	correct	generate	Run1	generate/STIM_022.jpg
531.189	2.148	incorrect	generate	Run1	generate/STIM_022.jpg
535.731	1.651	correct	generate	Run1	generate/STIM_022.jpg
540.097	1.544	correct	generate	Run1	generate/STIM_022.jpg
544.992	1.7	correct	generate	Run1	generate/STIM_022.jpg
550.025	2.367	correct	generate	Run1	generate/STIM_023.jpg
556.365	1.456	correct	generate	Run1	generate/STIM_023.jpg
560.339	2.43	correct	generate	Run1	generate/STIM_023.jpg
566.235	1.639	correct	generate	Run1	generate/STIM_023.jpg
570.193	1.419	correct	generate	Run1	generate/STIM_023.jpg
574.862	2.054	correct	generate	Run1	generate/STIM_024.jpg
579.812	2.479	correct	generate	Run1	generate/STIM_024.jpg
585.143	1.115	correct	generate	Run1	generate/STIM_024.jpg
589.65	1.461	correct	generate	Run1	generate/STIM_024.jpg
594.23	1.044	correct	generate	Run1	generate/STIM_024.jpg
598.44	0.671	correct	repeat	Run1	repeat/STIM_000.jpg
601.625	0.723	correct	repeat	Run1	repeat/STIM_000.jpg
605.243	0.539	correct	repeat	Run1	repeat/STIM_000.jpg
608.136	0.71	correct	repeat	Run1	repeat/STIM_000.jpg
612.794	0.845	correct	repeat	Run1	repeat/STIM_000.jpg
615.987	0.506	correct	repeat	Run1	repeat/STIM_001.jpg
619.068	0.51	correct	repeat	Run1	repeat/STIM_001.jpg
622.115	0.978	correct	repeat	Run1	repeat/STIM_001.jpg
626.253	0.693	correct	repeat	Run1	repeat/STIM_001.jpg
630.189	0.487	correct	repeat	Run1	repeat/STIM_001.jpg
634.502	0.567	correct	repeat	Run1	repeat/STIM_002.jpg
638.933	0.747	correct	repeat	Run1	repeat/STIM_002.jpg
642.236	0.899	correct	repeat	Run1	repeat/STIM_002.jpg
646.974	0.704	correct	repeat	Run1	repeat/STIM_002.jpg
649.821	0.672	correct	repeat	Run1	repeat/STIM_002.jpg
653.256	0.698	incorrect	repeat	Run1	repeat/STIM_003.jpg
657.852	0.608	correct	repeat	Run1	repeat/STIM_003.jpg
662.024	0.95	correct	repeat	Run1	repeat/STIM_003.jpg
666.738	0.758	correct	repeat	Run1	repeat/STIM_003.jpg
670.069	0.566	correct	repeat	Run1	repeat/STIM_003.jpg
674.418	0.906	correct	repeat	Run1	repeat/STIM_004.jpg
678.727	0.695	correct	repeat	Run1	repeat/STIM_004.jpg
681.779	0.542	correct	repeat	Run1	repeat/STIM_004.jpg
685.763	0.869	correct	repeat	Run1	repeat/STIM_004.jpg
689.688	0.556	correct	repeat	Run1	repeat/STIM_004.jpg
693.72	0.6	correct	repeat	Run1	repeat/STIM_005.jpg
697.546	0.924	correct	repeat	Run1	repeat/STIM_005.jpg
701.132	0.615	correct	repeat	Run1	repeat/STIM_005.jpg
705.54	0.584	correct	repeat	Run1	repeat/STIM_005.jpg
708.662	0.979	correct	repeat	Run1	repeat/STIM_005.jpg
713.118	0.836	correct	repeat	Run1	repeat/STIM_006.jpg
716.065	0.792	correct	repeat	Run1	repeat/STIM_006.jpg
719.493	0.564	correct	repeat	Run1	repeat/STIM_006.jpg
722.677	0.705	incorrect	repeat	Run1	repeat/STIM_006.jpg
726.075	0.51	correct	repeat	Run1	repeat/STIM_006.jpg
728.985	0.552	correct	repeat	Run1	repeat/STIM_007.jpg
731.886	0.476	correct	repeat	Run1	repeat/STIM_007.jpg
735.785	0.924	correct	repeat	Run1	repeat/STIM_007.jpg
739.369	0.701	correct	repeat	Run1	repeat/STIM_007.jpg
743.635	0.793	correct	repeat	Run1	repeat/STIM_007.jpg
746.588	0.637	correct	repeat	Run1	repeat/STIM_008.jpg
749.682	0.678	correct	repeat	Run1	repeat/STIM_008.jpg
753.782	0.507	correct	repeat	Run1	repeat/STIM_008.jpg
757.369	0.904	correct	repeat	Run1	repeat/STIM_008.jpg
761.635	0.866	correct	repeat	Run1	repeat/STIM_008.jpg
766.389	0.752	correct	repeat	Run1	repeat/STIM_009.jpg
769.91	0.713	correct	repeat	Run1	repeat/STIM_009.jpg
773.78	0.616	correct	repeat	Run1	repeat/STIM_009.jpg
777.341	0.903	correct	repeat	Run1	repeat/STIM_009.jpg
781.624	0.724	correct	repeat	Run1	repeat/STIM_009.jpg
784.959	0.61	correct	repeat	Run1	repeat/STIM_010.jpg
789.117	0.72	correct	repeat	Run1	repeat/STIM_010.jpg
792.292	0.584	correct	repeat	Run1	repeat/STIM_010.jpg
796.478	0.559	correct	repeat	Run1	repeat/STIM_010.jpg
800.651	0.594	correct	repeat	Run1	repeat/STIM_010.jpg
804.072	0.812	correct	repeat	Run1	repeat/STIM_011.jpg
807.033	0.462	incorrect	repeat	Run1	repeat/STIM_011.jpg
811.247	0.594	correct	repeat	Run1	repeat/STIM_011.jpg
815.649	0.723	correct	repeat	Run1	repeat/STIM_011.jpg
819.269	0.639	correct	repeat	Run1	repeat/STIM_011.jpg
822.564	0.531	correct	repeat	Run1	repeat/STIM_012.jpg
826.649	0.622	correct	repeat	Run1	repeat/STIM_012.jpg
831.206	0.72	correct	repeat	Run1	repeat/STIM_012.jpg
834.675	0.618	correct	repeat	Run1	repeat/STIM_012.jpg
837.575	0.565	correct	repeat	Run1	repeat/STIM_012.jpg
841.904	1.016	correct	repeat	Run1	repeat/STIM_013.jpg
846.715	0.652	correct	repeat	Run1	repeat/STIM_013.jpg
851.199	0.776	incorrect	repeat	Run1	repeat/STIM_013.jpg
855.457	0.518	correct	repeat	Run1	repeat/STIM_013.jpg
859.844	0.78	correct	repeat	Run1	repeat/STIM_013.jpg
863.306	0.808	correct	repeat	Run1	repeat/STIM_014.jpg
868.007	0.786	correct	repeat	Run1	repeat/STIM_014.jpg
872.512	0.965	correct	repeat	Run1	repeat/STIM_014.jpg
877.447	0.824	correct	repeat	Run1	repeat/STIM_014.jpg
881.908	0.693	correct	repeat	Run1	repeat/STIM_014.jpg
886.352	1.424	correct	generate	Run2	generate/STIM_000.jpg
891.274	2.133	incorrect	generate	Run2	generate/STIM_000.jpg
896.274	0.857	correct	generate	Run2	generate/STIM_000.jpg
900.859	1.001	correct	generate	Run2	generate/STIM_000.jpg
903.974	1.107	correct	generate	Run2	generate/STIM_000.jpg
908.819	1.043	incorrect	generate	Run2	generate/STIM_001.jpg
912.173	1.463	correct	generate	Run2	generate/STIM_001.jpg
917.247	1.388	correct	generate	Run2	generate/STIM_001.jpg
922.462	1.725	correct	generate	Run2	generate/STIM_001.jpg
928.153	1.29	correct	generate	Run2	generate/STIM_001.jpg
932.638	2.167	incorrect	generate	Run2	generate/STIM_002.jpg
938.443	2.244	incorrect	generate	Run2	generate/STIM_002.jpg
944.205	1.53	correct	generate	Run2	generate/STIM_002.jpg
948.852	1.744	correct	generate	Run2	generate/STIM_002.jpg
954.281	1.071	correct	generate	Run2	generate/STIM_002.jpg
958.732	1.515	correct	generate	Run2	generate/STIM_003.jpg
963.548	1.163	correct	generate	Run2	generate/STIM_003.jpg
967.995	1.744	correct	generate	Run2	generate/STIM_003.jpg
972.603	1.368	correct	generate	Run2	generate/STIM_003.jpg
977.519	1.056	correct	generate	Run2	generate/STIM_003.jpg
981.298	2.353	correct	generate	Run2	generate/STIM_004.jpg
986.679	1.606	correct	generate	Run2	generate/STIM_004.jpg
990.462	1.849	correct	generate	Run2	generate/STIM_004.jpg
996.434	0.959	correct	generate	Run2	generate/STIM_004.jpg
999.534	1.058	correct	generate	Run2	generate/STIM_004.jpg
1004.021	1.912	correct	generate	Run2	generate/STIM_005.jpg
1008.583	1.15	correct	generate	Run2	generate/STIM_005.jpg
1012.442	0.987	correct	generate	Run2	generate/STIM_005.jpg
1017.239	1.892	incorrect	generate	Run2	generate/STIM_005.jpg
1021.324	1.293	incorrect	generate	Run2	generate/STIM_005.jpg
1025.931	2.07	correct	generate	Run2	generate/STIM_006.jpg
1031.829	1.562	correct	generate	Run2	generate/STIM_006.jpg
1035.65	1.964	correct	generate	Run2	generate/STIM_006.jpg
1039.763	1.531	correct	generate	Run2	generate/STIM_006.jpg
1043.706	1.802	correct	generate	Run2	generate/STIM_006.jpg
1048.315	1.479	correct	generate	Run2	generate/STIM_007.jpg
1053.813	1.373	correct	generate	Run2	generate/STIM_007.jpg
1059.162	1.078	correct	generate	Run2	generate/STIM_007.jpg
1062.566	1.33	correct	generate	Run2	generate/STIM_007.jpg
1066.301	1.786	correct	generate	Run2	generate/STIM_007.jpg
1070.825	1.017	correct	generate	Run2	generate/STIM_008.jpg
1074.622	1.048	correct	generate	Run2	generate/STIM_008.jpg
1078.574	0.924	correct	generate	Run2	generate/STIM_008.jpg
1082.125	1.256	correct	generate	Run2	generate/STIM_008.jpg
1085.963	1.365	correct	generate	Run2	generate/STIM_008.jpg
1091.28	0.96	correct	generate	Run2	generate/STIM_009.jpg
1095.402	1.92	correct	generate	Run2	generate/STIM_009.jpg
1100.38	1.104	correct	generate	Run2	generate/STIM_009.jpg
1104.317	1.056	correct	generate	Run2	generate/STIM_009.jpg
1109.225	1.002	correct	generate	Run2	generate/STIM_009.jpg
1113.056	2.051	correct	generate	Run2	generate/STIM_010.jpg
1117.966	1.345	correct	generate	Run2	generate/STIM_010.jpg
1122.506	1.99	correct	generate	Run2	generate/STIM_010.jpg
1126.663	1.944	correct	generate	Run2	generate/STIM_010.jpg
1132.485	2.014	correct	generate	Run2	generate/STIM_010.jpg
1136.736	1.811	correct	generate	Run2	generate/STIM_011.jpg
1141.103	1.372	correct	generate	Run2	generate/STIM_011.jpg
1146.1	1.075	correct	generate	Run2	generate/STIM_011.jpg
1149.264	1.464	correct	generate	Run2	generate/STIM_011.jpg
1153.597	1.329	correct	generate	Run2	generate/STIM_011.jpg
1158.132	1.076	correct	generate	Run2	generate/STIM_012.jpg
1163.104	1.383	correct	generate	Run2	generate/STIM_012.jpg
1168.232	0.912	correct	generate	Run2	generate/STIM_012.jpg
1171.254	1.937	correct	generate	Run2	generate/STIM_012.jpg
1176.034	1.855	correct	generate	Run2	generate/STIM_012.jpg
1181.672	1.619	correct	generate	Run2	generate/STIM_013.jpg
1185.895	1.841	correct	generate	Run2	generate/STIM_013.jpg
1189.984	1.275	correct	generate	Run2	generate/STIM_013.jpg
1195.111	1.173	correct	generate	Run2	generate/STIM_013.jpg
1199.604	1.028	correct	generate	Run2	generate/STIM_013.jpg
1202.782	1.482	correct	generate	Run2	generate/STIM_014.jpg
1207.008	1.573	correct	generate	Run2	generate/STIM_014.jpg
1210.927	1.705	correct	generate	Run2	generate/STIM_014.jpg
1215.853	0.981	correct	generate	Run2	generate/STIM_014.jpg
1218.967	1.338	correct	generate	Run2	generate/STIM_014.jpg
1223.772	1.439	incorrect	generate	Run2	generate/STIM_015.jpg
1228.58	1.164	correct	generate	Run2	generate/STIM_015.jpg
1233.22	1.408	incorrect	generate	Run2	generate/STIM_015.jpg
1238.062	1.639	correct	generate	Run2	generate/STIM_015.jpg
1242.38	1.448	correct	generate	Run2	generate/STIM_015.jpg
1246.629	1.136	correct	generate	Run2	generate/STIM_016.jpg
1250.639	2.237	correct	generate	Run2	generate/STIM_016.jpg
1255.255	1.382	correct	generate	Run2	generate/STIM_016.jpg
1260.517	1.817	correct	generate	Run2	generate/STIM_016.jpg
1264.778	1.864	correct	generate	Run2	generate/STIM_016.jpg
1269.782	1.176	correct	generate	Run2	generate/STIM_017.jpg
1273.764	1.677	incorrect	generate	Run2	generate/STIM_017.jpg
1277.419	1.373	correct	generate	Run2	generate/STIM_017.jpg
1282.051	1.662	correct	generate	Run2	generate/STIM_017.jpg
1286.654	1.83	correct	generate	Run2	generate/STIM_017.jpg
1290.803	1.031	correct	generate	Run2	generate/STIM_018.jpg
1294.544	1.422	incorrect	generate	Run2	generate/STIM_018.jpg
1299.124	1.387	correct	generate	Run2	generate/STIM_018.jpg
1302.769	1.256	correct	generate	Run2	generate/STIM_018.jpg
1307.425	1.896	correct	generate	Run2	generate/STIM_018.jpg
1311.804	1.992	correct	generate	Run2	generate/STIM_019.jpg
1317.345	1.318	incorrect	generate	Run2	generate/STIM_019.jpg
1321.63	1.967	correct	generate	Run2	generate/STIM_019.jpg
1326.592	1.369	correct	generate	Run2	generate/STIM_019.jpg
1330.557	1.204	correct	generate	Run2	generate/STIM_019.jpg
1335.485	1.189	incorrect	generate	Run2	generate/STIM_020.jpg
1340.168	1.706	correct	generate	Run2	generate/STIM_020.jpg
1345.361	0.987	correct	generate	Run2	generate/STIM_020.jpg
1348.532	1.266	correct	generate	Run2	generate/STIM_020.jpg
1353.034	1.527	correct	generate	Run2	generate/STIM_020.jpg
1358.535	1.148	correct	generate	Run2	generate/STIM_021.jpg
1363.37	1.244	correct	generate	Run2	generate/STIM_021.jpg
1366.862	1.413	correct	generate	Run2	generate/STIM_021.jpg
1371.566	1.895	correct	generate	Run2	generate/STIM_021.jpg
1377.574	1.087	incorrect	generate	Run2	generate/STIM_021.jpg
1381.871	1.616	correct	generate	Run2	generate/STIM_022.jpg
1385.674	2.239	correct	generate	Run2	generate/STIM_022.jpg
1392.015	1.467	correct	generate	Run2	generate/STIM_022.jpg
1397.134	1.292	correct	generate	Run2	generate/STIM_022.jpg
1401.974	1.921	incorrect	generate	Run2	generate/STIM_022.jpg
1407.597	1.983	correct	generate	Run2	generate/STIM_023.jpg
1411.796	2.224	correct	generate	Run2	generate/STIM_023.jpg
1416.967	1.571	correct	generate	Run2	generate/STIM_023.jpg
1421.337	0.799	correct	generate	Run2	generate/STIM_023.jpg
1425.261	1.549	correct	generate	Run2	generate/STIM_023.jpg
1430.246	1.567	correct	generate	Run2	generate/STIM_024.jpg
1435.654	1.119	correct	generate	Run2	generate/STIM_024.jpg
1439.139	1.228	correct	generate	Run2	generate/STIM_024.jpg
1443.041	1.689	incorrect	generate	Run2	generate/STIM_024.jpg
1447.41	1.345	correct	generate	Run2	generate/STIM_024.jpg
1450.892	0.733	correct	repeat	Run2	repeat/STIM_000.jpg
1454.639	0.616	correct	repeat	Run2	repeat/STIM_000.jpg
1459.283	0.8	correct	repeat	Run2	repeat/STIM_000.jpg
1463.62	0.918	correct	repeat	Run2	repeat/STIM_000.jpg
1467.354	0.661	correct	repeat	Run2	repeat/STIM_000.jpg
1470.811	0.596	correct	repeat	Run2	repeat/STIM_001.jpg
1474.174	0.467	correct	repeat	Run2	repeat/STIM_001.jpg
1477.486	0.779	correct	repeat	Run2	repeat/STIM_001.jpg
1481.317	0.546	correct	repeat	Run2	repeat/STIM_001.jpg
1484.139	0.635	correct	repeat	Run2	repeat/STIM_001.jpg
1487.932	0.595	incorrect	repeat	Run2	repeat/STIM_002.jpg
1491.751	0.874	correct	repeat	Run2	repeat/STIM_002.jpg
1495.179	0.734	correct	repeat	Run2	repeat/STIM_002.jpg
1498.566	0.732	correct	repeat	Run2	repeat/STIM_002.jpg
1503.003	0.59	correct	repeat	Run2	repeat/STIM_002.jpg
1506.168	0.572	correct	repeat	Run2	repeat/STIM_003.jpg
1509.444	0.829	correct	repeat	Run2	repeat/STIM_003.jpg
1512.794	0.727	correct	repeat	Run2	repeat/STIM_003.jpg
1517.405	0.547	correct	repeat	Run2	repeat/STIM_003.jpg
1520.408	0.785	correct	repeat	Run2	repeat/STIM_003.jpg
1524.697	0.734	correct	repeat	Run2	repeat/STIM_004.jpg
1527.682	0.686	correct	repeat	Run2	repeat/STIM_004.jpg
1531.319	0.728	correct	repeat	Run2	repeat/STIM_004.jpg
1535.921	0.942	correct	repeat	Run2	repeat/STIM_004.jpg
1539.429	0.573	correct	repeat	Run2	repeat/STIM_004.jpg
1542.372	0.856	correct	repeat	Run2	repeat/STIM_005.jpg
1545.21	0.894	correct	repeat	Run2	repeat/STIM_005.jpg
1549.252	0.712	correct	repeat	Run2	repeat/STIM_005.jpg
1552.289	0.672	correct	repeat	Run2	repeat/STIM_005.jpg
1555.299	0.456	correct	repeat	Run2	repeat/STIM_005.jpg
1558.619	0.796	correct	repeat	Run2	repeat/STIM_006.jpg
1561.669	0.585	correct	repeat	Run2	repeat/STIM_006.jpg
1564.597	0.588	correct	repeat	Run2	repeat/STIM_006.jpg
1567.364	0.878	correct	repeat	Run2	repeat/STIM_006.jpg
1572.211	0.644	correct	repeat	Run2	repeat/STIM_006.jpg
1575.164	0.57	correct	repeat	Run2	repeat/STIM_007.jpg
1577.908	0.956	correct	repeat	Run2	repeat/STIM_007.jpg
1581.099	0.518	correct	repeat	Run2	repeat/STIM_007.jpg
1585.184	0.526	correct	repeat	Run2	repeat/STIM_007.jpg
1588.417	0.928	correct	repeat	Run2	repeat/STIM_007.jpg
1592.692	0.59	correct	repeat	Run2	repeat/STIM_008.jpg
1596.11	0.805	correct	repeat	Run2	repeat/STIM_008.jpg
1600.856	0.748	correct	repeat	Run2	repeat/STIM_008.jpg
1605.654	0.904	correct	repeat	Run2	repeat/STIM_008.jpg
1608.876	0.8	correct	repeat	Run2	repeat/STIM_008.jpg
1612.278	0.734	correct	repeat	Run2	repeat/STIM_009.jpg
1616.638	0.491	correct	repeat	Run2	repeat/STIM_009.jpg
1620.998	0.771	correct	repeat	Run2	repeat/STIM_009.jpg
1625.404	0.814	correct	repeat	Run2	repeat/STIM_009.jpg
1629.83	0.546	correct	repeat	Run2	repeat/STIM_009.jpg
1632.866	0.77	correct	repeat	Run2	repeat/STIM_010.jpg
1637.499	0.822	correct	repeat	Run2	repeat/STIM_010.jpg
1640.497	0.68	correct	repeat	Run2	repeat/STIM_010.jpg
1643.423	0.567	correct	repeat	Run2	repeat/STIM_010.jpg
1646.267	0.865	correct	repeat	Run2	repeat/STIM_010.jpg
1650.146	0.662	correct	repeat	Run2	repeat/STIM_011.jpg
1653.252	0.863	correct	repeat	Run2	repeat/STIM_011.jpg
1658.219	0.955	correct	repeat	Run2	repeat/STIM_011.jpg
1661.228	0.711	correct	repeat	Run2	repeat/STIM_011.jpg
1664.966	0.843	correct	repeat	Run2	repeat/STIM_011.jpg
1669.717	0.852	correct	repeat	Run2	repeat/STIM_012.jpg
1674.109	0.705	correct	repeat	Run2	repeat/STIM_012.jpg
1676.838	0.697	correct	repeat	Run2	repeat/STIM_012.jpg
1681.089	0.745	correct	repeat	Run2	repeat/STIM_012.jpg
1684.622	0.623	correct	repeat	Run2	repeat/STIM_012.jpg
1688.37	0.672	correct	repeat	Run2	repeat/STIM_013.jpg
1691.966	0.944	correct	repeat	Run2	repeat/STIM_013.jpg
1695.054	0.51	correct	repeat	Run2	repeat/STIM_013.jpg
1698.858	0.711	correct	repeat	Run2	repeat/STIM_013.jpg
1701.969	0.366	correct	repeat	Run2	repeat/STIM_013.jpg
1705.829	0.928	correct	repeat	Run2	repeat/STIM_014.jpg
1709.177	0.827	correct	repeat	Run2	repeat/STIM_014.jpg
1712.312	0.894	correct	repeat	Run2	repeat/STIM_014.jpg
1716.857	0.666	correct	repeat	Run2	repeat/STIM_014.jpg
1721.226	0.965	correct	repeat	Run2	repeat/STIM_014.jpg
1724.215	1.504	correct	generate	Run3	generate/STIM_000.jpg
1728.786	0.96	correct	generate	Run3	generate/STIM_000.jpg
1733.637	1.223	correct	generate	Run3	generate/STIM_000.jpg
1738.337	1.85	correct	generate	Run3	generate/STIM_000.jpg
1744.261	1.713	correct	generate	Run3	generate/STIM_000.jpg
1749.965	1.079	correct	generate	Run3	generate/STIM_001.jpg
1753.783	1.154	correct	generate	Run3	generate/STIM_001.jpg
1758.83	1.357	correct	generate	Run3	generate/STIM_001.jpg
1764.177	0.921	correct	generate	Run3	generate/STIM_001.jpg
1768.518	1.212	correct	generate	Run3	generate/STIM_001.jpg
1772.62	1.839	correct	generate	Run3	generate/STIM_002.jpg
1778.448	1.609	correct	generate	Run3	generate/STIM_002.jpg
1783.707	0.986	correct	generate	Run3	generate/STIM_002.jpg
1787.142	1.852	incorrect	generate	Run3	generate/STIM_002.jpg
1793.027	0.967	correct	generate	Run3	generate/STIM_002.jpg
1797.695	1.448	correct	generate	Run3	generate/STIM_003.jpg
1803.072	1.771	correct	generate	Run3	generate/STIM_003.jpg
1807.054	2.006	correct	generate	Run3	generate/STIM_003.jpg
1812.335	0.95	correct	generate	Run3	generate/STIM_003.jpg
1815.991	1.345	correct	generate	Run3	generate/STIM_003.jpg
1819.617	1.626	correct	generate	Run3	generate/STIM_004.jpg
1824.105	1.814	correct	generate	Run3	generate/STIM_004.jpg
1829.639	1.005	correct	generate	Run3	generate/STIM_004.jpg
1834.013	0.959	correct	generate	Run3	generate/STIM_004.jpg
1837.776	0.939	correct	generate	Run3	generate/STIM_004.jpg
1841.758	0.899	correct	generate	Run3	generate/STIM_005.jpg
1846.386	1.55	correct	generate	Run3	generate/STIM_005.jpg
1850.489	1.712	correct	generate	Run3	generate/STIM_005.jpg
1856.179	1.978	correct	generate	Run3	generate/STIM_005.jpg
1860.974	1.112	correct	generate	Run3	generate/STIM_005.jpg
1864.133	1.568	correct	generate	Run3	generate/STIM_006.jpg
1869.106	1.699	correct	generate	Run3	generate/STIM_006.jpg
1873.165	1.913	correct	generate	Run3	generate/STIM_006.jpg
1878.369	1.614	correct	generate	Run3	generate/STIM_006.jpg
1882.407	1.595	correct	generate	Run3	generate/STIM_006.jpg
1887.694	1.634	correct	generate	Run3	generate/STIM_007.jpg
1893.353	1.646	correct	generate	Run3	generate/STIM_007.jpg
1897.496	1.636	correct	generate	Run3	generate/STIM_007.jpg
1903.037	0.871	correct	generate	Run3	generate/STIM_007.jpg
1907.374	1.491	correct	generate	Run3	generate/STIM_007.jpg
1911.978	1.446	correct	generate	Run3	generate/STIM_008.jpg
1916.745	1.482	correct	generate	Run3	generate/STIM_008.jpg
1921.99	1.338	correct	generate	Run3	generate/STIM_008.jpg
1925.881	1.173	correct	generate	Run3	generate/STIM_008.jpg
1930.571	0.807	correct	generate	Run3	generate/STIM_008.jpg
1934.769	1.932	correct	generate	Run3	generate/STIM_009.jpg
1940.552	1.331	correct	generate	Run3	generate/STIM_009.jpg
1944.253	1.723	correct	generate	Run3	generate/STIM_009.jpg
1948.948	1.727	correct	generate	Run3	generate/STIM_009.jpg
1952.878	0.963	correct	generate	Run3	generate/STIM_009.jpg
1956.144	1.86	incorrect	generate	Run3	generate/STIM_010.jpg
1961.075	1.898	correct	generate	Run3	generate/STIM_010.jpg
1965.169	1.803	correct	generate	Run3	generate/STIM_010.jpg
1969.932	1.004	correct	generate	Run3	generate/STIM_010.jpg
1973.879	0.799	correct	generate	Run3	generate/STIM_010.jpg
1976.88	1.865	correct	generate	Run3	generate/STIM_011.jpg
1981.337	1.754	correct	generate	Run3	generate/STIM_011.jpg
1985.22	1.686	correct	generate	Run3	generate/STIM_011.jpg
1989.073	1.173	correct	generate	Run3	generate/STIM_011.jpg
1993.522	1.631	correct	generate	Run3	generate/STIM_011.jpg
1998.609	1.593	correct	generate	Run3	generate/STIM_012.jpg
2003.916	1.677	incorrect	generate	Run3	generate/STIM_012.jpg
2008.486	1.064	correct	generate	Run3	generate/STIM_012.jpg
2011.594	0.974	correct	generate	Run3	generate/STIM_012.jpg
2016.411	1.012	correct	generate	Run3	generate/STIM_012.jpg
2020.915	1.354	incorrect	generate	Run3	generate/STIM_013.jpg
2026.216	1.94	correct	generate	Run3	generate/STIM_013.jpg
2031.278	1.558	incorrect	generate	Run3	generate/STIM_013.jpg
2035.365	1.985	correct	generate	Run3	generate/STIM_013.jpg
2039.431	1.508	correct	generate	Run3	generate/STIM_013.jpg
2043.636	1.062	correct	generate	Run3	generate/STIM_014.jpg
2047.859	1.322	correct	generate	Run3	generate/STIM_014.jpg
2052.226	1.51	correct	generate	Run3	generate/STIM_014.jpg
2056.129	1.308	correct	generate	Run3	generate/STIM_014.jpg
2060.081	1.255	correct	generate	Run3	generate/STIM_014.jpg
2063.765	1.732	correct	generate	Run3	generate/STIM_015.jpg
2068.663	0.944	correct	generate	Run3	generate/STIM_015.jpg
2072.532	1.43	correct	generate	Run3	generate/STIM_015.jpg
2076.381	1.887	correct	generate	Run3	generate/STIM_015.jpg
2082.006	1.481	correct	generate	Run3	generate/STIM_015.jpg
2086.638	1.07	correct	generate	Run3	generate/STIM_016.jpg
2091.009	1.832	correct	generate	Run3	generate/STIM_016.jpg
2095.268	1.538	correct	generate	Run3	generate/STIM_016.jpg
2099.254	1.848	correct	generate	Run3	generate/STIM_016.jpg
2103.506	0.951	correct	generate	Run3	generate/STIM_016.jpg
2107.36	1.64	correct	generate	Run3	generate/STIM_017.jpg
2111.743	1.528	correct	generate	Run3	generate/STIM_017.jpg
2116.272	1.159	correct	generate	Run3	generate/STIM_017.jpg
2119.771	0.927	correct	generate	Run3	generate/STIM_017.jpg
2124.027	1.796	correct	generate	Run3	generate/STIM_017.jpg
2129.819	1.174	correct	generate	Run3	generate/STIM_018.jpg
2134.788	1.071	correct	generate	Run3	generate/STIM_018.jpg
2137.932	1.618	incorrect	generate	Run3	generate/STIM_018.jpg
2143.071	1.651	correct	generate	Run3	generate/STIM_018.jpg
2147.571	1.676	correct	generate	Run3	generate/STIM_018.jpg
2152.017	1.502	incorrect	generate	Run3	generate/STIM_019.jpg
2156.914	1.218	correct	generate	Run3	generate/STIM_019.jpg
2161.278	0.865	correct	generate	Run3	generate/STIM_019.jpg
2164.676	1.479	correct	generate	Run3	generate/STIM_019.jpg
2169.01	1.844	correct	generate	Run3	generate/STIM_019.jpg
2174.738	1.591	correct	generate	Run3	generate/STIM_020.jpg
2178.875	0.866	correct	generate	Run3	generate/STIM_020.jpg
2183.178	2.021	correct	generate	Run3	generate/STIM_020.jpg
2187.239	1.322	correct	generate	Run3	generate/STIM_020.jpg
2192.591	1.268	correct	generate	Run3	generate/STIM_020.jpg
2197.858	0.984	correct	generate	Run3	generate/STIM_021.jpg
2201.196	1.53	correct	generate	Run3	generate/STIM_021.jpg
2205.647	1.198	correct	generate	Run3	generate/STIM_021.jpg
2209.013	1.498	correct	generate	Run3	generate/STIM_021.jpg
2214.071	1.356	correct	generate	Run3	generate/STIM_021.jpg
2218.689	1.448	correct	generate	Run3	generate/STIM_022.jpg
2223.042	1.196	correct	generate	Run3	generate/STIM_022.jpg
2227.032	1.476	correct	generate	Run3	generate/STIM_022.jpg
2230.737	0.957	correct	generate	Run3	generate/STIM_022.jpg
2233.816	1.053	correct	generate	Run3	generate/STIM_022.jpg
2237.168	0.974	correct	generate	Run3	generate/STIM_023.jpg
2241.678	0.952	correct	generate	Run3	generate/STIM_023.jpg
2246.414	1.865	correct	generate	Run3	generate/STIM_023.jpg
2251.277	1.242	correct	generate	Run3	generate/STIM_023.jpg
2255.388	1.857	correct	generate	Run3	generate/STIM_023.jpg
2261.117	1.843	correct	generate	Run3	generate/STIM_024.jpg
2265.735	1.837	incorrect	generate	Run3	generate/STIM_024.jpg
2269.935	1.34	correct	generate	Run3	generate/STIM_024.jpg
2274.291	1.096	correct	generate	Run3	generate/STIM_024.jpg
2279.394	1.503	correct	generate	Run3	generate/STIM_024.jpg
2284.246	0.822	correct	repeat	Run3	repeat/STIM_000.jpg
2288.782	0.672	incorrect	repeat	Run3	repeat/STIM_000.jpg
2291.628	0.826	correct	repeat	Run3	repeat/STIM_000.jpg
2294.919	0.857	correct	repeat	Run3	repeat/STIM_000.jpg
2299.446	0.689	correct	repeat	Run3	repeat/STIM_000.jpg
2302.815	0.906	correct	repeat	Run3	repeat/STIM_001.jpg
2306.22	0.964	correct	repeat	Run3	repeat/STIM_001.jpg
2310.194	0.526	correct	repeat	Run3	repeat/STIM_001.jpg
2313.261	0.476	correct	repeat	Run3	repeat/STIM_001.jpg
2316.907	0.866	correct	repeat	Run3	repeat/STIM_001.jpg
2320.926	0.74	correct	repeat	Run3	repeat/STIM_002.jpg
2324.381	0.594	correct	repeat	Run3	repeat/STIM_002.jpg
2326.941	0.56	correct	repeat	Run3	repeat/STIM_002.jpg
2331.183	0.653	correct	repeat	Run3	repeat/STIM_002.jpg
2334.699	0.809	correct	repeat	Run3	repeat/STIM_002.jpg
2338.617	0.552	correct	repeat	Run3	repeat/STIM_003.jpg
2342.328	0.791	correct	repeat	Run3	repeat/STIM_003.jpg
2346.65	0.775	correct	repeat	Run3	repeat/STIM_003.jpg
2350.692	0.767	correct	repeat	Run3	repeat/STIM_003.jpg
2354.794	0.57	correct	repeat	Run3	repeat/STIM_003.jpg
2358.357	0.696	correct	repeat	Run3	repeat/STIM_004.jpg
2361.863	0.866	correct	repeat	Run3	repeat/STIM_004.jpg
2366.496	0.592	correct	repeat	Run3	repeat/STIM_004.jpg
2370.017	0.767	correct	repeat	Run3	repeat/STIM_004.jpg
2374.446	0.585	correct	repeat	Run3	repeat/STIM_004.jpg
2377.939	0.795	correct	repeat	Run3	repeat/STIM_005.jpg
2381.413	0.667	correct	repeat	Run3	repeat/STIM_005.jpg
2384.81	0.536	correct	repeat	Run3	repeat/STIM_005.jpg
2389.148	0.766	correct	repeat	Run3	repeat/STIM_005.jpg
2392.424	0.947	correct	repeat	Run3	repeat/STIM_005.jpg
2395.92	0.61	correct	repeat	Run3	repeat/STIM_006.jpg
2400.509	0.455	correct	repeat	Run3	repeat/STIM_006.jpg
2404.311	0.777	correct	repeat	Run3	repeat/STIM_006.jpg
2407.662	0.404	correct	repeat	Run3	repeat/STIM_006.jpg
2411.212	0.572	incorrect	repeat	Run3	repeat/STIM_006.jpg
2415.627	0.712	correct	repeat	Run3	repeat/STIM_007.jpg
2420.265	0.996	correct	repeat	Run3	repeat/STIM_007.jpg
2424.731	0.783	correct	repeat	Run3	repeat/STIM_007.jpg
2427.79	1.01	correct	repeat	Run3	repeat/STIM_007.jpg
2431.242	0.531	correct	repeat	Run3	repeat/STIM_007.jpg
2434.263	0.76	correct	repeat	Run3	repeat/STIM_008.jpg
2437.148	0.895	correct	repeat	Run3	repeat/STIM_008.jpg
2441.523	0.903	correct	repeat	Run3	repeat/STIM_008.jpg
2445.571	0.572	correct	repeat	Run3	repeat/STIM_008.jpg
2448.582	1.018	correct	repeat	Run3	repeat/STIM_008.jpg
2452.34	0.751	correct	repeat	Run3	repeat/STIM_009.jpg
2456.293	0.599	correct	repeat	Run3	repeat/STIM_009.jpg
2460.656	0.769	correct	repeat	Run3	repeat/STIM_009.jpg
2463.964	0.65	correct	repeat	Run3	repeat/STIM_009.jpg
2467.407	0.592	correct	repeat	Run3	repeat/STIM_009.jpg
2471.321	0.945	correct	repeat	Run3	repeat/STIM_010.jpg
2474.662	0.748	correct	repeat	Run3	repeat/STIM_010.jpg
2477.473	0.718	correct	repeat	Run3	repeat/STIM_010.jpg
2480.681	0.619	correct	repeat	Run3	repeat/STIM_010.jpg
2484.376	0.945	correct	repeat	Run3	repeat/STIM_010.jpg
2489.036	0.75	correct	repeat	Run3	repeat/STIM_011.jpg
2492.346	0.706	correct	repeat	Run3	repeat/STIM_011.jpg
2496.821	0.821	correct	repeat	Run3	repeat/STIM_011.jpg
2501.222	0.878	correct	repeat	Run3	repeat/STIM_011.jpg
2505.209	0.637	correct	repeat	Run3	repeat/STIM_011.jpg
2509.833	0.849	correct	repeat	Run3	repeat/STIM_012.jpg
2513.769	1.036	correct	repeat	Run3	repeat/STIM_012.jpg
2518.142	0.869	correct	repeat	Run3	repeat/STIM_012.jpg
2522.166	0.637	correct	repeat	Run3	repeat/STIM_012.jpg
2526.316	0.667	incorrect	repeat	Run3	repeat/STIM_012.jpg
2529.278	0.696	correct	repeat	Run3	repeat/STIM_013.jpg
2532.671	0.65	correct	repeat	Run3	repeat/STIM_013.jpg
2537.24	0.652	correct	repeat	Run3	repeat/STIM_013.jpg
2540.457	0.862	correct	repeat	Run3	repeat/STIM_013.jpg
2544.096	0.641	correct	repeat	Run3	repeat/STIM_013.jpg
2547.242	0.817	correct	repeat	Run3	repeat/STIM_014.jpg
2551.436	0.554	correct	repeat	Run3	repeat/STIM_014.jpg
2555.014	0.736	correct	repeat	Run3	repeat/STIM_014.jpg
2558.5	0.706	correct	repeat	Run3	repeat/STIM_014.jpg
2561.428	0.617	correct	repeat	Run3	repeat/STIM_014.jpg
2564.761	1.272	correct	generate	Run4	generate/STIM_000.jpg
2568.74	1.296	correct	generate	Run4	generate/STIM_000.jpg
2573.486	1.958	correct	generate	Run4	generate/STIM_000.jpg
2578.234	1.951	correct	generate	Run4	generate/STIM_000.jpg
2584.041	1.497	correct	generate	Run4	generate/STIM_000.jpg
2588.838	1.767	correct	generate	Run4	generate/STIM_001.jpg
2593.279	0.958	correct	generate	Run4	generate/STIM_001.jpg
2597.596	1.362	correct	generate	Run4	generate/STIM_001.jpg
2601.993	1.837	incorrect	generate	Run4	generate/STIM_001.jpg
2607.146	1.192	correct	generate	Run4	generate/STIM_001.jpg
2610.923	1.744	correct	generate	Run4	generate/STIM_002.jpg
2615.992	1.962	correct	generate	Run4	generate/STIM_002.jpg
2621.99	1.974	correct	generate	Run4	generate/STIM_002.jpg
2627.379	1.754	correct	generate	Run4	generate/STIM_002.jpg
2633.085	1.042	correct	generate	Run4	generate/STIM_002.jpg
2637.737	1.514	correct	generate	Run4	generate/STIM_003.jpg
2641.725	1.454	correct	generate	Run4	generate/STIM_003.jpg
2646.674	1.308	correct	generate	Run4	generate/STIM_003.jpg
2650.567	1.7	correct	generate	Run4	generate/STIM_003.jpg
2654.538	2.05	correct	generate	Run4	generate/STIM_003.jpg
2659.05	1.746	correct	generate	Run4	generate/STIM_004.jpg
2664.255	1.284	correct	generate	Run4	generate/STIM_004.jpg
2669.574	1.931	correct	generate	Run4	generate/STIM_004.jpg
2673.829	1.232	correct	generate	Run4	generate/STIM_004.jpg
2678.417	1.214	correct	generate	Run4	generate/STIM_004.jpg
2682.727	2.037	correct	generate	Run4	generate/STIM_005.jpg
2688.086	1.434	correct	generate	Run4	generate/STIM_005.jpg
2692.544	1.072	correct	generate	Run4	generate/STIM_005.jpg
2697.134	1.575	correct	generate	Run4	generate/STIM_005.jpg
2701.226	1.188	correct	generate	Run4	generate/STIM_005.jpg
2706.473	1.818	correct	generate	Run4	generate/STIM_006.jpg
2710.87	1.2	correct	generate	Run4	generate/STIM_006.jpg
2714.636	1.713	correct	generate	Run4	generate/STIM_006.jpg
2720.145	0.934	correct	generate	Run4	generate/STIM_006.jpg
2724.362	0.904	correct	generate	Run4	generate/STIM_006.jpg
2728.586	1.34	correct	generate	Run4	generate/STIM_007.jpg
2733.334	1.717	incorrect	generate	Run4	generate/STIM_007.jpg
2738.587	1.735	correct	generate	Run4	generate/STIM_007.jpg
2744.145	1.636	correct	generate	Run4	generate/STIM_007.jpg
2748.234	1.596	correct	generate	Run4	generate/STIM_007.jpg
2753.938	0.797	correct	generate	Run4	generate/STIM_008.jpg
2758.015	1.798	correct	generate	Run4	generate/STIM_008.jpg
2762.888	1.647	correct	generate	Run4	generate/STIM_008.jpg
2767.704	1.245	correct	generate	Run4	generate/STIM_008.jpg
2771.603	1.804	correct	generate	Run4	generate/STIM_008.jpg
2776.891	1.814	correct	generate	Run4	generate/STIM_009.jpg
2781.856	1.686	correct	generate	Run4	generate/STIM_009.jpg
2786.345	1.308	correct	generate	Run4	generate/STIM_009.jpg
2789.815	1.08	correct	generate	Run4	generate/STIM_009.jpg
2793.611	1.795	correct	generate	Run4	generate/STIM_009.jpg
2798.193	1.348	correct	generate	Run4	generate/STIM_010.jpg
2802.476	0.846	correct	generate	Run4	generate/STIM_010.jpg
2806.743	0.935	correct	generate	Run4	generate/STIM_010.jpg
2810.774	1.269	correct	generate	Run4	generate/STIM_010.jpg
2815.862	1.773	correct	generate	Run4	generate/STIM_010.jpg
2821.58	1.524	correct	generate	Run4	generate/STIM_011.jpg
2826.578	1.646	correct	generate	Run4	generate/STIM_011.jpg
2831.744	1.048	correct	generate	Run4	generate/STIM_011.jpg
2834.87	0.888	correct	generate	Run4	generate/STIM_011.jpg
2839.367	1.723	correct	generate	Run4	generate/STIM_011.jpg
2844.351	0.835	correct	generate	Run4	generate/STIM_012.jpg
2849.139	1.51	correct	generate	Run4	generate/STIM_012.jpg
2853.074	1.446	correct	generate	Run4	generate/STIM_012.jpg
2857.085	1.834	correct	generate	Run4	generate/STIM_012.jpg
2862.972	1.755	correct	generate	Run4	generate/STIM_012.jpg
2866.906	2.046	correct	generate	Run4	generate/STIM_013.jpg
2870.953	1.555	correct	generate	Run4	generate/STIM_013.jpg
2876.005	1.28	correct	generate	Run4	generate/STIM_013.jpg
2879.448	1.547	correct	generate	Run4	generate/STIM_013.jpg
2884.527	1.48	correct	generate	Run4	generate/STIM_013.jpg
2889.937	1.146	correct	generate	Run4	generate/STIM_014.jpg
2894.757	1.222	correct	generate	Run4	generate/STIM_014.jpg
2898.263	1.46	incorrect	generate	Run4	generate/STIM_014.jpg
2903.068	1.771	correct	generate	Run4	generate/STIM_014.jpg
2908.746	1.501	correct	generate	Run4	generate/STIM_014.jpg
2914.13	1.032	correct	generate	Run4	generate/STIM_015.jpg
2918.754	0.968	correct	generate	Run4	generate/STIM_015.jpg
2923.082	1.59	correct	generate	Run4	generate/STIM_015.jpg
2927.463	1.166	correct	generate	Run4	generate/STIM_015.jpg
2930.88	0.886	correct	generate	Run4	generate/STIM_015.jpg
2935.488	0.774	correct	generate	Run4	generate/STIM_016.jpg
2939.329	1.037	correct	generate	Run4	generate/STIM_016.jpg
2943.858	1.563	correct	generate	Run4	generate/STIM_016.jpg
2948.157	1.43	correct	generate	Run4	generate/STIM_016.jpg
2953.005	1.029	correct	generate	Run4	generate/STIM_016.jpg
2956.387	1.828	correct	generate	Run4	generate/STIM_017.jpg
2960.543	1.145	correct	generate	Run4	generate/STIM_017.jpg
2964.406	1.661	correct	generate	Run4	generate/STIM_017.jpg
2969.88	1.3	correct	generate	Run4	generate/STIM_017.jpg
2974.734	1.05	correct	generate	Run4	generate/STIM_017.jpg
2978.508	0.884	correct	generate	Run4	generate/STIM_018.jpg
2981.412	1.638	incorrect	generate	Run4	generate/STIM_018.jpg
2987.01	1.916	correct	generate	Run4	generate/STIM_018.jpg
2991.336	1.426	correct	generate	Run4	generate/STIM_018.jpg
2995.027	0.946	correct	generate	Run4	generate/STIM_018.jpg
2999.21	1.194	correct	generate	Run4	generate/STIM_019.jpg
3004.362	1.272	correct	generate	Run4	generate/STIM_019.jpg
3008.706	1.804	correct	generate	Run4	generate/STIM_019.jpg
3012.931	1.236	correct	generate	Run4	generate/STIM_019.jpg
3017.076	1.466	correct	generate	Run4	generate/STIM_019.jpg
3021.806	0.863	correct	generate	Run4	generate/STIM_020.jpg
3025.264	1.156	correct	generate	Run4	generate/STIM_020.jpg
3028.984	1.184	correct	generate	Run4	generate/STIM_020.jpg
3033.337	0.962	correct	generate	Run4	generate/STIM_020.jpg
3038.337	1.401	correct	generate	Run4	generate/STIM_020.jpg
3042.022	1.012	correct	generate	Run4	generate/STIM_021.jpg
3045.915	1.479	correct	generate	Run4	generate/STIM_021.jpg
3049.534	1.286	correct	generate	Run4	generate/STIM_021.jpg
3053.936	1.557	correct	generate	Run4	generate/STIM_021.jpg
3057.943	1.701	correct	generate	Run4	generate/STIM_021.jpg
3062.296	1.139	correct	generate	Run4	generate/STIM_022.jpg
3066.184	1.496	correct	generate	Run4	generate/STIM_022.jpg
3071.416	1.076	correct	generate	Run4	generate/STIM_022.jpg
3075.06	0.996	correct	generate	Run4	generate/STIM_022.jpg
3079.767	1.324	correct	generate	Run4	generate/STIM_022.jpg
3083.556	1.177	correct	generate	Run4	generate/STIM_023.jpg
3087.769	1.131	correct	generate	Run4	generate/STIM_023.jpg
3092.018	1.574	correct	generate	Run4	generate/STIM_023.jpg
3096.806	0.943	correct	generate	Run4	generate/STIM_023.jpg
3101.055	1.512	correct	generate	Run4	generate/STIM_023.jpg
3105.21	1.01	correct	generate	Run4	generate/STIM_024.jpg
3109.307	1.744	correct	generate	Run4	generate/STIM_024.jpg
3113.546	0.864	correct	generate	Run4	generate/STIM_024.jpg
3118.185	0.985	correct	generate	Run4	generate/STIM_024.jpg
3123.177	1.391	correct	generate	Run4	generate/STIM_024.jpg
3127.271	0.907	incorrect	repeat	Run4	repeat/STIM_000.jpg
3131.571	0.463	correct	repeat	Run4	repeat/STIM_000.jpg
3135.217	0.682	correct	repeat	Run4	repeat/STIM_000.jpg
3138.062	0.851	correct	repeat	Run4	repeat/STIM_000.jpg
3142.235	0.827	correct	repeat	Run4	repeat/STIM_000.jpg
3145.475	0.81	correct	repeat	Run4	repeat/STIM_001.jpg
3148.414	0.624	correct	repeat	Run4	repeat/STIM_001.jpg
3151.918	0.781	correct	repeat	Run4	repeat/STIM_001.jpg
3154.76	0.813	correct	repeat	Run4	repeat/STIM_001.jpg
3158.172	0.733	incorrect	repeat	Run4	repeat/STIM_001.jpg
3161.658	0.9	correct	repeat	Run4	repeat/STIM_002.jpg
3165.727	0.867	correct	repeat	Run4	repeat/STIM_002.jpg
3168.756	0.526	correct	repeat	Run4	repeat/STIM_002.jpg
3171.41	0.576	correct	repeat	Run4	repeat/STIM_002.jpg
3175.062	0.504	correct	repeat	Run4	repeat/STIM_002.jpg
3178.792	0.906	correct	repeat	Run4	repeat/STIM_003.jpg
3183.583	0.715	correct	repeat	Run4	repeat/STIM_003.jpg
3186.839	0.768	correct	repeat	Run4	repeat/STIM_003.jpg
3191.43	0.933	correct	repeat	Run4	repeat/STIM_003.jpg
3196.312	0.735	correct	repeat	Run4	repeat/STIM_003.jpg
3199.94	0.981	correct	repeat	Run4	repeat/STIM_004.jpg
3203.046	0.763	correct	repeat	Run4	repeat/STIM_004.jpg
3206.061	0.805	correct	repeat	Run4	repeat/STIM_004.jpg
3208.902	1.006	correct	repeat	Run4	repeat/STIM_004.jpg
3212.369	0.608	correct	repeat	Run4	repeat/STIM_004.jpg
3215.868	0.905	correct	repeat	Run4	repeat/STIM_005.jpg
3220.248	0.927	correct	repeat	Run4	repeat/STIM_005.jpg
3224.743	0.775	correct	repeat	Run4	repeat/STIM_005.jpg
3227.566	0.529	correct	repeat	Run4	repeat/STIM_005.jpg
3231.149	0.753	correct	repeat	Run4	repeat/STIM_005.jpg
3234.217	0.476	correct	repeat	Run4	repeat/STIM_006.jpg
3237.889	0.934	correct	repeat	Run4	repeat/STIM_006.jpg
3241.478	0.745	correct	repeat	Run4	repeat/STIM_006.jpg
3245.901	0.964	correct	repeat	Run4	repeat/STIM_006.jpg
3250.733	0.807	correct	repeat	Run4	repeat/STIM_006.jpg
3254.21	0.719	incorrect	repeat	Run4	repeat/STIM_007.jpg
3257.8	0.644	incorrect	repeat	Run4	repeat/STIM_007.jpg
3261.534	0.675	correct	repeat	Run4	repeat/STIM_007.jpg
3266.237	0.547	correct	repeat	Run4	repeat/STIM_007.jpg
3270.796	0.954	correct	repeat	Run4	repeat/STIM_007.jpg
3274.549	0.877	correct	repeat	Run4	repeat/STIM_008.jpg
3279.047	0.549	correct	repeat	Run4	repeat/STIM_008.jpg
3282.099	0.72	correct	repeat	Run4	repeat/STIM_008.jpg
3285.904	0.463	correct	repeat	Run4	repeat/STIM_008.jpg
3289.662	0.868	correct	repeat	Run4	repeat/STIM_008.jpg
3293.234	0.619	correct	repeat	Run4	repeat/STIM_009.jpg
3297.238	0.797	correct	repeat	Run4	repeat/STIM_009.jpg
3300.363	0.694	correct	repeat	Run4	repeat/STIM_009.jpg
3304.822	0.577	correct	repeat	Run4	repeat/STIM_009.jpg
3307.584	0.753	correct	repeat	Run4	repeat/STIM_009.jpg
3311.448	0.643	correct	repeat	Run4	repeat/STIM_010.jpg
3315.604	0.574	correct	repeat	Run4	repeat/STIM_010.jpg
3319.582	0.602	correct	repeat	Run4	repeat/STIM_010.jpg
3323.733	0.742	correct	repeat	Run4	repeat/STIM_010.jpg
3326.65	0.557	correct	repeat	Run4	repeat/STIM_010.jpg
3330.052	0.657	correct	repeat	Run4	repeat/STIM_011.jpg
3333.945	0.802	correct	repeat	Run4	repeat/STIM_011.jpg
3338.721	0.769	correct	repeat	Run4	repeat/STIM_011.jpg
3342.518	0.611	correct	repeat	Run4	repeat/STIM_011.jpg
3346.162	0.614	correct	repeat	Run4	repeat/STIM_011.jpg
3350.405	0.671	correct	repeat	Run4	repeat/STIM_012.jpg
3353.669	0.648	correct	repeat	Run4	repeat/STIM_012.jpg
3357.348	0.563	correct	repeat	Run4	repeat/STIM_012.jpg
3361.348	0.664	correct	repeat	Run4	repeat/STIM_012.jpg
3364.151	0.592	correct	repeat	Run4	repeat/STIM_012.jpg
3368.529	0.583	correct	repeat	Run4	repeat/STIM_013.jpg
3371.225	0.931	correct	repeat	Run4	repeat/STIM_013.jpg
3376.166	0.74	correct	repeat	Run4	repeat/STIM_013.jpg
3379.427	0.667	correct	repeat	Run4	repeat/STIM_013.jpg
3383.48	0.61	correct	repeat	Run4	repeat/STIM_013.jpg
3386.464	0.743	correct	repeat	Run4	repeat/STIM_014.jpg
3389.685	0.859	correct	repeat	Run4	repeat/STIM_014.jpg
3393.702	0.537	correct	repeat	Run4	repeat/STIM_014.jpg
3396.63	0.926	correct	repeat	Run4	repeat/STIM_014.jpg
3399.652	0.709	correct	repeat	Run4	repeat/STIM_014.jpg
