onset	duration	accuracy	trial_type	learning_stage	stimulus
0.0	2.661	correct	generate	Run1	generate/STIM_000.jpg
5.917	1.787	correct	generate	Run1	generate/STIM_000.jpg
11.438	2.37	correct	generate	Run1	generate/STIM_000.jpg
17.012	2.065	correct	generate	Run1	generate/STIM_000.jpg
21.368	2.206	incorrect	generate	Run1	generate/STIM_000.jpg
27.094	1.467	correct	generate	Run1	generate/STIM_001.jpg
32.437	1.312	correct	generate	Run1	generate/STIM_001.jpg
37.593	1.678	correct	generate	Run1	generate/STIM_001.jpg
41.42	1.414	correct	generate	Run1	generate/STIM_001.jpg
45.989	2.099	correct	generate	Run1	generate/STIM_001.jpg
51.587	2.458	correct	generate	Run1	generate/STIM_002.jpg
56.227	2.274	correct	generate	Run1	generate/STIM_002.jpg
61.378	1.893	correct	generate	Run1	generate/STIM_002.jpg
66.705	1.671	correct	generate	Run1	generate/STIM_002.jpg
71.714	2.165	correct	generate	Run1	generate/STIM_002.jpg
77.262	1.139	correct	generate	Run1	generate/STIM_003.jpg
82.087	2.388	correct	generate	Run1	generate/STIM_003.jpg
87.166	2.385	correct	generate	Run1	generate/STIM_003.jpg
93.023	1.384	correct	generate	Run1	generate/STIM_003.jpg
96.732	1.003	correct	generate	Run1	generate/STIM_003.jpg
101.476	1.181	correct	generate	Run1	generate/STIM_004.jpg
105.323	1.368	correct	generate	Run1	generate/STIM_004.jpg
110.516	1.431	correct	generate	Run1	generate/STIM_004.jpg
115.485	2.179	incorrect	generate	Run1	generate/STIM_004.jpg
120.785	1.651	correct	generate	Run1	generate/STIM_004.jpg
124.95	2.265	correct	generate	Run1	generate/STIM_005.jpg
130.412	2.573	correct	generate	Run1	generate/STIM_005.jpg
135.452	1.506	correct	generate	Run1	generate/STIM_005.jpg
139.514	2.314	incorrect	generate	Run1	generate/STIM_005.jpg
144.952	1.04	correct	generate	Run1	generate/STIM_005.jpg
148.041	1.217	incorrect	generate	Run1	generate/STIM_006.jpg
152.11	2.335	correct	generate	Run1	generate/STIM_006.jpg
156.707	1.128	correct	generate	Run1	generate/STIM_006.jpg
161.285	1.598	correct	generate	Run1	generate/STIM_006.jpg
166.664	1.626	correct	generate	Run1	generate/STIM_006.jpg
171.89	2.394	incorrect	generate	Run1	generate/STIM_007.jpg
178.143	1.397	correct	generate	Run1	generate/STIM_007.jpg
182.451	1.954	correct	generate	Run1	generate/STIM_007.jpg
186.903	1.459	correct	generate	Run1	generate/STIM_007.jpg
190.834	1.329	correct	generate	Run1	generate/STIM_007.jpg
194.285	2.379	correct	generate	Run1	generate/STIM_008.jpg
199.359	1.427	correct	generate	Run1	generate/STIM_008.jpg
204.231	1.32	correct	generate	Run1	generate/STIM_008.jpg
207.976	1.377	correct	generate	Run1	generate/STIM_008.jpg
212.081	2.091	correct	generate	Run1	generate/STIM_008.jpg
217.479	1.376	correct	generate	Run1	generate/STIM_009.jpg
221.767	1.995	correct	generate	Run1	generate/STIM_009.jpg
226.71	1.686	correct	generate	Run1	generate/STIM_009.jpg
231.439	2.285	incorrect	generate	Run1	generate/STIM_009.jpg
237.178	1.079	correct	generate	Run1	generate/STIM_009.jpg
242.222	1.306	correct	generate	Run1	generate/STIM_010.jpg
247.15	1.905	correct	generate	Run1	generate/STIM_010.jpg
252.839	2.243	correct	generate	Run1	generate/STIM_010.jpg
258.585	1.869	incorrect	generate	Run1	generate/STIM_010.jpg
262.927	2.11	correct	generate	Run1	generate/STIM_010.jpg
268.525	1.766	correct	generate	Run1	generate/STIM_011.jpg
272.966	1.484	correct	generate	Run1	generate/STIM_011.jpg
278.411	2.02	correct	generate	Run1	generate/STIM_011.jpg
284.198	1.533	incorrect	generate	Run1	generate/STIM_011.jpg
288.703	1.591	incorrect	generate	Run1	generate/STIM_011.jpg
293.261	1.154	correct	generate	Run1	generate/STIM_012.jpg
298.356	2.307	correct	generate	Run1	generate/STIM_012.jpg
304.434	2.511	correct	generate	Run1	generate/STIM_012.jpg
309.028	0.981	correct	generate	Run1	generate/STIM_012.jpg
312.53	2.108	correct	generate	Run1	generate/STIM_012.jpg
317.615	1.97	correct	generate	Run1	generate/STIM_013.jpg
322.221	2.217	correct	generate	Run1	generate/STIM_013.jpg
328.261	1.899	incorrect	generate	Run1	generate/STIM_013.jpg
332.516	1.955	correct	generate	Run1	generate/STIM_013.jpg
336.565	1.022	correct	generate	Run1	generate/STIM_013.jpg
341.478	1.884	correct	generate	Run1	generate/STIM_014.jpg
346.921	1.093	correct	generate	Run1	generate/STIM_014.jpg
350.996	1.366	correct	generate	Run1	generate/STIM_014.jpg
355.29	2.285	correct	generate	Run1	generate/STIM_014.jpg
360.918	2.158	correct	generate	Run1	generate/STIM_014.jpg
365.261	1.824	incorrect	generate	Run1	generate/STIM_015.jpg
370.542	1.279	correct	generate	Run1	generate/STIM_015.jpg
375.554	1.556	correct	generate	Run1	generate/STIM_015.jpg
380.757	1.877	correct	generate	Run1	generate/STIM_015.jpg
385.562	2.007	correct	generate	Run1	generate/STIM_015.jpg
390.376	2.684	correct	generate	Run1	generate/STIM_016.jpg
395.983	1.852	correct	generate	Run1	generate/STIM_016.jpg
401.315	1.917	correct	generate	Run1	generate/STIM_016.jpg
405.926	2.291	correct	generate	Run1	generate/STIM_016.jpg
411.115	1.775	correct	generate	Run1	generate/STIM_016.jpg
415.348	1.277	incorrect	generate	Run1	generate/STIM_017.jpg
420.507	1.641	correct	generate	Run1	generate/STIM_017.jpg
424.278	1.598	correct	generate	Run1	generate/STIM_017.jpg
427.876	1.222	correct	generate	Run1	generate/STIM_017.jpg
432.283	1.69	correct	generate	Run1	generate/STIM_017.jpg
436.741	1.297	correct	generate	Run1	generate/STIM_018.jpg
440.756	2.595	correct	generate	Run1	generate/STIM_018.jpg
446.201	1.261	correct	generate	Run1	generate/STIM_018.jpg
451.102	1.789	incorrect	generate	Run1	generate/STIM_018.jpg
455.41	1.81	correct	generate	Run1	generate/STIM_018.jpg
459.981	2.47	correct	generate	Run1	generate/STIM_019.jpg
466.313	2.589	correct	generate	Run1	generate/STIM_019.jpg
472.318	1.354	correct	generate	Run1	generate/STIM_019.jpg
476.976	1.434	correct	generate	Run1	generate/STIM_019.jpg
482.045	2.102	incorrect	generate	Run1	generate/STIM_019.jpg
487.457	2.563	correct	generate	Run1	generate/STIM_020.jpg
492.949	1.944	correct	generate	Run1	generate/STIM_020.jpg
497.881	1.078	correct	generate	Run1	generate/STIM_020.jpg
502.799	1.386	correct	generate	Run1	generate/STIM_020.jpg
507.547	2.206	correct	generate	Run1	generate/STIM_020.jpg
513.729	1.926	correct	generate	Run1	generate/STIM_021.jpg
518.586	1.411	correct	generate	Run1	generate/STIM_021.jpg
523.43	2.527	correct	generate	Run1	generate/STIM_021.jpg
529.205	1.19	correct	generate	Run1	generate/STIM_021.jpg
533.187	2.005	correct	generate	Run1	generate/STIM_021.jpg
537.287	1.44	correct	generate	Run1	generate/STIM_022.jpg
541.276	1.248	incorrect	generate	Run1	generate/STIM_022.jpg
546.139	1.292	correct	generate	Run1	generate/STIM_022.jpg
550.675	2.272	correct	generate	Run1	generate/STIM_022.jpg
555.449	2.144	correct	generate	Run1	generate/STIM_022.jpg
561.017	2.745	correct	generate	Run1	generate/STIM_023.jpg
566.671	1.366	correct	generate	Run1	generate/STIM_023.jpg
570.503	1.967	correct	generate	Run1	generate/STIM_023.jpg
574.743	1.047	correct	generate	Run1	generate/STIM_023.jpg
578.115	1.068	correct	generate	Run1	generate/STIM_023.jpg
581.966	1.338	correct	generate	Run1	generate/STIM_024.jpg
586.929	1.325	correct	generate	Run1	generate/STIM_024.jpg
590.93	2.09	correct	generate	Run1	generate/STIM_024.jpg
596.099	2.082	correct	generate	Run1	generate/STIM_024.jpg
601.408	1.515	correct	generate	Run1	generate/STIM_024.jpg
605.206	0.492	correct	repeat	Run1	repeat/STIM_000.jpg
609.348	0.672	correct	repeat	Run1	repeat/STIM_000.jpg
613.662	0.729	correct	repeat	Run1	repeat/STIM_000.jpg
616.458	0.542	correct	repeat	Run1	repeat/STIM_000.jpg
619.238	0.786	correct	repeat	Run1	repeat/STIM_000.jpg
623.498	0.538	correct	repeat	Run1	repeat/STIM_001.jpg
626.317	0.859	correct	repeat	Run1	repeat/STIM_001.jpg
630.034	0.693	correct	repeat	Run1	repeat/STIM_001.jpg
634.225	0.77	correct	repeat	Run1	repeat/STIM_001.jpg
637.421	0.54	correct	repeat	Run1	repeat/STIM_001.jpg
641.083	0.596	correct	repeat	Run1	repeat/STIM_002.jpg
644.261	0.56	correct	repeat	Run1	repeat/STIM_002.jpg
646.93	0.724	correct	repeat	Run1	repeat/STIM_002.jpg
649.751	0.915	correct	repeat	Run1	repeat/STIM_002.jpg
654.555	0.553	correct	repeat	Run1	repeat/STIM_002.jpg
657.521	0.623	incorrect	repeat	Run1	repeat/STIM_003.jpg
660.727	0.715	correct	repeat	Run1	repeat/STIM_003.jpg
663.738	0.668	correct	repeat	Run1	repeat/STIM_003.jpg
666.408	0.553	correct	repeat	Run1	repeat/STIM_003.jpg
670.132	0.756	correct	repeat	Run1	repeat/STIM_003.jpg
674.509	0.695	correct	repeat	Run1	repeat/STIM_004.jpg
678.085	0.585	correct	repeat	Run1	repeat/STIM_004.jpg
682.136	0.756	correct	repeat	Run1	repeat/STIM_004.jpg
686.66	0.602	correct	repeat	Run1	repeat/STIM_004.jpg
691.034	0.567	correct	repeat	Run1	repeat/STIM_004.jpg
693.903	0.836	correct	repeat	Run1	repeat/STIM_005.jpg
698.358	0.679	correct	repeat	Run1	repeat/STIM_005.jpg
701.675	0.827	correct	repeat	Run1	repeat/STIM_005.jpg
705.129	0.614	correct	repeat	Run1	repeat/STIM_005.jpg
709.36	0.782	correct	repeat	Run1	repeat/STIM_005.jpg
713.508	0.683	correct	repeat	Run1	repeat/STIM_006.jpg
718.05	0.506	correct	repeat	Run1	repeat/STIM_006.jpg
720.982	0.931	correct	repeat	Run1	repeat/STIM_006.jpg
724.1	0.727	correct	repeat	Run1	repeat/STIM_006.jpg
727.904	0.686	correct	repeat	Run1	repeat/STIM_006.jpg
731.967	0.792	correct	repeat	Run1	repeat/STIM_007.jpg
735.81	0.544	correct	repeat	Run1	repeat/STIM_007.jpg
738.53	0.906	correct	repeat	Run1	repeat/STIM_007.jpg
742.907	0.772	correct	repeat	Run1	repeat/STIM_007.jpg
746.821	0.889	correct	repeat	Run1	repeat/STIM_007.jpg
750.167	0.897	incorrect	repeat	Run1	repeat/STIM_008.jpg
754.046	0.838	correct	repeat	Run1	repeat/STIM_008.jpg
758.185	0.559	correct	repeat	Run1	repeat/STIM_008.jpg
761.444	0.665	correct	repeat	Run1	repeat/STIM_008.jpg
764.945	0.812	correct	repeat	Run1	repeat/STIM_008.jpg
769.313	0.682	correct	repeat	Run1	repeat/STIM_009.jpg
772.583	0.674	correct	repeat	Run1	repeat/STIM_009.jpg
776.142	0.651	correct	repeat	Run1	repeat/STIM_009.jpg
779.825	0.774	correct	repeat	Run1	repeat/STIM_009.jpg
784.33	0.912	correct	repeat	Run1	repeat/STIM_009.jpg
787.713	0.577	correct	repeat	Run1	repeat/STIM_010.jpg
790.981	0.897	correct	repeat	Run1	repeat/STIM_010.jpg
794.834	0.772	correct	repeat	Run1	repeat/STIM_010.jpg
798.691	0.923	correct	repeat	Run1	repeat/STIM_010.jpg
802.915	0.556	correct	repeat	Run1	repeat/STIM_010.jpg
807.271	0.499	correct	repeat	Run1	repeat/STIM_011.jpg
810.372	0.504	incorrect	repeat	Run1	repeat/STIM_011.jpg
813.108	0.674	correct	repeat	Run1	repeat/STIM_011.jpg
815.954	0.921	correct	repeat	Run1	repeat/STIM_011.jpg
820.77	0.672	correct	repeat	Run1	repeat/STIM_011.jpg
825.048	0.684	correct	repeat	Run1	repeat/STIM_012.jpg
828.036	0.932	correct	repeat	Run1	repeat/STIM_012.jpg
831.479	0.881	correct	repeat	Run1	repeat/STIM_012.jpg
834.594	0.928	correct	repeat	Run1	repeat/STIM_012.jpg
837.907	0.804	correct	repeat	Run1	repeat/STIM_012.jpg
841.54	0.568	correct	repeat	Run1	repeat/STIM_013.jpg
845.011	0.892	correct	repeat	Run1	repeat/STIM_013.jpg
848.716	0.75	correct	repeat	Run1	repeat/STIM_013.jpg
851.755	0.786	correct	repeat	Run1	repeat/STIM_013.jpg
855.597	0.928	correct	repeat	Run1	repeat/STIM_013.jpg
859.382	0.625	correct	repeat	Run1	repeat/STIM_014.jpg
863.169	0.877	correct	repeat	Run1	repeat/STIM_014.jpg
867.787	0.75	correct	repeat	Run1	repeat/STIM_014.jpg
871.792	0.659	correct	repeat	Run1	repeat/STIM_014.jpg
876.399	0.834	correct	repeat	Run1	repeat/STIM_014.jpg
880.535	2.006	correct	generate	Run2	generate/STIM_000.jpg
885.67	0.97	correct	generate	Run2	generate/STIM_000.jpg
889.435	1.711	correct	generate	Run2	generate/STIM_000.jpg
894.672	1.629	correct	generate	Run2	generate/STIM_000.jpg
899.4	1.352	correct	generate	Run2	generate/STIM_000.jpg
904.606	1.47	incorrect	generate	Run2	generate/STIM_001.jpg
908.802	2.091	correct	generate	Run2	generate/STIM_001.jpg
913.703	2.102	correct	generate	Run2	generate/STIM_001.jpg
917.846	1.286	correct	generate	Run2	generate/STIM_001.jpg
921.286	1.36	correct	generate	Run2	generate/STIM_001.jpg
925.449	1.599	incorrect	generate	Run2	generate/STIM_002.jpg
930.383	1.101	incorrect	generate	Run2	generate/STIM_002.jpg
934.789	1.459	correct	generate	Run2	generate/STIM_002.jpg
939.394	1.348	correct	generate	Run2	generate/STIM_002.jpg
943.866	0.883	correct	generate	Run2	generate/STIM_002.jpg
948.539	1.696	correct	generate	Run2	generate/STIM_003.jpg
952.391	1.75	correct	generate	Run2	generate/STIM_003.jpg
956.862	1.541	correct	generate	Run2	generate/STIM_003.jpg
961.988	1.475	correct	generate	Run2	generate/STIM_003.jpg
966.017	0.805	correct	generate	Run2	generate/STIM_003.jpg
969.218	1.88	correct	generate	Run2	generate/STIM_004.jpg
973.748	1.638	correct	generate	Run2	generate/STIM_004.jpg
978.65	1.956	correct	generate	Run2	generate/STIM_004.jpg
983.902	1.745	correct	generate	Run2	generate/STIM_004.jpg
988.558	1.02	correct	generate	Run2	generate/STIM_004.jpg
993.547	2.15	correct	generate	Run2	generate/STIM_005.jpg
998.557	1.478	correct	generate	Run2	generate/STIM_005.jpg
1002.742	1.489	correct	generate	Run2	generate/STIM_005.jpg
1007.671	0.993	incorrect	generate	Run2	generate/STIM_005.jpg
1011.95	0.931	incorrect	generate	Run2	generate/STIM_005.jpg
1016.706	1.148	correct	generate	Run2	generate/STIM_006.jpg
1021.133	1.692	correct	generate	Run2	generate/STIM_006.jpg
1026.773	1.289	correct	generate	Run2	generate/STIM_006.jpg
1031.295	0.964	correct	generate	Run2	generate/STIM_006.jpg
1034.335	1.473	correct	generate	Run2	generate/STIM_006.jpg
1039.335	1.716	correct	generate	Run2	generate/STIM_007.jpg
1044.808	2.092	correct	generate	Run2	generate/STIM_007.jpg
1049.514	1.47	correct	generate	Run2	generate/STIM_007.jpg
1054.514	1.514	correct	generate	Run2	generate/STIM_007.jpg
1058.903	1.92	correct	generate	Run2	generate/STIM_007.jpg
1062.914	1.887	correct	generate	Run2	generate/STIM_008.jpg
1068.731	1.982	correct	generate	Run2	generate/STIM_008.jpg
1073.106	1.628	correct	generate	Run2	generate/STIM_008.jpg
1077.182	0.955	correct	generate	Run2	generate/STIM_008.jpg
1080.452	1.58	correct	generate	Run2	generate/STIM_008.jpg
1084.197	1.066	correct	generate	Run2	generate/STIM_009.jpg
1087.457	1.088	correct	generate	Run2	generate/STIM_009.jpg
1091.569	1.839	correct	generate	Run2	generate/STIM_009.jpg
1096.224	1.658	correct	generate	Run2	generate/STIM_009.jpg
1101.523	1.637	correct	generate	Run2	generate/STIM_009.jpg
1106.599	1.796	correct	generate	Run2	generate/STIM_010.jpg
1112.284	1.092	correct	generate	Run2	generate/STIM_010.jpg
1116.468	1.191	correct	generate	Run2	generate/STIM_010.jpg
1120.913	0.954	correct	generate	Run2	generate/STIM_010.jpg
1124.66	0.857	correct	generate	Run2	generate/STIM_010.jpg
1128.559	1.494	correct	generate	Run2	generate/STIM_011.jpg
1133.473	2.119	correct	generate	Run2	generate/STIM_011.jpg
1139.211	1.166	correct	generate	Run2	generate/STIM_011.jpg
1142.905	1.402	correct	generate	Run2	generate/STIM_011.jpg
1147.512	1.153	correct	generate	Run2	generate/STIM_011.jpg
1151.151	1.748	correct	generate	Run2	generate/STIM_012.jpg
1155.584	1.325	correct	generate	Run2	generate/STIM_012.jpg
1159.519	1.38	correct	generate	Run2	generate/STIM_012.jpg
1162.974	0.868	correct	generate	Run2	generate/STIM_012.jpg
1166.443	0.852	correct	generate	Run2	generate/STIM_012.jpg
1169.867	1.446	correct	generate	Run2	generate/STIM_013.jpg
1173.407	1.854	correct	generate	Run2	generate/STIM_013.jpg
1179.182	1.413	correct	generate	Run2	generate/STIM_013.jpg
1182.884	1.101	correct	generate	Run2	generate/STIM_013.jpg
1187.432	1.355	correct	generate	Run2	generate/STIM_013.jpg
1192.014	2.031	incorrect	generate	Run2	generate/STIM_014.jpg
1196.111	0.952	correct	generate	Run2	generate/STIM_014.jpg
1200.195	1.562	correct	generate	Run2	generate/STIM_014.jpg
1204.756	1.173	correct	generate	Run2	generate/STIM_014.jpg
1209.517	1.508	correct	generate	Run2	generate/STIM_014.jpg
1214.176	1.375	correct	generate	Run2	generate/STIM_015.jpg
1217.785	1.927	correct	generate	Run2	generate/STIM_015.jpg
1222.806	1.762	incorrect	generate	Run2	generate/STIM_015.jpg
1226.581	1.283	correct	generate	Run2	generate/STIM_015.jpg
1231.189	1.633	correct	generate	Run2	generate/STIM_015.jpg
1236.733	2.279	correct	generate	Run2	generate/STIM_016.jpg
1241.178	1.013	correct	generate	Run2	generate/STIM_016.jpg
1244.43	0.895	correct	generate	Run2	generate/STIM_016.jpg
1249.168	0.813	correct	generate	Run2	generate/STIM_016.jpg
1252.936	1.225	correct	generate	Run2	generate/STIM_016.jpg
1258.062	2.074	correct	generate	Run2	generate/STIM_017.jpg
1263.797	1.786	correct	generate	Run2	generate/STIM_017.jpg
1268.9	1.109	correct	generate	Run2	generate/STIM_017.jpg
1272.598	0.934	correct	generate	Run2	generate/STIM_017.jpg
1276.628	0.821	correct	generate	Run2	generate/STIM_017.jpg
1280.18	1.236	correct	generate	Run2	generate/STIM_018.jpg
1284.653	1.744	correct	generate	Run2	generate/STIM_018.jpg
1288.934	2.101	correct	generate	Run2	generate/STIM_018.jpg
1293.946	1.047	correct	generate	Run2	generate/STIM_018.jpg
1297.266	1.452	correct	generate	Run2	generate/STIM_018.jpg
1302.551	1.245	correct	generate	Run2	generate/STIM_019.jpg
1307.732	1.143	incorrect	generate	Run2	generate/STIM_019.jpg
1311.256	1.701	correct	generate	Run2	generate/STIM_019.jpg
1315.369	1.723	correct	generate	Run2	generate/STIM_019.jpg
1319.474	1.566	correct	generate	Run2	generate/STIM_019.jpg
1325.01	1.318	correct	generate	Run2	generate/STIM_020.jpg
1328.698	1.436	correct	generate	Run2	generate/STIM_020.jpg
1333.376	0.928	correct	generate	Run2	generate/STIM_020.jpg
1338.188	0.842	correct	generate	Run2	generate/STIM_020.jpg
1342.062	0.961	correct	generate	Run2	generate/STIM_020.jpg
1346.003	2.134	correct	generate	Run2	generate/STIM_021.jpg
1351.464	2.03	correct	generate	Run2	generate/STIM_021.jpg
1356.514	1.073	correct	generate	Run2	generate/STIM_021.jpg
1359.79	1.37	correct	generate	Run2	generate/STIM_021.jpg
1364.943	0.943	correct	generate	Run2	generate/STIM_021.jpg
1368.896	1.59	correct	generate	Run2	generate/STIM_022.jpg
1373.238	1.542	correct	generate	Run2	generate/STIM_022.jpg
1378.55	1.105	correct	generate	Run2	generate/STIM_022.jpg
1382.84	1.747	correct	generate	Run2	generate/STIM_022.jpg
1388.508	0.848	correct	generate	Run2	generate/STIM_022.jpg
1392.736	2.239	correct	generate	Run2	generate/STIM_023.jpg
1398.737	1.835	correct	generate	Run2	generate/STIM_023.jpg
1402.953	1.892	correct	generate	Run2	generate/STIM_023.jpg
1407.65	1.471	correct	generate	Run2	generate/STIM_023.jpg
1412.845	1.808	correct	generate	Run2	generate/STIM_023.jpg
1417.279	2.249	correct	generate	Run2	generate/STIM_024.jpg
1422.488	1.711	correct	generate	Run2	generate/STIM_024.jpg
1426.255	2.007	correct	generate	Run2	generate/STIM_024.jpg
1430.515	1.503	incorrect	generate	Run2	generate/STIM_024.jpg
1435.554	1.847	correct	generate	Run2	generate/STIM_024.jpg
1440.147	0.598	correct	repeat	Run2	repeat/STIM_000.jpg
1443.536	0.814	correct	repeat	Run2	repeat/STIM_000.jpg
1446.704	0.596	correct	repeat	Run2	repeat/STIM_000.jpg
1449.526	0.674	correct	repeat	Run2	repeat/STIM_000.jpg
1453.784	0.929	correct	repeat	Run2	repeat/STIM_000.jpg
1457.494	0.741	correct	repeat	Run2	repeat/STIM_001.jpg
1460.939	0.481	correct	repeat	Run2	repeat/STIM_001.jpg
1465.074	0.73	correct	repeat	Run2	repeat/STIM_001.jpg
1468.332	0.681	correct	repeat	Run2	repeat/STIM_001.jpg
1472.665	0.859	correct	repeat	Run2	repeat/STIM_001.jpg
1476.84	0.75	incorrect	repeat	Run2	repeat/STIM_002.jpg
1481.403	0.73	correct	repeat	Run2	repeat/STIM_002.jpg
1484.199	0.488	correct	repeat	Run2	repeat/STIM_002.jpg
1486.825	0.91	correct	repeat	Run2	repeat/STIM_002.jpg
1490.26	0.626	correct	repeat	Run2	repeat/STIM_002.jpg
1493.205	0.491	correct	repeat	Run2	repeat/STIM_003.jpg
1496.877	0.701	correct	repeat	Run2	repeat/STIM_003.jpg
1500.446	0.66	correct	repeat	Run2	repeat/STIM_003.jpg
1504.218	0.638	correct	repeat	Run2	repeat/STIM_003.jpg
1507.653	0.71	correct	repeat	Run2	repeat/STIM_003.jpg
1511.733	0.786	correct	repeat	Run2	repeat/STIM_004.jpg
1515.038	0.639	correct	repeat	Run2	repeat/STIM_004.jpg
1517.997	0.824	correct	repeat	Run2	repeat/STIM_004.jpg
1521.786	0.559	correct	repeat	Run2	repeat/STIM_004.jpg
1525.072	0.532	correct	repeat	Run2	repeat/STIM_004.jpg
1528.576	0.829	correct	repeat	Run2	repeat/STIM_005.jpg
1533.028	0.503	correct	repeat	Run2	repeat/STIM_005.jpg
1536.974	0.506	correct	repeat	Run2	repeat/STIM_005.jpg
1540.53	0.744	correct	repeat	Run2	repeat/STIM_005.jpg
1543.841	0.919	correct	repeat	Run2	repeat/STIM_005.jpg
1548.475	0.722	correct	repeat	Run2	repeat/STIM_006.jpg
1553.033	0.619	correct	repeat	Run2	repeat/STIM_006.jpg
1557.283	0.499	correct	repeat	Run2	repeat/STIM_006.jpg
1560.058	0.538	correct	repeat	Run2	repeat/STIM_006.jpg
1563.975	0.748	correct	repeat	Run2	repeat/STIM_006.jpg
1568.32	0.596	correct	repeat	Run2	repeat/STIM_007.jpg
1572.367	0.857	correct	repeat	Run2	repeat/STIM_007.jpg
1576.874	0.814	correct	repeat	Run2	repeat/STIM_007.jpg
1579.972	0.891	correct	repeat	Run2	repeat/STIM_007.jpg
1584.084	0.766	correct	repeat	Run2	repeat/STIM_007.jpg
1587.276	0.791	correct	repeat	Run2	repeat/STIM_008.jpg
1591.114	0.816	correct	repeat	Run2	repeat/STIM_008.jpg
1595.125	0.625	correct	repeat	Run2	repeat/STIM_008.jpg
1598.374	0.576	correct	repeat	Run2	repeat/STIM_008.jpg
1602.063	0.593	correct	repeat	Run2	repeat/STIM_008.jpg
1605.891	0.565	correct	repeat	Run2	repeat/STIM_009.jpg
1608.965	0.737	correct	repeat	Run2	repeat/STIM_009.jpg
1613.015	0.727	correct	repeat	Run2	repeat/STIM_009.jpg
1617.568	0.899	correct	repeat	Run2	repeat/STIM_009.jpg
1622.321	0.763	correct	repeat	Run2	repeat/STIM_009.jpg
1626.046	0.623	correct	repeat	Run2	repeat/STIM_010.jpg
1629.599	0.904	correct	repeat	Run2	repeat/STIM_010.jpg
1633.392	0.804	correct	repeat	Run2	repeat/STIM_010.jpg
1637.503	0.817	correct	repeat	Run2	repeat/STIM_010.jpg
1640.745	0.532	correct	repeat	Run2	repeat/STIM_010.jpg
1643.322	0.898	correct	repeat	Run2	repeat/STIM_011.jpg
1648.202	0.714	correct	repeat	Run2	repeat/STIM_011.jpg
1651.809	0.714	correct	repeat	Run2	repeat/STIM_011.jpg
1654.988	0.625	correct	repeat	Run2	repeat/STIM_011.jpg
1658.212	0.669	correct	repeat	Run2	repeat/STIM_011.jpg
1662.0	0.528	correct	repeat	Run2	repeat/STIM_012.jpg
1665.571	0.741	correct	repeat	Run2	repeat/STIM_012.jpg
1668.433	0.49	correct	repeat	Run2	repeat/STIM_012.jpg
1672.07	0.475	correct	repeat	Run2	repeat/STIM_012.jpg
1675.722	0.701	correct	repeat	Run2	repeat/STIM_012.jpg
1679.406	0.634	correct	repeat	Run2	repeat/STIM_013.jpg
1683.429	0.576	correct	repeat	Run2	repeat/STIM_013.jpg
1687.471	0.511	correct	repeat	Run2	repeat/STIM_013.jpg
1691.545	0.556	correct	repeat	Run2	repeat/STIM_013.jpg
1694.19	0.848	correct	repeat	Run2	repeat/STIM_013.jpg
1697.336	0.656	correct	repeat	Run2	repeat/STIM_014.jpg
1700.056	0.799	correct	repeat	Run2	repeat/STIM_014.jpg
1704.398	0.569	correct	repeat	Run2	repeat/STIM_014.jpg
1708.53	0.897	correct	repeat	Run2	repeat/STIM_014.jpg
1711.982	0.882	correct	repeat	Run2	repeat/STIM_014.jpg
1715.897	1.569	correct	generate	Run3	generate/STIM_000.jpg
1719.552	1.586	correct	generate	Run3	generate/STIM_000.jpg
1724.892	1.049	correct	generate	Run3	generate/STIM_000.jpg
1728.116	1.173	correct	generate	Run3	generate/STIM_000.jpg
1732.031	1.016	correct	generate	Run3	generate/STIM_000.jpg
1736.06	1.618	correct	generate	Run3	generate/STIM_001.jpg
1740.017	1.114	correct	generate	Run3	generate/STIM_001.jpg
1743.349	1.519	correct	generate	Run3	generate/STIM_001.jpg
1747.914	1.948	incorrect	generate	Run3	generate/STIM_001.jpg
1753.618	1.428	correct	generate	Run3	generate/STIM_001.jpg
1757.785	1.636	correct	generate	Run3	generate/STIM_002.jpg
1762.274	1.258	correct	generate	Run3	generate/STIM_002.jpg
1767.521	0.992	correct	generate	Run3	generate/STIM_002.jpg
1771.2	0.941	correct	generate	Run3	generate/STIM_002.jpg
1775.287	1.835	correct	generate	Run3	generate/STIM_002.jpg
1779.791	1.526	correct	generate	Run3	generate/STIM_003.jpg
1784.239	1.809	correct	generate	Run3	generate/STIM_003.jpg
1788.558	1.131	correct	generate	Run3	generate/STIM_003.jpg
1791.881	0.992	correct	generate	Run3	generate/STIM_003.jpg
1796.568	0.92	correct	generate	Run3	generate/STIM_003.jpg
1800.002	1.786	correct	generate	Run3	generate/STIM_004.jpg
1804.254	1.569	correct	generate	Run3	generate/STIM_004.jpg
1808.886	1.114	correct	generate	Run3	generate/STIM_004.jpg
1812.466	1.413	correct	generate	Run3	generate/STIM_004.jpg
1816.314	1.815	correct	generate	Run3	generate/STIM_004.jpg
1820.85	1.16	correct	generate	Run3	generate/STIM_005.jpg
1824.723	0.834	correct	generate	Run3	generate/STIM_005.jpg
1828.596	1.7	correct	generate	Run3	generate/STIM_005.jpg
1833.047	1.729	correct	generate	Run3	generate/STIM_005.jpg
1837.827	1.779	correct	generate	Run3	generate/STIM_005.jpg
1842.232	1.667	correct	generate	Run3	generate/STIM_006.jpg
1847.869	1.217	incorrect	generate	Run3	generate/STIM_006.jpg
1851.585	0.931	correct	generate	Run3	generate/STIM_006.jpg
1856.197	0.841	correct	generate	Run3	generate/STIM_006.jpg
1859.065	0.889	correct	generate	Run3	generate/STIM_006.jpg
1862.731	1.428	correct	generate	Run3	generate/STIM_007.jpg
1867.266	1.18	correct	generate	Run3	generate/STIM_007.jpg
1872.396	1.359	correct	generate	Run3	generate/STIM_007.jpg
1877.367	0.81	correct	generate	Run3	generate/STIM_007.jpg
1880.838	1.104	correct	generate	Run3	generate/STIM_007.jpg
1885.084	1.56	correct	generate	Run3	generate/STIM_008.jpg
1890.306	1.12	correct	generate	Run3	generate/STIM_008.jpg
1893.699	1.114	correct	generate	Run3	generate/STIM_008.jpg
1898.403	1.112	correct	generate	Run3	generate/STIM_008.jpg
1901.695	1.7	correct	generate	Run3	generate/STIM_008.jpg
1906.299	1.329	correct	generate	Run3	generate/STIM_009.jpg
1911.343	1.065	correct	generate	Run3	generate/STIM_009.jpg
1915.271	1.882	correct	generate	Run3	generate/STIM_009.jpg
1919.734	1.08	correct	generate	Run3	generate/STIM_009.jpg
1922.897	1.08	correct	generate	Run3	generate/STIM_009.jpg
1926.747	0.827	correct	generate	Run3	generate/STIM_010.jpg
1930.139	0.821	correct	generate	Run3	generate/STIM_010.jpg
1933.076	1.917	correct	generate	Run3	generate/STIM_010.jpg
1938.438	0.862	correct	generate	Run3	generate/STIM_010.jpg
1942.036	0.84	correct	generate	Run3	generate/STIM_010.jpg
1946.424	1.241	correct	generate	Run3	generate/STIM_011.jpg
1951.2	1.005	correct	generate	Run3	generate/STIM_011.jpg
1955.195	1.952	correct	generate	Run3	generate/STIM_011.jpg
1960.793	1.026	correct	generate	Run3	generate/STIM_011.jpg
1965.325	0.919	correct	generate	Run3	generate/STIM_011.jpg
1969.642	0.864	correct	generate	Run3	generate/STIM_012.jpg
1973.134	1.49	incorrect	generate	Run3	generate/STIM_012.jpg
1977.749	1.264	correct	generate	Run3	generate/STIM_012.jpg
1981.584	1.466	correct	generate	Run3	generate/STIM_012.jpg
1985.192	1.97	correct	generate	Run3	generate/STIM_012.jpg
1990.303	0.826	correct	generate	Run3	generate/STIM_013.jpg
1993.46	0.812	correct	generate	Run3	generate/STIM_013.jpg
1997.597	1.204	incorrect	generate	Run3	generate/STIM_013.jpg
2002.704	1.852	correct	generate	Run3	generate/STIM_013.jpg
2007.19	1.633	correct	generate	Run3	generate/STIM_013.jpg
2012.327	0.937	correct	generate	Run3	generate/STIM_014.jpg
2016.871	1.303	correct	generate	Run3	generate/STIM_014.jpg
2022.014	1.913	correct	generate	Run3	generate/STIM_014.jpg
2026.108	1.858	correct	generate	Run3	generate/STIM_014.jpg
2031.67	1.403	correct	generate	Run3	generate/STIM_014.jpg
2036.426	0.913	correct	generate	Run3	generate/STIM_015.jpg
2041.001	1.263	correct	generate	Run3	generate/STIM_015.jpg
2044.57	1.908	correct	generate	Run3	generate/STIM_015.jpg
2049.317	1.726	correct	generate	Run3	generate/STIM_015.jpg
2053.795	1.683	correct	generate	Run3	generate/STIM_015.jpg
2059.368	1.226	correct	generate	Run3	generate/STIM_016.jpg
2062.949	1.618	correct	generate	Run3	generate/STIM_016.jpg
2067.471	1.439	correct	generate	Run3	generate/STIM_016.jpg
2071.696	1.058	correct	generate	Run3	generate/STIM_016.jpg
2075.996	1.394	correct	generate	Run3	generate/STIM_016.jpg
2080.667	1.884	correct	generate	Run3	generate/STIM_017.jpg
2085.671	1.318	correct	generate	Run3	generate/STIM_017.jpg
2089.233	1.089	correct	generate	Run3	generate/STIM_017.jpg
2093.748	1.742	correct	generate	Run3	generate/STIM_017.jpg
2098.347	1.75	correct	generate	Run3	generate/STIM_017.jpg
2103.045	1.583	correct	generate	Run3	generate/STIM_018.jpg
2106.971	1.716	correct	generate	Run3	generate/STIM_018.jpg
2111.772	1.036	correct	generate	Run3	generate/STIM_018.jpg
2116.289	1.314	correct	generate	Run3	generate/STIM_018.jpg
2121.465	1.175	correct	generate	Run3	generate/STIM_018.jpg
2125.165	0.972	incorrect	generate	Run3	generate/STIM_019.jpg
2129.504	1.676	correct	generate	Run3	generate/STIM_019.jpg
2133.581	1.004	correct	generate	Run3	generate/STIM_019.jpg
2136.752	1.118	correct	generate	Run3	generate/STIM_019.jpg
2140.141	1.228	correct	generate	Run3	generate/STIM_019.jpg
2144.961	1.288	incorrect	generate	Run3	generate/STIM_020.jpg
2150.038	0.885	correct	generate	Run3	generate/STIM_020.jpg
2154.398	0.836	correct	generate	Run3	generate/STIM_020.jpg
2157.933	0.876	correct	generate	Run3	generate/STIM_020.jpg
2162.167	1.274	correct	generate	Run3	generate/STIM_020.jpg
2166.892	1.661	correct	generate	Run3	generate/STIM_021.jpg
2172.061	1.198	correct	generate	Run3	generate/STIM_021.jpg
2175.282	1.402	correct	generate	Run3	generate/STIM_021.jpg
2178.903	0.804	correct	generate	Run3	generate/STIM_021.jpg
2183.63	0.896	correct	generate	Run3	generate/STIM_021.jpg
2186.684	1.52	correct	generate	Run3	generate/STIM_022.jpg
2191.26	0.987	correct	generate	Run3	generate/STIM_022.jpg
2195.313	1.039	correct	generate	Run3	generate/STIM_022.jpg
2198.553	0.983	correct	generate	Run3	generate/STIM_022.jpg
2203.081	1.528	correct	generate	Run3	generate/STIM_022.jpg
2208.255	1.621	correct	generate	Run3	generate/STIM_023.jpg
2213.279	0.846	correct	generate	Run3	generate/STIM_023.jpg
2216.57	0.906	correct	generate	Run3	generate/STIM_023.jpg
2220.319	1.136	correct	generate	Run3	generate/STIM_023.jpg
2224.02	1.184	correct	generate	Run3	generate/STIM_023.jpg
2228.312	0.811	correct	generate	Run3	generate/STIM_024.jpg
2232.239	1.788	correct	generate	Run3	generate/STIM_024.jpg
2237.589	1.759	correct	generate	Run3	generate/STIM_024.jpg
2242.226	1.599	correct	generate	Run3	generate/STIM_024.jpg
2247.438	0.862	correct	generate	Run3	generate/STIM_024.jpg
2252.266	0.911	correct	repeat	Run3	repeat/STIM_000.jpg
2256.776	0.662	incorrect	repeat	Run3	repeat/STIM_000.jpg
2260.287	0.594	correct	repeat	Run3	repeat/STIM_000.jpg
2263.529	0.546	correct	repeat	Run3	repeat/STIM_000.jpg
2267.624	0.677	correct	repeat	Run3	repeat/STIM_000.jpg
2271.517	0.491	correct	repeat	Run3	repeat/STIM_001.jpg
2274.445	0.491	correct	repeat	Run3	repeat/STIM_001.jpg
2278.682	0.715	correct	repeat	Run3	repeat/STIM_001.jpg
2281.716	0.646	correct	repeat	Run3	repeat/STIM_001.jpg
2284.801	0.715	correct	repeat	Run3	repeat/STIM_001.jpg
2288.628	0.56	correct	repeat	Run3	repeat/STIM_002.jpg
2292.878	0.598	correct	repeat	Run3	repeat/STIM_002.jpg
2296.61	0.596	correct	repeat	Run3	repeat/STIM_002.jpg
2299.359	0.863	correct	repeat	Run3	repeat/STIM_002.jpg
2303.977	0.5	correct	repeat	Run3	repeat/STIM_002.jpg
2308.019	0.918	correct	repeat	Run3	repeat/STIM_003.jpg
2311.377	0.651	correct	repeat	Run3	repeat/STIM_003.jpg
2314.106	0.896	correct	repeat	Run3	repeat/STIM_003.jpg
2318.773	0.622	correct	repeat	Run3	repeat/STIM_003.jpg
2322.13	0.612	correct	repeat	Run3	repeat/STIM_003.jpg
2326.551	0.473	correct	repeat	Run3	repeat/STIM_004.jpg
2330.485	0.932	correct	repeat	Run3	repeat/STIM_004.jpg
2335.345	0.66	correct	repeat	Run3	repeat/STIM_004.jpg
2338.127	0.656	correct	repeat	Run3	repeat/STIM_004.jpg
2341.693	0.905	correct	repeat	Run3	repeat/STIM_004.jpg
2345.827	0.936	correct	repeat	Run3	repeat/STIM_005.jpg
2349.515	0.821	correct	repeat	Run3	repeat/STIM_005.jpg
2352.836	0.75	correct	repeat	Run3	repeat/STIM_005.jpg
2356.98	0.715	correct	repeat	Run3	repeat/STIM_005.jpg
2359.762	0.677	correct	repeat	Run3	repeat/STIM_005.jpg
2363.819	0.798	correct	repeat	Run3	repeat/STIM_006.jpg
2367.591	0.913	correct	repeat	Run3	repeat/STIM_006.jpg
2371.574	0.931	correct	repeat	Run3	repeat/STIM_006.jpg
2375.856	0.485	correct	repeat	Run3	repeat/STIM_006.jpg
2380.011	0.713	incorrect	repeat	Run3	repeat/STIM_006.jpg
2383.972	0.474	correct	repeat	Run3	repeat/STIM_007.jpg
2386.732	0.651	correct	repeat	Run3	repeat/STIM_007.jpg
2390.058	0.802	correct	repeat	Run3	repeat/STIM_007.jpg
2393.751	0.567	correct	repeat	Run3	repeat/STIM_007.jpg
2396.8	0.69	correct	repeat	Run3	repeat/STIM_007.jpg
2400.595	0.558	correct	repeat	Run3	repeat/STIM_008.jpg
2403.95	0.699	correct	repeat	Run3	repeat/STIM_008.jpg
2408.295	0.746	correct	repeat	Run3	repeat/STIM_008.jpg
2411.367	0.876	correct	repeat	Run3	repeat/STIM_008.jpg
2416.087	0.855	correct	repeat	Run3	repeat/STIM_008.jpg
2419.893	0.522	correct	repeat	Run3	repeat/STIM_009.jpg
2423.094	0.851	correct	repeat	Run3	repeat/STIM_009.jpg
2426.347	0.919	correct	repeat	Run3	repeat/STIM_009.jpg
2429.816	0.762	correct	repeat	Run3	repeat/STIM_009.jpg
2433.89	0.686	correct	repeat	Run3	repeat/STIM_009.jpg
2436.723	0.55	correct	repeat	Run3	repeat/STIM_010.jpg
2440.164	0.579	correct	repeat	Run3	repeat/STIM_010.jpg
2444.082	0.488	correct	repeat	Run3	repeat/STIM_010.jpg
2446.965	0.612	correct	repeat	Run3	repeat/STIM_010.jpg
2451.343	0.801	correct	repeat	Run3	repeat/STIM_010.jpg
2454.307	0.866	correct	repeat	Run3	repeat/STIM_011.jpg
2457.593	0.64	correct	repeat	Run3	repeat/STIM_011.jpg
2460.973	0.596	correct	repeat	Run3	repeat/STIM_011.jpg
2464.927	0.935	correct	repeat	Run3	repeat/STIM_011.jpg
2469.019	0.715	correct	repeat	Run3	repeat/STIM_011.jpg
2473.274	0.749	correct	repeat	Run3	repeat/STIM_012.jpg
2477.02	0.883	correct	repeat	Run3	repeat/STIM_012.jpg
2480.438	0.635	correct	repeat	Run3	repeat/STIM_012.jpg
2483.375	0.882	correct	repeat	Run3	repeat/STIM_012.jpg
2486.52	0.643	incorrect	repeat	Run3	repeat/STIM_012.jpg
2489.51	0.571	correct	repeat	Run3	repeat/STIM_013.jpg
2492.983	0.8	correct	repeat	Run3	repeat/STIM_013.jpg
2496.359	0.781	correct	repeat	Run3	repeat/STIM_013.jpg
2499.223	0.685	correct	repeat	Run3	repeat/STIM_013.jpg
2502.174	0.92	correct	repeat	Run3	repeat/STIM_013.jpg
2505.237	0.5	correct	repeat	Run3	repeat/STIM_014.jpg
2509.436	0.557	correct	repeat	Run3	repeat/STIM_014.jpg
2512.771	0.535	correct	repeat	Run3	repeat/STIM_014.jpg
2516.884	0.489	correct	repeat	Run3	repeat/STIM_014.jpg
2521.171	0.752	correct	repeat	Run3	repeat/STIM_014.jpg
2525.558	1.699	correct	generate	Run4	generate/STIM_000.jpg
2530.483	1.515	correct	generate	Run4	generate/STIM_000.jpg
2535.594	1.466	correct	generate	Run4	generate/STIM_000.jpg
2539.736	0.97	correct	generate	Run4	generate/STIM_000.jpg
2542.851	1.853	correct	generate	Run4	generate/STIM_000.jpg
2546.845	0.812	correct	generate	Run4	generate/STIM_001.jpg
2551.298	0.856	correct	generate	Run4	generate/STIM_001.jpg
2555.504	1.397	correct	generate	Run4	generate/STIM_001.jpg
2559.494	1.679	correct	generate	Run4	generate/STIM_001.jpg
2564.467	1.323	correct	generate	Run4	generate/STIM_001.jpg
2567.842	1.256	correct	generate	Run4	generate/STIM_002.jpg
2571.218	1.872	correct	generate	Run4	generate/STIM_002.jpg
2576.596	1.89	correct	generate	Run4	generate/STIM_002.jpg
2582.296	1.08	correct	generate	Run4	generate/STIM_002.jpg
2586.766	0.981	correct	generate	Run4	generate/STIM_002.jpg
2590.906	1.175	correct	generate	Run4	generate/STIM_003.jpg
2595.963	1.721	correct	generate	Run4	generate/STIM_003.jpg
2600.441	0.973	correct	generate	Run4	generate/STIM_003.jpg
2605.013	1.895	correct	generate	Run4	generate/STIM_003.jpg
2609.582	1.539	correct	generate	Run4	generate/STIM_003.jpg
2614.017	1.314	correct	generate	Run4	generate/STIM_004.jpg
2617.619	1.348	correct	generate	Run4	generate/STIM_004.jpg
2621.223	1.242	correct	generate	Run4	generate/STIM_004.jpg
2625.403	1.509	correct	generate	Run4	generate/STIM_004.jpg
2629.315	1.084	correct	generate	Run4	generate/STIM_004.jpg
2633.223	1.762	correct	generate	Run4	generate/STIM_005.jpg
2637.659	0.98	correct	generate	Run4	generate/STIM_005.jpg
2641.125	1.912	correct	generate	Run4	generate/STIM_005.jpg
2646.451	1.791	correct	generate	Run4	generate/STIM_005.jpg
2652.214	1.829	correct	generate	Run4	generate/STIM_005.jpg
2656.152	1.618	correct	generate	Run4	generate/STIM_006.jpg
2660.992	1.627	correct	generate	Run4	generate/STIM_006.jpg
2664.906	1.245	correct	generate	Run4	generate/STIM_006.jpg
2668.901	1.05	correct	generate	Run4	generate/STIM_006.jpg
2671.987	1.801	correct	generate	Run4	generate/STIM_006.jpg
2676.437	0.945	correct	generate	Run4	generate/STIM_007.jpg
2679.735	1.565	correct	generate	Run4	generate/STIM_007.jpg
2683.751	1.852	correct	generate	Run4	generate/STIM_007.jpg
2687.832	1.349	correct	generate	Run4	generate/STIM_007.jpg
2691.276	1.242	correct	generate	Run4	generate/STIM_007.jpg
2694.848	1.819	correct	generate	Run4	generate/STIM_008.jpg
2699.567	1.814	correct	generate	Run4	generate/STIM_008.jpg
2705.105	1.804	correct	generate	Run4	generate/STIM_008.jpg
2708.933	1.555	correct	generate	Run4	generate/STIM_008.jpg
2714.256	1.477	correct	generate	Run4	generate/STIM_008.jpg
2719.022	1.162	correct	generate	Run4	generate/STIM_009.jpg
2722.562	1.804	correct	generate	Run4	generate/STIM_009.jpg
2726.468	0.812	correct	generate	Run4	generate/STIM_009.jpg
2730.94	1.309	correct	generate	Run4	generate/STIM_009.jpg
2734.773	1.0	correct	generate	Run4	generate/STIM_009.jpg
2739.204	1.815	correct	generate	Run4	generate/STIM_010.jpg
2744.623	0.997	correct	generate	Run4	generate/STIM_010.jpg
2747.831	1.622	correct	generate	Run4	generate/STIM_010.jpg
2751.663	1.419	correct	generate	Run4	generate/STIM_010.jpg
2755.615	1.696	correct	generate	Run4	generate/STIM_010.jpg
2759.979	1.548	correct	generate	Run4	generate/STIM_011.jpg
2763.911	0.958	correct	generate	Run4	generate/STIM_011.jpg
2767.06	1.307	correct	generate	Run4	generate/STIM_011.jpg
2771.522	0.822	correct	generate	Run4	generate/STIM_011.jpg
2774.63	1.78	correct	generate	Run4	generate/STIM_011.jpg
2780.358	1.455	correct	generate	Run4	generate/STIM_012.jpg
2783.924	1.072	correct	generate	Run4	generate/STIM_012.jpg
2787.556	1.822	correct	generate	Run4	generate/STIM_012.jpg
2792.959	1.618	correct	generate	Run4	generate/STIM_012.jpg
2796.995	1.631	correct	generate	Run4	generate/STIM_012.jpg
2801.581	1.159	correct	generate	Run4	generate/STIM_013.jpg
2805.715	1.073	correct	generate	Run4	generate/STIM_013.jpg
2809.143	1.22	correct	generate	Run4	generate/STIM_013.jpg
2813.811	1.423	correct	generate	Run4	generate/STIM_013.jpg
2819.019	1.757	correct	generate	Run4	generate/STIM_013.jpg
2823.137	1.254	correct	generate	Run4	generate/STIM_014.jpg
2827.979	1.104	correct	generate	Run4	generate/STIM_014.jpg
2831.551	1.164	correct	generate	Run4	generate/STIM_014.jpg
2836.697	1.459	correct	generate	Run4	generate/STIM_014.jpg
2841.955	1.102	correct	generate	Run4	generate/STIM_014.jpg
2845.969	1.203	correct	generate	Run4	generate/STIM_015.jpg
2850.043	1.242	correct	generate	Run4	generate/STIM_015.jpg
2854.528	1.141	correct	generate	Run4	generate/STIM_015.jpg
2859.613	1.601	correct	generate	Run4	generate/STIM_015.jpg
2865.105	1.879	correct	generate	Run4	generate/STIM_015.jpg
2870.57	1.619	correct	generate	Run4	generate/STIM_016.jpg
2875.855	1.875	correct	generate	Run4	generate/STIM_016.jpg
2880.732	1.749	correct	generate	Run4	generate/STIM_016.jpg
2885.662	1.42	correct	generate	Run4	generate/STIM_016.jpg
2889.998	1.85	correct	generate	Run4	generate/STIM_016.jpg
2895.611	1.838	correct	generate	Run4	generate/STIM_017.jpg
2900.893	1.969	correct	generate	Run4	generate/STIM_017.jpg
2905.411	1.303	correct	generate	Run4	generate/STIM_017.jpg
2908.775	1.578	correct	generate	Run4	generate/STIM_017.jpg
2913.11	1.446	correct	generate	Run4	generate/STIM_017.jpg
2918.184	1.655	correct	generate	Run4	generate/STIM_018.jpg
2923.322	1.573	incorrect	generate	Run4	generate/STIM_018.jpg
2927.181	1.601	correct	generate	Run4	generate/STIM_018.jpg
2931.147	1.276	correct	generate	Run4	generate/STIM_018.jpg
2934.972	1.826	correct	generate	Run4	generate/STIM_018.jpg
2939.101	1.699	correct	generate	Run4	generate/STIM_019.jpg
2944.17	0.828	correct	generate	Run4	generate/STIM_019.jpg
2948.996	1.68	correct	generate	Run4	generate/STIM_019.jpg
2953.506	1.186	correct	generate	Run4	generate/STIM_019.jpg
2957.517	1.71	correct	generate	Run4	generate/STIM_019.jpg
2962.458	1.029	correct	generate	Run4	generate/STIM_020.jpg
2967.342	0.93	correct	generate	Run4	generate/STIM_020.jpg
2971.132	1.228	correct	generate	Run4	generate/STIM_020.jpg
2974.408	1.6	correct	generate	Run4	generate/STIM_020.jpg
2978.4	1.26	correct	generate	Run4	generate/STIM_020.jpg
2983.0	0.912	correct	generate	Run4	generate/STIM_021.jpg
2987.297	1.608	correct	generate	Run4	generate/STIM_021.jpg
2991.045	1.874	correct	generate	Run4	generate/STIM_021.jpg
2996.661	1.137	correct	generate	Run4	generate/STIM_021.jpg
3001.345	1.717	correct	generate	Run4	generate/STIM_021.jpg
3006.814	1.42	correct	generate	Run4	generate/STIM_022.jpg
3011.114	1.9	correct	generate	Run4	generate/STIM_022.jpg
3016.99	1.932	correct	generate	Run4	generate/STIM_022.jpg
3021.769	1.899	correct	generate	Run4	generate/STIM_022.jpg
3025.69	1.442	correct	generate	Run4	generate/STIM_022.jpg
3029.215	1.442	correct	generate	Run4	generate/STIM_023.jpg
3034.442	1.031	correct	generate	Run4	generate/STIM_023.jpg
3037.986	0.911	correct	generate	Run4	generate/STIM_023.jpg
3042.125	0.881	correct	generate	Run4	generate/STIM_023.jpg
3045.421	1.783	correct	generate	Run4	generate/STIM_023.jpg
3050.905	0.854	correct	generate	Run4	generate/STIM_024.jpg
3055.535	0.948	correct	generate	Run4	generate/STIM_024.jpg
3060.153	1.524	correct	generate	Run4	generate/STIM_024.jpg
3064.916	1.613	correct	generate	Run4	generate/STIM_024.jpg
3069.027	1.94	correct	generate	Run4	generate/STIM_024.jpg
3073.051	0.775	correct	repeat	Run4	repeat/STIM_000.jpg
3077.727	0.887	correct	repeat	Run4	repeat/STIM_000.jpg
3082.479	0.733	correct	repeat	Run4	repeat/STIM_000.jpg
3087.187	0.502	correct	repeat	Run4	repeat/STIM_000.jpg
3091.087	0.765	correct	repeat	Run4	repeat/STIM_000.jpg
3095.017	0.889	correct	repeat	Run4	repeat/STIM_001.jpg
3098.897	0.878	incorrect	repeat	Run4	repeat/STIM_001.jpg
3101.933	0.913	correct	repeat	Run4	repeat/STIM_001.jpg
3106.762	0.675	correct	repeat	Run4	repeat/STIM_001.jpg
3109.707	0.796	correct	repeat	Run4	repeat/STIM_001.jpg
3114.109	0.779	correct	repeat	Run4	repeat/STIM_002.jpg
3117.13	0.612	correct	repeat	Run4	repeat/STIM_002.jpg
3120.251	0.693	correct	repeat	Run4	repeat/STIM_002.jpg
3124.909	0.643	correct	repeat	Run4	repeat/STIM_002.jpg
3128.392	0.54	correct	repeat	Run4	repeat/STIM_002.jpg
3132.487	0.608	correct	repeat	Run4	repeat/STIM_003.jpg
3136.664	0.71	correct	repeat	Run4	repeat/STIM_003.jpg
3140.587	0.723	correct	repeat	Run4	repeat/STIM_003.jpg
3144.648	0.836	correct	repeat	Run4	repeat/STIM_003.jpg
3149.474	0.928	correct	repeat	Run4	repeat/STIM_003.jpg
3152.752	0.596	correct	repeat	Run4	repeat/STIM_004.jpg
3156.81	0.893	correct	repeat	Run4	repeat/STIM_004.jpg
3160.122	0.937	correct	repeat	Run4	repeat/STIM_004.jpg
3163.722	0.729	correct	repeat	Run4	repeat/STIM_004.jpg
3167.829	0.744	correct	repeat	Run4	repeat/STIM_004.jpg
3171.662	0.653	correct	repeat	Run4	repeat/STIM_005.jpg
3175.581	0.883	correct	repeat	Run4	repeat/STIM_005.jpg
3179.169	0.61	correct	repeat	Run4	repeat/STIM_005.jpg
3183.739	0.859	correct	repeat	Run4	repeat/STIM_005.jpg
3186.853	0.775	correct	repeat	Run4	repeat/STIM_005.jpg
3189.661	0.923	correct	repeat	Run4	repeat/STIM_006.jpg
3193.931	0.54	correct	repeat	Run4	repeat/STIM_006.jpg
3196.919	0.774	correct	repeat	Run4	repeat/STIM_006.jpg
3201.098	0.765	correct	repeat	Run4	repeat/STIM_006.jpg
3205.104	0.609	correct	repeat	Run4	repeat/STIM_006.jpg
3208.288	0.54	incorrect	repeat	Run4	repeat/STIM_007.jpg
3211.47	0.767	incorrect	repeat	Run4	repeat/STIM_007.jpg
3214.706	0.53	correct	repeat	Run4	repeat/STIM_007.jpg
3217.946	0.693	correct	repeat	Run4	repeat/STIM_007.jpg
3221.42	0.5	correct	repeat	Run4	repeat/STIM_007.jpg
3224.761	0.75	correct	repeat	Run4	repeat/STIM_008.jpg
3229.143	0.642	correct	repeat	Run4	repeat/STIM_008.jpg
3233.352	0.569	correct	repeat	Run4	repeat/STIM_008.jpg
3237.519	0.521	correct	repeat	Run4	repeat/STIM_008.jpg
3240.539	0.823	correct	repeat	Run4	repeat/STIM_008.jpg
3244.624	0.545	correct	repeat	Run4	repeat/STIM_009.jpg
3248.577	0.742	correct	repeat	Run4	repeat/STIM_009.jpg
3252.641	0.769	correct	repeat	Run4	repeat/STIM_009.jpg
3257.016	0.661	correct	repeat	Run4	repeat/STIM_009.jpg
3261.386	0.858	correct	repeat	Run4	repeat/STIM_009.jpg
3265.895	0.549	correct	repeat	Run4	repeat/STIM_010.jpg
3269.471	0.613	correct	repeat	Run4	repeat/STIM_010.jpg
3273.368	0.728	correct	repeat	Run4	repeat/STIM_010.jpg
3277.563	0.891	correct	repeat	Run4	repeat/STIM_010.jpg
3281.99	0.719	correct	repeat	Run4	repeat/STIM_010.jpg
3285.162	0.494	correct	repeat	Run4	repeat/STIM_011.jpg
3289.328	0.883	correct	repeat	Run4	repeat/STIM_011.jpg
3293.668	0.916	correct	repeat	Run4	repeat/STIM_011.jpg
3297.347	0.868	correct	repeat	Run4	repeat/STIM_011.jpg
3300.32	0.905	correct	repeat	Run4	repeat/STIM_011.jpg
3304.783	0.881	correct	repeat	Run4	repeat/STIM_012.jpg
3308.627	0.816	correct	repeat	Run4	repeat/STIM_012.jpg
3312.315	0.697	correct	repeat	Run4	repeat/STIM_012.jpg
3316.231	0.684	correct	repeat	Run4	repeat/STIM_012.jpg
3319.854	0.59	correct	repeat	Run4	repeat/STIM_012.jpg
3324.422	0.601	correct	repeat	Run4	repeat/STIM_013.jpg
3327.211	0.731	correct	repeat	Run4	repeat/STIM_013.jpg
3331.39	0.814	correct	repeat	Run4	repeat/STIM_013.jpg
3335.212	0.555	correct	repeat	Run4	repeat/STIM_013.jpg
3339.577	0.831	correct	repeat	Run4	repeat/STIM_013.jpg
3343.411	0.66	correct	repeat	Run4	repeat/STIM_014.jpg
3347.002	0.887	correct	repeat	Run4	repeat/STIM_014.jpg
3349.89	0.671	correct	repeat	Run4	repeat/STIM_014.jpg
3354.406	0.757	correct	repeat	Run4	repeat/STIM_014.jpg
3357.849	0.724	correct	repeat	Run4	repeat/STIM_014.jpg
