onset	duration	response_time_ms	trial_type	learning_stage	stimulus	response_port
0.0	3.41	3409.9	navigation	Trial1	navigation/STIM_000.jpg	100
6.642	4.843	4843.3	navigation	Trial1	navigation/STIM_000.jpg	99
13.25	2.797	2797.0	navigation	Trial1	navigation/STIM_000.jpg	100
18.851	2.896	2895.6	navigation	Trial1	navigation/STIM_000.jpg	100
25.257	2.515	2514.7	navigation	Trial1	navigation/STIM_000.jpg	100
29.856	2.974	2974.0	navigation	Trial1	navigation/STIM_000.jpg	100
35.222	3.608	3608.4	navigation	Trial1	navigation/STIM_001.jpg	99
41.177	3.428	3428.1	navigation	Trial1	navigation/STIM_001.jpg	100
46.383	2.826	2825.9	navigation	Trial1	navigation/STIM_001.jpg	100
52.203	3.294	3293.8	navigation	Trial1	navigation/STIM_001.jpg	99
57.567	3.135	3135.0	navigation	Trial1	navigation/STIM_001.jpg	99
63.272	3.836	3835.9	navigation	Trial1	navigation/STIM_001.jpg	100
69.073	4.757	4757.2	navigation	Trial1	navigation/STIM_002.jpg	100
75.889	2.518	2517.8	navigation	Trial1	navigation/STIM_002.jpg	100
80.546	4.302	4302.1	navigation	Trial1	navigation/STIM_002.jpg	99
86.543	3.911	3911.0	navigation	Trial1	navigation/STIM_002.jpg	99
93.907	3.0	2999.5	navigation	Trial1	navigation/STIM_002.jpg	99
100.61	2.26	2260.3	navigation	Trial1	navigation/STIM_002.jpg	100
105.484	2.668	2667.5	navigation	Trial1	navigation/STIM_003.jpg	99
111.349	4.072	4071.9	navigation	Trial1	navigation/STIM_003.jpg	99
118.079	3.914	3913.5	navigation	Trial1	navigation/STIM_003.jpg	99
125.045	3.006	3005.6	navigation	Trial1	navigation/STIM_003.jpg	99
131.557	3.462	3461.7	navigation	Trial1	navigation/STIM_003.jpg	100
137.125	1.73	1730.5	navigation	Trial1	navigation/STIM_003.jpg	100
142.163	2.45	2450.4	navigation	Trial1	navigation/STIM_004.jpg	99
147.366	4.219	4218.9	navigation	Trial1	navigation/STIM_004.jpg	99
153.718	2.835	2834.6	navigation	Trial1	navigation/STIM_004.jpg	99
159.195	2.294	2294.2	navigation	Trial1	navigation/STIM_004.jpg	99
163.662	4.118	4118.4	navigation	Trial1	navigation/STIM_004.jpg	99
170.973	3.227	3227.1	navigation	Trial1	navigation/STIM_004.jpg	100
176.893	3.254	3254.2	navigation	Trial1	navigation/STIM_005.jpg	99
182.597	5.175	5175.1	navigation	Trial1	navigation/STIM_005.jpg	99
190.162	3.745	3745.2	navigation	Trial1	navigation/STIM_005.jpg	100
196.52	4.388	4388.5	navigation	Trial1	navigation/STIM_005.jpg	99
204.482	3.32	3320.1	navigation	Trial1	navigation/STIM_005.jpg	100
211.368	3.332	3332.0	navigation	Trial1	navigation/STIM_005.jpg	100
216.603	4.633	4632.7	navigation	Trial1	navigation/STIM_006.jpg	100
224.261	3.934	3933.8	navigation	Trial1	navigation/STIM_006.jpg	100
230.807	3.364	3364.4	navigation	Trial1	navigation/STIM_006.jpg	99
236.001	2.578	2577.5	navigation	Trial1	navigation/STIM_006.jpg	99
242.206	2.044	2044.3	navigation	Trial1	navigation/STIM_006.jpg	99
247.119	2.716	2716.4	navigation	Trial1	navigation/STIM_006.jpg	99
252.116	4.709	4709.2	navigation	Trial1	navigation/STIM_007.jpg	100
259.557	3.765	3764.6	navigation	Trial1	navigation/STIM_007.jpg	100
266.007	2.833	2833.0	navigation	Trial1	navigation/STIM_007.jpg	100
272.349	3.761	3760.8	navigation	Trial1	navigation/STIM_007.jpg	99
279.75	3.421	3421.1	navigation	Trial1	navigation/STIM_007.jpg	100
286.386	2.768	2767.6	navigation	Trial1	navigation/STIM_007.jpg	100
290.95	5.406	5405.5	navigation	Trial1	navigation/STIM_008.jpg	99
298.848	3.978	3977.5	navigation	Trial1	navigation/STIM_008.jpg	99
305.795	2.871	2870.9	navigation	Trial1	navigation/STIM_008.jpg	100
311.861	2.36	2359.9	navigation	Trial1	navigation/STIM_008.jpg	99
317.347	3.281	3280.8	navigation	Trial1	navigation/STIM_008.jpg	100
323.581	3.938	3937.8	navigation	Trial1	navigation/STIM_008.jpg	100
330.27	4.891	4890.8	navigation	Trial1	navigation/STIM_009.jpg	99
337.426	4.749	4749.1	navigation	Trial1	navigation/STIM_009.jpg	100
345.748	2.316	2316.3	navigation	Trial1	navigation/STIM_009.jpg	99
350.203	2.805	2804.9	navigation	Trial1	navigation/STIM_009.jpg	100
355.154	1.825	1825.2	navigation	Trial1	navigation/STIM_009.jpg	99
359.106	1.879	1878.9	navigation	Trial1	navigation/STIM_009.jpg	99
364.399	2.809	2809.4	navigation	Trial1	navigation/STIM_010.jpg	100
369.355	4.562	4562.0	navigation	Trial1	navigation/STIM_010.jpg	100
377.111	2.44	2440.1	navigation	Trial1	navigation/STIM_010.jpg	99
382.749	2.44	2439.5	navigation	Trial1	navigation/STIM_010.jpg	100
388.795	2.396	2395.8	navigation	Trial1	navigation/STIM_010.jpg	99
393.323	2.978	2978.4	navigation	Trial1	navigation/STIM_010.jpg	100
399.834	5.132	5131.8	navigation	Trial1	navigation/STIM_011.jpg	99
406.95	4.352	4351.8	navigation	Trial1	navigation/STIM_011.jpg	100
413.918	3.694	3694.0	navigation	Trial1	navigation/STIM_011.jpg	100
420.104	4.076	4076.4	navigation	Trial1	navigation/STIM_011.jpg	100
426.62	2.018	2017.9	navigation	Trial1	navigation/STIM_011.jpg	100
431.06	1.825	1824.9	navigation	Trial1	navigation/STIM_011.jpg	99
436.148	1.05	1050.5	pointing	Trial1	pointing/STIM_000.jpg	100
440.718	1.591	1591.4	pointing	Trial1	pointing/STIM_000.jpg	99
444.79	1.026	1026.3	pointing	Trial1	pointing/STIM_000.jpg	100
448.75	1.292	1291.9	pointing	Trial1	pointing/STIM_000.jpg	100
452.681	1.617	1617.3	pointing	Trial1	pointing/STIM_000.jpg	100
457.359	1.336	1336.2	pointing	Trial1	pointing/STIM_000.jpg	100
461.135	0.875	874.6	pointing	Trial1	pointing/STIM_001.jpg	99
465.459	1.422	1421.9	pointing	Trial1	pointing/STIM_001.jpg	99
469.875	0.941	941.2	pointing	Trial1	pointing/STIM_001.jpg	99
473.999	1.146	1146.2	pointing	Trial1	pointing/STIM_001.jpg	100
478.496	1.121	1121.4	pointing	Trial1	pointing/STIM_001.jpg	100
482.065	1.395	1395.2	pointing	Trial1	pointing/STIM_001.jpg	100
486.936	1.438	1438.4	pointing	Trial1	pointing/STIM_002.jpg	100
490.873	1.18	1180.4	pointing	Trial1	pointing/STIM_002.jpg	99
495.231	1.235	1235.4	pointing	Trial1	pointing/STIM_002.jpg	100
499.801	1.05	1049.5	pointing	Trial1	pointing/STIM_002.jpg	100
503.074	1.294	1293.8	pointing	Trial1	pointing/STIM_002.jpg	100
506.689	1.03	1030.5	pointing	Trial1	pointing/STIM_002.jpg	99
511.331	1.364	1363.5	pointing	Trial1	pointing/STIM_003.jpg	99
514.892	1.005	1004.6	pointing	Trial1	pointing/STIM_003.jpg	99
518.934	0.975	975.4	pointing	Trial1	pointing/STIM_003.jpg	99
523.295	1.421	1421.3	pointing	Trial1	pointing/STIM_003.jpg	99
527.759	1.166	1166.5	pointing	Trial1	pointing/STIM_003.jpg	100
532.185	1.412	1412.0	pointing	Trial1	pointing/STIM_003.jpg	99
536.484	1.258	1257.5	pointing	Trial1	pointing/STIM_004.jpg	99
540.195	0.949	948.6	pointing	Trial1	pointing/STIM_004.jpg	99
543.229	1.356	1356.4	pointing	Trial1	pointing/STIM_004.jpg	100
547.473	1.436	1435.9	pointing	Trial1	pointing/STIM_004.jpg	99
552.552	0.915	914.7	pointing	Trial1	pointing/STIM_004.jpg	100
555.472	1.074	1073.7	pointing	Trial1	pointing/STIM_004.jpg	100
558.973	1.263	1262.7	pointing	Trial1	pointing/STIM_005.jpg	99
564.029	1.454	1454.0	pointing	Trial1	pointing/STIM_005.jpg	99
569.142	1.264	1263.5	pointing	Trial1	pointing/STIM_005.jpg	99
572.449	1.538	1538.5	pointing	Trial1	pointing/STIM_005.jpg	100
576.327	1.243	1243.4	pointing	Trial1	pointing/STIM_005.jpg	100
579.975	1.259	1258.6	pointing	Trial1	pointing/STIM_005.jpg	99
583.217	1.387	1387.0	pointing	Trial1	pointing/STIM_006.jpg	100
586.682	0.936	935.9	pointing	Trial1	pointing/STIM_006.jpg	99
591.36	1.169	1169.0	pointing	Trial1	pointing/STIM_006.jpg	100
595.891	1.119	1118.7	pointing	Trial1	pointing/STIM_006.jpg	99
599.586	0.944	943.7	pointing	Trial1	pointing/STIM_006.jpg	100
604.259	1.023	1022.6	pointing	Trial1	pointing/STIM_006.jpg	99
608.035	0.972	971.5	pointing	Trial1	pointing/STIM_007.jpg	99
611.87	1.554	1554.5	pointing	Trial1	pointing/STIM_007.jpg	100
615.715	1.221	1220.6	pointing	Trial1	pointing/STIM_007.jpg	100
619.156	1.326	1326.3	pointing	Trial1	pointing/STIM_007.jpg	99
623.18	1.169	1168.7	pointing	Trial1	pointing/STIM_007.jpg	100
627.564	1.0	999.6	pointing	Trial1	pointing/STIM_007.jpg	99
631.124	1.028	1027.7	pointing	Trial1	pointing/STIM_008.jpg	99
635.826	1.064	1064.5	pointing	Trial1	pointing/STIM_008.jpg	100
640.72	1.382	1381.5	pointing	Trial1	pointing/STIM_008.jpg	100
645.07	1.615	1614.7	pointing	Trial1	pointing/STIM_008.jpg	99
648.613	1.203	1203.3	pointing	Trial1	pointing/STIM_008.jpg	100
652.908	1.014	1014.2	pointing	Trial1	pointing/STIM_008.jpg	100
656.517	1.269	1268.7	pointing	Trial1	pointing/STIM_009.jpg	99
660.87	0.958	958.0	pointing	Trial1	pointing/STIM_009.jpg	100
664.51	1.108	1108.2	pointing	Trial1	pointing/STIM_009.jpg	99
669.325	1.287	1287.3	pointing	Trial1	pointing/STIM_009.jpg	99
672.543	1.43	1430.1	pointing	Trial1	pointing/STIM_009.jpg	100
676.832	1.596	1596.1	pointing	Trial1	pointing/STIM_009.jpg	99
681.114	1.577	1576.6	pointing	Trial1	pointing/STIM_010.jpg	100
685.087	1.386	1386.1	pointing	Trial1	pointing/STIM_010.jpg	99
689.913	0.936	936.2	pointing	Trial1	pointing/STIM_010.jpg	99
693.602	1.52	1520.3	pointing	Trial1	pointing/STIM_010.jpg	100
697.19	0.93	929.6	pointing	Trial1	pointing/STIM_010.jpg	99
700.536	1.164	1163.5	pointing	Trial1	pointing/STIM_010.jpg	99
705.593	1.504	1504.5	pointing	Trial1	pointing/STIM_011.jpg	100
710.629	1.183	1182.9	pointing	Trial1	pointing/STIM_011.jpg	100
714.961	1.499	1499.1	pointing	Trial1	pointing/STIM_011.jpg	99
719.739	1.207	1206.8	pointing	Trial1	pointing/STIM_011.jpg	99
724.742	1.336	1336.4	pointing	Trial1	pointing/STIM_011.jpg	100
729.481	1.491	1491.0	pointing	Trial1	pointing/STIM_011.jpg	99
734.763	3.196	3195.7	navigation	Trial2	navigation/STIM_000.jpg	99
740.461	1.937	1937.4	navigation	Trial2	navigation/STIM_000.jpg	100
745.934	2.62	2620.2	navigation	Trial2	navigation/STIM_000.jpg	100
751.581	2.263	2263.3	navigation	Trial2	navigation/STIM_000.jpg	100
756.539	1.963	1962.9	navigation	Trial2	navigation/STIM_000.jpg	100
760.839	1.686	1685.9	navigation	Trial2	navigation/STIM_000.jpg	99
765.964	4.26	4260.3	navigation	Trial2	navigation/STIM_001.jpg	99
773.528	2.264	2264.2	navigation	Trial2	navigation/STIM_001.jpg	99
779.014	2.18	2180.3	navigation	Trial2	navigation/STIM_001.jpg	100
783.686	2.532	2532.1	navigation	Trial2	navigation/STIM_001.jpg	100
789.307	3.409	3409.4	navigation	Trial2	navigation/STIM_001.jpg	99
795.544	1.944	1944.5	navigation	Trial2	navigation/STIM_001.jpg	99
800.726	2.001	2001.2	navigation	Trial2	navigation/STIM_002.jpg	100
806.083	2.444	2444.5	navigation	Trial2	navigation/STIM_002.jpg	100
811.095	3.29	3289.6	navigation	Trial2	navigation/STIM_002.jpg	100
817.509	2.59	2590.1	navigation	Trial2	navigation/STIM_002.jpg	100
822.329	2.561	2561.1	navigation	Trial2	navigation/STIM_002.jpg	100
828.588	1.877	1876.9	navigation	Trial2	navigation/STIM_002.jpg	100
832.635	3.417	3417.3	navigation	Trial2	navigation/STIM_003.jpg	99
839.31	1.917	1916.7	navigation	Trial2	navigation/STIM_003.jpg	100
843.69	3.943	3943.1	navigation	Trial2	navigation/STIM_003.jpg	99
849.306	3.467	3466.7	navigation	Trial2	navigation/STIM_003.jpg	99
856.248	3.326	3326.2	navigation	Trial2	navigation/STIM_003.jpg	100
862.128	1.916	1916.4	navigation	Trial2	navigation/STIM_003.jpg	100
866.734	4.528	4527.7	navigation	Trial2	navigation/STIM_004.jpg	99
873.081	4.353	4352.7	navigation	Trial2	navigation/STIM_004.jpg	100
879.565	2.149	2149.3	navigation	Trial2	navigation/STIM_004.jpg	100
885.239	3.664	3664.2	navigation	Trial2	navigation/STIM_004.jpg	100
891.117	3.59	3589.8	navigation	Trial2	navigation/STIM_004.jpg	100
896.791	3.676	3676.2	navigation	Trial2	navigation/STIM_004.jpg	99
903.01	4.434	4433.9	navigation	Trial2	navigation/STIM_005.jpg	99
909.574	3.845	3845.4	navigation	Trial2	navigation/STIM_005.jpg	100
915.777	2.632	2632.4	navigation	Trial2	navigation/STIM_005.jpg	100
921.513	2.233	2233.0	navigation	Trial2	navigation/STIM_005.jpg	99
927.392	3.267	3266.9	navigation	Trial2	navigation/STIM_005.jpg	100
932.86	2.794	2794.0	navigation	Trial2	navigation/STIM_005.jpg	100
937.819	3.541	3540.7	navigation	Trial2	navigation/STIM_006.jpg	99
943.62	4.277	4277.2	navigation	Trial2	navigation/STIM_006.jpg	100
951.292	2.772	2771.5	navigation	Trial2	navigation/STIM_006.jpg	99
956.255	2.966	2966.0	navigation	Trial2	navigation/STIM_006.jpg	100
962.932	3.565	3565.0	navigation	Trial2	navigation/STIM_006.jpg	99
969.467	3.486	3485.5	navigation	Trial2	navigation/STIM_006.jpg	99
976.463	4.079	4078.7	navigation	Trial2	navigation/STIM_007.jpg	99
982.638	1.933	1933.1	navigation	Trial2	navigation/STIM_007.jpg	100
987.652	2.987	2987.0	navigation	Trial2	navigation/STIM_007.jpg	99
993.869	3.511	3511.1	navigation	Trial2	navigation/STIM_007.jpg	99
999.577	3.166	3165.6	navigation	Trial2	navigation/STIM_007.jpg	99
1004.732	2.672	2671.8	navigation	Trial2	navigation/STIM_007.jpg	100
1009.608	2.259	2259.0	navigation	Trial2	navigation/STIM_008.jpg	99
1014.136	2.948	2948.2	navigation	Trial2	navigation/STIM_008.jpg	99
1020.044	3.244	3243.5	navigation	Trial2	navigation/STIM_008.jpg	99
1025.255	2.289	2289.1	navigation	Trial2	navigation/STIM_008.jpg	99
1029.947	2.096	2096.1	navigation	Trial2	navigation/STIM_008.jpg	99
1035.703	3.144	3144.1	navigation	Trial2	navigation/STIM_008.jpg	100
1041.288	3.554	3553.9	navigation	Trial2	navigation/STIM_009.jpg	99
1046.816	3.8	3799.8	navigation	Trial2	navigation/STIM_009.jpg	100
1054.281	4.031	4031.0	navigation	Trial2	navigation/STIM_009.jpg	99
1061.622	1.915	1915.0	navigation	Trial2	navigation/STIM_009.jpg	99
1065.621	3.425	3424.9	navigation	Trial2	navigation/STIM_009.jpg	100
1071.8	2.44	2439.9	navigation	Trial2	navigation/STIM_009.jpg	100
1076.854	4.484	4484.1	navigation	Trial2	navigation/STIM_010.jpg	99
1084.009	4.316	4316.2	navigation	Trial2	navigation/STIM_010.jpg	100
1090.552	2.374	2373.9	navigation	Trial2	navigation/STIM_010.jpg	100
1096.167	3.07	3070.2	navigation	Trial2	navigation/STIM_010.jpg	99
1101.634	3.452	3452.4	navigation	Trial2	navigation/STIM_010.jpg	99
1107.986	2.734	2734.4	navigation	Trial2	navigation/STIM_010.jpg	99
1112.681	3.713	3712.9	navigation	Trial2	navigation/STIM_011.jpg	99
1119.133	2.555	2554.7	navigation	Trial2	navigation/STIM_011.jpg	99
1123.884	1.824	1823.7	navigation	Trial2	navigation/STIM_011.jpg	99
1127.825	3.816	3815.5	navigation	Trial2	navigation/STIM_011.jpg	99
1133.831	3.426	3426.0	navigation	Trial2	navigation/STIM_011.jpg	100
1140.943	2.952	2952.0	navigation	Trial2	navigation/STIM_011.jpg	100
1146.367	0.992	992.3	pointing	Trial2	pointing/STIM_000.jpg	100
1150.302	1.251	1250.8	pointing	Trial2	pointing/STIM_000.jpg	99
1153.962	1.559	1558.6	pointing	Trial2	pointing/STIM_000.jpg	100
1157.579	1.208	1208.2	pointing	Trial2	pointing/STIM_000.jpg	100
1161.679	1.261	1261.4	pointing	Trial2	pointing/STIM_000.jpg	99
1165.72	1.635	1634.9	pointing	Trial2	pointing/STIM_000.jpg	99
1170.459	1.308	1307.8	pointing	Trial2	pointing/STIM_001.jpg	100
1174.02	1.146	1146.4	pointing	Trial2	pointing/STIM_001.jpg	100
1178.444	1.454	1454.0	pointing	Trial2	pointing/STIM_001.jpg	100
1181.993	1.561	1560.8	pointing	Trial2	pointing/STIM_001.jpg	99
1187.283	1.414	1413.9	pointing	Trial2	pointing/STIM_001.jpg	100
1192.219	1.451	1451.3	pointing	Trial2	pointing/STIM_001.jpg	100
1195.714	1.364	1364.5	pointing	Trial2	pointing/STIM_002.jpg	99
1198.981	0.929	928.9	pointing	Trial2	pointing/STIM_002.jpg	99
1202.986	1.22	1219.7	pointing	Trial2	pointing/STIM_002.jpg	99
1207.644	1.441	1441.4	pointing	Trial2	pointing/STIM_002.jpg	100
1212.417	1.068	1068.5	pointing	Trial2	pointing/STIM_002.jpg	100
1216.098	0.98	980.5	pointing	Trial2	pointing/STIM_002.jpg	99
1220.921	1.547	1546.7	pointing	Trial2	pointing/STIM_003.jpg	99
1226.11	1.55	1549.5	pointing	Trial2	pointing/STIM_003.jpg	99
1231.136	1.478	1477.5	pointing	Trial2	pointing/STIM_003.jpg	99
1236.389	1.312	1311.6	pointing	Trial2	pointing/STIM_003.jpg	99
1239.735	1.589	1589.3	pointing	Trial2	pointing/STIM_003.jpg	100
1243.778	0.985	984.7	pointing	Trial2	pointing/STIM_003.jpg	100
1248.032	1.233	1233.3	pointing	Trial2	pointing/STIM_004.jpg	99
1251.596	1.0	1000.1	pointing	Trial2	pointing/STIM_004.jpg	100
1254.913	1.059	1059.4	pointing	Trial2	pointing/STIM_004.jpg	99
1259.58	1.268	1268.2	pointing	Trial2	pointing/STIM_004.jpg	99
1264.546	1.268	1267.8	pointing	Trial2	pointing/STIM_004.jpg	99
1268.102	1.364	1363.5	pointing	Trial2	pointing/STIM_004.jpg	100
1271.374	1.315	1314.9	pointing	Trial2	pointing/STIM_005.jpg	100
1275.463	0.943	942.6	pointing	Trial2	pointing/STIM_005.jpg	100
1280.215	1.44	1440.0	pointing	Trial2	pointing/STIM_005.jpg	100
1283.838	1.177	1177.1	pointing	Trial2	pointing/STIM_005.jpg	100
1288.866	1.181	1180.7	pointing	Trial2	pointing/STIM_005.jpg	99
1292.248	1.298	1298.3	pointing	Trial2	pointing/STIM_005.jpg	99
1296.212	1.239	1238.9	pointing	Trial2	pointing/STIM_006.jpg	100
1300.182	1.002	1001.8	pointing	Trial2	pointing/STIM_006.jpg	100
1303.301	1.115	1115.2	pointing	Trial2	pointing/STIM_006.jpg	100
1307.366	1.124	1124.1	pointing	Trial2	pointing/STIM_006.jpg	99
1311.392	1.532	1531.5	pointing	Trial2	pointing/STIM_006.jpg	100
1316.098	1.043	1042.6	pointing	Trial2	pointing/STIM_006.jpg	100
1320.507	1.538	1537.6	pointing	Trial2	pointing/STIM_007.jpg	99
1325.167	1.411	1411.4	pointing	Trial2	pointing/STIM_007.jpg	100
1328.663	1.333	1332.9	pointing	Trial2	pointing/STIM_007.jpg	100
1333.432	1.481	1481.4	pointing	Trial2	pointing/STIM_007.jpg	99
1337.576	1.5	1499.8	pointing	Trial2	pointing/STIM_007.jpg	99
1341.657	1.303	1303.1	pointing	Trial2	pointing/STIM_007.jpg	100
1346.729	1.568	1568.3	pointing	Trial2	pointing/STIM_008.jpg	99
1351.227	1.15	1150.4	pointing	Trial2	pointing/STIM_008.jpg	99
1356.152	1.324	1324.5	pointing	Trial2	pointing/STIM_008.jpg	100
1360.329	1.546	1545.9	pointing	Trial2	pointing/STIM_008.jpg	100
1363.795	1.502	1502.1	pointing	Trial2	pointing/STIM_008.jpg	100
1367.754	1.622	1622.2	pointing	Trial2	pointing/STIM_008.jpg	99
1371.862	0.918	917.6	pointing	Trial2	pointing/STIM_009.jpg	99
1375.216	1.271	1270.8	pointing	Trial2	pointing/STIM_009.jpg	99
1379.67	1.342	1341.9	pointing	Trial2	pointing/STIM_009.jpg	99
1384.234	1.273	1272.6	pointing	Trial2	pointing/STIM_009.jpg	100
1388.127	0.946	946.0	pointing	Trial2	pointing/STIM_009.jpg	100
1392.71	0.974	974.4	pointing	Trial2	pointing/STIM_009.jpg	100
1396.212	1.183	1183.4	pointing	Trial2	pointing/STIM_010.jpg	99
1400.132	1.544	1543.7	pointing	Trial2	pointing/STIM_010.jpg	99
1405.437	1.367	1367.3	pointing	Trial2	pointing/STIM_010.jpg	99
1410.061	1.327	1327.1	pointing	Trial2	pointing/STIM_010.jpg	100
1414.427	1.499	1498.8	pointing	Trial2	pointing/STIM_010.jpg	100
1418.379	1.484	1484.1	pointing	Trial2	pointing/STIM_010.jpg	100
1422.892	0.946	945.8	pointing	Trial2	pointing/STIM_011.jpg	99
1425.807	1.472	1472.3	pointing	Trial2	pointing/STIM_011.jpg	99
1429.305	1.598	1597.6	pointing	Trial2	pointing/STIM_011.jpg	99
1433.985	1.461	1460.6	pointing	Trial2	pointing/STIM_011.jpg	99
1437.647	1.237	1236.6	pointing	Trial2	pointing/STIM_011.jpg	99
1441.432	0.893	892.7	pointing	Trial2	pointing/STIM_011.jpg	100
1444.417	2.431	2430.9	navigation	Trial3	navigation/STIM_000.jpg	99
1449.386	3.56	3559.8	navigation	Trial3	navigation/STIM_000.jpg	99
1455.339	1.773	1773.0	navigation	Trial3	navigation/STIM_000.jpg	100
1460.721	3.499	3498.8	navigation	Trial3	navigation/STIM_000.jpg	99
1467.1	3.36	3360.3	navigation	Trial3	navigation/STIM_000.jpg	100
1472.303	3.552	3551.5	navigation	Trial3	navigation/STIM_000.jpg	100
1478.755	2.693	2693.1	navigation	Trial3	navigation/STIM_001.jpg	100
1485.187	2.452	2451.8	navigation	Trial3	navigation/STIM_001.jpg	100
1490.394	2.845	2845.3	navigation	Trial3	navigation/STIM_001.jpg	99
1495.905	2.062	2061.6	navigation	Trial3	navigation/STIM_001.jpg	100
1500.683	2.796	2795.5	navigation	Trial3	navigation/STIM_001.jpg	99
1505.803	2.613	2613.4	navigation	Trial3	navigation/STIM_001.jpg	100
1510.216	3.095	3095.0	navigation	Trial3	navigation/STIM_002.jpg	99
1516.15	3.521	3521.4	navigation	Trial3	navigation/STIM_002.jpg	99
1521.682	2.558	2557.6	navigation	Trial3	navigation/STIM_002.jpg	99
1526.277	3.643	3643.1	navigation	Trial3	navigation/STIM_002.jpg	99
1531.885	1.702	1701.9	navigation	Trial3	navigation/STIM_002.jpg	100
1536.262	2.59	2589.6	navigation	Trial3	navigation/STIM_002.jpg	99
1541.68	2.07	2070.3	navigation	Trial3	navigation/STIM_003.jpg	100
1545.622	3.798	3797.5	navigation	Trial3	navigation/STIM_003.jpg	99
1551.755	1.806	1806.5	navigation	Trial3	navigation/STIM_003.jpg	99
1556.092	1.556	1555.5	navigation	Trial3	navigation/STIM_003.jpg	100
1559.583	1.816	1816.2	navigation	Trial3	navigation/STIM_003.jpg	99
1563.732	3.342	3342.1	navigation	Trial3	navigation/STIM_003.jpg	100
1569.785	3.09	3090.1	navigation	Trial3	navigation/STIM_004.jpg	100
1575.216	2.256	2256.1	navigation	Trial3	navigation/STIM_004.jpg	100
1581.154	3.478	3478.5	navigation	Trial3	navigation/STIM_004.jpg	99
1588.095	1.81	1810.2	navigation	Trial3	navigation/STIM_004.jpg	99
1592.395	2.598	2597.6	navigation	Trial3	navigation/STIM_004.jpg	100
1597.069	3.45	3449.6	navigation	Trial3	navigation/STIM_004.jpg	100
1603.804	3.491	3490.6	navigation	Trial3	navigation/STIM_005.jpg	100
1609.121	3.538	3538.1	navigation	Trial3	navigation/STIM_005.jpg	99
1616.3	3.341	3341.0	navigation	Trial3	navigation/STIM_005.jpg	99
1623.172	3.06	3060.0	navigation	Trial3	navigation/STIM_005.jpg	100
1628.311	2.155	2154.8	navigation	Trial3	navigation/STIM_005.jpg	99
1634.015	3.715	3714.8	navigation	Trial3	navigation/STIM_005.jpg	100
1640.152	3.176	3176.3	navigation	Trial3	navigation/STIM_006.jpg	99
1646.103	2.451	2450.6	navigation	Trial3	navigation/STIM_006.jpg	100
1650.618	2.897	2897.2	navigation	Trial3	navigation/STIM_006.jpg	100
1655.889	3.194	3193.6	navigation	Trial3	navigation/STIM_006.jpg	99
1662.496	3.698	3697.8	navigation	Trial3	navigation/STIM_006.jpg	100
1668.375	3.626	3626.4	navigation	Trial3	navigation/STIM_006.jpg	100
1674.955	1.895	1895.2	navigation	Trial3	navigation/STIM_007.jpg	99
1680.004	2.754	2754.4	navigation	Trial3	navigation/STIM_007.jpg	100
1685.376	1.789	1788.7	navigation	Trial3	navigation/STIM_007.jpg	100
1689.143	1.963	1962.8	navigation	Trial3	navigation/STIM_007.jpg	99
1694.042	2.418	2418.3	navigation	Trial3	navigation/STIM_007.jpg	99
1699.779	2.0	1999.5	navigation	Trial3	navigation/STIM_007.jpg	100
1703.799	2.376	2376.2	navigation	Trial3	navigation/STIM_008.jpg	100
1708.926	2.058	2058.1	navigation	Trial3	navigation/STIM_008.jpg	99
1713.038	2.822	2822.1	navigation	Trial3	navigation/STIM_008.jpg	100
1718.935	3.793	3793.0	navigation	Trial3	navigation/STIM_008.jpg	100
1724.557	3.111	3111.2	navigation	Trial3	navigation/STIM_008.jpg	99
1731.002	2.853	2852.7	navigation	Trial3	navigation/STIM_008.jpg	99
1736.166	3.261	3260.6	navigation	Trial3	navigation/STIM_009.jpg	100
1742.147	2.82	2819.5	navigation	Trial3	navigation/STIM_009.jpg	100
1747.592	2.959	2958.6	navigation	Trial3	navigation/STIM_009.jpg	100
1752.401	2.359	2358.7	navigation	Trial3	navigation/STIM_009.jpg	99
1757.249	3.448	3447.9	navigation	Trial3	navigation/STIM_009.jpg	99
1762.628	3.07	3069.6	navigation	Trial3	navigation/STIM_009.jpg	100
1769.303	3.754	3753.6	navigation	Trial3	navigation/STIM_010.jpg	99
1775.326	2.77	2769.6	navigation	Trial3	navigation/STIM_010.jpg	99
1781.351	3.229	3229.1	navigation	Trial3	navigation/STIM_010.jpg	100
1787.339	3.136	3136.3	navigation	Trial3	navigation/STIM_010.jpg	99
1793.238	3.549	3549.0	navigation	Trial3	navigation/STIM_010.jpg	100
1798.959	3.482	3481.9	navigation	Trial3	navigation/STIM_010.jpg	100
1804.909	3.392	3391.5	navigation	Trial3	navigation/STIM_011.jpg	99
1810.95	3.534	3534.2	navigation	Trial3	navigation/STIM_011.jpg	100
1817.259	3.416	3415.6	navigation	Trial3	navigation/STIM_011.jpg	100
1823.091	1.567	1566.9	navigation	Trial3	navigation/STIM_011.jpg	100
1827.845	2.768	2767.8	navigation	Trial3	navigation/STIM_011.jpg	100
1833.899	3.696	3696.2	navigation	Trial3	navigation/STIM_011.jpg	100
1840.745	1.475	1475.4	pointing	Trial3	pointing/STIM_000.jpg	100
1845.888	1.611	1610.7	pointing	Trial3	pointing/STIM_000.jpg	100
1849.815	0.982	981.7	pointing	Trial3	pointing/STIM_000.jpg	99
1852.803	1.578	1577.8	pointing	Trial3	pointing/STIM_000.jpg	100
1856.911	1.587	1586.8	pointing	Trial3	pointing/STIM_000.jpg	99
1861.881	1.233	1232.7	pointing	Trial3	pointing/STIM_000.jpg	100
1865.988	1.537	1536.9	pointing	Trial3	pointing/STIM_001.jpg	100
1870.841	0.932	932.5	pointing	Trial3	pointing/STIM_001.jpg	100
1875.282	1.311	1310.6	pointing	Trial3	pointing/STIM_001.jpg	100
1879.213	1.56	1560.0	pointing	Trial3	pointing/STIM_001.jpg	100
1883.197	1.11	1109.7	pointing	Trial3	pointing/STIM_001.jpg	100
1887.691	1.163	1162.9	pointing	Trial3	pointing/STIM_001.jpg	99
1891.334	1.359	1359.1	pointing	Trial3	pointing/STIM_002.jpg	99
1895.446	1.035	1035.3	pointing	Trial3	pointing/STIM_002.jpg	99
1898.919	1.437	1437.0	pointing	Trial3	pointing/STIM_002.jpg	100
1902.72	1.014	1013.6	pointing	Trial3	pointing/STIM_002.jpg	99
1906.481	0.942	942.0	pointing	Trial3	pointing/STIM_002.jpg	100
1909.893	1.32	1319.6	pointing	Trial3	pointing/STIM_002.jpg	99
1914.121	1.29	1289.9	pointing	Trial3	pointing/STIM_003.jpg	100
1917.726	1.076	1076.5	pointing	Trial3	pointing/STIM_003.jpg	99
1921.552	0.983	983.3	pointing	Trial3	pointing/STIM_003.jpg	100
1926.073	0.989	989.0	pointing	Trial3	pointing/STIM_003.jpg	99
1930.6	0.903	903.4	pointing	Trial3	pointing/STIM_003.jpg	100
1933.765	1.634	1634.4	pointing	Trial3	pointing/STIM_003.jpg	99
1939.239	1.356	1355.7	pointing	Trial3	pointing/STIM_004.jpg	100
1944.426	1.156	1156.2	pointing	Trial3	pointing/STIM_004.jpg	99
1948.943	1.202	1202.3	pointing	Trial3	pointing/STIM_004.jpg	100
1952.953	1.148	1148.3	pointing	Trial3	pointing/STIM_004.jpg	100
1957.63	1.432	1432.2	pointing	Trial3	pointing/STIM_004.jpg	99
1961.157	1.317	1316.8	pointing	Trial3	pointing/STIM_004.jpg	99
1965.989	1.478	1478.5	pointing	Trial3	pointing/STIM_005.jpg	99
1970.381	1.337	1337.1	pointing	Trial3	pointing/STIM_005.jpg	99
1974.61	1.259	1259.4	pointing	Trial3	pointing/STIM_005.jpg	100
1978.076	1.134	1134.1	pointing	Trial3	pointing/STIM_005.jpg	99
1982.729	1.615	1615.2	pointing	Trial3	pointing/STIM_005.jpg	99
1987.443	1.268	1267.8	pointing	Trial3	pointing/STIM_005.jpg	99
1991.74	0.897	896.8	pointing	Trial3	pointing/STIM_006.jpg	99
1996.409	1.15	1149.6	pointing	Trial3	pointing/STIM_006.jpg	100
2000.395	1.208	1208.5	pointing	Trial3	pointing/STIM_006.jpg	99
2004.0	1.014	1013.6	pointing	Trial3	pointing/STIM_006.jpg	99
2007.959	0.976	975.6	pointing	Trial3	pointing/STIM_006.jpg	99
2012.187	1.342	1342.1	pointing	Trial3	pointing/STIM_006.jpg	100
2016.922	1.241	1241.0	pointing	Trial3	pointing/STIM_007.jpg	99
2020.542	1.247	1247.2	pointing	Trial3	pointing/STIM_007.jpg	100
2025.664	1.227	1226.6	pointing	Trial3	pointing/STIM_007.jpg	100
2028.851	1.144	1143.6	pointing	Trial3	pointing/STIM_007.jpg	100
2033.824	0.89	890.5	pointing	Trial3	pointing/STIM_007.jpg	100
2036.879	1.622	1622.3	pointing	Trial3	pointing/STIM_007.jpg	100
2041.636	1.137	1137.1	pointing	Trial3	pointing/STIM_008.jpg	99
2046.235	0.967	967.4	pointing	Trial3	pointing/STIM_008.jpg	100
2049.52	1.451	1451.0	pointing	Trial3	pointing/STIM_008.jpg	100
2052.946	1.304	1303.9	pointing	Trial3	pointing/STIM_008.jpg	99
2056.765	1.102	1102.0	pointing	Trial3	pointing/STIM_008.jpg	99
2061.344	0.893	892.7	pointing	Trial3	pointing/STIM_008.jpg	99
2065.794	1.032	1032.2	pointing	Trial3	pointing/STIM_009.jpg	100
2070.132	1.432	1432.0	pointing	Trial3	pointing/STIM_009.jpg	100
2075.023	1.284	1283.6	pointing	Trial3	pointing/STIM_009.jpg	100
2079.36	1.213	1213.1	pointing	Trial3	pointing/STIM_009.jpg	100
2082.767	1.398	1398.4	pointing	Trial3	pointing/STIM_009.jpg	100
2086.205	1.238	1238.5	pointing	Trial3	pointing/STIM_009.jpg	99
2089.633	1.267	1267.2	pointing	Trial3	pointing/STIM_010.jpg	99
2094.753	1.063	1062.8	pointing	Trial3	pointing/STIM_010.jpg	100
2098.726	1.236	1236.4	pointing	Trial3	pointing/STIM_010.jpg	99
2101.874	0.911	911.0	pointing	Trial3	pointing/STIM_010.jpg	100
2105.524	1.373	1372.7	pointing	Trial3	pointing/STIM_010.jpg	100
2109.642	0.896	896.2	pointing	Trial3	pointing/STIM_010.jpg	99
2112.738	1.49	1489.7	pointing	Trial3	pointing/STIM_011.jpg	100
2116.732	1.265	1265.2	pointing	Trial3	pointing/STIM_011.jpg	100
2120.132	1.036	1036.3	pointing	Trial3	pointing/STIM_011.jpg	99
2124.169	1.307	1307.1	pointing	Trial3	pointing/STIM_011.jpg	99
2128.899	0.929	929.1	pointing	Trial3	pointing/STIM_011.jpg	100
2132.294	1.388	1388.2	pointing	Trial3	pointing/STIM_011.jpg	100
