onset	duration	response_time_ms	trial_type	learning_stage	stimulus	response_port
0.0	0.952	952.4	2back	Block1	2back/STIM_000.jpg	99
4.139	1.566	1566.4	2back	Block1	2back/STIM_000.jpg	99
9.356	0.87	870.0	2back	Block1	2back/STIM_000.jpg	100
12.899	1.384	1384.4	2back	Block1	2back/STIM_001.jpg	100
18.057	1.503	1503.2	2back	Block1	2back/STIM_001.jpg	100
23.258	0.9	900.1	2back	Block1	2back/STIM_001.jpg	100
26.33	1.698	1698.3	2back	Block1	2back/STIM_002.jpg	100
30.233	1.541	1540.8	2back	Block1	2back/STIM_002.jpg	99
34.902	0.787	787.3	2back	Block1	2back/STIM_002.jpg	100
38.939	1.058	1057.6	2back	Block1	2back/STIM_003.jpg	99
43.332	1.372	1371.6	2back	Block1	2back/STIM_003.jpg	99
46.727	1.224	1223.9	2back	Block1	2back/STIM_003.jpg	99
50.204	1.696	1695.7	2back	Block1	2back/STIM_004.jpg	100
54.774	0.992	991.5	2back	Block1	2back/STIM_004.jpg	99
59.348	1.249	1248.8	2back	Block1	2back/STIM_004.jpg	100
62.707	1.181	1181.1	2back	Block1	2back/STIM_005.jpg	99
66.791	1.34	1339.7	2back	Block1	2back/STIM_005.jpg	99
71.516	0.819	819.1	2back	Block1	2back/STIM_005.jpg	99
74.422	1.356	1356.5	2back	Block1	2back/STIM_006.jpg	99
78.78	1.578	1577.7	2back	Block1	2back/STIM_006.jpg	100
83.271	1.274	1273.6	2back	Block1	2back/STIM_006.jpg	100
88.208	0.886	885.8	2back	Block1	2back/STIM_007.jpg	99
92.805	1.059	1058.9	2back	Block1	2back/STIM_007.jpg	100
96.654	1.002	1001.7	2back	Block1	2back/STIM_007.jpg	100
100.444	0.808	807.9	2back	Block1	2back/STIM_008.jpg	99
103.843	1.43	1429.5	2back	Block1	2back/STIM_008.jpg	99
107.43	0.815	815.4	2back	Block1	2back/STIM_008.jpg	100
111.721	0.754	754.4	2back	Block1	2back/STIM_009.jpg	99
115.525	1.308	1307.9	2back	Block1	2back/STIM_009.jpg	99
120.456	0.948	948.0	2back	Block1	2back/STIM_009.jpg	100
125.001	1.445	1445.0	2back	Block1	2back/STIM_010.jpg	100
130.319	1.616	1615.5	2back	Block1	2back/STIM_010.jpg	99
135.538	1.118	1117.6	2back	Block1	2back/STIM_010.jpg	100
139.467	1.608	1607.8	2back	Block1	2back/STIM_011.jpg	99
143.681	1.376	1375.8	2back	Block1	2back/STIM_011.jpg	100
147.677	1.097	1096.7	2back	Block1	2back/STIM_011.jpg	99
151.331	1.728	1728.4	2back	Block1	2back/STIM_012.jpg	100
155.907	1.273	1273.0	2back	Block1	2back/STIM_012.jpg	99
159.535	0.957	957.0	2back	Block1	2back/STIM_012.jpg	99
164.171	1.52	1520.5	2back	Block1	2back/STIM_013.jpg	100
168.847	1.357	1357.4	2back	Block1	2back/STIM_013.jpg	100
173.037	0.793	793.1	2back	Block1	2back/STIM_013.jpg	99
176.77	1.273	1273.2	2back	Block1	2back/STIM_014.jpg	99
180.13	0.813	813.3	2back	Block1	2back/STIM_014.jpg	99
184.703	0.996	995.7	2back	Block1	2back/STIM_014.jpg	100
188.596	0.897	897.3	2back	Block1	2back/STIM_015.jpg	100
192.995	0.913	913.1	2back	Block1	2back/STIM_015.jpg	99
197.746	0.828	828.2	2back	Block1	2back/STIM_015.jpg	100
200.855	1.551	1550.8	2back	Block1	2back/STIM_016.jpg	99
205.129	1.424	1423.7	2back	Block1	2back/STIM_016.jpg	99
210.533	0.823	822.7	2back	Block1	2back/STIM_016.jpg	100
214.367	0.904	904.2	2back	Block1	2back/STIM_017.jpg	99
218.47	0.958	958.5	2back	Block1	2back/STIM_017.jpg	100
223.139	1.502	1501.7	2back	Block1	2back/STIM_017.jpg	100
228.446	1.056	1055.9	2back	Block1	2back/STIM_018.jpg	99
231.765	1.586	1585.9	2back	Block1	2back/STIM_018.jpg	100
236.754	0.686	686.5	2back	Block1	2back/STIM_018.jpg	100
240.434	1.603	1603.1	2back	Block1	2back/STIM_019.jpg	99
245.858	1.1	1100.3	2back	Block1	2back/STIM_019.jpg	100
249.277	1.269	1269.0	2back	Block1	2back/STIM_019.jpg	100
253.932	1.125	1124.7	2back	Block1	2back/STIM_020.jpg	99
257.213	1.351	1350.9	2back	Block1	2back/STIM_020.jpg	100
261.281	0.988	987.9	2back	Block1	2back/STIM_020.jpg	100
266.024	1.188	1188.3	2back	Block1	2back/STIM_021.jpg	99
270.977	1.496	1496.1	2back	Block1	2back/STIM_021.jpg	100
276.191	0.92	920.0	2back	Block1	2back/STIM_021.jpg	99
280.075	1.414	1414.1	2back	Block1	2back/STIM_022.jpg	100
285.261	1.026	1026.5	2back	Block1	2back/STIM_022.jpg	99
288.476	1.355	1354.9	2back	Block1	2back/STIM_022.jpg	100
292.51	1.258	1257.6	2back	Block1	2back/STIM_023.jpg	99
297.603	1.412	1412.3	2back	Block1	2back/STIM_023.jpg	99
301.157	0.996	996.3	2back	Block1	2back/STIM_023.jpg	100
304.318	1.505	1504.9	2back	Block1	2back/STIM_024.jpg	100
309.224	1.497	1496.7	2back	Block1	2back/STIM_024.jpg	100
313.441	0.911	910.8	2back	Block1	2back/STIM_024.jpg	99
317.527	1.024	1023.6	2back	Block1	2back/STIM_025.jpg	99
321.995	1.554	1553.6	2back	Block1	2back/STIM_025.jpg	99
326.237	0.704	703.5	2back	Block1	2back/STIM_025.jpg	99
329.914	1.011	1011.0	2back	Block1	2back/STIM_026.jpg	100
332.979	1.646	1645.5	2back	Block1	2back/STIM_026.jpg	100
338.008	1.5	1500.1	2back	Block1	2back/STIM_026.jpg	99
341.622	1.526	1526.2	2back	Block1	2back/STIM_027.jpg	99
345.736	1.082	1082.4	2back	Block1	2back/STIM_027.jpg	99
350.603	1.481	1481.3	2back	Block1	2back/STIM_027.jpg	100
354.913	1.51	1510.0	2back	Block1	2back/STIM_028.jpg	100
358.991	1.262	1261.7	2back	Block1	2back/STIM_028.jpg	99
363.382	1.476	1476.4	2back	Block1	2back/STIM_028.jpg	99
367.202	1.456	1456.4	2back	Block1	2back/STIM_029.jpg	99
371.324	0.918	918.2	2back	Block1	2back/STIM_029.jpg	99
374.466	1.241	1241.3	2back	Block1	2back/STIM_029.jpg	100
378.577	0.988	987.7	2back	Block1	2back/STIM_030.jpg	100
382.689	1.639	1638.9	2back	Block1	2back/STIM_030.jpg	100
387.859	0.888	888.0	2back	Block1	2back/STIM_030.jpg	100
392.545	0.88	880.5	2back	Block1	2back/STIM_031.jpg	100
396.694	1.189	1189.4	2back	Block1	2back/STIM_031.jpg	99
400.525	0.918	917.8	2back	Block1	2back/STIM_031.jpg	99
404.845	0.873	872.8	2back	Block1	2back/STIM_032.jpg	99
408.839	0.734	733.5	2back	Block1	2back/STIM_032.jpg	100
411.778	1.454	1453.5	2back	Block1	2back/STIM_032.jpg	100
415.616	1.051	1050.8	2back	Block1	2back/STIM_033.jpg	99
419.487	1.507	1507.3	2back	Block1	2back/STIM_033.jpg	100
423.749	1.368	1368.1	2back	Block1	2back/STIM_033.jpg	99
429.004	0.94	940.5	2back	Block1	2back/STIM_034.jpg	100
432.657	1.635	1634.7	2back	Block1	2back/STIM_034.jpg	100
436.807	1.287	1286.9	2back	Block1	2back/STIM_034.jpg	99
440.934	1.027	1027.2	2back	Block1	2back/STIM_035.jpg	99
444.712	1.272	1272.3	2back	Block1	2back/STIM_035.jpg	99
448.426	1.141	1140.7	2back	Block1	2back/STIM_035.jpg	100
453.493	1.64	1640.0	2back	Block1	2back/STIM_036.jpg	100
457.508	0.778	777.8	2back	Block1	2back/STIM_036.jpg	100
462.218	0.939	939.1	2back	Block1	2back/STIM_036.jpg	100
465.996	1.503	1503.3	2back	Block1	2back/STIM_037.jpg	100
470.157	1.057	1057.0	2back	Block1	2back/STIM_037.jpg	100
474.249	1.068	1068.0	2back	Block1	2back/STIM_037.jpg	100
478.404	0.968	967.9	2back	Block1	2back/STIM_038.jpg	99
481.857	1.264	1264.1	2back	Block1	2back/STIM_038.jpg	100
485.445	0.906	906.0	2back	Block1	2back/STIM_038.jpg	100
489.844	1.488	1488.0	2back	Block1	2back/STIM_039.jpg	100
495.02	1.204	1204.0	2back	Block1	2back/STIM_039.jpg	100
499.209	1.56	1560.2	2back	Block1	2back/STIM_039.jpg	100
503.682	0.705	705.2	0back	Block1	0back/STIM_000.jpg	100
507.89	0.627	627.1	0back	Block1	0back/STIM_000.jpg	99
510.706	0.857	856.9	0back	Block1	0back/STIM_000.jpg	100
514.555	0.51	510.2	0back	Block1	0back/STIM_001.jpg	99
518.321	0.849	848.6	0back	Block1	0back/STIM_001.jpg	100
522.227	0.731	731.1	0back	Block1	0back/STIM_001.jpg	100
526.956	0.665	664.8	0back	Block1	0back/STIM_002.jpg	99
530.588	0.697	697.4	0back	Block1	0back/STIM_002.jpg	99
534.831	0.597	597.0	0back	Block1	0back/STIM_002.jpg	99
537.529	0.917	916.7	0back	Block1	0back/STIM_003.jpg	99
541.465	0.572	572.4	0back	Block1	0back/STIM_003.jpg	99
545.701	0.656	656.3	0back	Block1	0back/STIM_003.jpg	100
548.885	0.875	875.1	0back	Block1	0back/STIM_004.jpg	100
552.588	0.876	876.3	0back	Block1	0back/STIM_004.jpg	99
555.983	0.859	859.3	0back	Block1	0back/STIM_004.jpg	99
560.013	0.856	856.2	0back	Block1	0back/STIM_005.jpg	100
564.199	0.634	634.4	0back	Block1	0back/STIM_005.jpg	99
567.429	0.854	853.9	0back	Block1	0back/STIM_005.jpg	100
571.174	0.609	608.6	0back	Block1	0back/STIM_006.jpg	99
575.037	0.889	888.6	0back	Block1	0back/STIM_006.jpg	100
579.511	0.902	902.3	0back	Block1	0back/STIM_006.jpg	99
584.262	0.58	579.8	0back	Block1	0back/STIM_007.jpg	100
587.792	0.814	814.1	0back	Block1	0back/STIM_007.jpg	100
592.195	0.944	943.7	0back	Block1	0back/STIM_007.jpg	99
595.344	0.929	928.6	0back	Block1	0back/STIM_008.jpg	100
600.026	0.728	727.7	0back	Block1	0back/STIM_008.jpg	99
603.678	0.652	652.0	0back	Block1	0back/STIM_008.jpg	99
607.568	0.76	760.0	0back	Block1	0back/STIM_009.jpg	100
611.216	0.66	659.9	0back	Block1	0back/STIM_009.jpg	99
614.241	0.73	729.8	0back	Block1	0back/STIM_009.jpg	100
617.875	0.594	594.1	0back	Block1	0back/STIM_010.jpg	100
621.166	0.724	723.7	0back	Block1	0back/STIM_010.jpg	99
624.848	0.898	897.6	0back	Block1	0back/STIM_010.jpg	99
628.26	0.868	867.7	0back	Block1	0back/STIM_011.jpg	99
632.614	0.753	753.3	0back	Block1	0back/STIM_011.jpg	99
637.135	0.946	946.3	0back	Block1	0back/STIM_011.jpg	100
641.582	0.513	512.6	0back	Block1	0back/STIM_012.jpg	100
645.045	0.759	758.6	0back	Block1	0back/STIM_012.jpg	100
648.741	0.713	713.0	0back	Block1	0back/STIM_012.jpg	99
652.589	0.515	514.9	0back	Block1	0back/STIM_013.jpg	100
656.359	0.516	515.6	0back	Block1	0back/STIM_013.jpg	100
659.135	0.974	973.9	0back	Block1	0back/STIM_013.jpg	100
663.548	0.786	786.0	0back	Block1	0back/STIM_014.jpg	99
667.663	0.76	760.3	0back	Block1	0back/STIM_014.jpg	99
671.253	0.952	952.5	0back	Block1	0back/STIM_014.jpg	99
674.626	0.904	904.1	0back	Block1	0back/STIM_015.jpg	100
679.121	0.834	834.4	0back	Block1	0back/STIM_015.jpg	99
682.849	0.52	520.1	0back	Block1	0back/STIM_015.jpg	99
686.398	0.762	761.7	0back	Block1	0back/STIM_016.jpg	99
690.852	0.877	877.2	0back	Block1	0back/STIM_016.jpg	99
694.775	0.55	550.1	0back	Block1	0back/STIM_016.jpg	100
697.566	0.911	910.8	0back	Block1	0back/STIM_017.jpg	100
701.043	0.594	593.8	0back	Block1	0back/STIM_017.jpg	100
705.248	0.528	527.8	0back	Block1	0back/STIM_017.jpg	99
708.966	0.696	695.6	0back	Block1	0back/STIM_018.jpg	100
712.575	0.87	869.9	0back	Block1	0back/STIM_018.jpg	100
717.174	0.516	516.1	0back	Block1	0back/STIM_018.jpg	99
721.473	0.68	680.2	0back	Block1	0back/STIM_019.jpg	99
724.29	0.753	753.4	0back	Block1	0back/STIM_019.jpg	100
728.306	0.921	921.2	0back	Block1	0back/STIM_019.jpg	100
732.728	1.104	1104.2	2back	Block2	2back/STIM_000.jpg	99
737.054	1.173	1172.7	2back	Block2	2back/STIM_000.jpg	99
741.428	1.131	1130.6	2back	Block2	2back/STIM_000.jpg	99
745.288	1.416	1416.4	2back	Block2	2back/STIM_001.jpg	99
748.784	1.276	1275.6	2back	Block2	2back/STIM_001.jpg	99
753.535	1.305	1305.0	2back	Block2	2back/STIM_001.jpg	100
757.637	0.709	708.7	2back	Block2	2back/STIM_002.jpg	100
761.295	0.934	933.9	2back	Block2	2back/STIM_002.jpg	99
764.401	1.064	1063.5	2back	Block2	2back/STIM_002.jpg	100
768.478	0.697	697.1	2back	Block2	2back/STIM_003.jpg	100
771.216	1.183	1183.1	2back	Block2	2back/STIM_003.jpg	100
775.448	0.779	778.7	2back	Block2	2back/STIM_003.jpg	100
778.467	0.691	691.3	2back	Block2	2back/STIM_004.jpg	99
781.3	0.608	608.0	2back	Block2	2back/STIM_004.jpg	99
785.43	1.185	1184.6	2back	Block2	2back/STIM_004.jpg	99
789.385	1.198	1197.7	2back	Block2	2back/STIM_005.jpg	100
793.337	0.889	889.2	2back	Block2	2back/STIM_005.jpg	100
796.668	1.01	1010.2	2back	Block2	2back/STIM_005.jpg	99
799.938	1.432	1432.2	2back	Block2	2back/STIM_006.jpg	100
804.886	1.317	1317.4	2back	Block2	2back/STIM_006.jpg	100
809.997	1.09	1089.9	2back	Block2	2back/STIM_006.jpg	100
814.854	0.819	818.6	2back	Block2	2back/STIM_007.jpg	99
819.226	0.704	704.1	2back	Block2	2back/STIM_007.jpg	99
822.435	1.108	1108.5	2back	Block2	2back/STIM_007.jpg	99
827.537	1.046	1045.6	2back	Block2	2back/STIM_008.jpg	99
832.087	1.035	1035.0	2back	Block2	2back/STIM_008.jpg	99
835.164	0.58	580.1	2back	Block2	2back/STIM_008.jpg	99
838.575	1.201	1201.2	2back	Block2	2back/STIM_009.jpg	100
842.149	0.897	896.6	2back	Block2	2back/STIM_009.jpg	99
846.41	0.678	678.5	2back	Block2	2back/STIM_009.jpg	100
850.318	1.468	1467.6	2back	Block2	2back/STIM_010.jpg	99
854.583	1.136	1136.4	2back	Block2	2back/STIM_010.jpg	100
858.335	0.912	912.2	2back	Block2	2back/STIM_010.jpg	100
861.718	0.73	730.2	2back	Block2	2back/STIM_011.jpg	99
864.636	1.007	1007.1	2back	Block2	2back/STIM_011.jpg	100
868.095	1.055	1054.8	2back	Block2	2back/STIM_011.jpg	100
871.428	1.301	1301.2	2back	Block2	2back/STIM_012.jpg	100
876.194	1.031	1030.9	2back	Block2	2back/STIM_012.jpg	99
880.695	1.163	1163.3	2back	Block2	2back/STIM_012.jpg	100
884.572	1.136	1136.2	2back	Block2	2back/STIM_013.jpg	100
889.168	1.121	1120.7	2back	Block2	2back/STIM_013.jpg	100
894.014	0.664	664.3	2back	Block2	2back/STIM_013.jpg	99
896.737	0.828	828.1	2back	Block2	2back/STIM_014.jpg	99
899.888	0.756	755.7	2back	Block2	2back/STIM_014.jpg	99
903.86	1.193	1193.0	2back	Block2	2back/STIM_014.jpg	99
908.318	1.072	1072.0	2back	Block2	2back/STIM_015.jpg	100
912.755	0.9	900.3	2back	Block2	2back/STIM_015.jpg	99
915.99	0.67	670.5	2back	Block2	2back/STIM_015.jpg	99
920.019	1.059	1059.4	2back	Block2	2back/STIM_016.jpg	100
923.782	0.634	633.6	2back	Block2	2back/STIM_016.jpg	100
927.46	0.799	799.0	2back	Block2	2back/STIM_016.jpg	100
930.515	1.423	1422.8	2back	Block2	2back/STIM_017.jpg	99
934.275	1.174	1173.5	2back	Block2	2back/STIM_017.jpg	99
938.472	0.792	792.5	2back	Block2	2back/STIM_017.jpg	99
942.718	1.216	1215.5	2back	Block2	2back/STIM_018.jpg	100
947.807	1.031	1030.7	2back	Block2	2back/STIM_018.jpg	99
951.0	0.794	793.7	2back	Block2	2back/STIM_018.jpg	100
954.538	1.358	1357.5	2back	Block2	2back/STIM_019.jpg	100
958.628	0.876	875.7	2back	Block2	2back/STIM_019.jpg	99
961.746	1.104	1103.9	2back	Block2	2back/STIM_019.jpg	99
965.865	1.157	1156.7	2back	Block2	2back/STIM_020.jpg	99
969.674	0.896	896.1	2back	Block2	2back/STIM_020.jpg	100
974.062	0.7	699.5	2back	Block2	2back/STIM_020.jpg	99
978.425	1.035	1034.7	2back	Block2	2back/STIM_021.jpg	99
982.953	1.138	1137.6	2back	Block2	2back/STIM_021.jpg	100
987.17	0.888	888.0	2back	Block2	2back/STIM_021.jpg	99
990.888	0.779	779.1	2back	Block2	2back/STIM_022.jpg	100
995.163	1.146	1145.9	2back	Block2	2back/STIM_022.jpg	100
998.374	1.3	1300.1	2back	Block2	2back/STIM_022.jpg	100
1002.941	1.476	1476.4	2back	Block2	2back/STIM_023.jpg	100
1008.385	0.694	693.5	2back	Block2	2back/STIM_023.jpg	99
1012.03	0.902	902.0	2back	Block2	2back/STIM_023.jpg	100
1016.162	1.454	1453.6	2back	Block2	2back/STIM_024.jpg	99
1020.562	1.186	1185.7	2back	Block2	2back/STIM_024.jpg	99
1025.693	0.562	562.3	2back	Block2	2back/STIM_024.jpg	99
1028.5	1.361	1361.4	2back	Block2	2back/STIM_025.jpg	99
1032.081	0.826	826.5	2back	Block2	2back/STIM_025.jpg	99
1035.929	0.896	896.4	2back	Block2	2back/STIM_025.jpg	100
1039.853	1.132	1132.0	2back	Block2	2back/STIM_026.jpg	99
1044.518	0.751	751.1	2back	Block2	2back/STIM_026.jpg	99
1048.27	1.223	1223.0	2back	Block2	2back/STIM_026.jpg	99
1052.947	1.404	1404.4	2back	Block2	2back/STIM_027.jpg	100
1057.895	1.174	1174.2	2back	Block2	2back/STIM_027.jpg	100
1061.966	0.752	751.5	2back	Block2	2back/STIM_027.jpg	99
1066.079	0.73	729.6	2back	Block2	2back/STIM_028.jpg	99
1070.019	0.911	910.8	2back	Block2	2back/STIM_028.jpg	99
1074.717	1.235	1234.7	2back	Block2	2back/STIM_028.jpg	100
1078.744	1.349	1348.7	2back	Block2	2back/STIM_029.jpg	100
1083.531	1.303	1302.8	2back	Block2	2back/STIM_029.jpg	100
1087.923	0.664	664.5	2back	Block2	2back/STIM_029.jpg	99
1091.854	0.882	881.9	2back	Block2	2back/STIM_030.jpg	99
1095.982	0.779	778.6	2back	Block2	2back/STIM_030.jpg	100
1099.006	0.808	808.3	2back	Block2	2back/STIM_030.jpg	99
1102.945	0.859	859.1	2back	Block2	2back/STIM_031.jpg	100
1106.189	0.689	689.1	2back	Block2	2back/STIM_031.jpg	100
1109.34	0.721	721.3	2back	Block2	2back/STIM_031.jpg	100
1112.942	1.148	1148.0	2back	Block2	2back/STIM_032.jpg	100
1117.724	0.854	854.5	2back	Block2	2back/STIM_032.jpg	100
1120.847	0.59	589.7	2back	Block2	2back/STIM_032.jpg	100
1124.249	1.208	1208.4	2back	Block2	2back/STIM_033.jpg	100
1128.002	1.354	1354.2	2back	Block2	2back/STIM_033.jpg	100
1131.839	1.162	1162.4	2back	Block2	2back/STIM_033.jpg	99
1136.145	0.912	912.3	2back	Block2	2back/STIM_034.jpg	100
1140.76	1.128	1127.6	2back	Block2	2back/STIM_034.jpg	99
1145.631	0.835	835.1	2back	Block2	2back/STIM_034.jpg	99
1150.439	1.327	1327.3	2back	Block2	2back/STIM_035.jpg	100
1154.049	0.762	761.8	2back	Block2	2back/STIM_035.jpg	100
1158.487	0.972	972.0	2back	Block2	2back/STIM_035.jpg	99
1163.449	0.778	778.5	2back	Block2	2back/STIM_036.jpg	99
1167.916	0.856	856.5	2back	Block2	2back/STIM_036.jpg	100
1171.477	0.653	653.3	2back	Block2	2back/STIM_036.jpg	100
1175.392	0.908	908.2	2back	Block2	2back/STIM_037.jpg	99
1179.684	0.946	946.5	2back	Block2	2back/STIM_037.jpg	100
1183.941	0.749	748.8	2back	Block2	2back/STIM_037.jpg	99
1188.354	1.348	1348.4	2back	Block2	2back/STIM_038.jpg	99
1193.459	0.983	983.1	2back	Block2	2back/STIM_038.jpg	100
1197.191	0.695	695.1	2back	Block2	2back/STIM_038.jpg	99
1200.862	0.861	860.9	2back	Block2	2back/STIM_039.jpg	100
1205.192	1.314	1313.8	2back	Block2	2back/STIM_039.jpg	99
1210.15	0.654	653.7	2back	Block2	2back/STIM_039.jpg	100
1213.006	0.826	825.8	0back	Block2	0back/STIM_000.jpg	99
1217.74	0.711	711.0	0back	Block2	0back/STIM_000.jpg	99
1221.991	0.822	822.4	0back	Block2	0back/STIM_000.jpg	99
1226.534	0.923	922.6	0back	Block2	0back/STIM_001.jpg	100
1230.669	0.558	558.4	0back	Block2	0back/STIM_001.jpg	99
1235.169	0.596	595.9	0back	Block2	0back/STIM_001.jpg	100
1239.73	0.781	781.1	0back	Block2	0back/STIM_002.jpg	99
1242.73	0.784	784.3	0back	Block2	0back/STIM_002.jpg	100
1245.556	0.748	747.6	0back	Block2	0back/STIM_002.jpg	99
1249.114	0.97	970.2	0back	Block2	0back/STIM_003.jpg	100
1253.285	0.545	544.7	0back	Block2	0back/STIM_003.jpg	100
1256.175	0.575	574.9	0back	Block2	0back/STIM_003.jpg	99
1259.79	0.984	983.8	0back	Block2	0back/STIM_004.jpg	99
1264.226	0.618	618.1	0back	Block2	0back/STIM_004.jpg	100
1267.312	0.52	520.0	0back	Block2	0back/STIM_004.jpg	100
1270.585	0.922	921.7	0back	Block2	0back/STIM_005.jpg	100
1273.931	0.926	926.0	0back	Block2	0back/STIM_005.jpg	100
1278.68	0.674	673.8	0back	Block2	0back/STIM_005.jpg	99
1281.802	0.623	622.7	0back	Block2	0back/STIM_006.jpg	99
1285.402	0.578	578.2	0back	Block2	0back/STIM_006.jpg	100
1289.317	0.699	698.9	0back	Block2	0back/STIM_006.jpg	100
1292.359	0.622	622.5	0back	Block2	0back/STIM_007.jpg	99
1296.92	0.632	632.3	0back	Block2	0back/STIM_007.jpg	100
1299.614	0.919	919.0	0back	Block2	0back/STIM_007.jpg	99
1302.952	0.92	919.8	0back	Block2	0back/STIM_008.jpg	100
1307.685	0.591	590.9	0back	Block2	0back/STIM_008.jpg	100
1311.463	0.799	799.0	0back	Block2	0back/STIM_008.jpg	99
1315.922	0.65	650.5	0back	Block2	0back/STIM_009.jpg	99
1319.874	0.572	571.7	0back	Block2	0back/STIM_009.jpg	100
1322.495	0.846	846.0	0back	Block2	0back/STIM_009.jpg	100
1327.232	0.938	938.1	0back	Block2	0back/STIM_010.jpg	99
1331.489	0.931	931.2	0back	Block2	0back/STIM_010.jpg	100
1335.442	0.826	826.0	0back	Block2	0back/STIM_010.jpg	99
1338.394	0.774	774.2	0back	Block2	0back/STIM_011.jpg	100
1342.125	0.786	786.2	0back	Block2	0back/STIM_011.jpg	100
1346.014	0.596	595.9	0back	Block2	0back/STIM_011.jpg	100
1349.244	0.8	799.8	0back	Block2	0back/STIM_012.jpg	100
1353.048	0.94	940.3	0back	Block2	0back/STIM_012.jpg	99
1356.832	0.776	775.7	0back	Block2	0back/STIM_012.jpg	99
1360.482	0.953	952.7	0back	Block2	0back/STIM_013.jpg	100
1363.97	0.659	658.9	0back	Block2	0back/STIM_013.jpg	100
1367.423	0.794	793.9	0back	Block2	0back/STIM_013.jpg	100
1371.948	0.611	611.2	0back	Block2	0back/STIM_014.jpg	99
1375.597	0.816	816.2	0back	Block2	0back/STIM_014.jpg	99
1380.055	0.67	669.9	0back	Block2	0back/STIM_014.jpg	99
1383.731	0.882	881.9	0back	Block2	0back/STIM_015.jpg	100
1388.265	0.897	897.3	0back	Block2	0back/STIM_015.jpg	99
1392.237	0.913	913.1	0back	Block2	0back/STIM_015.jpg	99
1395.557	0.646	645.6	0back	Block2	0back/STIM_016.jpg	99
1400.152	0.862	861.9	0back	Block2	0back/STIM_016.jpg	99
1405.012	0.682	681.5	0back	Block2	0back/STIM_016.jpg	100
1409.391	0.725	725.0	0back	Block2	0back/STIM_017.jpg	99
1413.764	0.664	664.1	0back	Block2	0back/STIM_017.jpg	100
1417.859	0.928	928.3	0back	Block2	0back/STIM_017.jpg	99
1421.385	0.539	539.1	0back	Block2	0back/STIM_018.jpg	100
1424.8	0.852	851.9	0back	Block2	0back/STIM_018.jpg	100
1429.457	0.766	766.3	0back	Block2	0back/STIM_018.jpg	99
1433.539	0.848	847.6	0back	Block2	0back/STIM_019.jpg	100
1437.144	0.977	976.7	0back	Block2	0back/STIM_019.jpg	100
1441.796	0.587	586.7	0back	Block2	0back/STIM_019.jpg	100
1445.393	0.958	958.2	2back	Block3	2back/STIM_000.jpg	99
1448.635	0.76	760.0	2back	Block3	2back/STIM_000.jpg	100
1452.14	1.194	1194.5	2back	Block3	2back/STIM_000.jpg	99
1456.1	0.612	612.3	2back	Block3	2back/STIM_001.jpg	100
1460.516	0.876	875.6	2back	Block3	2back/STIM_001.jpg	100
1463.925	0.55	550.4	2back	Block3	2back/STIM_001.jpg	100
1467.203	0.792	792.4	2back	Block3	2back/STIM_002.jpg	99
1471.093	1.001	1000.6	2back	Block3	2back/STIM_002.jpg	100
1475.715	0.812	812.4	2back	Block3	2back/STIM_002.jpg	100
1479.413	0.668	668.0	2back	Block3	2back/STIM_003.jpg	100
1483.576	0.968	967.8	2back	Block3	2back/STIM_003.jpg	99
1487.163	1.141	1141.1	2back	Block3	2back/STIM_003.jpg	100
1491.937	1.03	1030.3	2back	Block3	2back/STIM_004.jpg	99
1496.693	0.889	888.7	2back	Block3	2back/STIM_004.jpg	99
1500.634	1.012	1012.2	2back	Block3	2back/STIM_004.jpg	99
1505.377	0.763	763.0	2back	Block3	2back/STIM_005.jpg	100
1508.817	1.084	1083.8	2back	Block3	2back/STIM_005.jpg	99
1512.519	1.041	1041.2	2back	Block3	2back/STIM_005.jpg	100
1515.579	0.581	580.6	2back	Block3	2back/STIM_006.jpg	100
1518.937	1.001	1000.7	2back	Block3	2back/STIM_006.jpg	99
1522.558	0.847	846.9	2back	Block3	2back/STIM_006.jpg	99
1526.442	1.188	1188.4	2back	Block3	2back/STIM_007.jpg	99
1529.922	0.703	703.3	2back	Block3	2back/STIM_007.jpg	99
1533.608	0.73	729.8	2back	Block3	2back/STIM_007.jpg	100
1537.671	0.755	755.2	2back	Block3	2back/STIM_008.jpg	100
1541.422	0.634	633.8	2back	Block3	2back/STIM_008.jpg	100
1544.672	0.893	893.1	2back	Block3	2back/STIM_008.jpg	99
1548.413	0.556	556.4	2back	Block3	2back/STIM_009.jpg	100
1552.14	1.177	1177.1	2back	Block3	2back/STIM_009.jpg	99
1555.413	0.582	582.5	2back	Block3	2back/STIM_009.jpg	99
1558.39	1.079	1079.0	2back	Block3	2back/STIM_010.jpg	100
1562.212	0.721	721.2	2back	Block3	2back/STIM_010.jpg	100
1565.502	0.699	698.7	2back	Block3	2back/STIM_010.jpg	99
1569.915	0.836	836.3	2back	Block3	2back/STIM_011.jpg	100
1572.762	0.887	887.3	2back	Block3	2back/STIM_011.jpg	100
1577.398	1.172	1171.6	2back	Block3	2back/STIM_011.jpg	99
1580.983	0.87	869.8	2back	Block3	2back/STIM_012.jpg	100
1584.118	0.619	618.9	2back	Block3	2back/STIM_012.jpg	100
1587.728	1.025	1024.6	2back	Block3	2back/STIM_012.jpg	100
1591.953	0.703	702.9	2back	Block3	2back/STIM_013.jpg	100
1594.729	1.01	1009.6	2back	Block3	2back/STIM_013.jpg	100
1598.103	0.807	806.6	2back	Block3	2back/STIM_013.jpg	99
1601.389	1.155	1154.9	2back	Block3	2back/STIM_014.jpg	99
1604.824	0.674	674.1	2back	Block3	2back/STIM_014.jpg	99
1609.02	0.83	829.8	2back	Block3	2back/STIM_014.jpg	99
1612.919	1.183	1182.7	2back	Block3	2back/STIM_015.jpg	100
1616.161	1.167	1166.6	2back	Block3	2back/STIM_015.jpg	99
1620.058	0.869	868.7	2back	Block3	2back/STIM_015.jpg	100
1624.19	1.064	1064.0	2back	Block3	2back/STIM_016.jpg	100
1628.996	1.13	1129.5	2back	Block3	2back/STIM_016.jpg	99
1633.991	0.559	559.2	2back	Block3	2back/STIM_016.jpg	100
1637.902	0.935	934.6	2back	Block3	2back/STIM_017.jpg	99
1642.692	1.194	1194.3	2back	Block3	2back/STIM_017.jpg	99
1647.197	0.75	750.1	2back	Block3	2back/STIM_017.jpg	100
1651.088	0.793	793.3	2back	Block3	2back/STIM_018.jpg	99
1654.76	0.558	558.4	2back	Block3	2back/STIM_018.jpg	99
1658.374	0.717	717.0	2back	Block3	2back/STIM_018.jpg	100
1661.741	1.031	1031.3	2back	Block3	2back/STIM_019.jpg	99
1665.026	1.012	1011.6	2back	Block3	2back/STIM_019.jpg	100
1669.362	0.847	847.4	2back	Block3	2back/STIM_019.jpg	99
1673.301	0.846	846.0	2back	Block3	2back/STIM_020.jpg	100
1677.835	0.63	629.5	2back	Block3	2back/STIM_020.jpg	99
1681.919	0.678	678.2	2back	Block3	2back/STIM_020.jpg	99
1685.1	1.14	1140.0	2back	Block3	2back/STIM_021.jpg	99
1689.938	0.878	878.0	2back	Block3	2back/STIM_021.jpg	100
1693.937	0.82	820.4	2back	Block3	2back/STIM_021.jpg	99
1698.398	1.155	1154.8	2back	Block3	2back/STIM_022.jpg	99
1702.325	0.841	841.3	2back	Block3	2back/STIM_022.jpg	100
1706.287	0.738	738.1	2back	Block3	2back/STIM_022.jpg	99
1710.689	0.852	852.3	2back	Block3	2back/STIM_023.jpg	99
1714.711	0.708	708.2	2back	Block3	2back/STIM_023.jpg	100
1718.924	0.593	592.8	2back	Block3	2back/STIM_023.jpg	99
1722.351	1.018	1018.5	2back	Block3	2back/STIM_024.jpg	100
1725.449	0.732	731.9	2back	Block3	2back/STIM_024.jpg	99
1730.162	1.009	1009.3	2back	Block3	2back/STIM_024.jpg	100
1734.477	1.009	1009.0	2back	Block3	2back/STIM_025.jpg	99
1737.742	0.93	929.6	2back	Block3	2back/STIM_025.jpg	99
1741.279	0.658	658.3	2back	Block3	2back/STIM_025.jpg	100
1744.765	0.552	551.5	2back	Block3	2back/STIM_026.jpg	100
1748.082	0.952	952.1	2back	Block3	2back/STIM_026.jpg	99
1752.535	0.916	916.2	2back	Block3	2back/STIM_026.jpg	100
1757.231	0.787	787.0	2back	Block3	2back/STIM_027.jpg	99
1760.665	0.888	888.3	2back	Block3	2back/STIM_027.jpg	99
1764.53	1.09	1089.6	2back	Block3	2back/STIM_027.jpg	99
1769.088	0.758	757.6	2back	Block3	2back/STIM_028.jpg	100
1772.532	0.772	772.1	2back	Block3	2back/STIM_028.jpg	99
1776.261	1.085	1084.6	2back	Block3	2back/STIM_028.jpg	99
1780.506	0.749	749.4	2back	Block3	2back/STIM_029.jpg	100
1783.902	0.591	591.1	2back	Block3	2back/STIM_029.jpg	100
1787.269	0.808	808.3	2back	Block3	2back/STIM_029.jpg	100
1791.972	0.607	607.1	2back	Block3	2back/STIM_030.jpg	100
1795.612	0.95	949.5	2back	Block3	2back/STIM_030.jpg	99
1799.883	0.82	819.5	2back	Block3	2back/STIM_030.jpg	99
1804.481	0.765	764.7	2back	Block3	2back/STIM_031.jpg	100
1807.462	0.886	886.3	2back	Block3	2back/STIM_031.jpg	100
1812.086	1.168	1168.3	2back	Block3	2back/STIM_031.jpg	100
1817.252	1.082	1082.3	2back	Block3	2back/STIM_032.jpg	100
1821.741	1.149	1148.9	2back	Block3	2back/STIM_032.jpg	99
1825.559	0.588	587.5	2back	Block3	2back/STIM_032.jpg	99
1829.506	0.73	729.8	2back	Block3	2back/STIM_033.jpg	99
1832.6	0.708	708.2	2back	Block3	2back/STIM_033.jpg	100
1836.749	0.693	692.6	2back	Block3	2back/STIM_033.jpg	99
1839.947	0.548	548.5	2back	Block3	2back/STIM_034.jpg	99
1844.234	0.883	882.8	2back	Block3	2back/STIM_034.jpg	100
1847.637	1.116	1116.3	2back	Block3	2back/STIM_034.jpg	100
1850.948	1.039	1038.7	2back	Block3	2back/STIM_035.jpg	100
1854.219	0.662	662.0	2back	Block3	2back/STIM_035.jpg	100
1858.871	0.904	903.9	2back	Block3	2back/STIM_035.jpg	99
1862.547	0.971	970.9	2back	Block3	2back/STIM_036.jpg	99
1867.112	0.578	578.5	2back	Block3	2back/STIM_036.jpg	100
1870.517	0.83	830.5	2back	Block3	2back/STIM_036.jpg	100
1874.739	1.224	1223.5	2back	Block3	2back/STIM_037.jpg	100
1879.195	1.0	999.8	2back	Block3	2back/STIM_037.jpg	99
1883.09	0.551	550.7	2back	Block3	2back/STIM_037.jpg	99
1885.657	0.594	594.3	2back	Block3	2back/STIM_038.jpg	100
1889.319	0.752	752.3	2back	Block3	2back/STIM_038.jpg	99
1892.82	1.15	1150.4	2back	Block3	2back/STIM_038.jpg	100
1897.267	0.591	591.2	2back	Block3	2back/STIM_039.jpg	100
1901.043	1.094	1093.7	2back	Block3	2back/STIM_039.jpg	99
1904.881	0.802	802.0	2back	Block3	2back/STIM_039.jpg	100
1909.363	0.543	543.3	0back	Block3	0back/STIM_000.jpg	100
1913.534	0.649	648.9	0back	Block3	0back/STIM_000.jpg	99
1918.138	0.772	772.4	0back	Block3	0back/STIM_000.jpg	99
1922.159	0.527	527.4	0back	Block3	0back/STIM_001.jpg	99
1925.712	0.826	826.1	0back	Block3	0back/STIM_001.jpg	100
1929.633	0.561	561.3	0back	Block3	0back/STIM_001.jpg	99
1934.016	0.646	645.6	0back	Block3	0back/STIM_002.jpg	99
1937.692	0.641	640.6	0back	Block3	0back/STIM_002.jpg	99
1942.212	0.956	955.7	0back	Block3	0back/STIM_002.jpg	99
1946.158	0.736	736.2	0back	Block3	0back/STIM_003.jpg	99
1949.345	0.514	514.1	0back	Block3	0back/STIM_003.jpg	100
1953.044	0.674	673.9	0back	Block3	0back/STIM_003.jpg	99
1957.498	0.577	577.0	0back	Block3	0back/STIM_004.jpg	100
1960.476	0.83	830.0	0back	Block3	0back/STIM_004.jpg	99
1964.631	0.91	909.7	0back	Block3	0back/STIM_004.jpg	100
1967.799	0.952	951.9	0back	Block3	0back/STIM_005.jpg	99
1971.095	0.972	972.0	0back	Block3	0back/STIM_005.jpg	99
1974.232	0.949	948.8	0back	Block3	0back/STIM_005.jpg	99
1978.485	0.625	625.3	0back	Block3	0back/STIM_006.jpg	99
1981.912	0.867	866.8	0back	Block3	0back/STIM_006.jpg	100
1986.262	0.814	813.5	0back	Block3	0back/STIM_006.jpg	100
1990.624	0.552	552.1	0back	Block3	0back/STIM_007.jpg	99
1993.588	0.875	875.1	0back	Block3	0back/STIM_007.jpg	99
1997.43	0.766	766.2	0back	Block3	0back/STIM_007.jpg	99
2001.397	0.885	884.7	0back	Block3	0back/STIM_008.jpg	99
2006.265	0.93	929.5	0back	Block3	0back/STIM_008.jpg	100
2010.26	0.848	848.3	0back	Block3	0back/STIM_008.jpg	100
2013.862	0.637	636.7	0back	Block3	0back/STIM_009.jpg	99
2017.886	0.968	967.6	0back	Block3	0back/STIM_009.jpg	100
2022.441	0.928	928.3	0back	Block3	0back/STIM_009.jpg	100
2026.973	0.852	852.4	0back	Block3	0back/STIM_010.jpg	100
2031.302	0.879	879.1	0back	Block3	0back/STIM_010.jpg	99
2035.052	0.772	772.4	0back	Block3	0back/STIM_010.jpg	100
2038.963	0.909	908.9	0back	Block3	0back/STIM_011.jpg	100
2042.937	0.95	950.0	0back	Block3	0back/STIM_011.jpg	99
2047.449	0.82	820.2	0back	Block3	0back/STIM_011.jpg	99
2052.021	0.718	718.5	0back	Block3	0back/STIM_012.jpg	99
2055.104	0.752	752.2	0back	Block3	0back/STIM_012.jpg	100
2058.775	0.743	742.9	0back	Block3	0back/STIM_012.jpg	99
2063.138	0.905	904.6	0back	Block3	0back/STIM_013.jpg	99
2068.021	0.687	686.9	0back	Block3	0back/STIM_013.jpg	99
2071.5	0.995	994.8	0back	Block3	0back/STIM_013.jpg	100
2076.234	0.706	706.1	0back	Block3	0back/STIM_014.jpg	99
2079.051	0.915	914.7	0back	Block3	0back/STIM_014.jpg	100
2083.541	0.864	864.4	0back	Block3	0back/STIM_014.jpg	99
2087.427	0.567	566.7	0back	Block3	0back/STIM_015.jpg	99
2090.511	0.703	702.7	0back	Block3	0back/STIM_015.jpg	99
2094.614	0.584	584.5	0back	Block3	0back/STIM_015.jpg	99
2098.72	0.647	647.1	0back	Block3	0back/STIM_016.jpg	99
2102.647	0.547	547.4	0back	Block3	0back/STIM_016.jpg	99
2106.888	0.638	638.5	0back	Block3	0back/STIM_016.jpg	100
2110.585	0.698	697.5	0back	Block3	0back/STIM_017.jpg	100
2114.712	0.688	687.6	0back	Block3	0back/STIM_017.jpg	99
2119.196	0.701	701.3	0back	Block3	0back/STIM_017.jpg	99
2123.803	0.857	856.7	0back	Block3	0back/STIM_018.jpg	99
2127.244	0.728	728.4	0back	Block3	0back/STIM_018.jpg	99
2131.094	0.732	732.3	0back	Block3	0back/STIM_018.jpg	99
2134.686	0.708	707.7	0back	Block3	0back/STIM_019.jpg	100
2137.489	0.694	693.6	0back	Block3	0back/STIM_019.jpg	99
2140.295	0.527	526.6	0back	Block3	0back/STIM_019.jpg	99
2143.777	1.033	1032.8	2back	Block4	2back/STIM_000.jpg	100
2147.414	0.975	974.9	2back	Block4	2back/STIM_000.jpg	100
2150.626	1.212	1212.4	2back	Block4	2back/STIM_000.jpg	99
2154.558	0.537	536.9	2back	Block4	2back/STIM_001.jpg	99
2158.113	0.906	905.7	2back	Block4	2back/STIM_001.jpg	99
2161.348	0.764	763.6	2back	Block4	2back/STIM_001.jpg	100
2165.058	0.905	905.4	2back	Block4	2back/STIM_002.jpg	99
2168.872	0.885	884.9	2back	Block4	2back/STIM_002.jpg	99
2172.073	1.136	1135.6	2back	Block4	2back/STIM_002.jpg	99
2176.16	0.711	710.8	2back	Block4	2back/STIM_003.jpg	99
2180.537	0.856	855.8	2back	Block4	2back/STIM_003.jpg	99
2184.659	0.527	526.8	2back	Block4	2back/STIM_003.jpg	100
2188.858	1.21	1209.5	2back	Block4	2back/STIM_004.jpg	99
2193.981	0.621	621.2	2back	Block4	2back/STIM_004.jpg	99
2197.929	0.766	766.2	2back	Block4	2back/STIM_004.jpg	99
2201.239	1.12	1119.7	2back	Block4	2back/STIM_005.jpg	100
2205.971	0.824	824.3	2back	Block4	2back/STIM_005.jpg	100
2209.892	1.124	1124.3	2back	Block4	2back/STIM_005.jpg	99
2213.091	0.613	613.1	2back	Block4	2back/STIM_006.jpg	100
2216.794	0.964	963.5	2back	Block4	2back/STIM_006.jpg	99
2220.221	0.79	790.3	2back	Block4	2back/STIM_006.jpg	100
2223.443	0.927	926.7	2back	Block4	2back/STIM_007.jpg	100
2227.008	1.002	1001.7	2back	Block4	2back/STIM_007.jpg	99
2231.392	0.766	765.7	2back	Block4	2back/STIM_007.jpg	100
2236.071	1.029	1028.9	2back	Block4	2back/STIM_008.jpg	100
2239.95	1.016	1016.0	2back	Block4	2back/STIM_008.jpg	99
2243.561	1.082	1081.5	2back	Block4	2back/STIM_008.jpg	99
2248.136	0.61	610.0	2back	Block4	2back/STIM_009.jpg	99
2251.516	0.914	913.7	2back	Block4	2back/STIM_009.jpg	99
2255.541	0.982	981.9	2back	Block4	2back/STIM_009.jpg	100
2259.349	0.649	649.0	2back	Block4	2back/STIM_010.jpg	100
2262.715	1.013	1013.3	2back	Block4	2back/STIM_010.jpg	99
2267.405	1.075	1074.9	2back	Block4	2back/STIM_010.jpg	100
2272.286	0.567	566.6	2back	Block4	2back/STIM_011.jpg	100
2276.141	0.747	747.2	2back	Block4	2back/STIM_011.jpg	100
2279.486	0.612	612.0	2back	Block4	2back/STIM_011.jpg	99
2282.376	0.875	875.3	2back	Block4	2back/STIM_012.jpg	100
2285.509	0.622	621.9	2back	Block4	2back/STIM_012.jpg	99
2289.022	0.837	837.0	2back	Block4	2back/STIM_012.jpg	99
2293.804	0.63	630.1	2back	Block4	2back/STIM_013.jpg	99
2297.389	0.7	699.6	2back	Block4	2back/STIM_013.jpg	99
2301.273	0.817	816.7	2back	Block4	2back/STIM_013.jpg	100
2306.012	0.581	581.4	2back	Block4	2back/STIM_014.jpg	99
2309.225	1.066	1065.7	2back	Block4	2back/STIM_014.jpg	100
2312.57	0.702	701.9	2back	Block4	2back/STIM_014.jpg	99
2317.106	1.109	1108.7	2back	Block4	2back/STIM_015.jpg	99
2321.825	0.668	668.1	2back	Block4	2back/STIM_015.jpg	99
2324.543	1.026	1026.5	2back	Block4	2back/STIM_015.jpg	100
2329.336	0.927	926.6	2back	Block4	2back/STIM_016.jpg	99
2333.929	0.604	604.5	2back	Block4	2back/STIM_016.jpg	100
2337.5	0.933	933.1	2back	Block4	2back/STIM_016.jpg	99
2342.063	1.175	1174.9	2back	Block4	2back/STIM_017.jpg	99
2346.794	0.984	984.3	2back	Block4	2back/STIM_017.jpg	100
2350.014	0.614	614.3	2back	Block4	2back/STIM_017.jpg	100
2352.886	0.825	824.6	2back	Block4	2back/STIM_018.jpg	100
2357.143	1.015	1015.2	2back	Block4	2back/STIM_018.jpg	100
2360.397	0.813	813.4	2back	Block4	2back/STIM_018.jpg	100
2363.242	1.172	1171.9	2back	Block4	2back/STIM_019.jpg	99
2368.066	0.932	932.2	2back	Block4	2back/STIM_019.jpg	99
2371.517	0.883	882.6	2back	Block4	2back/STIM_019.jpg	99
2375.596	0.785	785.4	2back	Block4	2back/STIM_020.jpg	100
2378.648	0.671	670.6	2back	Block4	2back/STIM_020.jpg	100
2382.991	0.686	686.0	2back	Block4	2back/STIM_020.jpg	99
2386.387	0.758	757.6	2back	Block4	2back/STIM_021.jpg	99
2390.62	0.703	703.4	2back	Block4	2back/STIM_021.jpg	99
2394.345	0.639	639.3	2back	Block4	2back/STIM_021.jpg	99
2397.637	0.765	764.6	2back	Block4	2back/STIM_022.jpg	100
2401.721	0.975	974.9	2back	Block4	2back/STIM_022.jpg	99
2405.731	0.906	906.3	2back	Block4	2back/STIM_022.jpg	100
2410.486	0.68	680.4	2back	Block4	2back/STIM_023.jpg	100
2414.537	0.94	939.9	2back	Block4	2back/STIM_023.jpg	100
2417.518	0.774	774.4	2back	Block4	2back/STIM_023.jpg	99
2420.925	0.617	617.1	2back	Block4	2back/STIM_024.jpg	99
2425.253	1.03	1029.5	2back	Block4	2back/STIM_024.jpg	99
2430.237	0.986	986.2	2back	Block4	2back/STIM_024.jpg	100
2434.619	0.94	940.2	2back	Block4	2back/STIM_025.jpg	99
2438.231	0.861	860.9	2back	Block4	2back/STIM_025.jpg	100
2441.428	0.819	818.6	2back	Block4	2back/STIM_025.jpg	99
2445.871	0.569	569.3	2back	Block4	2back/STIM_026.jpg	100
2450.334	0.721	720.7	2back	Block4	2back/STIM_026.jpg	100
2454.659	0.89	889.9	2back	Block4	2back/STIM_026.jpg	100
2458.064	1.082	1082.0	2back	Block4	2back/STIM_027.jpg	100
2462.46	0.8	800.1	2back	Block4	2back/STIM_027.jpg	100
2466.59	0.601	601.3	2back	Block4	2back/STIM_027.jpg	99
2470.504	0.85	850.1	2back	Block4	2back/STIM_028.jpg	99
2473.645	0.593	593.3	2back	Block4	2back/STIM_028.jpg	100
2476.934	0.782	782.3	2back	Block4	2back/STIM_028.jpg	100
2480.281	0.822	821.6	2back	Block4	2back/STIM_029.jpg	99
2483.976	1.16	1160.0	2back	Block4	2back/STIM_029.jpg	100
2487.231	0.71	709.9	2back	Block4	2back/STIM_029.jpg	99
2491.652	1.211	1211.3	2back	Block4	2back/STIM_030.jpg	99
2495.979	0.806	805.9	2back	Block4	2back/STIM_030.jpg	99
2499.815	1.012	1012.5	2back	Block4	2back/STIM_030.jpg	99
2503.703	0.672	672.4	2back	Block4	2back/STIM_031.jpg	99
2506.657	0.833	832.7	2back	Block4	2back/STIM_031.jpg	99
2511.23	1.061	1061.0	2back	Block4	2back/STIM_031.jpg	99
2516.022	0.765	765.2	2back	Block4	2back/STIM_032.jpg	100
2518.957	0.547	546.9	2back	Block4	2back/STIM_032.jpg	99
2522.151	0.88	879.8	2back	Block4	2back/STIM_032.jpg	99
2525.88	0.548	547.9	2back	Block4	2back/STIM_033.jpg	99
2530.291	0.788	788.3	2back	Block4	2back/STIM_033.jpg	100
2533.689	1.053	1053.1	2back	Block4	2back/STIM_033.jpg	99
2538.156	1.174	1174.0	2back	Block4	2back/STIM_034.jpg	100
2542.142	0.662	661.9	2back	Block4	2back/STIM_034.jpg	100
2545.568	0.627	626.7	2back	Block4	2back/STIM_034.jpg	100
2549.707	1.179	1179.4	2back	Block4	2back/STIM_035.jpg	100
2554.257	1.061	1061.1	2back	Block4	2back/STIM_035.jpg	99
2558.842	0.717	717.3	2back	Block4	2back/STIM_035.jpg	100
2562.055	1.069	1068.8	2back	Block4	2back/STIM_036.jpg	100
2567.023	0.924	924.2	2back	Block4	2back/STIM_036.jpg	100
2570.477	0.528	527.7	2back	Block4	2back/STIM_036.jpg	99
2574.99	0.991	990.7	2back	Block4	2back/STIM_037.jpg	99
2579.896	0.695	695.1	2back	Block4	2back/STIM_037.jpg	100
2583.897	1.042	1041.5	2back	Block4	2back/STIM_037.jpg	99
2588.239	0.665	665.2	2back	Block4	2back/STIM_038.jpg	100
2591.461	0.868	868.1	2back	Block4	2back/STIM_038.jpg	99
2594.727	1.156	1156.0	2back	Block4	2back/STIM_038.jpg	99
2599.14	0.77	769.5	2back	Block4	2back/STIM_039.jpg	99
2602.25	1.196	1196.0	2back	Block4	2back/STIM_039.jpg	99
2606.067	0.898	898.0	2back	Block4	2back/STIM_039.jpg	99
2610.06	0.776	775.9	0back	Block4	0back/STIM_000.jpg	99
2614.041	0.993	992.7	0back	Block4	0back/STIM_000.jpg	100
2617.469	0.677	677.2	0back	Block4	0back/STIM_000.jpg	99
2620.579	0.546	545.7	0back	Block4	0back/STIM_001.jpg	100
2623.777	0.901	900.8	0back	Block4	0back/STIM_001.jpg	99
2628.543	0.808	807.7	0back	Block4	0back/STIM_001.jpg	100
2632.94	0.796	796.4	0back	Block4	0back/STIM_002.jpg	99
2637.256	0.717	716.6	0back	Block4	0back/STIM_002.jpg	99
2640.628	0.696	696.5	0back	Block4	0back/STIM_002.jpg	99
2645.016	0.622	622.1	0back	Block4	0back/STIM_003.jpg	99
2647.871	0.728	727.9	0back	Block4	0back/STIM_003.jpg	99
2650.717	0.995	995.2	0back	Block4	0back/STIM_003.jpg	100
2655.08	0.838	837.6	0back	Block4	0back/STIM_004.jpg	100
2658.331	0.784	784.5	0back	Block4	0back/STIM_004.jpg	99
2661.275	0.979	978.7	0back	Block4	0back/STIM_004.jpg	100
2665.877	0.51	510.5	0back	Block4	0back/STIM_005.jpg	99
2668.483	0.773	773.3	0back	Block4	0back/STIM_005.jpg	100
2671.55	0.533	533.4	0back	Block4	0back/STIM_005.jpg	99
2674.675	0.54	539.5	0back	Block4	0back/STIM_006.jpg	100
2677.754	0.719	718.7	0back	Block4	0back/STIM_006.jpg	100
2680.749	0.849	848.6	0back	Block4	0back/STIM_006.jpg	99
2685.222	0.599	599.0	0back	Block4	0back/STIM_007.jpg	100
2688.002	0.848	847.9	0back	Block4	0back/STIM_007.jpg	100
2692.547	0.767	767.3	0back	Block4	0back/STIM_007.jpg	100
2696.578	0.545	544.8	0back	Block4	0back/STIM_008.jpg	100
2700.234	0.673	673.1	0back	Block4	0back/STIM_008.jpg	100
2704.136	0.976	976.5	0back	Block4	0back/STIM_008.jpg	100
2708.205	0.648	648.2	0back	Block4	0back/STIM_009.jpg	100
2711.821	0.982	982.5	0back	Block4	0back/STIM_009.jpg	100
2714.815	0.561	561.3	0back	Block4	0back/STIM_009.jpg	99
2718.248	0.858	857.7	0back	Block4	0back/STIM_010.jpg	100
2722.72	0.902	902.4	0back	Block4	0back/STIM_010.jpg	100
2726.16	0.911	911.2	0back	Block4	0back/STIM_010.jpg	100
2730.313	0.568	567.8	0back	Block4	0back/STIM_011.jpg	100
2734.026	0.941	940.9	0back	Block4	0back/STIM_011.jpg	100
2738.605	0.828	827.6	0back	Block4	0back/STIM_011.jpg	99
2743.097	0.806	806.2	0back	Block4	0back/STIM_012.jpg	100
2747.274	0.763	763.0	0back	Block4	0back/STIM_012.jpg	99
2750.947	0.82	820.4	0back	Block4	0back/STIM_012.jpg	100
2753.829	0.682	681.8	0back	Block4	0back/STIM_013.jpg	100
2756.977	0.86	859.5	0back	Block4	0back/STIM_013.jpg	100
2759.914	0.81	809.8	0back	Block4	0back/STIM_013.jpg	100
2764.135	0.552	552.5	0back	Block4	0back/STIM_014.jpg	99
2767.884	0.572	571.5	0back	Block4	0back/STIM_014.jpg	99
2771.527	0.86	859.9	0back	Block4	0back/STIM_014.jpg	99
2775.221	0.586	585.9	0back	Block4	0back/STIM_015.jpg	99
2778.752	0.842	841.5	0back	Block4	0back/STIM_015.jpg	99
2782.197	0.925	924.8	0back	Block4	0back/STIM_015.jpg	99
2785.621	0.756	756.0	0back	Block4	0back/STIM_016.jpg	100
2789.395	0.874	873.8	0back	Block4	0back/STIM_016.jpg	100
2794.205	0.804	803.7	0back	Block4	0back/STIM_016.jpg	100
2798.105	0.588	588.5	0back	Block4	0back/STIM_017.jpg	99
2800.798	0.508	508.4	0back	Block4	0back/STIM_017.jpg	100
2804.731	0.924	923.8	0back	Block4	0back/STIM_017.jpg	100
2807.883	0.992	992.4	0back	Block4	0back/STIM_018.jpg	99
2811.625	0.649	649.0	0back	Block4	0back/STIM_018.jpg	99
2814.843	0.724	724.2	0back	Block4	0back/STIM_018.jpg	100
2818.936	0.575	575.4	0back	Block4	0back/STIM_019.jpg	99
2823.462	0.751	751.0	0back	Block4	0back/STIM_019.jpg	100
2826.658	0.717	717.4	0back	Block4	0back/STIM_019.jpg	99
