onset	duration	accuracy_binary	trial_type	learning_stage	stimulus
0.0	0.695	1	2back	Block1	2back/STIM_000.jpg
4.197	1.273	0	2back	Block1	2back/STIM_000.jpg
7.967	0.94	1	2back	Block1	2back/STIM_000.jpg
12.487	1.251	1	2back	Block1	2back/STIM_001.jpg
16.925	1.006	1	2back	Block1	2back/STIM_001.jpg
19.981	0.791	1	2back	Block1	2back/STIM_001.jpg
24.385	0.621	1	2back	Block1	2back/STIM_002.jpg
28.296	0.818	1	2back	Block1	2back/STIM_002.jpg
32.783	0.937	0	2back	Block1	2back/STIM_002.jpg
36.53	1.12	1	2back	Block1	2back/STIM_003.jpg
41.506	0.698	1	2back	Block1	2back/STIM_003.jpg
44.743	1.044	1	2back	Block1	2back/STIM_003.jpg
49.146	0.762	0	2back	Block1	2back/STIM_004.jpg
52.161	1.098	1	2back	Block1	2back/STIM_004.jpg
57.146	0.886	1	2back	Block1	2back/STIM_004.jpg
61.402	0.654	1	2back	Block1	2back/STIM_005.jpg
65.942	1.173	1	2back	Block1	2back/STIM_005.jpg
69.524	0.774	1	2back	Block1	2back/STIM_005.jpg
73.84	1.095	1	2back	Block1	2back/STIM_006.jpg
78.083	0.594	1	2back	Block1	2back/STIM_006.jpg
82.6	1.146	1	2back	Block1	2back/STIM_006.jpg
86.63	0.595	1	2back	Block1	2back/STIM_007.jpg
90.51	0.86	1	2back	Block1	2back/STIM_007.jpg
93.992	0.593	1	2back	Block1	2back/STIM_007.jpg
97.118	0.854	1	2back	Block1	2back/STIM_008.jpg
101.434	0.915	0	2back	Block1	2back/STIM_008.jpg
105.011	1.218	1	2back	Block1	2back/STIM_008.jpg
108.938	0.807	1	2back	Block1	2back/STIM_009.jpg
112.989	1.14	1	2back	Block1	2back/STIM_009.jpg
116.324	0.783	0	2back	Block1	2back/STIM_009.jpg
120.627	0.748	0	2back	Block1	2back/STIM_010.jpg
123.928	0.861	1	2back	Block1	2back/STIM_010.jpg
126.995	1.112	1	2back	Block1	2back/STIM_010.jpg
130.958	1.152	1	2back	Block1	2back/STIM_011.jpg
134.426	1.07	1	2back	Block1	2back/STIM_011.jpg
139.033	0.916	1	2back	Block1	2back/STIM_011.jpg
142.19	1.015	1	2back	Block1	2back/STIM_012.jpg
146.876	1.179	1	2back	Block1	2back/STIM_012.jpg
150.568	0.657	0	2back	Block1	2back/STIM_012.jpg
154.811	1.215	1	2back	Block1	2back/STIM_013.jpg
158.77	1.218	1	2back	Block1	2back/STIM_013.jpg
163.172	1.09	1	2back	Block1	2back/STIM_013.jpg
167.606	0.874	1	2back	Block1	2back/STIM_014.jpg
172.19	1.193	1	2back	Block1	2back/STIM_014.jpg
175.434	0.888	1	2back	Block1	2back/STIM_014.jpg
179.474	0.954	1	2back	Block1	2back/STIM_015.jpg
184.391	0.646	0	2back	Block1	2back/STIM_015.jpg
187.684	1.144	1	2back	Block1	2back/STIM_015.jpg
192.639	0.673	1	2back	Block1	2back/STIM_016.jpg
195.37	1.165	1	2back	Block1	2back/STIM_016.jpg
200.009	0.942	1	2back	Block1	2back/STIM_016.jpg
204.349	0.75	0	2back	Block1	2back/STIM_017.jpg
207.233	1.178	1	2back	Block1	2back/STIM_017.jpg
211.66	0.801	1	2back	Block1	2back/STIM_017.jpg
216.396	1.245	1	2back	Block1	2back/STIM_018.jpg
221.147	0.659	1	2back	Block1	2back/STIM_018.jpg
224.982	1.115	1	2back	Block1	2back/STIM_018.jpg
228.275	1.133	1	2back	Block1	2back/STIM_019.jpg
232.101	0.75	1	2back	Block1	2back/STIM_019.jpg
236.235	0.548	1	2back	Block1	2back/STIM_019.jpg
240.633	0.894	1	2back	Block1	2back/STIM_020.jpg
244.92	0.85	1	2back	Block1	2back/STIM_020.jpg
248.887	1.006	0	2back	Block1	2back/STIM_020.jpg
252.193	1.157	1	2back	Block1	2back/STIM_021.jpg
256.878	0.853	1	2back	Block1	2back/STIM_021.jpg
260.674	0.865	1	2back	Block1	2back/STIM_021.jpg
264.509	0.858	1	2back	Block1	2back/STIM_022.jpg
268.64	0.664	0	2back	Block1	2back/STIM_022.jpg
272.478	0.526	1	2back	Block1	2back/STIM_022.jpg
275.85	0.709	1	2back	Block1	2back/STIM_023.jpg
279.807	1.058	1	2back	Block1	2back/STIM_023.jpg
284.627	0.836	1	2back	Block1	2back/STIM_023.jpg
288.733	1.108	1	2back	Block1	2back/STIM_024.jpg
293.049	0.889	1	2back	Block1	2back/STIM_024.jpg
297.006	0.905	1	2back	Block1	2back/STIM_024.jpg
300.43	0.814	1	2back	Block1	2back/STIM_025.jpg
303.316	0.702	1	2back	Block1	2back/STIM_025.jpg
307.917	0.616	1	2back	Block1	2back/STIM_025.jpg
311.018	0.964	1	2back	Block1	2back/STIM_026.jpg
315.155	0.729	1	2back	Block1	2back/STIM_026.jpg
318.455	0.962	0	2back	Block1	2back/STIM_026.jpg
323.123	0.956	1	2back	Block1	2back/STIM_027.jpg
327.741	0.604	1	2back	Block1	2back/STIM_027.jpg
330.74	1.079	1	2back	Block1	2back/STIM_027.jpg
335.262	0.649	0	2back	Block1	2back/STIM_028.jpg
339.756	1.263	1	2back	Block1	2back/STIM_028.jpg
344.054	0.85	1	2back	Block1	2back/STIM_028.jpg
347.445	1.245	1	2back	Block1	2back/STIM_029.jpg
351.801	0.726	0	2back	Block1	2back/STIM_029.jpg
355.626	0.577	1	2back	Block1	2back/STIM_029.jpg
359.465	0.802	1	2back	Block1	2back/STIM_030.jpg
363.684	1.187	1	2back	Block1	2back/STIM_030.jpg
367.138	0.582	1	2back	Block1	2back/STIM_030.jpg
370.558	0.722	1	2back	Block1	2back/STIM_031.jpg
373.631	0.748	1	2back	Block1	2back/STIM_031.jpg
377.095	0.765	1	2back	Block1	2back/STIM_031.jpg
381.41	0.932	0	2back	Block1	2back/STIM_032.jpg
386.19	0.918	1	2back	Block1	2back/STIM_032.jpg
390.372	0.564	1	2back	Block1	2back/STIM_032.jpg
394.296	1.355	1	2back	Block1	2back/STIM_033.jpg
399.093	1.167	1	2back	Block1	2back/STIM_033.jpg
402.352	0.615	1	2back	Block1	2back/STIM_033.jpg
406.631	1.052	1	2back	Block1	2back/STIM_034.jpg
411.655	0.831	1	2back	Block1	2back/STIM_034.jpg
414.935	1.135	1	2back	Block1	2back/STIM_034.jpg
418.406	1.152	1	2back	Block1	2back/STIM_035.jpg
422.839	1.217	1	2back	Block1	2back/STIM_035.jpg
426.933	0.863	1	2back	Block1	2back/STIM_035.jpg
431.513	1.331	1	2back	Block1	2back/STIM_036.jpg
436.282	0.642	1	2back	Block1	2back/STIM_036.jpg
440.872	1.048	0	2back	Block1	2back/STIM_036.jpg
444.815	1.313	1	2back	Block1	2back/STIM_037.jpg
449.109	1.128	0	2back	Block1	2back/STIM_037.jpg
453.288	0.563	1	2back	Block1	2back/STIM_037.jpg
455.88	0.896	1	2back	Block1	2back/STIM_038.jpg
460.324	0.811	0	2back	Block1	2back/STIM_038.jpg
464.745	0.681	1	2back	Block1	2back/STIM_038.jpg
467.931	0.84	0	2back	Block1	2back/STIM_039.jpg
471.55	0.89	1	2back	Block1	2back/STIM_039.jpg
474.581	0.812	1	2back	Block1	2back/STIM_039.jpg
478.044	0.452	1	0back	Block1	0back/STIM_000.jpg
481.178	0.737	1	0back	Block1	0back/STIM_000.jpg
485.627	0.482	1	0back	Block1	0back/STIM_000.jpg
488.426	0.694	1	0back	Block1	0back/STIM_001.jpg
492.802	0.49	1	0back	Block1	0back/STIM_001.jpg
495.599	0.696	1	0back	Block1	0back/STIM_001.jpg
499.101	0.399	1	0back	Block1	0back/STIM_002.jpg
501.947	0.531	1	0back	Block1	0back/STIM_002.jpg
504.559	0.406	1	0back	Block1	0back/STIM_002.jpg
508.254	0.702	1	0back	Block1	0back/STIM_003.jpg
511.561	0.532	1	0back	Block1	0back/STIM_003.jpg
515.268	0.589	0	0back	Block1	0back/STIM_003.jpg
519.496	0.496	1	0back	Block1	0back/STIM_004.jpg
523.738	0.395	1	0back	Block1	0back/STIM_004.jpg
527.024	0.405	1	0back	Block1	0back/STIM_004.jpg
531.09	0.61	1	0back	Block1	0back/STIM_005.jpg
535.109	0.622	1	0back	Block1	0back/STIM_005.jpg
538.725	0.549	1	0back	Block1	0back/STIM_005.jpg
542.607	0.602	1	0back	Block1	0back/STIM_006.jpg
545.474	0.631	1	0back	Block1	0back/STIM_006.jpg
550.08	0.702	1	0back	Block1	0back/STIM_006.jpg
554.5	0.64	1	0back	Block1	0back/STIM_007.jpg
558.763	0.459	1	0back	Block1	0back/STIM_007.jpg
561.488	0.473	1	0back	Block1	0back/STIM_007.jpg
563.995	0.536	1	0back	Block1	0back/STIM_008.jpg
566.889	0.54	1	0back	Block1	0back/STIM_008.jpg
570.28	0.402	1	0back	Block1	0back/STIM_008.jpg
574.656	0.526	1	0back	Block1	0back/STIM_009.jpg
578.408	0.394	1	0back	Block1	0back/STIM_009.jpg
581.293	0.532	0	0back	Block1	0back/STIM_009.jpg
585.063	0.728	1	0back	Block1	0back/STIM_010.jpg
588.906	0.457	1	0back	Block1	0back/STIM_010.jpg
592.506	0.685	1	0back	Block1	0back/STIM_010.jpg
596.152	0.678	1	0back	Block1	0back/STIM_011.jpg
600.287	0.437	1	0back	Block1	0back/STIM_011.jpg
604.339	0.562	1	0back	Block1	0back/STIM_011.jpg
607.257	0.692	1	0back	Block1	0back/STIM_012.jpg
610.824	0.545	1	0back	Block1	0back/STIM_012.jpg
614.323	0.511	1	0back	Block1	0back/STIM_012.jpg
618.207	0.524	1	0back	Block1	0back/STIM_013.jpg
622.532	0.673	1	0back	Block1	0back/STIM_013.jpg
626.355	0.467	1	0back	Block1	0back/STIM_013.jpg
629.375	0.772	1	0back	Block1	0back/STIM_014.jpg
632.395	0.618	1	0back	Block1	0back/STIM_014.jpg
636.032	0.602	1	0back	Block1	0back/STIM_014.jpg
639.407	0.726	1	0back	Block1	0back/STIM_015.jpg
642.348	0.619	1	0back	Block1	0back/STIM_015.jpg
645.705	0.411	1	0back	Block1	0back/STIM_015.jpg
649.774	0.664	1	0back	Block1	0back/STIM_016.jpg
653.769	0.691	1	0back	Block1	0back/STIM_016.jpg
656.588	0.661	1	0back	Block1	0back/STIM_016.jpg
660.227	0.639	1	0back	Block1	0back/STIM_017.jpg
663.075	0.75	1	0back	Block1	0back/STIM_017.jpg
666.249	0.404	1	0back	Block1	0back/STIM_017.jpg
668.788	0.613	1	0back	Block1	0back/STIM_018.jpg
672.794	0.563	1	0back	Block1	0back/STIM_018.jpg
677.366	0.484	1	0back	Block1	0back/STIM_018.jpg
679.95	0.563	1	0back	Block1	0back/STIM_019.jpg
684.273	0.755	1	0back	Block1	0back/STIM_019.jpg
688.648	0.488	1	0back	Block1	0back/STIM_019.jpg
691.601	1.07	0	2back	Block2	2back/STIM_000.jpg
694.944	0.987	1	2back	Block2	2back/STIM_000.jpg
698.84	0.774	1	2back	Block2	2back/STIM_000.jpg
702.609	0.83	0	2back	Block2	2back/STIM_001.jpg
705.668	0.511	1	2back	Block2	2back/STIM_001.jpg
708.596	0.493	1	2back	Block2	2back/STIM_001.jpg
711.5	1.086	1	2back	Block2	2back/STIM_002.jpg
714.842	0.694	1	2back	Block2	2back/STIM_002.jpg
719.524	1.004	1	2back	Block2	2back/STIM_002.jpg
723.243	0.87	1	2back	Block2	2back/STIM_003.jpg
728.047	0.724	1	2back	Block2	2back/STIM_003.jpg
732.215	0.906	1	2back	Block2	2back/STIM_003.jpg
735.765	0.581	1	2back	Block2	2back/STIM_004.jpg
738.804	0.616	1	2back	Block2	2back/STIM_004.jpg
741.938	0.892	1	2back	Block2	2back/STIM_004.jpg
745.724	1.096	1	2back	Block2	2back/STIM_005.jpg
750.091	0.825	1	2back	Block2	2back/STIM_005.jpg
753.51	0.464	1	2back	Block2	2back/STIM_005.jpg
757.978	0.851	1	2back	Block2	2back/STIM_006.jpg
762.253	0.768	1	2back	Block2	2back/STIM_006.jpg
766.516	0.912	1	2back	Block2	2back/STIM_006.jpg
771.352	0.505	1	2back	Block2	2back/STIM_007.jpg
775.799	0.696	1	2back	Block2	2back/STIM_007.jpg
778.829	0.521	1	2back	Block2	2back/STIM_007.jpg
783.357	0.626	1	2back	Block2	2back/STIM_008.jpg
787.695	0.562	1	2back	Block2	2back/STIM_008.jpg
791.107	0.644	1	2back	Block2	2back/STIM_008.jpg
794.923	0.955	1	2back	Block2	2back/STIM_009.jpg
799.32	0.593	1	2back	Block2	2back/STIM_009.jpg
802.745	0.5	1	2back	Block2	2back/STIM_009.jpg
805.637	0.852	1	2back	Block2	2back/STIM_010.jpg
809.457	0.833	1	2back	Block2	2back/STIM_010.jpg
814.182	0.654	1	2back	Block2	2back/STIM_010.jpg
817.385	0.688	1	2back	Block2	2back/STIM_011.jpg
821.936	0.764	1	2back	Block2	2back/STIM_011.jpg
826.487	0.677	1	2back	Block2	2back/STIM_011.jpg
829.88	1.013	1	2back	Block2	2back/STIM_012.jpg
834.869	0.789	1	2back	Block2	2back/STIM_012.jpg
837.852	0.675	1	2back	Block2	2back/STIM_012.jpg
841.099	0.831	1	2back	Block2	2back/STIM_013.jpg
844.988	0.851	1	2back	Block2	2back/STIM_013.jpg
848.387	0.965	1	2back	Block2	2back/STIM_013.jpg
852.653	1.018	1	2back	Block2	2back/STIM_014.jpg
856.464	0.891	1	2back	Block2	2back/STIM_014.jpg
859.647	0.74	1	2back	Block2	2back/STIM_014.jpg
862.836	0.608	1	2back	Block2	2back/STIM_015.jpg
866.156	1.076	0	2back	Block2	2back/STIM_015.jpg
870.336	0.586	1	2back	Block2	2back/STIM_015.jpg
874.54	0.583	0	2back	Block2	2back/STIM_016.jpg
878.941	0.648	1	2back	Block2	2back/STIM_016.jpg
882.117	0.508	0	2back	Block2	2back/STIM_016.jpg
885.91	0.992	1	2back	Block2	2back/STIM_017.jpg
889.617	0.597	1	2back	Block2	2back/STIM_017.jpg
892.588	0.437	1	2back	Block2	2back/STIM_017.jpg
895.633	0.626	1	2back	Block2	2back/STIM_018.jpg
899.208	0.881	1	2back	Block2	2back/STIM_018.jpg
902.746	0.677	1	2back	Block2	2back/STIM_018.jpg
907.121	0.573	1	2back	Block2	2back/STIM_019.jpg
911.335	0.779	1	2back	Block2	2back/STIM_019.jpg
915.178	0.618	1	2back	Block2	2back/STIM_019.jpg
918.635	1.15	1	2back	Block2	2back/STIM_020.jpg
922.397	0.52	1	2back	Block2	2back/STIM_020.jpg
925.274	0.478	1	2back	Block2	2back/STIM_020.jpg
929.753	0.547	1	2back	Block2	2back/STIM_021.jpg
932.644	1.022	1	2back	Block2	2back/STIM_021.jpg
936.178	0.958	1	2back	Block2	2back/STIM_021.jpg
940.391	0.998	1	2back	Block2	2back/STIM_022.jpg
944.95	0.641	1	2back	Block2	2back/STIM_022.jpg
949.166	0.665	1	2back	Block2	2back/STIM_022.jpg
951.957	0.761	1	2back	Block2	2back/STIM_023.jpg
954.801	0.828	1	2back	Block2	2back/STIM_023.jpg
958.268	0.578	1	2back	Block2	2back/STIM_023.jpg
962.228	0.502	1	2back	Block2	2back/STIM_024.jpg
965.845	0.883	1	2back	Block2	2back/STIM_024.jpg
969.867	0.727	1	2back	Block2	2back/STIM_024.jpg
974.051	0.536	1	2back	Block2	2back/STIM_025.jpg
977.978	1.007	1	2back	Block2	2back/STIM_025.jpg
982.215	0.783	1	2back	Block2	2back/STIM_025.jpg
985.137	0.743	1	2back	Block2	2back/STIM_026.jpg
989.828	0.991	1	2back	Block2	2back/STIM_026.jpg
994.576	0.595	1	2back	Block2	2back/STIM_026.jpg
998.493	0.911	1	2back	Block2	2back/STIM_027.jpg
1002.182	0.734	1	2back	Block2	2back/STIM_027.jpg
1006.467	0.75	1	2back	Block2	2back/STIM_027.jpg
1009.495	0.695	0	2back	Block2	2back/STIM_028.jpg
1012.851	0.787	1	2back	Block2	2back/STIM_028.jpg
1017.179	0.83	1	2back	Block2	2back/STIM_028.jpg
1020.937	0.522	1	2back	Block2	2back/STIM_029.jpg
1024.995	0.953	1	2back	Block2	2back/STIM_029.jpg
1029.088	0.923	1	2back	Block2	2back/STIM_029.jpg
1033.484	0.521	1	2back	Block2	2back/STIM_030.jpg
1037.622	0.905	1	2back	Block2	2back/STIM_030.jpg
1040.963	0.913	1	2back	Block2	2back/STIM_030.jpg
1044.756	0.732	1	2back	Block2	2back/STIM_031.jpg
1047.686	0.813	1	2back	Block2	2back/STIM_031.jpg
1051.183	0.935	1	2back	Block2	2back/STIM_031.jpg
1055.716	0.975	1	2back	Block2	2back/STIM_032.jpg
1059.125	0.795	1	2back	Block2	2back/STIM_032.jpg
1063.098	0.987	1	2back	Block2	2back/STIM_032.jpg
1067.271	0.892	1	2back	Block2	2back/STIM_033.jpg
1071.125	0.5	1	2back	Block2	2back/STIM_033.jpg
1074.301	0.617	1	2back	Block2	2back/STIM_033.jpg
1078.475	1.038	1	2back	Block2	2back/STIM_034.jpg
1083.461	0.927	1	2back	Block2	2back/STIM_034.jpg
1086.832	0.962	1	2back	Block2	2back/STIM_034.jpg
1090.243	0.639	1	2back	Block2	2back/STIM_035.jpg
1093.709	1.013	1	2back	Block2	2back/STIM_035.jpg
1098.242	0.778	1	2back	Block2	2back/STIM_035.jpg
1102.722	0.98	1	2back	Block2	2back/STIM_036.jpg
1106.588	0.671	1	2back	Block2	2back/STIM_036.jpg
1110.374	0.902	1	2back	Block2	2back/STIM_036.jpg
1115.182	0.943	1	2back	Block2	2back/STIM_037.jpg
1120.067	0.74	1	2back	Block2	2back/STIM_037.jpg
1124.421	0.617	1	2back	Block2	2back/STIM_037.jpg
1127.671	0.653	1	2back	Block2	2back/STIM_038.jpg
1131.999	0.892	1	2back	Block2	2back/STIM_038.jpg
1135.813	0.651	1	2back	Block2	2back/STIM_038.jpg
1140.111	1.086	0	2back	Block2	2back/STIM_039.jpg
1144.399	0.588	1	2back	Block2	2back/STIM_039.jpg
1148.699	0.616	1	2back	Block2	2back/STIM_039.jpg
1152.284	0.478	1	0back	Block2	0back/STIM_000.jpg
1154.99	0.587	1	0back	Block2	0back/STIM_000.jpg
1158.608	0.395	1	0back	Block2	0back/STIM_000.jpg
1161.409	0.49	1	0back	Block2	0back/STIM_001.jpg
1165.82	0.394	1	0back	Block2	0back/STIM_001.jpg
1168.29	0.422	1	0back	Block2	0back/STIM_001.jpg
1171.615	0.58	1	0back	Block2	0back/STIM_002.jpg
1175.381	0.39	1	0back	Block2	0back/STIM_002.jpg
1178.786	0.578	1	0back	Block2	0back/STIM_002.jpg
1183.063	0.77	1	0back	Block2	0back/STIM_003.jpg
1186.277	0.581	1	0back	Block2	0back/STIM_003.jpg
1190.877	0.516	1	0back	Block2	0back/STIM_003.jpg
1194.642	0.522	1	0back	Block2	0back/STIM_004.jpg
1197.271	0.443	1	0back	Block2	0back/STIM_004.jpg
1201.446	0.703	0	0back	Block2	0back/STIM_004.jpg
1204.184	0.449	1	0back	Block2	0back/STIM_005.jpg
1208.381	0.638	1	0back	Block2	0back/STIM_005.jpg
1211.91	0.553	1	0back	Block2	0back/STIM_005.jpg
1216.379	0.444	1	0back	Block2	0back/STIM_006.jpg
1219.498	0.756	1	0back	Block2	0back/STIM_006.jpg
1222.573	0.67	1	0back	Block2	0back/STIM_006.jpg
1227.257	0.42	1	0back	Block2	0back/STIM_007.jpg
1231.006	0.407	1	0back	Block2	0back/STIM_007.jpg
1234.3	0.773	1	0back	Block2	0back/STIM_007.jpg
1237.214	0.567	1	0back	Block2	0back/STIM_008.jpg
1241.686	0.597	1	0back	Block2	0back/STIM_008.jpg
1245.769	0.63	0	0back	Block2	0back/STIM_008.jpg
1250.364	0.456	1	0back	Block2	0back/STIM_009.jpg
1253.665	0.406	1	0back	Block2	0back/STIM_009.jpg
1256.942	0.588	1	0back	Block2	0back/STIM_009.jpg
1261.106	0.542	1	0back	Block2	0back/STIM_010.jpg
1264.789	0.624	1	0back	Block2	0back/STIM_010.jpg
1268.115	0.678	1	0back	Block2	0back/STIM_010.jpg
1272.356	0.64	1	0back	Block2	0back/STIM_011.jpg
1276.178	0.639	1	0back	Block2	0back/STIM_011.jpg
1279.515	0.726	1	0back	Block2	0back/STIM_011.jpg
1284.111	0.615	1	0back	Block2	0back/STIM_012.jpg
1288.53	0.764	1	0back	Block2	0back/STIM_012.jpg
1292.764	0.484	1	0back	Block2	0back/STIM_012.jpg
1296.92	0.739	1	0back	Block2	0back/STIM_013.jpg
1300.968	0.497	1	0back	Block2	0back/STIM_013.jpg
1304.4	0.638	1	0back	Block2	0back/STIM_013.jpg
1308.911	0.718	1	0back	Block2	0back/STIM_014.jpg
1311.872	0.72	1	0back	Block2	0back/STIM_014.jpg
1316.534	0.514	1	0back	Block2	0back/STIM_014.jpg
1319.966	0.516	1	0back	Block2	0back/STIM_015.jpg
1324.364	0.767	1	0back	Block2	0back/STIM_015.jpg
1328.569	0.524	1	0back	Block2	0back/STIM_015.jpg
1331.481	0.452	1	0back	Block2	0back/STIM_016.jpg
1334.326	0.472	1	0back	Block2	0back/STIM_016.jpg
1338.361	0.647	1	0back	Block2	0back/STIM_016.jpg
1342.147	0.494	1	0back	Block2	0back/STIM_017.jpg
1345.434	0.528	1	0back	Block2	0back/STIM_017.jpg
1348.525	0.484	1	0back	Block2	0back/STIM_017.jpg
1351.661	0.394	1	0back	Block2	0back/STIM_018.jpg
1355.752	0.475	1	0back	Block2	0back/STIM_018.jpg
1360.234	0.627	0	0back	Block2	0back/STIM_018.jpg
1364.015	0.672	1	0back	Block2	0back/STIM_019.jpg
1367.574	0.707	1	0back	Block2	0back/STIM_019.jpg
1371.669	0.578	1	0back	Block2	0back/STIM_019.jpg
1376.226	0.573	1	2back	Block3	2back/STIM_000.jpg
1380.657	0.907	1	2back	Block3	2back/STIM_000.jpg
1384.395	0.843	1	2back	Block3	2back/STIM_000.jpg
1388.859	0.842	1	2back	Block3	2back/STIM_001.jpg
1392.711	0.938	1	2back	Block3	2back/STIM_001.jpg
1396.502	0.645	1	2back	Block3	2back/STIM_001.jpg
1399.292	0.684	1	2back	Block3	2back/STIM_002.jpg
1402.212	0.724	1	2back	Block3	2back/STIM_002.jpg
1405.761	0.576	1	2back	Block3	2back/STIM_002.jpg
1409.705	0.784	1	2back	Block3	2back/STIM_003.jpg
1412.614	0.602	1	2back	Block3	2back/STIM_003.jpg
1416.878	0.832	1	2back	Block3	2back/STIM_003.jpg
1420.154	0.42	1	2back	Block3	2back/STIM_004.jpg
1423.395	0.488	1	2back	Block3	2back/STIM_004.jpg
1426.539	0.576	1	2back	Block3	2back/STIM_004.jpg
1430.09	0.536	1	2back	Block3	2back/STIM_005.jpg
1434.47	0.947	1	2back	Block3	2back/STIM_005.jpg
1439.104	0.761	1	2back	Block3	2back/STIM_005.jpg
1443.773	0.946	1	2back	Block3	2back/STIM_006.jpg
1447.936	0.922	0	2back	Block3	2back/STIM_006.jpg
1451.65	0.481	1	2back	Block3	2back/STIM_006.jpg
1455.94	0.542	1	2back	Block3	2back/STIM_007.jpg
1459.89	0.581	1	2back	Block3	2back/STIM_007.jpg
1464.39	0.579	1	2back	Block3	2back/STIM_007.jpg
1468.886	0.493	1	2back	Block3	2back/STIM_008.jpg
1473.0	0.648	1	2back	Block3	2back/STIM_008.jpg
1477.001	0.808	1	2back	Block3	2back/STIM_008.jpg
1480.036	0.631	1	2back	Block3	2back/STIM_009.jpg
1483.295	0.526	1	2back	Block3	2back/STIM_009.jpg
1485.87	0.612	1	2back	Block3	2back/STIM_009.jpg
1489.116	0.63	1	2back	Block3	2back/STIM_010.jpg
1493.136	0.423	1	2back	Block3	2back/STIM_010.jpg
1496.695	0.542	1	2back	Block3	2back/STIM_010.jpg
1499.548	0.577	1	2back	Block3	2back/STIM_011.jpg
1503.747	0.799	1	2back	Block3	2back/STIM_011.jpg
1506.701	0.86	1	2back	Block3	2back/STIM_011.jpg
1510.719	0.418	1	2back	Block3	2back/STIM_012.jpg
1513.546	0.513	1	2back	Block3	2back/STIM_012.jpg
1517.381	0.82	1	2back	Block3	2back/STIM_012.jpg
1522.181	0.424	0	2back	Block3	2back/STIM_013.jpg
1526.423	0.852	1	2back	Block3	2back/STIM_013.jpg
1529.811	0.707	1	2back	Block3	2back/STIM_013.jpg
1534.527	0.779	1	2back	Block3	2back/STIM_014.jpg
1537.672	0.91	1	2back	Block3	2back/STIM_014.jpg
1542.144	0.765	1	2back	Block3	2back/STIM_014.jpg
1545.093	0.659	1	2back	Block3	2back/STIM_015.jpg
1548.593	0.416	1	2back	Block3	2back/STIM_015.jpg
1552.524	0.569	1	2back	Block3	2back/STIM_015.jpg
1555.638	0.905	1	2back	Block3	2back/STIM_016.jpg
1558.599	0.769	1	2back	Block3	2back/STIM_016.jpg
1562.786	0.756	1	2back	Block3	2back/STIM_016.jpg
1565.636	0.729	1	2back	Block3	2back/STIM_017.jpg
1569.892	0.59	1	2back	Block3	2back/STIM_017.jpg
1574.35	0.456	1	2back	Block3	2back/STIM_017.jpg
1577.904	0.53	1	2back	Block3	2back/STIM_018.jpg
1581.316	0.712	1	2back	Block3	2back/STIM_018.jpg
1585.064	0.639	1	2back	Block3	2back/STIM_018.jpg
1588.413	0.623	1	2back	Block3	2back/STIM_019.jpg
1591.493	0.606	1	2back	Block3	2back/STIM_019.jpg
1595.427	0.757	1	2back	Block3	2back/STIM_019.jpg
1600.159	0.911	1	2back	Block3	2back/STIM_020.jpg
1603.262	0.456	0	2back	Block3	2back/STIM_020.jpg
1606.153	0.607	1	2back	Block3	2back/STIM_020.jpg
1609.811	0.414	1	2back	Block3	2back/STIM_021.jpg
1613.524	0.446	1	2back	Block3	2back/STIM_021.jpg
1616.63	0.434	1	2back	Block3	2back/STIM_021.jpg
1620.671	0.513	1	2back	Block3	2back/STIM_022.jpg
1624.539	0.904	1	2back	Block3	2back/STIM_022.jpg
1628.331	0.529	1	2back	Block3	2back/STIM_022.jpg
1632.134	0.718	1	2back	Block3	2back/STIM_023.jpg
1635.504	0.744	1	2back	Block3	2back/STIM_023.jpg
1639.082	0.656	1	2back	Block3	2back/STIM_023.jpg
1642.235	0.434	1	2back	Block3	2back/STIM_024.jpg
1644.913	0.788	1	2back	Block3	2back/STIM_024.jpg
1649.715	0.788	1	2back	Block3	2back/STIM_024.jpg
1652.848	0.869	1	2back	Block3	2back/STIM_025.jpg
1657.16	0.415	1	2back	Block3	2back/STIM_025.jpg
1660.459	0.864	1	2back	Block3	2back/STIM_025.jpg
1664.41	0.419	1	2back	Block3	2back/STIM_026.jpg
1667.401	0.417	1	2back	Block3	2back/STIM_026.jpg
1671.505	0.676	1	2back	Block3	2back/STIM_026.jpg
1676.203	0.863	1	2back	Block3	2back/STIM_027.jpg
1680.947	0.478	1	2back	Block3	2back/STIM_027.jpg
1684.706	0.747	1	2back	Block3	2back/STIM_027.jpg
1688.882	0.447	1	2back	Block3	2back/STIM_028.jpg
1692.187	0.808	1	2back	Block3	2back/STIM_028.jpg
1696.156	0.648	1	2back	Block3	2back/STIM_028.jpg
1699.261	0.468	1	2back	Block3	2back/STIM_029.jpg
1703.603	0.494	1	2back	Block3	2back/STIM_029.jpg
1707.329	0.891	1	2back	Block3	2back/STIM_029.jpg
1711.115	0.94	1	2back	Block3	2back/STIM_030.jpg
1715.897	0.925	1	2back	Block3	2back/STIM_030.jpg
1720.432	0.828	1	2back	Block3	2back/STIM_030.jpg
1725.076	0.68	1	2back	Block3	2back/STIM_031.jpg
1728.582	0.943	0	2back	Block3	2back/STIM_031.jpg
1732.949	0.651	1	2back	Block3	2back/STIM_031.jpg
1736.318	0.516	1	2back	Block3	2back/STIM_032.jpg
1740.414	0.928	1	2back	Block3	2back/STIM_032.jpg
1743.546	0.864	1	2back	Block3	2back/STIM_032.jpg
1747.525	0.926	1	2back	Block3	2back/STIM_033.jpg
1750.871	0.527	1	2back	Block3	2back/STIM_033.jpg
1755.004	0.711	1	2back	Block3	2back/STIM_033.jpg
1758.518	0.57	1	2back	Block3	2back/STIM_034.jpg
1763.031	0.71	1	2back	Block3	2back/STIM_034.jpg
1767.305	0.486	1	2back	Block3	2back/STIM_034.jpg
1771.664	0.869	1	2back	Block3	2back/STIM_035.jpg
1776.047	0.873	1	2back	Block3	2back/STIM_035.jpg
1779.295	0.72	1	2back	Block3	2back/STIM_035.jpg
1782.398	0.712	1	2back	Block3	2back/STIM_036.jpg
1785.546	0.651	1	2back	Block3	2back/STIM_036.jpg
1789.574	0.839	1	2back	Block3	2back/STIM_036.jpg
1793.086	0.798	1	2back	Block3	2back/STIM_037.jpg
1797.595	0.946	1	2back	Block3	2back/STIM_037.jpg
1801.27	0.465	1	2back	Block3	2back/STIM_037.jpg
1803.913	0.943	1	2back	Block3	2back/STIM_038.jpg
1808.405	0.692	1	2back	Block3	2back/STIM_038.jpg
1811.235	0.903	1	2back	Block3	2back/STIM_038.jpg
1815.975	0.567	1	2back	Block3	2back/STIM_039.jpg
1820.433	0.896	1	2back	Block3	2back/STIM_039.jpg
1823.508	0.556	1	2back	Block3	2back/STIM_039.jpg
1827.057	0.47	1	0back	Block3	0back/STIM_000.jpg
1831.224	0.583	1	0back	Block3	0back/STIM_000.jpg
1835.551	0.769	1	0back	Block3	0back/STIM_000.jpg
1840.224	0.576	1	0back	Block3	0back/STIM_001.jpg
1843.456	0.664	1	0back	Block3	0back/STIM_001.jpg
1846.484	0.695	1	0back	Block3	0back/STIM_001.jpg
1850.237	0.661	1	0back	Block3	0back/STIM_002.jpg
1854.055	0.518	1	0back	Block3	0back/STIM_002.jpg
1856.641	0.437	1	0back	Block3	0back/STIM_002.jpg
1859.633	0.748	1	0back	Block3	0back/STIM_003.jpg
1862.789	0.766	0	0back	Block3	0back/STIM_003.jpg
1867.464	0.573	1	0back	Block3	0back/STIM_003.jpg
1871.267	0.618	1	0back	Block3	0back/STIM_004.jpg
1874.99	0.494	1	0back	Block3	0back/STIM_004.jpg
1878.162	0.577	1	0back	Block3	0back/STIM_004.jpg
1880.931	0.478	1	0back	Block3	0back/STIM_005.jpg
1884.701	0.403	1	0back	Block3	0back/STIM_005.jpg
1888.605	0.632	1	0back	Block3	0back/STIM_005.jpg
1892.516	0.654	1	0back	Block3	0back/STIM_006.jpg
1895.568	0.739	1	0back	Block3	0back/STIM_006.jpg
1899.059	0.448	1	0back	Block3	0back/STIM_006.jpg
1902.954	0.556	1	0back	Block3	0back/STIM_007.jpg
1907.099	0.595	1	0back	Block3	0back/STIM_007.jpg
1910.228	0.564	1	0back	Block3	0back/STIM_007.jpg
1913.916	0.43	1	0back	Block3	0back/STIM_008.jpg
1918.064	0.765	1	0back	Block3	0back/STIM_008.jpg
1922.313	0.473	1	0back	Block3	0back/STIM_008.jpg
1926.023	0.67	1	0back	Block3	0back/STIM_009.jpg
1929.971	0.748	0	0back	Block3	0back/STIM_009.jpg
1934.101	0.553	1	0back	Block3	0back/STIM_009.jpg
1936.749	0.443	1	0back	Block3	0back/STIM_010.jpg
1940.962	0.575	1	0back	Block3	0back/STIM_010.jpg
1944.003	0.504	1	0back	Block3	0back/STIM_010.jpg
1946.977	0.403	1	0back	Block3	0back/STIM_011.jpg
1949.467	0.604	1	0back	Block3	0back/STIM_011.jpg
1953.227	0.59	1	0back	Block3	0back/STIM_011.jpg
1956.435	0.495	1	0back	Block3	0back/STIM_012.jpg
1960.698	0.429	1	0back	Block3	0back/STIM_012.jpg
1963.281	0.515	1	0back	Block3	0back/STIM_012.jpg
1965.856	0.569	1	0back	Block3	0back/STIM_013.jpg
1970.297	0.703	1	0back	Block3	0back/STIM_013.jpg
1973.887	0.727	1	0back	Block3	0back/STIM_013.jpg
1978.024	0.449	1	0back	Block3	0back/STIM_014.jpg
1981.176	0.703	1	0back	Block3	0back/STIM_014.jpg
1984.35	0.476	1	0back	Block3	0back/STIM_014.jpg
1988.759	0.461	1	0back	Block3	0back/STIM_015.jpg
1992.888	0.77	0	0back	Block3	0back/STIM_015.jpg
1995.996	0.512	1	0back	Block3	0back/STIM_015.jpg
1999.011	0.39	1	0back	Block3	0back/STIM_016.jpg
2002.573	0.416	1	0back	Block3	0back/STIM_016.jpg
2006.272	0.54	0	0back	Block3	0back/STIM_016.jpg
2010.04	0.63	1	0back	Block3	0back/STIM_017.jpg
2013.006	0.516	1	0back	Block3	0back/STIM_017.jpg
2016.688	0.601	1	0back	Block3	0back/STIM_017.jpg
2019.661	0.706	1	0back	Block3	0back/STIM_018.jpg
2024.09	0.444	1	0back	Block3	0back/STIM_018.jpg
2028.111	0.526	1	0back	Block3	0back/STIM_018.jpg
2032.005	0.731	1	0back	Block3	0back/STIM_019.jpg
2036.564	0.579	1	0back	Block3	0back/STIM_019.jpg
2040.239	0.767	1	0back	Block3	0back/STIM_019.jpg
2043.135	0.568	1	2back	Block4	2back/STIM_000.jpg
2047.306	0.671	1	2back	Block4	2back/STIM_000.jpg
2051.021	0.72	1	2back	Block4	2back/STIM_000.jpg
2054.108	0.885	1	2back	Block4	2back/STIM_001.jpg
2058.934	0.533	1	2back	Block4	2back/STIM_001.jpg
2061.698	0.457	1	2back	Block4	2back/STIM_001.jpg
2065.168	0.853	1	2back	Block4	2back/STIM_002.jpg
2068.635	0.418	1	2back	Block4	2back/STIM_002.jpg
2071.337	0.658	1	2back	Block4	2back/STIM_002.jpg
2075.942	0.603	1	2back	Block4	2back/STIM_003.jpg
2080.3	0.724	1	2back	Block4	2back/STIM_003.jpg
2085.011	0.704	1	2back	Block4	2back/STIM_003.jpg
2089.185	0.734	1	2back	Block4	2back/STIM_004.jpg
2093.521	0.708	1	2back	Block4	2back/STIM_004.jpg
2096.547	0.505	0	2back	Block4	2back/STIM_004.jpg
2100.056	0.42	1	2back	Block4	2back/STIM_005.jpg
2102.568	0.934	1	2back	Block4	2back/STIM_005.jpg
2107.107	0.499	1	2back	Block4	2back/STIM_005.jpg
2110.712	0.497	1	2back	Block4	2back/STIM_006.jpg
2113.494	0.947	1	2back	Block4	2back/STIM_006.jpg
2116.523	0.862	1	2back	Block4	2back/STIM_006.jpg
2120.002	0.905	1	2back	Block4	2back/STIM_007.jpg
2124.465	0.594	1	2back	Block4	2back/STIM_007.jpg
2128.556	0.673	1	2back	Block4	2back/STIM_007.jpg
2131.904	0.888	1	2back	Block4	2back/STIM_008.jpg
2136.056	0.435	1	2back	Block4	2back/STIM_008.jpg
2139.131	0.481	1	2back	Block4	2back/STIM_008.jpg
2141.744	0.668	1	2back	Block4	2back/STIM_009.jpg
2144.952	0.702	1	2back	Block4	2back/STIM_009.jpg
2148.523	0.509	0	2back	Block4	2back/STIM_009.jpg
2153.022	0.865	1	2back	Block4	2back/STIM_010.jpg
2156.539	0.794	1	2back	Block4	2back/STIM_010.jpg
2160.048	0.778	1	2back	Block4	2back/STIM_010.jpg
2163.649	0.853	1	2back	Block4	2back/STIM_011.jpg
2167.484	0.561	1	2back	Block4	2back/STIM_011.jpg
2170.737	0.464	1	2back	Block4	2back/STIM_011.jpg
2174.378	0.601	1	2back	Block4	2back/STIM_012.jpg
2177.445	0.738	1	2back	Block4	2back/STIM_012.jpg
2180.581	0.918	1	2back	Block4	2back/STIM_012.jpg
2183.776	0.737	1	2back	Block4	2back/STIM_013.jpg
2187.817	0.865	1	2back	Block4	2back/STIM_013.jpg
2192.168	0.461	1	2back	Block4	2back/STIM_013.jpg
2196.238	0.663	1	2back	Block4	2back/STIM_014.jpg
2200.293	0.586	1	2back	Block4	2back/STIM_014.jpg
2204.208	0.9	1	2back	Block4	2back/STIM_014.jpg
2208.043	0.877	1	2back	Block4	2back/STIM_015.jpg
2210.96	0.794	1	2back	Block4	2back/STIM_015.jpg
2214.951	0.418	1	2back	Block4	2back/STIM_015.jpg
2218.789	0.59	1	2back	Block4	2back/STIM_016.jpg
2221.523	0.714	1	2back	Block4	2back/STIM_016.jpg
2226.165	0.531	1	2back	Block4	2back/STIM_016.jpg
2230.368	0.942	1	2back	Block4	2back/STIM_017.jpg
2233.882	0.71	1	2back	Block4	2back/STIM_017.jpg
2236.883	0.577	1	2back	Block4	2back/STIM_017.jpg
2239.553	0.588	1	2back	Block4	2back/STIM_018.jpg
2243.584	0.561	1	2back	Block4	2back/STIM_018.jpg
2247.8	0.444	1	2back	Block4	2back/STIM_018.jpg
2251.51	0.929	1	2back	Block4	2back/STIM_019.jpg
2254.64	0.814	1	2back	Block4	2back/STIM_019.jpg
2258.342	0.833	1	2back	Block4	2back/STIM_019.jpg
2263.056	0.63	1	2back	Block4	2back/STIM_020.jpg
2266.125	0.567	1	2back	Block4	2back/STIM_020.jpg
2270.529	0.64	1	2back	Block4	2back/STIM_020.jpg
2274.32	0.703	1	2back	Block4	2back/STIM_021.jpg
2278.685	0.742	1	2back	Block4	2back/STIM_021.jpg
2282.14	0.887	1	2back	Block4	2back/STIM_021.jpg
2285.375	0.946	1	2back	Block4	2back/STIM_022.jpg
2290.309	0.424	1	2back	Block4	2back/STIM_022.jpg
2294.387	0.658	1	2back	Block4	2back/STIM_022.jpg
2297.814	0.516	1	2back	Block4	2back/STIM_023.jpg
2301.2	0.664	1	2back	Block4	2back/STIM_023.jpg
2304.443	0.638	1	2back	Block4	2back/STIM_023.jpg
2308.047	0.822	1	2back	Block4	2back/STIM_024.jpg
2311.098	0.94	1	2back	Block4	2back/STIM_024.jpg
2315.455	0.806	1	2back	Block4	2back/STIM_024.jpg
2319.632	0.466	0	2back	Block4	2back/STIM_025.jpg
2323.629	0.699	0	2back	Block4	2back/STIM_025.jpg
2326.554	0.471	1	2back	Block4	2back/STIM_025.jpg
2330.865	0.879	1	2back	Block4	2back/STIM_026.jpg
2334.63	0.422	1	2back	Block4	2back/STIM_026.jpg
2337.176	0.49	1	2back	Block4	2back/STIM_026.jpg
2340.92	0.915	1	2back	Block4	2back/STIM_027.jpg
2345.592	0.84	1	2back	Block4	2back/STIM_027.jpg
2348.713	0.585	1	2back	Block4	2back/STIM_027.jpg
2351.501	0.864	1	2back	Block4	2back/STIM_028.jpg
2355.907	0.856	1	2back	Block4	2back/STIM_028.jpg
2359.166	0.671	1	2back	Block4	2back/STIM_028.jpg
2362.958	0.44	1	2back	Block4	2back/STIM_029.jpg
2367.009	0.609	1	2back	Block4	2back/STIM_029.jpg
2369.937	0.817	1	2back	Block4	2back/STIM_029.jpg
2373.495	0.763	1	2back	Block4	2back/STIM_030.jpg
2376.712	0.665	1	2back	Block4	2back/STIM_030.jpg
2381.196	0.582	1	2back	Block4	2back/STIM_030.jpg
2384.763	0.56	1	2back	Block4	2back/STIM_031.jpg
2389.051	0.915	1	2back	Block4	2back/STIM_031.jpg
2392.109	0.713	1	2back	Block4	2back/STIM_031.jpg
2395.284	0.55	1	2back	Block4	2back/STIM_032.jpg
2398.059	0.503	1	2back	Block4	2back/STIM_032.jpg
2401.748	0.408	1	2back	Block4	2back/STIM_032.jpg
2405.482	0.866	0	2back	Block4	2back/STIM_033.jpg
2409.352	0.692	1	2back	Block4	2back/STIM_033.jpg
2412.178	0.622	1	2back	Block4	2back/STIM_033.jpg
2415.266	0.905	1	2back	Block4	2back/STIM_034.jpg
2419.553	0.913	1	2back	Block4	2back/STIM_034.jpg
2423.006	0.584	1	2back	Block4	2back/STIM_034.jpg
2426.238	0.545	1	2back	Block4	2back/STIM_035.jpg
2430.19	0.639	1	2back	Block4	2back/STIM_035.jpg
2433.758	0.467	1	2back	Block4	2back/STIM_035.jpg
2437.071	0.636	0	2back	Block4	2back/STIM_036.jpg
2440.46	0.694	1	2back	Block4	2back/STIM_036.jpg
2445.137	0.794	1	2back	Block4	2back/STIM_036.jpg
2449.485	0.778	1	2back	Block4	2back/STIM_037.jpg
2453.638	0.674	1	2back	Block4	2back/STIM_037.jpg
2457.708	0.89	1	2back	Block4	2back/STIM_037.jpg
2462.319	0.424	1	2back	Block4	2back/STIM_038.jpg
2465.627	0.479	1	2back	Block4	2back/STIM_038.jpg
2470.089	0.944	1	2back	Block4	2back/STIM_038.jpg
2473.511	0.777	1	2back	Block4	2back/STIM_039.jpg
2477.72	0.871	1	2back	Block4	2back/STIM_039.jpg
2482.402	0.546	1	2back	Block4	2back/STIM_039.jpg
2485.118	0.519	1	0back	Block4	0back/STIM_000.jpg
2489.558	0.646	1	0back	Block4	0back/STIM_000.jpg
2492.693	0.459	1	0back	Block4	0back/STIM_000.jpg
2495.421	0.645	1	0back	Block4	0back/STIM_001.jpg
2498.829	0.42	1	0back	Block4	0back/STIM_001.jpg
2502.981	0.444	1	0back	Block4	0back/STIM_001.jpg
2505.837	0.647	1	0back	Block4	0back/STIM_002.jpg
2509.681	0.73	1	0back	Block4	0back/STIM_002.jpg
2512.79	0.71	1	0back	Block4	0back/STIM_002.jpg
2516.762	0.746	1	0back	Block4	0back/STIM_003.jpg
2520.995	0.534	1	0back	Block4	0back/STIM_003.jpg
2524.901	0.456	1	0back	Block4	0back/STIM_003.jpg
2529.214	0.646	1	0back	Block4	0back/STIM_004.jpg
2532.583	0.694	1	0back	Block4	0back/STIM_004.jpg
2535.733	0.469	1	0back	Block4	0back/STIM_004.jpg
2539.307	0.445	1	0back	Block4	0back/STIM_005.jpg
2542.385	0.596	0	0back	Block4	0back/STIM_005.jpg
2545.982	0.74	1	0back	Block4	0back/STIM_005.jpg
2549.647	0.406	1	0back	Block4	0back/STIM_006.jpg
2553.074	0.436	1	0back	Block4	0back/STIM_006.jpg
2556.535	0.46	1	0back	Block4	0back/STIM_006.jpg
2560.198	0.549	1	0back	Block4	0back/STIM_007.jpg
2563.914	0.51	1	0back	Block4	0back/STIM_007.jpg
2568.251	0.638	1	0back	Block4	0back/STIM_007.jpg
2572.704	0.642	1	0back	Block4	0back/STIM_008.jpg
2576.06	0.743	1	0back	Block4	0back/STIM_008.jpg
2579.757	0.678	1	0back	Block4	0back/STIM_008.jpg
2583.106	0.408	1	0back	Block4	0back/STIM_009.jpg
2587.453	0.723	1	0back	Block4	0back/STIM_009.jpg
2591.009	0.588	1	0back	Block4	0back/STIM_009.jpg
2593.774	0.673	1	0back	Block4	0back/STIM_010.jpg
2597.948	0.587	1	0back	Block4	0back/STIM_010.jpg
2602.5	0.7	1	0back	Block4	0back/STIM_010.jpg
2605.422	0.536	1	0back	Block4	0back/STIM_011.jpg
2609.535	0.655	1	0back	Block4	0back/STIM_011.jpg
2614.026	0.561	1	0back	Block4	0back/STIM_011.jpg
2617.498	0.684	1	0back	Block4	0back/STIM_012.jpg
2621.795	0.425	0	0back	Block4	0back/STIM_012.jpg
2625.254	0.54	1	0back	Block4	0back/STIM_012.jpg
2628.99	0.523	1	0back	Block4	0back/STIM_013.jpg
2632.769	0.763	0	0back	Block4	0back/STIM_013.jpg
2637.14	0.754	1	0back	Block4	0back/STIM_013.jpg
2640.283	0.667	1	0back	Block4	0back/STIM_014.jpg
2644.598	0.702	1	0back	Block4	0back/STIM_014.jpg
2648.963	0.468	1	0back	Block4	0back/STIM_014.jpg
2652.593	0.414	1	0back	Block4	0back/STIM_015.jpg
2655.727	0.741	1	0back	Block4	0back/STIM_015.jpg
2659.354	0.479	1	0back	Block4	0back/STIM_015.jpg
2662.086	0.512	1	0back	Block4	0back/STIM_016.jpg
2666.231	0.462	1	0back	Block4	0back/STIM_016.jpg
2668.936	0.505	1	0back	Block4	0back/STIM_016.jpg
2672.073	0.491	1	0back	Block4	0back/STIM_017.jpg
2675.266	0.613	1	0back	Block4	0back/STIM_017.jpg
2679.469	0.677	1	0back	Block4	0back/STIM_017.jpg
2683.118	0.547	1	0back	Block4	0back/STIM_018.jpg
2686.873	0.698	1	0back	Block4	0back/STIM_018.jpg
2689.608	0.483	1	0back	Block4	0back/STIM_018.jpg
2693.414	0.77	1	0back	Block4	0back/STIM_019.jpg
2697.08	0.684	1	0back	Block4	0back/STIM_019.jpg
2700.704	0.488	0	0back	Block4	0back/STIM_019.jpg
