onset	duration	response_time_ms	trial_type	learning_stage	stimulus	response_port
0.0	0.695	694.9	2back	Block1	2back/STIM_000.jpg	99
4.197	1.273	1273.4	2back	Block1	2back/STIM_000.jpg	99
7.967	0.94	940.3	2back	Block1	2back/STIM_000.jpg	100
12.487	1.251	1251.4	2back	Block1	2back/STIM_001.jpg	100
16.925	1.006	1005.7	2back	Block1	2back/STIM_001.jpg	100
19.981	0.791	790.6	2back	Block1	2back/STIM_001.jpg	100
24.385	0.621	620.8	2back	Block1	2back/STIM_002.jpg	100
28.296	0.818	818.4	2back	Block1	2back/STIM_002.jpg	99
32.783	0.937	936.7	2back	Block1	2back/STIM_002.jpg	100
36.53	1.12	1120.5	2back	Block1	2back/STIM_003.jpg	99
41.506	0.698	698.1	2back	Block1	2back/STIM_003.jpg	99
44.743	1.044	1043.8	2back	Block1	2back/STIM_003.jpg	99
49.146	0.762	762.0	2back	Block1	2back/STIM_004.jpg	100
52.161	1.098	1098.3	2back	Block1	2back/STIM_004.jpg	99
57.146	0.886	885.6	2back	Block1	2back/STIM_004.jpg	100
61.402	0.654	653.8	2back	Block1	2back/STIM_005.jpg	99
65.942	1.173	1173.4	2back	Block1	2back/STIM_005.jpg	99
69.524	0.774	774.1	2back	Block1	2back/STIM_005.jpg	99
73.84	1.095	1095.2	2back	Block1	2back/STIM_006.jpg	99
78.083	0.594	594.3	2back	Block1	2back/STIM_006.jpg	100
82.6	1.146	1146.0	2back	Block1	2back/STIM_006.jpg	100
86.63	0.595	594.7	2back	Block1	2back/STIM_007.jpg	99
90.51	0.86	860.1	2back	Block1	2back/STIM_007.jpg	100
93.992	0.593	592.7	2back	Block1	2back/STIM_007.jpg	100
97.118	0.854	854.5	2back	Block1	2back/STIM_008.jpg	99
101.434	0.915	914.8	2back	Block1	2back/STIM_008.jpg	99
105.011	1.218	1218.2	2back	Block1	2back/STIM_008.jpg	100
108.938	0.807	807.1	2back	Block1	2back/STIM_009.jpg	99
112.989	1.14	1139.5	2back	Block1	2back/STIM_009.jpg	99
116.324	0.783	782.6	2back	Block1	2back/STIM_009.jpg	100
120.627	0.748	747.7	2back	Block1	2back/STIM_010.jpg	100
123.928	0.861	860.8	2back	Block1	2back/STIM_010.jpg	99
126.995	1.112	1112.4	2back	Block1	2back/STIM_010.jpg	100
130.958	1.152	1152.4	2back	Block1	2back/STIM_011.jpg	99
134.426	1.07	1069.5	2back	Block1	2back/STIM_011.jpg	100
139.033	0.916	916.3	2back	Block1	2back/STIM_011.jpg	99
142.19	1.015	1015.0	2back	Block1	2back/STIM_012.jpg	100
146.876	1.179	1178.7	2back	Block1	2back/STIM_012.jpg	99
150.568	0.657	656.6	2back	Block1	2back/STIM_012.jpg	99
154.811	1.215	1215.3	2back	Block1	2back/STIM_013.jpg	100
158.77	1.218	1218.1	2back	Block1	2back/STIM_013.jpg	100
163.172	1.09	1090.3	2back	Block1	2back/STIM_013.jpg	99
167.606	0.874	874.4	2back	Block1	2back/STIM_014.jpg	99
172.19	1.193	1192.9	2back	Block1	2back/STIM_014.jpg	99
175.434	0.888	887.7	2back	Block1	2back/STIM_014.jpg	100
179.474	0.954	953.5	2back	Block1	2back/STIM_015.jpg	100
184.391	0.646	646.5	2back	Block1	2back/STIM_015.jpg	99
187.684	1.144	1143.5	2back	Block1	2back/STIM_015.jpg	100
192.639	0.673	673.1	2back	Block1	2back/STIM_016.jpg	99
195.37	1.165	1165.2	2back	Block1	2back/STIM_016.jpg	99
200.009	0.942	941.7	2back	Block1	2back/STIM_016.jpg	100
204.349	0.75	750.5	2back	Block1	2back/STIM_017.jpg	99
207.233	1.178	1177.6	2back	Block1	2back/STIM_017.jpg	100
211.66	0.801	801.2	2back	Block1	2back/STIM_017.jpg	100
216.396	1.245	1244.9	2back	Block1	2back/STIM_018.jpg	99
221.147	0.659	659.1	2back	Block1	2back/STIM_018.jpg	100
224.982	1.115	1115.1	2back	Block1	2back/STIM_018.jpg	100
228.275	1.133	1132.9	2back	Block1	2back/STIM_019.jpg	99
232.101	0.75	749.8	2back	Block1	2back/STIM_019.jpg	100
236.235	0.548	548.1	2back	Block1	2back/STIM_019.jpg	100
240.633	0.894	893.8	2back	Block1	2back/STIM_020.jpg	99
244.92	0.85	849.6	2back	Block1	2back/STIM_020.jpg	100
248.887	1.006	1006.1	2back	Block1	2back/STIM_020.jpg	100
252.193	1.157	1156.6	2back	Block1	2back/STIM_021.jpg	99
256.878	0.853	852.7	2back	Block1	2back/STIM_021.jpg	100
260.674	0.865	865.0	2back	Block1	2back/STIM_021.jpg	99
264.509	0.858	857.8	2back	Block1	2back/STIM_022.jpg	100
268.64	0.664	663.8	2back	Block1	2back/STIM_022.jpg	99
272.478	0.526	525.6	2back	Block1	2back/STIM_022.jpg	100
275.85	0.709	709.1	2back	Block1	2back/STIM_023.jpg	99
279.807	1.058	1057.6	2back	Block1	2back/STIM_023.jpg	99
284.627	0.836	836.3	2back	Block1	2back/STIM_023.jpg	100
288.733	1.108	1108.0	2back	Block1	2back/STIM_024.jpg	100
293.049	0.889	889.0	2back	Block1	2back/STIM_024.jpg	100
297.006	0.905	905.2	2back	Block1	2back/STIM_024.jpg	99
300.43	0.814	814.3	2back	Block1	2back/STIM_025.jpg	99
303.316	0.702	702.4	2back	Block1	2back/STIM_025.jpg	99
307.917	0.616	615.6	2back	Block1	2back/STIM_025.jpg	99
311.018	0.964	964.4	2back	Block1	2back/STIM_026.jpg	100
315.155	0.729	728.6	2back	Block1	2back/STIM_026.jpg	100
318.455	0.962	961.8	2back	Block1	2back/STIM_026.jpg	99
323.123	0.956	956.1	2back	Block1	2back/STIM_027.jpg	99
327.741	0.604	603.7	2back	Block1	2back/STIM_027.jpg	99
330.74	1.079	1078.6	2back	Block1	2back/STIM_027.jpg	100
335.262	0.649	648.7	2back	Block1	2back/STIM_028.jpg	100
339.756	1.263	1262.7	2back	Block1	2back/STIM_028.jpg	99
344.054	0.85	849.5	2back	Block1	2back/STIM_028.jpg	99
347.445	1.245	1245.1	2back	Block1	2back/STIM_029.jpg	99
351.801	0.726	725.9	2back	Block1	2back/STIM_029.jpg	99
355.626	0.577	576.6	2back	Block1	2back/STIM_029.jpg	100
359.465	0.802	801.8	2back	Block1	2back/STIM_030.jpg	100
363.684	1.187	1187.4	2back	Block1	2back/STIM_030.jpg	100
367.138	0.582	581.5	2back	Block1	2back/STIM_030.jpg	100
370.558	0.722	721.6	2back	Block1	2back/STIM_031.jpg	100
373.631	0.748	748.2	2back	Block1	2back/STIM_031.jpg	99
377.095	0.765	764.8	2back	Block1	2back/STIM_031.jpg	99
381.41	0.932	932.3	2back	Block1	2back/STIM_032.jpg	99
386.19	0.918	918.0	2back	Block1	2back/STIM_032.jpg	100
390.372	0.564	564.5	2back	Block1	2back/STIM_032.jpg	100
394.296	1.355	1355.3	2back	Block1	2back/STIM_033.jpg	99
399.093	1.167	1167.2	2back	Block1	2back/STIM_033.jpg	100
402.352	0.615	615.0	2back	Block1	2back/STIM_033.jpg	99
406.631	1.052	1051.7	2back	Block1	2back/STIM_034.jpg	100
411.655	0.831	830.8	2back	Block1	2back/STIM_034.jpg	100
414.935	1.135	1134.9	2back	Block1	2back/STIM_034.jpg	99
418.406	1.152	1151.8	2back	Block1	2back/STIM_035.jpg	99
422.839	1.217	1217.0	2back	Block1	2back/STIM_035.jpg	99
426.933	0.863	862.9	2back	Block1	2back/STIM_035.jpg	100
431.513	1.331	1331.3	2back	Block1	2back/STIM_036.jpg	100
436.282	0.642	642.0	2back	Block1	2back/STIM_036.jpg	100
440.872	1.048	1047.6	2back	Block1	2back/STIM_036.jpg	100
444.815	1.313	1312.9	2back	Block1	2back/STIM_037.jpg	100
449.109	1.128	1128.3	2back	Block1	2back/STIM_037.jpg	100
453.288	0.563	562.7	2back	Block1	2back/STIM_037.jpg	100
455.88	0.896	895.8	2back	Block1	2back/STIM_038.jpg	99
460.324	0.811	811.2	2back	Block1	2back/STIM_038.jpg	100
464.745	0.681	680.8	2back	Block1	2back/STIM_038.jpg	100
467.931	0.84	839.8	2back	Block1	2back/STIM_039.jpg	100
471.55	0.89	889.7	2back	Block1	2back/STIM_039.jpg	100
474.581	0.812	812.0	2back	Block1	2back/STIM_039.jpg	100
478.044	0.452	451.9	0back	Block1	0back/STIM_000.jpg	100
481.178	0.737	737.1	0back	Block1	0back/STIM_000.jpg	99
485.627	0.482	482.4	0back	Block1	0back/STIM_000.jpg	100
488.426	0.694	694.3	0back	Block1	0back/STIM_001.jpg	99
492.802	0.49	489.7	0back	Block1	0back/STIM_001.jpg	100
495.599	0.696	696.5	0back	Block1	0back/STIM_001.jpg	100
499.101	0.399	399.2	0back	Block1	0back/STIM_002.jpg	99
501.947	0.531	531.2	0back	Block1	0back/STIM_002.jpg	99
504.559	0.406	405.8	0back	Block1	0back/STIM_002.jpg	99
508.254	0.702	702.0	0back	Block1	0back/STIM_003.jpg	99
511.561	0.532	532.3	0back	Block1	0back/STIM_003.jpg	99
515.268	0.589	589.4	0back	Block1	0back/STIM_003.jpg	100
519.496	0.496	496.3	0back	Block1	0back/STIM_004.jpg	100
523.738	0.395	394.7	0back	Block1	0back/STIM_004.jpg	99
527.024	0.405	405.2	0back	Block1	0back/STIM_004.jpg	99
531.09	0.61	609.6	0back	Block1	0back/STIM_005.jpg	100
535.109	0.622	621.9	0back	Block1	0back/STIM_005.jpg	99
538.725	0.549	548.6	0back	Block1	0back/STIM_005.jpg	100
542.607	0.602	601.5	0back	Block1	0back/STIM_006.jpg	99
545.474	0.631	631.3	0back	Block1	0back/STIM_006.jpg	100
550.08	0.702	701.8	0back	Block1	0back/STIM_006.jpg	99
554.5	0.64	640.1	0back	Block1	0back/STIM_007.jpg	100
558.763	0.459	459.1	0back	Block1	0back/STIM_007.jpg	100
561.488	0.473	472.8	0back	Block1	0back/STIM_007.jpg	99
563.995	0.536	536.0	0back	Block1	0back/STIM_008.jpg	100
566.889	0.54	540.3	0back	Block1	0back/STIM_008.jpg	99
570.28	0.402	401.6	0back	Block1	0back/STIM_008.jpg	99
574.656	0.526	526.3	0back	Block1	0back/STIM_009.jpg	100
578.408	0.394	393.9	0back	Block1	0back/STIM_009.jpg	99
581.293	0.532	532.5	0back	Block1	0back/STIM_009.jpg	100
585.063	0.728	728.2	0back	Block1	0back/STIM_010.jpg	100
588.906	0.457	457.1	0back	Block1	0back/STIM_010.jpg	99
592.506	0.685	685.1	0back	Block1	0back/STIM_010.jpg	99
596.152	0.678	678.2	0back	Block1	0back/STIM_011.jpg	99
600.287	0.437	437.3	0back	Block1	0back/STIM_011.jpg	99
604.339	0.562	562.1	0back	Block1	0back/STIM_011.jpg	100
607.257	0.692	692.5	0back	Block1	0back/STIM_012.jpg	100
610.824	0.545	545.4	0back	Block1	0back/STIM_012.jpg	100
614.323	0.511	510.6	0back	Block1	0back/STIM_012.jpg	99
618.207	0.524	524.4	0back	Block1	0back/STIM_013.jpg	100
622.532	0.673	673.4	0back	Block1	0back/STIM_013.jpg	100
626.355	0.467	467.0	0back	Block1	0back/STIM_013.jpg	100
629.375	0.772	771.9	0back	Block1	0back/STIM_014.jpg	99
632.395	0.618	618.2	0back	Block1	0back/STIM_014.jpg	99
636.032	0.602	601.8	0back	Block1	0back/STIM_014.jpg	99
639.407	0.726	726.0	0back	Block1	0back/STIM_015.jpg	100
642.348	0.619	618.8	0back	Block1	0back/STIM_015.jpg	99
645.705	0.411	411.0	0back	Block1	0back/STIM_015.jpg	99
649.774	0.664	663.5	0back	Block1	0back/STIM_016.jpg	99
653.769	0.691	691.1	0back	Block1	0back/STIM_016.jpg	99
656.588	0.661	660.6	0back	Block1	0back/STIM_016.jpg	100
660.227	0.639	638.8	0back	Block1	0back/STIM_017.jpg	100
663.075	0.75	750.2	0back	Block1	0back/STIM_017.jpg	100
666.249	0.404	403.7	0back	Block1	0back/STIM_017.jpg	99
668.788	0.613	613.2	0back	Block1	0back/STIM_018.jpg	100
672.794	0.563	563.3	0back	Block1	0back/STIM_018.jpg	100
677.366	0.484	484.3	0back	Block1	0back/STIM_018.jpg	99
679.95	0.563	563.1	0back	Block1	0back/STIM_019.jpg	99
684.273	0.755	755.0	0back	Block1	0back/STIM_019.jpg	100
688.648	0.488	488.2	0back	Block1	0back/STIM_019.jpg	100
691.601	1.07	1069.9	2back	Block2	2back/STIM_000.jpg	99
694.944	0.987	987.4	2back	Block2	2back/STIM_000.jpg	99
698.84	0.774	773.7	2back	Block2	2back/STIM_000.jpg	99
702.609	0.83	829.7	2back	Block2	2back/STIM_001.jpg	99
705.668	0.511	510.7	2back	Block2	2back/STIM_001.jpg	99
708.596	0.493	493.1	2back	Block2	2back/STIM_001.jpg	100
711.5	1.086	1086.1	2back	Block2	2back/STIM_002.jpg	100
714.842	0.694	694.3	2back	Block2	2back/STIM_002.jpg	99
719.524	1.004	1003.7	2back	Block2	2back/STIM_002.jpg	100
723.243	0.87	870.3	2back	Block2	2back/STIM_003.jpg	100
728.047	0.724	724.4	2back	Block2	2back/STIM_003.jpg	100
732.215	0.906	905.9	2back	Block2	2back/STIM_003.jpg	100
735.765	0.581	581.1	2back	Block2	2back/STIM_004.jpg	99
738.804	0.616	615.7	2back	Block2	2back/STIM_004.jpg	99
741.938	0.892	892.5	2back	Block2	2back/STIM_004.jpg	99
745.724	1.096	1095.6	2back	Block2	2back/STIM_005.jpg	100
750.091	0.825	824.6	2back	Block2	2back/STIM_005.jpg	100
753.51	0.464	464.5	2back	Block2	2back/STIM_005.jpg	99
757.978	0.851	850.9	2back	Block2	2back/STIM_006.jpg	100
762.253	0.768	768.3	2back	Block2	2back/STIM_006.jpg	100
766.516	0.912	911.7	2back	Block2	2back/STIM_006.jpg	100
771.352	0.505	505.1	2back	Block2	2back/STIM_007.jpg	99
775.799	0.696	696.2	2back	Block2	2back/STIM_007.jpg	99
778.829	0.521	521.0	2back	Block2	2back/STIM_007.jpg	99
783.357	0.626	626.5	2back	Block2	2back/STIM_008.jpg	99
787.695	0.562	562.4	2back	Block2	2back/STIM_008.jpg	99
791.107	0.644	644.5	2back	Block2	2back/STIM_008.jpg	99
794.923	0.955	954.6	2back	Block2	2back/STIM_009.jpg	100
799.32	0.593	593.3	2back	Block2	2back/STIM_009.jpg	99
802.745	0.5	499.6	2back	Block2	2back/STIM_009.jpg	100
805.637	0.852	852.4	2back	Block2	2back/STIM_010.jpg	99
809.457	0.833	833.2	2back	Block2	2back/STIM_010.jpg	100
814.182	0.654	653.7	2back	Block2	2back/STIM_010.jpg	100
817.385	0.688	687.5	2back	Block2	2back/STIM_011.jpg	99
821.936	0.764	764.0	2back	Block2	2back/STIM_011.jpg	100
826.487	0.677	676.7	2back	Block2	2back/STIM_011.jpg	100
829.88	1.013	1013.0	2back	Block2	2back/STIM_012.jpg	100
834.869	0.789	789.2	2back	Block2	2back/STIM_012.jpg	99
837.852	0.675	675.3	2back	Block2	2back/STIM_012.jpg	100
841.099	0.831	831.1	2back	Block2	2back/STIM_013.jpg	100
844.988	0.851	850.7	2back	Block2	2back/STIM_013.jpg	100
848.387	0.965	965.4	2back	Block2	2back/STIM_013.jpg	99
852.653	1.018	1017.5	2back	Block2	2back/STIM_014.jpg	99
856.464	0.891	891.1	2back	Block2	2back/STIM_014.jpg	99
859.647	0.74	739.9	2back	Block2	2back/STIM_014.jpg	99
862.836	0.608	607.7	2back	Block2	2back/STIM_015.jpg	100
866.156	1.076	1075.5	2back	Block2	2back/STIM_015.jpg	99
870.336	0.586	585.6	2back	Block2	2back/STIM_015.jpg	99
874.54	0.583	582.8	2back	Block2	2back/STIM_016.jpg	100
878.941	0.648	648.4	2back	Block2	2back/STIM_016.jpg	100
882.117	0.508	508.0	2back	Block2	2back/STIM_016.jpg	100
885.91	0.992	991.6	2back	Block2	2back/STIM_017.jpg	99
889.617	0.597	596.6	2back	Block2	2back/STIM_017.jpg	99
892.588	0.437	436.8	2back	Block2	2back/STIM_017.jpg	99
895.633	0.626	626.2	2back	Block2	2back/STIM_018.jpg	100
899.208	0.881	881.3	2back	Block2	2back/STIM_018.jpg	99
902.746	0.677	676.6	2back	Block2	2back/STIM_018.jpg	100
907.121	0.573	572.7	2back	Block2	2back/STIM_019.jpg	100
911.335	0.779	779.2	2back	Block2	2back/STIM_019.jpg	99
915.178	0.618	617.9	2back	Block2	2back/STIM_019.jpg	99
918.635	1.15	1150.0	2back	Block2	2back/STIM_020.jpg	99
922.397	0.52	520.4	2back	Block2	2back/STIM_020.jpg	100
925.274	0.478	477.8	2back	Block2	2back/STIM_020.jpg	99
929.753	0.547	547.0	2back	Block2	2back/STIM_021.jpg	99
932.644	1.022	1022.5	2back	Block2	2back/STIM_021.jpg	100
936.178	0.958	958.2	2back	Block2	2back/STIM_021.jpg	99
940.391	0.998	997.5	2back	Block2	2back/STIM_022.jpg	100
944.95	0.641	640.6	2back	Block2	2back/STIM_022.jpg	100
949.166	0.665	664.6	2back	Block2	2back/STIM_022.jpg	100
951.957	0.761	760.8	2back	Block2	2back/STIM_023.jpg	100
954.801	0.828	828.1	2back	Block2	2back/STIM_023.jpg	99
958.268	0.578	578.2	2back	Block2	2back/STIM_023.jpg	100
962.228	0.502	502.3	2back	Block2	2back/STIM_024.jpg	99
965.845	0.883	883.4	2back	Block2	2back/STIM_024.jpg	99
969.867	0.727	726.8	2back	Block2	2back/STIM_024.jpg	99
974.051	0.536	536.1	2back	Block2	2back/STIM_025.jpg	99
977.978	1.007	1007.0	2back	Block2	2back/STIM_025.jpg	99
982.215	0.783	783.1	2back	Block2	2back/STIM_025.jpg	100
985.137	0.743	742.9	2back	Block2	2back/STIM_026.jpg	99
989.828	0.991	990.9	2back	Block2	2back/STIM_026.jpg	99
994.576	0.595	595.1	2back	Block2	2back/STIM_026.jpg	99
998.493	0.911	911.4	2back	Block2	2back/STIM_027.jpg	100
1002.182	0.734	734.1	2back	Block2	2back/STIM_027.jpg	100
1006.467	0.75	750.2	2back	Block2	2back/STIM_027.jpg	99
1009.495	0.695	695.2	2back	Block2	2back/STIM_028.jpg	99
1012.851	0.787	787.0	2back	Block2	2back/STIM_028.jpg	99
1017.179	0.83	829.6	2back	Block2	2back/STIM_028.jpg	100
1020.937	0.522	521.8	2back	Block2	2back/STIM_029.jpg	100
1024.995	0.953	953.2	2back	Block2	2back/STIM_029.jpg	100
1029.088	0.923	923.1	2back	Block2	2back/STIM_029.jpg	99
1033.484	0.521	520.9	2back	Block2	2back/STIM_030.jpg	99
1037.622	0.905	904.9	2back	Block2	2back/STIM_030.jpg	100
1040.963	0.913	912.6	2back	Block2	2back/STIM_030.jpg	99
1044.756	0.732	731.8	2back	Block2	2back/STIM_031.jpg	100
1047.686	0.813	812.9	2back	Block2	2back/STIM_031.jpg	100
1051.183	0.935	934.6	2back	Block2	2back/STIM_031.jpg	100
1055.716	0.975	974.8	2back	Block2	2back/STIM_032.jpg	100
1059.125	0.795	794.8	2back	Block2	2back/STIM_032.jpg	100
1063.098	0.987	987.3	2back	Block2	2back/STIM_032.jpg	100
1067.271	0.892	892.2	2back	Block2	2back/STIM_033.jpg	100
1071.125	0.5	499.8	2back	Block2	2back/STIM_033.jpg	100
1074.301	0.617	616.6	2back	Block2	2back/STIM_033.jpg	99
1078.475	1.038	1037.5	2back	Block2	2back/STIM_034.jpg	100
1083.461	0.927	927.0	2back	Block2	2back/STIM_034.jpg	99
1086.832	0.962	962.5	2back	Block2	2back/STIM_034.jpg	99
1090.243	0.639	639.1	2back	Block2	2back/STIM_035.jpg	100
1093.709	1.013	1012.9	2back	Block2	2back/STIM_035.jpg	100
1098.242	0.778	778.5	2back	Block2	2back/STIM_035.jpg	99
1102.722	0.98	979.6	2back	Block2	2back/STIM_036.jpg	99
1106.588	0.671	671.1	2back	Block2	2back/STIM_036.jpg	100
1110.374	0.902	901.5	2back	Block2	2back/STIM_036.jpg	100
1115.182	0.943	942.8	2back	Block2	2back/STIM_037.jpg	99
1120.067	0.74	740.0	2back	Block2	2back/STIM_037.jpg	100
1124.421	0.617	617.2	2back	Block2	2back/STIM_037.jpg	99
1127.671	0.653	653.0	2back	Block2	2back/STIM_038.jpg	99
1131.999	0.892	892.0	2back	Block2	2back/STIM_038.jpg	100
1135.813	0.651	650.6	2back	Block2	2back/STIM_038.jpg	99
1140.111	1.086	1085.6	2back	Block2	2back/STIM_039.jpg	100
1144.399	0.588	588.4	2back	Block2	2back/STIM_039.jpg	99
1148.699	0.616	616.5	2back	Block2	2back/STIM_039.jpg	100
1152.284	0.478	478.1	0back	Block2	0back/STIM_000.jpg	99
1154.99	0.587	587.1	0back	Block2	0back/STIM_000.jpg	99
1158.608	0.395	394.9	0back	Block2	0back/STIM_000.jpg	99
1161.409	0.49	490.0	0back	Block2	0back/STIM_001.jpg	100
1165.82	0.394	394.3	0back	Block2	0back/STIM_001.jpg	99
1168.29	0.422	422.3	0back	Block2	0back/STIM_001.jpg	100
1171.615	0.58	579.9	0back	Block2	0back/STIM_002.jpg	99
1175.381	0.39	390.4	0back	Block2	0back/STIM_002.jpg	100
1178.786	0.578	577.9	0back	Block2	0back/STIM_002.jpg	99
1183.063	0.77	770.2	0back	Block2	0back/STIM_003.jpg	100
1186.277	0.581	580.8	0back	Block2	0back/STIM_003.jpg	100
1190.877	0.516	516.4	0back	Block2	0back/STIM_003.jpg	99
1194.642	0.522	522.2	0back	Block2	0back/STIM_004.jpg	99
1197.271	0.443	442.9	0back	Block2	0back/STIM_004.jpg	100
1201.446	0.703	703.4	0back	Block2	0back/STIM_004.jpg	100
1204.184	0.449	448.7	0back	Block2	0back/STIM_005.jpg	100
1208.381	0.638	638.4	0back	Block2	0back/STIM_005.jpg	100
1211.91	0.553	553.2	0back	Block2	0back/STIM_005.jpg	99
1216.379	0.444	443.6	0back	Block2	0back/STIM_006.jpg	99
1219.498	0.756	756.2	0back	Block2	0back/STIM_006.jpg	100
1222.573	0.67	669.5	0back	Block2	0back/STIM_006.jpg	100
1227.257	0.42	420.2	0back	Block2	0back/STIM_007.jpg	99
1231.006	0.407	406.7	0back	Block2	0back/STIM_007.jpg	100
1234.3	0.773	772.7	0back	Block2	0back/STIM_007.jpg	99
1237.214	0.567	567.3	0back	Block2	0back/STIM_008.jpg	100
1241.686	0.597	597.1	0back	Block2	0back/STIM_008.jpg	100
1245.769	0.63	630.4	0back	Block2	0back/STIM_008.jpg	99
1250.364	0.456	456.5	0back	Block2	0back/STIM_009.jpg	99
1253.665	0.406	405.6	0back	Block2	0back/STIM_009.jpg	100
1256.942	0.588	588.5	0back	Block2	0back/STIM_009.jpg	100
1261.106	0.542	542.4	0back	Block2	0back/STIM_010.jpg	99
1264.789	0.624	624.0	0back	Block2	0back/STIM_010.jpg	100
1268.115	0.678	678.3	0back	Block2	0back/STIM_010.jpg	99
1272.356	0.64	639.7	0back	Block2	0back/STIM_011.jpg	100
1276.178	0.639	639.2	0back	Block2	0back/STIM_011.jpg	100
1279.515	0.726	726.4	0back	Block2	0back/STIM_011.jpg	100
1284.111	0.615	615.1	0back	Block2	0back/STIM_012.jpg	100
1288.53	0.764	764.3	0back	Block2	0back/STIM_012.jpg	99
1292.764	0.484	483.6	0back	Block2	0back/STIM_012.jpg	99
1296.92	0.739	739.3	0back	Block2	0back/STIM_013.jpg	100
1300.968	0.497	496.6	0back	Block2	0back/STIM_013.jpg	100
1304.4	0.638	638.5	0back	Block2	0back/STIM_013.jpg	100
1308.911	0.718	717.7	0back	Block2	0back/STIM_014.jpg	99
1311.872	0.72	720.2	0back	Block2	0back/STIM_014.jpg	99
1316.534	0.514	514.1	0back	Block2	0back/STIM_014.jpg	99
1319.966	0.516	516.4	0back	Block2	0back/STIM_015.jpg	100
1324.364	0.767	766.9	0back	Block2	0back/STIM_015.jpg	99
1328.569	0.524	524.1	0back	Block2	0back/STIM_015.jpg	99
1331.481	0.452	452.5	0back	Block2	0back/STIM_016.jpg	99
1334.326	0.472	472.5	0back	Block2	0back/STIM_016.jpg	99
1338.361	0.647	646.7	0back	Block2	0back/STIM_016.jpg	100
1342.147	0.494	493.9	0back	Block2	0back/STIM_017.jpg	99
1345.434	0.528	527.7	0back	Block2	0back/STIM_017.jpg	100
1348.525	0.484	484.2	0back	Block2	0back/STIM_017.jpg	99
1351.661	0.394	394.5	0back	Block2	0back/STIM_018.jpg	100
1355.752	0.475	475.0	0back	Block2	0back/STIM_018.jpg	100
1360.234	0.627	626.8	0back	Block2	0back/STIM_018.jpg	99
1364.015	0.672	672.4	0back	Block2	0back/STIM_019.jpg	100
1367.574	0.707	707.4	0back	Block2	0back/STIM_019.jpg	100
1371.669	0.578	578.0	0back	Block2	0back/STIM_019.jpg	100
1376.226	0.573	572.9	2back	Block3	2back/STIM_000.jpg	99
1380.657	0.907	906.8	2back	Block3	2back/STIM_000.jpg	100
1384.395	0.843	842.9	2back	Block3	2back/STIM_000.jpg	99
1388.859	0.842	841.6	2back	Block3	2back/STIM_001.jpg	100
1392.711	0.938	938.1	2back	Block3	2back/STIM_001.jpg	100
1396.502	0.645	645.4	2back	Block3	2back/STIM_001.jpg	100
1399.292	0.684	684.5	2back	Block3	2back/STIM_002.jpg	99
1402.212	0.724	724.5	2back	Block3	2back/STIM_002.jpg	100
1405.761	0.576	576.0	2back	Block3	2back/STIM_002.jpg	100
1409.705	0.784	784.1	2back	Block3	2back/STIM_003.jpg	100
1412.614	0.602	602.4	2back	Block3	2back/STIM_003.jpg	99
1416.878	0.832	831.7	2back	Block3	2back/STIM_003.jpg	100
1420.154	0.42	419.9	2back	Block3	2back/STIM_004.jpg	99
1423.395	0.488	488.0	2back	Block3	2back/STIM_004.jpg	99
1426.539	0.576	576.4	2back	Block3	2back/STIM_004.jpg	99
1430.09	0.536	536.3	2back	Block3	2back/STIM_005.jpg	100
1434.47	0.947	947.1	2back	Block3	2back/STIM_005.jpg	99
1439.104	0.761	761.3	2back	Block3	2back/STIM_005.jpg	100
1443.773	0.946	945.9	2back	Block3	2back/STIM_006.jpg	100
1447.936	0.922	922.4	2back	Block3	2back/STIM_006.jpg	99
1451.65	0.481	481.4	2back	Block3	2back/STIM_006.jpg	99
1455.94	0.542	542.5	2back	Block3	2back/STIM_007.jpg	99
1459.89	0.581	581.1	2back	Block3	2back/STIM_007.jpg	99
1464.39	0.579	579.4	2back	Block3	2back/STIM_007.jpg	100
1468.886	0.493	492.9	2back	Block3	2back/STIM_008.jpg	100
1473.0	0.648	648.1	2back	Block3	2back/STIM_008.jpg	100
1477.001	0.808	808.0	2back	Block3	2back/STIM_008.jpg	99
1480.036	0.631	631.0	2back	Block3	2back/STIM_009.jpg	100
1483.295	0.526	525.7	2back	Block3	2back/STIM_009.jpg	99
1485.87	0.612	612.3	2back	Block3	2back/STIM_009.jpg	99
1489.116	0.63	630.4	2back	Block3	2back/STIM_010.jpg	100
1493.136	0.423	423.4	2back	Block3	2back/STIM_010.jpg	100
1496.695	0.542	541.8	2back	Block3	2back/STIM_010.jpg	99
1499.548	0.577	576.8	2back	Block3	2back/STIM_011.jpg	100
1503.747	0.799	798.6	2back	Block3	2back/STIM_011.jpg	100
1506.701	0.86	860.2	2back	Block3	2back/STIM_011.jpg	99
1510.719	0.418	417.6	2back	Block3	2back/STIM_012.jpg	100
1513.546	0.513	513.1	2back	Block3	2back/STIM_012.jpg	100
1517.381	0.82	819.9	2back	Block3	2back/STIM_012.jpg	100
1522.181	0.424	424.5	2back	Block3	2back/STIM_013.jpg	100
1526.423	0.852	851.8	2back	Block3	2back/STIM_013.jpg	100
1529.811	0.707	706.6	2back	Block3	2back/STIM_013.jpg	99
1534.527	0.779	779.0	2back	Block3	2back/STIM_014.jpg	99
1537.672	0.91	910.1	2back	Block3	2back/STIM_014.jpg	99
1542.144	0.765	765.1	2back	Block3	2back/STIM_014.jpg	99
1545.093	0.659	658.9	2back	Block3	2back/STIM_015.jpg	100
1548.593	0.416	416.1	2back	Block3	2back/STIM_015.jpg	99
1552.524	0.569	569.3	2back	Block3	2back/STIM_015.jpg	100
1555.638	0.905	905.2	2back	Block3	2back/STIM_016.jpg	100
1558.599	0.769	769.4	2back	Block3	2back/STIM_016.jpg	99
1562.786	0.756	756.5	2back	Block3	2back/STIM_016.jpg	100
1565.636	0.729	728.8	2back	Block3	2back/STIM_017.jpg	99
1569.892	0.59	590.5	2back	Block3	2back/STIM_017.jpg	99
1574.35	0.456	455.8	2back	Block3	2back/STIM_017.jpg	100
1577.904	0.53	529.9	2back	Block3	2back/STIM_018.jpg	99
1581.316	0.712	711.9	2back	Block3	2back/STIM_018.jpg	99
1585.064	0.639	639.3	2back	Block3	2back/STIM_018.jpg	100
1588.413	0.623	622.9	2back	Block3	2back/STIM_019.jpg	99
1591.493	0.606	606.3	2back	Block3	2back/STIM_019.jpg	100
1595.427	0.757	756.6	2back	Block3	2back/STIM_019.jpg	99
1600.159	0.911	910.6	2back	Block3	2back/STIM_020.jpg	100
1603.262	0.456	455.5	2back	Block3	2back/STIM_020.jpg	99
1606.153	0.607	607.4	2back	Block3	2back/STIM_020.jpg	99
1609.811	0.414	413.9	2back	Block3	2back/STIM_021.jpg	99
1613.524	0.446	446.5	2back	Block3	2back/STIM_021.jpg	100
1616.63	0.434	433.7	2back	Block3	2back/STIM_021.jpg	99
1620.671	0.513	513.2	2back	Block3	2back/STIM_022.jpg	99
1624.539	0.904	904.4	2back	Block3	2back/STIM_022.jpg	100
1628.331	0.529	528.6	2back	Block3	2back/STIM_022.jpg	99
1632.134	0.718	717.5	2back	Block3	2back/STIM_023.jpg	99
1635.504	0.744	743.5	2back	Block3	2back/STIM_023.jpg	100
1639.082	0.656	655.5	2back	Block3	2back/STIM_023.jpg	99
1642.235	0.434	433.7	2back	Block3	2back/STIM_024.jpg	100
1644.913	0.788	787.5	2back	Block3	2back/STIM_024.jpg	99
1649.715	0.788	787.8	2back	Block3	2back/STIM_024.jpg	100
1652.848	0.869	869.4	2back	Block3	2back/STIM_025.jpg	99
1657.16	0.415	414.8	2back	Block3	2back/STIM_025.jpg	99
1660.459	0.864	864.1	2back	Block3	2back/STIM_025.jpg	100
1664.41	0.419	418.8	2back	Block3	2back/STIM_026.jpg	100
1667.401	0.417	417.1	2back	Block3	2back/STIM_026.jpg	99
1671.505	0.676	676.2	2back	Block3	2back/STIM_026.jpg	100
1676.203	0.863	863.4	2back	Block3	2back/STIM_027.jpg	99
1680.947	0.478	478.1	2back	Block3	2back/STIM_027.jpg	99
1684.706	0.747	747.4	2back	Block3	2back/STIM_027.jpg	99
1688.882	0.447	446.8	2back	Block3	2back/STIM_028.jpg	100
1692.187	0.808	808.1	2back	Block3	2back/STIM_028.jpg	99
1696.156	0.648	647.9	2back	Block3	2back/STIM_028.jpg	99
1699.261	0.468	467.7	2back	Block3	2back/STIM_029.jpg	100
1703.603	0.494	493.7	2back	Block3	2back/STIM_029.jpg	100
1707.329	0.891	891.3	2back	Block3	2back/STIM_029.jpg	100
1711.115	0.94	939.7	2back	Block3	2back/STIM_030.jpg	100
1715.897	0.925	924.6	2back	Block3	2back/STIM_030.jpg	99
1720.432	0.828	827.5	2back	Block3	2back/STIM_030.jpg	99
1725.076	0.68	680.2	2back	Block3	2back/STIM_031.jpg	100
1728.582	0.943	943.4	2back	Block3	2back/STIM_031.jpg	100
1732.949	0.651	651.2	2back	Block3	2back/STIM_031.jpg	100
1736.318	0.516	515.9	2back	Block3	2back/STIM_032.jpg	100
1740.414	0.928	928.3	2back	Block3	2back/STIM_032.jpg	99
1743.546	0.864	863.9	2back	Block3	2back/STIM_032.jpg	99
1747.525	0.926	926.1	2back	Block3	2back/STIM_033.jpg	99
1750.871	0.527	527.3	2back	Block3	2back/STIM_033.jpg	100
1755.004	0.711	710.9	2back	Block3	2back/STIM_033.jpg	99
1758.518	0.57	569.5	2back	Block3	2back/STIM_034.jpg	99
1763.031	0.71	710.3	2back	Block3	2back/STIM_034.jpg	100
1767.305	0.486	485.6	2back	Block3	2back/STIM_034.jpg	100
1771.664	0.869	869.3	2back	Block3	2back/STIM_035.jpg	100
1776.047	0.873	873.2	2back	Block3	2back/STIM_035.jpg	100
1779.295	0.72	719.7	2back	Block3	2back/STIM_035.jpg	99
1782.398	0.712	711.6	2back	Block3	2back/STIM_036.jpg	99
1785.546	0.651	651.4	2back	Block3	2back/STIM_036.jpg	100
1789.574	0.839	838.8	2back	Block3	2back/STIM_036.jpg	100
1793.086	0.798	798.5	2back	Block3	2back/STIM_037.jpg	100
1797.595	0.946	946.3	2back	Block3	2back/STIM_037.jpg	99
1801.27	0.465	465.2	2back	Block3	2back/STIM_037.jpg	99
1803.913	0.943	942.7	2back	Block3	2back/STIM_038.jpg	100
1808.405	0.692	691.7	2back	Block3	2back/STIM_038.jpg	99
1811.235	0.903	902.9	2back	Block3	2back/STIM_038.jpg	100
1815.975	0.567	566.9	2back	Block3	2back/STIM_039.jpg	100
1820.433	0.896	896.5	2back	Block3	2back/STIM_039.jpg	99
1823.508	0.556	556.2	2back	Block3	2back/STIM_039.jpg	100
1827.057	0.47	469.9	0back	Block3	0back/STIM_000.jpg	100
1831.224	0.583	583.2	0back	Block3	0back/STIM_000.jpg	99
1835.551	0.769	768.8	0back	Block3	0back/STIM_000.jpg	99
1840.224	0.576	575.5	0back	Block3	0back/STIM_001.jpg	99
1843.456	0.664	664.1	0back	Block3	0back/STIM_001.jpg	100
1846.484	0.695	694.9	0back	Block3	0back/STIM_001.jpg	99
1850.237	0.661	661.2	0back	Block3	0back/STIM_002.jpg	99
1854.055	0.518	517.5	0back	Block3	0back/STIM_002.jpg	99
1856.641	0.437	437.3	0back	Block3	0back/STIM_002.jpg	99
1859.633	0.748	747.6	0back	Block3	0back/STIM_003.jpg	99
1862.789	0.766	765.8	0back	Block3	0back/STIM_003.jpg	100
1867.464	0.573	572.9	0back	Block3	0back/STIM_003.jpg	99
1871.267	0.618	618.2	0back	Block3	0back/STIM_004.jpg	100
1874.99	0.494	494.0	0back	Block3	0back/STIM_004.jpg	99
1878.162	0.577	577.2	0back	Block3	0back/STIM_004.jpg	100
1880.931	0.478	477.5	0back	Block3	0back/STIM_005.jpg	99
1884.701	0.403	403.2	0back	Block3	0back/STIM_005.jpg	99
1888.605	0.632	632.2	0back	Block3	0back/STIM_005.jpg	99
1892.516	0.654	653.8	0back	Block3	0back/STIM_006.jpg	99
1895.568	0.739	738.8	0back	Block3	0back/STIM_006.jpg	100
1899.059	0.448	448.1	0back	Block3	0back/STIM_006.jpg	100
1902.954	0.556	556.5	0back	Block3	0back/STIM_007.jpg	99
1907.099	0.595	595.0	0back	Block3	0back/STIM_007.jpg	99
1910.228	0.564	563.5	0back	Block3	0back/STIM_007.jpg	99
1913.916	0.43	430.4	0back	Block3	0back/STIM_008.jpg	99
1918.064	0.765	765.2	0back	Block3	0back/STIM_008.jpg	100
1922.313	0.473	472.6	0back	Block3	0back/STIM_008.jpg	100
1926.023	0.67	669.7	0back	Block3	0back/STIM_009.jpg	99
1929.971	0.748	748.2	0back	Block3	0back/STIM_009.jpg	100
1934.101	0.553	552.6	0back	Block3	0back/STIM_009.jpg	100
1936.749	0.443	443.1	0back	Block3	0back/STIM_010.jpg	100
1940.962	0.575	574.8	0back	Block3	0back/STIM_010.jpg	99
1944.003	0.504	503.9	0back	Block3	0back/STIM_010.jpg	100
1946.977	0.403	402.8	0back	Block3	0back/STIM_011.jpg	100
1949.467	0.604	604.5	0back	Block3	0back/STIM_011.jpg	99
1953.227	0.59	590.2	0back	Block3	0back/STIM_011.jpg	99
1956.435	0.495	495.3	0back	Block3	0back/STIM_012.jpg	99
1960.698	0.429	429.3	0back	Block3	0back/STIM_012.jpg	100
1963.281	0.515	514.9	0back	Block3	0back/STIM_012.jpg	99
1965.856	0.569	569.4	0back	Block3	0back/STIM_013.jpg	99
1970.297	0.703	703.0	0back	Block3	0back/STIM_013.jpg	99
1973.887	0.727	726.7	0back	Block3	0back/STIM_013.jpg	100
1978.024	0.449	449.0	0back	Block3	0back/STIM_014.jpg	99
1981.176	0.703	703.3	0back	Block3	0back/STIM_014.jpg	100
1984.35	0.476	475.8	0back	Block3	0back/STIM_014.jpg	99
1988.759	0.461	461.2	0back	Block3	0back/STIM_015.jpg	99
1992.888	0.77	770.5	0back	Block3	0back/STIM_015.jpg	99
1995.996	0.512	511.6	0back	Block3	0back/STIM_015.jpg	99
1999.011	0.39	389.8	0back	Block3	0back/STIM_016.jpg	99
2002.573	0.416	415.6	0back	Block3	0back/STIM_016.jpg	99
2006.272	0.54	539.7	0back	Block3	0back/STIM_016.jpg	100
2010.04	0.63	630.5	0back	Block3	0back/STIM_017.jpg	100
2013.006	0.516	515.6	0back	Block3	0back/STIM_017.jpg	99
2016.688	0.601	600.7	0back	Block3	0back/STIM_017.jpg	99
2019.661	0.706	706.1	0back	Block3	0back/STIM_018.jpg	99
2024.09	0.444	444.3	0back	Block3	0back/STIM_018.jpg	99
2028.111	0.526	526.1	0back	Block3	0back/STIM_018.jpg	99
2032.005	0.731	730.8	0back	Block3	0back/STIM_019.jpg	100
2036.564	0.579	579.0	0back	Block3	0back/STIM_019.jpg	99
2040.239	0.767	766.8	0back	Block3	0back/STIM_019.jpg	99
2043.135	0.568	568.1	2back	Block4	2back/STIM_000.jpg	100
2047.306	0.671	670.7	2back	Block4	2back/STIM_000.jpg	100
2051.021	0.72	720.5	2back	Block4	2back/STIM_000.jpg	99
2054.108	0.885	885.3	2back	Block4	2back/STIM_001.jpg	99
2058.934	0.533	532.6	2back	Block4	2back/STIM_001.jpg	99
2061.698	0.457	456.8	2back	Block4	2back/STIM_001.jpg	100
2065.168	0.853	853.0	2back	Block4	2back/STIM_002.jpg	99
2068.635	0.418	418.1	2back	Block4	2back/STIM_002.jpg	99
2071.337	0.658	657.7	2back	Block4	2back/STIM_002.jpg	99
2075.942	0.603	602.8	2back	Block4	2back/STIM_003.jpg	99
2080.3	0.724	724.5	2back	Block4	2back/STIM_003.jpg	99
2085.011	0.704	704.4	2back	Block4	2back/STIM_003.jpg	100
2089.185	0.734	734.4	2back	Block4	2back/STIM_004.jpg	99
2093.521	0.708	707.8	2back	Block4	2back/STIM_004.jpg	99
2096.547	0.505	504.8	2back	Block4	2back/STIM_004.jpg	99
2100.056	0.42	420.5	2back	Block4	2back/STIM_005.jpg	100
2102.568	0.934	934.1	2back	Block4	2back/STIM_005.jpg	100
2107.107	0.499	499.4	2back	Block4	2back/STIM_005.jpg	99
2110.712	0.497	496.6	2back	Block4	2back/STIM_006.jpg	100
2113.494	0.947	946.8	2back	Block4	2back/STIM_006.jpg	99
2116.523	0.862	861.7	2back	Block4	2back/STIM_006.jpg	100
2120.002	0.905	905.0	2back	Block4	2back/STIM_007.jpg	100
2124.465	0.594	593.8	2back	Block4	2back/STIM_007.jpg	99
2128.556	0.673	673.1	2back	Block4	2back/STIM_007.jpg	100
2131.904	0.888	888.0	2back	Block4	2back/STIM_008.jpg	100
2136.056	0.435	434.8	2back	Block4	2back/STIM_008.jpg	99
2139.131	0.481	480.7	2back	Block4	2back/STIM_008.jpg	99
2141.744	0.668	667.7	2back	Block4	2back/STIM_009.jpg	99
2144.952	0.702	701.5	2back	Block4	2back/STIM_009.jpg	99
2148.523	0.509	509.5	2back	Block4	2back/STIM_009.jpg	100
2153.022	0.865	865.2	2back	Block4	2back/STIM_010.jpg	100
2156.539	0.794	794.1	2back	Block4	2back/STIM_010.jpg	99
2160.048	0.778	778.3	2back	Block4	2back/STIM_010.jpg	100
2163.649	0.853	853.3	2back	Block4	2back/STIM_011.jpg	100
2167.484	0.561	561.1	2back	Block4	2back/STIM_011.jpg	100
2170.737	0.464	464.1	2back	Block4	2back/STIM_011.jpg	99
2174.378	0.601	600.7	2back	Block4	2back/STIM_012.jpg	100
2177.445	0.738	738.2	2back	Block4	2back/STIM_012.jpg	99
2180.581	0.918	917.9	2back	Block4	2back/STIM_012.jpg	99
2183.776	0.737	736.7	2back	Block4	2back/STIM_013.jpg	99
2187.817	0.865	864.8	2back	Block4	2back/STIM_013.jpg	99
2192.168	0.461	460.9	2back	Block4	2back/STIM_013.jpg	100
2196.238	0.663	662.9	2back	Block4	2back/STIM_014.jpg	99
2200.293	0.586	585.6	2back	Block4	2back/STIM_014.jpg	100
2204.208	0.9	899.8	2back	Block4	2back/STIM_014.jpg	99
2208.043	0.877	876.7	2back	Block4	2back/STIM_015.jpg	99
2210.96	0.794	794.3	2back	Block4	2back/STIM_015.jpg	99
2214.951	0.418	418.0	2back	Block4	2back/STIM_015.jpg	100
2218.789	0.59	590.5	2back	Block4	2back/STIM_016.jpg	99
2221.523	0.714	714.5	2back	Block4	2back/STIM_016.jpg	100
2226.165	0.531	530.8	2back	Block4	2back/STIM_016.jpg	99
2230.368	0.942	941.6	2back	Block4	2back/STIM_017.jpg	99
2233.882	0.71	709.7	2back	Block4	2back/STIM_017.jpg	100
2236.883	0.577	576.9	2back	Block4	2back/STIM_017.jpg	100
2239.553	0.588	587.7	2back	Block4	2back/STIM_018.jpg	100
2243.584	0.561	560.7	2back	Block4	2back/STIM_018.jpg	100
2247.8	0.444	444.0	2back	Block4	2back/STIM_018.jpg	100
2251.51	0.929	928.9	2back	Block4	2back/STIM_019.jpg	99
2254.64	0.814	813.7	2back	Block4	2back/STIM_019.jpg	99
2258.342	0.833	832.9	2back	Block4	2back/STIM_019.jpg	99
2263.056	0.63	629.5	2back	Block4	2back/STIM_020.jpg	100
2266.125	0.567	566.8	2back	Block4	2back/STIM_020.jpg	100
2270.529	0.64	640.5	2back	Block4	2back/STIM_020.jpg	99
2274.32	0.703	703.3	2back	Block4	2back/STIM_021.jpg	99
2278.685	0.742	742.5	2back	Block4	2back/STIM_021.jpg	99
2282.14	0.887	887.3	2back	Block4	2back/STIM_021.jpg	99
2285.375	0.946	945.7	2back	Block4	2back/STIM_022.jpg	100
2290.309	0.424	424.3	2back	Block4	2back/STIM_022.jpg	99
2294.387	0.658	658.0	2back	Block4	2back/STIM_022.jpg	100
2297.814	0.516	515.5	2back	Block4	2back/STIM_023.jpg	100
2301.2	0.664	663.8	2back	Block4	2back/STIM_023.jpg	100
2304.443	0.638	638.5	2back	Block4	2back/STIM_023.jpg	99
2308.047	0.822	821.6	2back	Block4	2back/STIM_024.jpg	99
2311.098	0.94	940.0	2back	Block4	2back/STIM_024.jpg	99
2315.455	0.806	806.4	2back	Block4	2back/STIM_024.jpg	100
2319.632	0.466	465.6	2back	Block4	2back/STIM_025.jpg	99
2323.629	0.699	698.7	2back	Block4	2back/STIM_025.jpg	100
2326.554	0.471	471.0	2back	Block4	2back/STIM_025.jpg	99
2330.865	0.879	878.6	2back	Block4	2back/STIM_026.jpg	100
2334.63	0.422	422.0	2back	Block4	2back/STIM_026.jpg	100
2337.176	0.49	489.9	2back	Block4	2back/STIM_026.jpg	100
2340.92	0.915	915.0	2back	Block4	2back/STIM_027.jpg	100
2345.592	0.84	840.5	2back	Block4	2back/STIM_027.jpg	100
2348.713	0.585	585.3	2back	Block4	2back/STIM_027.jpg	99
2351.501	0.864	863.8	2back	Block4	2back/STIM_028.jpg	99
2355.907	0.856	855.6	2back	Block4	2back/STIM_028.jpg	100
2359.166	0.671	670.7	2back	Block4	2back/STIM_028.jpg	100
2362.958	0.44	439.6	2back	Block4	2back/STIM_029.jpg	99
2367.009	0.609	608.8	2back	Block4	2back/STIM_029.jpg	100
2369.937	0.817	816.8	2back	Block4	2back/STIM_029.jpg	99
2373.495	0.763	762.9	2back	Block4	2back/STIM_030.jpg	99
2376.712	0.665	664.8	2back	Block4	2back/STIM_030.jpg	99
2381.196	0.582	582.0	2back	Block4	2back/STIM_030.jpg	99
2384.763	0.56	560.4	2back	Block4	2back/STIM_031.jpg	99
2389.051	0.915	915.4	2back	Block4	2back/STIM_031.jpg	99
2392.109	0.713	713.4	2back	Block4	2back/STIM_031.jpg	99
2395.284	0.55	550.0	2back	Block4	2back/STIM_032.jpg	100
2398.059	0.503	503.4	2back	Block4	2back/STIM_032.jpg	99
2401.748	0.408	407.9	2back	Block4	2back/STIM_032.jpg	99
2405.482	0.866	865.9	2back	Block4	2back/STIM_033.jpg	99
2409.352	0.692	692.3	2back	Block4	2back/STIM_033.jpg	100
2412.178	0.622	621.6	2back	Block4	2back/STIM_033.jpg	99
2415.266	0.905	905.3	2back	Block4	2back/STIM_034.jpg	100
2419.553	0.913	913.3	2back	Block4	2back/STIM_034.jpg	100
2423.006	0.584	584.1	2back	Block4	2back/STIM_034.jpg	100
2426.238	0.545	545.4	2back	Block4	2back/STIM_035.jpg	100
2430.19	0.639	639.3	2back	Block4	2back/STIM_035.jpg	99
2433.758	0.467	467.4	2back	Block4	2back/STIM_035.jpg	100
2437.071	0.636	636.3	2back	Block4	2back/STIM_036.jpg	100
2440.46	0.694	694.4	2back	Block4	2back/STIM_036.jpg	100
2445.137	0.794	794.0	2back	Block4	2back/STIM_036.jpg	99
2449.485	0.778	778.2	2back	Block4	2back/STIM_037.jpg	99
2453.638	0.674	673.7	2back	Block4	2back/STIM_037.jpg	100
2457.708	0.89	890.2	2back	Block4	2back/STIM_037.jpg	99
2462.319	0.424	424.0	2back	Block4	2back/STIM_038.jpg	100
2465.627	0.479	478.9	2back	Block4	2back/STIM_038.jpg	99
2470.089	0.944	944.4	2back	Block4	2back/STIM_038.jpg	99
2473.511	0.777	777.3	2back	Block4	2back/STIM_039.jpg	99
2477.72	0.871	871.4	2back	Block4	2back/STIM_039.jpg	99
2482.402	0.546	546.2	2back	Block4	2back/STIM_039.jpg	99
2485.118	0.519	519.1	0back	Block4	0back/STIM_000.jpg	99
2489.558	0.646	645.5	0back	Block4	0back/STIM_000.jpg	100
2492.693	0.459	459.2	0back	Block4	0back/STIM_000.jpg	99
2495.421	0.645	645.2	0back	Block4	0back/STIM_001.jpg	100
2498.829	0.42	419.9	0back	Block4	0back/STIM_001.jpg	99
2502.981	0.444	444.3	0back	Block4	0back/STIM_001.jpg	100
2505.837	0.647	646.6	0back	Block4	0back/STIM_002.jpg	99
2509.681	0.73	730.2	0back	Block4	0back/STIM_002.jpg	99
2512.79	0.71	709.5	0back	Block4	0back/STIM_002.jpg	99
2516.762	0.746	745.6	0back	Block4	0back/STIM_003.jpg	99
2520.995	0.534	534.1	0back	Block4	0back/STIM_003.jpg	99
2524.901	0.456	455.7	0back	Block4	0back/STIM_003.jpg	100
2529.214	0.646	645.8	0back	Block4	0back/STIM_004.jpg	100
2532.583	0.694	693.8	0back	Block4	0back/STIM_004.jpg	99
2535.733	0.469	468.6	0back	Block4	0back/STIM_004.jpg	100
2539.307	0.445	444.6	0back	Block4	0back/STIM_005.jpg	99
2542.385	0.596	596.1	0back	Block4	0back/STIM_005.jpg	100
2545.982	0.74	739.7	0back	Block4	0back/STIM_005.jpg	99
2549.647	0.406	405.7	0back	Block4	0back/STIM_006.jpg	100
2553.074	0.436	436.2	0back	Block4	0back/STIM_006.jpg	100
2556.535	0.46	459.7	0back	Block4	0back/STIM_006.jpg	99
2560.198	0.549	549.2	0back	Block4	0back/STIM_007.jpg	100
2563.914	0.51	509.9	0back	Block4	0back/STIM_007.jpg	100
2568.251	0.638	637.7	0back	Block4	0back/STIM_007.jpg	100
2572.704	0.642	642.4	0back	Block4	0back/STIM_008.jpg	100
2576.06	0.743	743.4	0back	Block4	0back/STIM_008.jpg	100
2579.757	0.678	677.8	0back	Block4	0back/STIM_008.jpg	100
2583.106	0.408	407.6	0back	Block4	0back/STIM_009.jpg	100
2587.453	0.723	723.0	0back	Block4	0back/STIM_009.jpg	100
2591.009	0.588	587.7	0back	Block4	0back/STIM_009.jpg	99
2593.774	0.673	673.1	0back	Block4	0back/STIM_010.jpg	100
2597.948	0.587	586.7	0back	Block4	0back/STIM_010.jpg	100
2602.5	0.7	700.1	0back	Block4	0back/STIM_010.jpg	100
2605.422	0.536	536.1	0back	Block4	0back/STIM_011.jpg	100
2609.535	0.655	655.4	0back	Block4	0back/STIM_011.jpg	100
2614.026	0.561	561.0	0back	Block4	0back/STIM_011.jpg	99
2617.498	0.684	683.7	0back	Block4	0back/STIM_012.jpg	100
2621.795	0.425	424.7	0back	Block4	0back/STIM_012.jpg	99
2625.254	0.54	539.7	0back	Block4	0back/STIM_012.jpg	100
2628.99	0.523	523.2	0back	Block4	0back/STIM_013.jpg	100
2632.769	0.763	763.3	0back	Block4	0back/STIM_013.jpg	100
2637.14	0.754	753.5	0back	Block4	0back/STIM_013.jpg	100
2640.283	0.667	667.4	0back	Block4	0back/STIM_014.jpg	99
2644.598	0.702	701.6	0back	Block4	0back/STIM_014.jpg	99
2648.963	0.468	468.1	0back	Block4	0back/STIM_014.jpg	99
2652.593	0.414	414.1	0back	Block4	0back/STIM_015.jpg	99
2655.727	0.741	741.0	0back	Block4	0back/STIM_015.jpg	99
2659.354	0.479	479.0	0back	Block4	0back/STIM_015.jpg	99
2662.086	0.512	512.3	0back	Block4	0back/STIM_016.jpg	100
2666.231	0.462	462.5	0back	Block4	0back/STIM_016.jpg	100
2668.936	0.505	505.1	0back	Block4	0back/STIM_016.jpg	100
2672.073	0.491	491.0	0back	Block4	0back/STIM_017.jpg	99
2675.266	0.613	613.0	0back	Block4	0back/STIM_017.jpg	100
2679.469	0.677	677.4	0back	Block4	0back/STIM_017.jpg	100
2683.118	0.547	547.4	0back	Block4	0back/STIM_018.jpg	99
2686.873	0.698	697.5	0back	Block4	0back/STIM_018.jpg	99
2689.608	0.483	483.3	0back	Block4	0back/STIM_018.jpg	100
2693.414	0.77	770.2	0back	Block4	0back/STIM_019.jpg	99
2697.08	0.684	684.2	0back	Block4	0back/STIM_019.jpg	100
2700.704	0.488	487.9	0back	Block4	0back/STIM_019.jpg	99
