onset	duration	accuracy_binary	trial_type	learning_stage	stimulus
0.0	1.003	1	incongruent	Block1	incongruent/STIM_000.jpg
4.67	1.314	1	incongruent	Block1	incongruent/STIM_000.jpg
9.254	1.59	1	incongruent	Block1	incongruent/STIM_000.jpg
12.73	0.754	1	incongruent	Block1	incongruent/STIM_000.jpg
17.03	0.793	1	incongruent	Block1	incongruent/STIM_000.jpg
21.185	0.947	0	incongruent	Block1	incongruent/STIM_001.jpg
25.773	0.811	1	incongruent	Block1	incongruent/STIM_001.jpg
29.77	1.152	1	incongruent	Block1	incongruent/STIM_001.jpg
33.705	1.084	1	incongruent	Block1	incongruent/STIM_001.jpg
37.467	0.726	1	incongruent	Block1	incongruent/STIM_001.jpg
41.737	0.976	1	incongruent	Block1	incongruent/STIM_002.jpg
46.192	1.314	0	incongruent	Block1	incongruent/STIM_002.jpg
50.319	0.938	1	incongruent	Block1	incongruent/STIM_002.jpg
54.561	1.097	1	incongruent	Block1	incongruent/STIM_002.jpg
58.137	1.263	1	incongruent	Block1	incongruent/STIM_002.jpg
61.483	1.509	0	incongruent	Block1	incongruent/STIM_003.jpg
66.243	1.446	1	incongruent	Block1	incongruent/STIM_003.jpg
69.793	1.094	1	incongruent	Block1	incongruent/STIM_003.jpg
73.823	1.075	1	incongruent	Block1	incongruent/STIM_003.jpg
78.521	0.645	1	incongruent	Block1	incongruent/STIM_003.jpg
82.813	0.791	1	incongruent	Block1	incongruent/STIM_004.jpg
86.376	1.407	1	incongruent	Block1	incongruent/STIM_004.jpg
90.775	1.364	1	incongruent	Block1	incongruent/STIM_004.jpg
95.639	1.286	1	incongruent	Block1	incongruent/STIM_004.jpg
99.78	1.151	1	incongruent	Block1	incongruent/STIM_004.jpg
103.485	1.589	1	incongruent	Block1	incongruent/STIM_005.jpg
108.304	0.968	1	incongruent	Block1	incongruent/STIM_005.jpg
111.377	1.328	1	incongruent	Block1	incongruent/STIM_005.jpg
115.348	1.101	1	incongruent	Block1	incongruent/STIM_005.jpg
119.613	1.169	1	incongruent	Block1	incongruent/STIM_005.jpg
123.848	1.125	1	incongruent	Block1	incongruent/STIM_006.jpg
128.084	1.006	1	incongruent	Block1	incongruent/STIM_006.jpg
131.418	0.921	1	incongruent	Block1	incongruent/STIM_006.jpg
135.477	0.801	1	incongruent	Block1	incongruent/STIM_006.jpg
139.434	1.044	1	incongruent	Block1	incongruent/STIM_006.jpg
142.54	1.315	1	incongruent	Block1	incongruent/STIM_007.jpg
146.632	1.169	1	incongruent	Block1	incongruent/STIM_007.jpg
150.341	1.004	1	incongruent	Block1	incongruent/STIM_007.jpg
153.598	1.271	1	incongruent	Block1	incongruent/STIM_007.jpg
157.044	0.765	1	incongruent	Block1	incongruent/STIM_007.jpg
160.665	0.753	1	incongruent	Block1	incongruent/STIM_008.jpg
164.794	1.624	1	incongruent	Block1	incongruent/STIM_008.jpg
168.373	1.493	1	incongruent	Block1	incongruent/STIM_008.jpg
173.559	0.784	1	incongruent	Block1	incongruent/STIM_008.jpg
178.066	1.241	1	incongruent	Block1	incongruent/STIM_008.jpg
183.194	0.765	1	incongruent	Block1	incongruent/STIM_009.jpg
187.124	1.658	1	incongruent	Block1	incongruent/STIM_009.jpg
191.321	1.397	1	incongruent	Block1	incongruent/STIM_009.jpg
195.029	1.35	1	incongruent	Block1	incongruent/STIM_009.jpg
200.097	0.722	1	incongruent	Block1	incongruent/STIM_009.jpg
203.104	1.296	1	incongruent	Block1	incongruent/STIM_010.jpg
206.592	1.34	1	incongruent	Block1	incongruent/STIM_010.jpg
211.739	1.424	1	incongruent	Block1	incongruent/STIM_010.jpg
216.567	0.966	0	incongruent	Block1	incongruent/STIM_010.jpg
220.309	0.805	1	incongruent	Block1	incongruent/STIM_010.jpg
223.336	1.315	1	incongruent	Block1	incongruent/STIM_011.jpg
228.271	1.145	1	incongruent	Block1	incongruent/STIM_011.jpg
232.559	0.852	1	incongruent	Block1	incongruent/STIM_011.jpg
236.587	0.928	1	incongruent	Block1	incongruent/STIM_011.jpg
241.159	0.993	1	incongruent	Block1	incongruent/STIM_011.jpg
244.419	1.322	1	incongruent	Block1	incongruent/STIM_012.jpg
248.257	1.464	1	incongruent	Block1	incongruent/STIM_012.jpg
251.696	1.395	0	incongruent	Block1	incongruent/STIM_012.jpg
255.11	0.788	1	incongruent	Block1	incongruent/STIM_012.jpg
258.0	1.304	1	incongruent	Block1	incongruent/STIM_012.jpg
262.056	0.899	1	incongruent	Block1	incongruent/STIM_013.jpg
265.175	1.025	0	incongruent	Block1	incongruent/STIM_013.jpg
269.978	1.089	1	incongruent	Block1	incongruent/STIM_013.jpg
274.812	1.226	1	incongruent	Block1	incongruent/STIM_013.jpg
278.44	1.034	1	incongruent	Block1	incongruent/STIM_013.jpg
282.039	1.053	1	incongruent	Block1	incongruent/STIM_014.jpg
285.7	0.84	1	incongruent	Block1	incongruent/STIM_014.jpg
288.939	0.94	1	incongruent	Block1	incongruent/STIM_014.jpg
292.689	1.287	1	incongruent	Block1	incongruent/STIM_014.jpg
297.416	1.13	1	incongruent	Block1	incongruent/STIM_014.jpg
300.55	1.012	1	incongruent	Block1	incongruent/STIM_015.jpg
305.385	1.003	0	incongruent	Block1	incongruent/STIM_015.jpg
308.583	1.037	1	incongruent	Block1	incongruent/STIM_015.jpg
312.392	1.373	1	incongruent	Block1	incongruent/STIM_015.jpg
315.889	0.763	1	incongruent	Block1	incongruent/STIM_015.jpg
319.283	1.194	0	incongruent	Block1	incongruent/STIM_016.jpg
323.546	0.98	1	incongruent	Block1	incongruent/STIM_016.jpg
326.659	1.048	1	incongruent	Block1	incongruent/STIM_016.jpg
331.609	1.181	1	incongruent	Block1	incongruent/STIM_016.jpg
336.32	0.923	1	incongruent	Block1	incongruent/STIM_016.jpg
339.487	0.951	1	incongruent	Block1	incongruent/STIM_017.jpg
342.375	1.228	1	incongruent	Block1	incongruent/STIM_017.jpg
345.996	1.384	1	incongruent	Block1	incongruent/STIM_017.jpg
349.981	0.849	0	incongruent	Block1	incongruent/STIM_017.jpg
354.483	0.968	1	incongruent	Block1	incongruent/STIM_017.jpg
359.005	1.14	1	incongruent	Block1	incongruent/STIM_018.jpg
363.674	1.607	0	incongruent	Block1	incongruent/STIM_018.jpg
368.562	1.15	1	incongruent	Block1	incongruent/STIM_018.jpg
373.067	0.8	0	incongruent	Block1	incongruent/STIM_018.jpg
375.898	0.647	1	incongruent	Block1	incongruent/STIM_018.jpg
379.175	0.838	1	incongruent	Block1	incongruent/STIM_019.jpg
382.489	1.498	1	incongruent	Block1	incongruent/STIM_019.jpg
385.8	1.33	0	incongruent	Block1	incongruent/STIM_019.jpg
389.24	0.947	1	incongruent	Block1	incongruent/STIM_019.jpg
392.293	1.156	1	incongruent	Block1	incongruent/STIM_019.jpg
396.909	1.332	1	incongruent	Block1	incongruent/STIM_020.jpg
401.923	1.189	1	incongruent	Block1	incongruent/STIM_020.jpg
405.231	1.169	0	incongruent	Block1	incongruent/STIM_020.jpg
408.934	1.156	1	incongruent	Block1	incongruent/STIM_020.jpg
412.916	1.059	0	incongruent	Block1	incongruent/STIM_020.jpg
417.596	1.292	0	incongruent	Block1	incongruent/STIM_021.jpg
422.07	1.056	1	incongruent	Block1	incongruent/STIM_021.jpg
425.425	1.36	1	incongruent	Block1	incongruent/STIM_021.jpg
430.193	0.723	1	incongruent	Block1	incongruent/STIM_021.jpg
433.988	0.894	1	incongruent	Block1	incongruent/STIM_021.jpg
437.064	0.993	1	incongruent	Block1	incongruent/STIM_022.jpg
440.7	1.577	1	incongruent	Block1	incongruent/STIM_022.jpg
445.625	0.938	1	incongruent	Block1	incongruent/STIM_022.jpg
450.03	1.263	1	incongruent	Block1	incongruent/STIM_022.jpg
454.476	1.196	1	incongruent	Block1	incongruent/STIM_022.jpg
458.337	1.438	1	incongruent	Block1	incongruent/STIM_023.jpg
461.898	0.883	1	incongruent	Block1	incongruent/STIM_023.jpg
464.914	1.116	1	incongruent	Block1	incongruent/STIM_023.jpg
468.472	1.173	0	incongruent	Block1	incongruent/STIM_023.jpg
472.401	0.86	0	incongruent	Block1	incongruent/STIM_023.jpg
475.553	1.619	1	incongruent	Block1	incongruent/STIM_024.jpg
479.13	1.606	1	incongruent	Block1	incongruent/STIM_024.jpg
483.245	1.047	1	incongruent	Block1	incongruent/STIM_024.jpg
486.549	1.124	1	incongruent	Block1	incongruent/STIM_024.jpg
489.86	0.898	1	incongruent	Block1	incongruent/STIM_024.jpg
493.733	1.015	1	incongruent	Block1	incongruent/STIM_025.jpg
496.878	1.084	1	incongruent	Block1	incongruent/STIM_025.jpg
500.283	1.063	0	incongruent	Block1	incongruent/STIM_025.jpg
505.047	0.753	0	incongruent	Block1	incongruent/STIM_025.jpg
509.32	1.328	1	incongruent	Block1	incongruent/STIM_025.jpg
514.299	1.256	1	incongruent	Block1	incongruent/STIM_026.jpg
517.854	0.989	1	incongruent	Block1	incongruent/STIM_026.jpg
520.98	1.408	1	incongruent	Block1	incongruent/STIM_026.jpg
524.991	1.1	1	incongruent	Block1	incongruent/STIM_026.jpg
528.075	0.872	1	incongruent	Block1	incongruent/STIM_026.jpg
531.613	1.589	1	incongruent	Block1	incongruent/STIM_027.jpg
536.451	1.343	1	incongruent	Block1	incongruent/STIM_027.jpg
541.12	1.257	1	incongruent	Block1	incongruent/STIM_027.jpg
545.529	1.336	1	incongruent	Block1	incongruent/STIM_027.jpg
550.415	0.872	0	incongruent	Block1	incongruent/STIM_027.jpg
554.287	1.013	1	incongruent	Block1	incongruent/STIM_028.jpg
559.152	1.6	0	incongruent	Block1	incongruent/STIM_028.jpg
564.002	0.708	1	incongruent	Block1	incongruent/STIM_028.jpg
568.552	0.839	1	incongruent	Block1	incongruent/STIM_028.jpg
571.959	1.02	1	incongruent	Block1	incongruent/STIM_028.jpg
576.648	1.723	1	incongruent	Block1	incongruent/STIM_029.jpg
582.122	1.107	1	incongruent	Block1	incongruent/STIM_029.jpg
586.1	0.955	1	incongruent	Block1	incongruent/STIM_029.jpg
590.606	1.349	1	incongruent	Block1	incongruent/STIM_029.jpg
594.577	0.968	1	incongruent	Block1	incongruent/STIM_029.jpg
598.047	0.668	1	congruent	Block1	congruent/STIM_000.jpg
601.669	0.869	1	congruent	Block1	congruent/STIM_000.jpg
605.773	0.815	1	congruent	Block1	congruent/STIM_000.jpg
609.174	0.669	1	congruent	Block1	congruent/STIM_000.jpg
613.583	0.656	1	congruent	Block1	congruent/STIM_000.jpg
617.802	0.622	1	congruent	Block1	congruent/STIM_001.jpg
620.504	0.646	1	congruent	Block1	congruent/STIM_001.jpg
624.303	0.964	1	congruent	Block1	congruent/STIM_001.jpg
627.633	1.003	1	congruent	Block1	congruent/STIM_001.jpg
631.108	0.65	1	congruent	Block1	congruent/STIM_001.jpg
635.514	0.807	1	congruent	Block1	congruent/STIM_002.jpg
639.329	1.018	1	congruent	Block1	congruent/STIM_002.jpg
642.658	0.679	1	congruent	Block1	congruent/STIM_002.jpg
647.301	0.888	1	congruent	Block1	congruent/STIM_002.jpg
650.713	0.581	1	congruent	Block1	congruent/STIM_002.jpg
654.67	0.747	1	congruent	Block1	congruent/STIM_003.jpg
659.208	0.674	1	congruent	Block1	congruent/STIM_003.jpg
662.341	0.669	1	congruent	Block1	congruent/STIM_003.jpg
666.539	0.496	1	congruent	Block1	congruent/STIM_003.jpg
669.907	0.814	1	congruent	Block1	congruent/STIM_003.jpg
672.651	0.832	1	congruent	Block1	congruent/STIM_004.jpg
676.542	0.762	1	congruent	Block1	congruent/STIM_004.jpg
679.761	0.742	1	congruent	Block1	congruent/STIM_004.jpg
684.082	0.834	1	congruent	Block1	congruent/STIM_004.jpg
687.812	0.791	1	congruent	Block1	congruent/STIM_004.jpg
692.271	0.827	1	congruent	Block1	congruent/STIM_005.jpg
696.213	0.661	1	congruent	Block1	congruent/STIM_005.jpg
700.016	0.633	1	congruent	Block1	congruent/STIM_005.jpg
703.846	1.026	1	congruent	Block1	congruent/STIM_005.jpg
707.986	0.729	1	congruent	Block1	congruent/STIM_005.jpg
710.989	0.672	1	congruent	Block1	congruent/STIM_006.jpg
714.815	0.985	1	congruent	Block1	congruent/STIM_006.jpg
719.334	0.556	1	congruent	Block1	congruent/STIM_006.jpg
723.003	0.654	1	congruent	Block1	congruent/STIM_006.jpg
725.814	0.71	1	congruent	Block1	congruent/STIM_006.jpg
728.764	0.794	1	congruent	Block1	congruent/STIM_007.jpg
731.876	0.774	1	congruent	Block1	congruent/STIM_007.jpg
736.486	0.586	1	congruent	Block1	congruent/STIM_007.jpg
740.758	0.851	1	congruent	Block1	congruent/STIM_007.jpg
744.171	0.656	1	congruent	Block1	congruent/STIM_007.jpg
748.586	0.715	1	congruent	Block1	congruent/STIM_008.jpg
752.025	0.628	1	congruent	Block1	congruent/STIM_008.jpg
755.141	0.553	1	congruent	Block1	congruent/STIM_008.jpg
758.275	0.73	1	congruent	Block1	congruent/STIM_008.jpg
761.608	0.512	1	congruent	Block1	congruent/STIM_008.jpg
765.702	0.974	1	congruent	Block1	congruent/STIM_009.jpg
769.671	0.641	1	congruent	Block1	congruent/STIM_009.jpg
773.573	0.789	1	congruent	Block1	congruent/STIM_009.jpg
776.73	0.772	1	congruent	Block1	congruent/STIM_009.jpg
781.266	0.867	1	congruent	Block1	congruent/STIM_009.jpg
786.016	0.582	1	congruent	Block1	congruent/STIM_010.jpg
790.416	0.626	1	congruent	Block1	congruent/STIM_010.jpg
794.406	0.803	1	congruent	Block1	congruent/STIM_010.jpg
798.35	0.846	1	congruent	Block1	congruent/STIM_010.jpg
801.39	0.897	1	congruent	Block1	congruent/STIM_010.jpg
805.115	0.654	1	congruent	Block1	congruent/STIM_011.jpg
808.55	0.696	1	congruent	Block1	congruent/STIM_011.jpg
812.817	1.039	0	congruent	Block1	congruent/STIM_011.jpg
817.636	0.851	1	congruent	Block1	congruent/STIM_011.jpg
821.589	0.85	1	congruent	Block1	congruent/STIM_011.jpg
825.583	0.587	1	congruent	Block1	congruent/STIM_012.jpg
829.581	0.795	1	congruent	Block1	congruent/STIM_012.jpg
834.096	0.671	1	congruent	Block1	congruent/STIM_012.jpg
838.437	0.893	1	congruent	Block1	congruent/STIM_012.jpg
842.048	0.733	1	congruent	Block1	congruent/STIM_012.jpg
846.309	0.814	1	congruent	Block1	congruent/STIM_013.jpg
849.332	0.624	1	congruent	Block1	congruent/STIM_013.jpg
852.599	0.764	1	congruent	Block1	congruent/STIM_013.jpg
855.569	0.671	1	congruent	Block1	congruent/STIM_013.jpg
859.691	0.685	1	congruent	Block1	congruent/STIM_013.jpg
862.565	0.622	1	congruent	Block1	congruent/STIM_014.jpg
866.119	0.887	1	congruent	Block1	congruent/STIM_014.jpg
870.327	0.564	1	congruent	Block1	congruent/STIM_014.jpg
872.984	0.947	1	congruent	Block1	congruent/STIM_014.jpg
877.545	0.724	1	congruent	Block1	congruent/STIM_014.jpg
881.655	0.831	1	congruent	Block1	congruent/STIM_015.jpg
884.652	0.922	1	congruent	Block1	congruent/STIM_015.jpg
889.361	0.998	1	congruent	Block1	congruent/STIM_015.jpg
892.629	0.791	1	congruent	Block1	congruent/STIM_015.jpg
896.028	1.02	1	congruent	Block1	congruent/STIM_015.jpg
900.414	0.626	1	congruent	Block1	congruent/STIM_016.jpg
904.443	0.701	1	congruent	Block1	congruent/STIM_016.jpg
908.229	1.066	1	congruent	Block1	congruent/STIM_016.jpg
911.528	0.614	1	congruent	Block1	congruent/STIM_016.jpg
914.286	0.923	1	congruent	Block1	congruent/STIM_016.jpg
918.728	1.037	1	congruent	Block1	congruent/STIM_017.jpg
922.137	0.645	1	congruent	Block1	congruent/STIM_017.jpg
925.772	0.818	1	congruent	Block1	congruent/STIM_017.jpg
929.261	0.734	1	congruent	Block1	congruent/STIM_017.jpg
933.731	0.768	1	congruent	Block1	congruent/STIM_017.jpg
937.26	0.904	1	congruent	Block1	congruent/STIM_018.jpg
940.016	0.652	1	congruent	Block1	congruent/STIM_018.jpg
943.909	1.01	1	congruent	Block1	congruent/STIM_018.jpg
948.284	1.033	1	congruent	Block1	congruent/STIM_018.jpg
951.418	0.6	1	congruent	Block1	congruent/STIM_018.jpg
954.954	1.047	1	congruent	Block1	congruent/STIM_019.jpg
957.945	0.699	1	congruent	Block1	congruent/STIM_019.jpg
962.037	0.951	1	congruent	Block1	congruent/STIM_019.jpg
965.538	0.606	1	congruent	Block1	congruent/STIM_019.jpg
968.565	0.805	1	congruent	Block1	congruent/STIM_019.jpg
971.571	0.888	1	congruent	Block1	congruent/STIM_020.jpg
975.616	0.771	1	congruent	Block1	congruent/STIM_020.jpg
979.403	0.613	1	congruent	Block1	congruent/STIM_020.jpg
982.688	0.584	1	congruent	Block1	congruent/STIM_020.jpg
987.077	1.016	1	congruent	Block1	congruent/STIM_020.jpg
990.224	0.826	1	congruent	Block1	congruent/STIM_021.jpg
993.891	0.576	1	congruent	Block1	congruent/STIM_021.jpg
997.682	0.75	1	congruent	Block1	congruent/STIM_021.jpg
1002.089	0.955	1	congruent	Block1	congruent/STIM_021.jpg
1005.559	1.046	1	congruent	Block1	congruent/STIM_021.jpg
1008.734	0.797	1	congruent	Block1	congruent/STIM_022.jpg
1012.165	0.8	1	congruent	Block1	congruent/STIM_022.jpg
1016.384	0.863	1	congruent	Block1	congruent/STIM_022.jpg
1020.783	1.056	0	congruent	Block1	congruent/STIM_022.jpg
1025.009	0.906	1	congruent	Block1	congruent/STIM_022.jpg
1028.203	0.736	1	congruent	Block1	congruent/STIM_023.jpg
1031.698	0.789	1	congruent	Block1	congruent/STIM_023.jpg
1035.21	0.689	1	congruent	Block1	congruent/STIM_023.jpg
1038.117	0.874	0	congruent	Block1	congruent/STIM_023.jpg
1042.094	0.694	1	congruent	Block1	congruent/STIM_023.jpg
1045.156	0.661	1	congruent	Block1	congruent/STIM_024.jpg
1049.239	0.827	1	congruent	Block1	congruent/STIM_024.jpg
1052.567	0.827	1	congruent	Block1	congruent/STIM_024.jpg
1056.299	0.817	1	congruent	Block1	congruent/STIM_024.jpg
1060.047	0.634	1	congruent	Block1	congruent/STIM_024.jpg
1064.479	0.627	1	congruent	Block1	congruent/STIM_025.jpg
1068.749	0.899	1	congruent	Block1	congruent/STIM_025.jpg
1071.804	0.606	1	congruent	Block1	congruent/STIM_025.jpg
1074.318	0.96	1	congruent	Block1	congruent/STIM_025.jpg
1078.993	0.832	1	congruent	Block1	congruent/STIM_025.jpg
1083.259	0.826	1	congruent	Block1	congruent/STIM_026.jpg
1086.305	0.985	1	congruent	Block1	congruent/STIM_026.jpg
1089.378	0.886	1	congruent	Block1	congruent/STIM_026.jpg
1092.876	0.607	1	congruent	Block1	congruent/STIM_026.jpg
1096.598	0.702	1	congruent	Block1	congruent/STIM_026.jpg
1100.259	0.951	1	congruent	Block1	congruent/STIM_027.jpg
1104.933	0.578	1	congruent	Block1	congruent/STIM_027.jpg
1108.271	0.639	1	congruent	Block1	congruent/STIM_027.jpg
1111.076	0.872	1	congruent	Block1	congruent/STIM_027.jpg
1115.751	1.022	1	congruent	Block1	congruent/STIM_027.jpg
1119.293	0.69	1	congruent	Block1	congruent/STIM_028.jpg
1123.163	0.964	1	congruent	Block1	congruent/STIM_028.jpg
1126.496	0.91	1	congruent	Block1	congruent/STIM_028.jpg
1129.968	0.53	1	congruent	Block1	congruent/STIM_028.jpg
1133.027	0.715	1	congruent	Block1	congruent/STIM_028.jpg
1136.254	0.613	1	congruent	Block1	congruent/STIM_029.jpg
1140.011	0.644	0	congruent	Block1	congruent/STIM_029.jpg
1142.567	0.918	1	congruent	Block1	congruent/STIM_029.jpg
1145.361	0.618	1	congruent	Block1	congruent/STIM_029.jpg
1148.775	0.666	0	congruent	Block1	congruent/STIM_029.jpg
1152.588	0.784	0	incongruent	Block2	incongruent/STIM_000.jpg
1156.736	0.902	1	incongruent	Block2	incongruent/STIM_000.jpg
1160.895	0.751	1	incongruent	Block2	incongruent/STIM_000.jpg
1163.598	1.123	1	incongruent	Block2	incongruent/STIM_000.jpg
1167.295	0.856	1	incongruent	Block2	incongruent/STIM_000.jpg
1171.496	1.094	1	incongruent	Block2	incongruent/STIM_001.jpg
1174.532	1.237	1	incongruent	Block2	incongruent/STIM_001.jpg
1178.654	0.676	1	incongruent	Block2	incongruent/STIM_001.jpg
1181.719	1.07	1	incongruent	Block2	incongruent/STIM_001.jpg
1185.82	1.188	1	incongruent	Block2	incongruent/STIM_001.jpg
1189.334	1.174	1	incongruent	Block2	incongruent/STIM_002.jpg
1193.705	1.174	1	incongruent	Block2	incongruent/STIM_002.jpg
1198.222	1.005	0	incongruent	Block2	incongruent/STIM_002.jpg
1203.056	1.054	1	incongruent	Block2	incongruent/STIM_002.jpg
1206.152	1.067	1	incongruent	Block2	incongruent/STIM_002.jpg
1210.808	1.368	1	incongruent	Block2	incongruent/STIM_003.jpg
1214.739	1.316	1	incongruent	Block2	incongruent/STIM_003.jpg
1218.404	1.196	1	incongruent	Block2	incongruent/STIM_003.jpg
1222.909	0.816	1	incongruent	Block2	incongruent/STIM_003.jpg
1226.803	1.214	1	incongruent	Block2	incongruent/STIM_003.jpg
1230.794	1.022	1	incongruent	Block2	incongruent/STIM_004.jpg
1233.962	1.422	1	incongruent	Block2	incongruent/STIM_004.jpg
1238.299	1.261	1	incongruent	Block2	incongruent/STIM_004.jpg
1241.907	0.698	1	incongruent	Block2	incongruent/STIM_004.jpg
1245.387	1.05	1	incongruent	Block2	incongruent/STIM_004.jpg
1249.488	1.385	1	incongruent	Block2	incongruent/STIM_005.jpg
1253.292	0.894	1	incongruent	Block2	incongruent/STIM_005.jpg
1256.573	0.985	1	incongruent	Block2	incongruent/STIM_005.jpg
1260.526	1.059	1	incongruent	Block2	incongruent/STIM_005.jpg
1265.112	1.107	1	incongruent	Block2	incongruent/STIM_005.jpg
1269.868	1.438	1	incongruent	Block2	incongruent/STIM_006.jpg
1273.655	0.859	1	incongruent	Block2	incongruent/STIM_006.jpg
1277.086	0.762	1	incongruent	Block2	incongruent/STIM_006.jpg
1280.471	1.016	1	incongruent	Block2	incongruent/STIM_006.jpg
1283.782	0.86	1	incongruent	Block2	incongruent/STIM_006.jpg
1286.83	1.175	1	incongruent	Block2	incongruent/STIM_007.jpg
1290.688	0.618	1	incongruent	Block2	incongruent/STIM_007.jpg
1295.031	0.767	1	incongruent	Block2	incongruent/STIM_007.jpg
1299.123	1.056	1	incongruent	Block2	incongruent/STIM_007.jpg
1303.038	1.108	1	incongruent	Block2	incongruent/STIM_007.jpg
1306.056	0.992	1	incongruent	Block2	incongruent/STIM_008.jpg
1310.699	0.584	1	incongruent	Block2	incongruent/STIM_008.jpg
1313.76	0.824	1	incongruent	Block2	incongruent/STIM_008.jpg
1318.158	0.622	1	incongruent	Block2	incongruent/STIM_008.jpg
1320.768	0.722	1	incongruent	Block2	incongruent/STIM_008.jpg
1324.149	1.01	1	incongruent	Block2	incongruent/STIM_009.jpg
1328.488	1.048	1	incongruent	Block2	incongruent/STIM_009.jpg
1332.336	0.904	1	incongruent	Block2	incongruent/STIM_009.jpg
1335.255	0.558	1	incongruent	Block2	incongruent/STIM_009.jpg
1339.546	1.03	1	incongruent	Block2	incongruent/STIM_009.jpg
1343.08	1.395	1	incongruent	Block2	incongruent/STIM_010.jpg
1346.985	1.134	1	incongruent	Block2	incongruent/STIM_010.jpg
1350.718	1.193	1	incongruent	Block2	incongruent/STIM_010.jpg
1355.075	0.968	1	incongruent	Block2	incongruent/STIM_010.jpg
1358.032	0.95	1	incongruent	Block2	incongruent/STIM_010.jpg
1361.01	0.863	1	incongruent	Block2	incongruent/STIM_011.jpg
1364.315	0.797	1	incongruent	Block2	incongruent/STIM_011.jpg
1368.742	0.755	1	incongruent	Block2	incongruent/STIM_011.jpg
1371.746	1.108	1	incongruent	Block2	incongruent/STIM_011.jpg
1376.434	0.944	1	incongruent	Block2	incongruent/STIM_011.jpg
1379.41	1.261	1	incongruent	Block2	incongruent/STIM_012.jpg
1382.625	0.798	1	incongruent	Block2	incongruent/STIM_012.jpg
1385.64	1.149	1	incongruent	Block2	incongruent/STIM_012.jpg
1389.825	0.728	1	incongruent	Block2	incongruent/STIM_012.jpg
1392.662	0.506	1	incongruent	Block2	incongruent/STIM_012.jpg
1396.249	0.887	1	incongruent	Block2	incongruent/STIM_013.jpg
1400.044	0.605	1	incongruent	Block2	incongruent/STIM_013.jpg
1402.725	0.942	1	incongruent	Block2	incongruent/STIM_013.jpg
1407.121	0.58	1	incongruent	Block2	incongruent/STIM_013.jpg
1410.673	0.717	1	incongruent	Block2	incongruent/STIM_013.jpg
1414.485	1.506	1	incongruent	Block2	incongruent/STIM_014.jpg
1419.686	0.721	1	incongruent	Block2	incongruent/STIM_014.jpg
1423.217	1.116	1	incongruent	Block2	incongruent/STIM_014.jpg
1427.432	0.745	1	incongruent	Block2	incongruent/STIM_014.jpg
1431.93	0.828	1	incongruent	Block2	incongruent/STIM_014.jpg
1435.596	0.708	1	incongruent	Block2	incongruent/STIM_015.jpg
1439.253	0.763	1	incongruent	Block2	incongruent/STIM_015.jpg
1443.054	1.229	1	incongruent	Block2	incongruent/STIM_015.jpg
1447.624	0.856	1	incongruent	Block2	incongruent/STIM_015.jpg
1452.357	1.157	1	incongruent	Block2	incongruent/STIM_015.jpg
1455.507	1.105	0	incongruent	Block2	incongruent/STIM_016.jpg
1460.11	1.057	1	incongruent	Block2	incongruent/STIM_016.jpg
1464.852	1.104	1	incongruent	Block2	incongruent/STIM_016.jpg
1468.192	0.779	1	incongruent	Block2	incongruent/STIM_016.jpg
1471.374	0.785	1	incongruent	Block2	incongruent/STIM_016.jpg
1475.716	1.27	1	incongruent	Block2	incongruent/STIM_017.jpg
1479.92	1.16	1	incongruent	Block2	incongruent/STIM_017.jpg
1483.719	0.861	1	incongruent	Block2	incongruent/STIM_017.jpg
1488.402	0.934	0	incongruent	Block2	incongruent/STIM_017.jpg
1492.776	1.204	1	incongruent	Block2	incongruent/STIM_017.jpg
1496.577	0.756	0	incongruent	Block2	incongruent/STIM_018.jpg
1500.06	1.28	1	incongruent	Block2	incongruent/STIM_018.jpg
1503.481	0.972	1	incongruent	Block2	incongruent/STIM_018.jpg
1506.495	0.954	1	incongruent	Block2	incongruent/STIM_018.jpg
1510.037	1.187	1	incongruent	Block2	incongruent/STIM_018.jpg
1514.142	1.038	1	incongruent	Block2	incongruent/STIM_019.jpg
1518.641	0.81	1	incongruent	Block2	incongruent/STIM_019.jpg
1521.934	1.188	1	incongruent	Block2	incongruent/STIM_019.jpg
1526.616	1.105	1	incongruent	Block2	incongruent/STIM_019.jpg
1529.884	0.924	1	incongruent	Block2	incongruent/STIM_019.jpg
1533.359	0.886	1	incongruent	Block2	incongruent/STIM_020.jpg
1536.346	0.744	1	incongruent	Block2	incongruent/STIM_020.jpg
1540.304	0.844	1	incongruent	Block2	incongruent/STIM_020.jpg
1543.436	0.884	1	incongruent	Block2	incongruent/STIM_020.jpg
1547.229	1.049	1	incongruent	Block2	incongruent/STIM_020.jpg
1551.023	0.71	1	incongruent	Block2	incongruent/STIM_021.jpg
1555.388	1.073	1	incongruent	Block2	incongruent/STIM_021.jpg
1559.503	1.177	1	incongruent	Block2	incongruent/STIM_021.jpg
1562.926	1.081	1	incongruent	Block2	incongruent/STIM_021.jpg
1567.851	0.514	1	incongruent	Block2	incongruent/STIM_021.jpg
1570.514	0.955	1	incongruent	Block2	incongruent/STIM_022.jpg
1574.469	0.812	1	incongruent	Block2	incongruent/STIM_022.jpg
1578.016	0.695	1	incongruent	Block2	incongruent/STIM_022.jpg
1582.222	1.042	1	incongruent	Block2	incongruent/STIM_022.jpg
1585.923	0.939	1	incongruent	Block2	incongruent/STIM_022.jpg
1590.36	1.178	1	incongruent	Block2	incongruent/STIM_023.jpg
1593.637	0.84	1	incongruent	Block2	incongruent/STIM_023.jpg
1596.914	0.965	1	incongruent	Block2	incongruent/STIM_023.jpg
1600.414	0.976	1	incongruent	Block2	incongruent/STIM_023.jpg
1603.261	0.708	1	incongruent	Block2	incongruent/STIM_023.jpg
1607.045	1.266	1	incongruent	Block2	incongruent/STIM_024.jpg
1610.444	0.934	1	incongruent	Block2	incongruent/STIM_024.jpg
1613.458	1.159	1	incongruent	Block2	incongruent/STIM_024.jpg
1616.998	0.729	1	incongruent	Block2	incongruent/STIM_024.jpg
1620.717	0.932	1	incongruent	Block2	incongruent/STIM_024.jpg
1625.465	0.814	1	incongruent	Block2	incongruent/STIM_025.jpg
1629.414	1.161	1	incongruent	Block2	incongruent/STIM_025.jpg
1634.288	0.784	1	incongruent	Block2	incongruent/STIM_025.jpg
1637.49	1.078	1	incongruent	Block2	incongruent/STIM_025.jpg
1641.729	1.132	1	incongruent	Block2	incongruent/STIM_025.jpg
1645.172	1.078	1	incongruent	Block2	incongruent/STIM_026.jpg
1649.917	1.252	1	incongruent	Block2	incongruent/STIM_026.jpg
1653.13	0.732	1	incongruent	Block2	incongruent/STIM_026.jpg
1656.404	0.97	1	incongruent	Block2	incongruent/STIM_026.jpg
1661.242	0.747	1	incongruent	Block2	incongruent/STIM_026.jpg
1663.996	1.33	1	incongruent	Block2	incongruent/STIM_027.jpg
1668.815	1.37	1	incongruent	Block2	incongruent/STIM_027.jpg
1672.046	0.809	1	incongruent	Block2	incongruent/STIM_027.jpg
1674.867	0.79	1	incongruent	Block2	incongruent/STIM_027.jpg
1678.193	0.977	1	incongruent	Block2	incongruent/STIM_027.jpg
1682.001	1.42	1	incongruent	Block2	incongruent/STIM_028.jpg
1687.206	0.929	1	incongruent	Block2	incongruent/STIM_028.jpg
1691.196	1.076	1	incongruent	Block2	incongruent/STIM_028.jpg
1694.717	1.138	1	incongruent	Block2	incongruent/STIM_028.jpg
1699.09	0.952	1	incongruent	Block2	incongruent/STIM_028.jpg
1701.941	0.861	1	incongruent	Block2	incongruent/STIM_029.jpg
1705.477	1.028	1	incongruent	Block2	incongruent/STIM_029.jpg
1709.066	0.779	1	incongruent	Block2	incongruent/STIM_029.jpg
1712.527	0.839	1	incongruent	Block2	incongruent/STIM_029.jpg
1715.975	0.919	1	incongruent	Block2	incongruent/STIM_029.jpg
1719.46	0.68	1	congruent	Block2	congruent/STIM_000.jpg
1723.773	0.736	1	congruent	Block2	congruent/STIM_000.jpg
1728.308	0.591	1	congruent	Block2	congruent/STIM_000.jpg
1732.191	0.622	0	congruent	Block2	congruent/STIM_000.jpg
1735.718	0.598	1	congruent	Block2	congruent/STIM_000.jpg
1739.445	0.746	1	congruent	Block2	congruent/STIM_001.jpg
1743.623	0.891	1	congruent	Block2	congruent/STIM_001.jpg
1747.257	0.977	1	congruent	Block2	congruent/STIM_001.jpg
1751.994	1.027	1	congruent	Block2	congruent/STIM_001.jpg
1755.355	0.709	1	congruent	Block2	congruent/STIM_001.jpg
1759.862	0.754	1	congruent	Block2	congruent/STIM_002.jpg
1764.472	0.805	1	congruent	Block2	congruent/STIM_002.jpg
1768.232	0.525	1	congruent	Block2	congruent/STIM_002.jpg
1772.707	0.92	1	congruent	Block2	congruent/STIM_002.jpg
1777.217	0.728	1	congruent	Block2	congruent/STIM_002.jpg
1780.58	0.88	1	congruent	Block2	congruent/STIM_003.jpg
1784.15	1.045	1	congruent	Block2	congruent/STIM_003.jpg
1788.226	0.885	0	congruent	Block2	congruent/STIM_003.jpg
1791.376	0.935	1	congruent	Block2	congruent/STIM_003.jpg
1795.858	0.697	1	congruent	Block2	congruent/STIM_003.jpg
1798.789	0.784	1	congruent	Block2	congruent/STIM_004.jpg
1801.537	0.544	1	congruent	Block2	congruent/STIM_004.jpg
1804.562	0.98	1	congruent	Block2	congruent/STIM_004.jpg
1808.912	0.941	1	congruent	Block2	congruent/STIM_004.jpg
1812.047	0.749	1	congruent	Block2	congruent/STIM_004.jpg
1815.833	0.69	1	congruent	Block2	congruent/STIM_005.jpg
1819.183	0.749	1	congruent	Block2	congruent/STIM_005.jpg
1823.263	0.64	1	congruent	Block2	congruent/STIM_005.jpg
1825.808	0.905	1	congruent	Block2	congruent/STIM_005.jpg
1829.121	0.872	1	congruent	Block2	congruent/STIM_005.jpg
1832.053	0.703	1	congruent	Block2	congruent/STIM_006.jpg
1836.313	1.07	1	congruent	Block2	congruent/STIM_006.jpg
1839.609	0.776	1	congruent	Block2	congruent/STIM_006.jpg
1843.625	0.864	1	congruent	Block2	congruent/STIM_006.jpg
1848.09	0.816	1	congruent	Block2	congruent/STIM_006.jpg
1851.434	0.72	1	congruent	Block2	congruent/STIM_007.jpg
1855.649	0.614	1	congruent	Block2	congruent/STIM_007.jpg
1859.686	0.695	1	congruent	Block2	congruent/STIM_007.jpg
1862.315	0.621	1	congruent	Block2	congruent/STIM_007.jpg
1865.455	0.517	1	congruent	Block2	congruent/STIM_007.jpg
1869.161	0.851	1	congruent	Block2	congruent/STIM_008.jpg
1872.647	0.992	1	congruent	Block2	congruent/STIM_008.jpg
1876.152	0.881	1	congruent	Block2	congruent/STIM_008.jpg
1880.252	0.821	1	congruent	Block2	congruent/STIM_008.jpg
1884.52	0.907	1	congruent	Block2	congruent/STIM_008.jpg
1888.551	0.774	1	congruent	Block2	congruent/STIM_009.jpg
1892.557	0.561	1	congruent	Block2	congruent/STIM_009.jpg
1896.369	0.782	1	congruent	Block2	congruent/STIM_009.jpg
1899.946	0.611	1	congruent	Block2	congruent/STIM_009.jpg
1903.088	0.943	1	congruent	Block2	congruent/STIM_009.jpg
1907.759	0.889	1	congruent	Block2	congruent/STIM_010.jpg
1911.42	0.914	1	congruent	Block2	congruent/STIM_010.jpg
1915.316	0.838	1	congruent	Block2	congruent/STIM_010.jpg
1919.056	0.598	1	congruent	Block2	congruent/STIM_010.jpg
1922.401	0.779	1	congruent	Block2	congruent/STIM_010.jpg
1926.955	0.955	1	congruent	Block2	congruent/STIM_011.jpg
1930.522	0.913	1	congruent	Block2	congruent/STIM_011.jpg
1934.685	0.878	1	congruent	Block2	congruent/STIM_011.jpg
1939.145	0.964	1	congruent	Block2	congruent/STIM_011.jpg
1942.19	0.814	1	congruent	Block2	congruent/STIM_011.jpg
1945.701	0.608	1	congruent	Block2	congruent/STIM_012.jpg
1949.015	0.802	1	congruent	Block2	congruent/STIM_012.jpg
1953.522	0.671	1	congruent	Block2	congruent/STIM_012.jpg
1956.171	0.812	1	congruent	Block2	congruent/STIM_012.jpg
1960.565	0.664	1	congruent	Block2	congruent/STIM_012.jpg
1964.653	0.911	1	congruent	Block2	congruent/STIM_013.jpg
1968.451	0.698	1	congruent	Block2	congruent/STIM_013.jpg
1971.541	0.788	1	congruent	Block2	congruent/STIM_013.jpg
1974.621	0.843	1	congruent	Block2	congruent/STIM_013.jpg
1978.681	0.921	1	congruent	Block2	congruent/STIM_013.jpg
1982.86	0.652	1	congruent	Block2	congruent/STIM_014.jpg
1986.688	0.842	1	congruent	Block2	congruent/STIM_014.jpg
1990.383	0.991	1	congruent	Block2	congruent/STIM_014.jpg
1993.92	0.851	1	congruent	Block2	congruent/STIM_014.jpg
1997.365	0.863	1	congruent	Block2	congruent/STIM_014.jpg
2002.046	0.662	1	congruent	Block2	congruent/STIM_015.jpg
2005.751	0.85	1	congruent	Block2	congruent/STIM_015.jpg
2009.196	0.946	1	congruent	Block2	congruent/STIM_015.jpg
2012.548	0.729	1	congruent	Block2	congruent/STIM_015.jpg
2016.917	0.789	1	congruent	Block2	congruent/STIM_015.jpg
2021.065	1.001	1	congruent	Block2	congruent/STIM_016.jpg
2025.886	0.975	1	congruent	Block2	congruent/STIM_016.jpg
2029.07	0.764	1	congruent	Block2	congruent/STIM_016.jpg
2032.966	0.951	1	congruent	Block2	congruent/STIM_016.jpg
2036.957	0.865	1	congruent	Block2	congruent/STIM_016.jpg
2040.653	0.863	1	congruent	Block2	congruent/STIM_017.jpg
2044.635	0.592	0	congruent	Block2	congruent/STIM_017.jpg
2047.98	0.86	1	congruent	Block2	congruent/STIM_017.jpg
2050.707	0.778	1	congruent	Block2	congruent/STIM_017.jpg
2055.165	0.552	1	congruent	Block2	congruent/STIM_017.jpg
2057.751	0.881	1	congruent	Block2	congruent/STIM_018.jpg
2061.508	1.006	1	congruent	Block2	congruent/STIM_018.jpg
2065.229	0.787	1	congruent	Block2	congruent/STIM_018.jpg
2068.517	0.799	1	congruent	Block2	congruent/STIM_018.jpg
2072.159	0.667	1	congruent	Block2	congruent/STIM_018.jpg
2075.766	0.732	1	congruent	Block2	congruent/STIM_019.jpg
2079.544	0.904	1	congruent	Block2	congruent/STIM_019.jpg
2082.407	1.045	1	congruent	Block2	congruent/STIM_019.jpg
2087.136	0.923	1	congruent	Block2	congruent/STIM_019.jpg
2090.356	0.643	1	congruent	Block2	congruent/STIM_019.jpg
2093.531	0.736	1	congruent	Block2	congruent/STIM_020.jpg
2097.049	0.97	1	congruent	Block2	congruent/STIM_020.jpg
2100.328	0.631	1	congruent	Block2	congruent/STIM_020.jpg
2104.414	1.03	1	congruent	Block2	congruent/STIM_020.jpg
2107.88	0.956	1	congruent	Block2	congruent/STIM_020.jpg
2111.871	0.982	1	congruent	Block2	congruent/STIM_021.jpg
2115.633	0.938	1	congruent	Block2	congruent/STIM_021.jpg
2118.786	0.946	1	congruent	Block2	congruent/STIM_021.jpg
2122.338	0.716	1	congruent	Block2	congruent/STIM_021.jpg
2125.088	0.787	1	congruent	Block2	congruent/STIM_021.jpg
2128.184	0.874	1	congruent	Block2	congruent/STIM_022.jpg
2131.978	0.574	1	congruent	Block2	congruent/STIM_022.jpg
2136.248	0.743	0	congruent	Block2	congruent/STIM_022.jpg
2140.019	0.978	1	congruent	Block2	congruent/STIM_022.jpg
2144.43	0.876	1	congruent	Block2	congruent/STIM_022.jpg
2148.512	0.862	1	congruent	Block2	congruent/STIM_023.jpg
2151.973	0.721	1	congruent	Block2	congruent/STIM_023.jpg
2154.66	0.545	1	congruent	Block2	congruent/STIM_023.jpg
2157.577	0.624	1	congruent	Block2	congruent/STIM_023.jpg
2161.88	1.075	1	congruent	Block2	congruent/STIM_023.jpg
2165.906	0.825	1	congruent	Block2	congruent/STIM_024.jpg
2170.584	0.752	1	congruent	Block2	congruent/STIM_024.jpg
2173.886	0.535	1	congruent	Block2	congruent/STIM_024.jpg
2176.64	0.834	1	congruent	Block2	congruent/STIM_024.jpg
2179.553	0.567	1	congruent	Block2	congruent/STIM_024.jpg
2182.213	0.582	1	congruent	Block2	congruent/STIM_025.jpg
2185.522	0.769	1	congruent	Block2	congruent/STIM_025.jpg
2189.45	0.672	1	congruent	Block2	congruent/STIM_025.jpg
2192.304	0.953	1	congruent	Block2	congruent/STIM_025.jpg
2196.262	0.72	1	congruent	Block2	congruent/STIM_025.jpg
2200.173	0.852	1	congruent	Block2	congruent/STIM_026.jpg
2203.486	0.802	1	congruent	Block2	congruent/STIM_026.jpg
2206.614	0.683	1	congruent	Block2	congruent/STIM_026.jpg
2209.271	0.728	1	congruent	Block2	congruent/STIM_026.jpg
2212.563	0.842	1	congruent	Block2	congruent/STIM_026.jpg
2216.346	0.744	1	congruent	Block2	congruent/STIM_027.jpg
2219.218	0.569	1	congruent	Block2	congruent/STIM_027.jpg
2222.003	0.838	1	congruent	Block2	congruent/STIM_027.jpg
2226.087	0.594	1	congruent	Block2	congruent/STIM_027.jpg
2230.67	0.693	1	congruent	Block2	congruent/STIM_027.jpg
2233.801	0.779	1	congruent	Block2	congruent/STIM_028.jpg
2236.551	0.896	1	congruent	Block2	congruent/STIM_028.jpg
2239.661	0.894	1	congruent	Block2	congruent/STIM_028.jpg
2243.361	0.761	1	congruent	Block2	congruent/STIM_028.jpg
2247.685	0.676	1	congruent	Block2	congruent/STIM_028.jpg
2251.598	1.012	1	congruent	Block2	congruent/STIM_029.jpg
2256.273	0.531	1	congruent	Block2	congruent/STIM_029.jpg
2260.264	0.537	1	congruent	Block2	congruent/STIM_029.jpg
2263.589	0.89	1	congruent	Block2	congruent/STIM_029.jpg
2267.12	1.001	1	congruent	Block2	congruent/STIM_029.jpg
2270.343	1.139	1	incongruent	Block3	incongruent/STIM_000.jpg
2274.085	1.076	1	incongruent	Block3	incongruent/STIM_000.jpg
2278.609	0.876	0	incongruent	Block3	incongruent/STIM_000.jpg
2281.627	0.768	1	incongruent	Block3	incongruent/STIM_000.jpg
2285.001	0.986	1	incongruent	Block3	incongruent/STIM_000.jpg
2289.505	1.199	1	incongruent	Block3	incongruent/STIM_001.jpg
2292.924	0.629	1	incongruent	Block3	incongruent/STIM_001.jpg
2296.461	0.97	1	incongruent	Block3	incongruent/STIM_001.jpg
2300.328	0.745	1	incongruent	Block3	incongruent/STIM_001.jpg
2304.309	1.174	1	incongruent	Block3	incongruent/STIM_001.jpg
2308.052	0.858	1	incongruent	Block3	incongruent/STIM_002.jpg
2312.821	0.886	1	incongruent	Block3	incongruent/STIM_002.jpg
2317.281	0.94	1	incongruent	Block3	incongruent/STIM_002.jpg
2321.312	0.66	1	incongruent	Block3	incongruent/STIM_002.jpg
2325.807	0.892	1	incongruent	Block3	incongruent/STIM_002.jpg
2329.591	0.623	1	incongruent	Block3	incongruent/STIM_003.jpg
2332.787	0.572	1	incongruent	Block3	incongruent/STIM_003.jpg
2337.158	0.662	1	incongruent	Block3	incongruent/STIM_003.jpg
2340.219	1.111	1	incongruent	Block3	incongruent/STIM_003.jpg
2343.758	1.176	1	incongruent	Block3	incongruent/STIM_003.jpg
2347.122	0.914	1	incongruent	Block3	incongruent/STIM_004.jpg
2350.477	1.011	1	incongruent	Block3	incongruent/STIM_004.jpg
2354.841	1.066	1	incongruent	Block3	incongruent/STIM_004.jpg
2358.518	1.04	1	incongruent	Block3	incongruent/STIM_004.jpg
2363.008	1.091	1	incongruent	Block3	incongruent/STIM_004.jpg
2367.547	1.06	1	incongruent	Block3	incongruent/STIM_005.jpg
2370.685	0.718	1	incongruent	Block3	incongruent/STIM_005.jpg
2373.27	0.997	1	incongruent	Block3	incongruent/STIM_005.jpg
2376.66	0.912	1	incongruent	Block3	incongruent/STIM_005.jpg
2380.503	0.725	1	incongruent	Block3	incongruent/STIM_005.jpg
2384.012	0.79	1	incongruent	Block3	incongruent/STIM_006.jpg
2387.103	0.557	1	incongruent	Block3	incongruent/STIM_006.jpg
2390.205	1.127	1	incongruent	Block3	incongruent/STIM_006.jpg
2395.161	1.037	1	incongruent	Block3	incongruent/STIM_006.jpg
2399.29	1.047	1	incongruent	Block3	incongruent/STIM_006.jpg
2402.238	1.095	1	incongruent	Block3	incongruent/STIM_007.jpg
2405.793	1.063	1	incongruent	Block3	incongruent/STIM_007.jpg
2408.878	0.846	1	incongruent	Block3	incongruent/STIM_007.jpg
2411.962	1.142	1	incongruent	Block3	incongruent/STIM_007.jpg
2416.851	1.129	1	incongruent	Block3	incongruent/STIM_007.jpg
2420.237	0.846	1	incongruent	Block3	incongruent/STIM_008.jpg
2424.407	0.98	1	incongruent	Block3	incongruent/STIM_008.jpg
2427.566	0.92	1	incongruent	Block3	incongruent/STIM_008.jpg
2430.846	0.53	1	incongruent	Block3	incongruent/STIM_008.jpg
2433.447	1.146	1	incongruent	Block3	incongruent/STIM_008.jpg
2436.495	0.924	1	incongruent	Block3	incongruent/STIM_009.jpg
2440.354	0.914	1	incongruent	Block3	incongruent/STIM_009.jpg
2444.483	0.653	1	incongruent	Block3	incongruent/STIM_009.jpg
2447.199	0.934	1	incongruent	Block3	incongruent/STIM_009.jpg
2450.799	1.084	1	incongruent	Block3	incongruent/STIM_009.jpg
2454.039	1.113	1	incongruent	Block3	incongruent/STIM_010.jpg
2457.213	0.86	1	incongruent	Block3	incongruent/STIM_010.jpg
2460.548	1.033	1	incongruent	Block3	incongruent/STIM_010.jpg
2464.648	0.655	1	incongruent	Block3	incongruent/STIM_010.jpg
2468.624	0.716	1	incongruent	Block3	incongruent/STIM_010.jpg
2472.251	0.986	1	incongruent	Block3	incongruent/STIM_011.jpg
2475.18	0.769	1	incongruent	Block3	incongruent/STIM_011.jpg
2478.649	1.128	1	incongruent	Block3	incongruent/STIM_011.jpg
2483.194	0.949	1	incongruent	Block3	incongruent/STIM_011.jpg
2486.898	1.107	1	incongruent	Block3	incongruent/STIM_011.jpg
2490.484	1.066	1	incongruent	Block3	incongruent/STIM_012.jpg
2495.336	0.897	1	incongruent	Block3	incongruent/STIM_012.jpg
2499.777	0.91	0	incongruent	Block3	incongruent/STIM_012.jpg
2503.536	0.543	1	incongruent	Block3	incongruent/STIM_012.jpg
2506.352	1.029	1	incongruent	Block3	incongruent/STIM_012.jpg
2510.715	0.995	0	incongruent	Block3	incongruent/STIM_013.jpg
2513.693	0.874	1	incongruent	Block3	incongruent/STIM_013.jpg
2517.478	0.75	1	incongruent	Block3	incongruent/STIM_013.jpg
2521.634	0.692	1	incongruent	Block3	incongruent/STIM_013.jpg
2525.928	0.695	1	incongruent	Block3	incongruent/STIM_013.jpg
2530.485	0.89	1	incongruent	Block3	incongruent/STIM_014.jpg
2533.537	1.07	1	incongruent	Block3	incongruent/STIM_014.jpg
2537.854	0.659	1	incongruent	Block3	incongruent/STIM_014.jpg
2542.038	0.688	0	incongruent	Block3	incongruent/STIM_014.jpg
2545.046	0.916	1	incongruent	Block3	incongruent/STIM_014.jpg
2548.686	0.941	1	incongruent	Block3	incongruent/STIM_015.jpg
2552.454	1.046	1	incongruent	Block3	incongruent/STIM_015.jpg
2556.484	0.823	1	incongruent	Block3	incongruent/STIM_015.jpg
2560.729	1.173	1	incongruent	Block3	incongruent/STIM_015.jpg
2564.581	0.998	1	incongruent	Block3	incongruent/STIM_015.jpg
2568.848	0.739	0	incongruent	Block3	incongruent/STIM_016.jpg
2572.086	0.6	1	incongruent	Block3	incongruent/STIM_016.jpg
2575.296	0.667	1	incongruent	Block3	incongruent/STIM_016.jpg
2578.707	0.676	1	incongruent	Block3	incongruent/STIM_016.jpg
2582.091	0.658	1	incongruent	Block3	incongruent/STIM_016.jpg
2585.587	0.609	1	incongruent	Block3	incongruent/STIM_017.jpg
2588.579	0.995	1	incongruent	Block3	incongruent/STIM_017.jpg
2592.359	0.821	1	incongruent	Block3	incongruent/STIM_017.jpg
2596.64	0.962	1	incongruent	Block3	incongruent/STIM_017.jpg
2599.952	0.883	1	incongruent	Block3	incongruent/STIM_017.jpg
2603.679	0.954	1	incongruent	Block3	incongruent/STIM_018.jpg
2606.874	0.548	1	incongruent	Block3	incongruent/STIM_018.jpg
2611.124	0.853	1	incongruent	Block3	incongruent/STIM_018.jpg
2614.893	0.901	1	incongruent	Block3	incongruent/STIM_018.jpg
2618.499	1.104	1	incongruent	Block3	incongruent/STIM_018.jpg
2622.134	0.6	1	incongruent	Block3	incongruent/STIM_019.jpg
2625.207	0.788	1	incongruent	Block3	incongruent/STIM_019.jpg
2629.411	0.676	0	incongruent	Block3	incongruent/STIM_019.jpg
2632.835	0.566	1	incongruent	Block3	incongruent/STIM_019.jpg
2636.415	1.251	1	incongruent	Block3	incongruent/STIM_019.jpg
2639.57	0.622	1	incongruent	Block3	incongruent/STIM_020.jpg
2642.831	0.785	1	incongruent	Block3	incongruent/STIM_020.jpg
2646.541	0.935	1	incongruent	Block3	incongruent/STIM_020.jpg
2649.824	0.592	1	incongruent	Block3	incongruent/STIM_020.jpg
2653.103	0.899	1	incongruent	Block3	incongruent/STIM_020.jpg
2655.974	0.935	1	incongruent	Block3	incongruent/STIM_021.jpg
2659.252	1.088	1	incongruent	Block3	incongruent/STIM_021.jpg
2662.636	1.082	1	incongruent	Block3	incongruent/STIM_021.jpg
2665.789	0.707	1	incongruent	Block3	incongruent/STIM_021.jpg
2668.866	0.565	1	incongruent	Block3	incongruent/STIM_021.jpg
2671.643	0.87	1	incongruent	Block3	incongruent/STIM_022.jpg
2675.046	0.93	1	incongruent	Block3	incongruent/STIM_022.jpg
2679.385	0.816	1	incongruent	Block3	incongruent/STIM_022.jpg
2682.262	1.126	1	incongruent	Block3	incongruent/STIM_022.jpg
2685.738	0.8	1	incongruent	Block3	incongruent/STIM_022.jpg
2688.501	1.016	0	incongruent	Block3	incongruent/STIM_023.jpg
2692.862	0.774	0	incongruent	Block3	incongruent/STIM_023.jpg
2696.481	1.093	1	incongruent	Block3	incongruent/STIM_023.jpg
2701.11	0.458	1	incongruent	Block3	incongruent/STIM_023.jpg
2703.706	0.726	1	incongruent	Block3	incongruent/STIM_023.jpg
2707.855	1.082	1	incongruent	Block3	incongruent/STIM_024.jpg
2712.694	1.114	0	incongruent	Block3	incongruent/STIM_024.jpg
2717.0	0.729	1	incongruent	Block3	incongruent/STIM_024.jpg
2720.535	0.57	1	incongruent	Block3	incongruent/STIM_024.jpg
2724.574	0.925	1	incongruent	Block3	incongruent/STIM_024.jpg
2728.756	0.814	1	incongruent	Block3	incongruent/STIM_025.jpg
2733.159	0.686	1	incongruent	Block3	incongruent/STIM_025.jpg
2736.825	0.583	1	incongruent	Block3	incongruent/STIM_025.jpg
2739.449	1.076	1	incongruent	Block3	incongruent/STIM_025.jpg
2743.225	0.933	1	incongruent	Block3	incongruent/STIM_025.jpg
2746.438	0.686	1	incongruent	Block3	incongruent/STIM_026.jpg
2750.169	0.656	1	incongruent	Block3	incongruent/STIM_026.jpg
2752.931	0.724	1	incongruent	Block3	incongruent/STIM_026.jpg
2756.635	0.923	1	incongruent	Block3	incongruent/STIM_026.jpg
2760.195	0.856	1	incongruent	Block3	incongruent/STIM_026.jpg
2764.311	0.972	1	incongruent	Block3	incongruent/STIM_027.jpg
2768.02	0.611	1	incongruent	Block3	incongruent/STIM_027.jpg
2771.245	0.722	1	incongruent	Block3	incongruent/STIM_027.jpg
2774.49	0.578	1	incongruent	Block3	incongruent/STIM_027.jpg
2778.574	0.893	1	incongruent	Block3	incongruent/STIM_027.jpg
2782.058	1.033	1	incongruent	Block3	incongruent/STIM_028.jpg
2785.854	0.621	1	incongruent	Block3	incongruent/STIM_028.jpg
2789.943	0.894	1	incongruent	Block3	incongruent/STIM_028.jpg
2793.868	1.208	1	incongruent	Block3	incongruent/STIM_028.jpg
2797.046	0.53	1	incongruent	Block3	incongruent/STIM_028.jpg
2801.243	1.053	1	incongruent	Block3	incongruent/STIM_029.jpg
2804.84	1.066	1	incongruent	Block3	incongruent/STIM_029.jpg
2809.334	1.008	1	incongruent	Block3	incongruent/STIM_029.jpg
2813.148	0.989	1	incongruent	Block3	incongruent/STIM_029.jpg
2816.619	0.732	1	incongruent	Block3	incongruent/STIM_029.jpg
2821.277	0.966	1	congruent	Block3	congruent/STIM_000.jpg
2824.576	0.946	1	congruent	Block3	congruent/STIM_000.jpg
2829.12	0.807	1	congruent	Block3	congruent/STIM_000.jpg
2833.474	0.803	1	congruent	Block3	congruent/STIM_000.jpg
2837.88	0.819	1	congruent	Block3	congruent/STIM_000.jpg
2841.18	0.671	1	congruent	Block3	congruent/STIM_001.jpg
2845.162	0.818	1	congruent	Block3	congruent/STIM_001.jpg
2848.566	0.958	1	congruent	Block3	congruent/STIM_001.jpg
2852.745	0.828	1	congruent	Block3	congruent/STIM_001.jpg
2855.987	0.611	1	congruent	Block3	congruent/STIM_001.jpg
2858.631	0.95	1	congruent	Block3	congruent/STIM_002.jpg
2862.993	0.648	0	congruent	Block3	congruent/STIM_002.jpg
2865.63	0.576	1	congruent	Block3	congruent/STIM_002.jpg
2868.84	0.805	1	congruent	Block3	congruent/STIM_002.jpg
2873.205	0.576	1	congruent	Block3	congruent/STIM_002.jpg
2877.314	1.002	1	congruent	Block3	congruent/STIM_003.jpg
2882.132	0.672	1	congruent	Block3	congruent/STIM_003.jpg
2885.356	0.93	1	congruent	Block3	congruent/STIM_003.jpg
2889.773	0.732	1	congruent	Block3	congruent/STIM_003.jpg
2892.665	0.935	1	congruent	Block3	congruent/STIM_003.jpg
2896.573	0.608	1	congruent	Block3	congruent/STIM_004.jpg
2900.657	1.02	1	congruent	Block3	congruent/STIM_004.jpg
2904.122	0.944	1	congruent	Block3	congruent/STIM_004.jpg
2908.143	0.864	1	congruent	Block3	congruent/STIM_004.jpg
2912.611	0.975	1	congruent	Block3	congruent/STIM_004.jpg
2917.314	0.766	1	congruent	Block3	congruent/STIM_005.jpg
2920.374	0.739	1	congruent	Block3	congruent/STIM_005.jpg
2924.138	0.76	1	congruent	Block3	congruent/STIM_005.jpg
2928.127	0.678	1	congruent	Block3	congruent/STIM_005.jpg
2931.444	1.05	1	congruent	Block3	congruent/STIM_005.jpg
2935.589	0.893	1	congruent	Block3	congruent/STIM_006.jpg
2938.774	0.5	1	congruent	Block3	congruent/STIM_006.jpg
2942.22	0.986	1	congruent	Block3	congruent/STIM_006.jpg
2945.339	0.969	1	congruent	Block3	congruent/STIM_006.jpg
2948.255	0.746	1	congruent	Block3	congruent/STIM_006.jpg
2952.421	0.824	1	congruent	Block3	congruent/STIM_007.jpg
2956.787	0.604	1	congruent	Block3	congruent/STIM_007.jpg
2959.534	1.048	1	congruent	Block3	congruent/STIM_007.jpg
2963.928	0.662	1	congruent	Block3	congruent/STIM_007.jpg
2967.596	0.982	1	congruent	Block3	congruent/STIM_007.jpg
2972.017	0.703	1	congruent	Block3	congruent/STIM_008.jpg
2976.627	0.706	1	congruent	Block3	congruent/STIM_008.jpg
2980.018	0.705	1	congruent	Block3	congruent/STIM_008.jpg
2984.228	0.674	1	congruent	Block3	congruent/STIM_008.jpg
2987.846	1.018	1	congruent	Block3	congruent/STIM_008.jpg
2991.654	0.552	1	congruent	Block3	congruent/STIM_009.jpg
2994.704	0.878	1	congruent	Block3	congruent/STIM_009.jpg
2998.488	0.765	1	congruent	Block3	congruent/STIM_009.jpg
3002.647	0.614	1	congruent	Block3	congruent/STIM_009.jpg
3007.088	0.947	1	congruent	Block3	congruent/STIM_009.jpg
3010.586	0.842	0	congruent	Block3	congruent/STIM_010.jpg
3014.784	0.83	1	congruent	Block3	congruent/STIM_010.jpg
3018.023	0.58	1	congruent	Block3	congruent/STIM_010.jpg
3021.589	0.937	1	congruent	Block3	congruent/STIM_010.jpg
3026.049	0.866	1	congruent	Block3	congruent/STIM_010.jpg
3029.426	0.82	1	congruent	Block3	congruent/STIM_011.jpg
3032.388	0.566	1	congruent	Block3	congruent/STIM_011.jpg
3036.022	0.756	1	congruent	Block3	congruent/STIM_011.jpg
3040.059	0.928	1	congruent	Block3	congruent/STIM_011.jpg
3044.09	0.696	1	congruent	Block3	congruent/STIM_011.jpg
3048.7	0.848	1	congruent	Block3	congruent/STIM_012.jpg
3051.567	0.581	1	congruent	Block3	congruent/STIM_012.jpg
3054.609	0.722	1	congruent	Block3	congruent/STIM_012.jpg
3058.139	0.546	1	congruent	Block3	congruent/STIM_012.jpg
3061.166	0.937	1	congruent	Block3	congruent/STIM_012.jpg
3065.386	0.629	1	congruent	Block3	congruent/STIM_013.jpg
3069.042	0.749	1	congruent	Block3	congruent/STIM_013.jpg
3073.346	0.769	1	congruent	Block3	congruent/STIM_013.jpg
3076.481	0.714	1	congruent	Block3	congruent/STIM_013.jpg
3081.127	0.575	1	congruent	Block3	congruent/STIM_013.jpg
3083.995	0.505	1	congruent	Block3	congruent/STIM_014.jpg
3086.819	0.64	1	congruent	Block3	congruent/STIM_014.jpg
3090.62	0.589	1	congruent	Block3	congruent/STIM_014.jpg
3093.882	0.763	1	congruent	Block3	congruent/STIM_014.jpg
3097.217	0.767	1	congruent	Block3	congruent/STIM_014.jpg
3100.274	0.906	0	congruent	Block3	congruent/STIM_015.jpg
3103.604	0.99	1	congruent	Block3	congruent/STIM_015.jpg
3107.257	0.593	1	congruent	Block3	congruent/STIM_015.jpg
3110.952	0.824	1	congruent	Block3	congruent/STIM_015.jpg
3114.47	0.616	1	congruent	Block3	congruent/STIM_015.jpg
3117.178	0.744	1	congruent	Block3	congruent/STIM_016.jpg
3121.531	0.525	1	congruent	Block3	congruent/STIM_016.jpg
3125.239	0.768	1	congruent	Block3	congruent/STIM_016.jpg
3128.745	0.917	1	congruent	Block3	congruent/STIM_016.jpg
3133.422	0.662	1	congruent	Block3	congruent/STIM_016.jpg
3136.109	0.921	1	congruent	Block3	congruent/STIM_017.jpg
3139.422	0.563	1	congruent	Block3	congruent/STIM_017.jpg
3143.029	0.998	1	congruent	Block3	congruent/STIM_017.jpg
3146.421	0.957	1	congruent	Block3	congruent/STIM_017.jpg
3150.601	0.737	1	congruent	Block3	congruent/STIM_017.jpg
3154.749	0.651	1	congruent	Block3	congruent/STIM_018.jpg
3158.94	0.818	0	congruent	Block3	congruent/STIM_018.jpg
3162.984	0.901	1	congruent	Block3	congruent/STIM_018.jpg
3166.911	0.7	1	congruent	Block3	congruent/STIM_018.jpg
3170.308	0.765	1	congruent	Block3	congruent/STIM_018.jpg
3174.153	0.982	1	congruent	Block3	congruent/STIM_019.jpg
3178.86	0.69	0	congruent	Block3	congruent/STIM_019.jpg
3183.293	0.687	1	congruent	Block3	congruent/STIM_019.jpg
3186.098	0.986	1	congruent	Block3	congruent/STIM_019.jpg
3190.405	0.761	1	congruent	Block3	congruent/STIM_019.jpg
3194.077	0.652	1	congruent	Block3	congruent/STIM_020.jpg
3197.833	1.039	1	congruent	Block3	congruent/STIM_020.jpg
3202.015	0.904	1	congruent	Block3	congruent/STIM_020.jpg
3205.894	0.591	1	congruent	Block3	congruent/STIM_020.jpg
3209.245	0.95	1	congruent	Block3	congruent/STIM_020.jpg
3213.628	0.821	1	congruent	Block3	congruent/STIM_021.jpg
3218.053	0.896	0	congruent	Block3	congruent/STIM_021.jpg
3221.836	0.716	1	congruent	Block3	congruent/STIM_021.jpg
3226.01	0.741	1	congruent	Block3	congruent/STIM_021.jpg
3229.772	0.998	1	congruent	Block3	congruent/STIM_021.jpg
3234.276	0.61	1	congruent	Block3	congruent/STIM_022.jpg
3237.789	0.987	1	congruent	Block3	congruent/STIM_022.jpg
3240.6	0.724	1	congruent	Block3	congruent/STIM_022.jpg
3244.284	0.69	1	congruent	Block3	congruent/STIM_022.jpg
3247.059	0.762	0	congruent	Block3	congruent/STIM_022.jpg
3250.959	0.829	1	congruent	Block3	congruent/STIM_023.jpg
3255.065	0.834	1	congruent	Block3	congruent/STIM_023.jpg
3257.849	0.792	1	congruent	Block3	congruent/STIM_023.jpg
3262.144	0.752	1	congruent	Block3	congruent/STIM_023.jpg
3264.979	0.854	1	congruent	Block3	congruent/STIM_023.jpg
3267.786	0.75	1	congruent	Block3	congruent/STIM_024.jpg
3270.918	0.928	1	congruent	Block3	congruent/STIM_024.jpg
3274.622	0.936	1	congruent	Block3	congruent/STIM_024.jpg
3278.256	0.723	1	congruent	Block3	congruent/STIM_024.jpg
3281.81	0.632	1	congruent	Block3	congruent/STIM_024.jpg
3285.902	0.596	1	congruent	Block3	congruent/STIM_025.jpg
3290.181	0.577	1	congruent	Block3	congruent/STIM_025.jpg
3293.793	0.944	1	congruent	Block3	congruent/STIM_025.jpg
3297.794	1.108	1	congruent	Block3	congruent/STIM_025.jpg
3301.053	0.703	1	congruent	Block3	congruent/STIM_025.jpg
3303.757	0.674	1	congruent	Block3	congruent/STIM_026.jpg
3306.507	0.77	1	congruent	Block3	congruent/STIM_026.jpg
3310.258	0.956	1	congruent	Block3	congruent/STIM_026.jpg
3314.292	0.921	1	congruent	Block3	congruent/STIM_026.jpg
3317.703	0.613	1	congruent	Block3	congruent/STIM_026.jpg
3321.229	0.642	1	congruent	Block3	congruent/STIM_027.jpg
3325.521	0.89	1	congruent	Block3	congruent/STIM_027.jpg
3328.768	0.752	1	congruent	Block3	congruent/STIM_027.jpg
3332.879	0.755	1	congruent	Block3	congruent/STIM_027.jpg
3335.565	0.942	1	congruent	Block3	congruent/STIM_027.jpg
3338.989	0.945	1	congruent	Block3	congruent/STIM_028.jpg
3342.555	0.901	1	congruent	Block3	congruent/STIM_028.jpg
3345.569	1.041	1	congruent	Block3	congruent/STIM_028.jpg
3349.491	0.706	1	congruent	Block3	congruent/STIM_028.jpg
3352.216	0.757	1	congruent	Block3	congruent/STIM_028.jpg
3356.187	0.688	1	congruent	Block3	congruent/STIM_029.jpg
3360.355	0.811	1	congruent	Block3	congruent/STIM_029.jpg
3363.451	0.794	1	congruent	Block3	congruent/STIM_029.jpg
3367.002	0.685	1	congruent	Block3	congruent/STIM_029.jpg
3370.551	0.672	1	congruent	Block3	congruent/STIM_029.jpg
