onset	duration	accuracy_binary	trial_type	learning_stage	stimulus
0.0	0.68	1	incongruent	Block1	incongruent/STIM_000.jpg
3.908	0.641	1	incongruent	Block1	incongruent/STIM_000.jpg
7.571	0.851	1	incongruent	Block1	incongruent/STIM_000.jpg
11.662	1.032	1	incongruent	Block1	incongruent/STIM_000.jpg
16.474	0.651	1	incongruent	Block1	incongruent/STIM_000.jpg
20.867	1.079	1	incongruent	Block1	incongruent/STIM_001.jpg
24.412	0.647	1	incongruent	Block1	incongruent/STIM_001.jpg
27.99	1.076	1	incongruent	Block1	incongruent/STIM_001.jpg
31.722	0.603	1	incongruent	Block1	incongruent/STIM_001.jpg
35.5	0.527	1	incongruent	Block1	incongruent/STIM_001.jpg
39.367	1.335	1	incongruent	Block1	incongruent/STIM_002.jpg
43.723	1.001	1	incongruent	Block1	incongruent/STIM_002.jpg
47.406	0.991	1	incongruent	Block1	incongruent/STIM_002.jpg
50.5	0.699	1	incongruent	Block1	incongruent/STIM_002.jpg
54.955	0.753	1	incongruent	Block1	incongruent/STIM_002.jpg
59.118	1.236	0	incongruent	Block1	incongruent/STIM_003.jpg
63.82	0.611	1	incongruent	Block1	incongruent/STIM_003.jpg
67.074	0.891	1	incongruent	Block1	incongruent/STIM_003.jpg
70.952	0.765	1	incongruent	Block1	incongruent/STIM_003.jpg
74.256	0.823	1	incongruent	Block1	incongruent/STIM_003.jpg
77.932	0.97	1	incongruent	Block1	incongruent/STIM_004.jpg
82.623	0.619	1	incongruent	Block1	incongruent/STIM_004.jpg
85.668	0.642	1	incongruent	Block1	incongruent/STIM_004.jpg
90.152	0.968	1	incongruent	Block1	incongruent/STIM_004.jpg
93.792	0.659	1	incongruent	Block1	incongruent/STIM_004.jpg
96.784	1.156	1	incongruent	Block1	incongruent/STIM_005.jpg
101.357	1.04	1	incongruent	Block1	incongruent/STIM_005.jpg
105.535	1.131	1	incongruent	Block1	incongruent/STIM_005.jpg
109.134	0.938	1	incongruent	Block1	incongruent/STIM_005.jpg
112.182	0.679	1	incongruent	Block1	incongruent/STIM_005.jpg
115.782	0.797	1	incongruent	Block1	incongruent/STIM_006.jpg
119.484	1.065	1	incongruent	Block1	incongruent/STIM_006.jpg
122.659	0.781	1	incongruent	Block1	incongruent/STIM_006.jpg
125.917	0.873	1	incongruent	Block1	incongruent/STIM_006.jpg
130.117	1.063	1	incongruent	Block1	incongruent/STIM_006.jpg
133.27	0.991	1	incongruent	Block1	incongruent/STIM_007.jpg
137.103	0.608	1	incongruent	Block1	incongruent/STIM_007.jpg
140.972	0.749	1	incongruent	Block1	incongruent/STIM_007.jpg
145.696	0.606	1	incongruent	Block1	incongruent/STIM_007.jpg
148.636	0.695	1	incongruent	Block1	incongruent/STIM_007.jpg
151.755	1.131	1	incongruent	Block1	incongruent/STIM_008.jpg
155.092	1.058	1	incongruent	Block1	incongruent/STIM_008.jpg
159.123	1.092	1	incongruent	Block1	incongruent/STIM_008.jpg
162.592	1.065	1	incongruent	Block1	incongruent/STIM_008.jpg
167.342	0.767	1	incongruent	Block1	incongruent/STIM_008.jpg
171.481	0.908	1	incongruent	Block1	incongruent/STIM_009.jpg
176.019	1.111	1	incongruent	Block1	incongruent/STIM_009.jpg
180.916	0.856	1	incongruent	Block1	incongruent/STIM_009.jpg
184.403	1.13	1	incongruent	Block1	incongruent/STIM_009.jpg
187.974	0.972	1	incongruent	Block1	incongruent/STIM_009.jpg
191.774	1.248	1	incongruent	Block1	incongruent/STIM_010.jpg
195.914	1.284	1	incongruent	Block1	incongruent/STIM_010.jpg
200.068	0.68	1	incongruent	Block1	incongruent/STIM_010.jpg
204.469	0.595	1	incongruent	Block1	incongruent/STIM_010.jpg
208.634	0.788	1	incongruent	Block1	incongruent/STIM_010.jpg
211.627	0.937	1	incongruent	Block1	incongruent/STIM_011.jpg
214.612	0.639	1	incongruent	Block1	incongruent/STIM_011.jpg
218.89	0.838	1	incongruent	Block1	incongruent/STIM_011.jpg
223.601	0.981	1	incongruent	Block1	incongruent/STIM_011.jpg
227.662	1.038	1	incongruent	Block1	incongruent/STIM_011.jpg
231.226	0.998	1	incongruent	Block1	incongruent/STIM_012.jpg
234.236	0.69	1	incongruent	Block1	incongruent/STIM_012.jpg
237.222	1.202	1	incongruent	Block1	incongruent/STIM_012.jpg
241.866	0.802	1	incongruent	Block1	incongruent/STIM_012.jpg
246.46	0.7	1	incongruent	Block1	incongruent/STIM_012.jpg
249.965	1.181	1	incongruent	Block1	incongruent/STIM_013.jpg
253.193	1.051	1	incongruent	Block1	incongruent/STIM_013.jpg
257.6	0.887	1	incongruent	Block1	incongruent/STIM_013.jpg
260.878	1.086	1	incongruent	Block1	incongruent/STIM_013.jpg
265.046	0.582	1	incongruent	Block1	incongruent/STIM_013.jpg
267.806	1.222	1	incongruent	Block1	incongruent/STIM_014.jpg
271.991	0.625	1	incongruent	Block1	incongruent/STIM_014.jpg
275.624	0.837	1	incongruent	Block1	incongruent/STIM_014.jpg
279.371	0.592	1	incongruent	Block1	incongruent/STIM_014.jpg
282.274	0.929	1	incongruent	Block1	incongruent/STIM_014.jpg
285.222	0.835	1	incongruent	Block1	incongruent/STIM_015.jpg
289.519	0.859	1	incongruent	Block1	incongruent/STIM_015.jpg
293.897	0.721	1	incongruent	Block1	incongruent/STIM_015.jpg
298.378	0.944	1	incongruent	Block1	incongruent/STIM_015.jpg
302.993	1.045	1	incongruent	Block1	incongruent/STIM_015.jpg
307.273	1.324	0	incongruent	Block1	incongruent/STIM_016.jpg
312.542	0.737	1	incongruent	Block1	incongruent/STIM_016.jpg
316.712	0.703	1	incongruent	Block1	incongruent/STIM_016.jpg
319.868	1.08	1	incongruent	Block1	incongruent/STIM_016.jpg
324.297	0.704	1	incongruent	Block1	incongruent/STIM_016.jpg
328.478	1.061	1	incongruent	Block1	incongruent/STIM_017.jpg
331.827	0.978	1	incongruent	Block1	incongruent/STIM_017.jpg
335.33	0.641	1	incongruent	Block1	incongruent/STIM_017.jpg
339.518	0.659	0	incongruent	Block1	incongruent/STIM_017.jpg
342.575	1.014	1	incongruent	Block1	incongruent/STIM_017.jpg
346.392	1.174	1	incongruent	Block1	incongruent/STIM_018.jpg
351.374	1.066	1	incongruent	Block1	incongruent/STIM_018.jpg
356.116	1.148	1	incongruent	Block1	incongruent/STIM_018.jpg
361.119	0.842	1	incongruent	Block1	incongruent/STIM_018.jpg
365.088	0.614	1	incongruent	Block1	incongruent/STIM_018.jpg
368.576	1.172	1	incongruent	Block1	incongruent/STIM_019.jpg
373.544	1.117	1	incongruent	Block1	incongruent/STIM_019.jpg
377.666	0.979	1	incongruent	Block1	incongruent/STIM_019.jpg
382.616	0.796	1	incongruent	Block1	incongruent/STIM_019.jpg
386.382	0.661	1	incongruent	Block1	incongruent/STIM_019.jpg
390.915	1.055	1	incongruent	Block1	incongruent/STIM_020.jpg
395.724	1.137	1	incongruent	Block1	incongruent/STIM_020.jpg
399.9	0.972	1	incongruent	Block1	incongruent/STIM_020.jpg
403.612	1.141	1	incongruent	Block1	incongruent/STIM_020.jpg
407.55	0.57	1	incongruent	Block1	incongruent/STIM_020.jpg
410.354	1.122	1	incongruent	Block1	incongruent/STIM_021.jpg
414.557	0.645	1	incongruent	Block1	incongruent/STIM_021.jpg
418.315	0.911	1	incongruent	Block1	incongruent/STIM_021.jpg
422.32	0.872	1	incongruent	Block1	incongruent/STIM_021.jpg
425.465	0.839	1	incongruent	Block1	incongruent/STIM_021.jpg
428.529	0.728	1	incongruent	Block1	incongruent/STIM_022.jpg
432.515	0.735	1	incongruent	Block1	incongruent/STIM_022.jpg
435.814	0.698	1	incongruent	Block1	incongruent/STIM_022.jpg
440.341	1.095	1	incongruent	Block1	incongruent/STIM_022.jpg
444.671	0.871	1	incongruent	Block1	incongruent/STIM_022.jpg
448.577	0.881	1	incongruent	Block1	incongruent/STIM_023.jpg
451.993	1.089	1	incongruent	Block1	incongruent/STIM_023.jpg
456.844	1.05	1	incongruent	Block1	incongruent/STIM_023.jpg
461.458	0.602	1	incongruent	Block1	incongruent/STIM_023.jpg
464.793	0.665	1	incongruent	Block1	incongruent/STIM_023.jpg
469.058	1.049	1	incongruent	Block1	incongruent/STIM_024.jpg
473.518	0.869	1	incongruent	Block1	incongruent/STIM_024.jpg
476.392	0.976	1	incongruent	Block1	incongruent/STIM_024.jpg
481.039	1.081	1	incongruent	Block1	incongruent/STIM_024.jpg
485.56	0.958	1	incongruent	Block1	incongruent/STIM_024.jpg
490.063	1.17	1	incongruent	Block1	incongruent/STIM_025.jpg
494.287	0.607	1	incongruent	Block1	incongruent/STIM_025.jpg
498.516	0.745	1	incongruent	Block1	incongruent/STIM_025.jpg
501.494	0.598	0	incongruent	Block1	incongruent/STIM_025.jpg
504.767	0.834	1	incongruent	Block1	incongruent/STIM_025.jpg
508.299	0.654	1	incongruent	Block1	incongruent/STIM_026.jpg
511.133	0.928	1	incongruent	Block1	incongruent/STIM_026.jpg
514.458	1.063	1	incongruent	Block1	incongruent/STIM_026.jpg
519.082	0.959	1	incongruent	Block1	incongruent/STIM_026.jpg
522.6	0.739	1	incongruent	Block1	incongruent/STIM_026.jpg
525.438	0.734	1	incongruent	Block1	incongruent/STIM_027.jpg
528.883	0.958	1	incongruent	Block1	incongruent/STIM_027.jpg
532.856	0.578	1	incongruent	Block1	incongruent/STIM_027.jpg
535.624	0.96	1	incongruent	Block1	incongruent/STIM_027.jpg
540.12	0.714	0	incongruent	Block1	incongruent/STIM_027.jpg
542.97	0.78	1	incongruent	Block1	incongruent/STIM_028.jpg
547.579	1.286	0	incongruent	Block1	incongruent/STIM_028.jpg
551.633	1.034	1	incongruent	Block1	incongruent/STIM_028.jpg
555.584	1.089	1	incongruent	Block1	incongruent/STIM_028.jpg
559.317	0.876	1	incongruent	Block1	incongruent/STIM_028.jpg
562.944	1.173	1	incongruent	Block1	incongruent/STIM_029.jpg
567.502	1.0	1	incongruent	Block1	incongruent/STIM_029.jpg
572.152	0.896	1	incongruent	Block1	incongruent/STIM_029.jpg
575.222	0.782	1	incongruent	Block1	incongruent/STIM_029.jpg
578.959	0.567	1	incongruent	Block1	incongruent/STIM_029.jpg
581.613	0.736	1	congruent	Block1	congruent/STIM_000.jpg
586.267	0.569	1	congruent	Block1	congruent/STIM_000.jpg
589.957	0.585	1	congruent	Block1	congruent/STIM_000.jpg
593.571	0.684	1	congruent	Block1	congruent/STIM_000.jpg
597.769	0.714	1	congruent	Block1	congruent/STIM_000.jpg
602.305	0.792	1	congruent	Block1	congruent/STIM_001.jpg
606.304	0.722	1	congruent	Block1	congruent/STIM_001.jpg
610.408	0.812	1	congruent	Block1	congruent/STIM_001.jpg
613.781	0.683	1	congruent	Block1	congruent/STIM_001.jpg
617.601	0.53	1	congruent	Block1	congruent/STIM_001.jpg
620.281	0.69	1	congruent	Block1	congruent/STIM_002.jpg
622.994	0.717	1	congruent	Block1	congruent/STIM_002.jpg
626.76	0.652	1	congruent	Block1	congruent/STIM_002.jpg
630.578	0.525	1	congruent	Block1	congruent/STIM_002.jpg
634.839	0.639	1	congruent	Block1	congruent/STIM_002.jpg
638.87	0.722	1	congruent	Block1	congruent/STIM_003.jpg
642.383	0.758	1	congruent	Block1	congruent/STIM_003.jpg
645.31	0.576	1	congruent	Block1	congruent/STIM_003.jpg
648.417	0.643	1	congruent	Block1	congruent/STIM_003.jpg
651.884	0.614	1	congruent	Block1	congruent/STIM_003.jpg
656.167	0.587	1	congruent	Block1	congruent/STIM_004.jpg
659.552	0.712	1	congruent	Block1	congruent/STIM_004.jpg
663.603	0.721	1	congruent	Block1	congruent/STIM_004.jpg
667.159	0.734	1	congruent	Block1	congruent/STIM_004.jpg
670.723	0.811	1	congruent	Block1	congruent/STIM_004.jpg
675.414	0.714	1	congruent	Block1	congruent/STIM_005.jpg
679.574	0.808	1	congruent	Block1	congruent/STIM_005.jpg
683.837	0.558	1	congruent	Block1	congruent/STIM_005.jpg
686.519	0.685	1	congruent	Block1	congruent/STIM_005.jpg
689.838	0.76	1	congruent	Block1	congruent/STIM_005.jpg
693.124	0.792	1	congruent	Block1	congruent/STIM_006.jpg
697.385	0.498	1	congruent	Block1	congruent/STIM_006.jpg
700.956	0.523	1	congruent	Block1	congruent/STIM_006.jpg
705.132	0.696	1	congruent	Block1	congruent/STIM_006.jpg
707.964	0.61	1	congruent	Block1	congruent/STIM_006.jpg
711.301	0.666	1	congruent	Block1	congruent/STIM_007.jpg
714.957	0.736	1	congruent	Block1	congruent/STIM_007.jpg
718.455	0.67	1	congruent	Block1	congruent/STIM_007.jpg
721.767	0.452	1	congruent	Block1	congruent/STIM_007.jpg
724.256	0.526	1	congruent	Block1	congruent/STIM_007.jpg
728.674	0.739	1	congruent	Block1	congruent/STIM_008.jpg
731.758	0.625	1	congruent	Block1	congruent/STIM_008.jpg
735.676	0.759	1	congruent	Block1	congruent/STIM_008.jpg
740.331	0.76	1	congruent	Block1	congruent/STIM_008.jpg
744.058	0.509	1	congruent	Block1	congruent/STIM_008.jpg
747.501	0.49	1	congruent	Block1	congruent/STIM_009.jpg
750.535	0.513	1	congruent	Block1	congruent/STIM_009.jpg
754.851	0.716	1	congruent	Block1	congruent/STIM_009.jpg
759.162	0.663	1	congruent	Block1	congruent/STIM_009.jpg
761.933	0.636	1	congruent	Block1	congruent/STIM_009.jpg
765.863	0.65	1	congruent	Block1	congruent/STIM_010.jpg
769.917	0.756	1	congruent	Block1	congruent/STIM_010.jpg
773.694	0.652	1	congruent	Block1	congruent/STIM_010.jpg
778.333	0.723	1	congruent	Block1	congruent/STIM_010.jpg
782.124	0.792	1	congruent	Block1	congruent/STIM_010.jpg
785.901	0.519	1	congruent	Block1	congruent/STIM_011.jpg
790.002	0.626	1	congruent	Block1	congruent/STIM_011.jpg
793.488	0.479	0	congruent	Block1	congruent/STIM_011.jpg
797.82	0.528	1	congruent	Block1	congruent/STIM_011.jpg
802.162	0.541	1	congruent	Block1	congruent/STIM_011.jpg
805.756	0.46	1	congruent	Block1	congruent/STIM_012.jpg
809.556	0.648	1	congruent	Block1	congruent/STIM_012.jpg
812.468	0.576	1	congruent	Block1	congruent/STIM_012.jpg
816.503	0.657	1	congruent	Block1	congruent/STIM_012.jpg
820.559	0.658	1	congruent	Block1	congruent/STIM_012.jpg
823.466	0.809	1	congruent	Block1	congruent/STIM_013.jpg
826.921	0.73	1	congruent	Block1	congruent/STIM_013.jpg
831.301	0.549	1	congruent	Block1	congruent/STIM_013.jpg
834.593	0.503	1	congruent	Block1	congruent/STIM_013.jpg
837.417	0.492	1	congruent	Block1	congruent/STIM_013.jpg
840.94	0.603	1	congruent	Block1	congruent/STIM_014.jpg
845.158	0.808	1	congruent	Block1	congruent/STIM_014.jpg
848.48	0.465	1	congruent	Block1	congruent/STIM_014.jpg
851.026	0.662	1	congruent	Block1	congruent/STIM_014.jpg
854.415	0.58	1	congruent	Block1	congruent/STIM_014.jpg
857.959	0.776	1	congruent	Block1	congruent/STIM_015.jpg
861.135	0.574	1	congruent	Block1	congruent/STIM_015.jpg
864.404	0.691	1	congruent	Block1	congruent/STIM_015.jpg
869.015	0.626	1	congruent	Block1	congruent/STIM_015.jpg
872.93	0.799	1	congruent	Block1	congruent/STIM_015.jpg
875.731	0.489	1	congruent	Block1	congruent/STIM_016.jpg
878.913	0.569	1	congruent	Block1	congruent/STIM_016.jpg
882.386	0.8	1	congruent	Block1	congruent/STIM_016.jpg
886.939	0.591	1	congruent	Block1	congruent/STIM_016.jpg
890.295	0.657	1	congruent	Block1	congruent/STIM_016.jpg
894.807	0.732	1	congruent	Block1	congruent/STIM_017.jpg
898.543	0.733	1	congruent	Block1	congruent/STIM_017.jpg
901.551	0.673	1	congruent	Block1	congruent/STIM_017.jpg
905.12	0.759	1	congruent	Block1	congruent/STIM_017.jpg
908.182	0.652	1	congruent	Block1	congruent/STIM_017.jpg
912.667	0.502	1	congruent	Block1	congruent/STIM_018.jpg
916.496	0.631	1	congruent	Block1	congruent/STIM_018.jpg
920.8	0.455	1	congruent	Block1	congruent/STIM_018.jpg
923.788	0.629	1	congruent	Block1	congruent/STIM_018.jpg
927.458	0.557	1	congruent	Block1	congruent/STIM_018.jpg
931.362	0.557	1	congruent	Block1	congruent/STIM_019.jpg
935.204	0.795	1	congruent	Block1	congruent/STIM_019.jpg
939.283	0.7	1	congruent	Block1	congruent/STIM_019.jpg
943.778	0.787	1	congruent	Block1	congruent/STIM_019.jpg
947.906	0.557	1	congruent	Block1	congruent/STIM_019.jpg
950.921	0.608	1	congruent	Block1	congruent/STIM_020.jpg
955.482	0.51	1	congruent	Block1	congruent/STIM_020.jpg
959.887	0.65	1	congruent	Block1	congruent/STIM_020.jpg
962.846	0.554	1	congruent	Block1	congruent/STIM_020.jpg
966.141	0.626	1	congruent	Block1	congruent/STIM_020.jpg
970.584	0.692	1	congruent	Block1	congruent/STIM_021.jpg
975.256	0.536	1	congruent	Block1	congruent/STIM_021.jpg
979.314	0.796	1	congruent	Block1	congruent/STIM_021.jpg
983.341	0.577	1	congruent	Block1	congruent/STIM_021.jpg
987.185	0.592	1	congruent	Block1	congruent/STIM_021.jpg
990.598	0.533	1	congruent	Block1	congruent/STIM_022.jpg
994.608	0.754	1	congruent	Block1	congruent/STIM_022.jpg
998.693	0.502	1	congruent	Block1	congruent/STIM_022.jpg
1001.984	0.514	1	congruent	Block1	congruent/STIM_022.jpg
1005.543	0.654	1	congruent	Block1	congruent/STIM_022.jpg
1009.14	0.618	1	congruent	Block1	congruent/STIM_023.jpg
1012.81	0.46	1	congruent	Block1	congruent/STIM_023.jpg
1015.925	0.671	1	congruent	Block1	congruent/STIM_023.jpg
1020.276	0.578	0	congruent	Block1	congruent/STIM_023.jpg
1023.244	0.703	1	congruent	Block1	congruent/STIM_023.jpg
1026.003	0.506	1	congruent	Block1	congruent/STIM_024.jpg
1029.6	0.7	1	congruent	Block1	congruent/STIM_024.jpg
1033.775	0.542	1	congruent	Block1	congruent/STIM_024.jpg
1037.611	0.659	1	congruent	Block1	congruent/STIM_024.jpg
1040.7	0.501	1	congruent	Block1	congruent/STIM_024.jpg
1043.202	0.741	1	congruent	Block1	congruent/STIM_025.jpg
1047.255	0.602	1	congruent	Block1	congruent/STIM_025.jpg
1050.511	0.46	1	congruent	Block1	congruent/STIM_025.jpg
1054.319	0.748	1	congruent	Block1	congruent/STIM_025.jpg
1057.238	0.59	1	congruent	Block1	congruent/STIM_025.jpg
1061.726	0.649	1	congruent	Block1	congruent/STIM_026.jpg
1064.744	0.751	1	congruent	Block1	congruent/STIM_026.jpg
1067.522	0.662	1	congruent	Block1	congruent/STIM_026.jpg
1070.51	0.488	1	congruent	Block1	congruent/STIM_026.jpg
1073.816	0.758	1	congruent	Block1	congruent/STIM_026.jpg
1077.39	0.66	1	congruent	Block1	congruent/STIM_027.jpg
1080.96	0.541	1	congruent	Block1	congruent/STIM_027.jpg
1084.545	0.633	1	congruent	Block1	congruent/STIM_027.jpg
1087.799	0.52	1	congruent	Block1	congruent/STIM_027.jpg
1091.31	0.66	1	congruent	Block1	congruent/STIM_027.jpg
1095.742	0.686	1	congruent	Block1	congruent/STIM_028.jpg
1099.953	0.67	1	congruent	Block1	congruent/STIM_028.jpg
1103.865	0.754	1	congruent	Block1	congruent/STIM_028.jpg
1107.366	0.78	1	congruent	Block1	congruent/STIM_028.jpg
1111.879	0.568	1	congruent	Block1	congruent/STIM_028.jpg
1116.065	0.799	1	congruent	Block1	congruent/STIM_029.jpg
1119.946	0.483	1	congruent	Block1	congruent/STIM_029.jpg
1124.212	0.571	1	congruent	Block1	congruent/STIM_029.jpg
1127.816	0.654	1	congruent	Block1	congruent/STIM_029.jpg
1132.157	0.671	1	congruent	Block1	congruent/STIM_029.jpg
1135.129	0.897	1	incongruent	Block2	incongruent/STIM_000.jpg
1139.648	0.523	1	incongruent	Block2	incongruent/STIM_000.jpg
1142.749	0.546	1	incongruent	Block2	incongruent/STIM_000.jpg
1145.488	0.548	1	incongruent	Block2	incongruent/STIM_000.jpg
1148.639	0.511	1	incongruent	Block2	incongruent/STIM_000.jpg
1152.988	0.794	1	incongruent	Block2	incongruent/STIM_001.jpg
1156.552	0.824	1	incongruent	Block2	incongruent/STIM_001.jpg
1160.749	0.989	1	incongruent	Block2	incongruent/STIM_001.jpg
1165.074	0.784	1	incongruent	Block2	incongruent/STIM_001.jpg
1169.289	0.566	1	incongruent	Block2	incongruent/STIM_001.jpg
1171.901	0.66	1	incongruent	Block2	incongruent/STIM_002.jpg
1176.481	0.767	1	incongruent	Block2	incongruent/STIM_002.jpg
1180.188	0.898	0	incongruent	Block2	incongruent/STIM_002.jpg
1183.094	0.856	1	incongruent	Block2	incongruent/STIM_002.jpg
1186.09	0.739	1	incongruent	Block2	incongruent/STIM_002.jpg
1189.909	0.57	1	incongruent	Block2	incongruent/STIM_003.jpg
1193.302	0.66	1	incongruent	Block2	incongruent/STIM_003.jpg
1197.833	0.995	1	incongruent	Block2	incongruent/STIM_003.jpg
1202.719	0.696	1	incongruent	Block2	incongruent/STIM_003.jpg
1206.466	0.753	1	incongruent	Block2	incongruent/STIM_003.jpg
1209.803	1.059	1	incongruent	Block2	incongruent/STIM_004.jpg
1214.269	0.879	1	incongruent	Block2	incongruent/STIM_004.jpg
1218.39	0.951	1	incongruent	Block2	incongruent/STIM_004.jpg
1222.45	0.66	1	incongruent	Block2	incongruent/STIM_004.jpg
1226.126	0.593	1	incongruent	Block2	incongruent/STIM_004.jpg
1229.608	1.076	1	incongruent	Block2	incongruent/STIM_005.jpg
1232.855	1.032	1	incongruent	Block2	incongruent/STIM_005.jpg
1237.793	0.592	1	incongruent	Block2	incongruent/STIM_005.jpg
1242.22	0.879	1	incongruent	Block2	incongruent/STIM_005.jpg
1245.822	0.918	1	incongruent	Block2	incongruent/STIM_005.jpg
1249.493	0.942	1	incongruent	Block2	incongruent/STIM_006.jpg
1253.235	0.682	1	incongruent	Block2	incongruent/STIM_006.jpg
1257.478	0.686	1	incongruent	Block2	incongruent/STIM_006.jpg
1261.101	0.691	1	incongruent	Block2	incongruent/STIM_006.jpg
1265.673	0.522	1	incongruent	Block2	incongruent/STIM_006.jpg
1268.267	1.099	1	incongruent	Block2	incongruent/STIM_007.jpg
1272.958	0.875	1	incongruent	Block2	incongruent/STIM_007.jpg
1276.715	0.718	1	incongruent	Block2	incongruent/STIM_007.jpg
1281.229	0.78	1	incongruent	Block2	incongruent/STIM_007.jpg
1285.028	0.734	1	incongruent	Block2	incongruent/STIM_007.jpg
1287.826	0.617	1	incongruent	Block2	incongruent/STIM_008.jpg
1292.128	0.912	1	incongruent	Block2	incongruent/STIM_008.jpg
1296.416	0.837	1	incongruent	Block2	incongruent/STIM_008.jpg
1300.772	0.448	1	incongruent	Block2	incongruent/STIM_008.jpg
1304.774	0.447	1	incongruent	Block2	incongruent/STIM_008.jpg
1308.825	1.101	1	incongruent	Block2	incongruent/STIM_009.jpg
1313.639	0.823	1	incongruent	Block2	incongruent/STIM_009.jpg
1318.084	0.587	1	incongruent	Block2	incongruent/STIM_009.jpg
1320.815	0.693	1	incongruent	Block2	incongruent/STIM_009.jpg
1325.186	0.885	1	incongruent	Block2	incongruent/STIM_009.jpg
1328.763	0.799	1	incongruent	Block2	incongruent/STIM_010.jpg
1332.497	1.076	1	incongruent	Block2	incongruent/STIM_010.jpg
1336.763	0.851	1	incongruent	Block2	incongruent/STIM_010.jpg
1339.84	0.614	1	incongruent	Block2	incongruent/STIM_010.jpg
1343.135	0.886	1	incongruent	Block2	incongruent/STIM_010.jpg
1347.086	1.048	1	incongruent	Block2	incongruent/STIM_011.jpg
1350.887	0.784	1	incongruent	Block2	incongruent/STIM_011.jpg
1354.601	0.927	1	incongruent	Block2	incongruent/STIM_011.jpg
1358.816	0.947	1	incongruent	Block2	incongruent/STIM_011.jpg
1362.889	0.841	1	incongruent	Block2	incongruent/STIM_011.jpg
1367.064	0.977	1	incongruent	Block2	incongruent/STIM_012.jpg
1371.868	0.992	1	incongruent	Block2	incongruent/STIM_012.jpg
1375.695	0.593	1	incongruent	Block2	incongruent/STIM_012.jpg
1379.891	0.915	1	incongruent	Block2	incongruent/STIM_012.jpg
1384.75	0.655	1	incongruent	Block2	incongruent/STIM_012.jpg
1388.603	0.715	1	incongruent	Block2	incongruent/STIM_013.jpg
1393.245	0.673	1	incongruent	Block2	incongruent/STIM_013.jpg
1397.551	0.696	1	incongruent	Block2	incongruent/STIM_013.jpg
1401.778	0.669	1	incongruent	Block2	incongruent/STIM_013.jpg
1406.42	0.642	1	incongruent	Block2	incongruent/STIM_013.jpg
1410.442	0.774	1	incongruent	Block2	incongruent/STIM_014.jpg
1413.723	0.589	1	incongruent	Block2	incongruent/STIM_014.jpg
1417.477	0.635	1	incongruent	Block2	incongruent/STIM_014.jpg
1420.841	0.616	1	incongruent	Block2	incongruent/STIM_014.jpg
1425.285	0.466	1	incongruent	Block2	incongruent/STIM_014.jpg
1429.072	0.744	1	incongruent	Block2	incongruent/STIM_015.jpg
1432.946	0.939	1	incongruent	Block2	incongruent/STIM_015.jpg
1436.967	0.89	1	incongruent	Block2	incongruent/STIM_015.jpg
1441.016	0.846	1	incongruent	Block2	incongruent/STIM_015.jpg
1444.197	0.576	1	incongruent	Block2	incongruent/STIM_015.jpg
1447.639	0.94	0	incongruent	Block2	incongruent/STIM_016.jpg
1451.451	0.973	1	incongruent	Block2	incongruent/STIM_016.jpg
1455.114	0.486	1	incongruent	Block2	incongruent/STIM_016.jpg
1459.279	0.444	1	incongruent	Block2	incongruent/STIM_016.jpg
1463.032	0.543	1	incongruent	Block2	incongruent/STIM_016.jpg
1467.34	0.761	1	incongruent	Block2	incongruent/STIM_017.jpg
1471.527	0.96	1	incongruent	Block2	incongruent/STIM_017.jpg
1474.494	0.867	1	incongruent	Block2	incongruent/STIM_017.jpg
1477.576	0.86	0	incongruent	Block2	incongruent/STIM_017.jpg
1481.293	0.475	1	incongruent	Block2	incongruent/STIM_017.jpg
1483.911	0.922	1	incongruent	Block2	incongruent/STIM_018.jpg
1487.865	0.543	1	incongruent	Block2	incongruent/STIM_018.jpg
1491.921	0.781	1	incongruent	Block2	incongruent/STIM_018.jpg
1496.301	0.811	1	incongruent	Block2	incongruent/STIM_018.jpg
1499.525	0.45	1	incongruent	Block2	incongruent/STIM_018.jpg
1503.433	0.575	1	incongruent	Block2	incongruent/STIM_019.jpg
1507.121	0.918	1	incongruent	Block2	incongruent/STIM_019.jpg
1511.728	0.813	1	incongruent	Block2	incongruent/STIM_019.jpg
1515.365	0.55	1	incongruent	Block2	incongruent/STIM_019.jpg
1519.414	0.466	1	incongruent	Block2	incongruent/STIM_019.jpg
1523.305	0.861	1	incongruent	Block2	incongruent/STIM_020.jpg
1528.131	0.798	1	incongruent	Block2	incongruent/STIM_020.jpg
1531.593	0.815	1	incongruent	Block2	incongruent/STIM_020.jpg
1535.316	0.544	1	incongruent	Block2	incongruent/STIM_020.jpg
1539.241	0.698	1	incongruent	Block2	incongruent/STIM_020.jpg
1543.442	0.685	1	incongruent	Block2	incongruent/STIM_021.jpg
1546.676	0.843	1	incongruent	Block2	incongruent/STIM_021.jpg
1550.108	0.821	1	incongruent	Block2	incongruent/STIM_021.jpg
1553.309	0.572	1	incongruent	Block2	incongruent/STIM_021.jpg
1556.047	0.576	1	incongruent	Block2	incongruent/STIM_021.jpg
1560.102	0.873	1	incongruent	Block2	incongruent/STIM_022.jpg
1563.303	0.803	1	incongruent	Block2	incongruent/STIM_022.jpg
1567.193	0.824	1	incongruent	Block2	incongruent/STIM_022.jpg
1570.761	0.458	1	incongruent	Block2	incongruent/STIM_022.jpg
1574.652	0.714	1	incongruent	Block2	incongruent/STIM_022.jpg
1578.683	0.922	1	incongruent	Block2	incongruent/STIM_023.jpg
1582.497	0.993	1	incongruent	Block2	incongruent/STIM_023.jpg
1587.401	0.97	1	incongruent	Block2	incongruent/STIM_023.jpg
1590.457	0.666	1	incongruent	Block2	incongruent/STIM_023.jpg
1593.616	0.544	1	incongruent	Block2	incongruent/STIM_023.jpg
1597.25	0.808	1	incongruent	Block2	incongruent/STIM_024.jpg
1601.866	0.998	1	incongruent	Block2	incongruent/STIM_024.jpg
1605.542	0.955	1	incongruent	Block2	incongruent/STIM_024.jpg
1609.26	0.466	1	incongruent	Block2	incongruent/STIM_024.jpg
1612.114	0.798	1	incongruent	Block2	incongruent/STIM_024.jpg
1616.707	0.675	1	incongruent	Block2	incongruent/STIM_025.jpg
1620.056	0.647	1	incongruent	Block2	incongruent/STIM_025.jpg
1622.997	0.638	1	incongruent	Block2	incongruent/STIM_025.jpg
1625.734	0.623	1	incongruent	Block2	incongruent/STIM_025.jpg
1630.115	0.611	1	incongruent	Block2	incongruent/STIM_025.jpg
1633.264	0.907	1	incongruent	Block2	incongruent/STIM_026.jpg
1636.706	0.875	1	incongruent	Block2	incongruent/STIM_026.jpg
1641.169	0.674	1	incongruent	Block2	incongruent/STIM_026.jpg
1644.728	0.865	1	incongruent	Block2	incongruent/STIM_026.jpg
1649.195	0.534	1	incongruent	Block2	incongruent/STIM_026.jpg
1653.074	0.752	1	incongruent	Block2	incongruent/STIM_027.jpg
1656.486	0.822	1	incongruent	Block2	incongruent/STIM_027.jpg
1660.04	0.694	1	incongruent	Block2	incongruent/STIM_027.jpg
1663.384	0.629	1	incongruent	Block2	incongruent/STIM_027.jpg
1667.948	0.6	1	incongruent	Block2	incongruent/STIM_027.jpg
1671.717	0.9	1	incongruent	Block2	incongruent/STIM_028.jpg
1676.581	1.064	1	incongruent	Block2	incongruent/STIM_028.jpg
1679.863	0.715	1	incongruent	Block2	incongruent/STIM_028.jpg
1683.857	0.633	1	incongruent	Block2	incongruent/STIM_028.jpg
1687.486	0.942	1	incongruent	Block2	incongruent/STIM_028.jpg
1691.169	0.978	1	incongruent	Block2	incongruent/STIM_029.jpg
1695.872	0.973	1	incongruent	Block2	incongruent/STIM_029.jpg
1699.462	0.994	1	incongruent	Block2	incongruent/STIM_029.jpg
1703.183	0.72	1	incongruent	Block2	incongruent/STIM_029.jpg
1707.886	0.916	1	incongruent	Block2	incongruent/STIM_029.jpg
1712.672	0.73	1	congruent	Block2	congruent/STIM_000.jpg
1716.878	0.632	1	congruent	Block2	congruent/STIM_000.jpg
1719.938	0.48	1	congruent	Block2	congruent/STIM_000.jpg
1724.264	0.51	0	congruent	Block2	congruent/STIM_000.jpg
1727.737	0.566	1	congruent	Block2	congruent/STIM_000.jpg
1731.284	0.46	1	congruent	Block2	congruent/STIM_001.jpg
1735.45	0.591	1	congruent	Block2	congruent/STIM_001.jpg
1739.162	0.534	1	congruent	Block2	congruent/STIM_001.jpg
1742.437	0.521	1	congruent	Block2	congruent/STIM_001.jpg
1746.014	0.474	1	congruent	Block2	congruent/STIM_001.jpg
1749.781	0.803	1	congruent	Block2	congruent/STIM_002.jpg
1754.083	0.47	1	congruent	Block2	congruent/STIM_002.jpg
1758.521	0.547	1	congruent	Block2	congruent/STIM_002.jpg
1762.177	0.612	1	congruent	Block2	congruent/STIM_002.jpg
1766.735	0.79	1	congruent	Block2	congruent/STIM_002.jpg
1770.607	0.667	1	congruent	Block2	congruent/STIM_003.jpg
1774.111	0.749	1	congruent	Block2	congruent/STIM_003.jpg
1778.025	0.575	1	congruent	Block2	congruent/STIM_003.jpg
1781.932	0.457	1	congruent	Block2	congruent/STIM_003.jpg
1785.031	0.674	1	congruent	Block2	congruent/STIM_003.jpg
1788.383	0.734	1	congruent	Block2	congruent/STIM_004.jpg
1791.367	0.791	1	congruent	Block2	congruent/STIM_004.jpg
1795.864	0.679	1	congruent	Block2	congruent/STIM_004.jpg
1799.625	0.537	1	congruent	Block2	congruent/STIM_004.jpg
1802.929	0.462	1	congruent	Block2	congruent/STIM_004.jpg
1806.535	0.722	1	congruent	Block2	congruent/STIM_005.jpg
1811.254	0.453	1	congruent	Block2	congruent/STIM_005.jpg
1814.115	0.61	1	congruent	Block2	congruent/STIM_005.jpg
1817.428	0.514	1	congruent	Block2	congruent/STIM_005.jpg
1820.739	0.464	1	congruent	Block2	congruent/STIM_005.jpg
1823.639	0.648	1	congruent	Block2	congruent/STIM_006.jpg
1827.207	0.714	1	congruent	Block2	congruent/STIM_006.jpg
1831.582	0.524	1	congruent	Block2	congruent/STIM_006.jpg
1835.346	0.616	1	congruent	Block2	congruent/STIM_006.jpg
1839.151	0.806	1	congruent	Block2	congruent/STIM_006.jpg
1843.074	0.546	1	congruent	Block2	congruent/STIM_007.jpg
1845.833	0.795	1	congruent	Block2	congruent/STIM_007.jpg
1849.677	0.534	1	congruent	Block2	congruent/STIM_007.jpg
1852.285	0.777	1	congruent	Block2	congruent/STIM_007.jpg
1856.373	0.74	1	congruent	Block2	congruent/STIM_007.jpg
1860.564	0.67	1	congruent	Block2	congruent/STIM_008.jpg
1864.776	0.647	1	congruent	Block2	congruent/STIM_008.jpg
1867.712	0.633	1	congruent	Block2	congruent/STIM_008.jpg
1872.228	0.762	1	congruent	Block2	congruent/STIM_008.jpg
1875.09	0.659	1	congruent	Block2	congruent/STIM_008.jpg
1879.197	0.783	1	congruent	Block2	congruent/STIM_009.jpg
1883.24	0.728	1	congruent	Block2	congruent/STIM_009.jpg
1886.529	0.769	1	congruent	Block2	congruent/STIM_009.jpg
1891.137	0.64	1	congruent	Block2	congruent/STIM_009.jpg
1895.512	0.748	1	congruent	Block2	congruent/STIM_009.jpg
1899.695	0.762	1	congruent	Block2	congruent/STIM_010.jpg
1903.151	0.527	1	congruent	Block2	congruent/STIM_010.jpg
1907.552	0.576	1	congruent	Block2	congruent/STIM_010.jpg
1910.774	0.648	1	congruent	Block2	congruent/STIM_010.jpg
1913.457	0.758	1	congruent	Block2	congruent/STIM_010.jpg
1917.003	0.468	1	congruent	Block2	congruent/STIM_011.jpg
1920.597	0.57	1	congruent	Block2	congruent/STIM_011.jpg
1924.897	0.792	1	congruent	Block2	congruent/STIM_011.jpg
1928.076	0.687	1	congruent	Block2	congruent/STIM_011.jpg
1930.864	0.698	1	congruent	Block2	congruent/STIM_011.jpg
1934.998	0.694	1	congruent	Block2	congruent/STIM_012.jpg
1937.728	0.579	1	congruent	Block2	congruent/STIM_012.jpg
1941.073	0.736	1	congruent	Block2	congruent/STIM_012.jpg
1943.896	0.76	1	congruent	Block2	congruent/STIM_012.jpg
1947.589	0.64	1	congruent	Block2	congruent/STIM_012.jpg
1951.922	0.541	1	congruent	Block2	congruent/STIM_013.jpg
1955.167	0.775	1	congruent	Block2	congruent/STIM_013.jpg
1958.439	0.681	1	congruent	Block2	congruent/STIM_013.jpg
1962.968	0.614	1	congruent	Block2	congruent/STIM_013.jpg
1967.067	0.573	1	congruent	Block2	congruent/STIM_013.jpg
1970.734	0.665	1	congruent	Block2	congruent/STIM_014.jpg
1974.33	0.559	1	congruent	Block2	congruent/STIM_014.jpg
1978.841	0.584	1	congruent	Block2	congruent/STIM_014.jpg
1982.446	0.722	1	congruent	Block2	congruent/STIM_014.jpg
1985.22	0.742	1	congruent	Block2	congruent/STIM_014.jpg
1988.937	0.657	1	congruent	Block2	congruent/STIM_015.jpg
1992.81	0.497	1	congruent	Block2	congruent/STIM_015.jpg
1996.042	0.756	1	congruent	Block2	congruent/STIM_015.jpg
1999.396	0.552	1	congruent	Block2	congruent/STIM_015.jpg
2003.633	0.807	1	congruent	Block2	congruent/STIM_015.jpg
2006.528	0.467	1	congruent	Block2	congruent/STIM_016.jpg
2009.134	0.534	1	congruent	Block2	congruent/STIM_016.jpg
2013.593	0.698	1	congruent	Block2	congruent/STIM_016.jpg
2016.677	0.711	1	congruent	Block2	congruent/STIM_016.jpg
2019.604	0.805	1	congruent	Block2	congruent/STIM_016.jpg
2023.752	0.658	1	congruent	Block2	congruent/STIM_017.jpg
2027.098	0.496	1	congruent	Block2	congruent/STIM_017.jpg
2031.327	0.688	1	congruent	Block2	congruent/STIM_017.jpg
2034.734	0.484	1	congruent	Block2	congruent/STIM_017.jpg
2038.938	0.807	1	congruent	Block2	congruent/STIM_017.jpg
2043.203	0.573	1	congruent	Block2	congruent/STIM_018.jpg
2047.554	0.617	1	congruent	Block2	congruent/STIM_018.jpg
2051.032	0.559	1	congruent	Block2	congruent/STIM_018.jpg
2055.309	0.505	1	congruent	Block2	congruent/STIM_018.jpg
2058.944	0.794	1	congruent	Block2	congruent/STIM_018.jpg
2062.916	0.557	1	congruent	Block2	congruent/STIM_019.jpg
2065.924	0.8	1	congruent	Block2	congruent/STIM_019.jpg
2070.477	0.498	1	congruent	Block2	congruent/STIM_019.jpg
2073.446	0.632	1	congruent	Block2	congruent/STIM_019.jpg
2077.501	0.552	1	congruent	Block2	congruent/STIM_019.jpg
2081.445	0.515	1	congruent	Block2	congruent/STIM_020.jpg
2084.798	0.496	1	congruent	Block2	congruent/STIM_020.jpg
2087.941	0.587	1	congruent	Block2	congruent/STIM_020.jpg
2092.437	0.565	1	congruent	Block2	congruent/STIM_020.jpg
2095.988	0.592	1	congruent	Block2	congruent/STIM_020.jpg
2098.878	0.514	1	congruent	Block2	congruent/STIM_021.jpg
2102.9	0.723	1	congruent	Block2	congruent/STIM_021.jpg
2105.687	0.592	1	congruent	Block2	congruent/STIM_021.jpg
2109.334	0.727	1	congruent	Block2	congruent/STIM_021.jpg
2113.747	0.704	1	congruent	Block2	congruent/STIM_021.jpg
2117.433	0.709	1	congruent	Block2	congruent/STIM_022.jpg
2120.68	0.669	1	congruent	Block2	congruent/STIM_022.jpg
2123.832	0.661	1	congruent	Block2	congruent/STIM_022.jpg
2128.375	0.78	1	congruent	Block2	congruent/STIM_022.jpg
2132.283	0.582	1	congruent	Block2	congruent/STIM_022.jpg
2135.698	0.467	1	congruent	Block2	congruent/STIM_023.jpg
2139.277	0.733	1	congruent	Block2	congruent/STIM_023.jpg
2142.88	0.793	1	congruent	Block2	congruent/STIM_023.jpg
2147.342	0.587	1	congruent	Block2	congruent/STIM_023.jpg
2150.826	0.676	1	congruent	Block2	congruent/STIM_023.jpg
2155.268	0.489	1	congruent	Block2	congruent/STIM_024.jpg
2159.571	0.518	1	congruent	Block2	congruent/STIM_024.jpg
2164.028	0.498	1	congruent	Block2	congruent/STIM_024.jpg
2166.734	0.741	1	congruent	Block2	congruent/STIM_024.jpg
2171.206	0.801	1	congruent	Block2	congruent/STIM_024.jpg
2174.353	0.608	1	congruent	Block2	congruent/STIM_025.jpg
2178.869	0.758	1	congruent	Block2	congruent/STIM_025.jpg
2182.506	0.602	1	congruent	Block2	congruent/STIM_025.jpg
2185.83	0.729	1	congruent	Block2	congruent/STIM_025.jpg
2188.562	0.732	1	congruent	Block2	congruent/STIM_025.jpg
2191.654	0.485	1	congruent	Block2	congruent/STIM_026.jpg
2194.308	0.531	1	congruent	Block2	congruent/STIM_026.jpg
2198.791	0.638	1	congruent	Block2	congruent/STIM_026.jpg
2203.219	0.542	1	congruent	Block2	congruent/STIM_026.jpg
2207.099	0.597	1	congruent	Block2	congruent/STIM_026.jpg
2210.428	0.521	1	congruent	Block2	congruent/STIM_027.jpg
2213.748	0.683	1	congruent	Block2	congruent/STIM_027.jpg
2217.34	0.704	1	congruent	Block2	congruent/STIM_027.jpg
2220.67	0.493	1	congruent	Block2	congruent/STIM_027.jpg
2224.343	0.767	1	congruent	Block2	congruent/STIM_027.jpg
2228.544	0.791	1	congruent	Block2	congruent/STIM_028.jpg
2233.158	0.754	1	congruent	Block2	congruent/STIM_028.jpg
2236.187	0.754	1	congruent	Block2	congruent/STIM_028.jpg
2240.884	0.767	1	congruent	Block2	congruent/STIM_028.jpg
2245.248	0.612	1	congruent	Block2	congruent/STIM_028.jpg
2249.788	0.61	1	congruent	Block2	congruent/STIM_029.jpg
2252.697	0.571	1	congruent	Block2	congruent/STIM_029.jpg
2256.832	0.542	1	congruent	Block2	congruent/STIM_029.jpg
2259.92	0.65	1	congruent	Block2	congruent/STIM_029.jpg
2262.973	0.455	1	congruent	Block2	congruent/STIM_029.jpg
2265.693	0.871	1	incongruent	Block3	incongruent/STIM_000.jpg
2270.077	0.765	1	incongruent	Block3	incongruent/STIM_000.jpg
2274.544	0.753	0	incongruent	Block3	incongruent/STIM_000.jpg
2277.374	0.588	1	incongruent	Block3	incongruent/STIM_000.jpg
2281.376	0.486	1	incongruent	Block3	incongruent/STIM_000.jpg
2284.971	0.601	1	incongruent	Block3	incongruent/STIM_001.jpg
2289.044	0.781	1	incongruent	Block3	incongruent/STIM_001.jpg
2293.665	0.873	1	incongruent	Block3	incongruent/STIM_001.jpg
2297.246	0.835	1	incongruent	Block3	incongruent/STIM_001.jpg
2300.984	0.785	1	incongruent	Block3	incongruent/STIM_001.jpg
2305.539	0.797	1	incongruent	Block3	incongruent/STIM_002.jpg
2310.106	0.815	1	incongruent	Block3	incongruent/STIM_002.jpg
2314.78	0.639	1	incongruent	Block3	incongruent/STIM_002.jpg
2318.382	0.789	1	incongruent	Block3	incongruent/STIM_002.jpg
2322.407	0.625	1	incongruent	Block3	incongruent/STIM_002.jpg
2325.988	0.932	1	incongruent	Block3	incongruent/STIM_003.jpg
2330.408	0.825	1	incongruent	Block3	incongruent/STIM_003.jpg
2334.623	0.619	1	incongruent	Block3	incongruent/STIM_003.jpg
2338.365	0.877	1	incongruent	Block3	incongruent/STIM_003.jpg
2341.693	0.744	1	incongruent	Block3	incongruent/STIM_003.jpg
2345.149	0.779	1	incongruent	Block3	incongruent/STIM_004.jpg
2349.333	0.669	1	incongruent	Block3	incongruent/STIM_004.jpg
2353.384	0.626	1	incongruent	Block3	incongruent/STIM_004.jpg
2356.565	0.739	1	incongruent	Block3	incongruent/STIM_004.jpg
2361.107	0.916	1	incongruent	Block3	incongruent/STIM_004.jpg
2364.224	0.548	1	incongruent	Block3	incongruent/STIM_005.jpg
2368.633	0.817	1	incongruent	Block3	incongruent/STIM_005.jpg
2372.381	0.604	1	incongruent	Block3	incongruent/STIM_005.jpg
2376.127	0.874	1	incongruent	Block3	incongruent/STIM_005.jpg
2380.495	0.8	1	incongruent	Block3	incongruent/STIM_005.jpg
2383.818	0.482	1	incongruent	Block3	incongruent/STIM_006.jpg
2388.01	0.517	1	incongruent	Block3	incongruent/STIM_006.jpg
2391.587	0.688	1	incongruent	Block3	incongruent/STIM_006.jpg
2394.549	0.813	1	incongruent	Block3	incongruent/STIM_006.jpg
2398.853	0.459	1	incongruent	Block3	incongruent/STIM_006.jpg
2403.262	0.948	1	incongruent	Block3	incongruent/STIM_007.jpg
2407.318	0.94	1	incongruent	Block3	incongruent/STIM_007.jpg
2411.338	0.48	1	incongruent	Block3	incongruent/STIM_007.jpg
2414.5	0.555	1	incongruent	Block3	incongruent/STIM_007.jpg
2418.194	0.938	1	incongruent	Block3	incongruent/STIM_007.jpg
2421.895	0.929	1	incongruent	Block3	incongruent/STIM_008.jpg
2426.144	0.578	1	incongruent	Block3	incongruent/STIM_008.jpg
2429.158	0.47	1	incongruent	Block3	incongruent/STIM_008.jpg
2432.394	0.566	1	incongruent	Block3	incongruent/STIM_008.jpg
2436.575	0.752	1	incongruent	Block3	incongruent/STIM_008.jpg
2440.609	0.634	1	incongruent	Block3	incongruent/STIM_009.jpg
2443.933	0.525	1	incongruent	Block3	incongruent/STIM_009.jpg
2448.408	0.673	1	incongruent	Block3	incongruent/STIM_009.jpg
2451.279	0.641	1	incongruent	Block3	incongruent/STIM_009.jpg
2455.725	0.919	1	incongruent	Block3	incongruent/STIM_009.jpg
2459.634	0.881	1	incongruent	Block3	incongruent/STIM_010.jpg
2464.082	0.721	1	incongruent	Block3	incongruent/STIM_010.jpg
2467.312	0.671	1	incongruent	Block3	incongruent/STIM_010.jpg
2470.006	0.681	1	incongruent	Block3	incongruent/STIM_010.jpg
2473.123	0.858	1	incongruent	Block3	incongruent/STIM_010.jpg
2476.291	0.54	1	incongruent	Block3	incongruent/STIM_011.jpg
2480.335	0.67	1	incongruent	Block3	incongruent/STIM_011.jpg
2484.334	0.472	1	incongruent	Block3	incongruent/STIM_011.jpg
2487.373	0.605	1	incongruent	Block3	incongruent/STIM_011.jpg
2490.667	0.537	1	incongruent	Block3	incongruent/STIM_011.jpg
2494.465	0.535	1	incongruent	Block3	incongruent/STIM_012.jpg
2497.772	0.443	1	incongruent	Block3	incongruent/STIM_012.jpg
2501.46	0.469	0	incongruent	Block3	incongruent/STIM_012.jpg
2504.433	0.623	1	incongruent	Block3	incongruent/STIM_012.jpg
2508.594	0.799	1	incongruent	Block3	incongruent/STIM_012.jpg
2512.808	0.825	0	incongruent	Block3	incongruent/STIM_013.jpg
2516.113	0.482	1	incongruent	Block3	incongruent/STIM_013.jpg
2519.65	0.518	1	incongruent	Block3	incongruent/STIM_013.jpg
2523.446	0.671	1	incongruent	Block3	incongruent/STIM_013.jpg
2527.182	0.757	1	incongruent	Block3	incongruent/STIM_013.jpg
2530.435	0.626	1	incongruent	Block3	incongruent/STIM_014.jpg
2534.066	0.774	1	incongruent	Block3	incongruent/STIM_014.jpg
2538.41	0.899	1	incongruent	Block3	incongruent/STIM_014.jpg
2542.322	0.592	0	incongruent	Block3	incongruent/STIM_014.jpg
2546.023	0.914	1	incongruent	Block3	incongruent/STIM_014.jpg
2550.119	0.865	1	incongruent	Block3	incongruent/STIM_015.jpg
2553.755	0.774	1	incongruent	Block3	incongruent/STIM_015.jpg
2557.205	0.75	1	incongruent	Block3	incongruent/STIM_015.jpg
2561.649	0.593	1	incongruent	Block3	incongruent/STIM_015.jpg
2566.111	0.586	1	incongruent	Block3	incongruent/STIM_015.jpg
2569.136	0.895	0	incongruent	Block3	incongruent/STIM_016.jpg
2572.683	0.692	1	incongruent	Block3	incongruent/STIM_016.jpg
2576.546	0.779	1	incongruent	Block3	incongruent/STIM_016.jpg
2579.387	0.931	1	incongruent	Block3	incongruent/STIM_016.jpg
2584.21	0.64	1	incongruent	Block3	incongruent/STIM_016.jpg
2587.642	0.928	1	incongruent	Block3	incongruent/STIM_017.jpg
2591.859	0.501	1	incongruent	Block3	incongruent/STIM_017.jpg
2595.538	0.745	1	incongruent	Block3	incongruent/STIM_017.jpg
2599.538	0.523	1	incongruent	Block3	incongruent/STIM_017.jpg
2602.847	0.508	1	incongruent	Block3	incongruent/STIM_017.jpg
2607.173	0.747	1	incongruent	Block3	incongruent/STIM_018.jpg
2611.151	0.629	1	incongruent	Block3	incongruent/STIM_018.jpg
2615.704	0.574	1	incongruent	Block3	incongruent/STIM_018.jpg
2619.98	0.593	1	incongruent	Block3	incongruent/STIM_018.jpg
2623.125	0.827	1	incongruent	Block3	incongruent/STIM_018.jpg
2626.581	0.622	1	incongruent	Block3	incongruent/STIM_019.jpg
2629.412	0.864	1	incongruent	Block3	incongruent/STIM_019.jpg
2633.396	0.893	0	incongruent	Block3	incongruent/STIM_019.jpg
2638.234	0.755	1	incongruent	Block3	incongruent/STIM_019.jpg
2641.094	0.587	1	incongruent	Block3	incongruent/STIM_019.jpg
2644.491	0.637	1	incongruent	Block3	incongruent/STIM_020.jpg
2648.978	0.564	1	incongruent	Block3	incongruent/STIM_020.jpg
2653.034	0.576	1	incongruent	Block3	incongruent/STIM_020.jpg
2656.685	0.602	1	incongruent	Block3	incongruent/STIM_020.jpg
2659.772	0.783	1	incongruent	Block3	incongruent/STIM_020.jpg
2664.322	0.846	1	incongruent	Block3	incongruent/STIM_021.jpg
2667.642	0.847	1	incongruent	Block3	incongruent/STIM_021.jpg
2671.578	0.876	1	incongruent	Block3	incongruent/STIM_021.jpg
2675.705	0.927	1	incongruent	Block3	incongruent/STIM_021.jpg
2680.009	0.62	1	incongruent	Block3	incongruent/STIM_021.jpg
2683.503	0.911	1	incongruent	Block3	incongruent/STIM_022.jpg
2687.521	0.848	1	incongruent	Block3	incongruent/STIM_022.jpg
2691.364	0.506	1	incongruent	Block3	incongruent/STIM_022.jpg
2694.357	0.584	1	incongruent	Block3	incongruent/STIM_022.jpg
2698.891	0.56	1	incongruent	Block3	incongruent/STIM_022.jpg
2702.662	0.778	0	incongruent	Block3	incongruent/STIM_023.jpg
2707.028	0.702	1	incongruent	Block3	incongruent/STIM_023.jpg
2710.927	0.617	1	incongruent	Block3	incongruent/STIM_023.jpg
2714.773	0.527	1	incongruent	Block3	incongruent/STIM_023.jpg
2718.526	0.498	1	incongruent	Block3	incongruent/STIM_023.jpg
2721.639	0.856	1	incongruent	Block3	incongruent/STIM_024.jpg
2725.095	0.948	0	incongruent	Block3	incongruent/STIM_024.jpg
2728.296	0.532	1	incongruent	Block3	incongruent/STIM_024.jpg
2732.526	0.79	1	incongruent	Block3	incongruent/STIM_024.jpg
2736.196	0.887	1	incongruent	Block3	incongruent/STIM_024.jpg
2741.045	0.705	1	incongruent	Block3	incongruent/STIM_025.jpg
2745.322	0.84	1	incongruent	Block3	incongruent/STIM_025.jpg
2748.694	0.87	1	incongruent	Block3	incongruent/STIM_025.jpg
2752.578	0.948	1	incongruent	Block3	incongruent/STIM_025.jpg
2755.999	0.769	1	incongruent	Block3	incongruent/STIM_025.jpg
2760.751	0.514	1	incongruent	Block3	incongruent/STIM_026.jpg
2763.596	0.729	1	incongruent	Block3	incongruent/STIM_026.jpg
2767.281	0.776	1	incongruent	Block3	incongruent/STIM_026.jpg
2770.511	0.818	1	incongruent	Block3	incongruent/STIM_026.jpg
2773.513	0.887	1	incongruent	Block3	incongruent/STIM_026.jpg
2776.935	0.823	1	incongruent	Block3	incongruent/STIM_027.jpg
2781.738	0.884	1	incongruent	Block3	incongruent/STIM_027.jpg
2785.08	0.64	1	incongruent	Block3	incongruent/STIM_027.jpg
2788.444	0.942	1	incongruent	Block3	incongruent/STIM_027.jpg
2792.183	0.621	1	incongruent	Block3	incongruent/STIM_027.jpg
2795.115	0.931	1	incongruent	Block3	incongruent/STIM_028.jpg
2799.277	0.589	1	incongruent	Block3	incongruent/STIM_028.jpg
2801.878	0.781	1	incongruent	Block3	incongruent/STIM_028.jpg
2805.536	0.776	1	incongruent	Block3	incongruent/STIM_028.jpg
2808.641	0.745	1	incongruent	Block3	incongruent/STIM_028.jpg
2812.794	0.826	1	incongruent	Block3	incongruent/STIM_029.jpg
2815.675	0.529	1	incongruent	Block3	incongruent/STIM_029.jpg
2820.083	0.655	1	incongruent	Block3	incongruent/STIM_029.jpg
2823.592	0.735	1	incongruent	Block3	incongruent/STIM_029.jpg
2827.183	0.607	1	incongruent	Block3	incongruent/STIM_029.jpg
2830.349	0.75	1	congruent	Block3	congruent/STIM_000.jpg
2833.498	0.6	1	congruent	Block3	congruent/STIM_000.jpg
2836.211	0.559	1	congruent	Block3	congruent/STIM_000.jpg
2840.179	0.528	1	congruent	Block3	congruent/STIM_000.jpg
2844.207	0.599	1	congruent	Block3	congruent/STIM_000.jpg
2847.538	0.698	1	congruent	Block3	congruent/STIM_001.jpg
2851.3	0.777	1	congruent	Block3	congruent/STIM_001.jpg
2855.382	0.718	1	congruent	Block3	congruent/STIM_001.jpg
2858.417	0.494	1	congruent	Block3	congruent/STIM_001.jpg
2861.441	0.552	1	congruent	Block3	congruent/STIM_001.jpg
2864.401	0.656	1	congruent	Block3	congruent/STIM_002.jpg
2868.813	0.661	1	congruent	Block3	congruent/STIM_002.jpg
2873.04	0.714	1	congruent	Block3	congruent/STIM_002.jpg
2876.626	0.649	1	congruent	Block3	congruent/STIM_002.jpg
2879.415	0.779	1	congruent	Block3	congruent/STIM_002.jpg
2883.513	0.482	1	congruent	Block3	congruent/STIM_003.jpg
2887.736	0.537	1	congruent	Block3	congruent/STIM_003.jpg
2891.9	0.738	1	congruent	Block3	congruent/STIM_003.jpg
2894.892	0.799	1	congruent	Block3	congruent/STIM_003.jpg
2898.565	0.661	1	congruent	Block3	congruent/STIM_003.jpg
2902.621	0.657	1	congruent	Block3	congruent/STIM_004.jpg
2905.34	0.741	1	congruent	Block3	congruent/STIM_004.jpg
2908.888	0.531	1	congruent	Block3	congruent/STIM_004.jpg
2912.249	0.538	1	congruent	Block3	congruent/STIM_004.jpg
2915.351	0.584	1	congruent	Block3	congruent/STIM_004.jpg
2919.216	0.576	1	congruent	Block3	congruent/STIM_005.jpg
2921.95	0.632	1	congruent	Block3	congruent/STIM_005.jpg
2926.351	0.767	1	congruent	Block3	congruent/STIM_005.jpg
2929.469	0.508	0	congruent	Block3	congruent/STIM_005.jpg
2932.885	0.761	1	congruent	Block3	congruent/STIM_005.jpg
2936.447	0.682	1	congruent	Block3	congruent/STIM_006.jpg
2939.365	0.54	1	congruent	Block3	congruent/STIM_006.jpg
2942.864	0.773	1	congruent	Block3	congruent/STIM_006.jpg
2945.957	0.776	1	congruent	Block3	congruent/STIM_006.jpg
2949.417	0.473	1	congruent	Block3	congruent/STIM_006.jpg
2952.931	0.486	1	congruent	Block3	congruent/STIM_007.jpg
2955.592	0.68	1	congruent	Block3	congruent/STIM_007.jpg
2959.829	0.759	1	congruent	Block3	congruent/STIM_007.jpg
2963.12	0.767	1	congruent	Block3	congruent/STIM_007.jpg
2966.988	0.674	1	congruent	Block3	congruent/STIM_007.jpg
2971.598	0.718	1	congruent	Block3	congruent/STIM_008.jpg
2974.437	0.794	1	congruent	Block3	congruent/STIM_008.jpg
2979.045	0.64	1	congruent	Block3	congruent/STIM_008.jpg
2982.086	0.714	1	congruent	Block3	congruent/STIM_008.jpg
2986.012	0.572	1	congruent	Block3	congruent/STIM_008.jpg
2990.406	0.689	1	congruent	Block3	congruent/STIM_009.jpg
2993.783	0.585	1	congruent	Block3	congruent/STIM_009.jpg
2998.027	0.691	1	congruent	Block3	congruent/STIM_009.jpg
3001.149	0.699	1	congruent	Block3	congruent/STIM_009.jpg
3004.339	0.758	1	congruent	Block3	congruent/STIM_009.jpg
3007.659	0.735	1	congruent	Block3	congruent/STIM_010.jpg
3011.055	0.68	1	congruent	Block3	congruent/STIM_010.jpg
3015.2	0.464	1	congruent	Block3	congruent/STIM_010.jpg
3018.142	0.538	1	congruent	Block3	congruent/STIM_010.jpg
3021.423	0.812	1	congruent	Block3	congruent/STIM_010.jpg
3026.182	0.646	1	congruent	Block3	congruent/STIM_011.jpg
3029.601	0.526	1	congruent	Block3	congruent/STIM_011.jpg
3032.293	0.809	1	congruent	Block3	congruent/STIM_011.jpg
3036.454	0.47	1	congruent	Block3	congruent/STIM_011.jpg
3039.051	0.794	1	congruent	Block3	congruent/STIM_011.jpg
3042.226	0.494	1	congruent	Block3	congruent/STIM_012.jpg
3044.804	0.667	1	congruent	Block3	congruent/STIM_012.jpg
3047.921	0.697	1	congruent	Block3	congruent/STIM_012.jpg
3051.358	0.81	1	congruent	Block3	congruent/STIM_012.jpg
3055.047	0.466	1	congruent	Block3	congruent/STIM_012.jpg
3059.007	0.693	1	congruent	Block3	congruent/STIM_013.jpg
3062.68	0.748	1	congruent	Block3	congruent/STIM_013.jpg
3067.423	0.639	1	congruent	Block3	congruent/STIM_013.jpg
3071.523	0.745	1	congruent	Block3	congruent/STIM_013.jpg
3075.204	0.813	1	congruent	Block3	congruent/STIM_013.jpg
3079.87	0.628	1	congruent	Block3	congruent/STIM_014.jpg
3082.709	0.453	1	congruent	Block3	congruent/STIM_014.jpg
3086.554	0.784	1	congruent	Block3	congruent/STIM_014.jpg
3089.791	0.76	1	congruent	Block3	congruent/STIM_014.jpg
3094.06	0.795	1	congruent	Block3	congruent/STIM_014.jpg
3097.819	0.595	0	congruent	Block3	congruent/STIM_015.jpg
3100.424	0.678	1	congruent	Block3	congruent/STIM_015.jpg
3104.559	0.655	1	congruent	Block3	congruent/STIM_015.jpg
3108.929	0.712	1	congruent	Block3	congruent/STIM_015.jpg
3113.144	0.812	1	congruent	Block3	congruent/STIM_015.jpg
3116.038	0.717	1	congruent	Block3	congruent/STIM_016.jpg
3120.671	0.562	1	congruent	Block3	congruent/STIM_016.jpg
3124.337	0.457	1	congruent	Block3	congruent/STIM_016.jpg
3127.126	0.61	1	congruent	Block3	congruent/STIM_016.jpg
3131.721	0.54	1	congruent	Block3	congruent/STIM_016.jpg
3134.577	0.525	1	congruent	Block3	congruent/STIM_017.jpg
3138.187	0.466	1	congruent	Block3	congruent/STIM_017.jpg
3141.951	0.54	1	congruent	Block3	congruent/STIM_017.jpg
3145.816	0.739	1	congruent	Block3	congruent/STIM_017.jpg
3149.513	0.506	1	congruent	Block3	congruent/STIM_017.jpg
3153.144	0.754	1	congruent	Block3	congruent/STIM_018.jpg
3157.457	0.508	0	congruent	Block3	congruent/STIM_018.jpg
3160.561	0.653	1	congruent	Block3	congruent/STIM_018.jpg
3164.783	0.623	1	congruent	Block3	congruent/STIM_018.jpg
3167.765	0.655	1	congruent	Block3	congruent/STIM_018.jpg
3170.908	0.79	1	congruent	Block3	congruent/STIM_019.jpg
3173.825	0.655	1	congruent	Block3	congruent/STIM_019.jpg
3178.478	0.595	1	congruent	Block3	congruent/STIM_019.jpg
3182.317	0.612	1	congruent	Block3	congruent/STIM_019.jpg
3185.453	0.716	1	congruent	Block3	congruent/STIM_019.jpg
3188.619	0.594	1	congruent	Block3	congruent/STIM_020.jpg
3193.079	0.622	1	congruent	Block3	congruent/STIM_020.jpg
3196.418	0.712	1	congruent	Block3	congruent/STIM_020.jpg
3199.845	0.729	1	congruent	Block3	congruent/STIM_020.jpg
3204.085	0.524	1	congruent	Block3	congruent/STIM_020.jpg
3208.531	0.506	1	congruent	Block3	congruent/STIM_021.jpg
3211.728	0.642	1	congruent	Block3	congruent/STIM_021.jpg
3215.647	0.592	1	congruent	Block3	congruent/STIM_021.jpg
3219.036	0.51	1	congruent	Block3	congruent/STIM_021.jpg
3222.053	0.532	1	congruent	Block3	congruent/STIM_021.jpg
3225.195	0.584	1	congruent	Block3	congruent/STIM_022.jpg
3228.761	0.575	1	congruent	Block3	congruent/STIM_022.jpg
3232.383	0.564	1	congruent	Block3	congruent/STIM_022.jpg
3236.848	0.769	1	congruent	Block3	congruent/STIM_022.jpg
3240.105	0.557	1	congruent	Block3	congruent/STIM_022.jpg
3243.685	0.495	1	congruent	Block3	congruent/STIM_023.jpg
3247.637	0.64	1	congruent	Block3	congruent/STIM_023.jpg
3251.278	0.689	1	congruent	Block3	congruent/STIM_023.jpg
3255.322	0.579	1	congruent	Block3	congruent/STIM_023.jpg
3259.207	0.514	1	congruent	Block3	congruent/STIM_023.jpg
3263.637	0.47	1	congruent	Block3	congruent/STIM_024.jpg
3266.921	0.496	1	congruent	Block3	congruent/STIM_024.jpg
3269.92	0.457	1	congruent	Block3	congruent/STIM_024.jpg
3273.121	0.687	1	congruent	Block3	congruent/STIM_024.jpg
3276.363	0.539	1	congruent	Block3	congruent/STIM_024.jpg
3279.641	0.784	1	congruent	Block3	congruent/STIM_025.jpg
3283.848	0.463	1	congruent	Block3	congruent/STIM_025.jpg
3287.797	0.507	1	congruent	Block3	congruent/STIM_025.jpg
3291.3	0.625	1	congruent	Block3	congruent/STIM_025.jpg
3295.87	0.72	1	congruent	Block3	congruent/STIM_025.jpg
3300.327	0.554	1	congruent	Block3	congruent/STIM_026.jpg
3302.965	0.613	1	congruent	Block3	congruent/STIM_026.jpg
3307.316	0.777	1	congruent	Block3	congruent/STIM_026.jpg
3310.566	0.637	1	congruent	Block3	congruent/STIM_026.jpg
3314.247	0.724	1	congruent	Block3	congruent/STIM_026.jpg
3318.816	0.49	1	congruent	Block3	congruent/STIM_027.jpg
3322.003	0.568	1	congruent	Block3	congruent/STIM_027.jpg
3325.26	0.57	1	congruent	Block3	congruent/STIM_027.jpg
3329.596	0.597	1	congruent	Block3	congruent/STIM_027.jpg
3332.839	0.617	1	congruent	Block3	congruent/STIM_027.jpg
3336.556	0.506	1	congruent	Block3	congruent/STIM_028.jpg
3340.025	0.56	1	congruent	Block3	congruent/STIM_028.jpg
3344.552	0.551	1	congruent	Block3	congruent/STIM_028.jpg
3348.921	0.777	1	congruent	Block3	congruent/STIM_028.jpg
3352.288	0.544	1	congruent	Block3	congruent/STIM_028.jpg
3356.152	0.485	1	congruent	Block3	congruent/STIM_029.jpg
3359.726	0.716	1	congruent	Block3	congruent/STIM_029.jpg
3362.457	0.503	1	congruent	Block3	congruent/STIM_029.jpg
3365.679	0.573	1	congruent	Block3	congruent/STIM_029.jpg
3369.468	0.584	1	congruent	Block3	congruent/STIM_029.jpg
