onset	duration	response_time_ms	trial_type	learning_stage	stimulus	response_port
0.0	1.003	1002.9	incongruent	Block1	incongruent/STIM_000.jpg	99
4.67	1.314	1314.2	incongruent	Block1	incongruent/STIM_000.jpg	99
9.254	1.59	1590.2	incongruent	Block1	incongruent/STIM_000.jpg	99
12.73	0.754	754.1	incongruent	Block1	incongruent/STIM_000.jpg	100
17.03	0.793	792.7	incongruent	Block1	incongruent/STIM_000.jpg	99
21.185	0.947	947.0	incongruent	Block1	incongruent/STIM_001.jpg	100
25.773	0.811	811.2	incongruent	Block1	incongruent/STIM_001.jpg	100
29.77	1.152	1151.9	incongruent	Block1	incongruent/STIM_001.jpg	100
33.705	1.084	1083.8	incongruent	Block1	incongruent/STIM_001.jpg	100
37.467	0.726	726.4	incongruent	Block1	incongruent/STIM_001.jpg	99
41.737	0.976	976.5	incongruent	Block1	incongruent/STIM_002.jpg	100
46.192	1.314	1314.2	incongruent	Block1	incongruent/STIM_002.jpg	100
50.319	0.938	938.4	incongruent	Block1	incongruent/STIM_002.jpg	100
54.561	1.097	1096.7	incongruent	Block1	incongruent/STIM_002.jpg	100
58.137	1.263	1263.4	incongruent	Block1	incongruent/STIM_002.jpg	99
61.483	1.509	1509.4	incongruent	Block1	incongruent/STIM_003.jpg	100
66.243	1.446	1445.5	incongruent	Block1	incongruent/STIM_003.jpg	100
69.793	1.094	1093.6	incongruent	Block1	incongruent/STIM_003.jpg	99
73.823	1.075	1075.1	incongruent	Block1	incongruent/STIM_003.jpg	100
78.521	0.645	645.2	incongruent	Block1	incongruent/STIM_003.jpg	99
82.813	0.791	791.1	incongruent	Block1	incongruent/STIM_004.jpg	100
86.376	1.407	1407.1	incongruent	Block1	incongruent/STIM_004.jpg	100
90.775	1.364	1363.5	incongruent	Block1	incongruent/STIM_004.jpg	100
95.639	1.286	1285.8	incongruent	Block1	incongruent/STIM_004.jpg	99
99.78	1.151	1150.9	incongruent	Block1	incongruent/STIM_004.jpg	100
103.485	1.589	1588.8	incongruent	Block1	incongruent/STIM_005.jpg	99
108.304	0.968	968.2	incongruent	Block1	incongruent/STIM_005.jpg	100
111.377	1.328	1327.8	incongruent	Block1	incongruent/STIM_005.jpg	99
115.348	1.101	1101.1	incongruent	Block1	incongruent/STIM_005.jpg	99
119.613	1.169	1168.9	incongruent	Block1	incongruent/STIM_005.jpg	100
123.848	1.125	1125.4	incongruent	Block1	incongruent/STIM_006.jpg	99
128.084	1.006	1006.3	incongruent	Block1	incongruent/STIM_006.jpg	99
131.418	0.921	920.6	incongruent	Block1	incongruent/STIM_006.jpg	100
135.477	0.801	800.7	incongruent	Block1	incongruent/STIM_006.jpg	100
139.434	1.044	1044.1	incongruent	Block1	incongruent/STIM_006.jpg	99
142.54	1.315	1315.1	incongruent	Block1	incongruent/STIM_007.jpg	100
146.632	1.169	1169.1	incongruent	Block1	incongruent/STIM_007.jpg	99
150.341	1.004	1003.7	incongruent	Block1	incongruent/STIM_007.jpg	99
153.598	1.271	1270.7	incongruent	Block1	incongruent/STIM_007.jpg	99
157.044	0.765	765.1	incongruent	Block1	incongruent/STIM_007.jpg	100
160.665	0.753	753.2	incongruent	Block1	incongruent/STIM_008.jpg	99
164.794	1.624	1623.8	incongruent	Block1	incongruent/STIM_008.jpg	99
168.373	1.493	1492.7	incongruent	Block1	incongruent/STIM_008.jpg	99
173.559	0.784	783.9	incongruent	Block1	incongruent/STIM_008.jpg	100
178.066	1.241	1241.1	incongruent	Block1	incongruent/STIM_008.jpg	100
183.194	0.765	765.4	incongruent	Block1	incongruent/STIM_009.jpg	99
187.124	1.658	1657.9	incongruent	Block1	incongruent/STIM_009.jpg	100
191.321	1.397	1397.2	incongruent	Block1	incongruent/STIM_009.jpg	100
195.029	1.35	1350.3	incongruent	Block1	incongruent/STIM_009.jpg	100
200.097	0.722	721.5	incongruent	Block1	incongruent/STIM_009.jpg	100
203.104	1.296	1296.5	incongruent	Block1	incongruent/STIM_010.jpg	100
206.592	1.34	1340.3	incongruent	Block1	incongruent/STIM_010.jpg	100
211.739	1.424	1423.5	incongruent	Block1	incongruent/STIM_010.jpg	99
216.567	0.966	965.8	incongruent	Block1	incongruent/STIM_010.jpg	99
220.309	0.805	804.6	incongruent	Block1	incongruent/STIM_010.jpg	100
223.336	1.315	1315.4	incongruent	Block1	incongruent/STIM_011.jpg	100
228.271	1.145	1144.6	incongruent	Block1	incongruent/STIM_011.jpg	100
232.559	0.852	851.8	incongruent	Block1	incongruent/STIM_011.jpg	100
236.587	0.928	927.5	incongruent	Block1	incongruent/STIM_011.jpg	100
241.159	0.993	993.0	incongruent	Block1	incongruent/STIM_011.jpg	100
244.419	1.322	1321.5	incongruent	Block1	incongruent/STIM_012.jpg	99
248.257	1.464	1464.1	incongruent	Block1	incongruent/STIM_012.jpg	100
251.696	1.395	1394.8	incongruent	Block1	incongruent/STIM_012.jpg	100
255.11	0.788	787.6	incongruent	Block1	incongruent/STIM_012.jpg	100
258.0	1.304	1303.8	incongruent	Block1	incongruent/STIM_012.jpg	99
262.056	0.899	899.1	incongruent	Block1	incongruent/STIM_013.jpg	99
265.175	1.025	1024.9	incongruent	Block1	incongruent/STIM_013.jpg	100
269.978	1.089	1089.0	incongruent	Block1	incongruent/STIM_013.jpg	100
274.812	1.226	1226.2	incongruent	Block1	incongruent/STIM_013.jpg	100
278.44	1.034	1033.7	incongruent	Block1	incongruent/STIM_013.jpg	99
282.039	1.053	1053.2	incongruent	Block1	incongruent/STIM_014.jpg	100
285.7	0.84	839.6	incongruent	Block1	incongruent/STIM_014.jpg	100
288.939	0.94	940.3	incongruent	Block1	incongruent/STIM_014.jpg	100
292.689	1.287	1287.3	incongruent	Block1	incongruent/STIM_014.jpg	100
297.416	1.13	1130.0	incongruent	Block1	incongruent/STIM_014.jpg	100
300.55	1.012	1012.2	incongruent	Block1	incongruent/STIM_015.jpg	99
305.385	1.003	1002.6	incongruent	Block1	incongruent/STIM_015.jpg	100
308.583	1.037	1036.8	incongruent	Block1	incongruent/STIM_015.jpg	99
312.392	1.373	1373.0	incongruent	Block1	incongruent/STIM_015.jpg	99
315.889	0.763	762.8	incongruent	Block1	incongruent/STIM_015.jpg	99
319.283	1.194	1193.6	incongruent	Block1	incongruent/STIM_016.jpg	100
323.546	0.98	980.4	incongruent	Block1	incongruent/STIM_016.jpg	100
326.659	1.048	1048.4	incongruent	Block1	incongruent/STIM_016.jpg	100
331.609	1.181	1180.6	incongruent	Block1	incongruent/STIM_016.jpg	100
336.32	0.923	922.8	incongruent	Block1	incongruent/STIM_016.jpg	100
339.487	0.951	951.3	incongruent	Block1	incongruent/STIM_017.jpg	99
342.375	1.228	1228.1	incongruent	Block1	incongruent/STIM_017.jpg	99
345.996	1.384	1384.1	incongruent	Block1	incongruent/STIM_017.jpg	100
349.981	0.849	849.1	incongruent	Block1	incongruent/STIM_017.jpg	99
354.483	0.968	968.5	incongruent	Block1	incongruent/STIM_017.jpg	99
359.005	1.14	1140.2	incongruent	Block1	incongruent/STIM_018.jpg	100
363.674	1.607	1607.4	incongruent	Block1	incongruent/STIM_018.jpg	99
368.562	1.15	1149.6	incongruent	Block1	incongruent/STIM_018.jpg	99
373.067	0.8	800.1	incongruent	Block1	incongruent/STIM_018.jpg	100
375.898	0.647	646.7	incongruent	Block1	incongruent/STIM_018.jpg	99
379.175	0.838	838.5	incongruent	Block1	incongruent/STIM_019.jpg	100
382.489	1.498	1497.6	incongruent	Block1	incongruent/STIM_019.jpg	99
385.8	1.33	1330.3	incongruent	Block1	incongruent/STIM_019.jpg	100
389.24	0.947	946.7	incongruent	Block1	incongruent/STIM_019.jpg	99
392.293	1.156	1156.4	incongruent	Block1	incongruent/STIM_019.jpg	100
396.909	1.332	1331.6	incongruent	Block1	incongruent/STIM_020.jpg	100
401.923	1.189	1189.4	incongruent	Block1	incongruent/STIM_020.jpg	99
405.231	1.169	1168.6	incongruent	Block1	incongruent/STIM_020.jpg	99
408.934	1.156	1155.7	incongruent	Block1	incongruent/STIM_020.jpg	100
412.916	1.059	1058.8	incongruent	Block1	incongruent/STIM_020.jpg	99
417.596	1.292	1291.6	incongruent	Block1	incongruent/STIM_021.jpg	99
422.07	1.056	1056.2	incongruent	Block1	incongruent/STIM_021.jpg	100
425.425	1.36	1360.2	incongruent	Block1	incongruent/STIM_021.jpg	99
430.193	0.723	723.3	incongruent	Block1	incongruent/STIM_021.jpg	100
433.988	0.894	894.0	incongruent	Block1	incongruent/STIM_021.jpg	99
437.064	0.993	993.1	incongruent	Block1	incongruent/STIM_022.jpg	100
440.7	1.577	1577.3	incongruent	Block1	incongruent/STIM_022.jpg	99
445.625	0.938	937.9	incongruent	Block1	incongruent/STIM_022.jpg	99
450.03	1.263	1262.6	incongruent	Block1	incongruent/STIM_022.jpg	99
454.476	1.196	1196.5	incongruent	Block1	incongruent/STIM_022.jpg	100
458.337	1.438	1438.1	incongruent	Block1	incongruent/STIM_023.jpg	99
461.898	0.883	883.0	incongruent	Block1	incongruent/STIM_023.jpg	99
464.914	1.116	1116.4	incongruent	Block1	incongruent/STIM_023.jpg	99
468.472	1.173	1172.8	incongruent	Block1	incongruent/STIM_023.jpg	99
472.401	0.86	860.4	incongruent	Block1	incongruent/STIM_023.jpg	99
475.553	1.619	1618.8	incongruent	Block1	incongruent/STIM_024.jpg	99
479.13	1.606	1606.0	incongruent	Block1	incongruent/STIM_024.jpg	99
483.245	1.047	1047.0	incongruent	Block1	incongruent/STIM_024.jpg	99
486.549	1.124	1123.5	incongruent	Block1	incongruent/STIM_024.jpg	100
489.86	0.898	897.7	incongruent	Block1	incongruent/STIM_024.jpg	99
493.733	1.015	1015.3	incongruent	Block1	incongruent/STIM_025.jpg	100
496.878	1.084	1084.0	incongruent	Block1	incongruent/STIM_025.jpg	99
500.283	1.063	1063.4	incongruent	Block1	incongruent/STIM_025.jpg	100
505.047	0.753	752.8	incongruent	Block1	incongruent/STIM_025.jpg	100
509.32	1.328	1327.5	incongruent	Block1	incongruent/STIM_025.jpg	99
514.299	1.256	1256.4	incongruent	Block1	incongruent/STIM_026.jpg	99
517.854	0.989	989.1	incongruent	Block1	incongruent/STIM_026.jpg	100
520.98	1.408	1407.6	incongruent	Block1	incongruent/STIM_026.jpg	99
524.991	1.1	1100.5	incongruent	Block1	incongruent/STIM_026.jpg	99
528.075	0.872	872.2	incongruent	Block1	incongruent/STIM_026.jpg	100
531.613	1.589	1589.2	incongruent	Block1	incongruent/STIM_027.jpg	99
536.451	1.343	1343.2	incongruent	Block1	incongruent/STIM_027.jpg	100
541.12	1.257	1257.3	incongruent	Block1	incongruent/STIM_027.jpg	100
545.529	1.336	1336.2	incongruent	Block1	incongruent/STIM_027.jpg	100
550.415	0.872	872.1	incongruent	Block1	incongruent/STIM_027.jpg	100
554.287	1.013	1012.6	incongruent	Block1	incongruent/STIM_028.jpg	100
559.152	1.6	1599.5	incongruent	Block1	incongruent/STIM_028.jpg	100
564.002	0.708	708.2	incongruent	Block1	incongruent/STIM_028.jpg	100
568.552	0.839	839.2	incongruent	Block1	incongruent/STIM_028.jpg	99
571.959	1.02	1020.5	incongruent	Block1	incongruent/STIM_028.jpg	99
576.648	1.723	1722.7	incongruent	Block1	incongruent/STIM_029.jpg	100
582.122	1.107	1107.2	incongruent	Block1	incongruent/STIM_029.jpg	100
586.1	0.955	955.4	incongruent	Block1	incongruent/STIM_029.jpg	100
590.606	1.349	1348.9	incongruent	Block1	incongruent/STIM_029.jpg	99
594.577	0.968	967.9	incongruent	Block1	incongruent/STIM_029.jpg	99
598.047	0.668	668.4	congruent	Block1	congruent/STIM_000.jpg	99
601.669	0.869	869.1	congruent	Block1	congruent/STIM_000.jpg	100
605.773	0.815	814.9	congruent	Block1	congruent/STIM_000.jpg	99
609.174	0.669	669.2	congruent	Block1	congruent/STIM_000.jpg	99
613.583	0.656	656.4	congruent	Block1	congruent/STIM_000.jpg	100
617.802	0.622	621.8	congruent	Block1	congruent/STIM_001.jpg	100
620.504	0.646	646.2	congruent	Block1	congruent/STIM_001.jpg	99
624.303	0.964	963.8	congruent	Block1	congruent/STIM_001.jpg	99
627.633	1.003	1003.1	congruent	Block1	congruent/STIM_001.jpg	99
631.108	0.65	650.4	congruent	Block1	congruent/STIM_001.jpg	99
635.514	0.807	807.1	congruent	Block1	congruent/STIM_002.jpg	99
639.329	1.018	1017.7	congruent	Block1	congruent/STIM_002.jpg	100
642.658	0.679	678.8	congruent	Block1	congruent/STIM_002.jpg	99
647.301	0.888	887.9	congruent	Block1	congruent/STIM_002.jpg	100
650.713	0.581	581.2	congruent	Block1	congruent/STIM_002.jpg	100
654.67	0.747	746.6	congruent	Block1	congruent/STIM_003.jpg	99
659.208	0.674	673.7	congruent	Block1	congruent/STIM_003.jpg	99
662.341	0.669	668.7	congruent	Block1	congruent/STIM_003.jpg	100
666.539	0.496	496.1	congruent	Block1	congruent/STIM_003.jpg	99
669.907	0.814	813.8	congruent	Block1	congruent/STIM_003.jpg	99
672.651	0.832	831.8	congruent	Block1	congruent/STIM_004.jpg	100
676.542	0.762	761.8	congruent	Block1	congruent/STIM_004.jpg	100
679.761	0.742	741.8	congruent	Block1	congruent/STIM_004.jpg	99
684.082	0.834	833.5	congruent	Block1	congruent/STIM_004.jpg	100
687.812	0.791	790.6	congruent	Block1	congruent/STIM_004.jpg	100
692.271	0.827	826.6	congruent	Block1	congruent/STIM_005.jpg	100
696.213	0.661	660.6	congruent	Block1	congruent/STIM_005.jpg	99
700.016	0.633	632.9	congruent	Block1	congruent/STIM_005.jpg	99
703.846	1.026	1025.9	congruent	Block1	congruent/STIM_005.jpg	100
707.986	0.729	729.1	congruent	Block1	congruent/STIM_005.jpg	99
710.989	0.672	671.7	congruent	Block1	congruent/STIM_006.jpg	100
714.815	0.985	984.9	congruent	Block1	congruent/STIM_006.jpg	99
719.334	0.556	555.6	congruent	Block1	congruent/STIM_006.jpg	100
723.003	0.654	653.5	congruent	Block1	congruent/STIM_006.jpg	99
725.814	0.71	710.2	congruent	Block1	congruent/STIM_006.jpg	100
728.764	0.794	794.4	congruent	Block1	congruent/STIM_007.jpg	99
731.876	0.774	773.7	congruent	Block1	congruent/STIM_007.jpg	99
736.486	0.586	586.1	congruent	Block1	congruent/STIM_007.jpg	99
740.758	0.851	851.2	congruent	Block1	congruent/STIM_007.jpg	99
744.171	0.656	656.0	congruent	Block1	congruent/STIM_007.jpg	100
748.586	0.715	715.0	congruent	Block1	congruent/STIM_008.jpg	100
752.025	0.628	628.0	congruent	Block1	congruent/STIM_008.jpg	99
755.141	0.553	552.7	congruent	Block1	congruent/STIM_008.jpg	99
758.275	0.73	729.5	congruent	Block1	congruent/STIM_008.jpg	99
761.608	0.512	512.2	congruent	Block1	congruent/STIM_008.jpg	99
765.702	0.974	973.7	congruent	Block1	congruent/STIM_009.jpg	100
769.671	0.641	640.8	congruent	Block1	congruent/STIM_009.jpg	99
773.573	0.789	789.2	congruent	Block1	congruent/STIM_009.jpg	100
776.73	0.772	771.9	congruent	Block1	congruent/STIM_009.jpg	99
781.266	0.867	866.7	congruent	Block1	congruent/STIM_009.jpg	99
786.016	0.582	581.8	congruent	Block1	congruent/STIM_010.jpg	99
790.416	0.626	626.1	congruent	Block1	congruent/STIM_010.jpg	99
794.406	0.803	803.3	congruent	Block1	congruent/STIM_010.jpg	100
798.35	0.846	846.5	congruent	Block1	congruent/STIM_010.jpg	99
801.39	0.897	897.4	congruent	Block1	congruent/STIM_010.jpg	99
805.115	0.654	653.9	congruent	Block1	congruent/STIM_011.jpg	100
808.55	0.696	695.5	congruent	Block1	congruent/STIM_011.jpg	100
812.817	1.039	1039.4	congruent	Block1	congruent/STIM_011.jpg	99
817.636	0.851	851.3	congruent	Block1	congruent/STIM_011.jpg	99
821.589	0.85	849.9	congruent	Block1	congruent/STIM_011.jpg	100
825.583	0.587	587.0	congruent	Block1	congruent/STIM_012.jpg	99
829.581	0.795	794.9	congruent	Block1	congruent/STIM_012.jpg	100
834.096	0.671	670.8	congruent	Block1	congruent/STIM_012.jpg	99
838.437	0.893	893.2	congruent	Block1	congruent/STIM_012.jpg	100
842.048	0.733	733.2	congruent	Block1	congruent/STIM_012.jpg	99
846.309	0.814	814.5	congruent	Block1	congruent/STIM_013.jpg	99
849.332	0.624	623.7	congruent	Block1	congruent/STIM_013.jpg	99
852.599	0.764	764.1	congruent	Block1	congruent/STIM_013.jpg	99
855.569	0.671	670.9	congruent	Block1	congruent/STIM_013.jpg	100
859.691	0.685	684.7	congruent	Block1	congruent/STIM_013.jpg	100
862.565	0.622	622.4	congruent	Block1	congruent/STIM_014.jpg	100
866.119	0.887	887.0	congruent	Block1	congruent/STIM_014.jpg	99
870.327	0.564	564.5	congruent	Block1	congruent/STIM_014.jpg	100
872.984	0.947	946.7	congruent	Block1	congruent/STIM_014.jpg	99
877.545	0.724	723.5	congruent	Block1	congruent/STIM_014.jpg	99
881.655	0.831	830.8	congruent	Block1	congruent/STIM_015.jpg	100
884.652	0.922	922.1	congruent	Block1	congruent/STIM_015.jpg	100
889.361	0.998	997.9	congruent	Block1	congruent/STIM_015.jpg	100
892.629	0.791	791.0	congruent	Block1	congruent/STIM_015.jpg	99
896.028	1.02	1019.7	congruent	Block1	congruent/STIM_015.jpg	99
900.414	0.626	625.6	congruent	Block1	congruent/STIM_016.jpg	100
904.443	0.701	701.4	congruent	Block1	congruent/STIM_016.jpg	99
908.229	1.066	1066.5	congruent	Block1	congruent/STIM_016.jpg	100
911.528	0.614	613.6	congruent	Block1	congruent/STIM_016.jpg	99
914.286	0.923	922.7	congruent	Block1	congruent/STIM_016.jpg	100
918.728	1.037	1036.7	congruent	Block1	congruent/STIM_017.jpg	99
922.137	0.645	645.4	congruent	Block1	congruent/STIM_017.jpg	99
925.772	0.818	818.3	congruent	Block1	congruent/STIM_017.jpg	99
929.261	0.734	733.8	congruent	Block1	congruent/STIM_017.jpg	99
933.731	0.768	768.4	congruent	Block1	congruent/STIM_017.jpg	100
937.26	0.904	903.5	congruent	Block1	congruent/STIM_018.jpg	100
940.016	0.652	651.8	congruent	Block1	congruent/STIM_018.jpg	100
943.909	1.01	1010.5	congruent	Block1	congruent/STIM_018.jpg	99
948.284	1.033	1032.9	congruent	Block1	congruent/STIM_018.jpg	100
951.418	0.6	600.2	congruent	Block1	congruent/STIM_018.jpg	99
954.954	1.047	1047.3	congruent	Block1	congruent/STIM_019.jpg	99
957.945	0.699	698.8	congruent	Block1	congruent/STIM_019.jpg	100
962.037	0.951	950.6	congruent	Block1	congruent/STIM_019.jpg	99
965.538	0.606	605.6	congruent	Block1	congruent/STIM_019.jpg	100
968.565	0.805	804.9	congruent	Block1	congruent/STIM_019.jpg	99
971.571	0.888	888.2	congruent	Block1	congruent/STIM_020.jpg	100
975.616	0.771	771.0	congruent	Block1	congruent/STIM_020.jpg	100
979.403	0.613	613.1	congruent	Block1	congruent/STIM_020.jpg	99
982.688	0.584	583.7	congruent	Block1	congruent/STIM_020.jpg	100
987.077	1.016	1016.4	congruent	Block1	congruent/STIM_020.jpg	100
990.224	0.826	825.9	congruent	Block1	congruent/STIM_021.jpg	99
993.891	0.576	576.3	congruent	Block1	congruent/STIM_021.jpg	100
997.682	0.75	749.5	congruent	Block1	congruent/STIM_021.jpg	100
1002.089	0.955	955.1	congruent	Block1	congruent/STIM_021.jpg	99
1005.559	1.046	1045.7	congruent	Block1	congruent/STIM_021.jpg	99
1008.734	0.797	797.1	congruent	Block1	congruent/STIM_022.jpg	100
1012.165	0.8	800.5	congruent	Block1	congruent/STIM_022.jpg	99
1016.384	0.863	863.4	congruent	Block1	congruent/STIM_022.jpg	100
1020.783	1.056	1055.9	congruent	Block1	congruent/STIM_022.jpg	99
1025.009	0.906	906.5	congruent	Block1	congruent/STIM_022.jpg	99
1028.203	0.736	736.2	congruent	Block1	congruent/STIM_023.jpg	100
1031.698	0.789	789.0	congruent	Block1	congruent/STIM_023.jpg	100
1035.21	0.689	689.0	congruent	Block1	congruent/STIM_023.jpg	99
1038.117	0.874	873.7	congruent	Block1	congruent/STIM_023.jpg	100
1042.094	0.694	693.6	congruent	Block1	congruent/STIM_023.jpg	99
1045.156	0.661	660.7	congruent	Block1	congruent/STIM_024.jpg	99
1049.239	0.827	827.1	congruent	Block1	congruent/STIM_024.jpg	99
1052.567	0.827	827.4	congruent	Block1	congruent/STIM_024.jpg	99
1056.299	0.817	816.8	congruent	Block1	congruent/STIM_024.jpg	99
1060.047	0.634	634.3	congruent	Block1	congruent/STIM_024.jpg	99
1064.479	0.627	627.3	congruent	Block1	congruent/STIM_025.jpg	99
1068.749	0.899	898.6	congruent	Block1	congruent/STIM_025.jpg	99
1071.804	0.606	606.1	congruent	Block1	congruent/STIM_025.jpg	99
1074.318	0.96	959.6	congruent	Block1	congruent/STIM_025.jpg	100
1078.993	0.832	832.0	congruent	Block1	congruent/STIM_025.jpg	99
1083.259	0.826	826.1	congruent	Block1	congruent/STIM_026.jpg	100
1086.305	0.985	984.7	congruent	Block1	congruent/STIM_026.jpg	100
1089.378	0.886	886.2	congruent	Block1	congruent/STIM_026.jpg	99
1092.876	0.607	607.3	congruent	Block1	congruent/STIM_026.jpg	100
1096.598	0.702	702.3	congruent	Block1	congruent/STIM_026.jpg	100
1100.259	0.951	951.3	congruent	Block1	congruent/STIM_027.jpg	100
1104.933	0.578	578.1	congruent	Block1	congruent/STIM_027.jpg	100
1108.271	0.639	638.7	congruent	Block1	congruent/STIM_027.jpg	99
1111.076	0.872	872.2	congruent	Block1	congruent/STIM_027.jpg	99
1115.751	1.022	1021.7	congruent	Block1	congruent/STIM_027.jpg	99
1119.293	0.69	689.8	congruent	Block1	congruent/STIM_028.jpg	99
1123.163	0.964	963.8	congruent	Block1	congruent/STIM_028.jpg	100
1126.496	0.91	909.8	congruent	Block1	congruent/STIM_028.jpg	99
1129.968	0.53	530.4	congruent	Block1	congruent/STIM_028.jpg	100
1133.027	0.715	715.2	congruent	Block1	congruent/STIM_028.jpg	99
1136.254	0.613	613.4	congruent	Block1	congruent/STIM_029.jpg	99
1140.011	0.644	643.8	congruent	Block1	congruent/STIM_029.jpg	99
1142.567	0.918	917.6	congruent	Block1	congruent/STIM_029.jpg	100
1145.361	0.618	618.3	congruent	Block1	congruent/STIM_029.jpg	100
1148.775	0.666	665.7	congruent	Block1	congruent/STIM_029.jpg	100
1152.588	0.784	783.5	incongruent	Block2	incongruent/STIM_000.jpg	100
1156.736	0.902	901.7	incongruent	Block2	incongruent/STIM_000.jpg	100
1160.895	0.751	750.9	incongruent	Block2	incongruent/STIM_000.jpg	99
1163.598	1.123	1123.0	incongruent	Block2	incongruent/STIM_000.jpg	99
1167.295	0.856	856.2	incongruent	Block2	incongruent/STIM_000.jpg	99
1171.496	1.094	1094.5	incongruent	Block2	incongruent/STIM_001.jpg	100
1174.532	1.237	1237.1	incongruent	Block2	incongruent/STIM_001.jpg	99
1178.654	0.676	675.9	incongruent	Block2	incongruent/STIM_001.jpg	100
1181.719	1.07	1070.0	incongruent	Block2	incongruent/STIM_001.jpg	100
1185.82	1.188	1187.5	incongruent	Block2	incongruent/STIM_001.jpg	99
1189.334	1.174	1174.3	incongruent	Block2	incongruent/STIM_002.jpg	99
1193.705	1.174	1173.8	incongruent	Block2	incongruent/STIM_002.jpg	100
1198.222	1.005	1005.1	incongruent	Block2	incongruent/STIM_002.jpg	100
1203.056	1.054	1053.7	incongruent	Block2	incongruent/STIM_002.jpg	100
1206.152	1.067	1066.6	incongruent	Block2	incongruent/STIM_002.jpg	99
1210.808	1.368	1367.7	incongruent	Block2	incongruent/STIM_003.jpg	99
1214.739	1.316	1315.8	incongruent	Block2	incongruent/STIM_003.jpg	99
1218.404	1.196	1195.7	incongruent	Block2	incongruent/STIM_003.jpg	100
1222.909	0.816	815.6	incongruent	Block2	incongruent/STIM_003.jpg	100
1226.803	1.214	1214.1	incongruent	Block2	incongruent/STIM_003.jpg	99
1230.794	1.022	1022.4	incongruent	Block2	incongruent/STIM_004.jpg	100
1233.962	1.422	1422.3	incongruent	Block2	incongruent/STIM_004.jpg	99
1238.299	1.261	1261.1	incongruent	Block2	incongruent/STIM_004.jpg	100
1241.907	0.698	698.2	incongruent	Block2	incongruent/STIM_004.jpg	100
1245.387	1.05	1050.5	incongruent	Block2	incongruent/STIM_004.jpg	100
1249.488	1.385	1384.9	incongruent	Block2	incongruent/STIM_005.jpg	100
1253.292	0.894	893.8	incongruent	Block2	incongruent/STIM_005.jpg	99
1256.573	0.985	984.6	incongruent	Block2	incongruent/STIM_005.jpg	100
1260.526	1.059	1058.7	incongruent	Block2	incongruent/STIM_005.jpg	99
1265.112	1.107	1107.1	incongruent	Block2	incongruent/STIM_005.jpg	99
1269.868	1.438	1438.3	incongruent	Block2	incongruent/STIM_006.jpg	100
1273.655	0.859	859.4	incongruent	Block2	incongruent/STIM_006.jpg	100
1277.086	0.762	762.1	incongruent	Block2	incongruent/STIM_006.jpg	99
1280.471	1.016	1016.1	incongruent	Block2	incongruent/STIM_006.jpg	100
1283.782	0.86	859.7	incongruent	Block2	incongruent/STIM_006.jpg	99
1286.83	1.175	1175.4	incongruent	Block2	incongruent/STIM_007.jpg	100
1290.688	0.618	618.1	incongruent	Block2	incongruent/STIM_007.jpg	99
1295.031	0.767	766.7	incongruent	Block2	incongruent/STIM_007.jpg	100
1299.123	1.056	1056.0	incongruent	Block2	incongruent/STIM_007.jpg	99
1303.038	1.108	1107.9	incongruent	Block2	incongruent/STIM_007.jpg	99
1306.056	0.992	991.6	incongruent	Block2	incongruent/STIM_008.jpg	100
1310.699	0.584	584.3	incongruent	Block2	incongruent/STIM_008.jpg	100
1313.76	0.824	824.4	incongruent	Block2	incongruent/STIM_008.jpg	100
1318.158	0.622	622.1	incongruent	Block2	incongruent/STIM_008.jpg	100
1320.768	0.722	722.1	incongruent	Block2	incongruent/STIM_008.jpg	99
1324.149	1.01	1009.6	incongruent	Block2	incongruent/STIM_009.jpg	100
1328.488	1.048	1047.9	incongruent	Block2	incongruent/STIM_009.jpg	100
1332.336	0.904	904.5	incongruent	Block2	incongruent/STIM_009.jpg	99
1335.255	0.558	557.9	incongruent	Block2	incongruent/STIM_009.jpg	100
1339.546	1.03	1030.0	incongruent	Block2	incongruent/STIM_009.jpg	99
1343.08	1.395	1394.9	incongruent	Block2	incongruent/STIM_010.jpg	99
1346.985	1.134	1134.4	incongruent	Block2	incongruent/STIM_010.jpg	100
1350.718	1.193	1193.0	incongruent	Block2	incongruent/STIM_010.jpg	100
1355.075	0.968	967.8	incongruent	Block2	incongruent/STIM_010.jpg	100
1358.032	0.95	950.3	incongruent	Block2	incongruent/STIM_010.jpg	99
1361.01	0.863	862.6	incongruent	Block2	incongruent/STIM_011.jpg	99
1364.315	0.797	797.4	incongruent	Block2	incongruent/STIM_011.jpg	99
1368.742	0.755	755.0	incongruent	Block2	incongruent/STIM_011.jpg	99
1371.746	1.108	1107.7	incongruent	Block2	incongruent/STIM_011.jpg	100
1376.434	0.944	944.1	incongruent	Block2	incongruent/STIM_011.jpg	99
1379.41	1.261	1261.2	incongruent	Block2	incongruent/STIM_012.jpg	99
1382.625	0.798	798.1	incongruent	Block2	incongruent/STIM_012.jpg	99
1385.64	1.149	1149.0	incongruent	Block2	incongruent/STIM_012.jpg	100
1389.825	0.728	727.5	incongruent	Block2	incongruent/STIM_012.jpg	99
1392.662	0.506	505.9	incongruent	Block2	incongruent/STIM_012.jpg	100
1396.249	0.887	887.1	incongruent	Block2	incongruent/STIM_013.jpg	100
1400.044	0.605	604.9	incongruent	Block2	incongruent/STIM_013.jpg	100
1402.725	0.942	942.1	incongruent	Block2	incongruent/STIM_013.jpg	100
1407.121	0.58	579.7	incongruent	Block2	incongruent/STIM_013.jpg	100
1410.673	0.717	717.1	incongruent	Block2	incongruent/STIM_013.jpg	99
1414.485	1.506	1506.3	incongruent	Block2	incongruent/STIM_014.jpg	99
1419.686	0.721	720.7	incongruent	Block2	incongruent/STIM_014.jpg	99
1423.217	1.116	1116.3	incongruent	Block2	incongruent/STIM_014.jpg	100
1427.432	0.745	745.2	incongruent	Block2	incongruent/STIM_014.jpg	100
1431.93	0.828	827.7	incongruent	Block2	incongruent/STIM_014.jpg	99
1435.596	0.708	707.7	incongruent	Block2	incongruent/STIM_015.jpg	99
1439.253	0.763	763.2	incongruent	Block2	incongruent/STIM_015.jpg	99
1443.054	1.229	1229.2	incongruent	Block2	incongruent/STIM_015.jpg	100
1447.624	0.856	855.8	incongruent	Block2	incongruent/STIM_015.jpg	99
1452.357	1.157	1157.4	incongruent	Block2	incongruent/STIM_015.jpg	100
1455.507	1.105	1105.2	incongruent	Block2	incongruent/STIM_016.jpg	99
1460.11	1.057	1056.6	incongruent	Block2	incongruent/STIM_016.jpg	99
1464.852	1.104	1104.5	incongruent	Block2	incongruent/STIM_016.jpg	100
1468.192	0.779	779.0	incongruent	Block2	incongruent/STIM_016.jpg	99
1471.374	0.785	785.1	incongruent	Block2	incongruent/STIM_016.jpg	100
1475.716	1.27	1269.8	incongruent	Block2	incongruent/STIM_017.jpg	100
1479.92	1.16	1159.7	incongruent	Block2	incongruent/STIM_017.jpg	99
1483.719	0.861	861.4	incongruent	Block2	incongruent/STIM_017.jpg	99
1488.402	0.934	934.2	incongruent	Block2	incongruent/STIM_017.jpg	99
1492.776	1.204	1204.2	incongruent	Block2	incongruent/STIM_017.jpg	100
1496.577	0.756	755.8	incongruent	Block2	incongruent/STIM_018.jpg	100
1500.06	1.28	1279.9	incongruent	Block2	incongruent/STIM_018.jpg	99
1503.481	0.972	971.6	incongruent	Block2	incongruent/STIM_018.jpg	100
1506.495	0.954	953.9	incongruent	Block2	incongruent/STIM_018.jpg	100
1510.037	1.187	1187.3	incongruent	Block2	incongruent/STIM_018.jpg	100
1514.142	1.038	1037.9	incongruent	Block2	incongruent/STIM_019.jpg	99
1518.641	0.81	810.5	incongruent	Block2	incongruent/STIM_019.jpg	99
1521.934	1.188	1188.1	incongruent	Block2	incongruent/STIM_019.jpg	100
1526.616	1.105	1105.1	incongruent	Block2	incongruent/STIM_019.jpg	99
1529.884	0.924	924.2	incongruent	Block2	incongruent/STIM_019.jpg	100
1533.359	0.886	886.4	incongruent	Block2	incongruent/STIM_020.jpg	99
1536.346	0.744	743.8	incongruent	Block2	incongruent/STIM_020.jpg	100
1540.304	0.844	844.2	incongruent	Block2	incongruent/STIM_020.jpg	100
1543.436	0.884	883.9	incongruent	Block2	incongruent/STIM_020.jpg	100
1547.229	1.049	1049.0	incongruent	Block2	incongruent/STIM_020.jpg	99
1551.023	0.71	710.5	incongruent	Block2	incongruent/STIM_021.jpg	99
1555.388	1.073	1073.4	incongruent	Block2	incongruent/STIM_021.jpg	100
1559.503	1.177	1176.6	incongruent	Block2	incongruent/STIM_021.jpg	100
1562.926	1.081	1080.8	incongruent	Block2	incongruent/STIM_021.jpg	100
1567.851	0.514	513.8	incongruent	Block2	incongruent/STIM_021.jpg	100
1570.514	0.955	955.3	incongruent	Block2	incongruent/STIM_022.jpg	99
1574.469	0.812	811.5	incongruent	Block2	incongruent/STIM_022.jpg	100
1578.016	0.695	695.3	incongruent	Block2	incongruent/STIM_022.jpg	99
1582.222	1.042	1041.9	incongruent	Block2	incongruent/STIM_022.jpg	100
1585.923	0.939	938.6	incongruent	Block2	incongruent/STIM_022.jpg	100
1590.36	1.178	1177.8	incongruent	Block2	incongruent/STIM_023.jpg	100
1593.637	0.84	839.8	incongruent	Block2	incongruent/STIM_023.jpg	99
1596.914	0.965	964.8	incongruent	Block2	incongruent/STIM_023.jpg	100
1600.414	0.976	976.1	incongruent	Block2	incongruent/STIM_023.jpg	99
1603.261	0.708	708.1	incongruent	Block2	incongruent/STIM_023.jpg	100
1607.045	1.266	1265.8	incongruent	Block2	incongruent/STIM_024.jpg	99
1610.444	0.934	933.6	incongruent	Block2	incongruent/STIM_024.jpg	100
1613.458	1.159	1158.6	incongruent	Block2	incongruent/STIM_024.jpg	100
1616.998	0.729	728.6	incongruent	Block2	incongruent/STIM_024.jpg	99
1620.717	0.932	931.9	incongruent	Block2	incongruent/STIM_024.jpg	100
1625.465	0.814	814.1	incongruent	Block2	incongruent/STIM_025.jpg	100
1629.414	1.161	1160.6	incongruent	Block2	incongruent/STIM_025.jpg	99
1634.288	0.784	784.0	incongruent	Block2	incongruent/STIM_025.jpg	100
1637.49	1.078	1078.3	incongruent	Block2	incongruent/STIM_025.jpg	100
1641.729	1.132	1132.0	incongruent	Block2	incongruent/STIM_025.jpg	99
1645.172	1.078	1077.7	incongruent	Block2	incongruent/STIM_026.jpg	99
1649.917	1.252	1252.2	incongruent	Block2	incongruent/STIM_026.jpg	100
1653.13	0.732	732.0	incongruent	Block2	incongruent/STIM_026.jpg	99
1656.404	0.97	970.1	incongruent	Block2	incongruent/STIM_026.jpg	99
1661.242	0.747	747.0	incongruent	Block2	incongruent/STIM_026.jpg	100
1663.996	1.33	1329.9	incongruent	Block2	incongruent/STIM_027.jpg	99
1668.815	1.37	1370.3	incongruent	Block2	incongruent/STIM_027.jpg	100
1672.046	0.809	808.7	incongruent	Block2	incongruent/STIM_027.jpg	99
1674.867	0.79	789.7	incongruent	Block2	incongruent/STIM_027.jpg	100
1678.193	0.977	977.2	incongruent	Block2	incongruent/STIM_027.jpg	99
1682.001	1.42	1420.3	incongruent	Block2	incongruent/STIM_028.jpg	99
1687.206	0.929	929.2	incongruent	Block2	incongruent/STIM_028.jpg	100
1691.196	1.076	1075.6	incongruent	Block2	incongruent/STIM_028.jpg	100
1694.717	1.138	1138.1	incongruent	Block2	incongruent/STIM_028.jpg	100
1699.09	0.952	951.6	incongruent	Block2	incongruent/STIM_028.jpg	99
1701.941	0.861	860.6	incongruent	Block2	incongruent/STIM_029.jpg	99
1705.477	1.028	1027.6	incongruent	Block2	incongruent/STIM_029.jpg	100
1709.066	0.779	779.1	incongruent	Block2	incongruent/STIM_029.jpg	100
1712.527	0.839	838.8	incongruent	Block2	incongruent/STIM_029.jpg	99
1715.975	0.919	918.9	incongruent	Block2	incongruent/STIM_029.jpg	99
1719.46	0.68	679.5	congruent	Block2	congruent/STIM_000.jpg	100
1723.773	0.736	736.4	congruent	Block2	congruent/STIM_000.jpg	100
1728.308	0.591	591.4	congruent	Block2	congruent/STIM_000.jpg	100
1732.191	0.622	622.5	congruent	Block2	congruent/STIM_000.jpg	99
1735.718	0.598	597.5	congruent	Block2	congruent/STIM_000.jpg	100
1739.445	0.746	745.7	congruent	Block2	congruent/STIM_001.jpg	99
1743.623	0.891	891.1	congruent	Block2	congruent/STIM_001.jpg	99
1747.257	0.977	977.3	congruent	Block2	congruent/STIM_001.jpg	100
1751.994	1.027	1027.3	congruent	Block2	congruent/STIM_001.jpg	99
1755.355	0.709	708.7	congruent	Block2	congruent/STIM_001.jpg	99
1759.862	0.754	753.5	congruent	Block2	congruent/STIM_002.jpg	99
1764.472	0.805	804.7	congruent	Block2	congruent/STIM_002.jpg	99
1768.232	0.525	524.9	congruent	Block2	congruent/STIM_002.jpg	99
1772.707	0.92	919.5	congruent	Block2	congruent/STIM_002.jpg	100
1777.217	0.728	728.3	congruent	Block2	congruent/STIM_002.jpg	99
1780.58	0.88	879.7	congruent	Block2	congruent/STIM_003.jpg	100
1784.15	1.045	1044.6	congruent	Block2	congruent/STIM_003.jpg	100
1788.226	0.885	885.3	congruent	Block2	congruent/STIM_003.jpg	100
1791.376	0.935	935.1	congruent	Block2	congruent/STIM_003.jpg	100
1795.858	0.697	696.8	congruent	Block2	congruent/STIM_003.jpg	99
1798.789	0.784	784.1	congruent	Block2	congruent/STIM_004.jpg	100
1801.537	0.544	544.1	congruent	Block2	congruent/STIM_004.jpg	99
1804.562	0.98	980.0	congruent	Block2	congruent/STIM_004.jpg	100
1808.912	0.941	940.6	congruent	Block2	congruent/STIM_004.jpg	100
1812.047	0.749	748.8	congruent	Block2	congruent/STIM_004.jpg	99
1815.833	0.69	689.9	congruent	Block2	congruent/STIM_005.jpg	99
1819.183	0.749	748.7	congruent	Block2	congruent/STIM_005.jpg	100
1823.263	0.64	640.2	congruent	Block2	congruent/STIM_005.jpg	100
1825.808	0.905	904.7	congruent	Block2	congruent/STIM_005.jpg	100
1829.121	0.872	872.2	congruent	Block2	congruent/STIM_005.jpg	100
1832.053	0.703	703.0	congruent	Block2	congruent/STIM_006.jpg	100
1836.313	1.07	1069.7	congruent	Block2	congruent/STIM_006.jpg	100
1839.609	0.776	776.4	congruent	Block2	congruent/STIM_006.jpg	100
1843.625	0.864	864.4	congruent	Block2	congruent/STIM_006.jpg	99
1848.09	0.816	816.1	congruent	Block2	congruent/STIM_006.jpg	100
1851.434	0.72	720.0	congruent	Block2	congruent/STIM_007.jpg	99
1855.649	0.614	614.3	congruent	Block2	congruent/STIM_007.jpg	99
1859.686	0.695	695.3	congruent	Block2	congruent/STIM_007.jpg	100
1862.315	0.621	621.0	congruent	Block2	congruent/STIM_007.jpg	100
1865.455	0.517	516.6	congruent	Block2	congruent/STIM_007.jpg	99
1869.161	0.851	851.2	congruent	Block2	congruent/STIM_008.jpg	99
1872.647	0.992	991.6	congruent	Block2	congruent/STIM_008.jpg	100
1876.152	0.881	880.7	congruent	Block2	congruent/STIM_008.jpg	99
1880.252	0.821	820.6	congruent	Block2	congruent/STIM_008.jpg	100
1884.52	0.907	907.3	congruent	Block2	congruent/STIM_008.jpg	99
1888.551	0.774	774.5	congruent	Block2	congruent/STIM_009.jpg	99
1892.557	0.561	561.1	congruent	Block2	congruent/STIM_009.jpg	100
1896.369	0.782	781.8	congruent	Block2	congruent/STIM_009.jpg	100
1899.946	0.611	610.6	congruent	Block2	congruent/STIM_009.jpg	99
1903.088	0.943	942.9	congruent	Block2	congruent/STIM_009.jpg	100
1907.759	0.889	888.6	congruent	Block2	congruent/STIM_010.jpg	99
1911.42	0.914	914.5	congruent	Block2	congruent/STIM_010.jpg	99
1915.316	0.838	837.9	congruent	Block2	congruent/STIM_010.jpg	99
1919.056	0.598	597.7	congruent	Block2	congruent/STIM_010.jpg	100
1922.401	0.779	778.6	congruent	Block2	congruent/STIM_010.jpg	100
1926.955	0.955	955.0	congruent	Block2	congruent/STIM_011.jpg	99
1930.522	0.913	912.9	congruent	Block2	congruent/STIM_011.jpg	100
1934.685	0.878	877.7	congruent	Block2	congruent/STIM_011.jpg	99
1939.145	0.964	964.4	congruent	Block2	congruent/STIM_011.jpg	99
1942.19	0.814	813.8	congruent	Block2	congruent/STIM_011.jpg	100
1945.701	0.608	607.6	congruent	Block2	congruent/STIM_012.jpg	99
1949.015	0.802	801.6	congruent	Block2	congruent/STIM_012.jpg	99
1953.522	0.671	671.2	congruent	Block2	congruent/STIM_012.jpg	99
1956.171	0.812	811.8	congruent	Block2	congruent/STIM_012.jpg	100
1960.565	0.664	664.5	congruent	Block2	congruent/STIM_012.jpg	100
1964.653	0.911	911.2	congruent	Block2	congruent/STIM_013.jpg	100
1968.451	0.698	697.7	congruent	Block2	congruent/STIM_013.jpg	99
1971.541	0.788	788.2	congruent	Block2	congruent/STIM_013.jpg	99
1974.621	0.843	842.9	congruent	Block2	congruent/STIM_013.jpg	100
1978.681	0.921	921.0	congruent	Block2	congruent/STIM_013.jpg	99
1982.86	0.652	652.1	congruent	Block2	congruent/STIM_014.jpg	99
1986.688	0.842	842.1	congruent	Block2	congruent/STIM_014.jpg	99
1990.383	0.991	991.2	congruent	Block2	congruent/STIM_014.jpg	100
1993.92	0.851	851.4	congruent	Block2	congruent/STIM_014.jpg	100
1997.365	0.863	863.0	congruent	Block2	congruent/STIM_014.jpg	99
2002.046	0.662	662.3	congruent	Block2	congruent/STIM_015.jpg	100
2005.751	0.85	850.2	congruent	Block2	congruent/STIM_015.jpg	99
2009.196	0.946	945.9	congruent	Block2	congruent/STIM_015.jpg	99
2012.548	0.729	729.0	congruent	Block2	congruent/STIM_015.jpg	100
2016.917	0.789	788.6	congruent	Block2	congruent/STIM_015.jpg	100
2021.065	1.001	1000.6	congruent	Block2	congruent/STIM_016.jpg	99
2025.886	0.975	974.9	congruent	Block2	congruent/STIM_016.jpg	99
2029.07	0.764	763.9	congruent	Block2	congruent/STIM_016.jpg	99
2032.966	0.951	950.9	congruent	Block2	congruent/STIM_016.jpg	100
2036.957	0.865	865.0	congruent	Block2	congruent/STIM_016.jpg	100
2040.653	0.863	862.6	congruent	Block2	congruent/STIM_017.jpg	99
2044.635	0.592	592.1	congruent	Block2	congruent/STIM_017.jpg	100
2047.98	0.86	860.2	congruent	Block2	congruent/STIM_017.jpg	100
2050.707	0.778	777.5	congruent	Block2	congruent/STIM_017.jpg	99
2055.165	0.552	551.9	congruent	Block2	congruent/STIM_017.jpg	100
2057.751	0.881	881.3	congruent	Block2	congruent/STIM_018.jpg	100
2061.508	1.006	1005.7	congruent	Block2	congruent/STIM_018.jpg	99
2065.229	0.787	787.4	congruent	Block2	congruent/STIM_018.jpg	100
2068.517	0.799	799.0	congruent	Block2	congruent/STIM_018.jpg	99
2072.159	0.667	667.3	congruent	Block2	congruent/STIM_018.jpg	100
2075.766	0.732	732.5	congruent	Block2	congruent/STIM_019.jpg	99
2079.544	0.904	904.2	congruent	Block2	congruent/STIM_019.jpg	99
2082.407	1.045	1045.3	congruent	Block2	congruent/STIM_019.jpg	99
2087.136	0.923	922.7	congruent	Block2	congruent/STIM_019.jpg	100
2090.356	0.643	643.4	congruent	Block2	congruent/STIM_019.jpg	100
2093.531	0.736	735.9	congruent	Block2	congruent/STIM_020.jpg	99
2097.049	0.97	970.4	congruent	Block2	congruent/STIM_020.jpg	99
2100.328	0.631	631.4	congruent	Block2	congruent/STIM_020.jpg	100
2104.414	1.03	1030.5	congruent	Block2	congruent/STIM_020.jpg	100
2107.88	0.956	956.2	congruent	Block2	congruent/STIM_020.jpg	99
2111.871	0.982	982.4	congruent	Block2	congruent/STIM_021.jpg	100
2115.633	0.938	937.8	congruent	Block2	congruent/STIM_021.jpg	99
2118.786	0.946	945.7	congruent	Block2	congruent/STIM_021.jpg	99
2122.338	0.716	715.6	congruent	Block2	congruent/STIM_021.jpg	100
2125.088	0.787	787.3	congruent	Block2	congruent/STIM_021.jpg	100
2128.184	0.874	874.3	congruent	Block2	congruent/STIM_022.jpg	99
2131.978	0.574	574.3	congruent	Block2	congruent/STIM_022.jpg	99
2136.248	0.743	742.6	congruent	Block2	congruent/STIM_022.jpg	100
2140.019	0.978	977.8	congruent	Block2	congruent/STIM_022.jpg	99
2144.43	0.876	875.5	congruent	Block2	congruent/STIM_022.jpg	100
2148.512	0.862	861.6	congruent	Block2	congruent/STIM_023.jpg	100
2151.973	0.721	721.3	congruent	Block2	congruent/STIM_023.jpg	99
2154.66	0.545	545.0	congruent	Block2	congruent/STIM_023.jpg	100
2157.577	0.624	624.4	congruent	Block2	congruent/STIM_023.jpg	99
2161.88	1.075	1075.2	congruent	Block2	congruent/STIM_023.jpg	99
2165.906	0.825	825.4	congruent	Block2	congruent/STIM_024.jpg	100
2170.584	0.752	751.5	congruent	Block2	congruent/STIM_024.jpg	99
2173.886	0.535	534.9	congruent	Block2	congruent/STIM_024.jpg	100
2176.64	0.834	833.9	congruent	Block2	congruent/STIM_024.jpg	99
2179.553	0.567	566.8	congruent	Block2	congruent/STIM_024.jpg	99
2182.213	0.582	582.1	congruent	Block2	congruent/STIM_025.jpg	100
2185.522	0.769	769.3	congruent	Block2	congruent/STIM_025.jpg	99
2189.45	0.672	672.4	congruent	Block2	congruent/STIM_025.jpg	100
2192.304	0.953	953.2	congruent	Block2	congruent/STIM_025.jpg	99
2196.262	0.72	720.0	congruent	Block2	congruent/STIM_025.jpg	100
2200.173	0.852	851.5	congruent	Block2	congruent/STIM_026.jpg	99
2203.486	0.802	801.7	congruent	Block2	congruent/STIM_026.jpg	99
2206.614	0.683	683.3	congruent	Block2	congruent/STIM_026.jpg	99
2209.271	0.728	728.5	congruent	Block2	congruent/STIM_026.jpg	99
2212.563	0.842	842.2	congruent	Block2	congruent/STIM_026.jpg	100
2216.346	0.744	744.3	congruent	Block2	congruent/STIM_027.jpg	100
2219.218	0.569	568.8	congruent	Block2	congruent/STIM_027.jpg	100
2222.003	0.838	838.2	congruent	Block2	congruent/STIM_027.jpg	99
2226.087	0.594	594.3	congruent	Block2	congruent/STIM_027.jpg	99
2230.67	0.693	693.2	congruent	Block2	congruent/STIM_027.jpg	99
2233.801	0.779	779.1	congruent	Block2	congruent/STIM_028.jpg	99
2236.551	0.896	896.2	congruent	Block2	congruent/STIM_028.jpg	100
2239.661	0.894	894.3	congruent	Block2	congruent/STIM_028.jpg	100
2243.361	0.761	760.7	congruent	Block2	congruent/STIM_028.jpg	100
2247.685	0.676	676.4	congruent	Block2	congruent/STIM_028.jpg	99
2251.598	1.012	1012.3	congruent	Block2	congruent/STIM_029.jpg	100
2256.273	0.531	530.6	congruent	Block2	congruent/STIM_029.jpg	99
2260.264	0.537	537.0	congruent	Block2	congruent/STIM_029.jpg	100
2263.589	0.89	889.7	congruent	Block2	congruent/STIM_029.jpg	100
2267.12	1.001	1001.0	congruent	Block2	congruent/STIM_029.jpg	99
2270.343	1.139	1139.2	incongruent	Block3	incongruent/STIM_000.jpg	99
2274.085	1.076	1076.5	incongruent	Block3	incongruent/STIM_000.jpg	100
2278.609	0.876	876.0	incongruent	Block3	incongruent/STIM_000.jpg	100
2281.627	0.768	767.8	incongruent	Block3	incongruent/STIM_000.jpg	99
2285.001	0.986	985.6	incongruent	Block3	incongruent/STIM_000.jpg	100
2289.505	1.199	1198.9	incongruent	Block3	incongruent/STIM_001.jpg	100
2292.924	0.629	628.7	incongruent	Block3	incongruent/STIM_001.jpg	99
2296.461	0.97	970.3	incongruent	Block3	incongruent/STIM_001.jpg	100
2300.328	0.745	744.8	incongruent	Block3	incongruent/STIM_001.jpg	100
2304.309	1.174	1174.5	incongruent	Block3	incongruent/STIM_001.jpg	99
2308.052	0.858	857.6	incongruent	Block3	incongruent/STIM_002.jpg	100
2312.821	0.886	885.6	incongruent	Block3	incongruent/STIM_002.jpg	100
2317.281	0.94	939.5	incongruent	Block3	incongruent/STIM_002.jpg	99
2321.312	0.66	659.5	incongruent	Block3	incongruent/STIM_002.jpg	99
2325.807	0.892	891.5	incongruent	Block3	incongruent/STIM_002.jpg	100
2329.591	0.623	623.1	incongruent	Block3	incongruent/STIM_003.jpg	99
2332.787	0.572	571.6	incongruent	Block3	incongruent/STIM_003.jpg	100
2337.158	0.662	661.8	incongruent	Block3	incongruent/STIM_003.jpg	99
2340.219	1.111	1110.9	incongruent	Block3	incongruent/STIM_003.jpg	99
2343.758	1.176	1176.2	incongruent	Block3	incongruent/STIM_003.jpg	99
2347.122	0.914	913.9	incongruent	Block3	incongruent/STIM_004.jpg	99
2350.477	1.011	1011.3	incongruent	Block3	incongruent/STIM_004.jpg	100
2354.841	1.066	1066.3	incongruent	Block3	incongruent/STIM_004.jpg	100
2358.518	1.04	1040.2	incongruent	Block3	incongruent/STIM_004.jpg	100
2363.008	1.091	1091.3	incongruent	Block3	incongruent/STIM_004.jpg	99
2367.547	1.06	1060.3	incongruent	Block3	incongruent/STIM_005.jpg	100
2370.685	0.718	718.1	incongruent	Block3	incongruent/STIM_005.jpg	99
2373.27	0.997	996.7	incongruent	Block3	incongruent/STIM_005.jpg	100
2376.66	0.912	911.8	incongruent	Block3	incongruent/STIM_005.jpg	99
2380.503	0.725	725.4	incongruent	Block3	incongruent/STIM_005.jpg	99
2384.012	0.79	790.2	incongruent	Block3	incongruent/STIM_006.jpg	99
2387.103	0.557	556.8	incongruent	Block3	incongruent/STIM_006.jpg	99
2390.205	1.127	1126.8	incongruent	Block3	incongruent/STIM_006.jpg	99
2395.161	1.037	1037.2	incongruent	Block3	incongruent/STIM_006.jpg	99
2399.29	1.047	1047.2	incongruent	Block3	incongruent/STIM_006.jpg	100
2402.238	1.095	1095.0	incongruent	Block3	incongruent/STIM_007.jpg	99
2405.793	1.063	1063.0	incongruent	Block3	incongruent/STIM_007.jpg	99
2408.878	0.846	846.2	incongruent	Block3	incongruent/STIM_007.jpg	100
2411.962	1.142	1141.7	incongruent	Block3	incongruent/STIM_007.jpg	100
2416.851	1.129	1128.9	incongruent	Block3	incongruent/STIM_007.jpg	99
2420.237	0.846	845.8	incongruent	Block3	incongruent/STIM_008.jpg	100
2424.407	0.98	980.0	incongruent	Block3	incongruent/STIM_008.jpg	100
2427.566	0.92	920.1	incongruent	Block3	incongruent/STIM_008.jpg	100
2430.846	0.53	529.7	incongruent	Block3	incongruent/STIM_008.jpg	100
2433.447	1.146	1146.5	incongruent	Block3	incongruent/STIM_008.jpg	99
2436.495	0.924	924.2	incongruent	Block3	incongruent/STIM_009.jpg	100
2440.354	0.914	914.4	incongruent	Block3	incongruent/STIM_009.jpg	99
2444.483	0.653	652.8	incongruent	Block3	incongruent/STIM_009.jpg	99
2447.199	0.934	933.6	incongruent	Block3	incongruent/STIM_009.jpg	100
2450.799	1.084	1083.8	incongruent	Block3	incongruent/STIM_009.jpg	99
2454.039	1.113	1113.4	incongruent	Block3	incongruent/STIM_010.jpg	100
2457.213	0.86	859.7	incongruent	Block3	incongruent/STIM_010.jpg	100
2460.548	1.033	1033.0	incongruent	Block3	incongruent/STIM_010.jpg	99
2464.648	0.655	655.2	incongruent	Block3	incongruent/STIM_010.jpg	100
2468.624	0.716	716.2	incongruent	Block3	incongruent/STIM_010.jpg	99
2472.251	0.986	986.2	incongruent	Block3	incongruent/STIM_011.jpg	99
2475.18	0.769	768.8	incongruent	Block3	incongruent/STIM_011.jpg	100
2478.649	1.128	1127.9	incongruent	Block3	incongruent/STIM_011.jpg	99
2483.194	0.949	949.1	incongruent	Block3	incongruent/STIM_011.jpg	99
2486.898	1.107	1106.6	incongruent	Block3	incongruent/STIM_011.jpg	100
2490.484	1.066	1066.1	incongruent	Block3	incongruent/STIM_012.jpg	100
2495.336	0.897	897.0	incongruent	Block3	incongruent/STIM_012.jpg	99
2499.777	0.91	910.4	incongruent	Block3	incongruent/STIM_012.jpg	100
2503.536	0.543	543.2	incongruent	Block3	incongruent/STIM_012.jpg	99
2506.352	1.029	1028.7	incongruent	Block3	incongruent/STIM_012.jpg	100
2510.715	0.995	994.9	incongruent	Block3	incongruent/STIM_013.jpg	99
2513.693	0.874	874.3	incongruent	Block3	incongruent/STIM_013.jpg	100
2517.478	0.75	749.7	incongruent	Block3	incongruent/STIM_013.jpg	99
2521.634	0.692	691.8	incongruent	Block3	incongruent/STIM_013.jpg	99
2525.928	0.695	694.6	incongruent	Block3	incongruent/STIM_013.jpg	100
2530.485	0.89	889.5	incongruent	Block3	incongruent/STIM_014.jpg	99
2533.537	1.07	1069.8	incongruent	Block3	incongruent/STIM_014.jpg	100
2537.854	0.659	658.6	incongruent	Block3	incongruent/STIM_014.jpg	100
2542.038	0.688	688.3	incongruent	Block3	incongruent/STIM_014.jpg	100
2545.046	0.916	916.0	incongruent	Block3	incongruent/STIM_014.jpg	100
2548.686	0.941	941.1	incongruent	Block3	incongruent/STIM_015.jpg	100
2552.454	1.046	1046.4	incongruent	Block3	incongruent/STIM_015.jpg	99
2556.484	0.823	823.0	incongruent	Block3	incongruent/STIM_015.jpg	99
2560.729	1.173	1172.7	incongruent	Block3	incongruent/STIM_015.jpg	99
2564.581	0.998	998.3	incongruent	Block3	incongruent/STIM_015.jpg	100
2568.848	0.739	739.0	incongruent	Block3	incongruent/STIM_016.jpg	99
2572.086	0.6	600.0	incongruent	Block3	incongruent/STIM_016.jpg	99
2575.296	0.667	666.6	incongruent	Block3	incongruent/STIM_016.jpg	100
2578.707	0.676	675.9	incongruent	Block3	incongruent/STIM_016.jpg	99
2582.091	0.658	658.0	incongruent	Block3	incongruent/STIM_016.jpg	100
2585.587	0.609	608.7	incongruent	Block3	incongruent/STIM_017.jpg	100
2588.579	0.995	995.3	incongruent	Block3	incongruent/STIM_017.jpg	99
2592.359	0.821	820.7	incongruent	Block3	incongruent/STIM_017.jpg	100
2596.64	0.962	961.5	incongruent	Block3	incongruent/STIM_017.jpg	99
2599.952	0.883	883.4	incongruent	Block3	incongruent/STIM_017.jpg	99
2603.679	0.954	954.0	incongruent	Block3	incongruent/STIM_018.jpg	100
2606.874	0.548	547.6	incongruent	Block3	incongruent/STIM_018.jpg	99
2611.124	0.853	853.1	incongruent	Block3	incongruent/STIM_018.jpg	99
2614.893	0.901	900.6	incongruent	Block3	incongruent/STIM_018.jpg	99
2618.499	1.104	1103.7	incongruent	Block3	incongruent/STIM_018.jpg	100
2622.134	0.6	599.9	incongruent	Block3	incongruent/STIM_019.jpg	100
2625.207	0.788	788.4	incongruent	Block3	incongruent/STIM_019.jpg	100
2629.411	0.676	676.2	incongruent	Block3	incongruent/STIM_019.jpg	100
2632.835	0.566	565.5	incongruent	Block3	incongruent/STIM_019.jpg	100
2636.415	1.251	1251.2	incongruent	Block3	incongruent/STIM_019.jpg	99
2639.57	0.622	622.1	incongruent	Block3	incongruent/STIM_020.jpg	100
2642.831	0.785	785.3	incongruent	Block3	incongruent/STIM_020.jpg	99
2646.541	0.935	934.9	incongruent	Block3	incongruent/STIM_020.jpg	99
2649.824	0.592	592.4	incongruent	Block3	incongruent/STIM_020.jpg	100
2653.103	0.899	899.1	incongruent	Block3	incongruent/STIM_020.jpg	100
2655.974	0.935	934.9	incongruent	Block3	incongruent/STIM_021.jpg	100
2659.252	1.088	1088.0	incongruent	Block3	incongruent/STIM_021.jpg	99
2662.636	1.082	1081.5	incongruent	Block3	incongruent/STIM_021.jpg	100
2665.789	0.707	707.0	incongruent	Block3	incongruent/STIM_021.jpg	99
2668.866	0.565	565.3	incongruent	Block3	incongruent/STIM_021.jpg	100
2671.643	0.87	870.4	incongruent	Block3	incongruent/STIM_022.jpg	100
2675.046	0.93	930.4	incongruent	Block3	incongruent/STIM_022.jpg	99
2679.385	0.816	816.5	incongruent	Block3	incongruent/STIM_022.jpg	99
2682.262	1.126	1125.6	incongruent	Block3	incongruent/STIM_022.jpg	100
2685.738	0.8	799.7	incongruent	Block3	incongruent/STIM_022.jpg	100
2688.501	1.016	1016.4	incongruent	Block3	incongruent/STIM_023.jpg	100
2692.862	0.774	773.6	incongruent	Block3	incongruent/STIM_023.jpg	99
2696.481	1.093	1092.8	incongruent	Block3	incongruent/STIM_023.jpg	99
2701.11	0.458	457.9	incongruent	Block3	incongruent/STIM_023.jpg	99
2703.706	0.726	726.0	incongruent	Block3	incongruent/STIM_023.jpg	99
2707.855	1.082	1081.8	incongruent	Block3	incongruent/STIM_024.jpg	99
2712.694	1.114	1113.8	incongruent	Block3	incongruent/STIM_024.jpg	99
2717.0	0.729	728.6	incongruent	Block3	incongruent/STIM_024.jpg	100
2720.535	0.57	569.8	incongruent	Block3	incongruent/STIM_024.jpg	100
2724.574	0.925	925.4	incongruent	Block3	incongruent/STIM_024.jpg	99
2728.756	0.814	813.5	incongruent	Block3	incongruent/STIM_025.jpg	100
2733.159	0.686	686.0	incongruent	Block3	incongruent/STIM_025.jpg	100
2736.825	0.583	583.4	incongruent	Block3	incongruent/STIM_025.jpg	99
2739.449	1.076	1075.6	incongruent	Block3	incongruent/STIM_025.jpg	99
2743.225	0.933	932.6	incongruent	Block3	incongruent/STIM_025.jpg	99
2746.438	0.686	685.9	incongruent	Block3	incongruent/STIM_026.jpg	100
2750.169	0.656	655.6	incongruent	Block3	incongruent/STIM_026.jpg	100
2752.931	0.724	724.0	incongruent	Block3	incongruent/STIM_026.jpg	99
2756.635	0.923	922.6	incongruent	Block3	incongruent/STIM_026.jpg	99
2760.195	0.856	856.2	incongruent	Block3	incongruent/STIM_026.jpg	99
2764.311	0.972	971.9	incongruent	Block3	incongruent/STIM_027.jpg	100
2768.02	0.611	610.9	incongruent	Block3	incongruent/STIM_027.jpg	99
2771.245	0.722	721.6	incongruent	Block3	incongruent/STIM_027.jpg	99
2774.49	0.578	578.3	incongruent	Block3	incongruent/STIM_027.jpg	100
2778.574	0.893	893.1	incongruent	Block3	incongruent/STIM_027.jpg	100
2782.058	1.033	1033.2	incongruent	Block3	incongruent/STIM_028.jpg	99
2785.854	0.621	621.0	incongruent	Block3	incongruent/STIM_028.jpg	99
2789.943	0.894	894.1	incongruent	Block3	incongruent/STIM_028.jpg	99
2793.868	1.208	1208.1	incongruent	Block3	incongruent/STIM_028.jpg	99
2797.046	0.53	529.9	incongruent	Block3	incongruent/STIM_028.jpg	100
2801.243	1.053	1052.8	incongruent	Block3	incongruent/STIM_029.jpg	100
2804.84	1.066	1065.6	incongruent	Block3	incongruent/STIM_029.jpg	99
2809.334	1.008	1008.3	incongruent	Block3	incongruent/STIM_029.jpg	100
2813.148	0.989	989.2	incongruent	Block3	incongruent/STIM_029.jpg	100
2816.619	0.732	732.2	incongruent	Block3	incongruent/STIM_029.jpg	100
2821.277	0.966	966.1	congruent	Block3	congruent/STIM_000.jpg	100
2824.576	0.946	945.5	congruent	Block3	congruent/STIM_000.jpg	100
2829.12	0.807	807.1	congruent	Block3	congruent/STIM_000.jpg	100
2833.474	0.803	802.8	congruent	Block3	congruent/STIM_000.jpg	99
2837.88	0.819	819.2	congruent	Block3	congruent/STIM_000.jpg	99
2841.18	0.671	670.8	congruent	Block3	congruent/STIM_001.jpg	99
2845.162	0.818	818.3	congruent	Block3	congruent/STIM_001.jpg	99
2848.566	0.958	957.5	congruent	Block3	congruent/STIM_001.jpg	99
2852.745	0.828	828.5	congruent	Block3	congruent/STIM_001.jpg	99
2855.987	0.611	611.4	congruent	Block3	congruent/STIM_001.jpg	99
2858.631	0.95	949.8	congruent	Block3	congruent/STIM_002.jpg	99
2862.993	0.648	648.1	congruent	Block3	congruent/STIM_002.jpg	99
2865.63	0.576	575.8	congruent	Block3	congruent/STIM_002.jpg	99
2868.84	0.805	804.6	congruent	Block3	congruent/STIM_002.jpg	99
2873.205	0.576	576.1	congruent	Block3	congruent/STIM_002.jpg	99
2877.314	1.002	1001.6	congruent	Block3	congruent/STIM_003.jpg	99
2882.132	0.672	672.3	congruent	Block3	congruent/STIM_003.jpg	99
2885.356	0.93	929.8	congruent	Block3	congruent/STIM_003.jpg	100
2889.773	0.732	731.8	congruent	Block3	congruent/STIM_003.jpg	99
2892.665	0.935	934.6	congruent	Block3	congruent/STIM_003.jpg	100
2896.573	0.608	607.7	congruent	Block3	congruent/STIM_004.jpg	99
2900.657	1.02	1019.6	congruent	Block3	congruent/STIM_004.jpg	99
2904.122	0.944	944.2	congruent	Block3	congruent/STIM_004.jpg	100
2908.143	0.864	863.5	congruent	Block3	congruent/STIM_004.jpg	100
2912.611	0.975	975.2	congruent	Block3	congruent/STIM_004.jpg	100
2917.314	0.766	765.6	congruent	Block3	congruent/STIM_005.jpg	100
2920.374	0.739	738.8	congruent	Block3	congruent/STIM_005.jpg	100
2924.138	0.76	760.1	congruent	Block3	congruent/STIM_005.jpg	100
2928.127	0.678	678.4	congruent	Block3	congruent/STIM_005.jpg	100
2931.444	1.05	1050.4	congruent	Block3	congruent/STIM_005.jpg	100
2935.589	0.893	892.6	congruent	Block3	congruent/STIM_006.jpg	99
2938.774	0.5	499.7	congruent	Block3	congruent/STIM_006.jpg	100
2942.22	0.986	986.3	congruent	Block3	congruent/STIM_006.jpg	99
2945.339	0.969	968.9	congruent	Block3	congruent/STIM_006.jpg	99
2948.255	0.746	746.4	congruent	Block3	congruent/STIM_006.jpg	100
2952.421	0.824	823.7	congruent	Block3	congruent/STIM_007.jpg	99
2956.787	0.604	604.0	congruent	Block3	congruent/STIM_007.jpg	99
2959.534	1.048	1048.2	congruent	Block3	congruent/STIM_007.jpg	99
2963.928	0.662	662.4	congruent	Block3	congruent/STIM_007.jpg	100
2967.596	0.982	982.4	congruent	Block3	congruent/STIM_007.jpg	100
2972.017	0.703	702.8	congruent	Block3	congruent/STIM_008.jpg	100
2976.627	0.706	706.5	congruent	Block3	congruent/STIM_008.jpg	99
2980.018	0.705	705.3	congruent	Block3	congruent/STIM_008.jpg	100
2984.228	0.674	673.8	congruent	Block3	congruent/STIM_008.jpg	99
2987.846	1.018	1018.0	congruent	Block3	congruent/STIM_008.jpg	100
2991.654	0.552	551.9	congruent	Block3	congruent/STIM_009.jpg	99
2994.704	0.878	877.9	congruent	Block3	congruent/STIM_009.jpg	100
2998.488	0.765	765.1	congruent	Block3	congruent/STIM_009.jpg	100
3002.647	0.614	614.5	congruent	Block3	congruent/STIM_009.jpg	100
3007.088	0.947	946.9	congruent	Block3	congruent/STIM_009.jpg	100
3010.586	0.842	842.1	congruent	Block3	congruent/STIM_010.jpg	100
3014.784	0.83	830.0	congruent	Block3	congruent/STIM_010.jpg	100
3018.023	0.58	580.1	congruent	Block3	congruent/STIM_010.jpg	99
3021.589	0.937	937.1	congruent	Block3	congruent/STIM_010.jpg	99
3026.049	0.866	866.2	congruent	Block3	congruent/STIM_010.jpg	100
3029.426	0.82	819.7	congruent	Block3	congruent/STIM_011.jpg	99
3032.388	0.566	566.1	congruent	Block3	congruent/STIM_011.jpg	100
3036.022	0.756	755.8	congruent	Block3	congruent/STIM_011.jpg	100
3040.059	0.928	927.6	congruent	Block3	congruent/STIM_011.jpg	99
3044.09	0.696	695.6	congruent	Block3	congruent/STIM_011.jpg	100
3048.7	0.848	847.9	congruent	Block3	congruent/STIM_012.jpg	99
3051.567	0.581	580.6	congruent	Block3	congruent/STIM_012.jpg	100
3054.609	0.722	722.4	congruent	Block3	congruent/STIM_012.jpg	99
3058.139	0.546	545.9	congruent	Block3	congruent/STIM_012.jpg	99
3061.166	0.937	937.2	congruent	Block3	congruent/STIM_012.jpg	100
3065.386	0.629	628.8	congruent	Block3	congruent/STIM_013.jpg	100
3069.042	0.749	749.3	congruent	Block3	congruent/STIM_013.jpg	100
3073.346	0.769	769.2	congruent	Block3	congruent/STIM_013.jpg	100
3076.481	0.714	713.6	congruent	Block3	congruent/STIM_013.jpg	100
3081.127	0.575	575.0	congruent	Block3	congruent/STIM_013.jpg	100
3083.995	0.505	504.9	congruent	Block3	congruent/STIM_014.jpg	99
3086.819	0.64	640.3	congruent	Block3	congruent/STIM_014.jpg	99
3090.62	0.589	589.1	congruent	Block3	congruent/STIM_014.jpg	100
3093.882	0.763	763.0	congruent	Block3	congruent/STIM_014.jpg	99
3097.217	0.767	766.8	congruent	Block3	congruent/STIM_014.jpg	99
3100.274	0.906	906.1	congruent	Block3	congruent/STIM_015.jpg	99
3103.604	0.99	990.0	congruent	Block3	congruent/STIM_015.jpg	99
3107.257	0.593	593.2	congruent	Block3	congruent/STIM_015.jpg	99
3110.952	0.824	823.5	congruent	Block3	congruent/STIM_015.jpg	100
3114.47	0.616	615.6	congruent	Block3	congruent/STIM_015.jpg	100
3117.178	0.744	744.1	congruent	Block3	congruent/STIM_016.jpg	99
3121.531	0.525	525.2	congruent	Block3	congruent/STIM_016.jpg	100
3125.239	0.768	767.5	congruent	Block3	congruent/STIM_016.jpg	99
3128.745	0.917	917.4	congruent	Block3	congruent/STIM_016.jpg	99
3133.422	0.662	661.7	congruent	Block3	congruent/STIM_016.jpg	100
3136.109	0.921	921.4	congruent	Block3	congruent/STIM_017.jpg	99
3139.422	0.563	562.9	congruent	Block3	congruent/STIM_017.jpg	99
3143.029	0.998	998.4	congruent	Block3	congruent/STIM_017.jpg	100
3146.421	0.957	957.3	congruent	Block3	congruent/STIM_017.jpg	99
3150.601	0.737	737.3	congruent	Block3	congruent/STIM_017.jpg	100
3154.749	0.651	650.6	congruent	Block3	congruent/STIM_018.jpg	99
3158.94	0.818	818.4	congruent	Block3	congruent/STIM_018.jpg	100
3162.984	0.901	900.6	congruent	Block3	congruent/STIM_018.jpg	100
3166.911	0.7	700.2	congruent	Block3	congruent/STIM_018.jpg	100
3170.308	0.765	765.1	congruent	Block3	congruent/STIM_018.jpg	99
3174.153	0.982	981.9	congruent	Block3	congruent/STIM_019.jpg	99
3178.86	0.69	689.5	congruent	Block3	congruent/STIM_019.jpg	100
3183.293	0.687	687.3	congruent	Block3	congruent/STIM_019.jpg	100
3186.098	0.986	985.6	congruent	Block3	congruent/STIM_019.jpg	100
3190.405	0.761	761.2	congruent	Block3	congruent/STIM_019.jpg	99
3194.077	0.652	651.5	congruent	Block3	congruent/STIM_020.jpg	100
3197.833	1.039	1038.9	congruent	Block3	congruent/STIM_020.jpg	100
3202.015	0.904	903.5	congruent	Block3	congruent/STIM_020.jpg	99
3205.894	0.591	591.2	congruent	Block3	congruent/STIM_020.jpg	100
3209.245	0.95	950.5	congruent	Block3	congruent/STIM_020.jpg	99
3213.628	0.821	820.9	congruent	Block3	congruent/STIM_021.jpg	99
3218.053	0.896	895.8	congruent	Block3	congruent/STIM_021.jpg	100
3221.836	0.716	716.4	congruent	Block3	congruent/STIM_021.jpg	99
3226.01	0.741	741.4	congruent	Block3	congruent/STIM_021.jpg	99
3229.772	0.998	997.7	congruent	Block3	congruent/STIM_021.jpg	100
3234.276	0.61	610.2	congruent	Block3	congruent/STIM_022.jpg	100
3237.789	0.987	986.6	congruent	Block3	congruent/STIM_022.jpg	99
3240.6	0.724	723.6	congruent	Block3	congruent/STIM_022.jpg	100
3244.284	0.69	689.5	congruent	Block3	congruent/STIM_022.jpg	100
3247.059	0.762	761.8	congruent	Block3	congruent/STIM_022.jpg	99
3250.959	0.829	829.2	congruent	Block3	congruent/STIM_023.jpg	100
3255.065	0.834	833.5	congruent	Block3	congruent/STIM_023.jpg	99
3257.849	0.792	792.0	congruent	Block3	congruent/STIM_023.jpg	99
3262.144	0.752	751.6	congruent	Block3	congruent/STIM_023.jpg	100
3264.979	0.854	853.7	congruent	Block3	congruent/STIM_023.jpg	100
3267.786	0.75	750.2	congruent	Block3	congruent/STIM_024.jpg	100
3270.918	0.928	928.5	congruent	Block3	congruent/STIM_024.jpg	100
3274.622	0.936	936.2	congruent	Block3	congruent/STIM_024.jpg	99
3278.256	0.723	722.7	congruent	Block3	congruent/STIM_024.jpg	99
3281.81	0.632	632.3	congruent	Block3	congruent/STIM_024.jpg	99
3285.902	0.596	595.8	congruent	Block3	congruent/STIM_025.jpg	100
3290.181	0.577	576.9	congruent	Block3	congruent/STIM_025.jpg	100
3293.793	0.944	944.0	congruent	Block3	congruent/STIM_025.jpg	100
3297.794	1.108	1107.7	congruent	Block3	congruent/STIM_025.jpg	99
3301.053	0.703	702.8	congruent	Block3	congruent/STIM_025.jpg	100
3303.757	0.674	673.7	congruent	Block3	congruent/STIM_026.jpg	99
3306.507	0.77	770.2	congruent	Block3	congruent/STIM_026.jpg	99
3310.258	0.956	955.7	congruent	Block3	congruent/STIM_026.jpg	100
3314.292	0.921	920.6	congruent	Block3	congruent/STIM_026.jpg	99
3317.703	0.613	612.9	congruent	Block3	congruent/STIM_026.jpg	99
3321.229	0.642	641.9	congruent	Block3	congruent/STIM_027.jpg	99
3325.521	0.89	890.4	congruent	Block3	congruent/STIM_027.jpg	99
3328.768	0.752	751.8	congruent	Block3	congruent/STIM_027.jpg	100
3332.879	0.755	754.6	congruent	Block3	congruent/STIM_027.jpg	99
3335.565	0.942	942.1	congruent	Block3	congruent/STIM_027.jpg	100
3338.989	0.945	945.3	congruent	Block3	congruent/STIM_028.jpg	99
3342.555	0.901	901.2	congruent	Block3	congruent/STIM_028.jpg	99
3345.569	1.041	1041.4	congruent	Block3	congruent/STIM_028.jpg	99
3349.491	0.706	706.2	congruent	Block3	congruent/STIM_028.jpg	99
3352.216	0.757	757.0	congruent	Block3	congruent/STIM_028.jpg	100
3356.187	0.688	687.7	congruent	Block3	congruent/STIM_029.jpg	100
3360.355	0.811	810.7	congruent	Block3	congruent/STIM_029.jpg	100
3363.451	0.794	793.8	congruent	Block3	congruent/STIM_029.jpg	100
3367.002	0.685	684.6	congruent	Block3	congruent/STIM_029.jpg	99
3370.551	0.672	671.9	congruent	Block3	congruent/STIM_029.jpg	99
