onset	duration	response_time_ms	trial_type	learning_stage	stimulus	response_port
0.0	0.928	927.5	2back	Block1	2back/STIM_000.jpg	100
4.763	0.773	772.8	2back	Block1	2back/STIM_000.jpg	100
9.204	0.808	808.1	2back	Block1	2back/STIM_000.jpg	100
13.153	0.765	765.2	2back	Block1	2back/STIM_001.jpg	99
16.154	0.985	985.0	2back	Block1	2back/STIM_001.jpg	99
20.148	0.65	649.6	2back	Block1	2back/STIM_001.jpg	99
23.705	0.574	573.7	2back	Block1	2back/STIM_002.jpg	99
27.4	0.512	511.9	2back	Block1	2back/STIM_002.jpg	99
30.587	0.842	841.7	2back	Block1	2back/STIM_002.jpg	99
33.822	0.592	592.4	2back	Block1	2back/STIM_003.jpg	99
38.289	0.935	935.0	2back	Block1	2back/STIM_003.jpg	99
42.248	0.638	638.2	2back	Block1	2back/STIM_003.jpg	100
45.359	0.838	838.5	2back	Block1	2back/STIM_004.jpg	100
49.487	0.601	601.4	2back	Block1	2back/STIM_004.jpg	100
52.267	1.071	1071.1	2back	Block1	2back/STIM_004.jpg	100
56.907	0.855	855.3	2back	Block1	2back/STIM_005.jpg	100
60.815	1.158	1158.5	2back	Block1	2back/STIM_005.jpg	99
65.412	1.065	1064.7	2back	Block1	2back/STIM_005.jpg	100
69.845	0.839	839.0	2back	Block1	2back/STIM_006.jpg	100
73.172	1.105	1105.1	2back	Block1	2back/STIM_006.jpg	99
77.932	0.788	788.2	2back	Block1	2back/STIM_006.jpg	100
82.465	0.695	694.8	2back	Block1	2back/STIM_007.jpg	100
85.242	0.797	797.0	2back	Block1	2back/STIM_007.jpg	99
88.404	0.98	980.2	2back	Block1	2back/STIM_007.jpg	100
91.744	0.772	771.5	2back	Block1	2back/STIM_008.jpg	100
94.555	1.102	1101.5	2back	Block1	2back/STIM_008.jpg	100
99.397	1.029	1028.9	2back	Block1	2back/STIM_008.jpg	99
104.203	0.906	905.7	2back	Block1	2back/STIM_009.jpg	100
107.923	0.663	663.4	2back	Block1	2back/STIM_009.jpg	100
112.468	0.516	515.7	2back	Block1	2back/STIM_009.jpg	99
115.703	0.888	887.9	2back	Block1	2back/STIM_010.jpg	99
119.989	0.509	509.1	2back	Block1	2back/STIM_010.jpg	99
124.123	0.723	723.2	2back	Block1	2back/STIM_010.jpg	100
126.956	0.8	800.5	2back	Block1	2back/STIM_011.jpg	99
130.51	0.876	875.9	2back	Block1	2back/STIM_011.jpg	99
134.786	0.978	978.0	2back	Block1	2back/STIM_011.jpg	99
139.443	0.97	969.7	2back	Block1	2back/STIM_012.jpg	99
142.51	1.095	1095.2	2back	Block1	2back/STIM_012.jpg	99
146.616	0.66	659.5	2back	Block1	2back/STIM_012.jpg	100
150.194	1.033	1032.6	2back	Block1	2back/STIM_013.jpg	100
153.588	1.006	1006.0	2back	Block1	2back/STIM_013.jpg	100
157.579	0.536	535.9	2back	Block1	2back/STIM_013.jpg	99
160.608	0.562	561.7	2back	Block1	2back/STIM_014.jpg	99
164.557	0.717	717.4	2back	Block1	2back/STIM_014.jpg	100
167.44	0.642	641.6	2back	Block1	2back/STIM_014.jpg	99
170.805	0.671	671.1	2back	Block1	2back/STIM_015.jpg	100
173.815	0.844	844.3	2back	Block1	2back/STIM_015.jpg	99
178.605	0.629	628.8	2back	Block1	2back/STIM_015.jpg	99
182.344	0.831	830.7	2back	Block1	2back/STIM_016.jpg	99
185.461	0.625	625.4	2back	Block1	2back/STIM_016.jpg	99
189.623	0.59	590.1	2back	Block1	2back/STIM_016.jpg	99
192.992	0.593	593.1	2back	Block1	2back/STIM_017.jpg	99
196.559	0.806	806.2	2back	Block1	2back/STIM_017.jpg	99
200.78	0.661	660.7	2back	Block1	2back/STIM_017.jpg	99
204.956	0.574	574.4	2back	Block1	2back/STIM_018.jpg	100
209.441	0.641	640.9	2back	Block1	2back/STIM_018.jpg	100
212.554	1.052	1052.3	2back	Block1	2back/STIM_018.jpg	99
215.898	0.71	709.5	2back	Block1	2back/STIM_019.jpg	100
219.231	0.904	903.7	2back	Block1	2back/STIM_019.jpg	99
223.629	0.489	489.2	2back	Block1	2back/STIM_019.jpg	99
226.382	1.112	1111.8	2back	Block1	2back/STIM_020.jpg	99
231.197	0.905	904.6	2back	Block1	2back/STIM_020.jpg	99
234.894	0.509	509.3	2back	Block1	2back/STIM_020.jpg	100
238.776	1.065	1064.9	2back	Block1	2back/STIM_021.jpg	99
242.703	0.883	882.7	2back	Block1	2back/STIM_021.jpg	99
246.857	0.582	581.9	2back	Block1	2back/STIM_021.jpg	99
249.812	0.658	658.3	2back	Block1	2back/STIM_022.jpg	99
254.409	0.653	652.9	2back	Block1	2back/STIM_022.jpg	100
257.19	0.763	763.1	2back	Block1	2back/STIM_022.jpg	99
261.551	0.867	867.0	2back	Block1	2back/STIM_023.jpg	99
264.669	0.98	980.3	2back	Block1	2back/STIM_023.jpg	100
269.565	0.66	660.4	2back	Block1	2back/STIM_023.jpg	100
272.608	0.662	662.0	2back	Block1	2back/STIM_024.jpg	100
276.04	0.995	995.0	2back	Block1	2back/STIM_024.jpg	99
280.839	0.716	715.5	2back	Block1	2back/STIM_024.jpg	100
285.163	0.753	752.9	2back	Block1	2back/STIM_025.jpg	99
288.463	0.958	957.9	2back	Block1	2back/STIM_025.jpg	100
293.233	0.803	802.8	2back	Block1	2back/STIM_025.jpg	100
296.968	0.555	555.2	2back	Block1	2back/STIM_026.jpg	99
300.176	1.007	1007.1	2back	Block1	2back/STIM_026.jpg	99
303.904	0.915	915.0	2back	Block1	2back/STIM_026.jpg	100
307.527	1.019	1018.9	2back	Block1	2back/STIM_027.jpg	100
312.459	0.838	837.6	2back	Block1	2back/STIM_027.jpg	100
316.593	0.475	475.0	2back	Block1	2back/STIM_027.jpg	99
320.873	0.558	558.2	2back	Block1	2back/STIM_028.jpg	99
325.117	0.728	727.5	2back	Block1	2back/STIM_028.jpg	100
328.672	0.769	768.9	2back	Block1	2back/STIM_028.jpg	99
332.658	1.054	1054.1	2back	Block1	2back/STIM_029.jpg	100
337.636	0.866	866.3	2back	Block1	2back/STIM_029.jpg	100
340.844	0.673	672.9	2back	Block1	2back/STIM_029.jpg	99
343.99	0.965	965.1	2back	Block1	2back/STIM_030.jpg	99
347.408	0.901	901.1	2back	Block1	2back/STIM_030.jpg	100
351.233	0.672	672.1	2back	Block1	2back/STIM_030.jpg	100
354.12	0.81	810.5	2back	Block1	2back/STIM_031.jpg	99
357.546	0.904	904.4	2back	Block1	2back/STIM_031.jpg	99
362.128	0.697	696.6	2back	Block1	2back/STIM_031.jpg	100
366.14	0.82	820.2	2back	Block1	2back/STIM_032.jpg	100
369.056	0.825	825.2	2back	Block1	2back/STIM_032.jpg	99
373.826	0.696	696.2	2back	Block1	2back/STIM_032.jpg	99
377.752	0.625	624.7	2back	Block1	2back/STIM_033.jpg	99
381.916	0.624	623.8	2back	Block1	2back/STIM_033.jpg	100
384.735	0.755	754.8	2back	Block1	2back/STIM_033.jpg	99
388.375	0.551	551.2	2back	Block1	2back/STIM_034.jpg	99
392.31	1.039	1039.3	2back	Block1	2back/STIM_034.jpg	100
397.082	0.76	760.0	2back	Block1	2back/STIM_034.jpg	100
401.535	0.614	614.0	2back	Block1	2back/STIM_035.jpg	100
404.448	0.585	585.2	2back	Block1	2back/STIM_035.jpg	100
408.709	0.692	692.0	2back	Block1	2back/STIM_035.jpg	100
413.329	0.946	945.5	2back	Block1	2back/STIM_036.jpg	99
417.983	0.724	724.4	2back	Block1	2back/STIM_036.jpg	99
422.012	0.721	721.0	2back	Block1	2back/STIM_036.jpg	99
425.206	0.797	796.7	2back	Block1	2back/STIM_037.jpg	99
428.274	0.995	994.9	2back	Block1	2back/STIM_037.jpg	99
432.364	0.807	806.8	2back	Block1	2back/STIM_037.jpg	99
437.11	1.224	1223.7	2back	Block1	2back/STIM_038.jpg	99
441.003	0.794	794.2	2back	Block1	2back/STIM_038.jpg	99
444.581	1.064	1064.5	2back	Block1	2back/STIM_038.jpg	99
448.599	1.084	1084.4	2back	Block1	2back/STIM_039.jpg	100
453.358	1.139	1139.0	2back	Block1	2back/STIM_039.jpg	99
457.71	0.923	922.7	2back	Block1	2back/STIM_039.jpg	99
461.393	0.573	573.1	0back	Block1	0back/STIM_000.jpg	99
464.433	0.475	475.1	0back	Block1	0back/STIM_000.jpg	99
468.401	0.446	445.6	0back	Block1	0back/STIM_000.jpg	99
470.866	0.567	566.7	0back	Block1	0back/STIM_001.jpg	100
474.56	0.461	461.1	0back	Block1	0back/STIM_001.jpg	99
478.531	0.357	357.1	0back	Block1	0back/STIM_001.jpg	100
482.751	0.616	616.1	0back	Block1	0back/STIM_002.jpg	99
486.953	0.534	534.3	0back	Block1	0back/STIM_002.jpg	99
490.624	0.587	587.1	0back	Block1	0back/STIM_002.jpg	99
495.132	0.611	611.2	0back	Block1	0back/STIM_003.jpg	99
499.709	0.595	594.8	0back	Block1	0back/STIM_003.jpg	100
502.412	0.64	640.4	0back	Block1	0back/STIM_003.jpg	99
505.949	0.525	524.7	0back	Block1	0back/STIM_004.jpg	100
510.203	0.404	404.3	0back	Block1	0back/STIM_004.jpg	99
513.649	0.461	460.7	0back	Block1	0back/STIM_004.jpg	99
518.06	0.394	393.8	0back	Block1	0back/STIM_005.jpg	100
520.484	0.686	686.5	0back	Block1	0back/STIM_005.jpg	100
524.971	0.519	518.7	0back	Block1	0back/STIM_005.jpg	99
527.684	0.679	678.8	0back	Block1	0back/STIM_006.jpg	100
531.59	0.477	476.8	0back	Block1	0back/STIM_006.jpg	100
534.947	0.642	641.7	0back	Block1	0back/STIM_006.jpg	99
538.884	0.632	632.5	0back	Block1	0back/STIM_007.jpg	100
543.126	0.509	509.0	0back	Block1	0back/STIM_007.jpg	100
546.702	0.686	685.5	0back	Block1	0back/STIM_007.jpg	99
551.134	0.668	668.1	0back	Block1	0back/STIM_008.jpg	99
555.067	0.505	504.8	0back	Block1	0back/STIM_008.jpg	100
559.121	0.43	430.3	0back	Block1	0back/STIM_008.jpg	99
562.45	0.433	433.3	0back	Block1	0back/STIM_009.jpg	100
566.334	0.64	640.5	0back	Block1	0back/STIM_009.jpg	100
570.089	0.386	386.4	0back	Block1	0back/STIM_009.jpg	100
573.228	0.499	498.7	0back	Block1	0back/STIM_010.jpg	99
576.038	0.635	634.7	0back	Block1	0back/STIM_010.jpg	100
579.908	0.448	448.5	0back	Block1	0back/STIM_010.jpg	100
583.158	0.439	438.8	0back	Block1	0back/STIM_011.jpg	99
586.998	0.417	416.8	0back	Block1	0back/STIM_011.jpg	99
590.498	0.667	667.0	0back	Block1	0back/STIM_011.jpg	100
594.456	0.496	496.3	0back	Block1	0back/STIM_012.jpg	99
598.103	0.493	493.2	0back	Block1	0back/STIM_012.jpg	99
601.625	0.534	534.5	0back	Block1	0back/STIM_012.jpg	99
604.769	0.511	510.7	0back	Block1	0back/STIM_013.jpg	99
607.919	0.581	581.4	0back	Block1	0back/STIM_013.jpg	99
611.248	0.675	674.6	0back	Block1	0back/STIM_013.jpg	99
614.455	0.629	629.4	0back	Block1	0back/STIM_014.jpg	99
617.351	0.587	586.7	0back	Block1	0back/STIM_014.jpg	99
621.429	0.477	476.7	0back	Block1	0back/STIM_014.jpg	99
624.747	0.587	586.7	0back	Block1	0back/STIM_015.jpg	99
627.451	0.365	365.3	0back	Block1	0back/STIM_015.jpg	99
630.818	0.378	378.1	0back	Block1	0back/STIM_015.jpg	100
634.157	0.353	353.3	0back	Block1	0back/STIM_016.jpg	100
636.671	0.582	581.6	0back	Block1	0back/STIM_016.jpg	99
640.582	0.547	546.8	0back	Block1	0back/STIM_016.jpg	100
643.669	0.448	447.5	0back	Block1	0back/STIM_017.jpg	99
646.702	0.508	508.1	0back	Block1	0back/STIM_017.jpg	99
650.423	0.375	374.8	0back	Block1	0back/STIM_017.jpg	99
653.345	0.494	493.5	0back	Block1	0back/STIM_018.jpg	99
655.909	0.562	562.0	0back	Block1	0back/STIM_018.jpg	100
659.964	0.675	674.6	0back	Block1	0back/STIM_018.jpg	99
663.456	0.678	678.2	0back	Block1	0back/STIM_019.jpg	100
666.197	0.655	654.7	0back	Block1	0back/STIM_019.jpg	99
670.584	0.599	598.9	0back	Block1	0back/STIM_019.jpg	99
674.369	0.651	651.4	2back	Block2	2back/STIM_000.jpg	99
678.476	0.551	551.4	2back	Block2	2back/STIM_000.jpg	100
682.988	0.558	558.5	2back	Block2	2back/STIM_000.jpg	99
687.113	0.679	678.8	2back	Block2	2back/STIM_001.jpg	100
689.806	0.489	488.7	2back	Block2	2back/STIM_001.jpg	99
692.925	0.907	906.9	2back	Block2	2back/STIM_001.jpg	99
696.932	0.941	940.8	2back	Block2	2back/STIM_002.jpg	99
700.806	0.596	595.5	2back	Block2	2back/STIM_002.jpg	99
704.457	0.569	569.4	2back	Block2	2back/STIM_002.jpg	100
708.17	0.463	463.3	2back	Block2	2back/STIM_003.jpg	100
710.9	0.937	936.7	2back	Block2	2back/STIM_003.jpg	100
714.496	0.8	800.4	2back	Block2	2back/STIM_003.jpg	99
719.226	0.809	809.1	2back	Block2	2back/STIM_004.jpg	100
723.484	0.759	759.3	2back	Block2	2back/STIM_004.jpg	100
727.523	0.877	877.0	2back	Block2	2back/STIM_004.jpg	100
732.247	0.488	488.2	2back	Block2	2back/STIM_005.jpg	99
736.046	0.749	749.3	2back	Block2	2back/STIM_005.jpg	99
738.857	0.732	731.9	2back	Block2	2back/STIM_005.jpg	99
742.709	0.511	510.6	2back	Block2	2back/STIM_006.jpg	100
746.839	0.653	652.7	2back	Block2	2back/STIM_006.jpg	100
751.096	0.812	812.2	2back	Block2	2back/STIM_006.jpg	99
754.015	0.457	457.1	2back	Block2	2back/STIM_007.jpg	99
757.965	0.74	740.4	2back	Block2	2back/STIM_007.jpg	99
762.085	0.516	515.5	2back	Block2	2back/STIM_007.jpg	99
764.641	0.995	994.6	2back	Block2	2back/STIM_008.jpg	99
767.818	0.627	627.1	2back	Block2	2back/STIM_008.jpg	100
771.885	0.434	433.7	2back	Block2	2back/STIM_008.jpg	100
775.734	0.854	853.9	2back	Block2	2back/STIM_009.jpg	99
779.962	0.751	751.4	2back	Block2	2back/STIM_009.jpg	99
783.094	0.485	484.7	2back	Block2	2back/STIM_009.jpg	99
786.015	0.79	790.2	2back	Block2	2back/STIM_010.jpg	99
789.264	0.483	482.9	2back	Block2	2back/STIM_010.jpg	99
792.236	0.587	586.6	2back	Block2	2back/STIM_010.jpg	99
796.747	0.767	766.9	2back	Block2	2back/STIM_011.jpg	99
801.286	0.697	697.0	2back	Block2	2back/STIM_011.jpg	99
805.628	0.547	546.8	2back	Block2	2back/STIM_011.jpg	100
808.262	0.707	707.4	2back	Block2	2back/STIM_012.jpg	100
811.937	0.819	819.1	2back	Block2	2back/STIM_012.jpg	99
816.007	0.608	608.3	2back	Block2	2back/STIM_012.jpg	99
819.062	0.713	712.7	2back	Block2	2back/STIM_013.jpg	99
823.288	0.553	553.2	2back	Block2	2back/STIM_013.jpg	100
827.387	0.661	660.9	2back	Block2	2back/STIM_013.jpg	100
830.824	0.605	605.4	2back	Block2	2back/STIM_014.jpg	99
834.007	0.899	899.0	2back	Block2	2back/STIM_014.jpg	100
837.352	0.688	687.9	2back	Block2	2back/STIM_014.jpg	100
840.563	0.646	646.0	2back	Block2	2back/STIM_015.jpg	99
844.701	0.52	520.0	2back	Block2	2back/STIM_015.jpg	100
847.675	0.748	747.7	2back	Block2	2back/STIM_015.jpg	100
851.491	0.785	784.6	2back	Block2	2back/STIM_016.jpg	99
854.707	0.911	911.0	2back	Block2	2back/STIM_016.jpg	99
858.108	0.863	863.2	2back	Block2	2back/STIM_016.jpg	100
862.188	0.672	672.4	2back	Block2	2back/STIM_017.jpg	99
865.755	0.857	856.7	2back	Block2	2back/STIM_017.jpg	100
870.333	0.49	490.4	2back	Block2	2back/STIM_017.jpg	99
873.358	0.946	946.0	2back	Block2	2back/STIM_018.jpg	99
876.329	0.536	536.0	2back	Block2	2back/STIM_018.jpg	100
879.24	0.405	405.1	2back	Block2	2back/STIM_018.jpg	100
883.128	0.987	987.3	2back	Block2	2back/STIM_019.jpg	99
886.934	0.789	789.1	2back	Block2	2back/STIM_019.jpg	99
891.197	0.465	465.3	2back	Block2	2back/STIM_019.jpg	99
895.041	0.749	749.0	2back	Block2	2back/STIM_020.jpg	100
898.01	0.98	980.0	2back	Block2	2back/STIM_020.jpg	99
902.4	0.569	569.2	2back	Block2	2back/STIM_020.jpg	99
906.116	0.612	611.6	2back	Block2	2back/STIM_021.jpg	99
909.09	0.876	876.1	2back	Block2	2back/STIM_021.jpg	99
912.34	0.526	525.5	2back	Block2	2back/STIM_021.jpg	100
915.291	0.755	754.8	2back	Block2	2back/STIM_022.jpg	99
919.029	0.666	666.1	2back	Block2	2back/STIM_022.jpg	99
922.03	0.771	771.1	2back	Block2	2back/STIM_022.jpg	100
925.671	1.016	1016.0	2back	Block2	2back/STIM_023.jpg	99
928.912	0.538	538.4	2back	Block2	2back/STIM_023.jpg	100
933.38	0.835	835.0	2back	Block2	2back/STIM_023.jpg	100
936.254	0.568	568.5	2back	Block2	2back/STIM_024.jpg	99
940.435	0.688	687.9	2back	Block2	2back/STIM_024.jpg	99
943.763	0.609	608.9	2back	Block2	2back/STIM_024.jpg	100
947.41	0.702	702.5	2back	Block2	2back/STIM_025.jpg	99
952.086	0.898	898.1	2back	Block2	2back/STIM_025.jpg	100
956.267	0.603	603.2	2back	Block2	2back/STIM_025.jpg	99
959.519	0.765	764.7	2back	Block2	2back/STIM_026.jpg	100
962.978	0.654	653.8	2back	Block2	2back/STIM_026.jpg	100
966.85	0.629	629.4	2back	Block2	2back/STIM_026.jpg	99
970.766	0.596	595.7	2back	Block2	2back/STIM_027.jpg	100
974.948	0.584	583.6	2back	Block2	2back/STIM_027.jpg	100
977.554	0.895	895.2	2back	Block2	2back/STIM_027.jpg	100
981.078	0.862	862.5	2back	Block2	2back/STIM_028.jpg	100
984.995	0.883	882.6	2back	Block2	2back/STIM_028.jpg	99
987.881	0.556	556.4	2back	Block2	2back/STIM_028.jpg	99
991.726	0.497	497.3	2back	Block2	2back/STIM_029.jpg	99
994.646	0.803	803.3	2back	Block2	2back/STIM_029.jpg	99
998.802	0.536	536.2	2back	Block2	2back/STIM_029.jpg	100
1002.25	0.669	668.7	2back	Block2	2back/STIM_030.jpg	100
1006.757	0.796	796.4	2back	Block2	2back/STIM_030.jpg	99
1009.824	0.784	784.3	2back	Block2	2back/STIM_030.jpg	100
1014.078	0.496	496.1	2back	Block2	2back/STIM_031.jpg	100
1016.91	0.554	553.5	2back	Block2	2back/STIM_031.jpg	99
1019.77	0.801	801.3	2back	Block2	2back/STIM_031.jpg	99
1024.563	0.834	834.3	2back	Block2	2back/STIM_032.jpg	99
1029.268	0.886	886.4	2back	Block2	2back/STIM_032.jpg	100
1033.309	0.558	557.9	2back	Block2	2back/STIM_032.jpg	100
1037.389	0.476	475.9	2back	Block2	2back/STIM_033.jpg	100
1040.933	0.902	901.7	2back	Block2	2back/STIM_033.jpg	99
1044.698	0.402	401.5	2back	Block2	2back/STIM_033.jpg	100
1047.828	0.903	903.2	2back	Block2	2back/STIM_034.jpg	99
1051.361	0.859	858.6	2back	Block2	2back/STIM_034.jpg	99
1055.785	0.494	493.8	2back	Block2	2back/STIM_034.jpg	99
1059.066	0.896	895.8	2back	Block2	2back/STIM_035.jpg	100
1062.585	0.962	962.1	2back	Block2	2back/STIM_035.jpg	100
1066.204	0.801	801.1	2back	Block2	2back/STIM_035.jpg	99
1069.268	0.975	974.6	2back	Block2	2back/STIM_036.jpg	99
1074.126	0.645	645.1	2back	Block2	2back/STIM_036.jpg	99
1077.651	0.815	815.0	2back	Block2	2back/STIM_036.jpg	100
1081.429	0.967	967.0	2back	Block2	2back/STIM_037.jpg	100
1085.014	0.538	538.1	2back	Block2	2back/STIM_037.jpg	100
1089.372	0.722	722.5	2back	Block2	2back/STIM_037.jpg	99
1092.429	0.978	977.6	2back	Block2	2back/STIM_038.jpg	99
1096.968	0.856	855.6	2back	Block2	2back/STIM_038.jpg	100
1100.709	0.618	617.8	2back	Block2	2back/STIM_038.jpg	99
1104.942	0.512	511.9	2back	Block2	2back/STIM_039.jpg	99
1108.259	0.587	586.6	2back	Block2	2back/STIM_039.jpg	99
1112.572	0.541	540.8	2back	Block2	2back/STIM_039.jpg	99
1115.961	0.53	530.1	0back	Block2	0back/STIM_000.jpg	100
1118.796	0.377	377.3	0back	Block2	0back/STIM_000.jpg	99
1122.056	0.602	602.5	0back	Block2	0back/STIM_000.jpg	99
1126.639	0.589	588.7	0back	Block2	0back/STIM_001.jpg	100
1130.589	0.435	435.4	0back	Block2	0back/STIM_001.jpg	99
1133.039	0.63	630.5	0back	Block2	0back/STIM_001.jpg	99
1136.27	0.36	360.2	0back	Block2	0back/STIM_002.jpg	99
1138.632	0.508	508.0	0back	Block2	0back/STIM_002.jpg	100
1142.207	0.648	648.1	0back	Block2	0back/STIM_002.jpg	99
1145.256	0.567	566.6	0back	Block2	0back/STIM_003.jpg	99
1149.672	0.465	464.8	0back	Block2	0back/STIM_003.jpg	100
1154.084	0.359	359.2	0back	Block2	0back/STIM_003.jpg	99
1156.727	0.381	380.8	0back	Block2	0back/STIM_004.jpg	100
1160.166	0.52	520.5	0back	Block2	0back/STIM_004.jpg	99
1163.857	0.587	586.9	0back	Block2	0back/STIM_004.jpg	100
1166.825	0.659	658.6	0back	Block2	0back/STIM_005.jpg	99
1170.775	0.63	629.9	0back	Block2	0back/STIM_005.jpg	99
1174.113	0.488	488.3	0back	Block2	0back/STIM_005.jpg	99
1177.32	0.629	629.0	0back	Block2	0back/STIM_006.jpg	99
1181.441	0.469	469.2	0back	Block2	0back/STIM_006.jpg	99
1184.02	0.462	461.9	0back	Block2	0back/STIM_006.jpg	99
1188.097	0.548	548.2	0back	Block2	0back/STIM_007.jpg	99
1190.972	0.554	553.8	0back	Block2	0back/STIM_007.jpg	99
1195.179	0.619	619.1	0back	Block2	0back/STIM_007.jpg	100
1198.223	0.394	394.4	0back	Block2	0back/STIM_008.jpg	100
1202.595	0.372	371.9	0back	Block2	0back/STIM_008.jpg	100
1206.382	0.654	653.7	0back	Block2	0back/STIM_008.jpg	99
1209.076	0.539	539.2	0back	Block2	0back/STIM_009.jpg	99
1213.205	0.546	546.3	0back	Block2	0back/STIM_009.jpg	99
1216.257	0.58	579.6	0back	Block2	0back/STIM_009.jpg	99
1220.272	0.631	630.7	0back	Block2	0back/STIM_010.jpg	99
1223.285	0.482	481.9	0back	Block2	0back/STIM_010.jpg	99
1227.668	0.666	665.9	0back	Block2	0back/STIM_010.jpg	100
1231.972	0.609	609.2	0back	Block2	0back/STIM_011.jpg	100
1235.164	0.641	641.4	0back	Block2	0back/STIM_011.jpg	100
1239.266	0.613	612.7	0back	Block2	0back/STIM_011.jpg	99
1243.295	0.701	700.7	0back	Block2	0back/STIM_012.jpg	99
1246.44	0.642	642.4	0back	Block2	0back/STIM_012.jpg	100
1249.548	0.436	435.6	0back	Block2	0back/STIM_012.jpg	100
1252.463	0.617	616.7	0back	Block2	0back/STIM_013.jpg	99
1256.26	0.598	598.4	0back	Block2	0back/STIM_013.jpg	100
1259.319	0.657	656.9	0back	Block2	0back/STIM_013.jpg	99
1262.548	0.646	646.3	0back	Block2	0back/STIM_014.jpg	99
1266.99	0.642	642.1	0back	Block2	0back/STIM_014.jpg	99
1270.735	0.594	594.1	0back	Block2	0back/STIM_014.jpg	100
1274.651	0.478	477.8	0back	Block2	0back/STIM_015.jpg	100
1278.217	0.674	673.5	0back	Block2	0back/STIM_015.jpg	100
1282.394	0.655	655.0	0back	Block2	0back/STIM_015.jpg	100
1285.64	0.687	687.1	0back	Block2	0back/STIM_016.jpg	99
1289.211	0.467	467.2	0back	Block2	0back/STIM_016.jpg	100
1292.414	0.419	418.8	0back	Block2	0back/STIM_016.jpg	100
1295.511	0.564	564.0	0back	Block2	0back/STIM_017.jpg	99
1298.208	0.686	686.4	0back	Block2	0back/STIM_017.jpg	100
1301.284	0.563	563.4	0back	Block2	0back/STIM_017.jpg	100
1304.307	0.423	423.2	0back	Block2	0back/STIM_018.jpg	100
1308.495	0.476	476.4	0back	Block2	0back/STIM_018.jpg	99
1311.953	0.53	530.0	0back	Block2	0back/STIM_018.jpg	100
1316.374	0.57	569.5	0back	Block2	0back/STIM_019.jpg	99
1320.224	0.452	452.4	0back	Block2	0back/STIM_019.jpg	100
1324.071	0.408	407.7	0back	Block2	0back/STIM_019.jpg	100
1327.622	0.721	720.6	2back	Block3	2back/STIM_000.jpg	100
1331.826	0.589	588.9	2back	Block3	2back/STIM_000.jpg	99
1336.011	0.518	518.0	2back	Block3	2back/STIM_000.jpg	99
1339.808	0.484	484.5	2back	Block3	2back/STIM_001.jpg	100
1343.686	0.608	608.4	2back	Block3	2back/STIM_001.jpg	99
1346.8	0.846	846.2	2back	Block3	2back/STIM_001.jpg	100
1349.774	0.759	758.6	2back	Block3	2back/STIM_002.jpg	100
1353.081	0.761	761.2	2back	Block3	2back/STIM_002.jpg	100
1357.735	0.597	597.2	2back	Block3	2back/STIM_002.jpg	99
1362.15	0.496	495.6	2back	Block3	2back/STIM_003.jpg	99
1366.039	0.554	553.7	2back	Block3	2back/STIM_003.jpg	99
1368.944	0.491	491.0	2back	Block3	2back/STIM_003.jpg	100
1373.176	0.73	730.5	2back	Block3	2back/STIM_004.jpg	100
1377.582	0.4	400.4	2back	Block3	2back/STIM_004.jpg	99
1380.478	0.73	730.5	2back	Block3	2back/STIM_004.jpg	99
1383.582	0.411	411.3	2back	Block3	2back/STIM_005.jpg	99
1386.256	0.789	789.4	2back	Block3	2back/STIM_005.jpg	99
1390.302	0.75	749.8	2back	Block3	2back/STIM_005.jpg	100
1393.409	0.671	671.0	2back	Block3	2back/STIM_006.jpg	99
1398.075	0.374	374.3	2back	Block3	2back/STIM_006.jpg	100
1400.463	0.748	748.5	2back	Block3	2back/STIM_006.jpg	99
1403.495	0.585	584.8	2back	Block3	2back/STIM_007.jpg	99
1406.085	0.638	637.9	2back	Block3	2back/STIM_007.jpg	99
1410.318	0.605	605.4	2back	Block3	2back/STIM_007.jpg	100
1413.682	0.552	552.0	2back	Block3	2back/STIM_008.jpg	100
1418.221	0.498	498.2	2back	Block3	2back/STIM_008.jpg	100
1422.164	0.744	743.6	2back	Block3	2back/STIM_008.jpg	100
1425.863	0.602	602.3	2back	Block3	2back/STIM_009.jpg	100
1429.413	0.644	644.3	2back	Block3	2back/STIM_009.jpg	99
1433.47	0.488	488.5	2back	Block3	2back/STIM_009.jpg	100
1437.895	0.496	495.7	2back	Block3	2back/STIM_010.jpg	99
1441.9	0.6	600.1	2back	Block3	2back/STIM_010.jpg	100
1446.028	0.38	379.6	2back	Block3	2back/STIM_010.jpg	100
1449.138	0.728	728.1	2back	Block3	2back/STIM_011.jpg	99
1453.726	0.64	640.2	2back	Block3	2back/STIM_011.jpg	100
1457.589	0.527	526.8	2back	Block3	2back/STIM_011.jpg	99
1460.775	0.507	507.2	2back	Block3	2back/STIM_012.jpg	100
1463.852	0.803	802.6	2back	Block3	2back/STIM_012.jpg	99
1467.908	0.698	698.0	2back	Block3	2back/STIM_012.jpg	100
1471.186	0.59	589.8	2back	Block3	2back/STIM_013.jpg	100
1475.164	0.598	598.3	2back	Block3	2back/STIM_013.jpg	99
1478.976	0.665	665.1	2back	Block3	2back/STIM_013.jpg	99
1483.231	0.769	769.2	2back	Block3	2back/STIM_014.jpg	99
1487.663	0.66	660.4	2back	Block3	2back/STIM_014.jpg	99
1491.327	0.584	584.4	2back	Block3	2back/STIM_014.jpg	99
1494.432	0.815	814.9	2back	Block3	2back/STIM_015.jpg	99
1497.81	0.444	443.6	2back	Block3	2back/STIM_015.jpg	99
1502.107	0.567	567.3	2back	Block3	2back/STIM_015.jpg	100
1506.115	0.593	592.9	2back	Block3	2back/STIM_016.jpg	99
1509.241	0.462	461.8	2back	Block3	2back/STIM_016.jpg	99
1513.657	0.795	795.4	2back	Block3	2back/STIM_016.jpg	99
1517.978	0.651	650.9	2back	Block3	2back/STIM_017.jpg	100
1521.484	0.722	722.1	2back	Block3	2back/STIM_017.jpg	100
1525.029	0.492	492.0	2back	Block3	2back/STIM_017.jpg	99
1529.322	0.772	772.5	2back	Block3	2back/STIM_018.jpg	100
1533.172	0.489	488.9	2back	Block3	2back/STIM_018.jpg	99
1536.722	0.552	552.5	2back	Block3	2back/STIM_018.jpg	100
1539.445	0.565	565.4	2back	Block3	2back/STIM_019.jpg	100
1543.249	0.548	548.4	2back	Block3	2back/STIM_019.jpg	100
1547.39	0.64	640.1	2back	Block3	2back/STIM_019.jpg	99
1551.892	0.51	509.9	2back	Block3	2back/STIM_020.jpg	100
1554.549	0.824	823.7	2back	Block3	2back/STIM_020.jpg	99
1557.798	0.65	649.7	2back	Block3	2back/STIM_020.jpg	100
1560.881	0.589	589.0	2back	Block3	2back/STIM_021.jpg	100
1564.748	0.49	489.6	2back	Block3	2back/STIM_021.jpg	99
1567.997	0.809	808.8	2back	Block3	2back/STIM_021.jpg	99
1570.938	0.378	378.2	2back	Block3	2back/STIM_022.jpg	99
1575.261	0.525	525.3	2back	Block3	2back/STIM_022.jpg	99
1578.303	0.564	563.8	2back	Block3	2back/STIM_022.jpg	99
1581.924	0.648	647.6	2back	Block3	2back/STIM_023.jpg	99
1586.449	0.471	470.6	2back	Block3	2back/STIM_023.jpg	100
1589.338	0.553	553.2	2back	Block3	2back/STIM_023.jpg	100
1593.326	0.7	700.3	2back	Block3	2back/STIM_024.jpg	100
1597.377	0.771	771.2	2back	Block3	2back/STIM_024.jpg	99
1601.871	0.577	576.7	2back	Block3	2back/STIM_024.jpg	100
1605.412	0.558	558.3	2back	Block3	2back/STIM_025.jpg	99
1608.762	0.793	792.9	2back	Block3	2back/STIM_025.jpg	99
1613.551	0.71	710.0	2back	Block3	2back/STIM_025.jpg	100
1617.077	0.563	563.2	2back	Block3	2back/STIM_026.jpg	100
1620.782	0.602	601.7	2back	Block3	2back/STIM_026.jpg	100
1624.967	0.407	407.1	2back	Block3	2back/STIM_026.jpg	100
1629.085	0.471	470.7	2back	Block3	2back/STIM_027.jpg	100
1632.608	0.541	541.2	2back	Block3	2back/STIM_027.jpg	100
1636.662	0.425	425.0	2back	Block3	2back/STIM_027.jpg	100
1640.805	0.778	777.6	2back	Block3	2back/STIM_028.jpg	99
1643.987	0.423	423.2	2back	Block3	2back/STIM_028.jpg	100
1647.573	0.497	497.3	2back	Block3	2back/STIM_028.jpg	99
1651.902	0.857	856.8	2back	Block3	2back/STIM_029.jpg	99
1655.232	0.814	814.0	2back	Block3	2back/STIM_029.jpg	99
1658.846	0.566	566.4	2back	Block3	2back/STIM_029.jpg	99
1663.307	0.698	697.9	2back	Block3	2back/STIM_030.jpg	100
1667.493	0.579	579.4	2back	Block3	2back/STIM_030.jpg	99
1672.072	0.554	553.9	2back	Block3	2back/STIM_030.jpg	99
1676.054	0.52	520.1	2back	Block3	2back/STIM_031.jpg	100
1679.357	0.639	639.1	2back	Block3	2back/STIM_031.jpg	99
1683.94	0.416	416.5	2back	Block3	2back/STIM_031.jpg	100
1686.484	0.741	741.3	2back	Block3	2back/STIM_032.jpg	99
1689.665	0.633	632.8	2back	Block3	2back/STIM_032.jpg	99
1693.865	0.747	747.0	2back	Block3	2back/STIM_032.jpg	99
1698.451	0.599	599.4	2back	Block3	2back/STIM_033.jpg	100
1702.631	0.483	483.3	2back	Block3	2back/STIM_033.jpg	100
1706.767	0.538	538.3	2back	Block3	2back/STIM_033.jpg	100
1710.225	0.433	433.0	2back	Block3	2back/STIM_034.jpg	99
1713.922	0.826	825.5	2back	Block3	2back/STIM_034.jpg	100
1717.769	0.597	597.2	2back	Block3	2back/STIM_034.jpg	99
1721.977	0.435	435.4	2back	Block3	2back/STIM_035.jpg	99
1726.25	0.49	489.8	2back	Block3	2back/STIM_035.jpg	99
1729.032	0.639	638.6	2back	Block3	2back/STIM_035.jpg	99
1731.852	0.496	496.2	2back	Block3	2back/STIM_036.jpg	99
1734.991	0.476	475.9	2back	Block3	2back/STIM_036.jpg	99
1739.408	0.493	493.1	2back	Block3	2back/STIM_036.jpg	100
1742.739	0.673	673.1	2back	Block3	2back/STIM_037.jpg	100
1746.519	0.729	728.7	2back	Block3	2back/STIM_037.jpg	99
1750.18	0.467	467.4	2back	Block3	2back/STIM_037.jpg	100
1754.246	0.552	552.1	2back	Block3	2back/STIM_038.jpg	99
1757.157	0.582	582.0	2back	Block3	2back/STIM_038.jpg	99
1760.468	0.5	500.5	2back	Block3	2back/STIM_038.jpg	99
1764.254	0.743	743.1	2back	Block3	2back/STIM_039.jpg	100
1768.035	0.786	785.9	2back	Block3	2back/STIM_039.jpg	100
1770.942	0.39	389.9	2back	Block3	2back/STIM_039.jpg	99
1774.637	0.668	667.6	0back	Block3	0back/STIM_000.jpg	99
1778.989	0.632	632.2	0back	Block3	0back/STIM_000.jpg	99
1781.922	0.367	367.1	0back	Block3	0back/STIM_000.jpg	99
1785.06	0.645	645.4	0back	Block3	0back/STIM_001.jpg	100
1788.524	0.616	616.2	0back	Block3	0back/STIM_001.jpg	99
1791.788	0.445	445.2	0back	Block3	0back/STIM_001.jpg	100
1795.117	0.368	368.5	0back	Block3	0back/STIM_002.jpg	99
1797.724	0.665	665.2	0back	Block3	0back/STIM_002.jpg	99
1801.424	0.393	392.9	0back	Block3	0back/STIM_002.jpg	99
1803.834	0.614	614.0	0back	Block3	0back/STIM_003.jpg	99
1806.505	0.566	566.0	0back	Block3	0back/STIM_003.jpg	99
1809.611	0.415	415.4	0back	Block3	0back/STIM_003.jpg	100
1813.001	0.433	432.9	0back	Block3	0back/STIM_004.jpg	100
1816.327	0.605	604.8	0back	Block3	0back/STIM_004.jpg	100
1819.647	0.521	521.2	0back	Block3	0back/STIM_004.jpg	100
1823.213	0.696	695.9	0back	Block3	0back/STIM_005.jpg	100
1826.542	0.624	624.4	0back	Block3	0back/STIM_005.jpg	100
1830.305	0.579	578.6	0back	Block3	0back/STIM_005.jpg	100
1833.617	0.506	506.2	0back	Block3	0back/STIM_006.jpg	99
1836.644	0.365	365.4	0back	Block3	0back/STIM_006.jpg	99
1839.675	0.586	586.2	0back	Block3	0back/STIM_006.jpg	99
1844.059	0.46	460.0	0back	Block3	0back/STIM_007.jpg	99
1847.987	0.514	514.4	0back	Block3	0back/STIM_007.jpg	99
1850.524	0.466	465.5	0back	Block3	0back/STIM_007.jpg	99
1854.688	0.696	695.7	0back	Block3	0back/STIM_008.jpg	99
1858.996	0.539	538.8	0back	Block3	0back/STIM_008.jpg	99
1862.633	0.488	487.5	0back	Block3	0back/STIM_008.jpg	99
1866.414	0.42	420.4	0back	Block3	0back/STIM_009.jpg	99
1868.997	0.432	432.0	0back	Block3	0back/STIM_009.jpg	99
1871.531	0.416	415.7	0back	Block3	0back/STIM_009.jpg	100
1875.507	0.47	469.8	0back	Block3	0back/STIM_010.jpg	100
1879.736	0.593	592.6	0back	Block3	0back/STIM_010.jpg	99
1883.192	0.389	389.1	0back	Block3	0back/STIM_010.jpg	100
1886.191	0.511	510.6	0back	Block3	0back/STIM_011.jpg	99
1890.492	0.491	490.8	0back	Block3	0back/STIM_011.jpg	99
1893.466	0.513	513.4	0back	Block3	0back/STIM_011.jpg	99
1897.8	0.4	399.5	0back	Block3	0back/STIM_012.jpg	99
1900.453	0.527	527.1	0back	Block3	0back/STIM_012.jpg	100
1904.239	0.402	402.4	0back	Block3	0back/STIM_012.jpg	100
1907.409	0.541	541.2	0back	Block3	0back/STIM_013.jpg	100
1909.973	0.595	595.0	0back	Block3	0back/STIM_013.jpg	100
1913.922	0.351	351.2	0back	Block3	0back/STIM_013.jpg	100
1917.927	0.367	366.9	0back	Block3	0back/STIM_014.jpg	99
1922.159	0.413	413.2	0back	Block3	0back/STIM_014.jpg	99
1925.727	0.538	537.5	0back	Block3	0back/STIM_014.jpg	100
1930.187	0.624	623.5	0back	Block3	0back/STIM_015.jpg	100
1934.803	0.634	634.1	0back	Block3	0back/STIM_015.jpg	100
1938.338	0.553	553.2	0back	Block3	0back/STIM_015.jpg	99
1942.091	0.4	400.5	0back	Block3	0back/STIM_016.jpg	100
1946.319	0.475	474.9	0back	Block3	0back/STIM_016.jpg	100
1949.98	0.477	476.9	0back	Block3	0back/STIM_016.jpg	100
1953.836	0.404	403.9	0back	Block3	0back/STIM_017.jpg	100
1958.103	0.367	367.0	0back	Block3	0back/STIM_017.jpg	99
1960.616	0.655	655.0	0back	Block3	0back/STIM_017.jpg	100
1963.983	0.694	694.1	0back	Block3	0back/STIM_018.jpg	99
1967.915	0.518	518.4	0back	Block3	0back/STIM_018.jpg	100
1971.024	0.535	534.7	0back	Block3	0back/STIM_018.jpg	100
1973.598	0.632	632.1	0back	Block3	0back/STIM_019.jpg	99
1977.119	0.552	552.4	0back	Block3	0back/STIM_019.jpg	99
1979.684	0.537	537.4	0back	Block3	0back/STIM_019.jpg	100
1983.87	0.852	852.3	2back	Block4	2back/STIM_000.jpg	100
1987.488	0.611	611.2	2back	Block4	2back/STIM_000.jpg	100
1991.76	0.549	549.2	2back	Block4	2back/STIM_000.jpg	100
1996.275	0.532	532.0	2back	Block4	2back/STIM_001.jpg	99
1999.625	0.42	419.9	2back	Block4	2back/STIM_001.jpg	99
2002.229	0.541	540.6	2back	Block4	2back/STIM_001.jpg	99
2005.566	0.626	625.7	2back	Block4	2back/STIM_002.jpg	99
2008.482	0.856	856.2	2back	Block4	2back/STIM_002.jpg	100
2011.678	0.477	476.7	2back	Block4	2back/STIM_002.jpg	100
2014.759	0.609	609.2	2back	Block4	2back/STIM_003.jpg	99
2018.4	0.61	609.6	2back	Block4	2back/STIM_003.jpg	99
2022.653	0.475	475.3	2back	Block4	2back/STIM_003.jpg	99
2026.213	0.6	600.3	2back	Block4	2back/STIM_004.jpg	100
2030.73	0.717	716.8	2back	Block4	2back/STIM_004.jpg	99
2034.503	0.626	626.0	2back	Block4	2back/STIM_004.jpg	100
2038.493	0.417	417.3	2back	Block4	2back/STIM_005.jpg	99
2041.747	0.396	395.6	2back	Block4	2back/STIM_005.jpg	100
2046.001	0.843	843.0	2back	Block4	2back/STIM_005.jpg	100
2049.786	0.677	676.9	2back	Block4	2back/STIM_006.jpg	100
2052.897	0.383	382.7	2back	Block4	2back/STIM_006.jpg	100
2055.731	0.468	467.9	2back	Block4	2back/STIM_006.jpg	99
2058.791	0.604	603.8	2back	Block4	2back/STIM_007.jpg	100
2063.131	0.381	381.3	2back	Block4	2back/STIM_007.jpg	99
2066.646	0.599	599.3	2back	Block4	2back/STIM_007.jpg	100
2070.873	0.766	765.7	2back	Block4	2back/STIM_008.jpg	99
2074.069	0.585	585.0	2back	Block4	2back/STIM_008.jpg	100
2078.645	0.741	741.3	2back	Block4	2back/STIM_008.jpg	99
2082.758	0.455	454.9	2back	Block4	2back/STIM_009.jpg	100
2087.08	0.757	757.0	2back	Block4	2back/STIM_009.jpg	100
2090.757	0.6	599.5	2back	Block4	2back/STIM_009.jpg	100
2094.084	0.575	575.3	2back	Block4	2back/STIM_010.jpg	100
2096.815	0.411	411.2	2back	Block4	2back/STIM_010.jpg	100
2100.253	0.628	628.5	2back	Block4	2back/STIM_010.jpg	100
2103.655	0.48	480.0	2back	Block4	2back/STIM_011.jpg	99
2107.683	0.513	513.3	2back	Block4	2back/STIM_011.jpg	99
2110.86	0.503	503.1	2back	Block4	2back/STIM_011.jpg	99
2114.07	0.406	406.4	2back	Block4	2back/STIM_012.jpg	99
2116.751	0.857	857.1	2back	Block4	2back/STIM_012.jpg	99
2121.211	0.712	711.5	2back	Block4	2back/STIM_012.jpg	100
2124.341	0.685	685.4	2back	Block4	2back/STIM_013.jpg	99
2127.135	0.657	657.0	2back	Block4	2back/STIM_013.jpg	100
2131.681	0.854	854.2	2back	Block4	2back/STIM_013.jpg	100
2136.067	0.723	722.6	2back	Block4	2back/STIM_014.jpg	99
2140.743	0.463	462.6	2back	Block4	2back/STIM_014.jpg	99
2143.568	0.727	726.6	2back	Block4	2back/STIM_014.jpg	99
2146.496	0.619	619.1	2back	Block4	2back/STIM_015.jpg	99
2150.4	0.836	836.2	2back	Block4	2back/STIM_015.jpg	100
2154.057	0.57	570.1	2back	Block4	2back/STIM_015.jpg	100
2158.051	0.78	780.2	2back	Block4	2back/STIM_016.jpg	99
2162.518	0.49	489.7	2back	Block4	2back/STIM_016.jpg	99
2165.415	0.426	426.1	2back	Block4	2back/STIM_016.jpg	100
2169.391	0.636	635.6	2back	Block4	2back/STIM_017.jpg	99
2172.831	0.446	446.5	2back	Block4	2back/STIM_017.jpg	100
2175.715	0.556	556.1	2back	Block4	2back/STIM_017.jpg	100
2178.398	0.769	769.2	2back	Block4	2back/STIM_018.jpg	100
2181.626	0.483	483.4	2back	Block4	2back/STIM_018.jpg	100
2185.713	0.537	537.0	2back	Block4	2back/STIM_018.jpg	99
2189.989	0.836	836.5	2back	Block4	2back/STIM_019.jpg	99
2193.001	0.762	762.4	2back	Block4	2back/STIM_019.jpg	100
2195.765	0.72	719.9	2back	Block4	2back/STIM_019.jpg	99
2198.638	0.701	701.0	2back	Block4	2back/STIM_020.jpg	99
2202.292	0.399	399.3	2back	Block4	2back/STIM_020.jpg	100
2205.074	0.694	694.0	2back	Block4	2back/STIM_020.jpg	99
2209.114	0.673	673.0	2back	Block4	2back/STIM_021.jpg	100
2212.56	0.583	583.0	2back	Block4	2back/STIM_021.jpg	99
2215.296	0.764	763.5	2back	Block4	2back/STIM_021.jpg	99
2219.322	0.535	534.8	2back	Block4	2back/STIM_022.jpg	100
2222.101	0.78	780.5	2back	Block4	2back/STIM_022.jpg	99
2225.272	0.431	431.0	2back	Block4	2back/STIM_022.jpg	100
2228.584	0.79	789.7	2back	Block4	2back/STIM_023.jpg	100
2233.218	0.592	592.4	2back	Block4	2back/STIM_023.jpg	100
2236.461	0.387	387.2	2back	Block4	2back/STIM_023.jpg	99
2239.531	0.683	682.7	2back	Block4	2back/STIM_024.jpg	99
2242.477	0.788	787.7	2back	Block4	2back/STIM_024.jpg	99
2246.229	0.565	565.1	2back	Block4	2back/STIM_024.jpg	100
2250.329	0.434	433.7	2back	Block4	2back/STIM_025.jpg	99
2254.728	0.495	494.9	2back	Block4	2back/STIM_025.jpg	99
2257.795	0.73	730.4	2back	Block4	2back/STIM_025.jpg	99
2261.479	0.517	517.1	2back	Block4	2back/STIM_026.jpg	100
2264.068	0.404	403.8	2back	Block4	2back/STIM_026.jpg	100
2266.711	0.736	736.1	2back	Block4	2back/STIM_026.jpg	100
2271.055	0.402	402.3	2back	Block4	2back/STIM_027.jpg	100
2274.749	0.532	532.4	2back	Block4	2back/STIM_027.jpg	99
2279.22	0.421	420.6	2back	Block4	2back/STIM_027.jpg	100
2282.966	0.744	743.8	2back	Block4	2back/STIM_028.jpg	99
2287.649	0.411	411.1	2back	Block4	2back/STIM_028.jpg	100
2291.686	0.377	377.3	2back	Block4	2back/STIM_028.jpg	99
2294.344	0.372	371.7	2back	Block4	2back/STIM_029.jpg	100
2298.284	0.831	830.9	2back	Block4	2back/STIM_029.jpg	99
2301.225	0.746	746.1	2back	Block4	2back/STIM_029.jpg	100
2304.547	0.447	446.6	2back	Block4	2back/STIM_030.jpg	100
2307.385	0.513	512.9	2back	Block4	2back/STIM_030.jpg	99
2310.281	0.55	550.4	2back	Block4	2back/STIM_030.jpg	99
2314.765	0.47	469.8	2back	Block4	2back/STIM_031.jpg	100
2318.666	0.81	809.8	2back	Block4	2back/STIM_031.jpg	100
2323.232	0.798	797.6	2back	Block4	2back/STIM_031.jpg	100
2326.629	0.433	433.0	2back	Block4	2back/STIM_032.jpg	99
2329.988	0.796	796.1	2back	Block4	2back/STIM_032.jpg	100
2333.736	0.838	838.5	2back	Block4	2back/STIM_032.jpg	99
2337.369	0.379	379.4	2back	Block4	2back/STIM_033.jpg	99
2340.7	0.414	413.5	2back	Block4	2back/STIM_033.jpg	99
2344.885	0.485	484.8	2back	Block4	2back/STIM_033.jpg	99
2347.604	0.463	463.4	2back	Block4	2back/STIM_034.jpg	100
2351.883	0.707	706.6	2back	Block4	2back/STIM_034.jpg	100
2355.854	0.522	521.8	2back	Block4	2back/STIM_034.jpg	99
2358.885	0.774	773.9	2back	Block4	2back/STIM_035.jpg	99
2361.837	0.666	666.3	2back	Block4	2back/STIM_035.jpg	100
2365.469	0.402	401.8	2back	Block4	2back/STIM_035.jpg	99
2368.556	0.478	477.6	2back	Block4	2back/STIM_036.jpg	100
2372.432	0.722	722.2	2back	Block4	2back/STIM_036.jpg	99
2376.813	0.386	386.2	2back	Block4	2back/STIM_036.jpg	99
2381.037	0.431	431.0	2back	Block4	2back/STIM_037.jpg	100
2383.926	0.574	574.0	2back	Block4	2back/STIM_037.jpg	99
2388.236	0.448	448.4	2back	Block4	2back/STIM_037.jpg	99
2391.311	0.56	560.2	2back	Block4	2back/STIM_038.jpg	99
2393.926	0.545	544.6	2back	Block4	2back/STIM_038.jpg	99
2397.629	0.412	412.4	2back	Block4	2back/STIM_038.jpg	99
2401.757	0.62	620.4	2back	Block4	2back/STIM_039.jpg	100
2406.36	0.83	830.4	2back	Block4	2back/STIM_039.jpg	99
2409.282	0.482	482.2	2back	Block4	2back/STIM_039.jpg	99
2412.09	0.578	578.0	0back	Block4	0back/STIM_000.jpg	99
2414.679	0.669	668.6	0back	Block4	0back/STIM_000.jpg	100
2417.679	0.68	679.9	0back	Block4	0back/STIM_000.jpg	99
2422.072	0.54	540.4	0back	Block4	0back/STIM_001.jpg	100
2424.8	0.438	437.7	0back	Block4	0back/STIM_001.jpg	100
2429.064	0.447	447.1	0back	Block4	0back/STIM_001.jpg	100
2431.873	0.637	636.9	0back	Block4	0back/STIM_002.jpg	100
2435.817	0.667	667.3	0back	Block4	0back/STIM_002.jpg	99
2439.411	0.635	635.0	0back	Block4	0back/STIM_002.jpg	100
2442.263	0.698	697.5	0back	Block4	0back/STIM_003.jpg	100
2446.613	0.62	620.5	0back	Block4	0back/STIM_003.jpg	100
2449.973	0.466	465.6	0back	Block4	0back/STIM_003.jpg	99
2453.446	0.467	466.7	0back	Block4	0back/STIM_004.jpg	100
2457.02	0.521	521.2	0back	Block4	0back/STIM_004.jpg	100
2460.628	0.62	620.5	0back	Block4	0back/STIM_004.jpg	99
2463.995	0.674	674.0	0back	Block4	0back/STIM_005.jpg	100
2467.133	0.484	484.5	0back	Block4	0back/STIM_005.jpg	99
2470.136	0.595	594.8	0back	Block4	0back/STIM_005.jpg	99
2474.543	0.576	576.3	0back	Block4	0back/STIM_006.jpg	100
2477.609	0.4	399.8	0back	Block4	0back/STIM_006.jpg	99
2481.706	0.469	469.3	0back	Block4	0back/STIM_006.jpg	100
2485.656	0.635	634.9	0back	Block4	0back/STIM_007.jpg	99
2488.89	0.698	697.8	0back	Block4	0back/STIM_007.jpg	99
2492.291	0.45	449.5	0back	Block4	0back/STIM_007.jpg	100
2494.767	0.559	559.0	0back	Block4	0back/STIM_008.jpg	100
2497.371	0.467	466.9	0back	Block4	0back/STIM_008.jpg	100
2500.218	0.666	665.6	0back	Block4	0back/STIM_008.jpg	99
2504.803	0.494	493.6	0back	Block4	0back/STIM_009.jpg	100
2509.204	0.658	657.7	0back	Block4	0back/STIM_009.jpg	99
2513.416	0.38	379.7	0back	Block4	0back/STIM_009.jpg	99
2516.36	0.414	414.4	0back	Block4	0back/STIM_010.jpg	100
2520.653	0.658	658.5	0back	Block4	0back/STIM_010.jpg	100
2524.979	0.644	644.0	0back	Block4	0back/STIM_010.jpg	99
2527.684	0.439	438.7	0back	Block4	0back/STIM_011.jpg	99
2531.273	0.437	437.1	0back	Block4	0back/STIM_011.jpg	100
2535.35	0.562	562.3	0back	Block4	0back/STIM_011.jpg	99
2538.985	0.657	656.6	0back	Block4	0back/STIM_012.jpg	99
2541.657	0.518	517.9	0back	Block4	0back/STIM_012.jpg	99
2545.27	0.66	659.9	0back	Block4	0back/STIM_012.jpg	100
2548.037	0.476	476.1	0back	Block4	0back/STIM_013.jpg	99
2552.12	0.668	667.9	0back	Block4	0back/STIM_013.jpg	100
2555.828	0.42	420.0	0back	Block4	0back/STIM_013.jpg	99
2559.661	0.564	564.2	0back	Block4	0back/STIM_014.jpg	99
2562.276	0.516	515.7	0back	Block4	0back/STIM_014.jpg	100
2566.171	0.487	486.6	0back	Block4	0back/STIM_014.jpg	100
2570.022	0.548	547.7	0back	Block4	0back/STIM_015.jpg	100
2572.713	0.692	692.3	0back	Block4	0back/STIM_015.jpg	99
2576.72	0.407	406.8	0back	Block4	0back/STIM_015.jpg	100
2580.374	0.501	500.8	0back	Block4	0back/STIM_016.jpg	99
2583.705	0.475	474.9	0back	Block4	0back/STIM_016.jpg	99
2586.532	0.66	659.7	0back	Block4	0back/STIM_016.jpg	99
2591.168	0.52	520.5	0back	Block4	0back/STIM_017.jpg	100
2593.833	0.446	446.2	0back	Block4	0back/STIM_017.jpg	100
2597.63	0.54	539.6	0back	Block4	0back/STIM_017.jpg	99
2600.422	0.619	619.0	0back	Block4	0back/STIM_018.jpg	99
2603.546	0.617	616.8	0back	Block4	0back/STIM_018.jpg	99
2607.562	0.415	415.1	0back	Block4	0back/STIM_018.jpg	100
2610.11	0.609	608.8	0back	Block4	0back/STIM_019.jpg	100
2614.673	0.56	559.8	0back	Block4	0back/STIM_019.jpg	100
2618.274	0.648	647.7	0back	Block4	0back/STIM_019.jpg	99
