onset	duration	accuracy	trial_type	learning_stage	stimulus
0.0	0.444	incorrect	2back	Block1	2back/STIM_000.jpg
3.771	0.948	correct	2back	Block1	2back/STIM_000.jpg
7.876	0.701	correct	2back	Block1	2back/STIM_000.jpg
12.606	1.249	correct	2back	Block1	2back/STIM_001.jpg
16.936	1.031	correct	2back	Block1	2back/STIM_001.jpg
21.285	0.468	correct	2back	Block1	2back/STIM_001.jpg
24.281	0.562	correct	2back	Block1	2back/STIM_002.jpg
27.979	1.08	correct	2back	Block1	2back/STIM_002.jpg
31.653	0.678	incorrect	2back	Block1	2back/STIM_002.jpg
36.242	0.61	correct	2back	Block1	2back/STIM_003.jpg
39.105	0.769	correct	2back	Block1	2back/STIM_003.jpg
43.616	0.667	correct	2back	Block1	2back/STIM_003.jpg
47.797	0.768	correct	2back	Block1	2back/STIM_004.jpg
50.929	1.048	correct	2back	Block1	2back/STIM_004.jpg
55.876	0.652	correct	2back	Block1	2back/STIM_004.jpg
58.677	1.075	incorrect	2back	Block1	2back/STIM_005.jpg
63.752	0.714	correct	2back	Block1	2back/STIM_005.jpg
67.252	1.088	correct	2back	Block1	2back/STIM_005.jpg
71.234	1.127	correct	2back	Block1	2back/STIM_006.jpg
74.865	0.897	correct	2back	Block1	2back/STIM_006.jpg
79.627	0.839	incorrect	2back	Block1	2back/STIM_006.jpg
83.665	0.523	correct	2back	Block1	2back/STIM_007.jpg
86.875	0.511	correct	2back	Block1	2back/STIM_007.jpg
90.479	0.544	correct	2back	Block1	2back/STIM_007.jpg
93.219	0.814	correct	2back	Block1	2back/STIM_008.jpg
96.298	0.973	correct	2back	Block1	2back/STIM_008.jpg
100.675	0.959	correct	2back	Block1	2back/STIM_008.jpg
105.315	0.793	correct	2back	Block1	2back/STIM_009.jpg
109.876	0.797	correct	2back	Block1	2back/STIM_009.jpg
114.659	0.712	correct	2back	Block1	2back/STIM_009.jpg
118.473	0.563	correct	2back	Block1	2back/STIM_010.jpg
121.804	1.133	correct	2back	Block1	2back/STIM_010.jpg
125.432	0.489	correct	2back	Block1	2back/STIM_010.jpg
129.671	0.447	correct	2back	Block1	2back/STIM_011.jpg
133.674	0.693	correct	2back	Block1	2back/STIM_011.jpg
136.954	0.892	correct	2back	Block1	2back/STIM_011.jpg
141.193	1.076	incorrect	2back	Block1	2back/STIM_012.jpg
144.906	0.812	correct	2back	Block1	2back/STIM_012.jpg
149.896	1.092	correct	2back	Block1	2back/STIM_012.jpg
155.061	0.678	correct	2back	Block1	2back/STIM_013.jpg
158.811	1.044	correct	2back	Block1	2back/STIM_013.jpg
163.974	0.466	correct	2back	Block1	2back/STIM_013.jpg
167.278	0.692	correct	2back	Block1	2back/STIM_014.jpg
171.791	0.58	correct	2back	Block1	2back/STIM_014.jpg
174.653	0.998	incorrect	2back	Block1	2back/STIM_014.jpg
179.568	1.067	correct	2back	Block1	2back/STIM_015.jpg
184.262	0.48	correct	2back	Block1	2back/STIM_015.jpg
187.986	0.497	correct	2back	Block1	2back/STIM_015.jpg
191.524	0.554	incorrect	2back	Block1	2back/STIM_016.jpg
196.171	0.938	correct	2back	Block1	2back/STIM_016.jpg
200.803	0.75	correct	2back	Block1	2back/STIM_016.jpg
205.458	0.797	correct	2back	Block1	2back/STIM_017.jpg
210.409	0.596	correct	2back	Block1	2back/STIM_017.jpg
213.205	0.622	correct	2back	Block1	2back/STIM_017.jpg
217.431	0.893	incorrect	2back	Block1	2back/STIM_018.jpg
220.596	0.836	incorrect	2back	Block1	2back/STIM_018.jpg
225.508	1.011	correct	2back	Block1	2back/STIM_018.jpg
228.722	0.923	correct	2back	Block1	2back/STIM_019.jpg
232.669	0.763	correct	2back	Block1	2back/STIM_019.jpg
237.588	0.857	incorrect	2back	Block1	2back/STIM_019.jpg
241.394	0.998	correct	2back	Block1	2back/STIM_020.jpg
245.345	0.738	correct	2back	Block1	2back/STIM_020.jpg
249.854	0.506	correct	2back	Block1	2back/STIM_020.jpg
252.641	0.794	correct	2back	Block1	2back/STIM_021.jpg
255.965	0.836	correct	2back	Block1	2back/STIM_021.jpg
260.813	0.482	incorrect	2back	Block1	2back/STIM_021.jpg
264.352	0.919	correct	2back	Block1	2back/STIM_022.jpg
267.824	0.709	correct	2back	Block1	2back/STIM_022.jpg
272.256	0.588	correct	2back	Block1	2back/STIM_022.jpg
275.74	0.988	correct	2back	Block1	2back/STIM_023.jpg
279.049	0.78	correct	2back	Block1	2back/STIM_023.jpg
282.328	0.984	correct	2back	Block1	2back/STIM_023.jpg
286.108	0.698	incorrect	2back	Block1	2back/STIM_024.jpg
289.32	0.491	correct	2back	Block1	2back/STIM_024.jpg
292.418	0.874	correct	2back	Block1	2back/STIM_024.jpg
297.401	1.234	correct	2back	Block1	2back/STIM_025.jpg
301.314	0.574	correct	2back	Block1	2back/STIM_025.jpg
305.589	0.599	correct	2back	Block1	2back/STIM_025.jpg
309.292	0.594	incorrect	2back	Block1	2back/STIM_026.jpg
313.2	0.961	correct	2back	Block1	2back/STIM_026.jpg
318.053	0.958	incorrect	2back	Block1	2back/STIM_026.jpg
321.906	0.761	incorrect	2back	Block1	2back/STIM_027.jpg
326.646	0.597	correct	2back	Block1	2back/STIM_027.jpg
331.038	0.98	correct	2back	Block1	2back/STIM_027.jpg
334.84	1.032	correct	2back	Block1	2back/STIM_028.jpg
338.296	0.957	correct	2back	Block1	2back/STIM_028.jpg
343.15	0.696	correct	2back	Block1	2back/STIM_028.jpg
347.205	0.786	incorrect	2back	Block1	2back/STIM_029.jpg
350.884	0.611	correct	2back	Block1	2back/STIM_029.jpg
354.517	0.728	correct	2back	Block1	2back/STIM_029.jpg
358.357	0.887	correct	2back	Block1	2back/STIM_030.jpg
361.545	1.066	correct	2back	Block1	2back/STIM_030.jpg
366.804	1.019	correct	2back	Block1	2back/STIM_030.jpg
370.092	0.978	correct	2back	Block1	2back/STIM_031.jpg
373.465	1.058	correct	2back	Block1	2back/STIM_031.jpg
377.759	0.71	correct	2back	Block1	2back/STIM_031.jpg
382.482	0.998	incorrect	2back	Block1	2back/STIM_032.jpg
386.802	0.687	correct	2back	Block1	2back/STIM_032.jpg
389.627	1.044	correct	2back	Block1	2back/STIM_032.jpg
393.438	0.79	correct	2back	Block1	2back/STIM_033.jpg
396.508	1.064	correct	2back	Block1	2back/STIM_033.jpg
400.946	0.722	incorrect	2back	Block1	2back/STIM_033.jpg
404.063	1.201	correct	2back	Block1	2back/STIM_034.jpg
407.616	0.593	correct	2back	Block1	2back/STIM_034.jpg
410.962	0.731	correct	2back	Block1	2back/STIM_034.jpg
414.043	1.051	correct	2back	Block1	2back/STIM_035.jpg
419.194	0.585	correct	2back	Block1	2back/STIM_035.jpg
423.387	0.654	correct	2back	Block1	2back/STIM_035.jpg
427.575	0.603	correct	2back	Block1	2back/STIM_036.jpg
430.797	0.949	correct	2back	Block1	2back/STIM_036.jpg
435.187	0.668	incorrect	2back	Block1	2back/STIM_036.jpg
439.683	0.974	correct	2back	Block1	2back/STIM_037.jpg
443.212	1.084	correct	2back	Block1	2back/STIM_037.jpg
447.882	0.971	correct	2back	Block1	2back/STIM_037.jpg
451.968	1.156	correct	2back	Block1	2back/STIM_038.jpg
457.023	0.752	incorrect	2back	Block1	2back/STIM_038.jpg
461.736	0.578	correct	2back	Block1	2back/STIM_038.jpg
464.637	0.883	correct	2back	Block1	2back/STIM_039.jpg
468.631	1.154	incorrect	2back	Block1	2back/STIM_039.jpg
472.311	0.895	correct	2back	Block1	2back/STIM_039.jpg
476.796	0.353	correct	0back	Block1	0back/STIM_000.jpg
480.038	0.391	correct	0back	Block1	0back/STIM_000.jpg
484.0	0.503	correct	0back	Block1	0back/STIM_000.jpg
488.128	0.296	correct	0back	Block1	0back/STIM_001.jpg
491.195	0.344	correct	0back	Block1	0back/STIM_001.jpg
493.78	0.533	correct	0back	Block1	0back/STIM_001.jpg
497.692	0.369	correct	0back	Block1	0back/STIM_002.jpg
500.835	0.611	correct	0back	Block1	0back/STIM_002.jpg
504.763	0.65	correct	0back	Block1	0back/STIM_002.jpg
508.008	0.536	correct	0back	Block1	0back/STIM_003.jpg
510.848	0.56	correct	0back	Block1	0back/STIM_003.jpg
515.424	0.682	correct	0back	Block1	0back/STIM_003.jpg
518.193	0.352	correct	0back	Block1	0back/STIM_004.jpg
522.049	0.468	correct	0back	Block1	0back/STIM_004.jpg
525.568	0.32	correct	0back	Block1	0back/STIM_004.jpg
528.289	0.512	correct	0back	Block1	0back/STIM_005.jpg
531.515	0.644	correct	0back	Block1	0back/STIM_005.jpg
535.784	0.493	correct	0back	Block1	0back/STIM_005.jpg
539.333	0.443	correct	0back	Block1	0back/STIM_006.jpg
542.26	0.286	correct	0back	Block1	0back/STIM_006.jpg
545.067	0.559	correct	0back	Block1	0back/STIM_006.jpg
549.484	0.721	correct	0back	Block1	0back/STIM_007.jpg
552.314	0.553	correct	0back	Block1	0back/STIM_007.jpg
555.405	0.421	correct	0back	Block1	0back/STIM_007.jpg
559.592	0.479	correct	0back	Block1	0back/STIM_008.jpg
563.52	0.653	correct	0back	Block1	0back/STIM_008.jpg
567.222	0.386	correct	0back	Block1	0back/STIM_008.jpg
570.733	0.624	correct	0back	Block1	0back/STIM_009.jpg
573.462	0.573	correct	0back	Block1	0back/STIM_009.jpg
577.838	0.46	correct	0back	Block1	0back/STIM_009.jpg
581.469	0.639	correct	0back	Block1	0back/STIM_010.jpg
585.587	0.524	correct	0back	Block1	0back/STIM_010.jpg
588.424	0.481	correct	0back	Block1	0back/STIM_010.jpg
591.328	0.629	correct	0back	Block1	0back/STIM_011.jpg
594.848	0.62	correct	0back	Block1	0back/STIM_011.jpg
597.831	0.403	correct	0back	Block1	0back/STIM_011.jpg
601.719	0.551	correct	0back	Block1	0back/STIM_012.jpg
604.522	0.516	correct	0back	Block1	0back/STIM_012.jpg
607.418	0.353	correct	0back	Block1	0back/STIM_012.jpg
610.688	0.441	correct	0back	Block1	0back/STIM_013.jpg
614.076	0.474	correct	0back	Block1	0back/STIM_013.jpg
617.713	0.613	correct	0back	Block1	0back/STIM_013.jpg
620.907	0.552	correct	0back	Block1	0back/STIM_014.jpg
624.73	0.421	correct	0back	Block1	0back/STIM_014.jpg
628.166	0.442	correct	0back	Block1	0back/STIM_014.jpg
631.833	0.443	correct	0back	Block1	0back/STIM_015.jpg
634.986	0.452	correct	0back	Block1	0back/STIM_015.jpg
638.477	0.376	correct	0back	Block1	0back/STIM_015.jpg
642.074	0.336	correct	0back	Block1	0back/STIM_016.jpg
644.805	0.482	correct	0back	Block1	0back/STIM_016.jpg
648.36	0.488	correct	0back	Block1	0back/STIM_016.jpg
652.032	0.568	correct	0back	Block1	0back/STIM_017.jpg
655.803	0.377	correct	0back	Block1	0back/STIM_017.jpg
660.274	0.673	correct	0back	Block1	0back/STIM_017.jpg
664.075	0.669	correct	0back	Block1	0back/STIM_018.jpg
667.08	0.656	correct	0back	Block1	0back/STIM_018.jpg
669.955	0.668	correct	0back	Block1	0back/STIM_018.jpg
674.446	0.491	correct	0back	Block1	0back/STIM_019.jpg
678.153	0.394	correct	0back	Block1	0back/STIM_019.jpg
681.075	0.509	correct	0back	Block1	0back/STIM_019.jpg
685.55	0.47	correct	2back	Block2	2back/STIM_000.jpg
688.402	0.918	correct	2back	Block2	2back/STIM_000.jpg
691.92	0.628	correct	2back	Block2	2back/STIM_000.jpg
695.566	0.602	incorrect	2back	Block2	2back/STIM_001.jpg
699.523	0.686	correct	2back	Block2	2back/STIM_001.jpg
703.919	0.493	correct	2back	Block2	2back/STIM_001.jpg
707.496	0.743	correct	2back	Block2	2back/STIM_002.jpg
710.406	0.654	correct	2back	Block2	2back/STIM_002.jpg
714.766	0.625	correct	2back	Block2	2back/STIM_002.jpg
718.65	0.43	correct	2back	Block2	2back/STIM_003.jpg
722.703	0.418	correct	2back	Block2	2back/STIM_003.jpg
725.298	0.554	correct	2back	Block2	2back/STIM_003.jpg
729.853	0.603	incorrect	2back	Block2	2back/STIM_004.jpg
733.146	0.561	correct	2back	Block2	2back/STIM_004.jpg
737.754	0.89	correct	2back	Block2	2back/STIM_004.jpg
741.033	0.899	correct	2back	Block2	2back/STIM_005.jpg
744.222	0.846	incorrect	2back	Block2	2back/STIM_005.jpg
748.067	0.495	correct	2back	Block2	2back/STIM_005.jpg
750.95	0.502	correct	2back	Block2	2back/STIM_006.jpg
753.882	0.531	correct	2back	Block2	2back/STIM_006.jpg
757.683	0.814	correct	2back	Block2	2back/STIM_006.jpg
762.315	0.805	incorrect	2back	Block2	2back/STIM_007.jpg
766.636	0.623	incorrect	2back	Block2	2back/STIM_007.jpg
769.505	0.714	correct	2back	Block2	2back/STIM_007.jpg
773.352	0.648	correct	2back	Block2	2back/STIM_008.jpg
777.689	0.392	incorrect	2back	Block2	2back/STIM_008.jpg
782.083	0.76	correct	2back	Block2	2back/STIM_008.jpg
786.914	0.592	correct	2back	Block2	2back/STIM_009.jpg
789.645	0.583	correct	2back	Block2	2back/STIM_009.jpg
793.236	0.609	incorrect	2back	Block2	2back/STIM_009.jpg
796.802	0.59	correct	2back	Block2	2back/STIM_010.jpg
801.106	0.481	correct	2back	Block2	2back/STIM_010.jpg
804.812	0.592	correct	2back	Block2	2back/STIM_010.jpg
808.016	0.603	correct	2back	Block2	2back/STIM_011.jpg
812.596	0.528	correct	2back	Block2	2back/STIM_011.jpg
816.963	0.529	correct	2back	Block2	2back/STIM_011.jpg
821.564	0.475	correct	2back	Block2	2back/STIM_012.jpg
826.006	0.494	correct	2back	Block2	2back/STIM_012.jpg
830.375	0.411	correct	2back	Block2	2back/STIM_012.jpg
834.588	1.046	correct	2back	Block2	2back/STIM_013.jpg
838.015	0.562	correct	2back	Block2	2back/STIM_013.jpg
842.554	0.71	correct	2back	Block2	2back/STIM_013.jpg
846.831	0.642	correct	2back	Block2	2back/STIM_014.jpg
850.235	0.9	correct	2back	Block2	2back/STIM_014.jpg
853.48	0.683	correct	2back	Block2	2back/STIM_014.jpg
856.624	0.915	incorrect	2back	Block2	2back/STIM_015.jpg
860.244	0.486	correct	2back	Block2	2back/STIM_015.jpg
863.231	0.544	correct	2back	Block2	2back/STIM_015.jpg
867.346	0.664	correct	2back	Block2	2back/STIM_016.jpg
871.418	0.725	correct	2back	Block2	2back/STIM_016.jpg
874.946	0.886	incorrect	2back	Block2	2back/STIM_016.jpg
878.235	0.678	correct	2back	Block2	2back/STIM_017.jpg
882.491	0.843	correct	2back	Block2	2back/STIM_017.jpg
885.579	0.632	correct	2back	Block2	2back/STIM_017.jpg
890.112	0.919	correct	2back	Block2	2back/STIM_018.jpg
893.448	0.387	incorrect	2back	Block2	2back/STIM_018.jpg
896.23	0.447	correct	2back	Block2	2back/STIM_018.jpg
898.951	0.615	correct	2back	Block2	2back/STIM_019.jpg
902.635	0.499	correct	2back	Block2	2back/STIM_019.jpg
906.0	0.673	correct	2back	Block2	2back/STIM_019.jpg
910.277	0.99	correct	2back	Block2	2back/STIM_020.jpg
914.918	0.477	correct	2back	Block2	2back/STIM_020.jpg
917.962	0.631	incorrect	2back	Block2	2back/STIM_020.jpg
921.562	0.616	correct	2back	Block2	2back/STIM_021.jpg
924.751	0.406	correct	2back	Block2	2back/STIM_021.jpg
928.691	0.91	correct	2back	Block2	2back/STIM_021.jpg
933.112	0.789	correct	2back	Block2	2back/STIM_022.jpg
936.935	0.602	correct	2back	Block2	2back/STIM_022.jpg
939.831	0.55	correct	2back	Block2	2back/STIM_022.jpg
943.724	0.543	correct	2back	Block2	2back/STIM_023.jpg
947.08	0.684	correct	2back	Block2	2back/STIM_023.jpg
950.529	0.501	correct	2back	Block2	2back/STIM_023.jpg
954.177	0.701	correct	2back	Block2	2back/STIM_024.jpg
958.36	0.482	correct	2back	Block2	2back/STIM_024.jpg
962.66	0.789	correct	2back	Block2	2back/STIM_024.jpg
966.324	0.667	correct	2back	Block2	2back/STIM_025.jpg
969.694	0.766	correct	2back	Block2	2back/STIM_025.jpg
973.965	0.76	correct	2back	Block2	2back/STIM_025.jpg
977.676	0.99	correct	2back	Block2	2back/STIM_026.jpg
982.469	0.844	correct	2back	Block2	2back/STIM_026.jpg
986.351	0.468	correct	2back	Block2	2back/STIM_026.jpg
990.234	0.957	correct	2back	Block2	2back/STIM_027.jpg
993.468	0.557	correct	2back	Block2	2back/STIM_027.jpg
996.897	0.76	correct	2back	Block2	2back/STIM_027.jpg
999.885	0.941	correct	2back	Block2	2back/STIM_028.jpg
1003.744	0.829	correct	2back	Block2	2back/STIM_028.jpg
1007.42	0.503	correct	2back	Block2	2back/STIM_028.jpg
1010.43	0.65	correct	2back	Block2	2back/STIM_029.jpg
1014.096	0.605	correct	2back	Block2	2back/STIM_029.jpg
1017.436	0.774	correct	2back	Block2	2back/STIM_029.jpg
1021.927	0.693	correct	2back	Block2	2back/STIM_030.jpg
1026.639	0.864	correct	2back	Block2	2back/STIM_030.jpg
1029.979	0.531	correct	2back	Block2	2back/STIM_030.jpg
1034.319	0.52	correct	2back	Block2	2back/STIM_031.jpg
1038.827	0.717	incorrect	2back	Block2	2back/STIM_031.jpg
1043.299	0.994	correct	2back	Block2	2back/STIM_031.jpg
1046.666	0.803	correct	2back	Block2	2back/STIM_032.jpg
1050.779	0.521	correct	2back	Block2	2back/STIM_032.jpg
1054.046	0.519	correct	2back	Block2	2back/STIM_032.jpg
1057.977	0.858	correct	2back	Block2	2back/STIM_033.jpg
1062.871	0.632	incorrect	2back	Block2	2back/STIM_033.jpg
1065.657	0.458	correct	2back	Block2	2back/STIM_033.jpg
1069.969	0.937	correct	2back	Block2	2back/STIM_034.jpg
1073.397	0.518	correct	2back	Block2	2back/STIM_034.jpg
1076.937	0.552	correct	2back	Block2	2back/STIM_034.jpg
1080.183	0.948	correct	2back	Block2	2back/STIM_035.jpg
1084.257	0.869	correct	2back	Block2	2back/STIM_035.jpg
1088.281	0.742	correct	2back	Block2	2back/STIM_035.jpg
1092.28	0.963	incorrect	2back	Block2	2back/STIM_036.jpg
1095.833	0.832	correct	2back	Block2	2back/STIM_036.jpg
1099.292	0.957	correct	2back	Block2	2back/STIM_036.jpg
1102.681	0.802	incorrect	2back	Block2	2back/STIM_037.jpg
1107.006	0.939	correct	2back	Block2	2back/STIM_037.jpg
1110.288	0.933	correct	2back	Block2	2back/STIM_037.jpg
1114.368	0.534	correct	2back	Block2	2back/STIM_038.jpg
1116.98	0.79	correct	2back	Block2	2back/STIM_038.jpg
1120.487	0.68	correct	2back	Block2	2back/STIM_038.jpg
1124.47	0.964	correct	2back	Block2	2back/STIM_039.jpg
1128.141	0.992	correct	2back	Block2	2back/STIM_039.jpg
1131.515	0.477	correct	2back	Block2	2back/STIM_039.jpg
1134.115	0.458	correct	0back	Block2	0back/STIM_000.jpg
1137.389	0.374	correct	0back	Block2	0back/STIM_000.jpg
1141.492	0.608	correct	0back	Block2	0back/STIM_000.jpg
1145.529	0.616	correct	0back	Block2	0back/STIM_001.jpg
1149.595	0.632	correct	0back	Block2	0back/STIM_001.jpg
1153.761	0.593	correct	0back	Block2	0back/STIM_001.jpg
1157.825	0.731	correct	0back	Block2	0back/STIM_002.jpg
1162.355	0.585	correct	0back	Block2	0back/STIM_002.jpg
1166.05	0.446	incorrect	0back	Block2	0back/STIM_002.jpg
1169.947	0.404	correct	0back	Block2	0back/STIM_003.jpg
1173.423	0.424	correct	0back	Block2	0back/STIM_003.jpg
1176.109	0.66	correct	0back	Block2	0back/STIM_003.jpg
1180.236	0.356	correct	0back	Block2	0back/STIM_004.jpg
1183.02	0.424	correct	0back	Block2	0back/STIM_004.jpg
1186.271	0.258	correct	0back	Block2	0back/STIM_004.jpg
1190.541	0.642	correct	0back	Block2	0back/STIM_005.jpg
1193.789	0.675	correct	0back	Block2	0back/STIM_005.jpg
1198.123	0.449	correct	0back	Block2	0back/STIM_005.jpg
1202.054	0.374	correct	0back	Block2	0back/STIM_006.jpg
1204.785	0.471	correct	0back	Block2	0back/STIM_006.jpg
1208.141	0.517	correct	0back	Block2	0back/STIM_006.jpg
1211.957	0.366	correct	0back	Block2	0back/STIM_007.jpg
1214.456	0.534	correct	0back	Block2	0back/STIM_007.jpg
1218.77	0.564	correct	0back	Block2	0back/STIM_007.jpg
1221.878	0.557	correct	0back	Block2	0back/STIM_008.jpg
1224.784	0.69	correct	0back	Block2	0back/STIM_008.jpg
1228.261	0.406	correct	0back	Block2	0back/STIM_008.jpg
1232.59	0.777	correct	0back	Block2	0back/STIM_009.jpg
1235.888	0.618	incorrect	0back	Block2	0back/STIM_009.jpg
1239.464	0.744	correct	0back	Block2	0back/STIM_009.jpg
1242.49	0.481	correct	0back	Block2	0back/STIM_010.jpg
1245.76	0.508	correct	0back	Block2	0back/STIM_010.jpg
1249.769	0.52	correct	0back	Block2	0back/STIM_010.jpg
1253.92	0.474	correct	0back	Block2	0back/STIM_011.jpg
1257.082	0.47	correct	0back	Block2	0back/STIM_011.jpg
1259.895	0.64	correct	0back	Block2	0back/STIM_011.jpg
1264.27	0.606	correct	0back	Block2	0back/STIM_012.jpg
1268.56	0.553	correct	0back	Block2	0back/STIM_012.jpg
1273.061	0.394	correct	0back	Block2	0back/STIM_012.jpg
1276.755	0.57	correct	0back	Block2	0back/STIM_013.jpg
1279.691	0.594	correct	0back	Block2	0back/STIM_013.jpg
1283.28	0.513	correct	0back	Block2	0back/STIM_013.jpg
1286.136	0.582	correct	0back	Block2	0back/STIM_014.jpg
1290.539	0.562	correct	0back	Block2	0back/STIM_014.jpg
1294.058	0.656	correct	0back	Block2	0back/STIM_014.jpg
1298.832	0.494	correct	0back	Block2	0back/STIM_015.jpg
1302.303	0.506	correct	0back	Block2	0back/STIM_015.jpg
1306.061	0.405	correct	0back	Block2	0back/STIM_015.jpg
1309.131	0.594	correct	0back	Block2	0back/STIM_016.jpg
1313.246	0.614	correct	0back	Block2	0back/STIM_016.jpg
1316.053	0.395	correct	0back	Block2	0back/STIM_016.jpg
1319.408	0.582	correct	0back	Block2	0back/STIM_017.jpg
1323.379	0.666	correct	0back	Block2	0back/STIM_017.jpg
1326.583	0.3	correct	0back	Block2	0back/STIM_017.jpg
1329.9	0.432	incorrect	0back	Block2	0back/STIM_018.jpg
1333.008	0.437	correct	0back	Block2	0back/STIM_018.jpg
1336.325	0.527	correct	0back	Block2	0back/STIM_018.jpg
1340.386	0.506	incorrect	0back	Block2	0back/STIM_019.jpg
1343.39	0.349	correct	0back	Block2	0back/STIM_019.jpg
1347.338	0.403	correct	0back	Block2	0back/STIM_019.jpg
1351.65	0.853	correct	2back	Block3	2back/STIM_000.jpg
1355.997	0.337	correct	2back	Block3	2back/STIM_000.jpg
1358.803	0.687	correct	2back	Block3	2back/STIM_000.jpg
1361.605	0.557	correct	2back	Block3	2back/STIM_001.jpg
1365.679	0.354	correct	2back	Block3	2back/STIM_001.jpg
1369.376	0.566	correct	2back	Block3	2back/STIM_001.jpg
1372.723	0.434	correct	2back	Block3	2back/STIM_002.jpg
1376.807	0.882	correct	2back	Block3	2back/STIM_002.jpg
1379.994	0.738	correct	2back	Block3	2back/STIM_002.jpg
1384.067	0.559	correct	2back	Block3	2back/STIM_003.jpg
1387.682	0.54	correct	2back	Block3	2back/STIM_003.jpg
1391.453	0.77	correct	2back	Block3	2back/STIM_003.jpg
1396.245	0.643	correct	2back	Block3	2back/STIM_004.jpg
1399.902	0.507	correct	2back	Block3	2back/STIM_004.jpg
1404.402	0.474	correct	2back	Block3	2back/STIM_004.jpg
1408.397	0.644	correct	2back	Block3	2back/STIM_005.jpg
1411.789	0.368	correct	2back	Block3	2back/STIM_005.jpg
1415.093	0.681	correct	2back	Block3	2back/STIM_005.jpg
1419.174	0.723	correct	2back	Block3	2back/STIM_006.jpg
1422.299	0.376	correct	2back	Block3	2back/STIM_006.jpg
1425.682	0.678	correct	2back	Block3	2back/STIM_006.jpg
1428.677	0.805	correct	2back	Block3	2back/STIM_007.jpg
1432.124	0.646	correct	2back	Block3	2back/STIM_007.jpg
1435.792	0.567	correct	2back	Block3	2back/STIM_007.jpg
1438.561	0.761	correct	2back	Block3	2back/STIM_008.jpg
1441.824	0.471	correct	2back	Block3	2back/STIM_008.jpg
1445.757	0.46	correct	2back	Block3	2back/STIM_008.jpg
1449.105	0.35	correct	2back	Block3	2back/STIM_009.jpg
1453.221	0.655	correct	2back	Block3	2back/STIM_009.jpg
1456.424	0.458	correct	2back	Block3	2back/STIM_009.jpg
1460.686	0.505	correct	2back	Block3	2back/STIM_010.jpg
1463.436	0.412	correct	2back	Block3	2back/STIM_010.jpg
1467.861	0.442	correct	2back	Block3	2back/STIM_010.jpg
1472.251	0.713	correct	2back	Block3	2back/STIM_011.jpg
1475.214	0.597	correct	2back	Block3	2back/STIM_011.jpg
1479.779	0.949	correct	2back	Block3	2back/STIM_011.jpg
1482.755	0.592	correct	2back	Block3	2back/STIM_012.jpg
1486.671	0.821	correct	2back	Block3	2back/STIM_012.jpg
1490.855	0.553	correct	2back	Block3	2back/STIM_012.jpg
1495.454	0.807	correct	2back	Block3	2back/STIM_013.jpg
1500.201	0.462	correct	2back	Block3	2back/STIM_013.jpg
1504.44	0.747	correct	2back	Block3	2back/STIM_013.jpg
1507.525	0.374	correct	2back	Block3	2back/STIM_014.jpg
1510.548	0.657	correct	2back	Block3	2back/STIM_014.jpg
1513.764	0.392	correct	2back	Block3	2back/STIM_014.jpg
1517.729	0.613	correct	2back	Block3	2back/STIM_015.jpg
1520.544	0.607	correct	2back	Block3	2back/STIM_015.jpg
1523.5	0.659	correct	2back	Block3	2back/STIM_015.jpg
1527.564	0.704	correct	2back	Block3	2back/STIM_016.jpg
1530.621	0.464	correct	2back	Block3	2back/STIM_016.jpg
1533.72	0.783	correct	2back	Block3	2back/STIM_016.jpg
1537.087	0.597	correct	2back	Block3	2back/STIM_017.jpg
1539.856	0.797	correct	2back	Block3	2back/STIM_017.jpg
1542.94	0.821	correct	2back	Block3	2back/STIM_017.jpg
1546.271	0.704	correct	2back	Block3	2back/STIM_018.jpg
1550.258	0.617	correct	2back	Block3	2back/STIM_018.jpg
1554.244	0.448	correct	2back	Block3	2back/STIM_018.jpg
1557.51	0.558	correct	2back	Block3	2back/STIM_019.jpg
1562.059	0.459	correct	2back	Block3	2back/STIM_019.jpg
1564.833	0.497	correct	2back	Block3	2back/STIM_019.jpg
1567.469	0.635	correct	2back	Block3	2back/STIM_020.jpg
1570.72	0.395	correct	2back	Block3	2back/STIM_020.jpg
1575.063	0.498	correct	2back	Block3	2back/STIM_020.jpg
1579.368	0.662	correct	2back	Block3	2back/STIM_021.jpg
1584.008	0.528	correct	2back	Block3	2back/STIM_021.jpg
1588.503	0.545	correct	2back	Block3	2back/STIM_021.jpg
1591.959	0.628	correct	2back	Block3	2back/STIM_022.jpg
1596.612	0.882	correct	2back	Block3	2back/STIM_022.jpg
1600.591	0.588	correct	2back	Block3	2back/STIM_022.jpg
1605.008	0.758	correct	2back	Block3	2back/STIM_023.jpg
1609.886	0.621	correct	2back	Block3	2back/STIM_023.jpg
1613.337	0.479	correct	2back	Block3	2back/STIM_023.jpg
1617.268	0.417	correct	2back	Block3	2back/STIM_024.jpg
1619.928	0.646	correct	2back	Block3	2back/STIM_024.jpg
1622.946	0.746	correct	2back	Block3	2back/STIM_024.jpg
1627.65	0.846	correct	2back	Block3	2back/STIM_025.jpg
1631.258	0.401	correct	2back	Block3	2back/STIM_025.jpg
1634.502	0.629	correct	2back	Block3	2back/STIM_025.jpg
1638.132	0.474	correct	2back	Block3	2back/STIM_026.jpg
1641.734	0.563	correct	2back	Block3	2back/STIM_026.jpg
1645.166	0.718	correct	2back	Block3	2back/STIM_026.jpg
1647.91	0.816	correct	2back	Block3	2back/STIM_027.jpg
1651.979	0.606	correct	2back	Block3	2back/STIM_027.jpg
1654.739	0.777	correct	2back	Block3	2back/STIM_027.jpg
1657.994	0.355	correct	2back	Block3	2back/STIM_028.jpg
1661.565	0.6	correct	2back	Block3	2back/STIM_028.jpg
1665.925	0.66	correct	2back	Block3	2back/STIM_028.jpg
1669.768	0.371	correct	2back	Block3	2back/STIM_029.jpg
1673.959	0.459	correct	2back	Block3	2back/STIM_029.jpg
1676.785	0.434	correct	2back	Block3	2back/STIM_029.jpg
1680.671	0.685	correct	2back	Block3	2back/STIM_030.jpg
1684.133	0.414	correct	2back	Block3	2back/STIM_030.jpg
1687.026	0.836	correct	2back	Block3	2back/STIM_030.jpg
1691.661	0.848	correct	2back	Block3	2back/STIM_031.jpg
1696.265	0.541	correct	2back	Block3	2back/STIM_031.jpg
1698.978	0.554	correct	2back	Block3	2back/STIM_031.jpg
1701.772	0.716	correct	2back	Block3	2back/STIM_032.jpg
1705.65	0.393	correct	2back	Block3	2back/STIM_032.jpg
1709.909	0.71	correct	2back	Block3	2back/STIM_032.jpg
1714.079	0.61	correct	2back	Block3	2back/STIM_033.jpg
1716.961	0.742	correct	2back	Block3	2back/STIM_033.jpg
1720.886	0.816	correct	2back	Block3	2back/STIM_033.jpg
1724.335	0.736	correct	2back	Block3	2back/STIM_034.jpg
1728.916	0.441	correct	2back	Block3	2back/STIM_034.jpg
1733.485	0.481	correct	2back	Block3	2back/STIM_034.jpg
1737.085	0.435	correct	2back	Block3	2back/STIM_035.jpg
1739.712	0.708	correct	2back	Block3	2back/STIM_035.jpg
1743.614	0.449	correct	2back	Block3	2back/STIM_035.jpg
1748.107	0.73	correct	2back	Block3	2back/STIM_036.jpg
1752.486	0.567	correct	2back	Block3	2back/STIM_036.jpg
1756.574	0.7	correct	2back	Block3	2back/STIM_036.jpg
1759.785	0.624	correct	2back	Block3	2back/STIM_037.jpg
1763.233	0.548	correct	2back	Block3	2back/STIM_037.jpg
1766.88	0.384	correct	2back	Block3	2back/STIM_037.jpg
1770.329	0.584	correct	2back	Block3	2back/STIM_038.jpg
1774.421	0.894	correct	2back	Block3	2back/STIM_038.jpg
1778.106	0.689	correct	2back	Block3	2back/STIM_038.jpg
1781.707	0.718	correct	2back	Block3	2back/STIM_039.jpg
1785.948	0.583	correct	2back	Block3	2back/STIM_039.jpg
1789.694	0.778	correct	2back	Block3	2back/STIM_039.jpg
1793.732	0.447	correct	0back	Block3	0back/STIM_000.jpg
1796.66	0.517	correct	0back	Block3	0back/STIM_000.jpg
1800.239	0.39	correct	0back	Block3	0back/STIM_000.jpg
1803.983	0.324	correct	0back	Block3	0back/STIM_001.jpg
1806.754	0.527	correct	0back	Block3	0back/STIM_001.jpg
1811.267	0.67	correct	0back	Block3	0back/STIM_001.jpg
1815.309	0.318	correct	0back	Block3	0back/STIM_002.jpg
1819.782	0.658	correct	0back	Block3	0back/STIM_002.jpg
1823.963	0.61	correct	0back	Block3	0back/STIM_002.jpg
1828.189	0.709	correct	0back	Block3	0back/STIM_003.jpg
1832.747	0.677	correct	0back	Block3	0back/STIM_003.jpg
1836.791	0.466	correct	0back	Block3	0back/STIM_003.jpg
1841.306	0.638	correct	0back	Block3	0back/STIM_004.jpg
1844.715	0.586	correct	0back	Block3	0back/STIM_004.jpg
1847.835	0.632	correct	0back	Block3	0back/STIM_004.jpg
1851.843	0.38	correct	0back	Block3	0back/STIM_005.jpg
1856.04	0.392	correct	0back	Block3	0back/STIM_005.jpg
1859.267	0.457	correct	0back	Block3	0back/STIM_005.jpg
1862.793	0.647	correct	0back	Block3	0back/STIM_006.jpg
1865.963	0.335	correct	0back	Block3	0back/STIM_006.jpg
1870.136	0.581	correct	0back	Block3	0back/STIM_006.jpg
1874.274	0.61	correct	0back	Block3	0back/STIM_007.jpg
1877.589	0.498	correct	0back	Block3	0back/STIM_007.jpg
1880.671	0.665	correct	0back	Block3	0back/STIM_007.jpg
1884.016	0.401	correct	0back	Block3	0back/STIM_008.jpg
1886.755	0.617	incorrect	0back	Block3	0back/STIM_008.jpg
1891.359	0.678	correct	0back	Block3	0back/STIM_008.jpg
1895.503	0.375	correct	0back	Block3	0back/STIM_009.jpg
1898.608	0.508	correct	0back	Block3	0back/STIM_009.jpg
1902.671	0.36	correct	0back	Block3	0back/STIM_009.jpg
1906.169	0.481	correct	0back	Block3	0back/STIM_010.jpg
1908.987	0.498	correct	0back	Block3	0back/STIM_010.jpg
1912.261	0.554	correct	0back	Block3	0back/STIM_010.jpg
1915.772	0.429	correct	0back	Block3	0back/STIM_011.jpg
1920.068	0.701	correct	0back	Block3	0back/STIM_011.jpg
1923.715	0.513	correct	0back	Block3	0back/STIM_011.jpg
1926.88	0.654	correct	0back	Block3	0back/STIM_012.jpg
1930.197	0.364	correct	0back	Block3	0back/STIM_012.jpg
1932.995	0.63	correct	0back	Block3	0back/STIM_012.jpg
1936.321	0.601	correct	0back	Block3	0back/STIM_013.jpg
1939.603	0.485	correct	0back	Block3	0back/STIM_013.jpg
1943.96	0.492	correct	0back	Block3	0back/STIM_013.jpg
1948.212	0.452	correct	0back	Block3	0back/STIM_014.jpg
1952.012	0.361	correct	0back	Block3	0back/STIM_014.jpg
1954.658	0.398	correct	0back	Block3	0back/STIM_014.jpg
1957.86	0.463	correct	0back	Block3	0back/STIM_015.jpg
1961.667	0.418	correct	0back	Block3	0back/STIM_015.jpg
1965.564	0.444	correct	0back	Block3	0back/STIM_015.jpg
1968.607	0.527	correct	0back	Block3	0back/STIM_016.jpg
1971.954	0.657	correct	0back	Block3	0back/STIM_016.jpg
1974.727	0.579	correct	0back	Block3	0back/STIM_016.jpg
1978.172	0.64	correct	0back	Block3	0back/STIM_017.jpg
1982.093	0.48	correct	0back	Block3	0back/STIM_017.jpg
1985.404	0.388	correct	0back	Block3	0back/STIM_017.jpg
1988.292	0.386	correct	0back	Block3	0back/STIM_018.jpg
1992.343	0.43	correct	0back	Block3	0back/STIM_018.jpg
1996.236	0.426	correct	0back	Block3	0back/STIM_018.jpg
1998.876	0.724	correct	0back	Block3	0back/STIM_019.jpg
2002.814	0.45	correct	0back	Block3	0back/STIM_019.jpg
2006.728	0.393	correct	0back	Block3	0back/STIM_019.jpg
2009.641	0.748	correct	2back	Block4	2back/STIM_000.jpg
2013.053	0.524	correct	2back	Block4	2back/STIM_000.jpg
2015.749	0.662	correct	2back	Block4	2back/STIM_000.jpg
2019.542	0.44	correct	2back	Block4	2back/STIM_001.jpg
2022.087	0.556	correct	2back	Block4	2back/STIM_001.jpg
2025.736	0.681	correct	2back	Block4	2back/STIM_001.jpg
2028.759	0.665	correct	2back	Block4	2back/STIM_002.jpg
2032.189	0.294	correct	2back	Block4	2back/STIM_002.jpg
2035.002	0.568	correct	2back	Block4	2back/STIM_002.jpg
2038.925	0.695	correct	2back	Block4	2back/STIM_003.jpg
2042.475	0.593	correct	2back	Block4	2back/STIM_003.jpg
2046.257	0.888	correct	2back	Block4	2back/STIM_003.jpg
2049.99	0.383	correct	2back	Block4	2back/STIM_004.jpg
2052.969	0.51	correct	2back	Block4	2back/STIM_004.jpg
2056.242	0.494	correct	2back	Block4	2back/STIM_004.jpg
2059.368	0.734	correct	2back	Block4	2back/STIM_005.jpg
2063.287	0.402	correct	2back	Block4	2back/STIM_005.jpg
2066.98	0.658	correct	2back	Block4	2back/STIM_005.jpg
2070.517	0.6	correct	2back	Block4	2back/STIM_006.jpg
2073.48	0.772	correct	2back	Block4	2back/STIM_006.jpg
2077.68	0.71	correct	2back	Block4	2back/STIM_006.jpg
2081.74	0.681	correct	2back	Block4	2back/STIM_007.jpg
2084.561	0.623	correct	2back	Block4	2back/STIM_007.jpg
2087.76	0.682	correct	2back	Block4	2back/STIM_007.jpg
2092.354	0.436	correct	2back	Block4	2back/STIM_008.jpg
2095.101	0.353	correct	2back	Block4	2back/STIM_008.jpg
2098.57	0.548	correct	2back	Block4	2back/STIM_008.jpg
2102.604	0.436	correct	2back	Block4	2back/STIM_009.jpg
2105.147	0.428	correct	2back	Block4	2back/STIM_009.jpg
2109.483	0.649	correct	2back	Block4	2back/STIM_009.jpg
2113.908	0.706	correct	2back	Block4	2back/STIM_010.jpg
2117.94	0.845	correct	2back	Block4	2back/STIM_010.jpg
2120.973	0.748	correct	2back	Block4	2back/STIM_010.jpg
2125.327	0.416	correct	2back	Block4	2back/STIM_011.jpg
2129.097	0.502	correct	2back	Block4	2back/STIM_011.jpg
2131.745	0.369	correct	2back	Block4	2back/STIM_011.jpg
2136.186	0.467	correct	2back	Block4	2back/STIM_012.jpg
2140.364	0.749	correct	2back	Block4	2back/STIM_012.jpg
2144.742	0.455	correct	2back	Block4	2back/STIM_012.jpg
2148.622	0.591	correct	2back	Block4	2back/STIM_013.jpg
2151.552	0.858	correct	2back	Block4	2back/STIM_013.jpg
2154.71	0.61	correct	2back	Block4	2back/STIM_013.jpg
2158.056	0.426	correct	2back	Block4	2back/STIM_014.jpg
2161.982	0.344	correct	2back	Block4	2back/STIM_014.jpg
2165.051	0.759	correct	2back	Block4	2back/STIM_014.jpg
2168.596	0.436	correct	2back	Block4	2back/STIM_015.jpg
2172.68	0.518	correct	2back	Block4	2back/STIM_015.jpg
2176.508	0.637	correct	2back	Block4	2back/STIM_015.jpg
2179.746	0.681	correct	2back	Block4	2back/STIM_016.jpg
2183.18	0.285	correct	2back	Block4	2back/STIM_016.jpg
2186.488	0.737	correct	2back	Block4	2back/STIM_016.jpg
2189.992	0.501	correct	2back	Block4	2back/STIM_017.jpg
2193.364	0.68	correct	2back	Block4	2back/STIM_017.jpg
2196.861	0.497	correct	2back	Block4	2back/STIM_017.jpg
2200.145	0.609	correct	2back	Block4	2back/STIM_018.jpg
2204.665	0.794	correct	2back	Block4	2back/STIM_018.jpg
2209.544	0.384	correct	2back	Block4	2back/STIM_018.jpg
2212.234	0.71	correct	2back	Block4	2back/STIM_019.jpg
2215.935	0.536	correct	2back	Block4	2back/STIM_019.jpg
2219.942	0.581	correct	2back	Block4	2back/STIM_019.jpg
2223.384	0.518	correct	2back	Block4	2back/STIM_020.jpg
2227.589	0.332	correct	2back	Block4	2back/STIM_020.jpg
2230.512	0.599	correct	2back	Block4	2back/STIM_020.jpg
2233.918	0.594	correct	2back	Block4	2back/STIM_021.jpg
2238.324	0.707	correct	2back	Block4	2back/STIM_021.jpg
2241.13	0.538	correct	2back	Block4	2back/STIM_021.jpg
2244.079	0.606	correct	2back	Block4	2back/STIM_022.jpg
2248.225	0.64	correct	2back	Block4	2back/STIM_022.jpg
2251.486	0.485	correct	2back	Block4	2back/STIM_022.jpg
2255.003	0.799	correct	2back	Block4	2back/STIM_023.jpg
2258.035	0.826	correct	2back	Block4	2back/STIM_023.jpg
2262.612	0.935	correct	2back	Block4	2back/STIM_023.jpg
2266.619	0.448	correct	2back	Block4	2back/STIM_024.jpg
2270.506	0.71	correct	2back	Block4	2back/STIM_024.jpg
2273.429	0.721	correct	2back	Block4	2back/STIM_024.jpg
2278.049	0.833	correct	2back	Block4	2back/STIM_025.jpg
2281.238	0.801	correct	2back	Block4	2back/STIM_025.jpg
2285.044	0.446	correct	2back	Block4	2back/STIM_025.jpg
2289.37	0.517	correct	2back	Block4	2back/STIM_026.jpg
2292.131	0.529	correct	2back	Block4	2back/STIM_026.jpg
2295.061	0.788	correct	2back	Block4	2back/STIM_026.jpg
2298.444	0.84	correct	2back	Block4	2back/STIM_027.jpg
2302.447	0.46	correct	2back	Block4	2back/STIM_027.jpg
2306.196	0.423	correct	2back	Block4	2back/STIM_027.jpg
2310.198	0.446	correct	2back	Block4	2back/STIM_028.jpg
2313.531	0.945	correct	2back	Block4	2back/STIM_028.jpg
2317.796	0.53	correct	2back	Block4	2back/STIM_028.jpg
2320.858	0.716	correct	2back	Block4	2back/STIM_029.jpg
2324.663	0.685	correct	2back	Block4	2back/STIM_029.jpg
2329.129	0.622	correct	2back	Block4	2back/STIM_029.jpg
2333.073	0.299	correct	2back	Block4	2back/STIM_030.jpg
2337.007	0.812	correct	2back	Block4	2back/STIM_030.jpg
2341.74	0.559	correct	2back	Block4	2back/STIM_030.jpg
2345.471	0.612	correct	2back	Block4	2back/STIM_031.jpg
2349.926	0.633	correct	2back	Block4	2back/STIM_031.jpg
2353.627	0.515	correct	2back	Block4	2back/STIM_031.jpg
2357.939	0.683	correct	2back	Block4	2back/STIM_032.jpg
2362.097	0.436	correct	2back	Block4	2back/STIM_032.jpg
2366.102	0.679	correct	2back	Block4	2back/STIM_032.jpg
2370.144	0.341	correct	2back	Block4	2back/STIM_033.jpg
2373.328	0.599	correct	2back	Block4	2back/STIM_033.jpg
2377.238	0.705	correct	2back	Block4	2back/STIM_033.jpg
2381.279	0.866	correct	2back	Block4	2back/STIM_034.jpg
2385.656	0.867	correct	2back	Block4	2back/STIM_034.jpg
2390.053	0.343	correct	2back	Block4	2back/STIM_034.jpg
2392.845	0.754	correct	2back	Block4	2back/STIM_035.jpg
2397.419	0.493	correct	2back	Block4	2back/STIM_035.jpg
2400.8	0.716	correct	2back	Block4	2back/STIM_035.jpg
2405.49	0.376	correct	2back	Block4	2back/STIM_036.jpg
2408.008	0.53	correct	2back	Block4	2back/STIM_036.jpg
2411.219	0.414	correct	2back	Block4	2back/STIM_036.jpg
2414.078	0.718	correct	2back	Block4	2back/STIM_037.jpg
2416.934	0.624	correct	2back	Block4	2back/STIM_037.jpg
2420.667	0.637	correct	2back	Block4	2back/STIM_037.jpg
2424.94	0.38	correct	2back	Block4	2back/STIM_038.jpg
2428.159	0.596	correct	2back	Block4	2back/STIM_038.jpg
2432.075	0.569	incorrect	2back	Block4	2back/STIM_038.jpg
2435.782	0.716	correct	2back	Block4	2back/STIM_039.jpg
2439.977	0.602	correct	2back	Block4	2back/STIM_039.jpg
2443.343	0.346	correct	2back	Block4	2back/STIM_039.jpg
2445.843	0.567	correct	0back	Block4	0back/STIM_000.jpg
2450.428	0.545	correct	0back	Block4	0back/STIM_000.jpg
2454.311	0.398	correct	0back	Block4	0back/STIM_000.jpg
2457.395	0.388	correct	0back	Block4	0back/STIM_001.jpg
2461.735	0.603	correct	0back	Block4	0back/STIM_001.jpg
2466.317	0.347	correct	0back	Block4	0back/STIM_001.jpg
2469.192	0.801	correct	0back	Block4	0back/STIM_002.jpg
2472.407	0.514	correct	0back	Block4	0back/STIM_002.jpg
2476.455	0.471	correct	0back	Block4	0back/STIM_002.jpg
2479.111	0.474	correct	0back	Block4	0back/STIM_003.jpg
2482.305	0.436	correct	0back	Block4	0back/STIM_003.jpg
2485.504	0.662	correct	0back	Block4	0back/STIM_003.jpg
2488.281	0.486	correct	0back	Block4	0back/STIM_004.jpg
2492.892	0.672	correct	0back	Block4	0back/STIM_004.jpg
2497.311	0.54	correct	0back	Block4	0back/STIM_004.jpg
2500.297	0.62	correct	0back	Block4	0back/STIM_005.jpg
2504.21	0.496	correct	0back	Block4	0back/STIM_005.jpg
2507.567	0.722	correct	0back	Block4	0back/STIM_005.jpg
2510.386	0.386	correct	0back	Block4	0back/STIM_006.jpg
2512.923	0.402	correct	0back	Block4	0back/STIM_006.jpg
2516.169	0.486	correct	0back	Block4	0back/STIM_006.jpg
2519.773	0.365	correct	0back	Block4	0back/STIM_007.jpg
2522.336	0.474	correct	0back	Block4	0back/STIM_007.jpg
2526.794	0.708	correct	0back	Block4	0back/STIM_007.jpg
2531.259	0.478	incorrect	0back	Block4	0back/STIM_008.jpg
2534.697	0.54	correct	0back	Block4	0back/STIM_008.jpg
2537.52	0.669	correct	0back	Block4	0back/STIM_008.jpg
2541.754	0.371	correct	0back	Block4	0back/STIM_009.jpg
2546.025	0.662	correct	0back	Block4	0back/STIM_009.jpg
2549.959	0.69	correct	0back	Block4	0back/STIM_009.jpg
2553.649	0.507	correct	0back	Block4	0back/STIM_010.jpg
2556.7	0.655	correct	0back	Block4	0back/STIM_010.jpg
2559.53	0.69	correct	0back	Block4	0back/STIM_010.jpg
2562.373	0.44	correct	0back	Block4	0back/STIM_011.jpg
2565.033	0.607	correct	0back	Block4	0back/STIM_011.jpg
2568.146	0.468	correct	0back	Block4	0back/STIM_011.jpg
2572.211	0.63	correct	0back	Block4	0back/STIM_012.jpg
2576.806	0.638	correct	0back	Block4	0back/STIM_012.jpg
2579.646	0.466	correct	0back	Block4	0back/STIM_012.jpg
2582.652	0.542	correct	0back	Block4	0back/STIM_013.jpg
2586.417	0.54	correct	0back	Block4	0back/STIM_013.jpg
2589.752	0.709	correct	0back	Block4	0back/STIM_013.jpg
2592.617	0.468	correct	0back	Block4	0back/STIM_014.jpg
2595.586	0.613	correct	0back	Block4	0back/STIM_014.jpg
2599.398	0.739	correct	0back	Block4	0back/STIM_014.jpg
2603.099	0.578	correct	0back	Block4	0back/STIM_015.jpg
2605.987	0.573	correct	0back	Block4	0back/STIM_015.jpg
2610.62	0.503	correct	0back	Block4	0back/STIM_015.jpg
2614.008	0.403	correct	0back	Block4	0back/STIM_016.jpg
2616.517	0.516	correct	0back	Block4	0back/STIM_016.jpg
2620.275	0.569	correct	0back	Block4	0back/STIM_016.jpg
2623.721	0.708	correct	0back	Block4	0back/STIM_017.jpg
2627.65	0.658	correct	0back	Block4	0back/STIM_017.jpg
2631.26	0.687	correct	0back	Block4	0back/STIM_017.jpg
2634.687	0.494	correct	0back	Block4	0back/STIM_018.jpg
2639.036	0.372	correct	0back	Block4	0back/STIM_018.jpg
2643.454	0.567	correct	0back	Block4	0back/STIM_018.jpg
2646.683	0.643	correct	0back	Block4	0back/STIM_019.jpg
2649.41	0.463	correct	0back	Block4	0back/STIM_019.jpg
2653.658	0.578	correct	0back	Block4	0back/STIM_019.jpg
