onset	duration	accuracy_binary	trial_type	learning_stage	stimulus
0.0	0.928	0	2back	Block1	2back/STIM_000.jpg
4.763	0.773	1	2back	Block1	2back/STIM_000.jpg
9.204	0.808	1	2back	Block1	2back/STIM_000.jpg
13.153	0.765	1	2back	Block1	2back/STIM_001.jpg
16.154	0.985	1	2back	Block1	2back/STIM_001.jpg
20.148	0.65	1	2back	Block1	2back/STIM_001.jpg
23.705	0.574	1	2back	Block1	2back/STIM_002.jpg
27.4	0.512	1	2back	Block1	2back/STIM_002.jpg
30.587	0.842	0	2back	Block1	2back/STIM_002.jpg
33.822	0.592	1	2back	Block1	2back/STIM_003.jpg
38.289	0.935	1	2back	Block1	2back/STIM_003.jpg
42.248	0.638	1	2back	Block1	2back/STIM_003.jpg
45.359	0.838	1	2back	Block1	2back/STIM_004.jpg
49.487	0.601	1	2back	Block1	2back/STIM_004.jpg
52.267	1.071	1	2back	Block1	2back/STIM_004.jpg
56.907	0.855	0	2back	Block1	2back/STIM_005.jpg
60.815	1.158	1	2back	Block1	2back/STIM_005.jpg
65.412	1.065	1	2back	Block1	2back/STIM_005.jpg
69.845	0.839	1	2back	Block1	2back/STIM_006.jpg
73.172	1.105	1	2back	Block1	2back/STIM_006.jpg
77.932	0.788	0	2back	Block1	2back/STIM_006.jpg
82.465	0.695	1	2back	Block1	2back/STIM_007.jpg
85.242	0.797	0	2back	Block1	2back/STIM_007.jpg
88.404	0.98	1	2back	Block1	2back/STIM_007.jpg
91.744	0.772	1	2back	Block1	2back/STIM_008.jpg
94.555	1.102	1	2back	Block1	2back/STIM_008.jpg
99.397	1.029	1	2back	Block1	2back/STIM_008.jpg
104.203	0.906	1	2back	Block1	2back/STIM_009.jpg
107.923	0.663	1	2back	Block1	2back/STIM_009.jpg
112.468	0.516	1	2back	Block1	2back/STIM_009.jpg
115.703	0.888	1	2back	Block1	2back/STIM_010.jpg
119.989	0.509	1	2back	Block1	2back/STIM_010.jpg
124.123	0.723	1	2back	Block1	2back/STIM_010.jpg
126.956	0.8	0	2back	Block1	2back/STIM_011.jpg
130.51	0.876	1	2back	Block1	2back/STIM_011.jpg
134.786	0.978	1	2back	Block1	2back/STIM_011.jpg
139.443	0.97	0	2back	Block1	2back/STIM_012.jpg
142.51	1.095	1	2back	Block1	2back/STIM_012.jpg
146.616	0.66	1	2back	Block1	2back/STIM_012.jpg
150.194	1.033	1	2back	Block1	2back/STIM_013.jpg
153.588	1.006	1	2back	Block1	2back/STIM_013.jpg
157.579	0.536	1	2back	Block1	2back/STIM_013.jpg
160.608	0.562	1	2back	Block1	2back/STIM_014.jpg
164.557	0.717	1	2back	Block1	2back/STIM_014.jpg
167.44	0.642	0	2back	Block1	2back/STIM_014.jpg
170.805	0.671	1	2back	Block1	2back/STIM_015.jpg
173.815	0.844	1	2back	Block1	2back/STIM_015.jpg
178.605	0.629	1	2back	Block1	2back/STIM_015.jpg
182.344	0.831	0	2back	Block1	2back/STIM_016.jpg
185.461	0.625	1	2back	Block1	2back/STIM_016.jpg
189.623	0.59	1	2back	Block1	2back/STIM_016.jpg
192.992	0.593	1	2back	Block1	2back/STIM_017.jpg
196.559	0.806	1	2back	Block1	2back/STIM_017.jpg
200.78	0.661	1	2back	Block1	2back/STIM_017.jpg
204.956	0.574	0	2back	Block1	2back/STIM_018.jpg
209.441	0.641	0	2back	Block1	2back/STIM_018.jpg
212.554	1.052	1	2back	Block1	2back/STIM_018.jpg
215.898	0.71	1	2back	Block1	2back/STIM_019.jpg
219.231	0.904	1	2back	Block1	2back/STIM_019.jpg
223.629	0.489	0	2back	Block1	2back/STIM_019.jpg
226.382	1.112	0	2back	Block1	2back/STIM_020.jpg
231.197	0.905	1	2back	Block1	2back/STIM_020.jpg
234.894	0.509	1	2back	Block1	2back/STIM_020.jpg
238.776	1.065	1	2back	Block1	2back/STIM_021.jpg
242.703	0.883	0	2back	Block1	2back/STIM_021.jpg
246.857	0.582	1	2back	Block1	2back/STIM_021.jpg
249.812	0.658	1	2back	Block1	2back/STIM_022.jpg
254.409	0.653	1	2back	Block1	2back/STIM_022.jpg
257.19	0.763	1	2back	Block1	2back/STIM_022.jpg
261.551	0.867	1	2back	Block1	2back/STIM_023.jpg
264.669	0.98	0	2back	Block1	2back/STIM_023.jpg
269.565	0.66	1	2back	Block1	2back/STIM_023.jpg
272.608	0.662	1	2back	Block1	2back/STIM_024.jpg
276.04	0.995	1	2back	Block1	2back/STIM_024.jpg
280.839	0.716	1	2back	Block1	2back/STIM_024.jpg
285.163	0.753	1	2back	Block1	2back/STIM_025.jpg
288.463	0.958	1	2back	Block1	2back/STIM_025.jpg
293.233	0.803	1	2back	Block1	2back/STIM_025.jpg
296.968	0.555	0	2back	Block1	2back/STIM_026.jpg
300.176	1.007	1	2back	Block1	2back/STIM_026.jpg
303.904	0.915	0	2back	Block1	2back/STIM_026.jpg
307.527	1.019	0	2back	Block1	2back/STIM_027.jpg
312.459	0.838	0	2back	Block1	2back/STIM_027.jpg
316.593	0.475	1	2back	Block1	2back/STIM_027.jpg
320.873	0.558	1	2back	Block1	2back/STIM_028.jpg
325.117	0.728	1	2back	Block1	2back/STIM_028.jpg
328.672	0.769	0	2back	Block1	2back/STIM_028.jpg
332.658	1.054	0	2back	Block1	2back/STIM_029.jpg
337.636	0.866	1	2back	Block1	2back/STIM_029.jpg
340.844	0.673	1	2back	Block1	2back/STIM_029.jpg
343.99	0.965	1	2back	Block1	2back/STIM_030.jpg
347.408	0.901	1	2back	Block1	2back/STIM_030.jpg
351.233	0.672	1	2back	Block1	2back/STIM_030.jpg
354.12	0.81	1	2back	Block1	2back/STIM_031.jpg
357.546	0.904	1	2back	Block1	2back/STIM_031.jpg
362.128	0.697	1	2back	Block1	2back/STIM_031.jpg
366.14	0.82	0	2back	Block1	2back/STIM_032.jpg
369.056	0.825	0	2back	Block1	2back/STIM_032.jpg
373.826	0.696	1	2back	Block1	2back/STIM_032.jpg
377.752	0.625	1	2back	Block1	2back/STIM_033.jpg
381.916	0.624	1	2back	Block1	2back/STIM_033.jpg
384.735	0.755	0	2back	Block1	2back/STIM_033.jpg
388.375	0.551	1	2back	Block1	2back/STIM_034.jpg
392.31	1.039	1	2back	Block1	2back/STIM_034.jpg
397.082	0.76	1	2back	Block1	2back/STIM_034.jpg
401.535	0.614	1	2back	Block1	2back/STIM_035.jpg
404.448	0.585	1	2back	Block1	2back/STIM_035.jpg
408.709	0.692	1	2back	Block1	2back/STIM_035.jpg
413.329	0.946	1	2back	Block1	2back/STIM_036.jpg
417.983	0.724	1	2back	Block1	2back/STIM_036.jpg
422.012	0.721	0	2back	Block1	2back/STIM_036.jpg
425.206	0.797	1	2back	Block1	2back/STIM_037.jpg
428.274	0.995	1	2back	Block1	2back/STIM_037.jpg
432.364	0.807	1	2back	Block1	2back/STIM_037.jpg
437.11	1.224	1	2back	Block1	2back/STIM_038.jpg
441.003	0.794	0	2back	Block1	2back/STIM_038.jpg
444.581	1.064	1	2back	Block1	2back/STIM_038.jpg
448.599	1.084	1	2back	Block1	2back/STIM_039.jpg
453.358	1.139	0	2back	Block1	2back/STIM_039.jpg
457.71	0.923	1	2back	Block1	2back/STIM_039.jpg
461.393	0.573	1	0back	Block1	0back/STIM_000.jpg
464.433	0.475	1	0back	Block1	0back/STIM_000.jpg
468.401	0.446	1	0back	Block1	0back/STIM_000.jpg
470.866	0.567	1	0back	Block1	0back/STIM_001.jpg
474.56	0.461	1	0back	Block1	0back/STIM_001.jpg
478.531	0.357	1	0back	Block1	0back/STIM_001.jpg
482.751	0.616	1	0back	Block1	0back/STIM_002.jpg
486.953	0.534	1	0back	Block1	0back/STIM_002.jpg
490.624	0.587	1	0back	Block1	0back/STIM_002.jpg
495.132	0.611	1	0back	Block1	0back/STIM_003.jpg
499.709	0.595	1	0back	Block1	0back/STIM_003.jpg
502.412	0.64	1	0back	Block1	0back/STIM_003.jpg
505.949	0.525	1	0back	Block1	0back/STIM_004.jpg
510.203	0.404	1	0back	Block1	0back/STIM_004.jpg
513.649	0.461	1	0back	Block1	0back/STIM_004.jpg
518.06	0.394	1	0back	Block1	0back/STIM_005.jpg
520.484	0.686	1	0back	Block1	0back/STIM_005.jpg
524.971	0.519	1	0back	Block1	0back/STIM_005.jpg
527.684	0.679	1	0back	Block1	0back/STIM_006.jpg
531.59	0.477	0	0back	Block1	0back/STIM_006.jpg
534.947	0.642	1	0back	Block1	0back/STIM_006.jpg
538.884	0.632	1	0back	Block1	0back/STIM_007.jpg
543.126	0.509	1	0back	Block1	0back/STIM_007.jpg
546.702	0.686	1	0back	Block1	0back/STIM_007.jpg
551.134	0.668	1	0back	Block1	0back/STIM_008.jpg
555.067	0.505	0	0back	Block1	0back/STIM_008.jpg
559.121	0.43	1	0back	Block1	0back/STIM_008.jpg
562.45	0.433	1	0back	Block1	0back/STIM_009.jpg
566.334	0.64	1	0back	Block1	0back/STIM_009.jpg
570.089	0.386	1	0back	Block1	0back/STIM_009.jpg
573.228	0.499	1	0back	Block1	0back/STIM_010.jpg
576.038	0.635	0	0back	Block1	0back/STIM_010.jpg
579.908	0.448	1	0back	Block1	0back/STIM_010.jpg
583.158	0.439	1	0back	Block1	0back/STIM_011.jpg
586.998	0.417	1	0back	Block1	0back/STIM_011.jpg
590.498	0.667	1	0back	Block1	0back/STIM_011.jpg
594.456	0.496	1	0back	Block1	0back/STIM_012.jpg
598.103	0.493	1	0back	Block1	0back/STIM_012.jpg
601.625	0.534	1	0back	Block1	0back/STIM_012.jpg
604.769	0.511	1	0back	Block1	0back/STIM_013.jpg
607.919	0.581	1	0back	Block1	0back/STIM_013.jpg
611.248	0.675	1	0back	Block1	0back/STIM_013.jpg
614.455	0.629	0	0back	Block1	0back/STIM_014.jpg
617.351	0.587	1	0back	Block1	0back/STIM_014.jpg
621.429	0.477	1	0back	Block1	0back/STIM_014.jpg
624.747	0.587	1	0back	Block1	0back/STIM_015.jpg
627.451	0.365	1	0back	Block1	0back/STIM_015.jpg
630.818	0.378	1	0back	Block1	0back/STIM_015.jpg
634.157	0.353	1	0back	Block1	0back/STIM_016.jpg
636.671	0.582	1	0back	Block1	0back/STIM_016.jpg
640.582	0.547	1	0back	Block1	0back/STIM_016.jpg
643.669	0.448	1	0back	Block1	0back/STIM_017.jpg
646.702	0.508	1	0back	Block1	0back/STIM_017.jpg
650.423	0.375	1	0back	Block1	0back/STIM_017.jpg
653.345	0.494	0	0back	Block1	0back/STIM_018.jpg
655.909	0.562	1	0back	Block1	0back/STIM_018.jpg
659.964	0.675	1	0back	Block1	0back/STIM_018.jpg
663.456	0.678	1	0back	Block1	0back/STIM_019.jpg
666.197	0.655	1	0back	Block1	0back/STIM_019.jpg
670.584	0.599	1	0back	Block1	0back/STIM_019.jpg
674.369	0.651	1	2back	Block2	2back/STIM_000.jpg
678.476	0.551	1	2back	Block2	2back/STIM_000.jpg
682.988	0.558	1	2back	Block2	2back/STIM_000.jpg
687.113	0.679	1	2back	Block2	2back/STIM_001.jpg
689.806	0.489	1	2back	Block2	2back/STIM_001.jpg
692.925	0.907	1	2back	Block2	2back/STIM_001.jpg
696.932	0.941	1	2back	Block2	2back/STIM_002.jpg
700.806	0.596	1	2back	Block2	2back/STIM_002.jpg
704.457	0.569	1	2back	Block2	2back/STIM_002.jpg
708.17	0.463	1	2back	Block2	2back/STIM_003.jpg
710.9	0.937	1	2back	Block2	2back/STIM_003.jpg
714.496	0.8	1	2back	Block2	2back/STIM_003.jpg
719.226	0.809	0	2back	Block2	2back/STIM_004.jpg
723.484	0.759	1	2back	Block2	2back/STIM_004.jpg
727.523	0.877	1	2back	Block2	2back/STIM_004.jpg
732.247	0.488	1	2back	Block2	2back/STIM_005.jpg
736.046	0.749	0	2back	Block2	2back/STIM_005.jpg
738.857	0.732	1	2back	Block2	2back/STIM_005.jpg
742.709	0.511	1	2back	Block2	2back/STIM_006.jpg
746.839	0.653	1	2back	Block2	2back/STIM_006.jpg
751.096	0.812	1	2back	Block2	2back/STIM_006.jpg
754.015	0.457	0	2back	Block2	2back/STIM_007.jpg
757.965	0.74	0	2back	Block2	2back/STIM_007.jpg
762.085	0.516	1	2back	Block2	2back/STIM_007.jpg
764.641	0.995	1	2back	Block2	2back/STIM_008.jpg
767.818	0.627	0	2back	Block2	2back/STIM_008.jpg
771.885	0.434	1	2back	Block2	2back/STIM_008.jpg
775.734	0.854	1	2back	Block2	2back/STIM_009.jpg
779.962	0.751	1	2back	Block2	2back/STIM_009.jpg
783.094	0.485	0	2back	Block2	2back/STIM_009.jpg
786.015	0.79	1	2back	Block2	2back/STIM_010.jpg
789.264	0.483	1	2back	Block2	2back/STIM_010.jpg
792.236	0.587	1	2back	Block2	2back/STIM_010.jpg
796.747	0.767	1	2back	Block2	2back/STIM_011.jpg
801.286	0.697	1	2back	Block2	2back/STIM_011.jpg
805.628	0.547	1	2back	Block2	2back/STIM_011.jpg
808.262	0.707	1	2back	Block2	2back/STIM_012.jpg
811.937	0.819	1	2back	Block2	2back/STIM_012.jpg
816.007	0.608	1	2back	Block2	2back/STIM_012.jpg
819.062	0.713	1	2back	Block2	2back/STIM_013.jpg
823.288	0.553	1	2back	Block2	2back/STIM_013.jpg
827.387	0.661	1	2back	Block2	2back/STIM_013.jpg
830.824	0.605	1	2back	Block2	2back/STIM_014.jpg
834.007	0.899	1	2back	Block2	2back/STIM_014.jpg
837.352	0.688	1	2back	Block2	2back/STIM_014.jpg
840.563	0.646	0	2back	Block2	2back/STIM_015.jpg
844.701	0.52	0	2back	Block2	2back/STIM_015.jpg
847.675	0.748	1	2back	Block2	2back/STIM_015.jpg
851.491	0.785	1	2back	Block2	2back/STIM_016.jpg
854.707	0.911	1	2back	Block2	2back/STIM_016.jpg
858.108	0.863	1	2back	Block2	2back/STIM_016.jpg
862.188	0.672	1	2back	Block2	2back/STIM_017.jpg
865.755	0.857	1	2back	Block2	2back/STIM_017.jpg
870.333	0.49	1	2back	Block2	2back/STIM_017.jpg
873.358	0.946	1	2back	Block2	2back/STIM_018.jpg
876.329	0.536	0	2back	Block2	2back/STIM_018.jpg
879.24	0.405	1	2back	Block2	2back/STIM_018.jpg
883.128	0.987	1	2back	Block2	2back/STIM_019.jpg
886.934	0.789	1	2back	Block2	2back/STIM_019.jpg
891.197	0.465	1	2back	Block2	2back/STIM_019.jpg
895.041	0.749	1	2back	Block2	2back/STIM_020.jpg
898.01	0.98	1	2back	Block2	2back/STIM_020.jpg
902.4	0.569	1	2back	Block2	2back/STIM_020.jpg
906.116	0.612	1	2back	Block2	2back/STIM_021.jpg
909.09	0.876	1	2back	Block2	2back/STIM_021.jpg
912.34	0.526	1	2back	Block2	2back/STIM_021.jpg
915.291	0.755	1	2back	Block2	2back/STIM_022.jpg
919.029	0.666	1	2back	Block2	2back/STIM_022.jpg
922.03	0.771	1	2back	Block2	2back/STIM_022.jpg
925.671	1.016	1	2back	Block2	2back/STIM_023.jpg
928.912	0.538	1	2back	Block2	2back/STIM_023.jpg
933.38	0.835	0	2back	Block2	2back/STIM_023.jpg
936.254	0.568	1	2back	Block2	2back/STIM_024.jpg
940.435	0.688	1	2back	Block2	2back/STIM_024.jpg
943.763	0.609	1	2back	Block2	2back/STIM_024.jpg
947.41	0.702	1	2back	Block2	2back/STIM_025.jpg
952.086	0.898	1	2back	Block2	2back/STIM_025.jpg
956.267	0.603	1	2back	Block2	2back/STIM_025.jpg
959.519	0.765	1	2back	Block2	2back/STIM_026.jpg
962.978	0.654	1	2back	Block2	2back/STIM_026.jpg
966.85	0.629	1	2back	Block2	2back/STIM_026.jpg
970.766	0.596	1	2back	Block2	2back/STIM_027.jpg
974.948	0.584	1	2back	Block2	2back/STIM_027.jpg
977.554	0.895	0	2back	Block2	2back/STIM_027.jpg
981.078	0.862	1	2back	Block2	2back/STIM_028.jpg
984.995	0.883	1	2back	Block2	2back/STIM_028.jpg
987.881	0.556	1	2back	Block2	2back/STIM_028.jpg
991.726	0.497	1	2back	Block2	2back/STIM_029.jpg
994.646	0.803	1	2back	Block2	2back/STIM_029.jpg
998.802	0.536	1	2back	Block2	2back/STIM_029.jpg
1002.25	0.669	1	2back	Block2	2back/STIM_030.jpg
1006.757	0.796	1	2back	Block2	2back/STIM_030.jpg
1009.824	0.784	1	2back	Block2	2back/STIM_030.jpg
1014.078	0.496	1	2back	Block2	2back/STIM_031.jpg
1016.91	0.554	0	2back	Block2	2back/STIM_031.jpg
1019.77	0.801	1	2back	Block2	2back/STIM_031.jpg
1024.563	0.834	0	2back	Block2	2back/STIM_032.jpg
1029.268	0.886	1	2back	Block2	2back/STIM_032.jpg
1033.309	0.558	1	2back	Block2	2back/STIM_032.jpg
1037.389	0.476	1	2back	Block2	2back/STIM_033.jpg
1040.933	0.902	1	2back	Block2	2back/STIM_033.jpg
1044.698	0.402	1	2back	Block2	2back/STIM_033.jpg
1047.828	0.903	1	2back	Block2	2back/STIM_034.jpg
1051.361	0.859	1	2back	Block2	2back/STIM_034.jpg
1055.785	0.494	1	2back	Block2	2back/STIM_034.jpg
1059.066	0.896	1	2back	Block2	2back/STIM_035.jpg
1062.585	0.962	1	2back	Block2	2back/STIM_035.jpg
1066.204	0.801	0	2back	Block2	2back/STIM_035.jpg
1069.268	0.975	0	2back	Block2	2back/STIM_036.jpg
1074.126	0.645	1	2back	Block2	2back/STIM_036.jpg
1077.651	0.815	1	2back	Block2	2back/STIM_036.jpg
1081.429	0.967	0	2back	Block2	2back/STIM_037.jpg
1085.014	0.538	1	2back	Block2	2back/STIM_037.jpg
1089.372	0.722	1	2back	Block2	2back/STIM_037.jpg
1092.429	0.978	1	2back	Block2	2back/STIM_038.jpg
1096.968	0.856	1	2back	Block2	2back/STIM_038.jpg
1100.709	0.618	1	2back	Block2	2back/STIM_038.jpg
1104.942	0.512	0	2back	Block2	2back/STIM_039.jpg
1108.259	0.587	1	2back	Block2	2back/STIM_039.jpg
1112.572	0.541	0	2back	Block2	2back/STIM_039.jpg
1115.961	0.53	1	0back	Block2	0back/STIM_000.jpg
1118.796	0.377	1	0back	Block2	0back/STIM_000.jpg
1122.056	0.602	1	0back	Block2	0back/STIM_000.jpg
1126.639	0.589	1	0back	Block2	0back/STIM_001.jpg
1130.589	0.435	1	0back	Block2	0back/STIM_001.jpg
1133.039	0.63	1	0back	Block2	0back/STIM_001.jpg
1136.27	0.36	1	0back	Block2	0back/STIM_002.jpg
1138.632	0.508	1	0back	Block2	0back/STIM_002.jpg
1142.207	0.648	0	0back	Block2	0back/STIM_002.jpg
1145.256	0.567	1	0back	Block2	0back/STIM_003.jpg
1149.672	0.465	1	0back	Block2	0back/STIM_003.jpg
1154.084	0.359	1	0back	Block2	0back/STIM_003.jpg
1156.727	0.381	1	0back	Block2	0back/STIM_004.jpg
1160.166	0.52	1	0back	Block2	0back/STIM_004.jpg
1163.857	0.587	1	0back	Block2	0back/STIM_004.jpg
1166.825	0.659	1	0back	Block2	0back/STIM_005.jpg
1170.775	0.63	1	0back	Block2	0back/STIM_005.jpg
1174.113	0.488	1	0back	Block2	0back/STIM_005.jpg
1177.32	0.629	1	0back	Block2	0back/STIM_006.jpg
1181.441	0.469	1	0back	Block2	0back/STIM_006.jpg
1184.02	0.462	1	0back	Block2	0back/STIM_006.jpg
1188.097	0.548	1	0back	Block2	0back/STIM_007.jpg
1190.972	0.554	1	0back	Block2	0back/STIM_007.jpg
1195.179	0.619	1	0back	Block2	0back/STIM_007.jpg
1198.223	0.394	1	0back	Block2	0back/STIM_008.jpg
1202.595	0.372	1	0back	Block2	0back/STIM_008.jpg
1206.382	0.654	1	0back	Block2	0back/STIM_008.jpg
1209.076	0.539	1	0back	Block2	0back/STIM_009.jpg
1213.205	0.546	0	0back	Block2	0back/STIM_009.jpg
1216.257	0.58	1	0back	Block2	0back/STIM_009.jpg
1220.272	0.631	1	0back	Block2	0back/STIM_010.jpg
1223.285	0.482	1	0back	Block2	0back/STIM_010.jpg
1227.668	0.666	1	0back	Block2	0back/STIM_010.jpg
1231.972	0.609	1	0back	Block2	0back/STIM_011.jpg
1235.164	0.641	1	0back	Block2	0back/STIM_011.jpg
1239.266	0.613	1	0back	Block2	0back/STIM_011.jpg
1243.295	0.701	1	0back	Block2	0back/STIM_012.jpg
1246.44	0.642	1	0back	Block2	0back/STIM_012.jpg
1249.548	0.436	1	0back	Block2	0back/STIM_012.jpg
1252.463	0.617	1	0back	Block2	0back/STIM_013.jpg
1256.26	0.598	1	0back	Block2	0back/STIM_013.jpg
1259.319	0.657	1	0back	Block2	0back/STIM_013.jpg
1262.548	0.646	1	0back	Block2	0back/STIM_014.jpg
1266.99	0.642	1	0back	Block2	0back/STIM_014.jpg
1270.735	0.594	1	0back	Block2	0back/STIM_014.jpg
1274.651	0.478	1	0back	Block2	0back/STIM_015.jpg
1278.217	0.674	0	0back	Block2	0back/STIM_015.jpg
1282.394	0.655	1	0back	Block2	0back/STIM_015.jpg
1285.64	0.687	1	0back	Block2	0back/STIM_016.jpg
1289.211	0.467	0	0back	Block2	0back/STIM_016.jpg
1292.414	0.419	1	0back	Block2	0back/STIM_016.jpg
1295.511	0.564	1	0back	Block2	0back/STIM_017.jpg
1298.208	0.686	1	0back	Block2	0back/STIM_017.jpg
1301.284	0.563	1	0back	Block2	0back/STIM_017.jpg
1304.307	0.423	0	0back	Block2	0back/STIM_018.jpg
1308.495	0.476	1	0back	Block2	0back/STIM_018.jpg
1311.953	0.53	1	0back	Block2	0back/STIM_018.jpg
1316.374	0.57	0	0back	Block2	0back/STIM_019.jpg
1320.224	0.452	1	0back	Block2	0back/STIM_019.jpg
1324.071	0.408	1	0back	Block2	0back/STIM_019.jpg
1327.622	0.721	1	2back	Block3	2back/STIM_000.jpg
1331.826	0.589	1	2back	Block3	2back/STIM_000.jpg
1336.011	0.518	1	2back	Block3	2back/STIM_000.jpg
1339.808	0.484	1	2back	Block3	2back/STIM_001.jpg
1343.686	0.608	1	2back	Block3	2back/STIM_001.jpg
1346.8	0.846	1	2back	Block3	2back/STIM_001.jpg
1349.774	0.759	0	2back	Block3	2back/STIM_002.jpg
1353.081	0.761	1	2back	Block3	2back/STIM_002.jpg
1357.735	0.597	1	2back	Block3	2back/STIM_002.jpg
1362.15	0.496	1	2back	Block3	2back/STIM_003.jpg
1366.039	0.554	1	2back	Block3	2back/STIM_003.jpg
1368.944	0.491	1	2back	Block3	2back/STIM_003.jpg
1373.176	0.73	1	2back	Block3	2back/STIM_004.jpg
1377.582	0.4	1	2back	Block3	2back/STIM_004.jpg
1380.478	0.73	1	2back	Block3	2back/STIM_004.jpg
1383.582	0.411	1	2back	Block3	2back/STIM_005.jpg
1386.256	0.789	1	2back	Block3	2back/STIM_005.jpg
1390.302	0.75	1	2back	Block3	2back/STIM_005.jpg
1393.409	0.671	1	2back	Block3	2back/STIM_006.jpg
1398.075	0.374	1	2back	Block3	2back/STIM_006.jpg
1400.463	0.748	1	2back	Block3	2back/STIM_006.jpg
1403.495	0.585	1	2back	Block3	2back/STIM_007.jpg
1406.085	0.638	1	2back	Block3	2back/STIM_007.jpg
1410.318	0.605	1	2back	Block3	2back/STIM_007.jpg
1413.682	0.552	1	2back	Block3	2back/STIM_008.jpg
1418.221	0.498	1	2back	Block3	2back/STIM_008.jpg
1422.164	0.744	1	2back	Block3	2back/STIM_008.jpg
1425.863	0.602	1	2back	Block3	2back/STIM_009.jpg
1429.413	0.644	1	2back	Block3	2back/STIM_009.jpg
1433.47	0.488	1	2back	Block3	2back/STIM_009.jpg
1437.895	0.496	1	2back	Block3	2back/STIM_010.jpg
1441.9	0.6	1	2back	Block3	2back/STIM_010.jpg
1446.028	0.38	1	2back	Block3	2back/STIM_010.jpg
1449.138	0.728	1	2back	Block3	2back/STIM_011.jpg
1453.726	0.64	1	2back	Block3	2back/STIM_011.jpg
1457.589	0.527	1	2back	Block3	2back/STIM_011.jpg
1460.775	0.507	1	2back	Block3	2back/STIM_012.jpg
1463.852	0.803	1	2back	Block3	2back/STIM_012.jpg
1467.908	0.698	1	2back	Block3	2back/STIM_012.jpg
1471.186	0.59	1	2back	Block3	2back/STIM_013.jpg
1475.164	0.598	1	2back	Block3	2back/STIM_013.jpg
1478.976	0.665	1	2back	Block3	2back/STIM_013.jpg
1483.231	0.769	1	2back	Block3	2back/STIM_014.jpg
1487.663	0.66	1	2back	Block3	2back/STIM_014.jpg
1491.327	0.584	1	2back	Block3	2back/STIM_014.jpg
1494.432	0.815	1	2back	Block3	2back/STIM_015.jpg
1497.81	0.444	1	2back	Block3	2back/STIM_015.jpg
1502.107	0.567	1	2back	Block3	2back/STIM_015.jpg
1506.115	0.593	1	2back	Block3	2back/STIM_016.jpg
1509.241	0.462	1	2back	Block3	2back/STIM_016.jpg
1513.657	0.795	1	2back	Block3	2back/STIM_016.jpg
1517.978	0.651	1	2back	Block3	2back/STIM_017.jpg
1521.484	0.722	1	2back	Block3	2back/STIM_017.jpg
1525.029	0.492	1	2back	Block3	2back/STIM_017.jpg
1529.322	0.772	1	2back	Block3	2back/STIM_018.jpg
1533.172	0.489	1	2back	Block3	2back/STIM_018.jpg
1536.722	0.552	1	2back	Block3	2back/STIM_018.jpg
1539.445	0.565	1	2back	Block3	2back/STIM_019.jpg
1543.249	0.548	0	2back	Block3	2back/STIM_019.jpg
1547.39	0.64	1	2back	Block3	2back/STIM_019.jpg
1551.892	0.51	1	2back	Block3	2back/STIM_020.jpg
1554.549	0.824	1	2back	Block3	2back/STIM_020.jpg
1557.798	0.65	1	2back	Block3	2back/STIM_020.jpg
1560.881	0.589	1	2back	Block3	2back/STIM_021.jpg
1564.748	0.49	1	2back	Block3	2back/STIM_021.jpg
1567.997	0.809	1	2back	Block3	2back/STIM_021.jpg
1570.938	0.378	1	2back	Block3	2back/STIM_022.jpg
1575.261	0.525	1	2back	Block3	2back/STIM_022.jpg
1578.303	0.564	1	2back	Block3	2back/STIM_022.jpg
1581.924	0.648	1	2back	Block3	2back/STIM_023.jpg
1586.449	0.471	1	2back	Block3	2back/STIM_023.jpg
1589.338	0.553	1	2back	Block3	2back/STIM_023.jpg
1593.326	0.7	1	2back	Block3	2back/STIM_024.jpg
1597.377	0.771	1	2back	Block3	2back/STIM_024.jpg
1601.871	0.577	1	2back	Block3	2back/STIM_024.jpg
1605.412	0.558	1	2back	Block3	2back/STIM_025.jpg
1608.762	0.793	1	2back	Block3	2back/STIM_025.jpg
1613.551	0.71	1	2back	Block3	2back/STIM_025.jpg
1617.077	0.563	1	2back	Block3	2back/STIM_026.jpg
1620.782	0.602	0	2back	Block3	2back/STIM_026.jpg
1624.967	0.407	1	2back	Block3	2back/STIM_026.jpg
1629.085	0.471	1	2back	Block3	2back/STIM_027.jpg
1632.608	0.541	1	2back	Block3	2back/STIM_027.jpg
1636.662	0.425	0	2back	Block3	2back/STIM_027.jpg
1640.805	0.778	1	2back	Block3	2back/STIM_028.jpg
1643.987	0.423	1	2back	Block3	2back/STIM_028.jpg
1647.573	0.497	1	2back	Block3	2back/STIM_028.jpg
1651.902	0.857	1	2back	Block3	2back/STIM_029.jpg
1655.232	0.814	1	2back	Block3	2back/STIM_029.jpg
1658.846	0.566	1	2back	Block3	2back/STIM_029.jpg
1663.307	0.698	1	2back	Block3	2back/STIM_030.jpg
1667.493	0.579	1	2back	Block3	2back/STIM_030.jpg
1672.072	0.554	1	2back	Block3	2back/STIM_030.jpg
1676.054	0.52	1	2back	Block3	2back/STIM_031.jpg
1679.357	0.639	1	2back	Block3	2back/STIM_031.jpg
1683.94	0.416	1	2back	Block3	2back/STIM_031.jpg
1686.484	0.741	1	2back	Block3	2back/STIM_032.jpg
1689.665	0.633	1	2back	Block3	2back/STIM_032.jpg
1693.865	0.747	1	2back	Block3	2back/STIM_032.jpg
1698.451	0.599	1	2back	Block3	2back/STIM_033.jpg
1702.631	0.483	1	2back	Block3	2back/STIM_033.jpg
1706.767	0.538	1	2back	Block3	2back/STIM_033.jpg
1710.225	0.433	0	2back	Block3	2back/STIM_034.jpg
1713.922	0.826	1	2back	Block3	2back/STIM_034.jpg
1717.769	0.597	1	2back	Block3	2back/STIM_034.jpg
1721.977	0.435	1	2back	Block3	2back/STIM_035.jpg
1726.25	0.49	1	2back	Block3	2back/STIM_035.jpg
1729.032	0.639	1	2back	Block3	2back/STIM_035.jpg
1731.852	0.496	1	2back	Block3	2back/STIM_036.jpg
1734.991	0.476	0	2back	Block3	2back/STIM_036.jpg
1739.408	0.493	1	2back	Block3	2back/STIM_036.jpg
1742.739	0.673	1	2back	Block3	2back/STIM_037.jpg
1746.519	0.729	0	2back	Block3	2back/STIM_037.jpg
1750.18	0.467	1	2back	Block3	2back/STIM_037.jpg
1754.246	0.552	1	2back	Block3	2back/STIM_038.jpg
1757.157	0.582	1	2back	Block3	2back/STIM_038.jpg
1760.468	0.5	1	2back	Block3	2back/STIM_038.jpg
1764.254	0.743	1	2back	Block3	2back/STIM_039.jpg
1768.035	0.786	1	2back	Block3	2back/STIM_039.jpg
1770.942	0.39	1	2back	Block3	2back/STIM_039.jpg
1774.637	0.668	0	0back	Block3	0back/STIM_000.jpg
1778.989	0.632	1	0back	Block3	0back/STIM_000.jpg
1781.922	0.367	1	0back	Block3	0back/STIM_000.jpg
1785.06	0.645	1	0back	Block3	0back/STIM_001.jpg
1788.524	0.616	1	0back	Block3	0back/STIM_001.jpg
1791.788	0.445	1	0back	Block3	0back/STIM_001.jpg
1795.117	0.368	1	0back	Block3	0back/STIM_002.jpg
1797.724	0.665	1	0back	Block3	0back/STIM_002.jpg
1801.424	0.393	1	0back	Block3	0back/STIM_002.jpg
1803.834	0.614	1	0back	Block3	0back/STIM_003.jpg
1806.505	0.566	1	0back	Block3	0back/STIM_003.jpg
1809.611	0.415	1	0back	Block3	0back/STIM_003.jpg
1813.001	0.433	1	0back	Block3	0back/STIM_004.jpg
1816.327	0.605	1	0back	Block3	0back/STIM_004.jpg
1819.647	0.521	1	0back	Block3	0back/STIM_004.jpg
1823.213	0.696	1	0back	Block3	0back/STIM_005.jpg
1826.542	0.624	1	0back	Block3	0back/STIM_005.jpg
1830.305	0.579	1	0back	Block3	0back/STIM_005.jpg
1833.617	0.506	1	0back	Block3	0back/STIM_006.jpg
1836.644	0.365	1	0back	Block3	0back/STIM_006.jpg
1839.675	0.586	1	0back	Block3	0back/STIM_006.jpg
1844.059	0.46	1	0back	Block3	0back/STIM_007.jpg
1847.987	0.514	1	0back	Block3	0back/STIM_007.jpg
1850.524	0.466	1	0back	Block3	0back/STIM_007.jpg
1854.688	0.696	1	0back	Block3	0back/STIM_008.jpg
1858.996	0.539	0	0back	Block3	0back/STIM_008.jpg
1862.633	0.488	1	0back	Block3	0back/STIM_008.jpg
1866.414	0.42	1	0back	Block3	0back/STIM_009.jpg
1868.997	0.432	1	0back	Block3	0back/STIM_009.jpg
1871.531	0.416	1	0back	Block3	0back/STIM_009.jpg
1875.507	0.47	1	0back	Block3	0back/STIM_010.jpg
1879.736	0.593	1	0back	Block3	0back/STIM_010.jpg
1883.192	0.389	1	0back	Block3	0back/STIM_010.jpg
1886.191	0.511	1	0back	Block3	0back/STIM_011.jpg
1890.492	0.491	1	0back	Block3	0back/STIM_011.jpg
1893.466	0.513	1	0back	Block3	0back/STIM_011.jpg
1897.8	0.4	1	0back	Block3	0back/STIM_012.jpg
1900.453	0.527	1	0back	Block3	0back/STIM_012.jpg
1904.239	0.402	0	0back	Block3	0back/STIM_012.jpg
1907.409	0.541	1	0back	Block3	0back/STIM_013.jpg
1909.973	0.595	1	0back	Block3	0back/STIM_013.jpg
1913.922	0.351	1	0back	Block3	0back/STIM_013.jpg
1917.927	0.367	1	0back	Block3	0back/STIM_014.jpg
1922.159	0.413	1	0back	Block3	0back/STIM_014.jpg
1925.727	0.538	1	0back	Block3	0back/STIM_014.jpg
1930.187	0.624	1	0back	Block3	0back/STIM_015.jpg
1934.803	0.634	0	0back	Block3	0back/STIM_015.jpg
1938.338	0.553	1	0back	Block3	0back/STIM_015.jpg
1942.091	0.4	1	0back	Block3	0back/STIM_016.jpg
1946.319	0.475	1	0back	Block3	0back/STIM_016.jpg
1949.98	0.477	1	0back	Block3	0back/STIM_016.jpg
1953.836	0.404	1	0back	Block3	0back/STIM_017.jpg
1958.103	0.367	1	0back	Block3	0back/STIM_017.jpg
1960.616	0.655	1	0back	Block3	0back/STIM_017.jpg
1963.983	0.694	1	0back	Block3	0back/STIM_018.jpg
1967.915	0.518	1	0back	Block3	0back/STIM_018.jpg
1971.024	0.535	1	0back	Block3	0back/STIM_018.jpg
1973.598	0.632	0	0back	Block3	0back/STIM_019.jpg
1977.119	0.552	1	0back	Block3	0back/STIM_019.jpg
1979.684	0.537	1	0back	Block3	0back/STIM_019.jpg
1983.87	0.852	1	2back	Block4	2back/STIM_000.jpg
1987.488	0.611	1	2back	Block4	2back/STIM_000.jpg
1991.76	0.549	1	2back	Block4	2back/STIM_000.jpg
1996.275	0.532	1	2back	Block4	2back/STIM_001.jpg
1999.625	0.42	1	2back	Block4	2back/STIM_001.jpg
2002.229	0.541	1	2back	Block4	2back/STIM_001.jpg
2005.566	0.626	1	2back	Block4	2back/STIM_002.jpg
2008.482	0.856	1	2back	Block4	2back/STIM_002.jpg
2011.678	0.477	1	2back	Block4	2back/STIM_002.jpg
2014.759	0.609	1	2back	Block4	2back/STIM_003.jpg
2018.4	0.61	1	2back	Block4	2back/STIM_003.jpg
2022.653	0.475	1	2back	Block4	2back/STIM_003.jpg
2026.213	0.6	1	2back	Block4	2back/STIM_004.jpg
2030.73	0.717	1	2back	Block4	2back/STIM_004.jpg
2034.503	0.626	1	2back	Block4	2back/STIM_004.jpg
2038.493	0.417	0	2back	Block4	2back/STIM_005.jpg
2041.747	0.396	1	2back	Block4	2back/STIM_005.jpg
2046.001	0.843	1	2back	Block4	2back/STIM_005.jpg
2049.786	0.677	1	2back	Block4	2back/STIM_006.jpg
2052.897	0.383	1	2back	Block4	2back/STIM_006.jpg
2055.731	0.468	1	2back	Block4	2back/STIM_006.jpg
2058.791	0.604	1	2back	Block4	2back/STIM_007.jpg
2063.131	0.381	1	2back	Block4	2back/STIM_007.jpg
2066.646	0.599	1	2back	Block4	2back/STIM_007.jpg
2070.873	0.766	1	2back	Block4	2back/STIM_008.jpg
2074.069	0.585	1	2back	Block4	2back/STIM_008.jpg
2078.645	0.741	1	2back	Block4	2back/STIM_008.jpg
2082.758	0.455	1	2back	Block4	2back/STIM_009.jpg
2087.08	0.757	1	2back	Block4	2back/STIM_009.jpg
2090.757	0.6	1	2back	Block4	2back/STIM_009.jpg
2094.084	0.575	1	2back	Block4	2back/STIM_010.jpg
2096.815	0.411	1	2back	Block4	2back/STIM_010.jpg
2100.253	0.628	1	2back	Block4	2back/STIM_010.jpg
2103.655	0.48	1	2back	Block4	2back/STIM_011.jpg
2107.683	0.513	1	2back	Block4	2back/STIM_011.jpg
2110.86	0.503	1	2back	Block4	2back/STIM_011.jpg
2114.07	0.406	1	2back	Block4	2back/STIM_012.jpg
2116.751	0.857	1	2back	Block4	2back/STIM_012.jpg
2121.211	0.712	1	2back	Block4	2back/STIM_012.jpg
2124.341	0.685	1	2back	Block4	2back/STIM_013.jpg
2127.135	0.657	1	2back	Block4	2back/STIM_013.jpg
2131.681	0.854	1	2back	Block4	2back/STIM_013.jpg
2136.067	0.723	1	2back	Block4	2back/STIM_014.jpg
2140.743	0.463	1	2back	Block4	2back/STIM_014.jpg
2143.568	0.727	1	2back	Block4	2back/STIM_014.jpg
2146.496	0.619	1	2back	Block4	2back/STIM_015.jpg
2150.4	0.836	1	2back	Block4	2back/STIM_015.jpg
2154.057	0.57	1	2back	Block4	2back/STIM_015.jpg
2158.051	0.78	1	2back	Block4	2back/STIM_016.jpg
2162.518	0.49	1	2back	Block4	2back/STIM_016.jpg
2165.415	0.426	1	2back	Block4	2back/STIM_016.jpg
2169.391	0.636	1	2back	Block4	2back/STIM_017.jpg
2172.831	0.446	1	2back	Block4	2back/STIM_017.jpg
2175.715	0.556	1	2back	Block4	2back/STIM_017.jpg
2178.398	0.769	1	2back	Block4	2back/STIM_018.jpg
2181.626	0.483	1	2back	Block4	2back/STIM_018.jpg
2185.713	0.537	1	2back	Block4	2back/STIM_018.jpg
2189.989	0.836	1	2back	Block4	2back/STIM_019.jpg
2193.001	0.762	1	2back	Block4	2back/STIM_019.jpg
2195.765	0.72	1	2back	Block4	2back/STIM_019.jpg
2198.638	0.701	1	2back	Block4	2back/STIM_020.jpg
2202.292	0.399	1	2back	Block4	2back/STIM_020.jpg
2205.074	0.694	1	2back	Block4	2back/STIM_020.jpg
2209.114	0.673	1	2back	Block4	2back/STIM_021.jpg
2212.56	0.583	1	2back	Block4	2back/STIM_021.jpg
2215.296	0.764	1	2back	Block4	2back/STIM_021.jpg
2219.322	0.535	1	2back	Block4	2back/STIM_022.jpg
2222.101	0.78	1	2back	Block4	2back/STIM_022.jpg
2225.272	0.431	1	2back	Block4	2back/STIM_022.jpg
2228.584	0.79	1	2back	Block4	2back/STIM_023.jpg
2233.218	0.592	1	2back	Block4	2back/STIM_023.jpg
2236.461	0.387	1	2back	Block4	2back/STIM_023.jpg
2239.531	0.683	1	2back	Block4	2back/STIM_024.jpg
2242.477	0.788	1	2back	Block4	2back/STIM_024.jpg
2246.229	0.565	1	2back	Block4	2back/STIM_024.jpg
2250.329	0.434	1	2back	Block4	2back/STIM_025.jpg
2254.728	0.495	0	2back	Block4	2back/STIM_025.jpg
2257.795	0.73	1	2back	Block4	2back/STIM_025.jpg
2261.479	0.517	1	2back	Block4	2back/STIM_026.jpg
2264.068	0.404	1	2back	Block4	2back/STIM_026.jpg
2266.711	0.736	1	2back	Block4	2back/STIM_026.jpg
2271.055	0.402	1	2back	Block4	2back/STIM_027.jpg
2274.749	0.532	1	2back	Block4	2back/STIM_027.jpg
2279.22	0.421	1	2back	Block4	2back/STIM_027.jpg
2282.966	0.744	1	2back	Block4	2back/STIM_028.jpg
2287.649	0.411	1	2back	Block4	2back/STIM_028.jpg
2291.686	0.377	1	2back	Block4	2back/STIM_028.jpg
2294.344	0.372	1	2back	Block4	2back/STIM_029.jpg
2298.284	0.831	1	2back	Block4	2back/STIM_029.jpg
2301.225	0.746	1	2back	Block4	2back/STIM_029.jpg
2304.547	0.447	1	2back	Block4	2back/STIM_030.jpg
2307.385	0.513	0	2back	Block4	2back/STIM_030.jpg
2310.281	0.55	1	2back	Block4	2back/STIM_030.jpg
2314.765	0.47	1	2back	Block4	2back/STIM_031.jpg
2318.666	0.81	1	2back	Block4	2back/STIM_031.jpg
2323.232	0.798	1	2back	Block4	2back/STIM_031.jpg
2326.629	0.433	1	2back	Block4	2back/STIM_032.jpg
2329.988	0.796	1	2back	Block4	2back/STIM_032.jpg
2333.736	0.838	1	2back	Block4	2back/STIM_032.jpg
2337.369	0.379	1	2back	Block4	2back/STIM_033.jpg
2340.7	0.414	1	2back	Block4	2back/STIM_033.jpg
2344.885	0.485	1	2back	Block4	2back/STIM_033.jpg
2347.604	0.463	1	2back	Block4	2back/STIM_034.jpg
2351.883	0.707	1	2back	Block4	2back/STIM_034.jpg
2355.854	0.522	1	2back	Block4	2back/STIM_034.jpg
2358.885	0.774	1	2back	Block4	2back/STIM_035.jpg
2361.837	0.666	1	2back	Block4	2back/STIM_035.jpg
2365.469	0.402	1	2back	Block4	2back/STIM_035.jpg
2368.556	0.478	1	2back	Block4	2back/STIM_036.jpg
2372.432	0.722	1	2back	Block4	2back/STIM_036.jpg
2376.813	0.386	1	2back	Block4	2back/STIM_036.jpg
2381.037	0.431	1	2back	Block4	2back/STIM_037.jpg
2383.926	0.574	1	2back	Block4	2back/STIM_037.jpg
2388.236	0.448	1	2back	Block4	2back/STIM_037.jpg
2391.311	0.56	1	2back	Block4	2back/STIM_038.jpg
2393.926	0.545	1	2back	Block4	2back/STIM_038.jpg
2397.629	0.412	0	2back	Block4	2back/STIM_038.jpg
2401.757	0.62	1	2back	Block4	2back/STIM_039.jpg
2406.36	0.83	1	2back	Block4	2back/STIM_039.jpg
2409.282	0.482	1	2back	Block4	2back/STIM_039.jpg
2412.09	0.578	1	0back	Block4	0back/STIM_000.jpg
2414.679	0.669	1	0back	Block4	0back/STIM_000.jpg
2417.679	0.68	1	0back	Block4	0back/STIM_000.jpg
2422.072	0.54	1	0back	Block4	0back/STIM_001.jpg
2424.8	0.438	1	0back	Block4	0back/STIM_001.jpg
2429.064	0.447	1	0back	Block4	0back/STIM_001.jpg
2431.873	0.637	1	0back	Block4	0back/STIM_002.jpg
2435.817	0.667	1	0back	Block4	0back/STIM_002.jpg
2439.411	0.635	1	0back	Block4	0back/STIM_002.jpg
2442.263	0.698	1	0back	Block4	0back/STIM_003.jpg
2446.613	0.62	1	0back	Block4	0back/STIM_003.jpg
2449.973	0.466	1	0back	Block4	0back/STIM_003.jpg
2453.446	0.467	1	0back	Block4	0back/STIM_004.jpg
2457.02	0.521	1	0back	Block4	0back/STIM_004.jpg
2460.628	0.62	1	0back	Block4	0back/STIM_004.jpg
2463.995	0.674	1	0back	Block4	0back/STIM_005.jpg
2467.133	0.484	1	0back	Block4	0back/STIM_005.jpg
2470.136	0.595	1	0back	Block4	0back/STIM_005.jpg
2474.543	0.576	1	0back	Block4	0back/STIM_006.jpg
2477.609	0.4	1	0back	Block4	0back/STIM_006.jpg
2481.706	0.469	1	0back	Block4	0back/STIM_006.jpg
2485.656	0.635	1	0back	Block4	0back/STIM_007.jpg
2488.89	0.698	1	0back	Block4	0back/STIM_007.jpg
2492.291	0.45	1	0back	Block4	0back/STIM_007.jpg
2494.767	0.559	0	0back	Block4	0back/STIM_008.jpg
2497.371	0.467	1	0back	Block4	0back/STIM_008.jpg
2500.218	0.666	1	0back	Block4	0back/STIM_008.jpg
2504.803	0.494	0	0back	Block4	0back/STIM_009.jpg
2509.204	0.658	1	0back	Block4	0back/STIM_009.jpg
2513.416	0.38	1	0back	Block4	0back/STIM_009.jpg
2516.36	0.414	0	0back	Block4	0back/STIM_010.jpg
2520.653	0.658	1	0back	Block4	0back/STIM_010.jpg
2524.979	0.644	1	0back	Block4	0back/STIM_010.jpg
2527.684	0.439	1	0back	Block4	0back/STIM_011.jpg
2531.273	0.437	1	0back	Block4	0back/STIM_011.jpg
2535.35	0.562	1	0back	Block4	0back/STIM_011.jpg
2538.985	0.657	1	0back	Block4	0back/STIM_012.jpg
2541.657	0.518	1	0back	Block4	0back/STIM_012.jpg
2545.27	0.66	1	0back	Block4	0back/STIM_012.jpg
2548.037	0.476	1	0back	Block4	0back/STIM_013.jpg
2552.12	0.668	1	0back	Block4	0back/STIM_013.jpg
2555.828	0.42	1	0back	Block4	0back/STIM_013.jpg
2559.661	0.564	1	0back	Block4	0back/STIM_014.jpg
2562.276	0.516	1	0back	Block4	0back/STIM_014.jpg
2566.171	0.487	1	0back	Block4	0back/STIM_014.jpg
2570.022	0.548	1	0back	Block4	0back/STIM_015.jpg
2572.713	0.692	1	0back	Block4	0back/STIM_015.jpg
2576.72	0.407	1	0back	Block4	0back/STIM_015.jpg
2580.374	0.501	1	0back	Block4	0back/STIM_016.jpg
2583.705	0.475	1	0back	Block4	0back/STIM_016.jpg
2586.532	0.66	1	0back	Block4	0back/STIM_016.jpg
2591.168	0.52	1	0back	Block4	0back/STIM_017.jpg
2593.833	0.446	1	0back	Block4	0back/STIM_017.jpg
2597.63	0.54	1	0back	Block4	0back/STIM_017.jpg
2600.422	0.619	1	0back	Block4	0back/STIM_018.jpg
2603.546	0.617	0	0back	Block4	0back/STIM_018.jpg
2607.562	0.415	1	0back	Block4	0back/STIM_018.jpg
2610.11	0.609	1	0back	Block4	0back/STIM_019.jpg
2614.673	0.56	1	0back	Block4	0back/STIM_019.jpg
2618.274	0.648	1	0back	Block4	0back/STIM_019.jpg
