onset	duration	response_time_ms	trial_type	learning_stage	stimulus	response_port
0.0	0.985	984.9	study	Phase1	study/STIM_000.jpg	100
3.734	1.567	1567.1	study	Phase1	study/STIM_000.jpg	100
8.322	0.844	843.6	study	Phase1	study/STIM_000.jpg	99
11.536	0.947	947.4	study	Phase1	study/STIM_001.jpg	100
16.307	0.83	829.9	study	Phase1	study/STIM_001.jpg	100
20.181	0.908	908.3	study	Phase1	study/STIM_001.jpg	100
24.053	1.158	1157.9	study	Phase1	study/STIM_002.jpg	100
27.57	1.444	1443.9	study	Phase1	study/STIM_002.jpg	99
31.579	0.771	770.8	study	Phase1	study/STIM_002.jpg	100
35.618	1.421	1420.8	study	Phase1	study/STIM_003.jpg	100
40.493	1.348	1347.6	study	Phase1	study/STIM_003.jpg	99
44.06	0.837	837.3	study	Phase1	study/STIM_003.jpg	100
48.689	1.493	1493.2	study	Phase1	study/STIM_004.jpg	99
52.449	0.956	955.9	study	Phase1	study/STIM_004.jpg	99
56.59	0.893	892.8	study	Phase1	study/STIM_004.jpg	99
61.003	1.03	1030.5	study	Phase1	study/STIM_005.jpg	99
64.358	1.427	1427.4	study	Phase1	study/STIM_005.jpg	100
69.683	1.093	1093.1	study	Phase1	study/STIM_005.jpg	99
74.633	1.291	1290.6	study	Phase1	study/STIM_006.jpg	100
78.656	1.038	1038.3	study	Phase1	study/STIM_006.jpg	99
82.942	1.284	1284.2	study	Phase1	study/STIM_006.jpg	99
86.611	1.166	1166.5	study	Phase1	study/STIM_007.jpg	100
91.179	0.853	853.2	study	Phase1	study/STIM_007.jpg	99
94.551	0.921	921.0	study	Phase1	study/STIM_007.jpg	99
98.45	0.773	772.6	study	Phase1	study/STIM_008.jpg	99
101.443	1.59	1590.2	study	Phase1	study/STIM_008.jpg	99
105.652	1.151	1150.7	study	Phase1	study/STIM_008.jpg	100
110.479	1.618	1617.6	study	Phase1	study/STIM_009.jpg	99
114.888	1.003	1002.7	study	Phase1	study/STIM_009.jpg	99
119.26	1.126	1126.4	study	Phase1	study/STIM_009.jpg	99
124.277	0.908	907.5	study	Phase1	study/STIM_010.jpg	100
127.391	0.912	911.5	study	Phase1	study/STIM_010.jpg	99
131.369	0.94	940.1	study	Phase1	study/STIM_010.jpg	100
135.872	0.942	941.8	study	Phase1	study/STIM_011.jpg	99
139.575	1.168	1168.4	study	Phase1	study/STIM_011.jpg	99
142.896	1.097	1097.1	study	Phase1	study/STIM_011.jpg	100
147.242	1.01	1009.7	study	Phase1	study/STIM_012.jpg	100
151.68	1.506	1506.0	study	Phase1	study/STIM_012.jpg	99
155.429	0.949	949.3	study	Phase1	study/STIM_012.jpg	99
158.971	0.958	957.5	study	Phase1	study/STIM_013.jpg	99
162.254	1.544	1544.5	study	Phase1	study/STIM_013.jpg	99
166.31	0.883	882.8	study	Phase1	study/STIM_013.jpg	99
170.763	1.49	1490.5	study	Phase1	study/STIM_014.jpg	100
176.025	1.076	1076.1	study	Phase1	study/STIM_014.jpg	100
180.325	1.369	1368.9	study	Phase1	study/STIM_014.jpg	100
185.565	1.62	1620.2	study	Phase1	study/STIM_015.jpg	100
190.141	0.726	725.6	study	Phase1	study/STIM_015.jpg	100
193.224	1.402	1402.0	study	Phase1	study/STIM_015.jpg	100
197.455	0.787	786.7	study	Phase1	study/STIM_016.jpg	100
202.071	0.735	735.3	study	Phase1	study/STIM_016.jpg	99
204.918	0.988	988.0	study	Phase1	study/STIM_016.jpg	100
208.476	1.573	1572.9	study	Phase1	study/STIM_017.jpg	99
212.702	1.238	1237.5	study	Phase1	study/STIM_017.jpg	99
216.54	1.136	1136.0	study	Phase1	study/STIM_017.jpg	100
221.11	1.211	1210.9	study	Phase1	study/STIM_018.jpg	100
226.298	0.816	815.7	study	Phase1	study/STIM_018.jpg	99
229.807	0.803	802.7	study	Phase1	study/STIM_018.jpg	100
234.183	1.204	1204.2	study	Phase1	study/STIM_019.jpg	99
237.587	1.207	1207.3	study	Phase1	study/STIM_019.jpg	99
242.022	0.899	898.9	study	Phase1	study/STIM_019.jpg	100
245.704	1.261	1260.9	study	Phase1	study/STIM_020.jpg	100
249.811	1.353	1352.8	study	Phase1	study/STIM_020.jpg	99
253.264	1.463	1462.9	study	Phase1	study/STIM_020.jpg	99
258.226	1.552	1552.2	study	Phase1	study/STIM_021.jpg	100
263.552	0.871	870.7	study	Phase1	study/STIM_021.jpg	99
267.795	1.409	1409.3	study	Phase1	study/STIM_021.jpg	99
272.586	1.243	1242.8	study	Phase1	study/STIM_022.jpg	99
277.871	0.997	997.3	study	Phase1	study/STIM_022.jpg	99
281.999	1.189	1188.6	study	Phase1	study/STIM_022.jpg	100
287.196	1.286	1286.1	study	Phase1	study/STIM_023.jpg	100
290.583	1.223	1222.6	study	Phase1	study/STIM_023.jpg	100
295.377	1.439	1438.7	study	Phase1	study/STIM_023.jpg	100
298.912	1.193	1192.9	study	Phase1	study/STIM_024.jpg	100
304.134	0.91	910.4	study	Phase1	study/STIM_024.jpg	100
307.227	1.116	1115.5	study	Phase1	study/STIM_024.jpg	100
310.506	1.064	1064.2	study	Phase1	study/STIM_025.jpg	99
315.621	0.898	897.7	study	Phase1	study/STIM_025.jpg	99
320.553	1.343	1343.4	study	Phase1	study/STIM_025.jpg	99
325.923	1.209	1209.0	study	Phase1	study/STIM_026.jpg	100
329.433	1.106	1105.5	study	Phase1	study/STIM_026.jpg	99
333.623	1.268	1268.0	study	Phase1	study/STIM_026.jpg	99
337.482	1.571	1571.1	study	Phase1	study/STIM_027.jpg	99
341.578	1.483	1483.3	study	Phase1	study/STIM_027.jpg	99
346.661	1.138	1137.5	study	Phase1	study/STIM_027.jpg	99
351.494	1.298	1298.1	study	Phase1	study/STIM_028.jpg	99
355.098	1.51	1510.1	study	Phase1	study/STIM_028.jpg	99
360.435	0.979	978.8	study	Phase1	study/STIM_028.jpg	100
365.323	0.892	892.3	study	Phase1	study/STIM_029.jpg	99
369.804	1.387	1387.3	study	Phase1	study/STIM_029.jpg	100
374.533	1.314	1314.3	study	Phase1	study/STIM_029.jpg	100
379.458	0.795	794.9	test	Phase1	test/STIM_000.jpg	100
383.175	0.579	578.6	test	Phase1	test/STIM_000.jpg	99
386.048	0.642	642.2	test	Phase1	test/STIM_000.jpg	100
388.84	1.014	1014.5	test	Phase1	test/STIM_001.jpg	99
392.328	0.624	623.5	test	Phase1	test/STIM_001.jpg	100
395.529	0.938	937.9	test	Phase1	test/STIM_001.jpg	99
400.28	1.138	1137.5	test	Phase1	test/STIM_002.jpg	100
404.023	0.613	612.7	test	Phase1	test/STIM_002.jpg	100
406.816	0.928	927.9	test	Phase1	test/STIM_002.jpg	100
410.293	1.213	1212.8	test	Phase1	test/STIM_003.jpg	100
415.26	0.938	937.9	test	Phase1	test/STIM_003.jpg	99
419.552	1.184	1183.5	test	Phase1	test/STIM_003.jpg	100
424.004	1.016	1015.5	test	Phase1	test/STIM_004.jpg	100
428.847	1.206	1205.6	test	Phase1	test/STIM_004.jpg	100
432.914	0.872	872.3	test	Phase1	test/STIM_004.jpg	99
437.135	0.592	591.9	test	Phase1	test/STIM_005.jpg	100
439.801	1.074	1073.5	test	Phase1	test/STIM_005.jpg	100
443.89	1.087	1086.7	test	Phase1	test/STIM_005.jpg	99
447.367	0.824	823.8	test	Phase1	test/STIM_006.jpg	100
450.921	1.218	1217.6	test	Phase1	test/STIM_006.jpg	100
455.987	1.178	1177.5	test	Phase1	test/STIM_006.jpg	100
459.838	0.716	716.1	test	Phase1	test/STIM_007.jpg	99
463.96	0.718	717.5	test	Phase1	test/STIM_007.jpg	99
467.739	0.909	909.2	test	Phase1	test/STIM_007.jpg	99
471.47	1.159	1158.8	test	Phase1	test/STIM_008.jpg	99
476.199	1.173	1173.1	test	Phase1	test/STIM_008.jpg	99
479.564	0.698	697.6	test	Phase1	test/STIM_008.jpg	99
483.171	0.983	983.1	test	Phase1	test/STIM_009.jpg	99
486.444	0.859	859.1	test	Phase1	test/STIM_009.jpg	100
491.149	1.196	1195.6	test	Phase1	test/STIM_009.jpg	100
494.632	1.078	1077.9	test	Phase1	test/STIM_010.jpg	100
498.491	1.145	1145.0	test	Phase1	test/STIM_010.jpg	99
502.828	0.934	933.8	test	Phase1	test/STIM_010.jpg	100
506.993	0.851	851.0	test	Phase1	test/STIM_011.jpg	99
510.035	0.728	728.4	test	Phase1	test/STIM_011.jpg	99
513.896	0.957	957.4	test	Phase1	test/STIM_011.jpg	100
517.694	0.839	839.0	test	Phase1	test/STIM_012.jpg	100
521.541	1.211	1210.8	test	Phase1	test/STIM_012.jpg	100
526.132	0.596	595.6	test	Phase1	test/STIM_012.jpg	99
530.47	1.181	1181.1	test	Phase1	test/STIM_013.jpg	99
534.294	0.94	940.2	test	Phase1	test/STIM_013.jpg	100
538.424	0.666	665.9	test	Phase1	test/STIM_013.jpg	100
542.954	0.858	857.7	test	Phase1	test/STIM_014.jpg	100
546.15	1.011	1011.3	test	Phase1	test/STIM_014.jpg	100
551.048	1.003	1002.9	test	Phase1	test/STIM_014.jpg	99
555.236	0.592	592.5	test	Phase1	test/STIM_015.jpg	100
559.124	1.215	1214.9	test	Phase1	test/STIM_015.jpg	99
563.84	0.599	599.4	test	Phase1	test/STIM_015.jpg	99
568.009	1.074	1073.5	test	Phase1	test/STIM_016.jpg	99
571.606	1.203	1202.7	test	Phase1	test/STIM_016.jpg	100
575.04	1.177	1177.1	test	Phase1	test/STIM_016.jpg	99
579.674	0.784	784.5	test	Phase1	test/STIM_017.jpg	100
582.714	0.889	889.2	test	Phase1	test/STIM_017.jpg	99
586.315	0.986	986.2	test	Phase1	test/STIM_017.jpg	100
590.8	1.206	1206.1	test	Phase1	test/STIM_018.jpg	100
595.806	0.798	798.5	test	Phase1	test/STIM_018.jpg	100
599.692	0.592	592.5	test	Phase1	test/STIM_018.jpg	100
602.612	1.155	1155.2	test	Phase1	test/STIM_019.jpg	99
607.489	0.662	662.3	test	Phase1	test/STIM_019.jpg	100
611.634	0.746	746.5	test	Phase1	test/STIM_019.jpg	100
615.541	0.634	634.0	test	Phase1	test/STIM_020.jpg	99
619.122	1.044	1044.5	test	Phase1	test/STIM_020.jpg	99
623.444	0.761	761.2	test	Phase1	test/STIM_020.jpg	100
627.341	0.852	851.5	test	Phase1	test/STIM_021.jpg	100
631.595	1.016	1015.8	test	Phase1	test/STIM_021.jpg	100
635.356	0.833	832.8	test	Phase1	test/STIM_021.jpg	99
638.716	0.596	596.4	test	Phase1	test/STIM_022.jpg	100
642.825	0.62	619.9	test	Phase1	test/STIM_022.jpg	99
646.925	0.851	850.8	test	Phase1	test/STIM_022.jpg	99
651.679	0.956	955.9	test	Phase1	test/STIM_023.jpg	99
656.263	1.19	1189.9	test	Phase1	test/STIM_023.jpg	99
660.896	0.784	784.0	test	Phase1	test/STIM_023.jpg	99
665.202	1.171	1171.4	test	Phase1	test/STIM_024.jpg	99
670.031	0.675	675.1	test	Phase1	test/STIM_024.jpg	99
673.815	0.678	678.4	test	Phase1	test/STIM_024.jpg	99
677.122	1.082	1082.1	test	Phase1	test/STIM_025.jpg	100
681.203	0.681	681.2	test	Phase1	test/STIM_025.jpg	100
685.916	0.971	971.1	test	Phase1	test/STIM_025.jpg	99
688.986	0.773	772.8	test	Phase1	test/STIM_026.jpg	100
693.436	1.117	1117.0	test	Phase1	test/STIM_026.jpg	100
697.279	0.718	717.6	test	Phase1	test/STIM_026.jpg	100
701.05	0.993	993.2	test	Phase1	test/STIM_027.jpg	100
705.371	0.816	815.8	test	Phase1	test/STIM_027.jpg	99
709.51	0.95	950.4	test	Phase1	test/STIM_027.jpg	100
712.822	0.804	804.4	test	Phase1	test/STIM_028.jpg	99
716.938	1.163	1162.8	test	Phase1	test/STIM_028.jpg	100
720.665	0.69	689.7	test	Phase1	test/STIM_028.jpg	100
724.26	1.041	1041.0	test	Phase1	test/STIM_029.jpg	99
728.56	1.143	1142.6	test	Phase1	test/STIM_029.jpg	99
733.696	1.07	1070.1	test	Phase1	test/STIM_029.jpg	99
737.306	0.795	795.0	study	Phase2	study/STIM_000.jpg	100
741.568	1.303	1303.2	study	Phase2	study/STIM_000.jpg	99
746.232	1.087	1087.4	study	Phase2	study/STIM_000.jpg	99
750.685	1.411	1410.8	study	Phase2	study/STIM_001.jpg	100
754.89	1.007	1007.3	study	Phase2	study/STIM_001.jpg	100
757.967	1.077	1077.1	study	Phase2	study/STIM_001.jpg	99
762.61	0.912	912.5	study	Phase2	study/STIM_002.jpg	100
766.303	0.612	612.0	study	Phase2	study/STIM_002.jpg	100
769.204	0.619	618.8	study	Phase2	study/STIM_002.jpg	100
771.883	1.402	1401.9	study	Phase2	study/STIM_003.jpg	100
777.344	0.644	643.6	study	Phase2	study/STIM_003.jpg	100
780.729	1.156	1155.7	study	Phase2	study/STIM_003.jpg	100
784.482	1.321	1320.9	study	Phase2	study/STIM_004.jpg	100
787.925	0.893	892.8	study	Phase2	study/STIM_004.jpg	100
791.386	0.866	866.3	study	Phase2	study/STIM_004.jpg	99
795.486	1.24	1240.3	study	Phase2	study/STIM_005.jpg	100
799.649	0.666	666.2	study	Phase2	study/STIM_005.jpg	99
802.669	0.901	901.3	study	Phase2	study/STIM_005.jpg	100
807.529	0.696	695.9	study	Phase2	study/STIM_006.jpg	100
811.324	0.987	987.3	study	Phase2	study/STIM_006.jpg	100
814.788	0.591	591.2	study	Phase2	study/STIM_006.jpg	100
818.109	0.652	651.6	study	Phase2	study/STIM_007.jpg	100
821.422	1.063	1062.7	study	Phase2	study/STIM_007.jpg	100
825.382	0.902	901.9	study	Phase2	study/STIM_007.jpg	100
830.292	0.674	673.8	study	Phase2	study/STIM_008.jpg	99
834.174	1.197	1196.9	study	Phase2	study/STIM_008.jpg	100
838.359	1.181	1180.9	study	Phase2	study/STIM_008.jpg	100
842.095	0.796	796.4	study	Phase2	study/STIM_009.jpg	99
846.745	0.842	841.8	study	Phase2	study/STIM_009.jpg	100
851.059	1.11	1110.1	study	Phase2	study/STIM_009.jpg	100
855.048	1.408	1408.2	study	Phase2	study/STIM_010.jpg	99
860.007	0.859	858.8	study	Phase2	study/STIM_010.jpg	99
863.439	0.735	734.9	study	Phase2	study/STIM_010.jpg	99
867.266	1.182	1182.1	study	Phase2	study/STIM_011.jpg	99
871.724	0.933	933.0	study	Phase2	study/STIM_011.jpg	99
875.301	1.066	1065.6	study	Phase2	study/STIM_011.jpg	99
878.957	0.877	877.1	study	Phase2	study/STIM_012.jpg	99
883.284	1.128	1128.2	study	Phase2	study/STIM_012.jpg	100
887.273	0.84	840.2	study	Phase2	study/STIM_012.jpg	99
890.483	1.19	1189.5	study	Phase2	study/STIM_013.jpg	99
895.627	1.22	1220.1	study	Phase2	study/STIM_013.jpg	100
900.742	0.85	849.9	study	Phase2	study/STIM_013.jpg	99
903.964	0.655	654.8	study	Phase2	study/STIM_014.jpg	99
906.812	1.342	1341.5	study	Phase2	study/STIM_014.jpg	99
911.75	0.735	735.4	study	Phase2	study/STIM_014.jpg	99
914.621	1.305	1305.3	study	Phase2	study/STIM_015.jpg	100
919.408	0.768	768.4	study	Phase2	study/STIM_015.jpg	99
923.19	0.682	681.6	study	Phase2	study/STIM_015.jpg	100
926.392	0.91	910.5	study	Phase2	study/STIM_016.jpg	99
929.933	0.884	883.6	study	Phase2	study/STIM_016.jpg	100
933.234	0.62	620.4	study	Phase2	study/STIM_016.jpg	100
936.744	1.07	1070.1	study	Phase2	study/STIM_017.jpg	99
941.466	0.63	629.6	study	Phase2	study/STIM_017.jpg	100
944.902	1.018	1017.9	study	Phase2	study/STIM_017.jpg	100
949.008	1.424	1424.0	study	Phase2	study/STIM_018.jpg	100
952.589	0.724	724.3	study	Phase2	study/STIM_018.jpg	99
955.994	0.631	630.8	study	Phase2	study/STIM_018.jpg	99
959.343	0.735	735.2	study	Phase2	study/STIM_019.jpg	99
963.9	0.827	826.6	study	Phase2	study/STIM_019.jpg	100
968.006	0.863	862.9	study	Phase2	study/STIM_019.jpg	100
971.664	1.109	1109.4	study	Phase2	study/STIM_020.jpg	99
975.277	0.687	687.4	study	Phase2	study/STIM_020.jpg	100
978.891	1.002	1002.2	study	Phase2	study/STIM_020.jpg	99
983.705	1.073	1073.4	study	Phase2	study/STIM_021.jpg	99
988.699	1.14	1139.9	study	Phase2	study/STIM_021.jpg	99
992.27	1.116	1116.0	study	Phase2	study/STIM_021.jpg	100
996.551	1.079	1079.4	study	Phase2	study/STIM_022.jpg	99
1000.58	1.11	1110.3	study	Phase2	study/STIM_022.jpg	99
1005.687	1.09	1090.0	study	Phase2	study/STIM_022.jpg	99
1009.482	0.766	765.8	study	Phase2	study/STIM_023.jpg	100
1013.622	1.075	1075.4	study	Phase2	study/STIM_023.jpg	99
1017.996	1.135	1134.7	study	Phase2	study/STIM_023.jpg	100
1022.107	1.242	1242.1	study	Phase2	study/STIM_024.jpg	100
1026.735	0.988	987.5	study	Phase2	study/STIM_024.jpg	100
1029.898	0.908	907.9	study	Phase2	study/STIM_024.jpg	100
1033.186	0.943	942.8	study	Phase2	study/STIM_025.jpg	100
1038.119	1.31	1310.2	study	Phase2	study/STIM_025.jpg	99
1042.796	0.938	937.9	study	Phase2	study/STIM_025.jpg	100
1047.051	0.638	637.7	study	Phase2	study/STIM_026.jpg	99
1051.225	0.982	982.4	study	Phase2	study/STIM_026.jpg	100
1056.089	0.931	930.9	study	Phase2	study/STIM_026.jpg	100
1061.075	0.876	875.7	study	Phase2	study/STIM_027.jpg	100
1064.375	1.272	1272.0	study	Phase2	study/STIM_027.jpg	99
1067.943	1.253	1252.9	study	Phase2	study/STIM_027.jpg	100
1072.98	0.676	675.9	study	Phase2	study/STIM_028.jpg	100
1077.098	1.007	1007.3	study	Phase2	study/STIM_028.jpg	99
1081.808	0.826	825.8	study	Phase2	study/STIM_028.jpg	99
1085.015	0.854	853.5	study	Phase2	study/STIM_029.jpg	100
1088.654	0.885	885.0	study	Phase2	study/STIM_029.jpg	100
1092.904	0.87	869.6	study	Phase2	study/STIM_029.jpg	100
1095.937	0.681	680.9	test	Phase2	test/STIM_000.jpg	99
1099.946	1.071	1070.6	test	Phase2	test/STIM_000.jpg	100
1104.533	1.012	1011.5	test	Phase2	test/STIM_000.jpg	99
1108.042	0.925	924.6	test	Phase2	test/STIM_001.jpg	99
1113.026	0.695	694.6	test	Phase2	test/STIM_001.jpg	100
1116.459	0.908	907.7	test	Phase2	test/STIM_001.jpg	100
1119.522	0.938	938.3	test	Phase2	test/STIM_002.jpg	100
1122.887	0.775	775.2	test	Phase2	test/STIM_002.jpg	100
1127.615	0.944	943.9	test	Phase2	test/STIM_002.jpg	100
1131.468	1.155	1155.4	test	Phase2	test/STIM_003.jpg	99
1135.848	0.885	885.4	test	Phase2	test/STIM_003.jpg	99
1139.926	0.741	740.8	test	Phase2	test/STIM_003.jpg	99
1143.928	0.884	883.6	test	Phase2	test/STIM_004.jpg	99
1147.662	0.9	900.4	test	Phase2	test/STIM_004.jpg	100
1150.774	0.791	791.2	test	Phase2	test/STIM_004.jpg	100
1154.915	0.753	752.9	test	Phase2	test/STIM_005.jpg	100
1158.704	0.89	889.6	test	Phase2	test/STIM_005.jpg	99
1163.548	0.798	797.9	test	Phase2	test/STIM_005.jpg	100
1167.05	0.582	582.5	test	Phase2	test/STIM_006.jpg	100
1170.462	1.18	1180.1	test	Phase2	test/STIM_006.jpg	99
1174.744	0.934	933.5	test	Phase2	test/STIM_006.jpg	100
1178.17	0.579	578.8	test	Phase2	test/STIM_007.jpg	99
1181.079	1.133	1132.9	test	Phase2	test/STIM_007.jpg	100
1184.746	0.666	666.1	test	Phase2	test/STIM_007.jpg	99
1189.258	1.034	1034.0	test	Phase2	test/STIM_008.jpg	100
1193.536	0.766	766.5	test	Phase2	test/STIM_008.jpg	100
1197.851	0.966	965.8	test	Phase2	test/STIM_008.jpg	99
1202.118	0.787	786.7	test	Phase2	test/STIM_009.jpg	99
1205.747	1.173	1173.2	test	Phase2	test/STIM_009.jpg	99
1209.166	1.143	1143.4	test	Phase2	test/STIM_009.jpg	100
1212.873	0.758	757.6	test	Phase2	test/STIM_010.jpg	100
1216.77	0.885	885.1	test	Phase2	test/STIM_010.jpg	100
1220.348	1.076	1075.8	test	Phase2	test/STIM_010.jpg	100
1225.06	0.998	998.2	test	Phase2	test/STIM_011.jpg	99
1229.088	1.0	1000.3	test	Phase2	test/STIM_011.jpg	100
1233.858	0.599	599.0	test	Phase2	test/STIM_011.jpg	99
1237.65	1.048	1047.8	test	Phase2	test/STIM_012.jpg	99
1242.61	1.202	1201.5	test	Phase2	test/STIM_012.jpg	99
1246.854	1.049	1049.1	test	Phase2	test/STIM_012.jpg	99
1250.959	1.164	1163.8	test	Phase2	test/STIM_013.jpg	100
1256.055	0.735	734.8	test	Phase2	test/STIM_013.jpg	100
1259.434	0.852	852.2	test	Phase2	test/STIM_013.jpg	99
1263.091	0.97	969.8	test	Phase2	test/STIM_014.jpg	100
1267.597	1.097	1097.1	test	Phase2	test/STIM_014.jpg	99
1270.862	1.081	1080.6	test	Phase2	test/STIM_014.jpg	99
1275.171	0.597	597.0	test	Phase2	test/STIM_015.jpg	99
1279.084	1.126	1126.4	test	Phase2	test/STIM_015.jpg	100
1283.287	0.92	920.5	test	Phase2	test/STIM_015.jpg	100
1287.344	0.902	901.8	test	Phase2	test/STIM_016.jpg	100
1291.885	1.159	1159.2	test	Phase2	test/STIM_016.jpg	99
1296.171	1.115	1115.4	test	Phase2	test/STIM_016.jpg	100
1300.95	0.683	682.6	test	Phase2	test/STIM_017.jpg	100
1304.902	0.689	689.4	test	Phase2	test/STIM_017.jpg	100
1309.001	0.978	978.5	test	Phase2	test/STIM_017.jpg	99
1313.843	0.903	903.4	test	Phase2	test/STIM_018.jpg	99
1316.931	1.168	1167.7	test	Phase2	test/STIM_018.jpg	100
1321.233	1.09	1089.9	test	Phase2	test/STIM_018.jpg	100
1325.451	0.72	720.5	test	Phase2	test/STIM_019.jpg	100
1329.348	1.124	1124.3	test	Phase2	test/STIM_019.jpg	100
1333.844	1.039	1038.6	test	Phase2	test/STIM_019.jpg	99
1337.721	0.988	987.9	test	Phase2	test/STIM_020.jpg	99
1341.608	0.769	768.9	test	Phase2	test/STIM_020.jpg	99
1345.299	0.611	610.8	test	Phase2	test/STIM_020.jpg	99
1348.939	0.949	948.7	test	Phase2	test/STIM_021.jpg	99
1353.177	1.139	1139.0	test	Phase2	test/STIM_021.jpg	99
1357.559	0.59	590.5	test	Phase2	test/STIM_021.jpg	100
1361.601	0.783	783.1	test	Phase2	test/STIM_022.jpg	99
1364.723	0.673	672.6	test	Phase2	test/STIM_022.jpg	100
1369.244	0.917	917.4	test	Phase2	test/STIM_022.jpg	100
1373.879	1.082	1082.1	test	Phase2	test/STIM_023.jpg	99
1378.968	0.851	850.7	test	Phase2	test/STIM_023.jpg	99
1383.322	0.609	609.0	test	Phase2	test/STIM_023.jpg	99
1387.345	1.157	1157.1	test	Phase2	test/STIM_024.jpg	100
1391.749	0.57	570.5	test	Phase2	test/STIM_024.jpg	99
1394.482	0.905	905.0	test	Phase2	test/STIM_024.jpg	99
1397.86	0.909	908.7	test	Phase2	test/STIM_025.jpg	100
1401.07	0.898	897.9	test	Phase2	test/STIM_025.jpg	100
1405.203	0.583	583.1	test	Phase2	test/STIM_025.jpg	99
1408.925	0.951	950.7	test	Phase2	test/STIM_026.jpg	99
1413.085	1.113	1112.9	test	Phase2	test/STIM_026.jpg	99
1416.535	0.951	951.4	test	Phase2	test/STIM_026.jpg	100
1419.624	1.124	1123.9	test	Phase2	test/STIM_027.jpg	99
1424.524	1.104	1103.7	test	Phase2	test/STIM_027.jpg	100
1428.968	1.008	1007.9	test	Phase2	test/STIM_027.jpg	99
1433.368	0.778	777.6	test	Phase2	test/STIM_028.jpg	99
1437.991	0.574	573.8	test	Phase2	test/STIM_028.jpg	99
1442.513	1.026	1026.1	test	Phase2	test/STIM_028.jpg	100
1446.982	0.585	585.1	test	Phase2	test/STIM_029.jpg	99
1450.176	0.855	855.3	test	Phase2	test/STIM_029.jpg	100
1453.625	0.846	845.7	test	Phase2	test/STIM_029.jpg	100
1457.794	1.059	1058.7	study	Phase3	study/STIM_000.jpg	100
1461.35	0.963	962.7	study	Phase3	study/STIM_000.jpg	99
1466.179	0.536	535.5	study	Phase3	study/STIM_000.jpg	100
1469.793	0.933	932.8	study	Phase3	study/STIM_001.jpg	100
1473.653	0.674	674.2	study	Phase3	study/STIM_001.jpg	99
1477.38	1.058	1058.2	study	Phase3	study/STIM_001.jpg	99
1481.691	0.879	879.1	study	Phase3	study/STIM_002.jpg	99
1486.574	0.893	892.7	study	Phase3	study/STIM_002.jpg	99
1489.986	0.926	926.2	study	Phase3	study/STIM_002.jpg	99
1492.989	1.07	1069.8	study	Phase3	study/STIM_003.jpg	99
1497.454	0.57	570.1	study	Phase3	study/STIM_003.jpg	100
1501.933	1.091	1091.1	study	Phase3	study/STIM_003.jpg	99
1505.411	0.82	819.8	study	Phase3	study/STIM_004.jpg	100
1509.65	1.159	1159.3	study	Phase3	study/STIM_004.jpg	99
1513.011	1.114	1114.1	study	Phase3	study/STIM_004.jpg	100
1518.105	0.961	961.2	study	Phase3	study/STIM_005.jpg	100
1521.529	0.552	551.8	study	Phase3	study/STIM_005.jpg	99
1525.019	0.743	742.6	study	Phase3	study/STIM_005.jpg	100
1529.456	0.959	959.2	study	Phase3	study/STIM_006.jpg	99
1533.948	1.002	1002.2	study	Phase3	study/STIM_006.jpg	99
1538.866	0.635	634.6	study	Phase3	study/STIM_006.jpg	100
1541.67	1.047	1047.1	study	Phase3	study/STIM_007.jpg	99
1545.416	0.633	632.6	study	Phase3	study/STIM_007.jpg	100
1548.424	0.822	822.5	study	Phase3	study/STIM_007.jpg	99
1551.82	1.1	1099.7	study	Phase3	study/STIM_008.jpg	100
1556.451	0.548	548.5	study	Phase3	study/STIM_008.jpg	99
1559.994	0.647	647.4	study	Phase3	study/STIM_008.jpg	99
1564.426	1.142	1141.6	study	Phase3	study/STIM_009.jpg	100
1568.341	1.154	1154.0	study	Phase3	study/STIM_009.jpg	100
1572.859	1.163	1163.2	study	Phase3	study/STIM_009.jpg	100
1577.042	0.632	631.8	study	Phase3	study/STIM_010.jpg	99
1581.495	1.123	1123.4	study	Phase3	study/STIM_010.jpg	100
1586.226	1.011	1010.7	study	Phase3	study/STIM_010.jpg	99
1590.958	0.975	974.9	study	Phase3	study/STIM_011.jpg	99
1594.472	1.013	1013.2	study	Phase3	study/STIM_011.jpg	100
1598.142	1.051	1051.4	study	Phase3	study/STIM_011.jpg	100
1603.138	0.634	633.6	study	Phase3	study/STIM_012.jpg	100
1606.303	1.118	1118.1	study	Phase3	study/STIM_012.jpg	100
1610.808	1.044	1044.3	study	Phase3	study/STIM_012.jpg	99
1615.83	1.083	1083.4	study	Phase3	study/STIM_013.jpg	100
1619.0	0.72	719.8	study	Phase3	study/STIM_013.jpg	100
1623.548	1.16	1159.8	study	Phase3	study/STIM_013.jpg	99
1627.727	0.885	884.9	study	Phase3	study/STIM_014.jpg	100
1631.426	0.733	733.2	study	Phase3	study/STIM_014.jpg	99
1635.531	0.987	986.7	study	Phase3	study/STIM_014.jpg	99
1640.209	0.97	970.4	study	Phase3	study/STIM_015.jpg	100
1644.143	1.112	1111.7	study	Phase3	study/STIM_015.jpg	99
1648.205	0.775	775.2	study	Phase3	study/STIM_015.jpg	100
1652.462	1.134	1134.3	study	Phase3	study/STIM_016.jpg	100
1656.891	0.601	601.1	study	Phase3	study/STIM_016.jpg	100
1661.469	0.735	734.7	study	Phase3	study/STIM_016.jpg	99
1665.668	1.007	1006.8	study	Phase3	study/STIM_017.jpg	100
1669.337	0.833	832.8	study	Phase3	study/STIM_017.jpg	100
1673.804	0.733	733.2	study	Phase3	study/STIM_017.jpg	100
1678.191	0.959	959.1	study	Phase3	study/STIM_018.jpg	99
1682.247	0.817	817.0	study	Phase3	study/STIM_018.jpg	100
1686.815	0.842	842.4	study	Phase3	study/STIM_018.jpg	99
1689.923	0.618	617.6	study	Phase3	study/STIM_019.jpg	100
1693.758	0.86	859.6	study	Phase3	study/STIM_019.jpg	100
1697.105	0.997	996.7	study	Phase3	study/STIM_019.jpg	99
1701.315	0.9	899.6	study	Phase3	study/STIM_020.jpg	99
1705.327	0.615	615.0	study	Phase3	study/STIM_020.jpg	99
1708.165	0.659	658.8	study	Phase3	study/STIM_020.jpg	100
1711.895	0.58	580.5	study	Phase3	study/STIM_021.jpg	99
1716.38	0.997	997.4	study	Phase3	study/STIM_021.jpg	100
1719.892	0.967	967.2	study	Phase3	study/STIM_021.jpg	100
1722.989	1.058	1058.2	study	Phase3	study/STIM_022.jpg	99
1727.21	1.154	1153.7	study	Phase3	study/STIM_022.jpg	99
1732.141	0.757	757.4	study	Phase3	study/STIM_022.jpg	100
1736.179	0.736	736.1	study	Phase3	study/STIM_023.jpg	100
1739.438	0.619	619.2	study	Phase3	study/STIM_023.jpg	99
1743.577	1.126	1126.3	study	Phase3	study/STIM_023.jpg	99
1748.064	0.593	592.6	study	Phase3	study/STIM_024.jpg	100
1751.833	1.037	1037.1	study	Phase3	study/STIM_024.jpg	99
1755.452	0.872	872.3	study	Phase3	study/STIM_024.jpg	100
1758.562	0.973	973.3	study	Phase3	study/STIM_025.jpg	99
1762.201	1.09	1090.4	study	Phase3	study/STIM_025.jpg	99
1766.859	0.677	676.8	study	Phase3	study/STIM_025.jpg	99
1769.652	1.071	1070.7	study	Phase3	study/STIM_026.jpg	100
1774.06	0.756	756.4	study	Phase3	study/STIM_026.jpg	100
1778.372	1.002	1001.9	study	Phase3	study/STIM_026.jpg	99
1782.902	1.069	1068.9	study	Phase3	study/STIM_027.jpg	100
1787.303	0.805	805.3	study	Phase3	study/STIM_027.jpg	99
1791.464	0.786	786.4	study	Phase3	study/STIM_027.jpg	100
1794.885	0.882	881.9	study	Phase3	study/STIM_028.jpg	99
1798.268	0.871	871.2	study	Phase3	study/STIM_028.jpg	99
1802.798	0.843	843.0	study	Phase3	study/STIM_028.jpg	100
1805.991	0.738	738.1	study	Phase3	study/STIM_029.jpg	100
1810.395	1.03	1030.5	study	Phase3	study/STIM_029.jpg	100
1814.727	0.685	684.8	study	Phase3	study/STIM_029.jpg	100
1819.361	0.932	932.2	test	Phase3	test/STIM_000.jpg	100
1823.958	1.036	1035.7	test	Phase3	test/STIM_000.jpg	100
1828.98	0.954	954.0	test	Phase3	test/STIM_000.jpg	100
1833.696	1.002	1002.2	test	Phase3	test/STIM_001.jpg	100
1837.233	0.806	806.2	test	Phase3	test/STIM_001.jpg	100
1841.105	0.862	861.6	test	Phase3	test/STIM_001.jpg	100
1845.246	1.079	1078.7	test	Phase3	test/STIM_002.jpg	99
1850.06	0.966	966.3	test	Phase3	test/STIM_002.jpg	100
1853.679	0.923	922.6	test	Phase3	test/STIM_002.jpg	99
1857.842	1.163	1163.2	test	Phase3	test/STIM_003.jpg	100
1863.024	1.001	1000.6	test	Phase3	test/STIM_003.jpg	100
1867.756	0.74	740.3	test	Phase3	test/STIM_003.jpg	100
1871.023	0.565	565.3	test	Phase3	test/STIM_004.jpg	100
1873.634	1.035	1035.0	test	Phase3	test/STIM_004.jpg	99
1877.363	1.062	1062.5	test	Phase3	test/STIM_004.jpg	100
1882.447	0.984	983.9	test	Phase3	test/STIM_005.jpg	99
1886.107	0.708	708.4	test	Phase3	test/STIM_005.jpg	99
1889.681	1.214	1213.5	test	Phase3	test/STIM_005.jpg	99
1893.369	0.686	686.2	test	Phase3	test/STIM_006.jpg	100
1896.806	0.863	862.7	test	Phase3	test/STIM_006.jpg	99
1900.536	0.63	630.2	test	Phase3	test/STIM_006.jpg	99
1903.404	1.081	1081.4	test	Phase3	test/STIM_007.jpg	99
1908.006	0.837	837.3	test	Phase3	test/STIM_007.jpg	100
1911.095	0.906	906.4	test	Phase3	test/STIM_007.jpg	99
1914.998	1.049	1048.6	test	Phase3	test/STIM_008.jpg	100
1919.618	0.657	657.0	test	Phase3	test/STIM_008.jpg	99
1922.479	1.018	1018.4	test	Phase3	test/STIM_008.jpg	99
1925.83	1.128	1128.3	test	Phase3	test/STIM_009.jpg	99
1929.743	0.583	582.7	test	Phase3	test/STIM_009.jpg	99
1934.211	0.954	954.0	test	Phase3	test/STIM_009.jpg	99
1937.502	0.936	935.5	test	Phase3	test/STIM_010.jpg	100
1941.55	0.622	622.3	test	Phase3	test/STIM_010.jpg	100
1945.438	1.041	1040.8	test	Phase3	test/STIM_010.jpg	99
1950.089	0.998	998.0	test	Phase3	test/STIM_011.jpg	100
1953.962	1.072	1071.9	test	Phase3	test/STIM_011.jpg	99
1957.263	0.914	914.0	test	Phase3	test/STIM_011.jpg	100
1960.689	0.894	894.5	test	Phase3	test/STIM_012.jpg	100
1963.663	1.075	1074.6	test	Phase3	test/STIM_012.jpg	99
1968.74	0.681	681.1	test	Phase3	test/STIM_012.jpg	99
1972.32	0.782	782.3	test	Phase3	test/STIM_013.jpg	99
1976.719	0.578	577.6	test	Phase3	test/STIM_013.jpg	99
1980.955	1.056	1055.5	test	Phase3	test/STIM_013.jpg	100
1984.859	1.056	1055.8	test	Phase3	test/STIM_014.jpg	99
1989.782	0.679	678.9	test	Phase3	test/STIM_014.jpg	100
1993.609	0.772	772.0	test	Phase3	test/STIM_014.jpg	100
1997.417	1.124	1124.5	test	Phase3	test/STIM_015.jpg	99
2001.341	0.725	725.1	test	Phase3	test/STIM_015.jpg	100
2005.146	1.052	1052.2	test	Phase3	test/STIM_015.jpg	100
2008.712	0.812	811.8	test	Phase3	test/STIM_016.jpg	100
2012.361	1.083	1083.4	test	Phase3	test/STIM_016.jpg	100
2016.52	0.972	972.0	test	Phase3	test/STIM_016.jpg	100
2020.994	0.922	921.6	test	Phase3	test/STIM_017.jpg	100
2025.597	0.722	722.3	test	Phase3	test/STIM_017.jpg	100
2029.49	0.962	962.3	test	Phase3	test/STIM_017.jpg	100
2034.151	0.957	957.4	test	Phase3	test/STIM_018.jpg	99
2038.039	0.922	921.8	test	Phase3	test/STIM_018.jpg	99
2041.202	1.107	1106.9	test	Phase3	test/STIM_018.jpg	100
2044.721	1.085	1084.9	test	Phase3	test/STIM_019.jpg	99
2048.443	0.946	945.8	test	Phase3	test/STIM_019.jpg	100
2053.006	0.894	894.5	test	Phase3	test/STIM_019.jpg	100
2057.411	0.89	889.8	test	Phase3	test/STIM_020.jpg	99
2062.156	0.826	826.0	test	Phase3	test/STIM_020.jpg	100
2065.044	0.965	965.1	test	Phase3	test/STIM_020.jpg	99
2069.081	1.09	1090.4	test	Phase3	test/STIM_021.jpg	100
2072.784	1.078	1078.5	test	Phase3	test/STIM_021.jpg	100
2077.4	0.963	963.1	test	Phase3	test/STIM_021.jpg	99
2082.237	0.694	694.3	test	Phase3	test/STIM_022.jpg	100
2084.993	0.735	735.4	test	Phase3	test/STIM_022.jpg	100
2087.805	1.043	1043.2	test	Phase3	test/STIM_022.jpg	100
2092.502	0.731	731.0	test	Phase3	test/STIM_023.jpg	100
2096.6	0.851	851.1	test	Phase3	test/STIM_023.jpg	99
2100.776	0.638	637.8	test	Phase3	test/STIM_023.jpg	99
2104.898	0.993	993.0	test	Phase3	test/STIM_024.jpg	99
2108.493	0.821	820.6	test	Phase3	test/STIM_024.jpg	100
2111.824	1.091	1091.1	test	Phase3	test/STIM_024.jpg	99
2116.118	0.711	710.9	test	Phase3	test/STIM_025.jpg	99
2119.259	1.084	1084.3	test	Phase3	test/STIM_025.jpg	99
2123.869	1.214	1214.2	test	Phase3	test/STIM_025.jpg	100
2127.599	0.696	696.3	test	Phase3	test/STIM_026.jpg	100
2130.356	1.01	1010.0	test	Phase3	test/STIM_026.jpg	99
2135.064	0.798	798.2	test	Phase3	test/STIM_026.jpg	99
2139.847	0.722	721.5	test	Phase3	test/STIM_027.jpg	99
2144.126	0.708	707.6	test	Phase3	test/STIM_027.jpg	100
2147.581	1.069	1069.1	test	Phase3	test/STIM_027.jpg	99
2151.674	1.074	1074.1	test	Phase3	test/STIM_028.jpg	100
2156.327	1.13	1130.5	test	Phase3	test/STIM_028.jpg	100
2161.1	0.83	830.3	test	Phase3	test/STIM_028.jpg	99
2164.744	0.982	981.6	test	Phase3	test/STIM_029.jpg	100
2169.752	1.025	1024.6	test	Phase3	test/STIM_029.jpg	100
2172.977	1.064	1063.6	test	Phase3	test/STIM_029.jpg	99
