onset	duration	response_time_ms	trial_type	learning_stage	stimulus	response_port
0.0	0.898	898.3	study	Phase1	study/STIM_000.jpg	100
4.009	1.723	1723.0	study	Phase1	study/STIM_000.jpg	100
9.565	1.434	1434.5	study	Phase1	study/STIM_000.jpg	99
13.296	1.848	1847.6	study	Phase1	study/STIM_001.jpg	100
17.484	1.05	1049.5	study	Phase1	study/STIM_001.jpg	100
20.598	1.268	1268.2	study	Phase1	study/STIM_001.jpg	100
25.197	1.83	1830.0	study	Phase1	study/STIM_002.jpg	100
29.881	1.889	1889.4	study	Phase1	study/STIM_002.jpg	99
35.564	1.244	1244.4	study	Phase1	study/STIM_002.jpg	100
39.632	1.692	1692.2	study	Phase1	study/STIM_003.jpg	100
43.866	0.898	897.7	study	Phase1	study/STIM_003.jpg	99
48.418	0.828	828.4	study	Phase1	study/STIM_003.jpg	100
53.111	1.157	1157.3	study	Phase1	study/STIM_004.jpg	99
58.219	1.869	1868.6	study	Phase1	study/STIM_004.jpg	99
62.288	0.953	952.6	study	Phase1	study/STIM_004.jpg	99
66.692	1.645	1645.4	study	Phase1	study/STIM_005.jpg	99
70.677	1.464	1464.1	study	Phase1	study/STIM_005.jpg	100
75.599	1.247	1247.0	study	Phase1	study/STIM_005.jpg	99
79.433	1.129	1128.9	study	Phase1	study/STIM_006.jpg	100
82.752	1.216	1216.0	study	Phase1	study/STIM_006.jpg	99
86.34	1.554	1553.8	study	Phase1	study/STIM_006.jpg	99
91.231	1.693	1693.0	study	Phase1	study/STIM_007.jpg	100
96.841	0.871	871.0	study	Phase1	study/STIM_007.jpg	99
101.63	1.67	1669.8	study	Phase1	study/STIM_007.jpg	99
105.953	1.085	1085.4	study	Phase1	study/STIM_008.jpg	99
110.463	1.184	1184.5	study	Phase1	study/STIM_008.jpg	99
115.029	1.227	1226.9	study	Phase1	study/STIM_008.jpg	100
119.799	0.965	965.1	study	Phase1	study/STIM_009.jpg	99
123.235	1.439	1439.4	study	Phase1	study/STIM_009.jpg	99
128.432	1.21	1210.0	study	Phase1	study/STIM_009.jpg	99
132.111	1.487	1487.3	study	Phase1	study/STIM_010.jpg	100
136.697	0.85	849.7	study	Phase1	study/STIM_010.jpg	99
139.987	1.779	1779.2	study	Phase1	study/STIM_010.jpg	100
144.465	0.996	996.5	study	Phase1	study/STIM_011.jpg	99
147.888	1.417	1417.0	study	Phase1	study/STIM_011.jpg	99
152.537	1.44	1440.3	study	Phase1	study/STIM_011.jpg	100
157.832	1.933	1933.0	study	Phase1	study/STIM_012.jpg	100
162.376	1.336	1335.6	study	Phase1	study/STIM_012.jpg	99
166.985	1.306	1306.0	study	Phase1	study/STIM_012.jpg	99
170.686	1.428	1428.2	study	Phase1	study/STIM_013.jpg	99
175.247	1.571	1570.9	study	Phase1	study/STIM_013.jpg	99
179.961	1.253	1253.0	study	Phase1	study/STIM_013.jpg	99
183.315	1.444	1443.5	study	Phase1	study/STIM_014.jpg	100
187.411	1.867	1867.1	study	Phase1	study/STIM_014.jpg	100
191.9	1.316	1315.8	study	Phase1	study/STIM_014.jpg	100
196.05	1.723	1723.2	study	Phase1	study/STIM_015.jpg	100
200.393	1.265	1264.7	study	Phase1	study/STIM_015.jpg	100
205.323	0.848	848.2	study	Phase1	study/STIM_015.jpg	100
209.53	1.524	1524.0	study	Phase1	study/STIM_016.jpg	100
214.134	1.058	1057.8	study	Phase1	study/STIM_016.jpg	99
218.195	1.709	1708.9	study	Phase1	study/STIM_016.jpg	100
223.64	1.612	1612.0	study	Phase1	study/STIM_017.jpg	99
228.701	0.886	886.0	study	Phase1	study/STIM_017.jpg	99
233.332	1.102	1102.3	study	Phase1	study/STIM_017.jpg	100
237.197	1.29	1290.4	study	Phase1	study/STIM_018.jpg	100
241.124	1.507	1506.9	study	Phase1	study/STIM_018.jpg	99
246.323	1.62	1619.7	study	Phase1	study/STIM_018.jpg	100
251.648	1.169	1168.8	study	Phase1	study/STIM_019.jpg	99
256.055	1.334	1333.8	study	Phase1	study/STIM_019.jpg	99
261.188	1.778	1777.9	study	Phase1	study/STIM_019.jpg	100
266.494	0.986	986.4	study	Phase1	study/STIM_020.jpg	100
270.947	1.306	1305.6	study	Phase1	study/STIM_020.jpg	99
274.87	1.414	1413.7	study	Phase1	study/STIM_020.jpg	99
279.537	1.087	1086.9	study	Phase1	study/STIM_021.jpg	100
283.285	1.093	1093.3	study	Phase1	study/STIM_021.jpg	99
286.488	0.981	981.0	study	Phase1	study/STIM_021.jpg	99
290.431	0.944	944.1	study	Phase1	study/STIM_022.jpg	99
295.351	1.547	1546.8	study	Phase1	study/STIM_022.jpg	99
299.839	1.071	1071.4	study	Phase1	study/STIM_022.jpg	100
304.209	1.878	1878.2	study	Phase1	study/STIM_023.jpg	100
309.768	0.977	977.1	study	Phase1	study/STIM_023.jpg	100
312.819	0.945	945.1	study	Phase1	study/STIM_023.jpg	100
316.683	0.98	979.6	study	Phase1	study/STIM_024.jpg	100
321.421	1.648	1648.5	study	Phase1	study/STIM_024.jpg	100
325.509	1.644	1643.8	study	Phase1	study/STIM_024.jpg	100
330.893	1.782	1782.4	study	Phase1	study/STIM_025.jpg	99
336.224	1.126	1126.5	study	Phase1	study/STIM_025.jpg	99
339.566	1.743	1742.9	study	Phase1	study/STIM_025.jpg	99
344.35	1.33	1329.7	study	Phase1	study/STIM_026.jpg	100
348.35	1.674	1673.8	study	Phase1	study/STIM_026.jpg	99
352.895	1.184	1183.5	study	Phase1	study/STIM_026.jpg	99
357.904	1.736	1735.5	study	Phase1	study/STIM_027.jpg	99
363.416	1.259	1259.2	study	Phase1	study/STIM_027.jpg	99
368.339	0.993	992.9	study	Phase1	study/STIM_027.jpg	99
372.524	1.89	1890.0	study	Phase1	study/STIM_028.jpg	99
377.255	1.731	1731.3	study	Phase1	study/STIM_028.jpg	99
381.211	1.799	1798.7	study	Phase1	study/STIM_028.jpg	100
386.961	1.097	1096.6	study	Phase1	study/STIM_029.jpg	99
391.563	1.546	1545.7	study	Phase1	study/STIM_029.jpg	100
396.168	1.651	1650.9	study	Phase1	study/STIM_029.jpg	100
400.704	0.791	791.1	test	Phase1	test/STIM_000.jpg	100
403.996	0.93	930.5	test	Phase1	test/STIM_000.jpg	99
406.981	0.742	741.5	test	Phase1	test/STIM_000.jpg	100
410.58	1.345	1345.3	test	Phase1	test/STIM_001.jpg	99
413.941	1.152	1151.5	test	Phase1	test/STIM_001.jpg	100
418.655	1.444	1444.3	test	Phase1	test/STIM_001.jpg	99
423.465	0.855	855.1	test	Phase1	test/STIM_002.jpg	100
428.032	0.8	800.5	test	Phase1	test/STIM_002.jpg	100
431.723	1.226	1226.2	test	Phase1	test/STIM_002.jpg	100
436.805	0.744	743.5	test	Phase1	test/STIM_003.jpg	100
440.966	0.846	846.2	test	Phase1	test/STIM_003.jpg	99
444.141	0.713	713.4	test	Phase1	test/STIM_003.jpg	100
448.714	1.101	1100.8	test	Phase1	test/STIM_004.jpg	100
452.481	1.133	1132.7	test	Phase1	test/STIM_004.jpg	100
457.505	1.254	1253.8	test	Phase1	test/STIM_004.jpg	99
460.851	1.099	1099.1	test	Phase1	test/STIM_005.jpg	100
465.806	0.871	870.7	test	Phase1	test/STIM_005.jpg	100
469.499	0.86	859.8	test	Phase1	test/STIM_005.jpg	99
474.074	1.106	1105.9	test	Phase1	test/STIM_006.jpg	100
478.842	0.89	890.0	test	Phase1	test/STIM_006.jpg	100
481.899	1.385	1384.8	test	Phase1	test/STIM_006.jpg	100
486.071	0.906	906.2	test	Phase1	test/STIM_007.jpg	99
489.481	0.962	962.5	test	Phase1	test/STIM_007.jpg	99
494.112	0.907	907.3	test	Phase1	test/STIM_007.jpg	99
498.767	0.711	710.8	test	Phase1	test/STIM_008.jpg	99
501.916	1.2	1199.8	test	Phase1	test/STIM_008.jpg	99
506.221	1.341	1341.1	test	Phase1	test/STIM_008.jpg	99
510.257	1.09	1090.2	test	Phase1	test/STIM_009.jpg	99
513.78	1.297	1297.0	test	Phase1	test/STIM_009.jpg	100
517.454	1.263	1262.7	test	Phase1	test/STIM_009.jpg	100
521.747	0.72	719.6	test	Phase1	test/STIM_010.jpg	100
525.668	1.104	1104.2	test	Phase1	test/STIM_010.jpg	99
529.631	0.847	846.9	test	Phase1	test/STIM_010.jpg	100
534.384	1.334	1334.1	test	Phase1	test/STIM_011.jpg	99
537.778	1.399	1399.0	test	Phase1	test/STIM_011.jpg	99
542.252	1.28	1279.6	test	Phase1	test/STIM_011.jpg	100
546.496	1.426	1426.5	test	Phase1	test/STIM_012.jpg	100
550.23	0.774	773.8	test	Phase1	test/STIM_012.jpg	100
554.537	0.9	900.5	test	Phase1	test/STIM_012.jpg	99
559.326	0.802	802.3	test	Phase1	test/STIM_013.jpg	99
562.602	0.853	853.3	test	Phase1	test/STIM_013.jpg	100
567.297	1.357	1356.6	test	Phase1	test/STIM_013.jpg	100
571.475	1.103	1103.3	test	Phase1	test/STIM_014.jpg	100
574.683	1.404	1403.5	test	Phase1	test/STIM_014.jpg	100
578.483	1.039	1038.8	test	Phase1	test/STIM_014.jpg	99
581.559	0.785	785.3	test	Phase1	test/STIM_015.jpg	100
585.711	0.848	848.1	test	Phase1	test/STIM_015.jpg	99
589.674	1.364	1363.9	test	Phase1	test/STIM_015.jpg	99
593.305	1.052	1051.9	test	Phase1	test/STIM_016.jpg	99
596.577	1.002	1001.5	test	Phase1	test/STIM_016.jpg	100
599.645	1.047	1047.0	test	Phase1	test/STIM_016.jpg	99
604.383	1.14	1140.1	test	Phase1	test/STIM_017.jpg	100
608.339	1.058	1058.2	test	Phase1	test/STIM_017.jpg	99
613.182	1.45	1449.6	test	Phase1	test/STIM_017.jpg	100
616.873	0.782	781.9	test	Phase1	test/STIM_018.jpg	100
620.978	1.332	1332.2	test	Phase1	test/STIM_018.jpg	100
625.209	1.148	1148.5	test	Phase1	test/STIM_018.jpg	100
629.383	1.041	1041.3	test	Phase1	test/STIM_019.jpg	99
633.539	1.173	1172.8	test	Phase1	test/STIM_019.jpg	100
638.15	1.172	1171.9	test	Phase1	test/STIM_019.jpg	100
642.686	1.021	1020.9	test	Phase1	test/STIM_020.jpg	99
645.71	1.107	1107.2	test	Phase1	test/STIM_020.jpg	99
650.761	0.952	952.1	test	Phase1	test/STIM_020.jpg	100
654.117	0.725	724.8	test	Phase1	test/STIM_021.jpg	100
657.341	1.145	1145.4	test	Phase1	test/STIM_021.jpg	100
661.429	1.354	1354.4	test	Phase1	test/STIM_021.jpg	99
665.353	1.37	1369.7	test	Phase1	test/STIM_022.jpg	100
669.051	0.69	690.0	test	Phase1	test/STIM_022.jpg	99
672.314	1.429	1429.3	test	Phase1	test/STIM_022.jpg	99
676.489	1.364	1364.0	test	Phase1	test/STIM_023.jpg	99
680.484	1.405	1405.0	test	Phase1	test/STIM_023.jpg	99
685.576	1.07	1069.9	test	Phase1	test/STIM_023.jpg	99
689.005	1.118	1117.5	test	Phase1	test/STIM_024.jpg	99
692.704	1.29	1290.3	test	Phase1	test/STIM_024.jpg	99
696.074	1.266	1265.8	test	Phase1	test/STIM_024.jpg	99
700.603	0.737	736.6	test	Phase1	test/STIM_025.jpg	100
703.923	0.847	846.6	test	Phase1	test/STIM_025.jpg	100
708.662	1.226	1225.9	test	Phase1	test/STIM_025.jpg	99
712.886	1.041	1040.6	test	Phase1	test/STIM_026.jpg	100
717.047	0.863	862.6	test	Phase1	test/STIM_026.jpg	100
721.502	0.992	992.3	test	Phase1	test/STIM_026.jpg	100
726.066	0.765	765.0	test	Phase1	test/STIM_027.jpg	100
729.254	1.105	1104.8	test	Phase1	test/STIM_027.jpg	99
732.987	0.736	735.8	test	Phase1	test/STIM_027.jpg	100
737.219	0.843	842.9	test	Phase1	test/STIM_028.jpg	99
741.956	1.415	1415.1	test	Phase1	test/STIM_028.jpg	100
746.987	0.817	816.7	test	Phase1	test/STIM_028.jpg	100
750.484	0.918	918.2	test	Phase1	test/STIM_029.jpg	99
754.98	1.235	1235.3	test	Phase1	test/STIM_029.jpg	99
760.035	1.316	1316.5	test	Phase1	test/STIM_029.jpg	99
765.094	1.017	1017.3	study	Phase2	study/STIM_000.jpg	100
769.424	1.298	1298.1	study	Phase2	study/STIM_000.jpg	99
773.36	1.501	1500.8	study	Phase2	study/STIM_000.jpg	99
778.321	0.961	961.0	study	Phase2	study/STIM_001.jpg	100
781.836	0.937	936.6	study	Phase2	study/STIM_001.jpg	100
785.158	1.151	1150.8	study	Phase2	study/STIM_001.jpg	99
789.95	0.934	933.5	study	Phase2	study/STIM_002.jpg	100
792.91	1.144	1144.4	study	Phase2	study/STIM_002.jpg	100
798.01	1.332	1331.5	study	Phase2	study/STIM_002.jpg	100
801.515	1.321	1321.0	study	Phase2	study/STIM_003.jpg	100
805.217	1.222	1221.7	study	Phase2	study/STIM_003.jpg	100
809.975	1.342	1341.9	study	Phase2	study/STIM_003.jpg	100
815.193	1.144	1143.7	study	Phase2	study/STIM_004.jpg	100
819.918	1.337	1336.8	study	Phase2	study/STIM_004.jpg	100
823.282	0.967	967.0	study	Phase2	study/STIM_004.jpg	99
826.773	0.97	970.1	study	Phase2	study/STIM_005.jpg	100
829.913	1.376	1376.5	study	Phase2	study/STIM_005.jpg	99
833.791	0.881	881.3	study	Phase2	study/STIM_005.jpg	100
838.197	1.59	1590.5	study	Phase2	study/STIM_006.jpg	100
843.717	1.233	1233.4	study	Phase2	study/STIM_006.jpg	100
848.568	1.419	1418.6	study	Phase2	study/STIM_006.jpg	100
853.918	1.208	1208.2	study	Phase2	study/STIM_007.jpg	100
857.381	1.068	1067.9	study	Phase2	study/STIM_007.jpg	100
861.032	0.773	772.9	study	Phase2	study/STIM_007.jpg	100
863.823	1.055	1055.4	study	Phase2	study/STIM_008.jpg	99
868.057	0.941	941.3	study	Phase2	study/STIM_008.jpg	100
871.975	1.216	1216.0	study	Phase2	study/STIM_008.jpg	100
875.542	0.994	993.5	study	Phase2	study/STIM_009.jpg	99
879.33	1.249	1249.2	study	Phase2	study/STIM_009.jpg	100
883.56	0.732	731.7	study	Phase2	study/STIM_009.jpg	100
887.229	1.137	1137.2	study	Phase2	study/STIM_010.jpg	99
891.741	1.601	1600.9	study	Phase2	study/STIM_010.jpg	99
896.591	1.476	1475.8	study	Phase2	study/STIM_010.jpg	99
900.994	1.459	1458.6	study	Phase2	study/STIM_011.jpg	99
905.477	0.964	963.5	study	Phase2	study/STIM_011.jpg	99
909.293	0.779	779.4	study	Phase2	study/STIM_011.jpg	99
912.985	1.263	1262.9	study	Phase2	study/STIM_012.jpg	99
916.527	1.235	1235.3	study	Phase2	study/STIM_012.jpg	100
919.955	0.909	908.9	study	Phase2	study/STIM_012.jpg	99
923.008	1.59	1589.9	study	Phase2	study/STIM_013.jpg	99
927.415	0.991	990.8	study	Phase2	study/STIM_013.jpg	100
931.017	1.41	1410.3	study	Phase2	study/STIM_013.jpg	99
935.767	1.517	1516.8	study	Phase2	study/STIM_014.jpg	99
940.52	1.125	1125.1	study	Phase2	study/STIM_014.jpg	99
944.264	1.208	1208.1	study	Phase2	study/STIM_014.jpg	99
948.276	0.822	822.2	study	Phase2	study/STIM_015.jpg	100
951.79	1.315	1314.6	study	Phase2	study/STIM_015.jpg	99
956.076	1.06	1059.9	study	Phase2	study/STIM_015.jpg	100
959.343	1.0	999.5	study	Phase2	study/STIM_016.jpg	99
963.682	0.726	726.3	study	Phase2	study/STIM_016.jpg	100
967.774	1.31	1309.6	study	Phase2	study/STIM_016.jpg	100
971.668	1.642	1642.2	study	Phase2	study/STIM_017.jpg	99
976.703	1.247	1247.2	study	Phase2	study/STIM_017.jpg	100
981.877	0.772	772.5	study	Phase2	study/STIM_017.jpg	100
986.277	1.346	1345.8	study	Phase2	study/STIM_018.jpg	100
990.654	1.051	1050.9	study	Phase2	study/STIM_018.jpg	99
993.777	1.386	1386.3	study	Phase2	study/STIM_018.jpg	99
998.861	0.891	891.0	study	Phase2	study/STIM_019.jpg	99
1003.528	1.137	1137.1	study	Phase2	study/STIM_019.jpg	100
1008.275	1.286	1286.2	study	Phase2	study/STIM_019.jpg	100
1012.455	0.923	923.2	study	Phase2	study/STIM_020.jpg	99
1015.871	0.842	842.2	study	Phase2	study/STIM_020.jpg	100
1019.083	0.702	702.3	study	Phase2	study/STIM_020.jpg	99
1023.448	1.32	1320.1	study	Phase2	study/STIM_021.jpg	99
1028.557	0.777	777.0	study	Phase2	study/STIM_021.jpg	99
1032.566	0.823	823.3	study	Phase2	study/STIM_021.jpg	100
1036.916	1.166	1166.3	study	Phase2	study/STIM_022.jpg	99
1040.384	0.963	963.3	study	Phase2	study/STIM_022.jpg	99
1043.769	0.87	869.5	study	Phase2	study/STIM_022.jpg	99
1046.795	1.164	1164.5	study	Phase2	study/STIM_023.jpg	100
1051.757	1.605	1605.2	study	Phase2	study/STIM_023.jpg	99
1057.304	1.329	1328.6	study	Phase2	study/STIM_023.jpg	100
1062.047	0.835	834.6	study	Phase2	study/STIM_024.jpg	100
1066.175	1.028	1027.5	study	Phase2	study/STIM_024.jpg	100
1070.357	1.451	1451.1	study	Phase2	study/STIM_024.jpg	100
1075.346	1.445	1444.6	study	Phase2	study/STIM_025.jpg	100
1080.652	1.395	1394.9	study	Phase2	study/STIM_025.jpg	99
1084.456	1.126	1126.1	study	Phase2	study/STIM_025.jpg	100
1089.373	1.508	1508.2	study	Phase2	study/STIM_026.jpg	99
1094.081	1.011	1010.9	study	Phase2	study/STIM_026.jpg	100
1097.492	0.764	764.5	study	Phase2	study/STIM_026.jpg	100
1100.774	1.029	1029.1	study	Phase2	study/STIM_027.jpg	100
1104.561	0.723	722.9	study	Phase2	study/STIM_027.jpg	99
1107.522	0.756	755.7	study	Phase2	study/STIM_027.jpg	100
1111.465	0.939	938.6	study	Phase2	study/STIM_028.jpg	100
1116.127	1.093	1093.2	study	Phase2	study/STIM_028.jpg	99
1120.216	1.004	1003.5	study	Phase2	study/STIM_028.jpg	99
1123.366	0.844	843.9	study	Phase2	study/STIM_029.jpg	100
1127.184	1.42	1420.1	study	Phase2	study/STIM_029.jpg	100
1131.381	1.169	1168.9	study	Phase2	study/STIM_029.jpg	100
1136.513	1.319	1319.0	test	Phase2	test/STIM_000.jpg	99
1140.341	1.273	1273.2	test	Phase2	test/STIM_000.jpg	100
1144.031	1.407	1407.4	test	Phase2	test/STIM_000.jpg	99
1149.37	0.786	786.3	test	Phase2	test/STIM_001.jpg	99
1152.708	0.944	943.7	test	Phase2	test/STIM_001.jpg	100
1156.822	0.942	941.6	test	Phase2	test/STIM_001.jpg	100
1159.795	0.72	720.0	test	Phase2	test/STIM_002.jpg	100
1163.353	1.306	1306.3	test	Phase2	test/STIM_002.jpg	100
1167.149	1.118	1118.4	test	Phase2	test/STIM_002.jpg	100
1170.845	0.989	989.2	test	Phase2	test/STIM_003.jpg	99
1174.104	0.69	690.0	test	Phase2	test/STIM_003.jpg	99
1178.048	0.727	727.2	test	Phase2	test/STIM_003.jpg	99
1181.451	0.73	730.5	test	Phase2	test/STIM_004.jpg	99
1186.004	0.685	684.8	test	Phase2	test/STIM_004.jpg	100
1189.458	1.195	1195.2	test	Phase2	test/STIM_004.jpg	100
1193.1	1.332	1331.6	test	Phase2	test/STIM_005.jpg	100
1198.076	0.987	986.9	test	Phase2	test/STIM_005.jpg	99
1202.604	1.424	1424.4	test	Phase2	test/STIM_005.jpg	100
1206.976	1.26	1259.9	test	Phase2	test/STIM_006.jpg	100
1212.164	0.923	923.2	test	Phase2	test/STIM_006.jpg	99
1215.509	1.096	1095.9	test	Phase2	test/STIM_006.jpg	100
1219.3	1.397	1397.3	test	Phase2	test/STIM_007.jpg	99
1223.962	1.133	1132.9	test	Phase2	test/STIM_007.jpg	100
1227.747	1.11	1109.5	test	Phase2	test/STIM_007.jpg	99
1232.457	1.429	1429.2	test	Phase2	test/STIM_008.jpg	100
1236.26	1.025	1025.1	test	Phase2	test/STIM_008.jpg	100
1239.849	0.685	685.2	test	Phase2	test/STIM_008.jpg	99
1244.447	0.975	975.4	test	Phase2	test/STIM_009.jpg	99
1249.36	1.212	1212.4	test	Phase2	test/STIM_009.jpg	99
1253.698	1.431	1431.1	test	Phase2	test/STIM_009.jpg	100
1258.919	1.216	1216.1	test	Phase2	test/STIM_010.jpg	100
1262.716	0.907	906.8	test	Phase2	test/STIM_010.jpg	100
1266.216	1.109	1109.4	test	Phase2	test/STIM_010.jpg	100
1270.96	0.756	756.0	test	Phase2	test/STIM_011.jpg	99
1274.921	0.816	815.7	test	Phase2	test/STIM_011.jpg	100
1278.302	0.922	922.4	test	Phase2	test/STIM_011.jpg	99
1281.351	1.44	1440.0	test	Phase2	test/STIM_012.jpg	99
1286.116	0.96	959.7	test	Phase2	test/STIM_012.jpg	99
1289.788	1.196	1196.1	test	Phase2	test/STIM_012.jpg	99
1294.365	0.759	758.7	test	Phase2	test/STIM_013.jpg	100
1297.684	0.692	692.2	test	Phase2	test/STIM_013.jpg	100
1301.243	1.035	1034.7	test	Phase2	test/STIM_013.jpg	99
1304.896	0.916	916.0	test	Phase2	test/STIM_014.jpg	100
1309.185	1.113	1113.3	test	Phase2	test/STIM_014.jpg	99
1313.709	1.09	1089.5	test	Phase2	test/STIM_014.jpg	99
1317.821	1.167	1166.9	test	Phase2	test/STIM_015.jpg	99
1321.566	0.78	779.6	test	Phase2	test/STIM_015.jpg	100
1325.624	1.352	1351.6	test	Phase2	test/STIM_015.jpg	100
1329.315	1.261	1260.8	test	Phase2	test/STIM_016.jpg	100
1334.337	1.144	1143.8	test	Phase2	test/STIM_016.jpg	99
1337.512	0.754	753.5	test	Phase2	test/STIM_016.jpg	100
1341.69	0.724	724.0	test	Phase2	test/STIM_017.jpg	100
1345.36	0.912	912.4	test	Phase2	test/STIM_017.jpg	100
1348.613	0.945	945.1	test	Phase2	test/STIM_017.jpg	99
1351.619	1.195	1195.4	test	Phase2	test/STIM_018.jpg	99
1356.679	1.354	1354.3	test	Phase2	test/STIM_018.jpg	100
1361.206	0.73	730.1	test	Phase2	test/STIM_018.jpg	100
1364.124	0.916	915.9	test	Phase2	test/STIM_019.jpg	100
1367.735	1.109	1108.7	test	Phase2	test/STIM_019.jpg	100
1371.761	1.427	1427.2	test	Phase2	test/STIM_019.jpg	99
1376.443	0.998	997.9	test	Phase2	test/STIM_020.jpg	99
1380.42	1.305	1305.1	test	Phase2	test/STIM_020.jpg	99
1383.864	0.79	789.7	test	Phase2	test/STIM_020.jpg	99
1388.102	1.111	1111.1	test	Phase2	test/STIM_021.jpg	99
1392.989	1.269	1268.7	test	Phase2	test/STIM_021.jpg	99
1397.885	1.172	1171.8	test	Phase2	test/STIM_021.jpg	100
1402.786	1.393	1393.2	test	Phase2	test/STIM_022.jpg	99
1406.282	1.419	1418.7	test	Phase2	test/STIM_022.jpg	100
1411.448	0.973	973.4	test	Phase2	test/STIM_022.jpg	100
1414.582	0.792	792.0	test	Phase2	test/STIM_023.jpg	99
1418.351	1.218	1217.8	test	Phase2	test/STIM_023.jpg	99
1422.452	1.074	1074.5	test	Phase2	test/STIM_023.jpg	99
1426.605	1.074	1074.2	test	Phase2	test/STIM_024.jpg	100
1429.683	0.746	746.0	test	Phase2	test/STIM_024.jpg	99
1433.838	0.83	829.8	test	Phase2	test/STIM_024.jpg	99
1438.525	1.432	1432.1	test	Phase2	test/STIM_025.jpg	100
1442.501	1.068	1068.0	test	Phase2	test/STIM_025.jpg	100
1447.182	1.364	1363.8	test	Phase2	test/STIM_025.jpg	99
1451.412	1.262	1262.4	test	Phase2	test/STIM_026.jpg	99
1454.755	1.258	1258.2	test	Phase2	test/STIM_026.jpg	99
1460.004	0.746	745.7	test	Phase2	test/STIM_026.jpg	100
1463.71	1.316	1315.9	test	Phase2	test/STIM_027.jpg	99
1468.858	0.902	902.4	test	Phase2	test/STIM_027.jpg	100
1472.064	0.734	733.7	test	Phase2	test/STIM_027.jpg	99
1476.454	1.04	1039.6	test	Phase2	test/STIM_028.jpg	99
1480.953	0.833	833.3	test	Phase2	test/STIM_028.jpg	99
1483.908	1.372	1371.5	test	Phase2	test/STIM_028.jpg	100
1488.28	1.0	999.7	test	Phase2	test/STIM_029.jpg	99
1491.996	0.82	820.4	test	Phase2	test/STIM_029.jpg	100
1495.19	1.052	1051.7	test	Phase2	test/STIM_029.jpg	100
1499.38	1.323	1322.9	study	Phase3	study/STIM_000.jpg	100
1504.081	1.147	1146.6	study	Phase3	study/STIM_000.jpg	99
1508.607	0.68	679.5	study	Phase3	study/STIM_000.jpg	100
1512.842	0.817	816.6	study	Phase3	study/STIM_001.jpg	100
1515.684	0.795	794.8	study	Phase3	study/STIM_001.jpg	99
1520.039	1.216	1215.6	study	Phase3	study/STIM_001.jpg	99
1523.263	1.017	1016.6	study	Phase3	study/STIM_002.jpg	99
1526.591	1.133	1132.7	study	Phase3	study/STIM_002.jpg	99
1530.086	0.997	996.8	study	Phase3	study/STIM_002.jpg	99
1533.375	0.77	769.7	study	Phase3	study/STIM_003.jpg	99
1536.622	0.802	802.0	study	Phase3	study/STIM_003.jpg	100
1540.732	0.967	967.3	study	Phase3	study/STIM_003.jpg	99
1545.137	0.724	723.9	study	Phase3	study/STIM_004.jpg	100
1549.617	0.687	687.4	study	Phase3	study/STIM_004.jpg	99
1552.349	1.116	1115.9	study	Phase3	study/STIM_004.jpg	100
1557.439	1.318	1318.0	study	Phase3	study/STIM_005.jpg	100
1561.5	0.857	857.0	study	Phase3	study/STIM_005.jpg	99
1564.633	0.728	728.4	study	Phase3	study/STIM_005.jpg	100
1567.842	0.865	864.6	study	Phase3	study/STIM_006.jpg	99
1571.864	1.397	1396.6	study	Phase3	study/STIM_006.jpg	99
1576.176	0.879	878.6	study	Phase3	study/STIM_006.jpg	100
1579.341	1.363	1363.4	study	Phase3	study/STIM_007.jpg	99
1582.794	0.742	742.5	study	Phase3	study/STIM_007.jpg	100
1585.909	0.909	909.3	study	Phase3	study/STIM_007.jpg	99
1589.731	0.837	837.3	study	Phase3	study/STIM_008.jpg	100
1592.757	0.96	959.5	study	Phase3	study/STIM_008.jpg	99
1596.375	1.31	1309.8	study	Phase3	study/STIM_008.jpg	99
1601.588	1.242	1242.3	study	Phase3	study/STIM_009.jpg	100
1606.544	0.684	684.1	study	Phase3	study/STIM_009.jpg	100
1611.207	1.226	1226.3	study	Phase3	study/STIM_009.jpg	100
1615.992	1.309	1308.6	study	Phase3	study/STIM_010.jpg	99
1620.822	1.034	1033.8	study	Phase3	study/STIM_010.jpg	100
1625.506	1.284	1284.4	study	Phase3	study/STIM_010.jpg	99
1629.399	0.653	652.9	study	Phase3	study/STIM_011.jpg	99
1633.224	0.858	858.0	study	Phase3	study/STIM_011.jpg	100
1637.741	1.279	1278.6	study	Phase3	study/STIM_011.jpg	100
1642.31	0.911	911.0	study	Phase3	study/STIM_012.jpg	100
1645.238	1.276	1276.3	study	Phase3	study/STIM_012.jpg	100
1649.776	1.019	1018.9	study	Phase3	study/STIM_012.jpg	99
1654.648	0.65	649.7	study	Phase3	study/STIM_013.jpg	100
1657.402	0.655	654.8	study	Phase3	study/STIM_013.jpg	100
1660.183	1.242	1241.6	study	Phase3	study/STIM_013.jpg	99
1663.483	0.657	656.7	study	Phase3	study/STIM_014.jpg	100
1667.752	0.967	967.1	study	Phase3	study/STIM_014.jpg	99
1672.318	1.102	1102.0	study	Phase3	study/STIM_014.jpg	99
1676.646	1.116	1115.9	study	Phase3	study/STIM_015.jpg	100
1681.004	1.382	1382.3	study	Phase3	study/STIM_015.jpg	99
1686.289	1.046	1045.6	study	Phase3	study/STIM_015.jpg	100
1689.533	0.922	922.4	study	Phase3	study/STIM_016.jpg	100
1693.869	0.656	656.4	study	Phase3	study/STIM_016.jpg	100
1696.702	1.403	1403.1	study	Phase3	study/STIM_016.jpg	99
1700.148	1.296	1295.9	study	Phase3	study/STIM_017.jpg	100
1704.151	1.187	1187.2	study	Phase3	study/STIM_017.jpg	100
1708.648	0.891	890.9	study	Phase3	study/STIM_017.jpg	100
1712.388	0.739	738.8	study	Phase3	study/STIM_018.jpg	99
1715.824	0.938	937.7	study	Phase3	study/STIM_018.jpg	100
1719.755	1.05	1050.3	study	Phase3	study/STIM_018.jpg	99
1724.579	0.757	757.4	study	Phase3	study/STIM_019.jpg	100
1729.279	0.916	916.0	study	Phase3	study/STIM_019.jpg	100
1732.585	0.714	714.4	study	Phase3	study/STIM_019.jpg	99
1736.839	1.382	1382.1	study	Phase3	study/STIM_020.jpg	99
1740.708	0.656	656.4	study	Phase3	study/STIM_020.jpg	99
1744.045	0.869	868.8	study	Phase3	study/STIM_020.jpg	100
1748.084	0.793	792.9	study	Phase3	study/STIM_021.jpg	99
1752.864	0.693	692.8	study	Phase3	study/STIM_021.jpg	100
1756.338	1.034	1034.5	study	Phase3	study/STIM_021.jpg	100
1761.319	0.83	829.9	study	Phase3	study/STIM_022.jpg	99
1764.31	1.064	1064.0	study	Phase3	study/STIM_022.jpg	99
1768.198	0.682	682.4	study	Phase3	study/STIM_022.jpg	100
1770.96	1.278	1277.6	study	Phase3	study/STIM_023.jpg	100
1774.894	1.305	1304.8	study	Phase3	study/STIM_023.jpg	99
1778.637	0.681	681.2	study	Phase3	study/STIM_023.jpg	99
1782.1	1.224	1223.6	study	Phase3	study/STIM_024.jpg	100
1786.015	0.978	977.6	study	Phase3	study/STIM_024.jpg	99
1790.797	0.664	663.9	study	Phase3	study/STIM_024.jpg	100
1793.527	0.991	991.0	study	Phase3	study/STIM_025.jpg	99
1797.241	1.354	1353.5	study	Phase3	study/STIM_025.jpg	99
1802.463	1.217	1216.6	study	Phase3	study/STIM_025.jpg	99
1806.142	0.933	933.0	study	Phase3	study/STIM_026.jpg	100
1810.064	0.993	993.3	study	Phase3	study/STIM_026.jpg	100
1813.925	1.239	1238.8	study	Phase3	study/STIM_026.jpg	99
1818.918	0.788	788.1	study	Phase3	study/STIM_027.jpg	100
1822.402	0.937	937.4	study	Phase3	study/STIM_027.jpg	99
1826.992	0.978	978.3	study	Phase3	study/STIM_027.jpg	100
1831.935	0.672	671.9	study	Phase3	study/STIM_028.jpg	99
1836.155	0.743	743.1	study	Phase3	study/STIM_028.jpg	99
1839.377	1.303	1302.7	study	Phase3	study/STIM_028.jpg	100
1843.338	1.092	1092.4	study	Phase3	study/STIM_029.jpg	100
1847.0	0.95	950.5	study	Phase3	study/STIM_029.jpg	100
1851.0	1.094	1093.5	study	Phase3	study/STIM_029.jpg	100
1855.402	0.91	910.1	test	Phase3	test/STIM_000.jpg	100
1859.834	1.334	1334.4	test	Phase3	test/STIM_000.jpg	100
1863.982	1.059	1059.2	test	Phase3	test/STIM_000.jpg	100
1868.361	0.702	702.2	test	Phase3	test/STIM_001.jpg	100
1871.187	1.036	1035.5	test	Phase3	test/STIM_001.jpg	100
1875.125	0.786	786.2	test	Phase3	test/STIM_001.jpg	100
1879.689	1.272	1272.3	test	Phase3	test/STIM_002.jpg	99
1883.329	1.405	1405.2	test	Phase3	test/STIM_002.jpg	100
1888.439	0.937	937.0	test	Phase3	test/STIM_002.jpg	99
1893.347	1.077	1077.4	test	Phase3	test/STIM_003.jpg	100
1896.864	1.046	1046.2	test	Phase3	test/STIM_003.jpg	100
1900.835	0.997	997.0	test	Phase3	test/STIM_003.jpg	100
1904.542	1.437	1437.3	test	Phase3	test/STIM_004.jpg	100
1909.162	0.74	739.8	test	Phase3	test/STIM_004.jpg	99
1913.891	1.31	1309.7	test	Phase3	test/STIM_004.jpg	100
1918.17	1.322	1322.1	test	Phase3	test/STIM_005.jpg	99
1923.471	0.98	979.5	test	Phase3	test/STIM_005.jpg	99
1926.762	0.868	867.8	test	Phase3	test/STIM_005.jpg	99
1930.173	1.27	1269.7	test	Phase3	test/STIM_006.jpg	100
1935.001	1.163	1162.7	test	Phase3	test/STIM_006.jpg	99
1939.581	0.975	975.0	test	Phase3	test/STIM_006.jpg	99
1943.91	1.215	1214.9	test	Phase3	test/STIM_007.jpg	99
1948.895	0.867	866.6	test	Phase3	test/STIM_007.jpg	100
1953.317	1.055	1054.7	test	Phase3	test/STIM_007.jpg	99
1957.065	0.958	958.2	test	Phase3	test/STIM_008.jpg	100
1960.952	1.073	1072.9	test	Phase3	test/STIM_008.jpg	99
1964.578	1.182	1182.2	test	Phase3	test/STIM_008.jpg	99
1969.519	1.278	1278.5	test	Phase3	test/STIM_009.jpg	99
1974.185	1.14	1140.5	test	Phase3	test/STIM_009.jpg	99
1977.872	0.989	989.2	test	Phase3	test/STIM_009.jpg	99
1982.139	1.086	1085.5	test	Phase3	test/STIM_010.jpg	100
1986.74	1.152	1152.4	test	Phase3	test/STIM_010.jpg	100
1990.561	1.358	1358.2	test	Phase3	test/STIM_010.jpg	99
1995.564	1.096	1096.5	test	Phase3	test/STIM_011.jpg	100
1999.745	0.96	959.6	test	Phase3	test/STIM_011.jpg	99
2003.657	1.323	1322.9	test	Phase3	test/STIM_011.jpg	100
2008.349	0.839	839.3	test	Phase3	test/STIM_012.jpg	100
2012.871	1.286	1286.1	test	Phase3	test/STIM_012.jpg	99
2017.229	0.777	776.8	test	Phase3	test/STIM_012.jpg	99
2020.297	1.102	1101.8	test	Phase3	test/STIM_013.jpg	99
2024.179	1.059	1059.2	test	Phase3	test/STIM_013.jpg	99
2027.456	1.288	1288.3	test	Phase3	test/STIM_013.jpg	100
2030.817	0.815	814.7	test	Phase3	test/STIM_014.jpg	99
2034.442	1.351	1351.4	test	Phase3	test/STIM_014.jpg	100
2037.838	1.23	1229.6	test	Phase3	test/STIM_014.jpg	100
2042.646	0.801	801.0	test	Phase3	test/STIM_015.jpg	99
2046.97	1.415	1415.2	test	Phase3	test/STIM_015.jpg	100
2052.044	0.819	818.7	test	Phase3	test/STIM_015.jpg	100
2056.178	0.82	820.3	test	Phase3	test/STIM_016.jpg	100
2059.262	0.969	968.9	test	Phase3	test/STIM_016.jpg	100
2063.518	1.447	1446.7	test	Phase3	test/STIM_016.jpg	100
2068.047	1.118	1117.9	test	Phase3	test/STIM_017.jpg	100
2072.177	1.094	1094.5	test	Phase3	test/STIM_017.jpg	100
2075.809	0.714	713.5	test	Phase3	test/STIM_017.jpg	100
2078.628	1.1	1099.8	test	Phase3	test/STIM_018.jpg	99
2082.795	0.775	774.6	test	Phase3	test/STIM_018.jpg	99
2087.358	0.818	818.1	test	Phase3	test/STIM_018.jpg	100
2091.404	0.744	744.4	test	Phase3	test/STIM_019.jpg	99
2094.65	1.385	1385.0	test	Phase3	test/STIM_019.jpg	100
2099.195	1.076	1076.2	test	Phase3	test/STIM_019.jpg	100
2104.136	1.427	1427.0	test	Phase3	test/STIM_020.jpg	99
2107.884	1.198	1198.4	test	Phase3	test/STIM_020.jpg	100
2111.119	0.718	718.1	test	Phase3	test/STIM_020.jpg	99
2115.575	0.949	948.8	test	Phase3	test/STIM_021.jpg	100
2119.711	1.299	1299.3	test	Phase3	test/STIM_021.jpg	100
2123.237	1.008	1008.5	test	Phase3	test/STIM_021.jpg	99
2127.348	0.752	752.2	test	Phase3	test/STIM_022.jpg	100
2130.588	0.825	824.8	test	Phase3	test/STIM_022.jpg	100
2134.488	1.013	1013.3	test	Phase3	test/STIM_022.jpg	100
2138.534	1.146	1146.0	test	Phase3	test/STIM_023.jpg	100
2141.73	1.116	1115.5	test	Phase3	test/STIM_023.jpg	99
2144.881	0.986	986.2	test	Phase3	test/STIM_023.jpg	99
2148.573	1.028	1028.1	test	Phase3	test/STIM_024.jpg	99
2152.0	0.721	720.7	test	Phase3	test/STIM_024.jpg	100
2156.457	1.038	1038.5	test	Phase3	test/STIM_024.jpg	99
2161.168	1.247	1246.7	test	Phase3	test/STIM_025.jpg	99
2164.448	1.044	1044.5	test	Phase3	test/STIM_025.jpg	99
2169.284	1.417	1416.8	test	Phase3	test/STIM_025.jpg	100
2173.861	1.017	1017.0	test	Phase3	test/STIM_026.jpg	100
2178.358	1.09	1090.1	test	Phase3	test/STIM_026.jpg	99
2183.3	1.026	1025.6	test	Phase3	test/STIM_026.jpg	99
2187.585	1.196	1196.1	test	Phase3	test/STIM_027.jpg	99
2192.455	0.896	896.2	test	Phase3	test/STIM_027.jpg	100
2196.164	1.24	1240.5	test	Phase3	test/STIM_027.jpg	99
2201.023	1.404	1404.4	test	Phase3	test/STIM_028.jpg	100
2204.57	1.105	1105.4	test	Phase3	test/STIM_028.jpg	100
2209.331	1.195	1194.7	test	Phase3	test/STIM_028.jpg	99
2213.035	1.049	1049.2	test	Phase3	test/STIM_029.jpg	100
2216.563	1.131	1130.7	test	Phase3	test/STIM_029.jpg	100
2220.587	0.953	953.1	test	Phase3	test/STIM_029.jpg	99
