onset	duration	accuracy_binary	trial_type	learning_stage	stimulus
0.0	3.923	1	navigation	Trial1	navigation/STIM_000.jpg
5.554	3.247	0	navigation	Trial1	navigation/STIM_000.jpg
12.063	4.565	1	navigation	Trial1	navigation/STIM_000.jpg
19.025	4.015	1	navigation	Trial1	navigation/STIM_000.jpg
25.983	2.46	1	navigation	Trial1	navigation/STIM_000.jpg
32.063	1.875	1	navigation	Trial1	navigation/STIM_000.jpg
36.603	3.618	1	navigation	Trial1	navigation/STIM_001.jpg
42.467	2.352	1	navigation	Trial1	navigation/STIM_001.jpg
46.917	2.418	1	navigation	Trial1	navigation/STIM_001.jpg
52.92	2.873	1	navigation	Trial1	navigation/STIM_001.jpg
57.648	4.126	1	navigation	Trial1	navigation/STIM_001.jpg
63.266	1.931	1	navigation	Trial1	navigation/STIM_001.jpg
68.171	4.419	0	navigation	Trial1	navigation/STIM_002.jpg
75.153	4.116	0	navigation	Trial1	navigation/STIM_002.jpg
81.297	2.594	0	navigation	Trial1	navigation/STIM_002.jpg
87.487	3.84	1	navigation	Trial1	navigation/STIM_002.jpg
94.683	2.585	1	navigation	Trial1	navigation/STIM_002.jpg
100.3	3.547	1	navigation	Trial1	navigation/STIM_002.jpg
106.646	5.744	1	navigation	Trial1	navigation/STIM_003.jpg
114.209	2.412	1	navigation	Trial1	navigation/STIM_003.jpg
119.54	3.463	1	navigation	Trial1	navigation/STIM_003.jpg
126.021	3.288	1	navigation	Trial1	navigation/STIM_003.jpg
131.047	3.838	0	navigation	Trial1	navigation/STIM_003.jpg
136.433	3.598	1	navigation	Trial1	navigation/STIM_003.jpg
143.296	4.373	0	navigation	Trial1	navigation/STIM_004.jpg
150.884	2.203	1	navigation	Trial1	navigation/STIM_004.jpg
155.764	3.102	1	navigation	Trial1	navigation/STIM_004.jpg
162.338	3.989	0	navigation	Trial1	navigation/STIM_004.jpg
168.54	2.726	1	navigation	Trial1	navigation/STIM_004.jpg
173.325	2.925	0	navigation	Trial1	navigation/STIM_004.jpg
178.795	5.643	1	navigation	Trial1	navigation/STIM_005.jpg
187.511	4.518	1	navigation	Trial1	navigation/STIM_005.jpg
195.066	4.056	1	navigation	Trial1	navigation/STIM_005.jpg
202.63	3.958	1	navigation	Trial1	navigation/STIM_005.jpg
208.53	4.069	0	navigation	Trial1	navigation/STIM_005.jpg
214.743	2.907	1	navigation	Trial1	navigation/STIM_005.jpg
220.478	2.515	1	navigation	Trial1	navigation/STIM_006.jpg
225.366	4.287	0	navigation	Trial1	navigation/STIM_006.jpg
232.658	4.428	1	navigation	Trial1	navigation/STIM_006.jpg
240.523	3.789	1	navigation	Trial1	navigation/STIM_006.jpg
246.068	3.405	1	navigation	Trial1	navigation/STIM_006.jpg
251.922	3.72	1	navigation	Trial1	navigation/STIM_006.jpg
258.348	2.517	0	navigation	Trial1	navigation/STIM_007.jpg
263.099	5.263	0	navigation	Trial1	navigation/STIM_007.jpg
271.12	3.234	1	navigation	Trial1	navigation/STIM_007.jpg
277.237	2.934	1	navigation	Trial1	navigation/STIM_007.jpg
283.111	1.905	1	navigation	Trial1	navigation/STIM_007.jpg
287.841	3.348	0	navigation	Trial1	navigation/STIM_007.jpg
293.87	3.469	0	navigation	Trial1	navigation/STIM_008.jpg
300.124	5.136	1	navigation	Trial1	navigation/STIM_008.jpg
307.352	3.448	1	navigation	Trial1	navigation/STIM_008.jpg
312.666	4.61	0	navigation	Trial1	navigation/STIM_008.jpg
320.542	2.708	1	navigation	Trial1	navigation/STIM_008.jpg
325.361	1.958	1	navigation	Trial1	navigation/STIM_008.jpg
330.199	5.005	1	navigation	Trial1	navigation/STIM_009.jpg
336.98	4.298	0	navigation	Trial1	navigation/STIM_009.jpg
343.359	3.043	0	navigation	Trial1	navigation/STIM_009.jpg
349.825	4.832	0	navigation	Trial1	navigation/STIM_009.jpg
356.898	3.802	1	navigation	Trial1	navigation/STIM_009.jpg
362.272	2.831	1	navigation	Trial1	navigation/STIM_009.jpg
367.304	5.48	1	navigation	Trial1	navigation/STIM_010.jpg
375.117	3.973	0	navigation	Trial1	navigation/STIM_010.jpg
381.194	5.071	1	navigation	Trial1	navigation/STIM_010.jpg
389.068	3.874	1	navigation	Trial1	navigation/STIM_010.jpg
395.557	4.178	1	navigation	Trial1	navigation/STIM_010.jpg
402.236	4.224	1	navigation	Trial1	navigation/STIM_010.jpg
407.999	4.708	1	navigation	Trial1	navigation/STIM_011.jpg
414.428	5.038	1	navigation	Trial1	navigation/STIM_011.jpg
422.312	3.107	1	navigation	Trial1	navigation/STIM_011.jpg
427.938	2.762	0	navigation	Trial1	navigation/STIM_011.jpg
433.228	3.067	1	navigation	Trial1	navigation/STIM_011.jpg
438.722	2.472	1	navigation	Trial1	navigation/STIM_011.jpg
443.485	1.073	1	pointing	Trial1	pointing/STIM_000.jpg
446.625	1.169	1	pointing	Trial1	pointing/STIM_000.jpg
451.155	1.113	1	pointing	Trial1	pointing/STIM_000.jpg
455.509	1.035	1	pointing	Trial1	pointing/STIM_000.jpg
459.117	1.34	1	pointing	Trial1	pointing/STIM_000.jpg
462.613	1.342	1	pointing	Trial1	pointing/STIM_000.jpg
466.333	1.555	1	pointing	Trial1	pointing/STIM_001.jpg
470.119	1.098	1	pointing	Trial1	pointing/STIM_001.jpg
474.945	1.26	1	pointing	Trial1	pointing/STIM_001.jpg
479.942	1.231	1	pointing	Trial1	pointing/STIM_001.jpg
484.892	1.135	0	pointing	Trial1	pointing/STIM_001.jpg
487.812	1.494	1	pointing	Trial1	pointing/STIM_001.jpg
492.503	1.333	1	pointing	Trial1	pointing/STIM_002.jpg
497.526	1.257	1	pointing	Trial1	pointing/STIM_002.jpg
501.747	1.164	1	pointing	Trial1	pointing/STIM_002.jpg
505.627	1.585	1	pointing	Trial1	pointing/STIM_002.jpg
509.921	1.403	1	pointing	Trial1	pointing/STIM_002.jpg
514.239	1.231	1	pointing	Trial1	pointing/STIM_002.jpg
517.881	1.082	1	pointing	Trial1	pointing/STIM_003.jpg
521.976	1.31	1	pointing	Trial1	pointing/STIM_003.jpg
525.725	1.259	1	pointing	Trial1	pointing/STIM_003.jpg
530.727	1.577	1	pointing	Trial1	pointing/STIM_003.jpg
535.06	1.289	1	pointing	Trial1	pointing/STIM_003.jpg
538.37	1.622	1	pointing	Trial1	pointing/STIM_003.jpg
542.971	1.16	1	pointing	Trial1	pointing/STIM_004.jpg
547.146	1.235	1	pointing	Trial1	pointing/STIM_004.jpg
551.681	1.328	1	pointing	Trial1	pointing/STIM_004.jpg
555.833	1.63	0	pointing	Trial1	pointing/STIM_004.jpg
559.89	1.699	0	pointing	Trial1	pointing/STIM_004.jpg
563.971	1.734	1	pointing	Trial1	pointing/STIM_004.jpg
567.627	1.107	0	pointing	Trial1	pointing/STIM_005.jpg
572.404	1.534	1	pointing	Trial1	pointing/STIM_005.jpg
576.289	1.009	1	pointing	Trial1	pointing/STIM_005.jpg
580.109	1.697	0	pointing	Trial1	pointing/STIM_005.jpg
583.809	1.229	1	pointing	Trial1	pointing/STIM_005.jpg
588.298	0.854	1	pointing	Trial1	pointing/STIM_005.jpg
591.631	1.349	1	pointing	Trial1	pointing/STIM_006.jpg
596.382	0.971	1	pointing	Trial1	pointing/STIM_006.jpg
600.25	1.376	1	pointing	Trial1	pointing/STIM_006.jpg
605.175	1.674	1	pointing	Trial1	pointing/STIM_006.jpg
610.351	0.971	0	pointing	Trial1	pointing/STIM_006.jpg
613.46	1.462	1	pointing	Trial1	pointing/STIM_006.jpg
617.743	1.573	1	pointing	Trial1	pointing/STIM_007.jpg
621.535	0.839	1	pointing	Trial1	pointing/STIM_007.jpg
625.407	1.16	0	pointing	Trial1	pointing/STIM_007.jpg
628.686	1.478	1	pointing	Trial1	pointing/STIM_007.jpg
632.411	1.544	1	pointing	Trial1	pointing/STIM_007.jpg
636.487	1.511	1	pointing	Trial1	pointing/STIM_007.jpg
640.57	1.214	1	pointing	Trial1	pointing/STIM_008.jpg
644.252	1.397	1	pointing	Trial1	pointing/STIM_008.jpg
648.384	1.214	1	pointing	Trial1	pointing/STIM_008.jpg
651.912	0.973	1	pointing	Trial1	pointing/STIM_008.jpg
654.892	1.029	1	pointing	Trial1	pointing/STIM_008.jpg
657.845	1.528	1	pointing	Trial1	pointing/STIM_008.jpg
663.184	1.427	1	pointing	Trial1	pointing/STIM_009.jpg
668.395	0.924	0	pointing	Trial1	pointing/STIM_009.jpg
672.085	1.117	1	pointing	Trial1	pointing/STIM_009.jpg
676.21	1.42	1	pointing	Trial1	pointing/STIM_009.jpg
680.056	1.225	1	pointing	Trial1	pointing/STIM_009.jpg
684.081	1.038	1	pointing	Trial1	pointing/STIM_009.jpg
688.218	1.664	1	pointing	Trial1	pointing/STIM_010.jpg
692.515	1.696	1	pointing	Trial1	pointing/STIM_010.jpg
696.726	1.194	0	pointing	Trial1	pointing/STIM_010.jpg
699.868	0.98	1	pointing	Trial1	pointing/STIM_010.jpg
703.593	0.989	1	pointing	Trial1	pointing/STIM_010.jpg
708.186	1.261	0	pointing	Trial1	pointing/STIM_010.jpg
711.645	1.409	1	pointing	Trial1	pointing/STIM_011.jpg
715.935	1.345	1	pointing	Trial1	pointing/STIM_011.jpg
719.27	1.34	1	pointing	Trial1	pointing/STIM_011.jpg
723.399	1.351	1	pointing	Trial1	pointing/STIM_011.jpg
727.355	1.029	1	pointing	Trial1	pointing/STIM_011.jpg
731.204	1.055	1	pointing	Trial1	pointing/STIM_011.jpg
734.589	3.045	1	navigation	Trial2	navigation/STIM_000.jpg
740.639	2.05	1	navigation	Trial2	navigation/STIM_000.jpg
744.576	2.199	1	navigation	Trial2	navigation/STIM_000.jpg
750.048	2.075	1	navigation	Trial2	navigation/STIM_000.jpg
753.891	2.52	1	navigation	Trial2	navigation/STIM_000.jpg
758.087	3.787	1	navigation	Trial2	navigation/STIM_000.jpg
764.502	3.322	1	navigation	Trial2	navigation/STIM_001.jpg
770.794	1.97	1	navigation	Trial2	navigation/STIM_001.jpg
776.056	4.292	1	navigation	Trial2	navigation/STIM_001.jpg
781.959	2.44	1	navigation	Trial2	navigation/STIM_001.jpg
786.207	2.933	1	navigation	Trial2	navigation/STIM_001.jpg
791.929	2.995	1	navigation	Trial2	navigation/STIM_001.jpg
797.722	3.878	1	navigation	Trial2	navigation/STIM_002.jpg
804.926	2.522	0	navigation	Trial2	navigation/STIM_002.jpg
810.317	2.551	1	navigation	Trial2	navigation/STIM_002.jpg
814.846	2.358	1	navigation	Trial2	navigation/STIM_002.jpg
819.511	1.879	1	navigation	Trial2	navigation/STIM_002.jpg
824.604	3.374	1	navigation	Trial2	navigation/STIM_002.jpg
830.243	3.07	1	navigation	Trial2	navigation/STIM_003.jpg
835.4	3.976	1	navigation	Trial2	navigation/STIM_003.jpg
842.816	1.935	1	navigation	Trial2	navigation/STIM_003.jpg
846.779	3.435	1	navigation	Trial2	navigation/STIM_003.jpg
852.967	3.008	1	navigation	Trial2	navigation/STIM_003.jpg
859.095	3.589	1	navigation	Trial2	navigation/STIM_003.jpg
866.108	2.812	0	navigation	Trial2	navigation/STIM_004.jpg
871.191	4.513	1	navigation	Trial2	navigation/STIM_004.jpg
877.977	3.148	1	navigation	Trial2	navigation/STIM_004.jpg
884.66	2.516	1	navigation	Trial2	navigation/STIM_004.jpg
890.227	3.367	1	navigation	Trial2	navigation/STIM_004.jpg
895.383	2.422	0	navigation	Trial2	navigation/STIM_004.jpg
901.437	2.12	0	navigation	Trial2	navigation/STIM_005.jpg
906.332	3.389	1	navigation	Trial2	navigation/STIM_005.jpg
912.077	2.347	1	navigation	Trial2	navigation/STIM_005.jpg
916.534	3.534	1	navigation	Trial2	navigation/STIM_005.jpg
922.355	2.924	1	navigation	Trial2	navigation/STIM_005.jpg
926.935	2.234	1	navigation	Trial2	navigation/STIM_005.jpg
932.72	3.531	1	navigation	Trial2	navigation/STIM_006.jpg
938.458	3.503	1	navigation	Trial2	navigation/STIM_006.jpg
944.763	2.973	0	navigation	Trial2	navigation/STIM_006.jpg
950.937	3.042	1	navigation	Trial2	navigation/STIM_006.jpg
957.035	3.368	1	navigation	Trial2	navigation/STIM_006.jpg
963.231	3.431	1	navigation	Trial2	navigation/STIM_006.jpg
968.84	3.355	1	navigation	Trial2	navigation/STIM_007.jpg
974.86	3.476	1	navigation	Trial2	navigation/STIM_007.jpg
980.616	3.509	1	navigation	Trial2	navigation/STIM_007.jpg
987.536	3.315	1	navigation	Trial2	navigation/STIM_007.jpg
992.502	1.629	1	navigation	Trial2	navigation/STIM_007.jpg
996.523	2.82	1	navigation	Trial2	navigation/STIM_007.jpg
1001.194	4.297	0	navigation	Trial2	navigation/STIM_008.jpg
1007.497	3.271	1	navigation	Trial2	navigation/STIM_008.jpg
1013.331	1.99	0	navigation	Trial2	navigation/STIM_008.jpg
1017.735	2.415	1	navigation	Trial2	navigation/STIM_008.jpg
1023.269	1.875	1	navigation	Trial2	navigation/STIM_008.jpg
1028.446	2.338	1	navigation	Trial2	navigation/STIM_008.jpg
1033.602	2.893	0	navigation	Trial2	navigation/STIM_009.jpg
1040.051	2.095	0	navigation	Trial2	navigation/STIM_009.jpg
1044.345	3.025	1	navigation	Trial2	navigation/STIM_009.jpg
1050.342	2.586	1	navigation	Trial2	navigation/STIM_009.jpg
1056.534	2.846	1	navigation	Trial2	navigation/STIM_009.jpg
1061.241	3.496	1	navigation	Trial2	navigation/STIM_009.jpg
1067.752	3.685	0	navigation	Trial2	navigation/STIM_010.jpg
1073.687	3.58	1	navigation	Trial2	navigation/STIM_010.jpg
1079.754	2.633	1	navigation	Trial2	navigation/STIM_010.jpg
1085.913	2.27	1	navigation	Trial2	navigation/STIM_010.jpg
1091.262	1.803	1	navigation	Trial2	navigation/STIM_010.jpg
1095.533	1.852	0	navigation	Trial2	navigation/STIM_010.jpg
1099.926	4.586	1	navigation	Trial2	navigation/STIM_011.jpg
1106.143	4.6	0	navigation	Trial2	navigation/STIM_011.jpg
1113.572	2.683	1	navigation	Trial2	navigation/STIM_011.jpg
1119.017	3.214	1	navigation	Trial2	navigation/STIM_011.jpg
1124.778	2.097	1	navigation	Trial2	navigation/STIM_011.jpg
1130.314	2.744	1	navigation	Trial2	navigation/STIM_011.jpg
1135.343	1.33	1	pointing	Trial2	pointing/STIM_000.jpg
1138.997	1.639	1	pointing	Trial2	pointing/STIM_000.jpg
1144.379	1.03	0	pointing	Trial2	pointing/STIM_000.jpg
1147.68	0.869	1	pointing	Trial2	pointing/STIM_000.jpg
1151.992	0.864	1	pointing	Trial2	pointing/STIM_000.jpg
1156.375	1.431	1	pointing	Trial2	pointing/STIM_000.jpg
1161.47	1.148	1	pointing	Trial2	pointing/STIM_001.jpg
1164.414	1.021	1	pointing	Trial2	pointing/STIM_001.jpg
1167.953	1.113	1	pointing	Trial2	pointing/STIM_001.jpg
1171.138	1.467	1	pointing	Trial2	pointing/STIM_001.jpg
1174.62	1.177	1	pointing	Trial2	pointing/STIM_001.jpg
1178.286	1.518	1	pointing	Trial2	pointing/STIM_001.jpg
1183.45	1.298	1	pointing	Trial2	pointing/STIM_002.jpg
1188.453	1.004	1	pointing	Trial2	pointing/STIM_002.jpg
1192.676	1.335	1	pointing	Trial2	pointing/STIM_002.jpg
1197.13	1.203	1	pointing	Trial2	pointing/STIM_002.jpg
1200.886	0.912	1	pointing	Trial2	pointing/STIM_002.jpg
1203.913	1.578	1	pointing	Trial2	pointing/STIM_002.jpg
1208.506	0.992	0	pointing	Trial2	pointing/STIM_003.jpg
1212.413	1.586	1	pointing	Trial2	pointing/STIM_003.jpg
1216.855	1.201	0	pointing	Trial2	pointing/STIM_003.jpg
1220.509	1.149	1	pointing	Trial2	pointing/STIM_003.jpg
1223.665	1.444	1	pointing	Trial2	pointing/STIM_003.jpg
1227.08	1.339	1	pointing	Trial2	pointing/STIM_003.jpg
1230.424	1.586	1	pointing	Trial2	pointing/STIM_004.jpg
1234.452	1.052	1	pointing	Trial2	pointing/STIM_004.jpg
1237.692	0.973	1	pointing	Trial2	pointing/STIM_004.jpg
1240.837	1.349	1	pointing	Trial2	pointing/STIM_004.jpg
1245.669	1.062	0	pointing	Trial2	pointing/STIM_004.jpg
1250.456	1.641	1	pointing	Trial2	pointing/STIM_004.jpg
1254.797	1.088	1	pointing	Trial2	pointing/STIM_005.jpg
1258.01	1.349	1	pointing	Trial2	pointing/STIM_005.jpg
1261.32	1.657	1	pointing	Trial2	pointing/STIM_005.jpg
1265.642	1.233	1	pointing	Trial2	pointing/STIM_005.jpg
1270.035	1.54	1	pointing	Trial2	pointing/STIM_005.jpg
1274.583	1.022	1	pointing	Trial2	pointing/STIM_005.jpg
1277.626	1.241	1	pointing	Trial2	pointing/STIM_006.jpg
1282.089	1.16	1	pointing	Trial2	pointing/STIM_006.jpg
1286.26	1.631	1	pointing	Trial2	pointing/STIM_006.jpg
1291.096	1.517	1	pointing	Trial2	pointing/STIM_006.jpg
1294.789	1.224	1	pointing	Trial2	pointing/STIM_006.jpg
1298.556	1.738	1	pointing	Trial2	pointing/STIM_006.jpg
1302.847	1.322	1	pointing	Trial2	pointing/STIM_007.jpg
1306.3	1.592	1	pointing	Trial2	pointing/STIM_007.jpg
1311.543	1.655	1	pointing	Trial2	pointing/STIM_007.jpg
1315.618	1.664	1	pointing	Trial2	pointing/STIM_007.jpg
1320.466	1.281	1	pointing	Trial2	pointing/STIM_007.jpg
1324.244	1.21	1	pointing	Trial2	pointing/STIM_007.jpg
1328.479	1.406	1	pointing	Trial2	pointing/STIM_008.jpg
1332.782	1.555	1	pointing	Trial2	pointing/STIM_008.jpg
1336.999	0.978	1	pointing	Trial2	pointing/STIM_008.jpg
1341.17	1.511	1	pointing	Trial2	pointing/STIM_008.jpg
1345.097	0.96	0	pointing	Trial2	pointing/STIM_008.jpg
1349.834	0.976	1	pointing	Trial2	pointing/STIM_008.jpg
1353.784	1.503	1	pointing	Trial2	pointing/STIM_009.jpg
1357.419	1.53	1	pointing	Trial2	pointing/STIM_009.jpg
1362.463	1.382	1	pointing	Trial2	pointing/STIM_009.jpg
1365.928	1.007	1	pointing	Trial2	pointing/STIM_009.jpg
1368.86	1.7	1	pointing	Trial2	pointing/STIM_009.jpg
1374.112	1.507	1	pointing	Trial2	pointing/STIM_009.jpg
1378.451	1.008	1	pointing	Trial2	pointing/STIM_010.jpg
1383.139	0.902	1	pointing	Trial2	pointing/STIM_010.jpg
1386.101	1.589	1	pointing	Trial2	pointing/STIM_010.jpg
1390.612	1.233	1	pointing	Trial2	pointing/STIM_010.jpg
1394.941	1.057	1	pointing	Trial2	pointing/STIM_010.jpg
1398.899	1.722	1	pointing	Trial2	pointing/STIM_010.jpg
1403.612	1.577	1	pointing	Trial2	pointing/STIM_011.jpg
1409.028	1.563	1	pointing	Trial2	pointing/STIM_011.jpg
1414.374	1.439	1	pointing	Trial2	pointing/STIM_011.jpg
1418.126	1.453	1	pointing	Trial2	pointing/STIM_011.jpg
1422.48	1.617	1	pointing	Trial2	pointing/STIM_011.jpg
1427.784	1.079	1	pointing	Trial2	pointing/STIM_011.jpg
1432.203	3.697	1	navigation	Trial3	navigation/STIM_000.jpg
1438.371	3.706	1	navigation	Trial3	navigation/STIM_000.jpg
1445.503	3.085	1	navigation	Trial3	navigation/STIM_000.jpg
1450.69	1.972	1	navigation	Trial3	navigation/STIM_000.jpg
1455.069	3.306	1	navigation	Trial3	navigation/STIM_000.jpg
1461.508	1.817	1	navigation	Trial3	navigation/STIM_000.jpg
1465.744	3.446	1	navigation	Trial3	navigation/STIM_001.jpg
1470.713	2.771	1	navigation	Trial3	navigation/STIM_001.jpg
1476.87	3.495	1	navigation	Trial3	navigation/STIM_001.jpg
1482.771	2.832	1	navigation	Trial3	navigation/STIM_001.jpg
1488.366	3.304	1	navigation	Trial3	navigation/STIM_001.jpg
1494.612	2.744	1	navigation	Trial3	navigation/STIM_001.jpg
1500.035	3.857	0	navigation	Trial3	navigation/STIM_002.jpg
1505.523	3.504	1	navigation	Trial3	navigation/STIM_002.jpg
1511.85	2.5	1	navigation	Trial3	navigation/STIM_002.jpg
1517.658	3.192	1	navigation	Trial3	navigation/STIM_002.jpg
1522.733	1.979	1	navigation	Trial3	navigation/STIM_002.jpg
1527.958	1.542	1	navigation	Trial3	navigation/STIM_002.jpg
1532.068	2.3	1	navigation	Trial3	navigation/STIM_003.jpg
1537.869	3.793	1	navigation	Trial3	navigation/STIM_003.jpg
1545.133	2.408	1	navigation	Trial3	navigation/STIM_003.jpg
1550.693	1.735	1	navigation	Trial3	navigation/STIM_003.jpg
1555.197	3.025	1	navigation	Trial3	navigation/STIM_003.jpg
1561.296	3.743	1	navigation	Trial3	navigation/STIM_003.jpg
1567.239	2.778	1	navigation	Trial3	navigation/STIM_004.jpg
1573.472	2.95	1	navigation	Trial3	navigation/STIM_004.jpg
1578.382	2.48	1	navigation	Trial3	navigation/STIM_004.jpg
1584.135	2.658	1	navigation	Trial3	navigation/STIM_004.jpg
1588.597	2.962	1	navigation	Trial3	navigation/STIM_004.jpg
1593.438	2.164	1	navigation	Trial3	navigation/STIM_004.jpg
1598.215	4.02	1	navigation	Trial3	navigation/STIM_005.jpg
1604.342	2.637	1	navigation	Trial3	navigation/STIM_005.jpg
1610.087	2.889	1	navigation	Trial3	navigation/STIM_005.jpg
1615.074	3.318	1	navigation	Trial3	navigation/STIM_005.jpg
1621.253	3.375	1	navigation	Trial3	navigation/STIM_005.jpg
1627.748	3.583	1	navigation	Trial3	navigation/STIM_005.jpg
1634.901	4.034	1	navigation	Trial3	navigation/STIM_006.jpg
1642.116	1.966	1	navigation	Trial3	navigation/STIM_006.jpg
1646.096	3.827	1	navigation	Trial3	navigation/STIM_006.jpg
1652.278	2.03	1	navigation	Trial3	navigation/STIM_006.jpg
1657.533	3.837	1	navigation	Trial3	navigation/STIM_006.jpg
1663.992	3.258	1	navigation	Trial3	navigation/STIM_006.jpg
1670.221	2.639	1	navigation	Trial3	navigation/STIM_007.jpg
1676.291	2.412	1	navigation	Trial3	navigation/STIM_007.jpg
1681.79	2.024	0	navigation	Trial3	navigation/STIM_007.jpg
1686.469	3.65	1	navigation	Trial3	navigation/STIM_007.jpg
1693.49	3.079	1	navigation	Trial3	navigation/STIM_007.jpg
1699.774	3.547	1	navigation	Trial3	navigation/STIM_007.jpg
1705.206	1.975	1	navigation	Trial3	navigation/STIM_008.jpg
1709.59	3.908	1	navigation	Trial3	navigation/STIM_008.jpg
1715.007	3.889	1	navigation	Trial3	navigation/STIM_008.jpg
1720.546	3.048	1	navigation	Trial3	navigation/STIM_008.jpg
1725.155	3.123	1	navigation	Trial3	navigation/STIM_008.jpg
1731.301	3.172	1	navigation	Trial3	navigation/STIM_008.jpg
1736.152	2.014	1	navigation	Trial3	navigation/STIM_009.jpg
1741.863	3.602	1	navigation	Trial3	navigation/STIM_009.jpg
1748.2	2.803	1	navigation	Trial3	navigation/STIM_009.jpg
1753.77	3.997	1	navigation	Trial3	navigation/STIM_009.jpg
1759.581	2.027	1	navigation	Trial3	navigation/STIM_009.jpg
1764.153	3.733	1	navigation	Trial3	navigation/STIM_009.jpg
1770.508	2.159	1	navigation	Trial3	navigation/STIM_010.jpg
1775.212	3.194	1	navigation	Trial3	navigation/STIM_010.jpg
1781.661	3.216	1	navigation	Trial3	navigation/STIM_010.jpg
1787.079	1.722	1	navigation	Trial3	navigation/STIM_010.jpg
1790.978	4.02	1	navigation	Trial3	navigation/STIM_010.jpg
1797.169	2.082	1	navigation	Trial3	navigation/STIM_010.jpg
1801.853	3.674	1	navigation	Trial3	navigation/STIM_011.jpg
1808.693	2.145	1	navigation	Trial3	navigation/STIM_011.jpg
1812.965	3.441	0	navigation	Trial3	navigation/STIM_011.jpg
1819.15	3.553	1	navigation	Trial3	navigation/STIM_011.jpg
1824.287	3.622	1	navigation	Trial3	navigation/STIM_011.jpg
1829.569	3.814	0	navigation	Trial3	navigation/STIM_011.jpg
1835.734	1.144	1	pointing	Trial3	pointing/STIM_000.jpg
1839.193	1.118	1	pointing	Trial3	pointing/STIM_000.jpg
1843.667	1.502	1	pointing	Trial3	pointing/STIM_000.jpg
1847.232	1.018	1	pointing	Trial3	pointing/STIM_000.jpg
1852.105	1.391	1	pointing	Trial3	pointing/STIM_000.jpg
1855.543	1.569	0	pointing	Trial3	pointing/STIM_000.jpg
1859.913	1.361	1	pointing	Trial3	pointing/STIM_001.jpg
1864.879	1.139	1	pointing	Trial3	pointing/STIM_001.jpg
1869.297	1.587	1	pointing	Trial3	pointing/STIM_001.jpg
1873.403	0.964	1	pointing	Trial3	pointing/STIM_001.jpg
1877.064	1.362	1	pointing	Trial3	pointing/STIM_001.jpg
1881.003	1.555	1	pointing	Trial3	pointing/STIM_001.jpg
1885.07	1.21	1	pointing	Trial3	pointing/STIM_002.jpg
1889.567	1.293	1	pointing	Trial3	pointing/STIM_002.jpg
1894.575	1.583	1	pointing	Trial3	pointing/STIM_002.jpg
1899.254	1.287	1	pointing	Trial3	pointing/STIM_002.jpg
1903.551	1.183	1	pointing	Trial3	pointing/STIM_002.jpg
1908.113	1.27	1	pointing	Trial3	pointing/STIM_002.jpg
1913.22	1.731	0	pointing	Trial3	pointing/STIM_003.jpg
1918.306	1.085	0	pointing	Trial3	pointing/STIM_003.jpg
1921.516	0.904	1	pointing	Trial3	pointing/STIM_003.jpg
1925.815	0.99	1	pointing	Trial3	pointing/STIM_003.jpg
1929.403	1.312	1	pointing	Trial3	pointing/STIM_003.jpg
1933.31	1.059	1	pointing	Trial3	pointing/STIM_003.jpg
1938.063	1.462	1	pointing	Trial3	pointing/STIM_004.jpg
1941.647	1.268	1	pointing	Trial3	pointing/STIM_004.jpg
1945.983	1.105	1	pointing	Trial3	pointing/STIM_004.jpg
1950.705	1.605	1	pointing	Trial3	pointing/STIM_004.jpg
1955.681	1.117	1	pointing	Trial3	pointing/STIM_004.jpg
1959.159	1.283	1	pointing	Trial3	pointing/STIM_004.jpg
1962.975	1.541	1	pointing	Trial3	pointing/STIM_005.jpg
1967.892	1.124	1	pointing	Trial3	pointing/STIM_005.jpg
1972.611	1.679	1	pointing	Trial3	pointing/STIM_005.jpg
1977.664	1.341	1	pointing	Trial3	pointing/STIM_005.jpg
1981.108	1.035	1	pointing	Trial3	pointing/STIM_005.jpg
1984.367	1.155	1	pointing	Trial3	pointing/STIM_005.jpg
1989.196	1.52	1	pointing	Trial3	pointing/STIM_006.jpg
1992.56	0.887	1	pointing	Trial3	pointing/STIM_006.jpg
1995.645	1.48	1	pointing	Trial3	pointing/STIM_006.jpg
2000.804	1.736	1	pointing	Trial3	pointing/STIM_006.jpg
2005.906	1.219	1	pointing	Trial3	pointing/STIM_006.jpg
2010.026	1.116	1	pointing	Trial3	pointing/STIM_006.jpg
2014.969	0.929	1	pointing	Trial3	pointing/STIM_007.jpg
2019.336	1.4	1	pointing	Trial3	pointing/STIM_007.jpg
2023.521	1.33	0	pointing	Trial3	pointing/STIM_007.jpg
2027.865	1.028	1	pointing	Trial3	pointing/STIM_007.jpg
2031.094	1.472	0	pointing	Trial3	pointing/STIM_007.jpg
2034.904	0.995	1	pointing	Trial3	pointing/STIM_007.jpg
2038.162	0.982	1	pointing	Trial3	pointing/STIM_008.jpg
2041.332	1.482	1	pointing	Trial3	pointing/STIM_008.jpg
2046.257	1.092	1	pointing	Trial3	pointing/STIM_008.jpg
2049.927	1.068	1	pointing	Trial3	pointing/STIM_008.jpg
2052.884	1.761	1	pointing	Trial3	pointing/STIM_008.jpg
2057.375	1.296	1	pointing	Trial3	pointing/STIM_008.jpg
2060.915	1.316	1	pointing	Trial3	pointing/STIM_009.jpg
2065.192	1.572	1	pointing	Trial3	pointing/STIM_009.jpg
2069.696	1.436	1	pointing	Trial3	pointing/STIM_009.jpg
2073.651	0.91	1	pointing	Trial3	pointing/STIM_009.jpg
2077.178	1.23	1	pointing	Trial3	pointing/STIM_009.jpg
2080.982	1.062	1	pointing	Trial3	pointing/STIM_009.jpg
2085.211	1.142	1	pointing	Trial3	pointing/STIM_010.jpg
2089.522	1.653	1	pointing	Trial3	pointing/STIM_010.jpg
2093.504	0.99	1	pointing	Trial3	pointing/STIM_010.jpg
2097.49	1.101	1	pointing	Trial3	pointing/STIM_010.jpg
2100.489	1.484	0	pointing	Trial3	pointing/STIM_010.jpg
2104.792	1.254	1	pointing	Trial3	pointing/STIM_010.jpg
2109.189	1.04	1	pointing	Trial3	pointing/STIM_011.jpg
2113.897	1.068	1	pointing	Trial3	pointing/STIM_011.jpg
2116.914	1.084	1	pointing	Trial3	pointing/STIM_011.jpg
2121.823	1.402	1	pointing	Trial3	pointing/STIM_011.jpg
2126.813	1.17	1	pointing	Trial3	pointing/STIM_011.jpg
2130.366	1.0	1	pointing	Trial3	pointing/STIM_011.jpg
