onset	duration	response_time_ms	trial_type	learning_stage	stimulus	response_port
0.0	3.923	3923.4	navigation	Trial1	navigation/STIM_000.jpg	100
5.554	3.247	3246.9	navigation	Trial1	navigation/STIM_000.jpg	100
12.063	4.565	4564.7	navigation	Trial1	navigation/STIM_000.jpg	100
19.025	4.015	4014.6	navigation	Trial1	navigation/STIM_000.jpg	99
25.983	2.46	2459.6	navigation	Trial1	navigation/STIM_000.jpg	99
32.063	1.875	1874.9	navigation	Trial1	navigation/STIM_000.jpg	99
36.603	3.618	3618.2	navigation	Trial1	navigation/STIM_001.jpg	100
42.467	2.352	2351.6	navigation	Trial1	navigation/STIM_001.jpg	100
46.917	2.418	2417.5	navigation	Trial1	navigation/STIM_001.jpg	99
52.92	2.873	2872.8	navigation	Trial1	navigation/STIM_001.jpg	99
57.648	4.126	4126.5	navigation	Trial1	navigation/STIM_001.jpg	99
63.266	1.931	1931.0	navigation	Trial1	navigation/STIM_001.jpg	100
68.171	4.419	4418.6	navigation	Trial1	navigation/STIM_002.jpg	99
75.153	4.116	4116.3	navigation	Trial1	navigation/STIM_002.jpg	100
81.297	2.594	2593.7	navigation	Trial1	navigation/STIM_002.jpg	100
87.487	3.84	3840.4	navigation	Trial1	navigation/STIM_002.jpg	99
94.683	2.585	2585.4	navigation	Trial1	navigation/STIM_002.jpg	99
100.3	3.547	3547.4	navigation	Trial1	navigation/STIM_002.jpg	99
106.646	5.744	5743.9	navigation	Trial1	navigation/STIM_003.jpg	100
114.209	2.412	2411.9	navigation	Trial1	navigation/STIM_003.jpg	100
119.54	3.463	3463.1	navigation	Trial1	navigation/STIM_003.jpg	100
126.021	3.288	3287.5	navigation	Trial1	navigation/STIM_003.jpg	100
131.047	3.838	3838.5	navigation	Trial1	navigation/STIM_003.jpg	100
136.433	3.598	3597.8	navigation	Trial1	navigation/STIM_003.jpg	100
143.296	4.373	4373.0	navigation	Trial1	navigation/STIM_004.jpg	99
150.884	2.203	2202.7	navigation	Trial1	navigation/STIM_004.jpg	99
155.764	3.102	3101.9	navigation	Trial1	navigation/STIM_004.jpg	99
162.338	3.989	3989.1	navigation	Trial1	navigation/STIM_004.jpg	100
168.54	2.726	2726.3	navigation	Trial1	navigation/STIM_004.jpg	100
173.325	2.925	2925.0	navigation	Trial1	navigation/STIM_004.jpg	100
178.795	5.643	5643.3	navigation	Trial1	navigation/STIM_005.jpg	100
187.511	4.518	4518.5	navigation	Trial1	navigation/STIM_005.jpg	100
195.066	4.056	4055.7	navigation	Trial1	navigation/STIM_005.jpg	99
202.63	3.958	3958.3	navigation	Trial1	navigation/STIM_005.jpg	100
208.53	4.069	4068.6	navigation	Trial1	navigation/STIM_005.jpg	99
214.743	2.907	2907.0	navigation	Trial1	navigation/STIM_005.jpg	100
220.478	2.515	2515.4	navigation	Trial1	navigation/STIM_006.jpg	99
225.366	4.287	4287.3	navigation	Trial1	navigation/STIM_006.jpg	100
232.658	4.428	4428.2	navigation	Trial1	navigation/STIM_006.jpg	99
240.523	3.789	3788.9	navigation	Trial1	navigation/STIM_006.jpg	100
246.068	3.405	3405.0	navigation	Trial1	navigation/STIM_006.jpg	99
251.922	3.72	3719.6	navigation	Trial1	navigation/STIM_006.jpg	100
258.348	2.517	2517.4	navigation	Trial1	navigation/STIM_007.jpg	100
263.099	5.263	5262.9	navigation	Trial1	navigation/STIM_007.jpg	99
271.12	3.234	3234.3	navigation	Trial1	navigation/STIM_007.jpg	99
277.237	2.934	2934.4	navigation	Trial1	navigation/STIM_007.jpg	99
283.111	1.905	1905.0	navigation	Trial1	navigation/STIM_007.jpg	100
287.841	3.348	3347.9	navigation	Trial1	navigation/STIM_007.jpg	99
293.87	3.469	3469.2	navigation	Trial1	navigation/STIM_008.jpg	99
300.124	5.136	5135.8	navigation	Trial1	navigation/STIM_008.jpg	99
307.352	3.448	3448.2	navigation	Trial1	navigation/STIM_008.jpg	100
312.666	4.61	4610.2	navigation	Trial1	navigation/STIM_008.jpg	100
320.542	2.708	2707.7	navigation	Trial1	navigation/STIM_008.jpg	100
325.361	1.958	1957.5	navigation	Trial1	navigation/STIM_008.jpg	99
330.199	5.005	5005.1	navigation	Trial1	navigation/STIM_009.jpg	99
336.98	4.298	4297.7	navigation	Trial1	navigation/STIM_009.jpg	99
343.359	3.043	3043.4	navigation	Trial1	navigation/STIM_009.jpg	99
349.825	4.832	4832.3	navigation	Trial1	navigation/STIM_009.jpg	99
356.898	3.802	3802.5	navigation	Trial1	navigation/STIM_009.jpg	100
362.272	2.831	2831.3	navigation	Trial1	navigation/STIM_009.jpg	100
367.304	5.48	5479.9	navigation	Trial1	navigation/STIM_010.jpg	99
375.117	3.973	3973.3	navigation	Trial1	navigation/STIM_010.jpg	100
381.194	5.071	5070.8	navigation	Trial1	navigation/STIM_010.jpg	99
389.068	3.874	3873.5	navigation	Trial1	navigation/STIM_010.jpg	100
395.557	4.178	4177.6	navigation	Trial1	navigation/STIM_010.jpg	100
402.236	4.224	4224.5	navigation	Trial1	navigation/STIM_010.jpg	99
407.999	4.708	4707.7	navigation	Trial1	navigation/STIM_011.jpg	100
414.428	5.038	5038.5	navigation	Trial1	navigation/STIM_011.jpg	100
422.312	3.107	3106.6	navigation	Trial1	navigation/STIM_011.jpg	100
427.938	2.762	2761.6	navigation	Trial1	navigation/STIM_011.jpg	99
433.228	3.067	3066.6	navigation	Trial1	navigation/STIM_011.jpg	100
438.722	2.472	2472.4	navigation	Trial1	navigation/STIM_011.jpg	99
443.485	1.073	1072.9	pointing	Trial1	pointing/STIM_000.jpg	99
446.625	1.169	1169.3	pointing	Trial1	pointing/STIM_000.jpg	100
451.155	1.113	1112.6	pointing	Trial1	pointing/STIM_000.jpg	100
455.509	1.035	1034.7	pointing	Trial1	pointing/STIM_000.jpg	100
459.117	1.34	1339.6	pointing	Trial1	pointing/STIM_000.jpg	100
462.613	1.342	1341.5	pointing	Trial1	pointing/STIM_000.jpg	99
466.333	1.555	1555.4	pointing	Trial1	pointing/STIM_001.jpg	99
470.119	1.098	1097.6	pointing	Trial1	pointing/STIM_001.jpg	100
474.945	1.26	1260.0	pointing	Trial1	pointing/STIM_001.jpg	100
479.942	1.231	1231.0	pointing	Trial1	pointing/STIM_001.jpg	99
484.892	1.135	1134.9	pointing	Trial1	pointing/STIM_001.jpg	100
487.812	1.494	1494.0	pointing	Trial1	pointing/STIM_001.jpg	99
492.503	1.333	1332.9	pointing	Trial1	pointing/STIM_002.jpg	100
497.526	1.257	1256.7	pointing	Trial1	pointing/STIM_002.jpg	99
501.747	1.164	1163.8	pointing	Trial1	pointing/STIM_002.jpg	99
505.627	1.585	1584.9	pointing	Trial1	pointing/STIM_002.jpg	100
509.921	1.403	1403.4	pointing	Trial1	pointing/STIM_002.jpg	100
514.239	1.231	1230.9	pointing	Trial1	pointing/STIM_002.jpg	100
517.881	1.082	1082.1	pointing	Trial1	pointing/STIM_003.jpg	99
521.976	1.31	1310.2	pointing	Trial1	pointing/STIM_003.jpg	100
525.725	1.259	1259.0	pointing	Trial1	pointing/STIM_003.jpg	99
530.727	1.577	1577.2	pointing	Trial1	pointing/STIM_003.jpg	100
535.06	1.289	1288.7	pointing	Trial1	pointing/STIM_003.jpg	100
538.37	1.622	1622.1	pointing	Trial1	pointing/STIM_003.jpg	100
542.971	1.16	1159.7	pointing	Trial1	pointing/STIM_004.jpg	99
547.146	1.235	1235.1	pointing	Trial1	pointing/STIM_004.jpg	99
551.681	1.328	1328.4	pointing	Trial1	pointing/STIM_004.jpg	99
555.833	1.63	1630.1	pointing	Trial1	pointing/STIM_004.jpg	100
559.89	1.699	1698.7	pointing	Trial1	pointing/STIM_004.jpg	100
563.971	1.734	1733.7	pointing	Trial1	pointing/STIM_004.jpg	100
567.627	1.107	1107.4	pointing	Trial1	pointing/STIM_005.jpg	100
572.404	1.534	1534.2	pointing	Trial1	pointing/STIM_005.jpg	99
576.289	1.009	1009.2	pointing	Trial1	pointing/STIM_005.jpg	99
580.109	1.697	1697.0	pointing	Trial1	pointing/STIM_005.jpg	99
583.809	1.229	1229.1	pointing	Trial1	pointing/STIM_005.jpg	99
588.298	0.854	854.5	pointing	Trial1	pointing/STIM_005.jpg	99
591.631	1.349	1348.9	pointing	Trial1	pointing/STIM_006.jpg	100
596.382	0.971	970.6	pointing	Trial1	pointing/STIM_006.jpg	99
600.25	1.376	1376.2	pointing	Trial1	pointing/STIM_006.jpg	100
605.175	1.674	1673.6	pointing	Trial1	pointing/STIM_006.jpg	100
610.351	0.971	971.1	pointing	Trial1	pointing/STIM_006.jpg	99
613.46	1.462	1461.6	pointing	Trial1	pointing/STIM_006.jpg	99
617.743	1.573	1573.0	pointing	Trial1	pointing/STIM_007.jpg	99
621.535	0.839	838.8	pointing	Trial1	pointing/STIM_007.jpg	99
625.407	1.16	1159.8	pointing	Trial1	pointing/STIM_007.jpg	100
628.686	1.478	1478.3	pointing	Trial1	pointing/STIM_007.jpg	100
632.411	1.544	1544.3	pointing	Trial1	pointing/STIM_007.jpg	99
636.487	1.511	1510.8	pointing	Trial1	pointing/STIM_007.jpg	100
640.57	1.214	1214.2	pointing	Trial1	pointing/STIM_008.jpg	99
644.252	1.397	1397.4	pointing	Trial1	pointing/STIM_008.jpg	99
648.384	1.214	1213.5	pointing	Trial1	pointing/STIM_008.jpg	100
651.912	0.973	972.7	pointing	Trial1	pointing/STIM_008.jpg	99
654.892	1.029	1028.6	pointing	Trial1	pointing/STIM_008.jpg	99
657.845	1.528	1527.6	pointing	Trial1	pointing/STIM_008.jpg	100
663.184	1.427	1427.3	pointing	Trial1	pointing/STIM_009.jpg	100
668.395	0.924	923.7	pointing	Trial1	pointing/STIM_009.jpg	100
672.085	1.117	1116.7	pointing	Trial1	pointing/STIM_009.jpg	99
676.21	1.42	1420.3	pointing	Trial1	pointing/STIM_009.jpg	99
680.056	1.225	1224.8	pointing	Trial1	pointing/STIM_009.jpg	99
684.081	1.038	1038.3	pointing	Trial1	pointing/STIM_009.jpg	99
688.218	1.664	1663.9	pointing	Trial1	pointing/STIM_010.jpg	99
692.515	1.696	1696.5	pointing	Trial1	pointing/STIM_010.jpg	100
696.726	1.194	1194.4	pointing	Trial1	pointing/STIM_010.jpg	100
699.868	0.98	979.9	pointing	Trial1	pointing/STIM_010.jpg	100
703.593	0.989	988.8	pointing	Trial1	pointing/STIM_010.jpg	99
708.186	1.261	1261.4	pointing	Trial1	pointing/STIM_010.jpg	100
711.645	1.409	1409.2	pointing	Trial1	pointing/STIM_011.jpg	100
715.935	1.345	1345.3	pointing	Trial1	pointing/STIM_011.jpg	99
719.27	1.34	1340.1	pointing	Trial1	pointing/STIM_011.jpg	100
723.399	1.351	1350.6	pointing	Trial1	pointing/STIM_011.jpg	99
727.355	1.029	1029.2	pointing	Trial1	pointing/STIM_011.jpg	99
731.204	1.055	1054.9	pointing	Trial1	pointing/STIM_011.jpg	99
734.589	3.045	3044.9	navigation	Trial2	navigation/STIM_000.jpg	100
740.639	2.05	2050.3	navigation	Trial2	navigation/STIM_000.jpg	100
744.576	2.199	2198.7	navigation	Trial2	navigation/STIM_000.jpg	99
750.048	2.075	2075.2	navigation	Trial2	navigation/STIM_000.jpg	99
753.891	2.52	2520.2	navigation	Trial2	navigation/STIM_000.jpg	99
758.087	3.787	3787.1	navigation	Trial2	navigation/STIM_000.jpg	100
764.502	3.322	3322.4	navigation	Trial2	navigation/STIM_001.jpg	100
770.794	1.97	1969.6	navigation	Trial2	navigation/STIM_001.jpg	100
776.056	4.292	4292.5	navigation	Trial2	navigation/STIM_001.jpg	100
781.959	2.44	2440.2	navigation	Trial2	navigation/STIM_001.jpg	99
786.207	2.933	2933.3	navigation	Trial2	navigation/STIM_001.jpg	100
791.929	2.995	2994.6	navigation	Trial2	navigation/STIM_001.jpg	100
797.722	3.878	3878.4	navigation	Trial2	navigation/STIM_002.jpg	100
804.926	2.522	2522.0	navigation	Trial2	navigation/STIM_002.jpg	99
810.317	2.551	2551.4	navigation	Trial2	navigation/STIM_002.jpg	99
814.846	2.358	2358.3	navigation	Trial2	navigation/STIM_002.jpg	99
819.511	1.879	1879.3	navigation	Trial2	navigation/STIM_002.jpg	99
824.604	3.374	3373.7	navigation	Trial2	navigation/STIM_002.jpg	99
830.243	3.07	3070.2	navigation	Trial2	navigation/STIM_003.jpg	99
835.4	3.976	3976.2	navigation	Trial2	navigation/STIM_003.jpg	99
842.816	1.935	1934.7	navigation	Trial2	navigation/STIM_003.jpg	99
846.779	3.435	3435.0	navigation	Trial2	navigation/STIM_003.jpg	100
852.967	3.008	3008.4	navigation	Trial2	navigation/STIM_003.jpg	100
859.095	3.589	3589.3	navigation	Trial2	navigation/STIM_003.jpg	99
866.108	2.812	2811.7	navigation	Trial2	navigation/STIM_004.jpg	100
871.191	4.513	4513.0	navigation	Trial2	navigation/STIM_004.jpg	99
877.977	3.148	3147.8	navigation	Trial2	navigation/STIM_004.jpg	100
884.66	2.516	2516.4	navigation	Trial2	navigation/STIM_004.jpg	100
890.227	3.367	3366.6	navigation	Trial2	navigation/STIM_004.jpg	100
895.383	2.422	2422.4	navigation	Trial2	navigation/STIM_004.jpg	99
901.437	2.12	2120.0	navigation	Trial2	navigation/STIM_005.jpg	99
906.332	3.389	3389.4	navigation	Trial2	navigation/STIM_005.jpg	99
912.077	2.347	2346.7	navigation	Trial2	navigation/STIM_005.jpg	100
916.534	3.534	3534.3	navigation	Trial2	navigation/STIM_005.jpg	99
922.355	2.924	2924.5	navigation	Trial2	navigation/STIM_005.jpg	100
926.935	2.234	2233.9	navigation	Trial2	navigation/STIM_005.jpg	100
932.72	3.531	3531.3	navigation	Trial2	navigation/STIM_006.jpg	100
938.458	3.503	3503.1	navigation	Trial2	navigation/STIM_006.jpg	100
944.763	2.973	2973.0	navigation	Trial2	navigation/STIM_006.jpg	100
950.937	3.042	3041.9	navigation	Trial2	navigation/STIM_006.jpg	100
957.035	3.368	3368.1	navigation	Trial2	navigation/STIM_006.jpg	99
963.231	3.431	3431.0	navigation	Trial2	navigation/STIM_006.jpg	100
968.84	3.355	3355.0	navigation	Trial2	navigation/STIM_007.jpg	99
974.86	3.476	3476.3	navigation	Trial2	navigation/STIM_007.jpg	100
980.616	3.509	3509.2	navigation	Trial2	navigation/STIM_007.jpg	99
987.536	3.315	3314.9	navigation	Trial2	navigation/STIM_007.jpg	100
992.502	1.629	1628.7	navigation	Trial2	navigation/STIM_007.jpg	99
996.523	2.82	2820.0	navigation	Trial2	navigation/STIM_007.jpg	99
1001.194	4.297	4296.7	navigation	Trial2	navigation/STIM_008.jpg	99
1007.497	3.271	3270.8	navigation	Trial2	navigation/STIM_008.jpg	99
1013.331	1.99	1989.7	navigation	Trial2	navigation/STIM_008.jpg	99
1017.735	2.415	2414.7	navigation	Trial2	navigation/STIM_008.jpg	100
1023.269	1.875	1874.9	navigation	Trial2	navigation/STIM_008.jpg	99
1028.446	2.338	2337.5	navigation	Trial2	navigation/STIM_008.jpg	100
1033.602	2.893	2892.6	navigation	Trial2	navigation/STIM_009.jpg	99
1040.051	2.095	2094.7	navigation	Trial2	navigation/STIM_009.jpg	100
1044.345	3.025	3025.2	navigation	Trial2	navigation/STIM_009.jpg	99
1050.342	2.586	2586.5	navigation	Trial2	navigation/STIM_009.jpg	100
1056.534	2.846	2845.9	navigation	Trial2	navigation/STIM_009.jpg	100
1061.241	3.496	3496.2	navigation	Trial2	navigation/STIM_009.jpg	99
1067.752	3.685	3685.2	navigation	Trial2	navigation/STIM_010.jpg	100
1073.687	3.58	3579.8	navigation	Trial2	navigation/STIM_010.jpg	100
1079.754	2.633	2632.6	navigation	Trial2	navigation/STIM_010.jpg	99
1085.913	2.27	2269.9	navigation	Trial2	navigation/STIM_010.jpg	100
1091.262	1.803	1802.6	navigation	Trial2	navigation/STIM_010.jpg	99
1095.533	1.852	1852.3	navigation	Trial2	navigation/STIM_010.jpg	100
1099.926	4.586	4586.5	navigation	Trial2	navigation/STIM_011.jpg	100
1106.143	4.6	4599.6	navigation	Trial2	navigation/STIM_011.jpg	99
1113.572	2.683	2683.2	navigation	Trial2	navigation/STIM_011.jpg	100
1119.017	3.214	3214.3	navigation	Trial2	navigation/STIM_011.jpg	100
1124.778	2.097	2096.9	navigation	Trial2	navigation/STIM_011.jpg	99
1130.314	2.744	2744.4	navigation	Trial2	navigation/STIM_011.jpg	100
1135.343	1.33	1329.9	pointing	Trial2	pointing/STIM_000.jpg	100
1138.997	1.639	1639.3	pointing	Trial2	pointing/STIM_000.jpg	100
1144.379	1.03	1029.6	pointing	Trial2	pointing/STIM_000.jpg	99
1147.68	0.869	869.2	pointing	Trial2	pointing/STIM_000.jpg	100
1151.992	0.864	863.8	pointing	Trial2	pointing/STIM_000.jpg	99
1156.375	1.431	1430.7	pointing	Trial2	pointing/STIM_000.jpg	100
1161.47	1.148	1148.5	pointing	Trial2	pointing/STIM_001.jpg	99
1164.414	1.021	1020.9	pointing	Trial2	pointing/STIM_001.jpg	99
1167.953	1.113	1113.4	pointing	Trial2	pointing/STIM_001.jpg	100
1171.138	1.467	1467.4	pointing	Trial2	pointing/STIM_001.jpg	100
1174.62	1.177	1177.3	pointing	Trial2	pointing/STIM_001.jpg	99
1178.286	1.518	1518.2	pointing	Trial2	pointing/STIM_001.jpg	99
1183.45	1.298	1298.0	pointing	Trial2	pointing/STIM_002.jpg	100
1188.453	1.004	1004.3	pointing	Trial2	pointing/STIM_002.jpg	100
1192.676	1.335	1335.2	pointing	Trial2	pointing/STIM_002.jpg	100
1197.13	1.203	1203.3	pointing	Trial2	pointing/STIM_002.jpg	99
1200.886	0.912	912.1	pointing	Trial2	pointing/STIM_002.jpg	100
1203.913	1.578	1577.8	pointing	Trial2	pointing/STIM_002.jpg	99
1208.506	0.992	991.8	pointing	Trial2	pointing/STIM_003.jpg	99
1212.413	1.586	1586.1	pointing	Trial2	pointing/STIM_003.jpg	99
1216.855	1.201	1200.6	pointing	Trial2	pointing/STIM_003.jpg	100
1220.509	1.149	1149.3	pointing	Trial2	pointing/STIM_003.jpg	99
1223.665	1.444	1443.5	pointing	Trial2	pointing/STIM_003.jpg	99
1227.08	1.339	1338.8	pointing	Trial2	pointing/STIM_003.jpg	100
1230.424	1.586	1586.1	pointing	Trial2	pointing/STIM_004.jpg	100
1234.452	1.052	1051.5	pointing	Trial2	pointing/STIM_004.jpg	99
1237.692	0.973	972.7	pointing	Trial2	pointing/STIM_004.jpg	100
1240.837	1.349	1349.1	pointing	Trial2	pointing/STIM_004.jpg	99
1245.669	1.062	1061.6	pointing	Trial2	pointing/STIM_004.jpg	99
1250.456	1.641	1641.1	pointing	Trial2	pointing/STIM_004.jpg	99
1254.797	1.088	1087.5	pointing	Trial2	pointing/STIM_005.jpg	99
1258.01	1.349	1348.8	pointing	Trial2	pointing/STIM_005.jpg	100
1261.32	1.657	1657.0	pointing	Trial2	pointing/STIM_005.jpg	99
1265.642	1.233	1233.0	pointing	Trial2	pointing/STIM_005.jpg	100
1270.035	1.54	1539.7	pointing	Trial2	pointing/STIM_005.jpg	100
1274.583	1.022	1022.0	pointing	Trial2	pointing/STIM_005.jpg	100
1277.626	1.241	1240.8	pointing	Trial2	pointing/STIM_006.jpg	99
1282.089	1.16	1159.5	pointing	Trial2	pointing/STIM_006.jpg	99
1286.26	1.631	1631.0	pointing	Trial2	pointing/STIM_006.jpg	100
1291.096	1.517	1517.3	pointing	Trial2	pointing/STIM_006.jpg	100
1294.789	1.224	1224.0	pointing	Trial2	pointing/STIM_006.jpg	99
1298.556	1.738	1738.4	pointing	Trial2	pointing/STIM_006.jpg	99
1302.847	1.322	1321.8	pointing	Trial2	pointing/STIM_007.jpg	99
1306.3	1.592	1592.4	pointing	Trial2	pointing/STIM_007.jpg	100
1311.543	1.655	1655.2	pointing	Trial2	pointing/STIM_007.jpg	100
1315.618	1.664	1663.5	pointing	Trial2	pointing/STIM_007.jpg	100
1320.466	1.281	1280.9	pointing	Trial2	pointing/STIM_007.jpg	100
1324.244	1.21	1210.2	pointing	Trial2	pointing/STIM_007.jpg	100
1328.479	1.406	1405.9	pointing	Trial2	pointing/STIM_008.jpg	100
1332.782	1.555	1555.2	pointing	Trial2	pointing/STIM_008.jpg	99
1336.999	0.978	977.8	pointing	Trial2	pointing/STIM_008.jpg	100
1341.17	1.511	1510.8	pointing	Trial2	pointing/STIM_008.jpg	100
1345.097	0.96	959.6	pointing	Trial2	pointing/STIM_008.jpg	100
1349.834	0.976	975.9	pointing	Trial2	pointing/STIM_008.jpg	99
1353.784	1.503	1503.3	pointing	Trial2	pointing/STIM_009.jpg	99
1357.419	1.53	1529.7	pointing	Trial2	pointing/STIM_009.jpg	100
1362.463	1.382	1382.1	pointing	Trial2	pointing/STIM_009.jpg	100
1365.928	1.007	1007.2	pointing	Trial2	pointing/STIM_009.jpg	100
1368.86	1.7	1700.2	pointing	Trial2	pointing/STIM_009.jpg	100
1374.112	1.507	1506.6	pointing	Trial2	pointing/STIM_009.jpg	100
1378.451	1.008	1007.6	pointing	Trial2	pointing/STIM_010.jpg	99
1383.139	0.902	901.7	pointing	Trial2	pointing/STIM_010.jpg	100
1386.101	1.589	1588.7	pointing	Trial2	pointing/STIM_010.jpg	99
1390.612	1.233	1232.7	pointing	Trial2	pointing/STIM_010.jpg	100
1394.941	1.057	1056.8	pointing	Trial2	pointing/STIM_010.jpg	99
1398.899	1.722	1721.9	pointing	Trial2	pointing/STIM_010.jpg	99
1403.612	1.577	1577.1	pointing	Trial2	pointing/STIM_011.jpg	100
1409.028	1.563	1562.7	pointing	Trial2	pointing/STIM_011.jpg	100
1414.374	1.439	1439.1	pointing	Trial2	pointing/STIM_011.jpg	100
1418.126	1.453	1452.9	pointing	Trial2	pointing/STIM_011.jpg	100
1422.48	1.617	1616.6	pointing	Trial2	pointing/STIM_011.jpg	100
1427.784	1.079	1078.6	pointing	Trial2	pointing/STIM_011.jpg	99
1432.203	3.697	3696.6	navigation	Trial3	navigation/STIM_000.jpg	99
1438.371	3.706	3706.5	navigation	Trial3	navigation/STIM_000.jpg	99
1445.503	3.085	3084.7	navigation	Trial3	navigation/STIM_000.jpg	99
1450.69	1.972	1971.9	navigation	Trial3	navigation/STIM_000.jpg	100
1455.069	3.306	3306.0	navigation	Trial3	navigation/STIM_000.jpg	99
1461.508	1.817	1816.9	navigation	Trial3	navigation/STIM_000.jpg	100
1465.744	3.446	3445.5	navigation	Trial3	navigation/STIM_001.jpg	100
1470.713	2.771	2771.1	navigation	Trial3	navigation/STIM_001.jpg	100
1476.87	3.495	3495.0	navigation	Trial3	navigation/STIM_001.jpg	100
1482.771	2.832	2832.5	navigation	Trial3	navigation/STIM_001.jpg	100
1488.366	3.304	3303.5	navigation	Trial3	navigation/STIM_001.jpg	99
1494.612	2.744	2744.3	navigation	Trial3	navigation/STIM_001.jpg	100
1500.035	3.857	3857.4	navigation	Trial3	navigation/STIM_002.jpg	99
1505.523	3.504	3504.2	navigation	Trial3	navigation/STIM_002.jpg	99
1511.85	2.5	2499.6	navigation	Trial3	navigation/STIM_002.jpg	100
1517.658	3.192	3191.9	navigation	Trial3	navigation/STIM_002.jpg	100
1522.733	1.979	1978.9	navigation	Trial3	navigation/STIM_002.jpg	100
1527.958	1.542	1541.9	navigation	Trial3	navigation/STIM_002.jpg	100
1532.068	2.3	2299.6	navigation	Trial3	navigation/STIM_003.jpg	99
1537.869	3.793	3792.8	navigation	Trial3	navigation/STIM_003.jpg	100
1545.133	2.408	2407.9	navigation	Trial3	navigation/STIM_003.jpg	100
1550.693	1.735	1735.3	navigation	Trial3	navigation/STIM_003.jpg	100
1555.197	3.025	3024.8	navigation	Trial3	navigation/STIM_003.jpg	99
1561.296	3.743	3742.7	navigation	Trial3	navigation/STIM_003.jpg	100
1567.239	2.778	2778.1	navigation	Trial3	navigation/STIM_004.jpg	100
1573.472	2.95	2950.1	navigation	Trial3	navigation/STIM_004.jpg	99
1578.382	2.48	2480.3	navigation	Trial3	navigation/STIM_004.jpg	99
1584.135	2.658	2658.2	navigation	Trial3	navigation/STIM_004.jpg	100
1588.597	2.962	2962.4	navigation	Trial3	navigation/STIM_004.jpg	100
1593.438	2.164	2163.9	navigation	Trial3	navigation/STIM_004.jpg	99
1598.215	4.02	4020.4	navigation	Trial3	navigation/STIM_005.jpg	99
1604.342	2.637	2636.7	navigation	Trial3	navigation/STIM_005.jpg	99
1610.087	2.889	2888.6	navigation	Trial3	navigation/STIM_005.jpg	99
1615.074	3.318	3317.8	navigation	Trial3	navigation/STIM_005.jpg	100
1621.253	3.375	3374.7	navigation	Trial3	navigation/STIM_005.jpg	99
1627.748	3.583	3582.6	navigation	Trial3	navigation/STIM_005.jpg	100
1634.901	4.034	4034.2	navigation	Trial3	navigation/STIM_006.jpg	100
1642.116	1.966	1965.7	navigation	Trial3	navigation/STIM_006.jpg	99
1646.096	3.827	3827.1	navigation	Trial3	navigation/STIM_006.jpg	100
1652.278	2.03	2030.5	navigation	Trial3	navigation/STIM_006.jpg	99
1657.533	3.837	3837.3	navigation	Trial3	navigation/STIM_006.jpg	100
1663.992	3.258	3258.2	navigation	Trial3	navigation/STIM_006.jpg	99
1670.221	2.639	2639.2	navigation	Trial3	navigation/STIM_007.jpg	100
1676.291	2.412	2412.1	navigation	Trial3	navigation/STIM_007.jpg	100
1681.79	2.024	2023.6	navigation	Trial3	navigation/STIM_007.jpg	99
1686.469	3.65	3650.3	navigation	Trial3	navigation/STIM_007.jpg	100
1693.49	3.079	3079.3	navigation	Trial3	navigation/STIM_007.jpg	99
1699.774	3.547	3547.1	navigation	Trial3	navigation/STIM_007.jpg	100
1705.206	1.975	1974.7	navigation	Trial3	navigation/STIM_008.jpg	100
1709.59	3.908	3908.1	navigation	Trial3	navigation/STIM_008.jpg	100
1715.007	3.889	3889.1	navigation	Trial3	navigation/STIM_008.jpg	100
1720.546	3.048	3048.2	navigation	Trial3	navigation/STIM_008.jpg	99
1725.155	3.123	3122.7	navigation	Trial3	navigation/STIM_008.jpg	99
1731.301	3.172	3171.7	navigation	Trial3	navigation/STIM_008.jpg	99
1736.152	2.014	2013.6	navigation	Trial3	navigation/STIM_009.jpg	100
1741.863	3.602	3602.5	navigation	Trial3	navigation/STIM_009.jpg	100
1748.2	2.803	2802.6	navigation	Trial3	navigation/STIM_009.jpg	100
1753.77	3.997	3997.0	navigation	Trial3	navigation/STIM_009.jpg	100
1759.581	2.027	2026.7	navigation	Trial3	navigation/STIM_009.jpg	100
1764.153	3.733	3732.8	navigation	Trial3	navigation/STIM_009.jpg	99
1770.508	2.159	2159.4	navigation	Trial3	navigation/STIM_010.jpg	99
1775.212	3.194	3194.2	navigation	Trial3	navigation/STIM_010.jpg	100
1781.661	3.216	3216.0	navigation	Trial3	navigation/STIM_010.jpg	100
1787.079	1.722	1722.1	navigation	Trial3	navigation/STIM_010.jpg	99
1790.978	4.02	4019.6	navigation	Trial3	navigation/STIM_010.jpg	99
1797.169	2.082	2081.6	navigation	Trial3	navigation/STIM_010.jpg	100
1801.853	3.674	3674.2	navigation	Trial3	navigation/STIM_011.jpg	99
1808.693	2.145	2145.0	navigation	Trial3	navigation/STIM_011.jpg	99
1812.965	3.441	3441.2	navigation	Trial3	navigation/STIM_011.jpg	99
1819.15	3.553	3553.4	navigation	Trial3	navigation/STIM_011.jpg	100
1824.287	3.622	3622.1	navigation	Trial3	navigation/STIM_011.jpg	99
1829.569	3.814	3814.5	navigation	Trial3	navigation/STIM_011.jpg	99
1835.734	1.144	1144.2	pointing	Trial3	pointing/STIM_000.jpg	99
1839.193	1.118	1117.6	pointing	Trial3	pointing/STIM_000.jpg	99
1843.667	1.502	1502.4	pointing	Trial3	pointing/STIM_000.jpg	99
1847.232	1.018	1018.5	pointing	Trial3	pointing/STIM_000.jpg	99
1852.105	1.391	1391.0	pointing	Trial3	pointing/STIM_000.jpg	100
1855.543	1.569	1569.2	pointing	Trial3	pointing/STIM_000.jpg	100
1859.913	1.361	1361.4	pointing	Trial3	pointing/STIM_001.jpg	100
1864.879	1.139	1139.1	pointing	Trial3	pointing/STIM_001.jpg	99
1869.297	1.587	1586.9	pointing	Trial3	pointing/STIM_001.jpg	99
1873.403	0.964	963.7	pointing	Trial3	pointing/STIM_001.jpg	100
1877.064	1.362	1362.0	pointing	Trial3	pointing/STIM_001.jpg	99
1881.003	1.555	1554.9	pointing	Trial3	pointing/STIM_001.jpg	99
1885.07	1.21	1210.2	pointing	Trial3	pointing/STIM_002.jpg	99
1889.567	1.293	1292.6	pointing	Trial3	pointing/STIM_002.jpg	99
1894.575	1.583	1582.6	pointing	Trial3	pointing/STIM_002.jpg	100
1899.254	1.287	1287.0	pointing	Trial3	pointing/STIM_002.jpg	100
1903.551	1.183	1183.4	pointing	Trial3	pointing/STIM_002.jpg	99
1908.113	1.27	1269.6	pointing	Trial3	pointing/STIM_002.jpg	100
1913.22	1.731	1730.8	pointing	Trial3	pointing/STIM_003.jpg	99
1918.306	1.085	1085.1	pointing	Trial3	pointing/STIM_003.jpg	99
1921.516	0.904	903.7	pointing	Trial3	pointing/STIM_003.jpg	99
1925.815	0.99	990.4	pointing	Trial3	pointing/STIM_003.jpg	99
1929.403	1.312	1311.5	pointing	Trial3	pointing/STIM_003.jpg	100
1933.31	1.059	1059.3	pointing	Trial3	pointing/STIM_003.jpg	99
1938.063	1.462	1462.3	pointing	Trial3	pointing/STIM_004.jpg	99
1941.647	1.268	1268.3	pointing	Trial3	pointing/STIM_004.jpg	100
1945.983	1.105	1105.0	pointing	Trial3	pointing/STIM_004.jpg	100
1950.705	1.605	1605.0	pointing	Trial3	pointing/STIM_004.jpg	100
1955.681	1.117	1117.2	pointing	Trial3	pointing/STIM_004.jpg	99
1959.159	1.283	1282.9	pointing	Trial3	pointing/STIM_004.jpg	99
1962.975	1.541	1541.0	pointing	Trial3	pointing/STIM_005.jpg	100
1967.892	1.124	1124.3	pointing	Trial3	pointing/STIM_005.jpg	100
1972.611	1.679	1679.2	pointing	Trial3	pointing/STIM_005.jpg	99
1977.664	1.341	1341.0	pointing	Trial3	pointing/STIM_005.jpg	100
1981.108	1.035	1035.0	pointing	Trial3	pointing/STIM_005.jpg	99
1984.367	1.155	1154.7	pointing	Trial3	pointing/STIM_005.jpg	100
1989.196	1.52	1519.7	pointing	Trial3	pointing/STIM_006.jpg	99
1992.56	0.887	886.6	pointing	Trial3	pointing/STIM_006.jpg	99
1995.645	1.48	1479.8	pointing	Trial3	pointing/STIM_006.jpg	100
2000.804	1.736	1736.4	pointing	Trial3	pointing/STIM_006.jpg	99
2005.906	1.219	1218.6	pointing	Trial3	pointing/STIM_006.jpg	99
2010.026	1.116	1116.5	pointing	Trial3	pointing/STIM_006.jpg	100
2014.969	0.929	928.6	pointing	Trial3	pointing/STIM_007.jpg	99
2019.336	1.4	1399.8	pointing	Trial3	pointing/STIM_007.jpg	99
2023.521	1.33	1330.3	pointing	Trial3	pointing/STIM_007.jpg	100
2027.865	1.028	1027.8	pointing	Trial3	pointing/STIM_007.jpg	100
2031.094	1.472	1472.4	pointing	Trial3	pointing/STIM_007.jpg	100
2034.904	0.995	994.7	pointing	Trial3	pointing/STIM_007.jpg	99
2038.162	0.982	982.4	pointing	Trial3	pointing/STIM_008.jpg	99
2041.332	1.482	1482.0	pointing	Trial3	pointing/STIM_008.jpg	100
2046.257	1.092	1091.8	pointing	Trial3	pointing/STIM_008.jpg	99
2049.927	1.068	1068.5	pointing	Trial3	pointing/STIM_008.jpg	99
2052.884	1.761	1760.7	pointing	Trial3	pointing/STIM_008.jpg	99
2057.375	1.296	1295.9	pointing	Trial3	pointing/STIM_008.jpg	100
2060.915	1.316	1316.0	pointing	Trial3	pointing/STIM_009.jpg	100
2065.192	1.572	1572.5	pointing	Trial3	pointing/STIM_009.jpg	99
2069.696	1.436	1436.3	pointing	Trial3	pointing/STIM_009.jpg	99
2073.651	0.91	910.3	pointing	Trial3	pointing/STIM_009.jpg	99
2077.178	1.23	1229.6	pointing	Trial3	pointing/STIM_009.jpg	100
2080.982	1.062	1061.9	pointing	Trial3	pointing/STIM_009.jpg	99
2085.211	1.142	1142.1	pointing	Trial3	pointing/STIM_010.jpg	100
2089.522	1.653	1653.2	pointing	Trial3	pointing/STIM_010.jpg	100
2093.504	0.99	989.7	pointing	Trial3	pointing/STIM_010.jpg	100
2097.49	1.101	1100.8	pointing	Trial3	pointing/STIM_010.jpg	100
2100.489	1.484	1484.2	pointing	Trial3	pointing/STIM_010.jpg	100
2104.792	1.254	1254.1	pointing	Trial3	pointing/STIM_010.jpg	100
2109.189	1.04	1039.7	pointing	Trial3	pointing/STIM_011.jpg	99
2113.897	1.068	1067.6	pointing	Trial3	pointing/STIM_011.jpg	99
2116.914	1.084	1084.0	pointing	Trial3	pointing/STIM_011.jpg	100
2121.823	1.402	1401.6	pointing	Trial3	pointing/STIM_011.jpg	99
2126.813	1.17	1170.2	pointing	Trial3	pointing/STIM_011.jpg	100
2130.366	1.0	1000.2	pointing	Trial3	pointing/STIM_011.jpg	100
