onset	duration	response_time_ms	trial_type	learning_stage	stimulus	response_port
0.0	3.146	3145.8	navigation	Trial1	navigation/STIM_000.jpg	99
6.919	5.955	5955.0	navigation	Trial1	navigation/STIM_000.jpg	99
15.282	3.012	3012.1	navigation	Trial1	navigation/STIM_000.jpg	99
21.434	3.981	3981.4	navigation	Trial1	navigation/STIM_000.jpg	99
27.59	3.388	3387.7	navigation	Trial1	navigation/STIM_000.jpg	99
33.499	2.525	2525.3	navigation	Trial1	navigation/STIM_000.jpg	99
38.901	3.655	3654.7	navigation	Trial1	navigation/STIM_001.jpg	100
46.332	3.295	3294.6	navigation	Trial1	navigation/STIM_001.jpg	99
52.263	4.268	4268.1	navigation	Trial1	navigation/STIM_001.jpg	100
58.89	5.128	5128.2	navigation	Trial1	navigation/STIM_001.jpg	99
67.401	4.111	4111.2	navigation	Trial1	navigation/STIM_001.jpg	100
75.167	3.897	3897.3	navigation	Trial1	navigation/STIM_001.jpg	100
81.686	6.279	6279.3	navigation	Trial1	navigation/STIM_002.jpg	100
91.158	4.847	4847.0	navigation	Trial1	navigation/STIM_002.jpg	100
98.814	3.679	3679.0	navigation	Trial1	navigation/STIM_002.jpg	100
104.642	5.046	5046.2	navigation	Trial1	navigation/STIM_002.jpg	100
112.759	4.747	4746.8	navigation	Trial1	navigation/STIM_002.jpg	100
119.843	1.994	1994.1	navigation	Trial1	navigation/STIM_002.jpg	99
125.542	4.799	4798.6	navigation	Trial1	navigation/STIM_003.jpg	100
133.343	4.562	4562.3	navigation	Trial1	navigation/STIM_003.jpg	99
141.19	2.506	2506.0	navigation	Trial1	navigation/STIM_003.jpg	100
146.543	3.268	3267.8	navigation	Trial1	navigation/STIM_003.jpg	99
152.613	2.674	2673.5	navigation	Trial1	navigation/STIM_003.jpg	99
158.178	2.159	2159.2	navigation	Trial1	navigation/STIM_003.jpg	99
163.865	4.777	4777.4	navigation	Trial1	navigation/STIM_004.jpg	100
171.742	5.91	5909.6	navigation	Trial1	navigation/STIM_004.jpg	100
179.842	4.308	4308.4	navigation	Trial1	navigation/STIM_004.jpg	99
187.183	2.995	2994.8	navigation	Trial1	navigation/STIM_004.jpg	100
192.714	2.833	2833.4	navigation	Trial1	navigation/STIM_004.jpg	99
199.512	3.899	3899.2	navigation	Trial1	navigation/STIM_004.jpg	99
206.17	3.559	3559.3	navigation	Trial1	navigation/STIM_005.jpg	99
212.848	5.716	5716.2	navigation	Trial1	navigation/STIM_005.jpg	99
221.601	2.452	2452.5	navigation	Trial1	navigation/STIM_005.jpg	99
226.514	2.292	2291.6	navigation	Trial1	navigation/STIM_005.jpg	100
230.857	2.326	2326.5	navigation	Trial1	navigation/STIM_005.jpg	99
235.457	3.194	3194.4	navigation	Trial1	navigation/STIM_005.jpg	100
241.443	4.302	4301.9	navigation	Trial1	navigation/STIM_006.jpg	99
248.194	2.65	2649.9	navigation	Trial1	navigation/STIM_006.jpg	99
254.141	3.122	3121.6	navigation	Trial1	navigation/STIM_006.jpg	99
260.214	3.332	3332.0	navigation	Trial1	navigation/STIM_006.jpg	100
265.771	3.096	3096.4	navigation	Trial1	navigation/STIM_006.jpg	100
271.413	4.836	4836.0	navigation	Trial1	navigation/STIM_006.jpg	100
279.068	5.769	5768.8	navigation	Trial1	navigation/STIM_007.jpg	99
287.769	4.848	4848.5	navigation	Trial1	navigation/STIM_007.jpg	100
296.211	5.532	5532.0	navigation	Trial1	navigation/STIM_007.jpg	100
303.812	3.542	3541.5	navigation	Trial1	navigation/STIM_007.jpg	100
309.815	3.027	3027.1	navigation	Trial1	navigation/STIM_007.jpg	99
315.377	4.243	4243.2	navigation	Trial1	navigation/STIM_007.jpg	99
322.594	5.068	5068.4	navigation	Trial1	navigation/STIM_008.jpg	99
330.065	3.73	3730.1	navigation	Trial1	navigation/STIM_008.jpg	99
337.332	4.082	4081.5	navigation	Trial1	navigation/STIM_008.jpg	100
344.115	2.217	2217.2	navigation	Trial1	navigation/STIM_008.jpg	99
348.528	2.326	2326.0	navigation	Trial1	navigation/STIM_008.jpg	100
353.212	4.2	4200.0	navigation	Trial1	navigation/STIM_008.jpg	99
360.919	2.959	2959.4	navigation	Trial1	navigation/STIM_009.jpg	100
366.111	3.514	3514.3	navigation	Trial1	navigation/STIM_009.jpg	99
372.496	3.035	3035.4	navigation	Trial1	navigation/STIM_009.jpg	99
378.12	5.328	5328.5	navigation	Trial1	navigation/STIM_009.jpg	99
386.233	4.521	4521.1	navigation	Trial1	navigation/STIM_009.jpg	99
393.027	3.508	3508.3	navigation	Trial1	navigation/STIM_009.jpg	100
399.026	3.83	3830.2	navigation	Trial1	navigation/STIM_010.jpg	100
406.457	6.139	6139.1	navigation	Trial1	navigation/STIM_010.jpg	100
415.666	5.322	5321.9	navigation	Trial1	navigation/STIM_010.jpg	100
423.431	5.393	5392.9	navigation	Trial1	navigation/STIM_010.jpg	100
431.616	3.408	3408.0	navigation	Trial1	navigation/STIM_010.jpg	100
437.354	4.341	4341.3	navigation	Trial1	navigation/STIM_010.jpg	99
444.005	4.561	4560.7	navigation	Trial1	navigation/STIM_011.jpg	99
452.262	3.735	3735.4	navigation	Trial1	navigation/STIM_011.jpg	100
459.704	3.121	3120.9	navigation	Trial1	navigation/STIM_011.jpg	99
466.14	3.858	3857.8	navigation	Trial1	navigation/STIM_011.jpg	100
473.16	2.906	2905.5	navigation	Trial1	navigation/STIM_011.jpg	99
479.223	4.062	4061.7	navigation	Trial1	navigation/STIM_011.jpg	99
486.46	1.343	1343.3	pointing	Trial1	pointing/STIM_000.jpg	99
491.78	1.342	1341.7	pointing	Trial1	pointing/STIM_000.jpg	99
495.743	1.868	1868.4	pointing	Trial1	pointing/STIM_000.jpg	100
501.448	1.485	1485.0	pointing	Trial1	pointing/STIM_000.jpg	100
505.759	1.415	1415.0	pointing	Trial1	pointing/STIM_000.jpg	99
510.602	1.74	1740.0	pointing	Trial1	pointing/STIM_000.jpg	100
515.282	1.456	1456.5	pointing	Trial1	pointing/STIM_001.jpg	99
519.113	1.736	1735.9	pointing	Trial1	pointing/STIM_001.jpg	99
524.137	1.78	1780.0	pointing	Trial1	pointing/STIM_001.jpg	100
529.846	1.481	1480.7	pointing	Trial1	pointing/STIM_001.jpg	100
534.62	1.207	1207.3	pointing	Trial1	pointing/STIM_001.jpg	99
537.93	1.15	1150.4	pointing	Trial1	pointing/STIM_001.jpg	100
541.843	1.556	1556.5	pointing	Trial1	pointing/STIM_002.jpg	99
546.115	1.568	1568.2	pointing	Trial1	pointing/STIM_002.jpg	100
550.629	1.489	1488.8	pointing	Trial1	pointing/STIM_002.jpg	99
555.036	1.877	1876.9	pointing	Trial1	pointing/STIM_002.jpg	100
559.557	1.052	1052.5	pointing	Trial1	pointing/STIM_002.jpg	99
562.825	1.638	1638.2	pointing	Trial1	pointing/STIM_002.jpg	100
567.114	1.304	1304.3	pointing	Trial1	pointing/STIM_003.jpg	99
571.784	1.773	1773.0	pointing	Trial1	pointing/STIM_003.jpg	99
576.232	1.844	1843.5	pointing	Trial1	pointing/STIM_003.jpg	99
580.552	1.527	1527.4	pointing	Trial1	pointing/STIM_003.jpg	100
585.593	1.699	1698.9	pointing	Trial1	pointing/STIM_003.jpg	99
589.49	1.704	1704.5	pointing	Trial1	pointing/STIM_003.jpg	100
593.534	1.242	1242.2	pointing	Trial1	pointing/STIM_004.jpg	99
598.669	1.808	1808.5	pointing	Trial1	pointing/STIM_004.jpg	100
602.615	1.818	1818.1	pointing	Trial1	pointing/STIM_004.jpg	99
608.355	1.316	1316.1	pointing	Trial1	pointing/STIM_004.jpg	99
612.542	1.312	1311.5	pointing	Trial1	pointing/STIM_004.jpg	100
616.285	1.644	1643.6	pointing	Trial1	pointing/STIM_004.jpg	100
620.353	1.56	1560.1	pointing	Trial1	pointing/STIM_005.jpg	99
624.583	1.909	1908.7	pointing	Trial1	pointing/STIM_005.jpg	99
628.536	1.41	1410.0	pointing	Trial1	pointing/STIM_005.jpg	100
633.727	1.879	1879.4	pointing	Trial1	pointing/STIM_005.jpg	99
638.241	1.76	1760.2	pointing	Trial1	pointing/STIM_005.jpg	99
643.132	1.11	1109.9	pointing	Trial1	pointing/STIM_005.jpg	100
646.513	1.923	1923.2	pointing	Trial1	pointing/STIM_006.jpg	100
650.912	1.853	1852.6	pointing	Trial1	pointing/STIM_006.jpg	99
655.222	1.052	1051.7	pointing	Trial1	pointing/STIM_006.jpg	99
660.16	1.264	1264.0	pointing	Trial1	pointing/STIM_006.jpg	100
664.986	1.51	1510.5	pointing	Trial1	pointing/STIM_006.jpg	100
670.331	1.064	1063.8	pointing	Trial1	pointing/STIM_006.jpg	100
673.992	1.906	1905.7	pointing	Trial1	pointing/STIM_007.jpg	99
678.185	1.258	1258.0	pointing	Trial1	pointing/STIM_007.jpg	100
683.046	1.075	1075.1	pointing	Trial1	pointing/STIM_007.jpg	100
687.967	1.928	1927.8	pointing	Trial1	pointing/STIM_007.jpg	99
692.151	1.574	1574.0	pointing	Trial1	pointing/STIM_007.jpg	99
697.21	1.389	1388.9	pointing	Trial1	pointing/STIM_007.jpg	99
702.381	1.056	1055.9	pointing	Trial1	pointing/STIM_008.jpg	99
707.043	1.299	1299.2	pointing	Trial1	pointing/STIM_008.jpg	99
710.532	1.3	1299.6	pointing	Trial1	pointing/STIM_008.jpg	100
715.772	1.439	1439.3	pointing	Trial1	pointing/STIM_008.jpg	99
720.504	1.587	1586.7	pointing	Trial1	pointing/STIM_008.jpg	99
724.141	1.18	1180.3	pointing	Trial1	pointing/STIM_008.jpg	99
728.869	1.121	1120.7	pointing	Trial1	pointing/STIM_009.jpg	100
733.402	1.361	1361.4	pointing	Trial1	pointing/STIM_009.jpg	100
736.996	1.36	1360.4	pointing	Trial1	pointing/STIM_009.jpg	100
740.78	1.328	1327.9	pointing	Trial1	pointing/STIM_009.jpg	100
745.553	1.32	1319.9	pointing	Trial1	pointing/STIM_009.jpg	99
749.025	1.237	1237.1	pointing	Trial1	pointing/STIM_009.jpg	100
753.056	1.069	1069.0	pointing	Trial1	pointing/STIM_010.jpg	100
757.561	1.46	1460.3	pointing	Trial1	pointing/STIM_010.jpg	100
761.156	1.676	1676.0	pointing	Trial1	pointing/STIM_010.jpg	100
766.544	1.351	1351.4	pointing	Trial1	pointing/STIM_010.jpg	99
771.612	1.817	1816.6	pointing	Trial1	pointing/STIM_010.jpg	100
776.956	1.694	1693.8	pointing	Trial1	pointing/STIM_010.jpg	99
781.87	1.442	1442.2	pointing	Trial1	pointing/STIM_011.jpg	99
786.874	1.574	1574.1	pointing	Trial1	pointing/STIM_011.jpg	100
791.687	1.324	1324.0	pointing	Trial1	pointing/STIM_011.jpg	100
796.774	1.631	1630.6	pointing	Trial1	pointing/STIM_011.jpg	100
802.131	1.437	1437.3	pointing	Trial1	pointing/STIM_011.jpg	99
807.484	1.921	1921.0	pointing	Trial1	pointing/STIM_011.jpg	99
811.932	3.769	3768.7	navigation	Trial2	navigation/STIM_000.jpg	100
818.58	4.67	4670.3	navigation	Trial2	navigation/STIM_000.jpg	100
826.819	2.89	2890.5	navigation	Trial2	navigation/STIM_000.jpg	99
832.453	4.199	4199.0	navigation	Trial2	navigation/STIM_000.jpg	99
840.267	4.228	4228.4	navigation	Trial2	navigation/STIM_000.jpg	100
847.118	2.346	2346.2	navigation	Trial2	navigation/STIM_000.jpg	100
852.596	2.75	2750.0	navigation	Trial2	navigation/STIM_001.jpg	100
857.43	2.656	2655.9	navigation	Trial2	navigation/STIM_001.jpg	99
862.647	2.661	2661.0	navigation	Trial2	navigation/STIM_001.jpg	99
868.818	2.707	2707.2	navigation	Trial2	navigation/STIM_001.jpg	99
875.095	3.406	3405.7	navigation	Trial2	navigation/STIM_001.jpg	100
881.686	1.888	1888.3	navigation	Trial2	navigation/STIM_001.jpg	99
887.218	4.065	4064.7	navigation	Trial2	navigation/STIM_002.jpg	99
894.11	4.56	4560.5	navigation	Trial2	navigation/STIM_002.jpg	100
901.919	2.72	2719.5	navigation	Trial2	navigation/STIM_002.jpg	99
907.731	2.224	2224.2	navigation	Trial2	navigation/STIM_002.jpg	100
912.509	4.124	4124.3	navigation	Trial2	navigation/STIM_002.jpg	99
920.424	2.785	2785.4	navigation	Trial2	navigation/STIM_002.jpg	99
925.484	2.609	2608.9	navigation	Trial2	navigation/STIM_003.jpg	99
930.813	2.559	2559.0	navigation	Trial2	navigation/STIM_003.jpg	99
936.815	3.711	3710.6	navigation	Trial2	navigation/STIM_003.jpg	99
944.461	1.826	1825.5	navigation	Trial2	navigation/STIM_003.jpg	100
949.449	4.065	4064.7	navigation	Trial2	navigation/STIM_003.jpg	99
955.949	3.453	3453.2	navigation	Trial2	navigation/STIM_003.jpg	100
962.658	3.746	3745.7	navigation	Trial2	navigation/STIM_004.jpg	99
969.624	3.362	3362.1	navigation	Trial2	navigation/STIM_004.jpg	100
976.778	3.878	3877.6	navigation	Trial2	navigation/STIM_004.jpg	100
984.463	1.9	1900.3	navigation	Trial2	navigation/STIM_004.jpg	100
989.02	3.88	3879.7	navigation	Trial2	navigation/STIM_004.jpg	99
995.548	1.982	1981.7	navigation	Trial2	navigation/STIM_004.jpg	99
999.829	3.999	3998.6	navigation	Trial2	navigation/STIM_005.jpg	100
1007.422	3.074	3073.7	navigation	Trial2	navigation/STIM_005.jpg	99
1012.776	4.422	4421.6	navigation	Trial2	navigation/STIM_005.jpg	99
1019.755	2.909	2909.2	navigation	Trial2	navigation/STIM_005.jpg	100
1026.048	4.306	4306.0	navigation	Trial2	navigation/STIM_005.jpg	99
1033.219	2.336	2335.8	navigation	Trial2	navigation/STIM_005.jpg	99
1037.879	2.257	2256.7	navigation	Trial2	navigation/STIM_006.jpg	99
1042.487	2.845	2845.0	navigation	Trial2	navigation/STIM_006.jpg	99
1048.829	3.038	3038.3	navigation	Trial2	navigation/STIM_006.jpg	100
1055.103	2.841	2840.6	navigation	Trial2	navigation/STIM_006.jpg	100
1061.394	2.186	2185.7	navigation	Trial2	navigation/STIM_006.jpg	99
1067.152	1.963	1963.2	navigation	Trial2	navigation/STIM_006.jpg	99
1072.912	2.593	2592.7	navigation	Trial2	navigation/STIM_007.jpg	99
1077.929	3.055	3055.3	navigation	Trial2	navigation/STIM_007.jpg	99
1084.963	2.379	2378.7	navigation	Trial2	navigation/STIM_007.jpg	100
1089.546	4.292	4292.2	navigation	Trial2	navigation/STIM_007.jpg	99
1097.177	2.74	2740.3	navigation	Trial2	navigation/STIM_007.jpg	100
1102.996	2.509	2509.0	navigation	Trial2	navigation/STIM_007.jpg	100
1108.321	4.347	4347.0	navigation	Trial2	navigation/STIM_008.jpg	100
1115.158	4.436	4435.9	navigation	Trial2	navigation/STIM_008.jpg	100
1122.724	4.444	4444.0	navigation	Trial2	navigation/STIM_008.jpg	100
1129.914	1.952	1952.4	navigation	Trial2	navigation/STIM_008.jpg	99
1134.111	3.97	3970.2	navigation	Trial2	navigation/STIM_008.jpg	100
1140.73	2.473	2473.4	navigation	Trial2	navigation/STIM_008.jpg	100
1146.585	2.265	2264.6	navigation	Trial2	navigation/STIM_009.jpg	100
1150.936	2.205	2204.6	navigation	Trial2	navigation/STIM_009.jpg	100
1156.104	2.194	2194.5	navigation	Trial2	navigation/STIM_009.jpg	99
1161.919	3.105	3105.4	navigation	Trial2	navigation/STIM_009.jpg	99
1167.885	3.317	3317.0	navigation	Trial2	navigation/STIM_009.jpg	99
1174.767	3.488	3488.0	navigation	Trial2	navigation/STIM_009.jpg	100
1181.987	3.073	3072.6	navigation	Trial2	navigation/STIM_010.jpg	100
1187.659	2.498	2497.5	navigation	Trial2	navigation/STIM_010.jpg	100
1192.556	4.022	4021.8	navigation	Trial2	navigation/STIM_010.jpg	99
1199.11	3.434	3434.2	navigation	Trial2	navigation/STIM_010.jpg	100
1205.291	3.689	3689.0	navigation	Trial2	navigation/STIM_010.jpg	99
1210.995	2.913	2913.1	navigation	Trial2	navigation/STIM_010.jpg	100
1217.814	4.325	4325.3	navigation	Trial2	navigation/STIM_011.jpg	99
1224.314	4.844	4844.1	navigation	Trial2	navigation/STIM_011.jpg	100
1232.303	3.748	3748.2	navigation	Trial2	navigation/STIM_011.jpg	100
1238.579	2.793	2793.4	navigation	Trial2	navigation/STIM_011.jpg	100
1243.673	2.796	2795.5	navigation	Trial2	navigation/STIM_011.jpg	99
1249.984	2.969	2969.1	navigation	Trial2	navigation/STIM_011.jpg	100
1255.715	1.234	1233.8	pointing	Trial2	pointing/STIM_000.jpg	99
1259.448	1.429	1428.7	pointing	Trial2	pointing/STIM_000.jpg	100
1264.033	1.308	1308.1	pointing	Trial2	pointing/STIM_000.jpg	100
1268.568	1.673	1673.0	pointing	Trial2	pointing/STIM_000.jpg	100
1272.416	1.304	1304.5	pointing	Trial2	pointing/STIM_000.jpg	99
1276.235	1.099	1099.3	pointing	Trial2	pointing/STIM_000.jpg	99
1280.208	1.704	1704.5	pointing	Trial2	pointing/STIM_001.jpg	99
1285.877	1.491	1491.1	pointing	Trial2	pointing/STIM_001.jpg	99
1290.284	1.633	1632.7	pointing	Trial2	pointing/STIM_001.jpg	99
1295.48	1.363	1363.0	pointing	Trial2	pointing/STIM_001.jpg	99
1300.121	1.269	1268.7	pointing	Trial2	pointing/STIM_001.jpg	99
1304.582	1.438	1437.5	pointing	Trial2	pointing/STIM_001.jpg	100
1308.071	1.788	1788.3	pointing	Trial2	pointing/STIM_002.jpg	99
1313.003	1.335	1334.6	pointing	Trial2	pointing/STIM_002.jpg	99
1317.367	1.056	1056.5	pointing	Trial2	pointing/STIM_002.jpg	99
1320.93	1.237	1237.1	pointing	Trial2	pointing/STIM_002.jpg	99
1325.638	1.492	1492.3	pointing	Trial2	pointing/STIM_002.jpg	100
1330.891	1.73	1730.0	pointing	Trial2	pointing/STIM_002.jpg	100
1335.205	1.449	1449.3	pointing	Trial2	pointing/STIM_003.jpg	100
1340.418	1.659	1658.7	pointing	Trial2	pointing/STIM_003.jpg	99
1344.97	1.86	1860.1	pointing	Trial2	pointing/STIM_003.jpg	100
1349.264	1.082	1081.5	pointing	Trial2	pointing/STIM_003.jpg	100
1352.482	1.582	1581.5	pointing	Trial2	pointing/STIM_003.jpg	100
1356.922	1.554	1554.0	pointing	Trial2	pointing/STIM_003.jpg	99
1362.4	1.189	1189.2	pointing	Trial2	pointing/STIM_004.jpg	100
1367.377	1.869	1869.1	pointing	Trial2	pointing/STIM_004.jpg	100
1373.039	1.469	1468.7	pointing	Trial2	pointing/STIM_004.jpg	99
1378.478	1.22	1219.6	pointing	Trial2	pointing/STIM_004.jpg	99
1383.682	1.59	1590.1	pointing	Trial2	pointing/STIM_004.jpg	99
1387.922	1.599	1599.4	pointing	Trial2	pointing/STIM_004.jpg	99
1392.994	1.043	1042.8	pointing	Trial2	pointing/STIM_005.jpg	100
1396.935	1.247	1247.0	pointing	Trial2	pointing/STIM_005.jpg	99
1401.956	1.657	1657.4	pointing	Trial2	pointing/STIM_005.jpg	100
1406.404	1.755	1755.0	pointing	Trial2	pointing/STIM_005.jpg	99
1410.835	1.609	1608.9	pointing	Trial2	pointing/STIM_005.jpg	100
1415.676	1.699	1698.7	pointing	Trial2	pointing/STIM_005.jpg	100
1420.057	1.654	1654.0	pointing	Trial2	pointing/STIM_006.jpg	99
1425.34	1.583	1582.6	pointing	Trial2	pointing/STIM_006.jpg	99
1429.279	1.13	1130.1	pointing	Trial2	pointing/STIM_006.jpg	100
1432.838	1.945	1945.1	pointing	Trial2	pointing/STIM_006.jpg	100
1437.687	1.311	1311.0	pointing	Trial2	pointing/STIM_006.jpg	99
1442.056	1.804	1804.3	pointing	Trial2	pointing/STIM_006.jpg	100
1446.306	1.928	1928.4	pointing	Trial2	pointing/STIM_007.jpg	100
1452.039	1.104	1103.7	pointing	Trial2	pointing/STIM_007.jpg	99
1455.696	1.904	1904.0	pointing	Trial2	pointing/STIM_007.jpg	100
1460.746	1.626	1626.1	pointing	Trial2	pointing/STIM_007.jpg	100
1464.426	1.934	1933.6	pointing	Trial2	pointing/STIM_007.jpg	99
1468.454	1.335	1335.0	pointing	Trial2	pointing/STIM_007.jpg	100
1473.626	1.458	1457.9	pointing	Trial2	pointing/STIM_008.jpg	99
1479.064	1.318	1317.5	pointing	Trial2	pointing/STIM_008.jpg	100
1483.092	1.221	1220.8	pointing	Trial2	pointing/STIM_008.jpg	99
1488.167	1.484	1483.7	pointing	Trial2	pointing/STIM_008.jpg	99
1491.799	1.1	1099.5	pointing	Trial2	pointing/STIM_008.jpg	99
1495.984	1.099	1099.2	pointing	Trial2	pointing/STIM_008.jpg	99
1499.428	1.573	1573.2	pointing	Trial2	pointing/STIM_009.jpg	99
1504.607	1.915	1914.9	pointing	Trial2	pointing/STIM_009.jpg	99
1508.827	1.618	1617.6	pointing	Trial2	pointing/STIM_009.jpg	99
1513.76	1.087	1086.9	pointing	Trial2	pointing/STIM_009.jpg	99
1516.973	1.669	1669.2	pointing	Trial2	pointing/STIM_009.jpg	99
1522.35	1.466	1465.8	pointing	Trial2	pointing/STIM_009.jpg	99
1526.514	1.467	1467.0	pointing	Trial2	pointing/STIM_010.jpg	99
1531.906	1.475	1475.2	pointing	Trial2	pointing/STIM_010.jpg	100
1536.604	1.942	1942.1	pointing	Trial2	pointing/STIM_010.jpg	99
1541.072	1.225	1225.2	pointing	Trial2	pointing/STIM_010.jpg	99
1546.024	1.586	1586.3	pointing	Trial2	pointing/STIM_010.jpg	100
1549.74	1.642	1641.6	pointing	Trial2	pointing/STIM_010.jpg	100
1553.525	1.632	1631.7	pointing	Trial2	pointing/STIM_011.jpg	100
1557.795	1.782	1782.4	pointing	Trial2	pointing/STIM_011.jpg	100
1562.752	1.92	1919.6	pointing	Trial2	pointing/STIM_011.jpg	100
1566.679	1.736	1735.9	pointing	Trial2	pointing/STIM_011.jpg	100
1571.246	1.766	1765.9	pointing	Trial2	pointing/STIM_011.jpg	100
1575.813	1.143	1142.7	pointing	Trial2	pointing/STIM_011.jpg	99
1579.645	2.708	2708.2	navigation	Trial3	navigation/STIM_000.jpg	100
1585.358	3.136	3135.5	navigation	Trial3	navigation/STIM_000.jpg	99
1592.399	4.513	4512.6	navigation	Trial3	navigation/STIM_000.jpg	100
1599.794	2.993	2993.4	navigation	Trial3	navigation/STIM_000.jpg	100
1606.519	4.438	4438.3	navigation	Trial3	navigation/STIM_000.jpg	99
1614.84	4.514	4513.6	navigation	Trial3	navigation/STIM_000.jpg	99
1622.893	4.4	4400.5	navigation	Trial3	navigation/STIM_001.jpg	99
1630.809	3.498	3498.0	navigation	Trial3	navigation/STIM_001.jpg	100
1636.836	4.257	4256.8	navigation	Trial3	navigation/STIM_001.jpg	99
1643.844	2.697	2696.7	navigation	Trial3	navigation/STIM_001.jpg	100
1649.269	3.029	3028.7	navigation	Trial3	navigation/STIM_001.jpg	99
1654.842	3.356	3355.5	navigation	Trial3	navigation/STIM_001.jpg	100
1661.1	4.083	4083.4	navigation	Trial3	navigation/STIM_002.jpg	100
1667.396	4.232	4232.1	navigation	Trial3	navigation/STIM_002.jpg	99
1673.958	4.08	4079.5	navigation	Trial3	navigation/STIM_002.jpg	100
1681.306	4.536	4535.8	navigation	Trial3	navigation/STIM_002.jpg	100
1687.904	3.716	3715.7	navigation	Trial3	navigation/STIM_002.jpg	99
1694.196	3.06	3059.9	navigation	Trial3	navigation/STIM_002.jpg	99
1700.449	2.54	2540.1	navigation	Trial3	navigation/STIM_003.jpg	100
1705.681	1.961	1961.1	navigation	Trial3	navigation/STIM_003.jpg	100
1709.973	3.244	3243.8	navigation	Trial3	navigation/STIM_003.jpg	100
1716.424	3.358	3357.5	navigation	Trial3	navigation/STIM_003.jpg	99
1722.153	2.822	2822.3	navigation	Trial3	navigation/STIM_003.jpg	99
1728.709	3.136	3136.1	navigation	Trial3	navigation/STIM_003.jpg	99
1733.942	3.432	3432.5	navigation	Trial3	navigation/STIM_004.jpg	100
1740.703	2.678	2677.5	navigation	Trial3	navigation/STIM_004.jpg	100
1747.311	4.254	4253.7	navigation	Trial3	navigation/STIM_004.jpg	100
1755.108	3.528	3527.5	navigation	Trial3	navigation/STIM_004.jpg	99
1761.708	3.311	3310.9	navigation	Trial3	navigation/STIM_004.jpg	99
1767.132	3.969	3969.4	navigation	Trial3	navigation/STIM_004.jpg	100
1773.192	4.19	4189.9	navigation	Trial3	navigation/STIM_005.jpg	100
1780.305	2.97	2970.3	navigation	Trial3	navigation/STIM_005.jpg	99
1785.842	2.863	2862.6	navigation	Trial3	navigation/STIM_005.jpg	100
1792.373	3.958	3958.3	navigation	Trial3	navigation/STIM_005.jpg	99
1800.123	4.404	4403.7	navigation	Trial3	navigation/STIM_005.jpg	99
1808.325	3.321	3321.3	navigation	Trial3	navigation/STIM_005.jpg	99
1814.684	3.298	3297.5	navigation	Trial3	navigation/STIM_006.jpg	99
1821.802	3.61	3609.6	navigation	Trial3	navigation/STIM_006.jpg	99
1829.061	3.864	3863.6	navigation	Trial3	navigation/STIM_006.jpg	99
1835.227	3.6	3600.0	navigation	Trial3	navigation/STIM_006.jpg	100
1842.415	4.065	4064.9	navigation	Trial3	navigation/STIM_006.jpg	99
1848.772	2.938	2937.6	navigation	Trial3	navigation/STIM_006.jpg	100
1855.361	3.059	3059.4	navigation	Trial3	navigation/STIM_007.jpg	100
1861.258	2.972	2972.0	navigation	Trial3	navigation/STIM_007.jpg	100
1866.776	3.77	3769.7	navigation	Trial3	navigation/STIM_007.jpg	100
1873.346	2.563	2562.9	navigation	Trial3	navigation/STIM_007.jpg	100
1878.006	2.563	2563.4	navigation	Trial3	navigation/STIM_007.jpg	99
1882.702	4.359	4359.3	navigation	Trial3	navigation/STIM_007.jpg	100
1889.727	2.402	2401.9	navigation	Trial3	navigation/STIM_008.jpg	99
1895.793	2.088	2088.2	navigation	Trial3	navigation/STIM_008.jpg	100
1900.607	2.359	2358.7	navigation	Trial3	navigation/STIM_008.jpg	99
1906.295	4.133	4133.3	navigation	Trial3	navigation/STIM_008.jpg	99
1912.65	2.692	2692.5	navigation	Trial3	navigation/STIM_008.jpg	100
1918.839	4.493	4493.1	navigation	Trial3	navigation/STIM_008.jpg	100
1926.767	4.174	4173.7	navigation	Trial3	navigation/STIM_009.jpg	100
1934.132	1.929	1929.1	navigation	Trial3	navigation/STIM_009.jpg	100
1939.284	3.873	3873.2	navigation	Trial3	navigation/STIM_009.jpg	99
1945.202	2.947	2947.3	navigation	Trial3	navigation/STIM_009.jpg	99
1951.347	4.02	4020.4	navigation	Trial3	navigation/STIM_009.jpg	99
1957.626	3.114	3113.8	navigation	Trial3	navigation/STIM_009.jpg	100
1963.691	2.399	2399.1	navigation	Trial3	navigation/STIM_010.jpg	99
1969.53	3.57	3570.4	navigation	Trial3	navigation/STIM_010.jpg	100
1976.36	3.38	3380.5	navigation	Trial3	navigation/STIM_010.jpg	99
1982.359	1.841	1841.2	navigation	Trial3	navigation/STIM_010.jpg	100
1987.967	2.804	2803.7	navigation	Trial3	navigation/STIM_010.jpg	99
1993.971	2.051	2050.7	navigation	Trial3	navigation/STIM_010.jpg	99
1998.148	3.433	3433.1	navigation	Trial3	navigation/STIM_011.jpg	100
2004.994	3.131	3131.2	navigation	Trial3	navigation/STIM_011.jpg	99
2011.354	3.074	3074.5	navigation	Trial3	navigation/STIM_011.jpg	100
2017.697	1.838	1838.3	navigation	Trial3	navigation/STIM_011.jpg	99
2022.095	2.795	2795.4	navigation	Trial3	navigation/STIM_011.jpg	99
2028.189	3.354	3353.5	navigation	Trial3	navigation/STIM_011.jpg	100
2034.076	1.641	1640.9	pointing	Trial3	pointing/STIM_000.jpg	100
2038.374	1.23	1229.5	pointing	Trial3	pointing/STIM_000.jpg	99
2043.401	1.565	1564.7	pointing	Trial3	pointing/STIM_000.jpg	99
2047.424	1.596	1595.8	pointing	Trial3	pointing/STIM_000.jpg	99
2051.068	1.258	1257.8	pointing	Trial3	pointing/STIM_000.jpg	100
2056.225	1.62	1620.1	pointing	Trial3	pointing/STIM_000.jpg	100
2061.539	1.158	1157.6	pointing	Trial3	pointing/STIM_001.jpg	100
2065.407	1.147	1147.1	pointing	Trial3	pointing/STIM_001.jpg	99
2070.266	1.12	1120.4	pointing	Trial3	pointing/STIM_001.jpg	99
2073.593	1.242	1242.5	pointing	Trial3	pointing/STIM_001.jpg	99
2078.351	1.804	1803.6	pointing	Trial3	pointing/STIM_001.jpg	99
2083.572	1.774	1773.9	pointing	Trial3	pointing/STIM_001.jpg	100
2088.456	1.781	1781.0	pointing	Trial3	pointing/STIM_002.jpg	100
2094.133	1.317	1316.9	pointing	Trial3	pointing/STIM_002.jpg	99
2098.006	1.608	1607.9	pointing	Trial3	pointing/STIM_002.jpg	100
2102.868	1.83	1830.2	pointing	Trial3	pointing/STIM_002.jpg	99
2107.175	1.383	1383.1	pointing	Trial3	pointing/STIM_002.jpg	100
2110.965	1.908	1908.0	pointing	Trial3	pointing/STIM_002.jpg	100
2115.727	1.819	1819.4	pointing	Trial3	pointing/STIM_003.jpg	99
2121.467	1.402	1402.4	pointing	Trial3	pointing/STIM_003.jpg	100
2125.267	1.763	1763.0	pointing	Trial3	pointing/STIM_003.jpg	100
2130.708	1.09	1089.5	pointing	Trial3	pointing/STIM_003.jpg	100
2134.961	1.312	1311.5	pointing	Trial3	pointing/STIM_003.jpg	99
2139.534	1.387	1387.2	pointing	Trial3	pointing/STIM_003.jpg	100
2143.793	1.643	1643.1	pointing	Trial3	pointing/STIM_004.jpg	100
2148.285	1.214	1214.3	pointing	Trial3	pointing/STIM_004.jpg	99
2152.659	1.266	1266.0	pointing	Trial3	pointing/STIM_004.jpg	99
2156.163	1.742	1742.5	pointing	Trial3	pointing/STIM_004.jpg	100
2160.791	1.538	1537.7	pointing	Trial3	pointing/STIM_004.jpg	100
2164.906	1.796	1796.1	pointing	Trial3	pointing/STIM_004.jpg	100
2170.479	1.839	1838.9	pointing	Trial3	pointing/STIM_005.jpg	99
2175.372	1.88	1880.5	pointing	Trial3	pointing/STIM_005.jpg	100
2181.207	1.361	1361.1	pointing	Trial3	pointing/STIM_005.jpg	99
2185.844	1.734	1733.6	pointing	Trial3	pointing/STIM_005.jpg	100
2191.459	1.714	1714.1	pointing	Trial3	pointing/STIM_005.jpg	99
2197.125	1.666	1665.8	pointing	Trial3	pointing/STIM_005.jpg	100
2201.247	1.156	1155.5	pointing	Trial3	pointing/STIM_006.jpg	99
2205.976	1.597	1597.1	pointing	Trial3	pointing/STIM_006.jpg	99
2210.16	1.182	1181.8	pointing	Trial3	pointing/STIM_006.jpg	100
2214.521	1.518	1518.3	pointing	Trial3	pointing/STIM_006.jpg	99
2218.139	1.222	1221.9	pointing	Trial3	pointing/STIM_006.jpg	99
2222.369	1.786	1785.9	pointing	Trial3	pointing/STIM_006.jpg	99
2226.928	1.058	1058.5	pointing	Trial3	pointing/STIM_007.jpg	100
2230.422	1.675	1675.2	pointing	Trial3	pointing/STIM_007.jpg	99
2234.394	1.272	1272.4	pointing	Trial3	pointing/STIM_007.jpg	99
2239.487	1.5	1499.5	pointing	Trial3	pointing/STIM_007.jpg	100
2244.977	1.67	1670.5	pointing	Trial3	pointing/STIM_007.jpg	100
2248.705	1.631	1630.9	pointing	Trial3	pointing/STIM_007.jpg	100
2253.908	1.401	1401.2	pointing	Trial3	pointing/STIM_008.jpg	99
2257.844	1.051	1051.2	pointing	Trial3	pointing/STIM_008.jpg	99
2261.446	1.731	1730.9	pointing	Trial3	pointing/STIM_008.jpg	99
2266.604	1.895	1895.4	pointing	Trial3	pointing/STIM_008.jpg	99
2271.889	1.225	1225.0	pointing	Trial3	pointing/STIM_008.jpg	99
2276.565	1.425	1424.9	pointing	Trial3	pointing/STIM_008.jpg	99
2281.333	1.526	1526.5	pointing	Trial3	pointing/STIM_009.jpg	99
2286.317	1.676	1675.5	pointing	Trial3	pointing/STIM_009.jpg	99
2290.175	1.743	1742.9	pointing	Trial3	pointing/STIM_009.jpg	99
2294.585	1.44	1439.9	pointing	Trial3	pointing/STIM_009.jpg	99
2299.688	1.045	1045.1	pointing	Trial3	pointing/STIM_009.jpg	100
2303.459	1.315	1315.3	pointing	Trial3	pointing/STIM_009.jpg	99
2307.29	1.596	1595.6	pointing	Trial3	pointing/STIM_010.jpg	100
2312.091	1.36	1359.6	pointing	Trial3	pointing/STIM_010.jpg	100
2316.771	1.43	1429.8	pointing	Trial3	pointing/STIM_010.jpg	99
2321.22	1.316	1316.2	pointing	Trial3	pointing/STIM_010.jpg	99
2324.607	1.47	1469.6	pointing	Trial3	pointing/STIM_010.jpg	100
2328.885	1.068	1068.0	pointing	Trial3	pointing/STIM_010.jpg	99
2331.981	1.077	1076.9	pointing	Trial3	pointing/STIM_011.jpg	100
2335.551	1.176	1175.5	pointing	Trial3	pointing/STIM_011.jpg	100
2340.511	1.88	1880.1	pointing	Trial3	pointing/STIM_011.jpg	100
2344.556	1.478	1478.2	pointing	Trial3	pointing/STIM_011.jpg	100
2348.261	1.721	1721.3	pointing	Trial3	pointing/STIM_011.jpg	99
2352.997	1.54	1539.8	pointing	Trial3	pointing/STIM_011.jpg	99
