onset	duration	accuracy_binary	trial_type	learning_stage	stimulus
0.0	2.473	1	navigation	Trial1	navigation/STIM_000.jpg
5.284	3.787	1	navigation	Trial1	navigation/STIM_000.jpg
12.478	2.486	1	navigation	Trial1	navigation/STIM_000.jpg
17.419	2.7	1	navigation	Trial1	navigation/STIM_000.jpg
22.682	2.209	1	navigation	Trial1	navigation/STIM_000.jpg
27.348	1.687	1	navigation	Trial1	navigation/STIM_000.jpg
32.282	2.156	1	navigation	Trial1	navigation/STIM_001.jpg
38.444	3.347	1	navigation	Trial1	navigation/STIM_001.jpg
44.641	3.914	1	navigation	Trial1	navigation/STIM_001.jpg
51.466	2.374	1	navigation	Trial1	navigation/STIM_001.jpg
57.326	2.196	1	navigation	Trial1	navigation/STIM_001.jpg
62.719	1.854	1	navigation	Trial1	navigation/STIM_001.jpg
67.161	2.426	1	navigation	Trial1	navigation/STIM_002.jpg
73.286	1.99	0	navigation	Trial1	navigation/STIM_002.jpg
78.435	3.68	1	navigation	Trial1	navigation/STIM_002.jpg
85.288	2.899	1	navigation	Trial1	navigation/STIM_002.jpg
90.817	3.416	0	navigation	Trial1	navigation/STIM_002.jpg
97.187	2.247	1	navigation	Trial1	navigation/STIM_002.jpg
102.531	3.685	1	navigation	Trial1	navigation/STIM_003.jpg
109.235	2.393	0	navigation	Trial1	navigation/STIM_003.jpg
115.543	1.88	0	navigation	Trial1	navigation/STIM_003.jpg
121.528	2.652	0	navigation	Trial1	navigation/STIM_003.jpg
128.07	3.132	1	navigation	Trial1	navigation/STIM_003.jpg
134.268	2.391	1	navigation	Trial1	navigation/STIM_003.jpg
140.343	4.183	1	navigation	Trial1	navigation/STIM_004.jpg
147.748	2.581	1	navigation	Trial1	navigation/STIM_004.jpg
153.435	2.107	1	navigation	Trial1	navigation/STIM_004.jpg
158.109	1.744	1	navigation	Trial1	navigation/STIM_004.jpg
163.326	1.999	1	navigation	Trial1	navigation/STIM_004.jpg
168.205	1.984	0	navigation	Trial1	navigation/STIM_004.jpg
173.513	3.709	0	navigation	Trial1	navigation/STIM_005.jpg
181.747	3.813	1	navigation	Trial1	navigation/STIM_005.jpg
189.595	2.348	0	navigation	Trial1	navigation/STIM_005.jpg
195.208	3.515	1	navigation	Trial1	navigation/STIM_005.jpg
201.82	1.473	1	navigation	Trial1	navigation/STIM_005.jpg
206.674	1.527	0	navigation	Trial1	navigation/STIM_005.jpg
210.569	3.57	1	navigation	Trial1	navigation/STIM_006.jpg
217.399	3.488	0	navigation	Trial1	navigation/STIM_006.jpg
225.121	2.18	0	navigation	Trial1	navigation/STIM_006.jpg
231.626	2.306	0	navigation	Trial1	navigation/STIM_006.jpg
236.717	1.636	1	navigation	Trial1	navigation/STIM_006.jpg
242.217	1.45	0	navigation	Trial1	navigation/STIM_006.jpg
245.914	2.527	1	navigation	Trial1	navigation/STIM_007.jpg
251.875	3.124	0	navigation	Trial1	navigation/STIM_007.jpg
259.161	1.863	1	navigation	Trial1	navigation/STIM_007.jpg
264.085	1.529	0	navigation	Trial1	navigation/STIM_007.jpg
269.719	2.984	1	navigation	Trial1	navigation/STIM_007.jpg
276.267	2.879	1	navigation	Trial1	navigation/STIM_007.jpg
281.963	1.872	1	navigation	Trial1	navigation/STIM_008.jpg
287.83	1.892	0	navigation	Trial1	navigation/STIM_008.jpg
293.803	2.662	1	navigation	Trial1	navigation/STIM_008.jpg
299.795	1.794	1	navigation	Trial1	navigation/STIM_008.jpg
304.469	2.905	1	navigation	Trial1	navigation/STIM_008.jpg
311.846	3.055	1	navigation	Trial1	navigation/STIM_008.jpg
317.905	2.094	1	navigation	Trial1	navigation/STIM_009.jpg
323.953	3.801	1	navigation	Trial1	navigation/STIM_009.jpg
331.299	2.086	1	navigation	Trial1	navigation/STIM_009.jpg
336.548	3.285	1	navigation	Trial1	navigation/STIM_009.jpg
343.625	2.486	1	navigation	Trial1	navigation/STIM_009.jpg
349.183	1.537	1	navigation	Trial1	navigation/STIM_009.jpg
353.39	3.563	1	navigation	Trial1	navigation/STIM_010.jpg
361.014	2.575	1	navigation	Trial1	navigation/STIM_010.jpg
367.833	2.603	0	navigation	Trial1	navigation/STIM_010.jpg
374.288	3.346	0	navigation	Trial1	navigation/STIM_010.jpg
381.707	3.286	1	navigation	Trial1	navigation/STIM_010.jpg
387.597	3.094	0	navigation	Trial1	navigation/STIM_010.jpg
394.044	2.118	1	navigation	Trial1	navigation/STIM_011.jpg
399.492	2.571	1	navigation	Trial1	navigation/STIM_011.jpg
406.162	3.66	1	navigation	Trial1	navigation/STIM_011.jpg
413.46	2.01	1	navigation	Trial1	navigation/STIM_011.jpg
417.851	2.754	0	navigation	Trial1	navigation/STIM_011.jpg
423.743	1.327	1	navigation	Trial1	navigation/STIM_011.jpg
428.183	0.756	1	pointing	Trial1	pointing/STIM_000.jpg
431.732	0.861	1	pointing	Trial1	pointing/STIM_000.jpg
436.147	0.739	1	pointing	Trial1	pointing/STIM_000.jpg
439.962	0.938	1	pointing	Trial1	pointing/STIM_000.jpg
444.456	0.935	1	pointing	Trial1	pointing/STIM_000.jpg
448.316	0.879	1	pointing	Trial1	pointing/STIM_000.jpg
453.024	1.26	1	pointing	Trial1	pointing/STIM_001.jpg
457.215	1.1	1	pointing	Trial1	pointing/STIM_001.jpg
461.601	0.884	1	pointing	Trial1	pointing/STIM_001.jpg
466.383	0.903	1	pointing	Trial1	pointing/STIM_001.jpg
469.387	0.758	1	pointing	Trial1	pointing/STIM_001.jpg
473.434	1.098	1	pointing	Trial1	pointing/STIM_001.jpg
477.174	1.226	1	pointing	Trial1	pointing/STIM_002.jpg
481.81	0.908	1	pointing	Trial1	pointing/STIM_002.jpg
485.242	1.219	1	pointing	Trial1	pointing/STIM_002.jpg
490.135	1.225	1	pointing	Trial1	pointing/STIM_002.jpg
494.852	0.85	1	pointing	Trial1	pointing/STIM_002.jpg
497.834	0.825	1	pointing	Trial1	pointing/STIM_002.jpg
501.765	0.876	1	pointing	Trial1	pointing/STIM_003.jpg
504.826	0.966	0	pointing	Trial1	pointing/STIM_003.jpg
508.017	0.979	1	pointing	Trial1	pointing/STIM_003.jpg
511.691	0.776	1	pointing	Trial1	pointing/STIM_003.jpg
515.222	0.915	1	pointing	Trial1	pointing/STIM_003.jpg
518.652	0.73	1	pointing	Trial1	pointing/STIM_003.jpg
521.741	0.879	1	pointing	Trial1	pointing/STIM_004.jpg
526.094	1.032	1	pointing	Trial1	pointing/STIM_004.jpg
530.232	0.942	1	pointing	Trial1	pointing/STIM_004.jpg
533.499	0.997	1	pointing	Trial1	pointing/STIM_004.jpg
537.845	1.254	0	pointing	Trial1	pointing/STIM_004.jpg
542.138	0.729	0	pointing	Trial1	pointing/STIM_004.jpg
546.551	0.942	1	pointing	Trial1	pointing/STIM_005.jpg
551.603	1.222	1	pointing	Trial1	pointing/STIM_005.jpg
555.609	1.078	1	pointing	Trial1	pointing/STIM_005.jpg
559.456	0.818	1	pointing	Trial1	pointing/STIM_005.jpg
563.708	0.92	1	pointing	Trial1	pointing/STIM_005.jpg
568.25	0.806	0	pointing	Trial1	pointing/STIM_005.jpg
572.816	0.89	1	pointing	Trial1	pointing/STIM_006.jpg
576.782	1.245	1	pointing	Trial1	pointing/STIM_006.jpg
580.23	1.291	1	pointing	Trial1	pointing/STIM_006.jpg
585.23	0.655	1	pointing	Trial1	pointing/STIM_006.jpg
589.095	0.924	0	pointing	Trial1	pointing/STIM_006.jpg
592.831	1.346	1	pointing	Trial1	pointing/STIM_006.jpg
597.474	0.71	1	pointing	Trial1	pointing/STIM_007.jpg
601.89	0.866	1	pointing	Trial1	pointing/STIM_007.jpg
605.423	0.76	1	pointing	Trial1	pointing/STIM_007.jpg
609.391	0.745	1	pointing	Trial1	pointing/STIM_007.jpg
613.524	0.872	1	pointing	Trial1	pointing/STIM_007.jpg
617.13	0.826	1	pointing	Trial1	pointing/STIM_007.jpg
620.899	1.235	1	pointing	Trial1	pointing/STIM_008.jpg
625.625	0.868	1	pointing	Trial1	pointing/STIM_008.jpg
629.945	0.62	1	pointing	Trial1	pointing/STIM_008.jpg
633.925	1.094	1	pointing	Trial1	pointing/STIM_008.jpg
637.976	1.076	1	pointing	Trial1	pointing/STIM_008.jpg
642.204	0.954	1	pointing	Trial1	pointing/STIM_008.jpg
645.987	0.831	1	pointing	Trial1	pointing/STIM_009.jpg
650.053	0.973	1	pointing	Trial1	pointing/STIM_009.jpg
655.05	0.932	1	pointing	Trial1	pointing/STIM_009.jpg
658.577	0.986	1	pointing	Trial1	pointing/STIM_009.jpg
663.324	1.023	0	pointing	Trial1	pointing/STIM_009.jpg
667.694	0.692	0	pointing	Trial1	pointing/STIM_009.jpg
672.477	1.199	1	pointing	Trial1	pointing/STIM_010.jpg
677.434	1.055	0	pointing	Trial1	pointing/STIM_010.jpg
682.735	1.118	1	pointing	Trial1	pointing/STIM_010.jpg
687.598	0.917	1	pointing	Trial1	pointing/STIM_010.jpg
691.337	1.009	1	pointing	Trial1	pointing/STIM_010.jpg
696.001	0.782	1	pointing	Trial1	pointing/STIM_010.jpg
700.05	0.789	1	pointing	Trial1	pointing/STIM_011.jpg
703.396	0.989	0	pointing	Trial1	pointing/STIM_011.jpg
708.439	1.149	1	pointing	Trial1	pointing/STIM_011.jpg
713.569	1.275	1	pointing	Trial1	pointing/STIM_011.jpg
718.31	0.762	1	pointing	Trial1	pointing/STIM_011.jpg
722.96	0.97	1	pointing	Trial1	pointing/STIM_011.jpg
726.883	3.728	1	navigation	Trial2	navigation/STIM_000.jpg
734.331	2.302	1	navigation	Trial2	navigation/STIM_000.jpg
740.39	3.261	0	navigation	Trial2	navigation/STIM_000.jpg
746.135	2.904	0	navigation	Trial2	navigation/STIM_000.jpg
752.346	2.989	0	navigation	Trial2	navigation/STIM_000.jpg
758.717	2.238	1	navigation	Trial2	navigation/STIM_000.jpg
764.062	2.679	1	navigation	Trial2	navigation/STIM_001.jpg
769.917	1.931	1	navigation	Trial2	navigation/STIM_001.jpg
774.785	2.421	1	navigation	Trial2	navigation/STIM_001.jpg
780.12	2.77	1	navigation	Trial2	navigation/STIM_001.jpg
786.342	1.357	1	navigation	Trial2	navigation/STIM_001.jpg
791.797	1.669	0	navigation	Trial2	navigation/STIM_001.jpg
796.148	1.501	0	navigation	Trial2	navigation/STIM_002.jpg
801.003	1.865	1	navigation	Trial2	navigation/STIM_002.jpg
805.378	1.471	0	navigation	Trial2	navigation/STIM_002.jpg
809.771	2.37	0	navigation	Trial2	navigation/STIM_002.jpg
816.322	2.487	0	navigation	Trial2	navigation/STIM_002.jpg
821.292	2.378	1	navigation	Trial2	navigation/STIM_002.jpg
827.427	2.086	1	navigation	Trial2	navigation/STIM_003.jpg
832.255	2.459	1	navigation	Trial2	navigation/STIM_003.jpg
838.275	1.651	1	navigation	Trial2	navigation/STIM_003.jpg
843.555	2.778	1	navigation	Trial2	navigation/STIM_003.jpg
850.512	1.678	1	navigation	Trial2	navigation/STIM_003.jpg
854.707	1.987	1	navigation	Trial2	navigation/STIM_003.jpg
859.693	1.974	1	navigation	Trial2	navigation/STIM_004.jpg
864.701	3.379	1	navigation	Trial2	navigation/STIM_004.jpg
872.34	3.284	1	navigation	Trial2	navigation/STIM_004.jpg
879.89	1.396	1	navigation	Trial2	navigation/STIM_004.jpg
884.037	1.277	1	navigation	Trial2	navigation/STIM_004.jpg
888.153	1.844	1	navigation	Trial2	navigation/STIM_004.jpg
893.119	2.42	1	navigation	Trial2	navigation/STIM_005.jpg
899.701	3.277	1	navigation	Trial2	navigation/STIM_005.jpg
906.902	2.29	1	navigation	Trial2	navigation/STIM_005.jpg
911.822	1.896	1	navigation	Trial2	navigation/STIM_005.jpg
917.083	1.413	1	navigation	Trial2	navigation/STIM_005.jpg
921.993	2.019	1	navigation	Trial2	navigation/STIM_005.jpg
926.363	1.827	0	navigation	Trial2	navigation/STIM_006.jpg
931.093	2.288	1	navigation	Trial2	navigation/STIM_006.jpg
937.282	2.062	1	navigation	Trial2	navigation/STIM_006.jpg
942.082	1.204	1	navigation	Trial2	navigation/STIM_006.jpg
947.445	2.254	1	navigation	Trial2	navigation/STIM_006.jpg
952.73	1.747	1	navigation	Trial2	navigation/STIM_006.jpg
957.453	3.443	0	navigation	Trial2	navigation/STIM_007.jpg
963.773	2.458	0	navigation	Trial2	navigation/STIM_007.jpg
969.07	1.928	1	navigation	Trial2	navigation/STIM_007.jpg
974.384	2.424	1	navigation	Trial2	navigation/STIM_007.jpg
980.55	2.54	1	navigation	Trial2	navigation/STIM_007.jpg
985.583	2.578	1	navigation	Trial2	navigation/STIM_007.jpg
992.417	1.72	1	navigation	Trial2	navigation/STIM_008.jpg
998.333	3.182	1	navigation	Trial2	navigation/STIM_008.jpg
1005.585	1.927	1	navigation	Trial2	navigation/STIM_008.jpg
1010.505	2.287	1	navigation	Trial2	navigation/STIM_008.jpg
1015.504	2.679	1	navigation	Trial2	navigation/STIM_008.jpg
1021.553	2.814	1	navigation	Trial2	navigation/STIM_008.jpg
1027.018	3.189	1	navigation	Trial2	navigation/STIM_009.jpg
1034.011	3.378	1	navigation	Trial2	navigation/STIM_009.jpg
1041.814	3.024	1	navigation	Trial2	navigation/STIM_009.jpg
1047.734	1.958	1	navigation	Trial2	navigation/STIM_009.jpg
1053.724	3.029	1	navigation	Trial2	navigation/STIM_009.jpg
1059.605	1.728	1	navigation	Trial2	navigation/STIM_009.jpg
1064.693	2.803	1	navigation	Trial2	navigation/STIM_010.jpg
1071.05	1.863	1	navigation	Trial2	navigation/STIM_010.jpg
1076.49	1.678	1	navigation	Trial2	navigation/STIM_010.jpg
1080.975	2.936	1	navigation	Trial2	navigation/STIM_010.jpg
1086.448	2.672	1	navigation	Trial2	navigation/STIM_010.jpg
1093.127	1.831	1	navigation	Trial2	navigation/STIM_010.jpg
1099.15	2.381	1	navigation	Trial2	navigation/STIM_011.jpg
1105.17	2.312	1	navigation	Trial2	navigation/STIM_011.jpg
1109.946	2.545	1	navigation	Trial2	navigation/STIM_011.jpg
1115.249	1.414	1	navigation	Trial2	navigation/STIM_011.jpg
1120.115	3.076	1	navigation	Trial2	navigation/STIM_011.jpg
1125.844	2.306	1	navigation	Trial2	navigation/STIM_011.jpg
1132.129	0.857	1	pointing	Trial2	pointing/STIM_000.jpg
1136.635	1.014	1	pointing	Trial2	pointing/STIM_000.jpg
1140.809	1.104	1	pointing	Trial2	pointing/STIM_000.jpg
1146.004	1.276	1	pointing	Trial2	pointing/STIM_000.jpg
1149.739	1.325	1	pointing	Trial2	pointing/STIM_000.jpg
1154.585	0.865	1	pointing	Trial2	pointing/STIM_000.jpg
1157.538	0.83	1	pointing	Trial2	pointing/STIM_001.jpg
1161.456	1.093	0	pointing	Trial2	pointing/STIM_001.jpg
1164.674	1.254	1	pointing	Trial2	pointing/STIM_001.jpg
1168.247	1.117	1	pointing	Trial2	pointing/STIM_001.jpg
1172.269	0.831	1	pointing	Trial2	pointing/STIM_001.jpg
1176.106	1.194	1	pointing	Trial2	pointing/STIM_001.jpg
1181.349	0.748	1	pointing	Trial2	pointing/STIM_002.jpg
1185.913	0.977	1	pointing	Trial2	pointing/STIM_002.jpg
1189.872	0.886	0	pointing	Trial2	pointing/STIM_002.jpg
1194.089	0.852	0	pointing	Trial2	pointing/STIM_002.jpg
1197.417	0.807	1	pointing	Trial2	pointing/STIM_002.jpg
1201.358	0.986	1	pointing	Trial2	pointing/STIM_002.jpg
1206.427	1.025	1	pointing	Trial2	pointing/STIM_003.jpg
1211.528	1.122	1	pointing	Trial2	pointing/STIM_003.jpg
1215.676	1.241	1	pointing	Trial2	pointing/STIM_003.jpg
1220.772	1.174	1	pointing	Trial2	pointing/STIM_003.jpg
1224.596	1.116	1	pointing	Trial2	pointing/STIM_003.jpg
1228.719	0.822	1	pointing	Trial2	pointing/STIM_003.jpg
1233.538	0.905	1	pointing	Trial2	pointing/STIM_004.jpg
1237.086	0.915	1	pointing	Trial2	pointing/STIM_004.jpg
1240.562	0.761	1	pointing	Trial2	pointing/STIM_004.jpg
1244.42	0.988	1	pointing	Trial2	pointing/STIM_004.jpg
1249.258	0.702	1	pointing	Trial2	pointing/STIM_004.jpg
1252.786	0.748	1	pointing	Trial2	pointing/STIM_004.jpg
1256.909	0.845	1	pointing	Trial2	pointing/STIM_005.jpg
1260.576	1.037	1	pointing	Trial2	pointing/STIM_005.jpg
1263.753	1.05	0	pointing	Trial2	pointing/STIM_005.jpg
1267.978	1.16	1	pointing	Trial2	pointing/STIM_005.jpg
1272.12	0.725	1	pointing	Trial2	pointing/STIM_005.jpg
1275.157	0.708	1	pointing	Trial2	pointing/STIM_005.jpg
1278.314	1.218	1	pointing	Trial2	pointing/STIM_006.jpg
1281.728	0.871	1	pointing	Trial2	pointing/STIM_006.jpg
1286.658	1.021	1	pointing	Trial2	pointing/STIM_006.jpg
1290.085	1.209	1	pointing	Trial2	pointing/STIM_006.jpg
1293.854	1.234	1	pointing	Trial2	pointing/STIM_006.jpg
1298.406	0.687	1	pointing	Trial2	pointing/STIM_006.jpg
1302.553	1.14	1	pointing	Trial2	pointing/STIM_007.jpg
1307.697	0.921	1	pointing	Trial2	pointing/STIM_007.jpg
1310.87	0.987	0	pointing	Trial2	pointing/STIM_007.jpg
1315.226	1.147	1	pointing	Trial2	pointing/STIM_007.jpg
1318.858	1.178	1	pointing	Trial2	pointing/STIM_007.jpg
1323.18	1.133	0	pointing	Trial2	pointing/STIM_007.jpg
1327.557	0.901	1	pointing	Trial2	pointing/STIM_008.jpg
1332.036	0.734	1	pointing	Trial2	pointing/STIM_008.jpg
1336.728	0.997	1	pointing	Trial2	pointing/STIM_008.jpg
1340.795	1.23	0	pointing	Trial2	pointing/STIM_008.jpg
1345.681	0.779	1	pointing	Trial2	pointing/STIM_008.jpg
1349.16	0.989	1	pointing	Trial2	pointing/STIM_008.jpg
1353.066	0.862	1	pointing	Trial2	pointing/STIM_009.jpg
1357.122	1.081	1	pointing	Trial2	pointing/STIM_009.jpg
1360.834	0.878	1	pointing	Trial2	pointing/STIM_009.jpg
1365.081	1.043	1	pointing	Trial2	pointing/STIM_009.jpg
1369.415	1.266	1	pointing	Trial2	pointing/STIM_009.jpg
1374.685	1.276	1	pointing	Trial2	pointing/STIM_009.jpg
1379.503	1.009	0	pointing	Trial2	pointing/STIM_010.jpg
1384.114	0.904	0	pointing	Trial2	pointing/STIM_010.jpg
1387.894	0.726	1	pointing	Trial2	pointing/STIM_010.jpg
1392.372	1.142	1	pointing	Trial2	pointing/STIM_010.jpg
1396.099	0.826	1	pointing	Trial2	pointing/STIM_010.jpg
1399.475	1.007	1	pointing	Trial2	pointing/STIM_010.jpg
1402.897	1.004	1	pointing	Trial2	pointing/STIM_011.jpg
1407.05	1.186	1	pointing	Trial2	pointing/STIM_011.jpg
1412.217	1.013	1	pointing	Trial2	pointing/STIM_011.jpg
1415.682	1.099	1	pointing	Trial2	pointing/STIM_011.jpg
1419.488	1.178	1	pointing	Trial2	pointing/STIM_011.jpg
1424.787	1.014	1	pointing	Trial2	pointing/STIM_011.jpg
1428.041	2.772	0	navigation	Trial3	navigation/STIM_000.jpg
1434.039	1.296	1	navigation	Trial3	navigation/STIM_000.jpg
1438.253	1.335	1	navigation	Trial3	navigation/STIM_000.jpg
1443.302	1.656	0	navigation	Trial3	navigation/STIM_000.jpg
1449.087	1.733	1	navigation	Trial3	navigation/STIM_000.jpg
1454.447	2.959	1	navigation	Trial3	navigation/STIM_000.jpg
1460.809	2.59	1	navigation	Trial3	navigation/STIM_001.jpg
1467.363	3.038	1	navigation	Trial3	navigation/STIM_001.jpg
1473.222	1.604	1	navigation	Trial3	navigation/STIM_001.jpg
1477.839	2.865	1	navigation	Trial3	navigation/STIM_001.jpg
1483.384	2.096	1	navigation	Trial3	navigation/STIM_001.jpg
1488.128	2.712	1	navigation	Trial3	navigation/STIM_001.jpg
1493.685	1.663	1	navigation	Trial3	navigation/STIM_002.jpg
1498.686	1.796	1	navigation	Trial3	navigation/STIM_002.jpg
1504.647	2.464	1	navigation	Trial3	navigation/STIM_002.jpg
1510.972	1.95	1	navigation	Trial3	navigation/STIM_002.jpg
1517.056	1.965	1	navigation	Trial3	navigation/STIM_002.jpg
1522.023	2.347	1	navigation	Trial3	navigation/STIM_002.jpg
1527.164	1.374	0	navigation	Trial3	navigation/STIM_003.jpg
1531.66	2.553	1	navigation	Trial3	navigation/STIM_003.jpg
1538.447	1.618	1	navigation	Trial3	navigation/STIM_003.jpg
1542.96	1.509	1	navigation	Trial3	navigation/STIM_003.jpg
1547.377	2.683	1	navigation	Trial3	navigation/STIM_003.jpg
1552.537	2.115	1	navigation	Trial3	navigation/STIM_003.jpg
1558.594	1.703	1	navigation	Trial3	navigation/STIM_004.jpg
1564.305	1.702	1	navigation	Trial3	navigation/STIM_004.jpg
1569.867	1.289	1	navigation	Trial3	navigation/STIM_004.jpg
1573.582	2.721	1	navigation	Trial3	navigation/STIM_004.jpg
1579.547	2.648	1	navigation	Trial3	navigation/STIM_004.jpg
1585.461	1.728	1	navigation	Trial3	navigation/STIM_004.jpg
1591.239	1.241	1	navigation	Trial3	navigation/STIM_005.jpg
1595.654	2.059	1	navigation	Trial3	navigation/STIM_005.jpg
1601.906	1.539	0	navigation	Trial3	navigation/STIM_005.jpg
1606.071	2.559	1	navigation	Trial3	navigation/STIM_005.jpg
1612.722	2.635	1	navigation	Trial3	navigation/STIM_005.jpg
1618.399	1.399	1	navigation	Trial3	navigation/STIM_005.jpg
1623.354	2.961	1	navigation	Trial3	navigation/STIM_006.jpg
1628.742	1.266	1	navigation	Trial3	navigation/STIM_006.jpg
1634.127	2.417	1	navigation	Trial3	navigation/STIM_006.jpg
1640.445	1.718	1	navigation	Trial3	navigation/STIM_006.jpg
1644.728	2.308	1	navigation	Trial3	navigation/STIM_006.jpg
1649.646	2.549	1	navigation	Trial3	navigation/STIM_006.jpg
1655.294	1.916	1	navigation	Trial3	navigation/STIM_007.jpg
1660.118	1.841	1	navigation	Trial3	navigation/STIM_007.jpg
1664.901	1.868	1	navigation	Trial3	navigation/STIM_007.jpg
1670.393	1.628	1	navigation	Trial3	navigation/STIM_007.jpg
1675.021	1.938	1	navigation	Trial3	navigation/STIM_007.jpg
1680.691	1.518	1	navigation	Trial3	navigation/STIM_007.jpg
1686.367	1.21	1	navigation	Trial3	navigation/STIM_008.jpg
1690.68	2.07	1	navigation	Trial3	navigation/STIM_008.jpg
1695.128	1.398	1	navigation	Trial3	navigation/STIM_008.jpg
1700.226	1.598	1	navigation	Trial3	navigation/STIM_008.jpg
1705.76	3.011	1	navigation	Trial3	navigation/STIM_008.jpg
1712.373	1.714	1	navigation	Trial3	navigation/STIM_008.jpg
1718.13	2.125	1	navigation	Trial3	navigation/STIM_009.jpg
1723.729	2.898	0	navigation	Trial3	navigation/STIM_009.jpg
1730.792	1.642	1	navigation	Trial3	navigation/STIM_009.jpg
1735.412	2.948	1	navigation	Trial3	navigation/STIM_009.jpg
1741.74	1.155	1	navigation	Trial3	navigation/STIM_009.jpg
1746.828	2.257	1	navigation	Trial3	navigation/STIM_009.jpg
1753.475	2.478	1	navigation	Trial3	navigation/STIM_010.jpg
1760.209	3.01	1	navigation	Trial3	navigation/STIM_010.jpg
1766.798	1.325	1	navigation	Trial3	navigation/STIM_010.jpg
1770.8	2.316	1	navigation	Trial3	navigation/STIM_010.jpg
1776.392	1.85	0	navigation	Trial3	navigation/STIM_010.jpg
1782.097	2.41	1	navigation	Trial3	navigation/STIM_010.jpg
1788.068	2.383	1	navigation	Trial3	navigation/STIM_011.jpg
1794.204	2.097	0	navigation	Trial3	navigation/STIM_011.jpg
1799.534	2.011	1	navigation	Trial3	navigation/STIM_011.jpg
1805.695	1.542	1	navigation	Trial3	navigation/STIM_011.jpg
1810.156	1.693	1	navigation	Trial3	navigation/STIM_011.jpg
1815.629	1.284	1	navigation	Trial3	navigation/STIM_011.jpg
1820.333	0.892	1	pointing	Trial3	pointing/STIM_000.jpg
1823.7	0.901	1	pointing	Trial3	pointing/STIM_000.jpg
1827.331	1.203	1	pointing	Trial3	pointing/STIM_000.jpg
1831.648	1.122	1	pointing	Trial3	pointing/STIM_000.jpg
1836.904	1.164	1	pointing	Trial3	pointing/STIM_000.jpg
1841.199	0.705	1	pointing	Trial3	pointing/STIM_000.jpg
1844.116	1.011	1	pointing	Trial3	pointing/STIM_001.jpg
1848.213	0.708	1	pointing	Trial3	pointing/STIM_001.jpg
1851.985	0.766	1	pointing	Trial3	pointing/STIM_001.jpg
1855.019	1.198	1	pointing	Trial3	pointing/STIM_001.jpg
1859.084	0.655	1	pointing	Trial3	pointing/STIM_001.jpg
1862.197	0.962	1	pointing	Trial3	pointing/STIM_001.jpg
1865.981	1.234	1	pointing	Trial3	pointing/STIM_002.jpg
1870.555	1.22	1	pointing	Trial3	pointing/STIM_002.jpg
1875.855	1.247	1	pointing	Trial3	pointing/STIM_002.jpg
1880.358	0.784	1	pointing	Trial3	pointing/STIM_002.jpg
1883.722	1.124	1	pointing	Trial3	pointing/STIM_002.jpg
1887.773	1.1	1	pointing	Trial3	pointing/STIM_002.jpg
1892.661	0.918	0	pointing	Trial3	pointing/STIM_003.jpg
1897.371	1.112	1	pointing	Trial3	pointing/STIM_003.jpg
1901.496	1.276	1	pointing	Trial3	pointing/STIM_003.jpg
1906.611	0.985	1	pointing	Trial3	pointing/STIM_003.jpg
1910.322	0.994	1	pointing	Trial3	pointing/STIM_003.jpg
1914.283	0.735	1	pointing	Trial3	pointing/STIM_003.jpg
1918.65	1.126	1	pointing	Trial3	pointing/STIM_004.jpg
1923.653	1.21	1	pointing	Trial3	pointing/STIM_004.jpg
1928.255	1.027	1	pointing	Trial3	pointing/STIM_004.jpg
1933.293	0.816	1	pointing	Trial3	pointing/STIM_004.jpg
1937.978	0.862	1	pointing	Trial3	pointing/STIM_004.jpg
1942.504	1.302	1	pointing	Trial3	pointing/STIM_004.jpg
1946.379	0.735	1	pointing	Trial3	pointing/STIM_005.jpg
1950.22	0.736	1	pointing	Trial3	pointing/STIM_005.jpg
1953.488	1.206	0	pointing	Trial3	pointing/STIM_005.jpg
1958.457	0.73	0	pointing	Trial3	pointing/STIM_005.jpg
1961.627	1.0	1	pointing	Trial3	pointing/STIM_005.jpg
1966.378	1.095	1	pointing	Trial3	pointing/STIM_005.jpg
1969.816	0.861	1	pointing	Trial3	pointing/STIM_006.jpg
1974.689	0.775	1	pointing	Trial3	pointing/STIM_006.jpg
1979.362	1.006	1	pointing	Trial3	pointing/STIM_006.jpg
1984.319	1.065	1	pointing	Trial3	pointing/STIM_006.jpg
1989.361	0.781	1	pointing	Trial3	pointing/STIM_006.jpg
1992.634	0.96	1	pointing	Trial3	pointing/STIM_006.jpg
1996.692	0.722	1	pointing	Trial3	pointing/STIM_007.jpg
2000.826	0.861	1	pointing	Trial3	pointing/STIM_007.jpg
2005.084	1.065	0	pointing	Trial3	pointing/STIM_007.jpg
2009.004	1.088	1	pointing	Trial3	pointing/STIM_007.jpg
2013.164	0.701	0	pointing	Trial3	pointing/STIM_007.jpg
2017.876	0.775	1	pointing	Trial3	pointing/STIM_007.jpg
2022.679	1.33	1	pointing	Trial3	pointing/STIM_008.jpg
2028.083	1.317	1	pointing	Trial3	pointing/STIM_008.jpg
2031.688	1.11	1	pointing	Trial3	pointing/STIM_008.jpg
2035.747	0.951	1	pointing	Trial3	pointing/STIM_008.jpg
2040.425	0.995	1	pointing	Trial3	pointing/STIM_008.jpg
2043.793	0.676	1	pointing	Trial3	pointing/STIM_008.jpg
2047.238	0.9	1	pointing	Trial3	pointing/STIM_009.jpg
2050.817	1.238	1	pointing	Trial3	pointing/STIM_009.jpg
2054.442	1.144	1	pointing	Trial3	pointing/STIM_009.jpg
2058.697	1.044	0	pointing	Trial3	pointing/STIM_009.jpg
2062.671	1.277	1	pointing	Trial3	pointing/STIM_009.jpg
2066.932	0.952	1	pointing	Trial3	pointing/STIM_009.jpg
2070.625	1.193	1	pointing	Trial3	pointing/STIM_010.jpg
2075.524	0.94	1	pointing	Trial3	pointing/STIM_010.jpg
2080.485	1.13	1	pointing	Trial3	pointing/STIM_010.jpg
2084.047	0.745	1	pointing	Trial3	pointing/STIM_010.jpg
2088.81	0.704	1	pointing	Trial3	pointing/STIM_010.jpg
2093.186	1.122	1	pointing	Trial3	pointing/STIM_010.jpg
2097.505	1.085	1	pointing	Trial3	pointing/STIM_011.jpg
2101.1	0.764	1	pointing	Trial3	pointing/STIM_011.jpg
2104.751	0.882	1	pointing	Trial3	pointing/STIM_011.jpg
2109.725	0.901	1	pointing	Trial3	pointing/STIM_011.jpg
2114.441	0.918	0	pointing	Trial3	pointing/STIM_011.jpg
2117.521	0.841	1	pointing	Trial3	pointing/STIM_011.jpg
