onset	duration	accuracy	trial_type	learning_stage	stimulus
0.0	3.146	correct	navigation	Trial1	navigation/STIM_000.jpg
6.919	5.955	correct	navigation	Trial1	navigation/STIM_000.jpg
15.282	3.012	correct	navigation	Trial1	navigation/STIM_000.jpg
21.434	3.981	correct	navigation	Trial1	navigation/STIM_000.jpg
27.59	3.388	correct	navigation	Trial1	navigation/STIM_000.jpg
33.499	2.525	correct	navigation	Trial1	navigation/STIM_000.jpg
38.901	3.655	correct	navigation	Trial1	navigation/STIM_001.jpg
46.332	3.295	correct	navigation	Trial1	navigation/STIM_001.jpg
52.263	4.268	correct	navigation	Trial1	navigation/STIM_001.jpg
58.89	5.128	correct	navigation	Trial1	navigation/STIM_001.jpg
67.401	4.111	correct	navigation	Trial1	navigation/STIM_001.jpg
75.167	3.897	correct	navigation	Trial1	navigation/STIM_001.jpg
81.686	6.279	correct	navigation	Trial1	navigation/STIM_002.jpg
91.158	4.847	incorrect	navigation	Trial1	navigation/STIM_002.jpg
98.814	3.679	incorrect	navigation	Trial1	navigation/STIM_002.jpg
104.642	5.046	correct	navigation	Trial1	navigation/STIM_002.jpg
112.759	4.747	incorrect	navigation	Trial1	navigation/STIM_002.jpg
119.843	1.994	correct	navigation	Trial1	navigation/STIM_002.jpg
125.542	4.799	correct	navigation	Trial1	navigation/STIM_003.jpg
133.343	4.562	incorrect	navigation	Trial1	navigation/STIM_003.jpg
141.19	2.506	incorrect	navigation	Trial1	navigation/STIM_003.jpg
146.543	3.268	incorrect	navigation	Trial1	navigation/STIM_003.jpg
152.613	2.674	correct	navigation	Trial1	navigation/STIM_003.jpg
158.178	2.159	correct	navigation	Trial1	navigation/STIM_003.jpg
163.865	4.777	correct	navigation	Trial1	navigation/STIM_004.jpg
171.742	5.91	correct	navigation	Trial1	navigation/STIM_004.jpg
179.842	4.308	correct	navigation	Trial1	navigation/STIM_004.jpg
187.183	2.995	correct	navigation	Trial1	navigation/STIM_004.jpg
192.714	2.833	correct	navigation	Trial1	navigation/STIM_004.jpg
199.512	3.899	incorrect	navigation	Trial1	navigation/STIM_004.jpg
206.17	3.559	incorrect	navigation	Trial1	navigation/STIM_005.jpg
212.848	5.716	incorrect	navigation	Trial1	navigation/STIM_005.jpg
221.601	2.452	incorrect	navigation	Trial1	navigation/STIM_005.jpg
226.514	2.292	correct	navigation	Trial1	navigation/STIM_005.jpg
230.857	2.326	correct	navigation	Trial1	navigation/STIM_005.jpg
235.457	3.194	incorrect	navigation	Trial1	navigation/STIM_005.jpg
241.443	4.302	correct	navigation	Trial1	navigation/STIM_006.jpg
248.194	2.65	incorrect	navigation	Trial1	navigation/STIM_006.jpg
254.141	3.122	incorrect	navigation	Trial1	navigation/STIM_006.jpg
260.214	3.332	incorrect	navigation	Trial1	navigation/STIM_006.jpg
265.771	3.096	correct	navigation	Trial1	navigation/STIM_006.jpg
271.413	4.836	incorrect	navigation	Trial1	navigation/STIM_006.jpg
279.068	5.769	incorrect	navigation	Trial1	navigation/STIM_007.jpg
287.769	4.848	incorrect	navigation	Trial1	navigation/STIM_007.jpg
296.211	5.532	correct	navigation	Trial1	navigation/STIM_007.jpg
303.812	3.542	incorrect	navigation	Trial1	navigation/STIM_007.jpg
309.815	3.027	correct	navigation	Trial1	navigation/STIM_007.jpg
315.377	4.243	correct	navigation	Trial1	navigation/STIM_007.jpg
322.594	5.068	incorrect	navigation	Trial1	navigation/STIM_008.jpg
330.065	3.73	incorrect	navigation	Trial1	navigation/STIM_008.jpg
337.332	4.082	correct	navigation	Trial1	navigation/STIM_008.jpg
344.115	2.217	correct	navigation	Trial1	navigation/STIM_008.jpg
348.528	2.326	correct	navigation	Trial1	navigation/STIM_008.jpg
353.212	4.2	correct	navigation	Trial1	navigation/STIM_008.jpg
360.919	2.959	correct	navigation	Trial1	navigation/STIM_009.jpg
366.111	3.514	incorrect	navigation	Trial1	navigation/STIM_009.jpg
372.496	3.035	correct	navigation	Trial1	navigation/STIM_009.jpg
378.12	5.328	correct	navigation	Trial1	navigation/STIM_009.jpg
386.233	4.521	correct	navigation	Trial1	navigation/STIM_009.jpg
393.027	3.508	correct	navigation	Trial1	navigation/STIM_009.jpg
399.026	3.83	correct	navigation	Trial1	navigation/STIM_010.jpg
406.457	6.139	correct	navigation	Trial1	navigation/STIM_010.jpg
415.666	5.322	incorrect	navigation	Trial1	navigation/STIM_010.jpg
423.431	5.393	incorrect	navigation	Trial1	navigation/STIM_010.jpg
431.616	3.408	correct	navigation	Trial1	navigation/STIM_010.jpg
437.354	4.341	incorrect	navigation	Trial1	navigation/STIM_010.jpg
444.005	4.561	correct	navigation	Trial1	navigation/STIM_011.jpg
452.262	3.735	correct	navigation	Trial1	navigation/STIM_011.jpg
459.704	3.121	correct	navigation	Trial1	navigation/STIM_011.jpg
466.14	3.858	correct	navigation	Trial1	navigation/STIM_011.jpg
473.16	2.906	incorrect	navigation	Trial1	navigation/STIM_011.jpg
479.223	4.062	correct	navigation	Trial1	navigation/STIM_011.jpg
486.46	1.343	correct	pointing	Trial1	pointing/STIM_000.jpg
491.78	1.342	correct	pointing	Trial1	pointing/STIM_000.jpg
495.743	1.868	correct	pointing	Trial1	pointing/STIM_000.jpg
501.448	1.485	correct	pointing	Trial1	pointing/STIM_000.jpg
505.759	1.415	correct	pointing	Trial1	pointing/STIM_000.jpg
510.602	1.74	correct	pointing	Trial1	pointing/STIM_000.jpg
515.282	1.456	correct	pointing	Trial1	pointing/STIM_001.jpg
519.113	1.736	correct	pointing	Trial1	pointing/STIM_001.jpg
524.137	1.78	correct	pointing	Trial1	pointing/STIM_001.jpg
529.846	1.481	incorrect	pointing	Trial1	pointing/STIM_001.jpg
534.62	1.207	correct	pointing	Trial1	pointing/STIM_001.jpg
537.93	1.15	correct	pointing	Trial1	pointing/STIM_001.jpg
541.843	1.556	correct	pointing	Trial1	pointing/STIM_002.jpg
546.115	1.568	correct	pointing	Trial1	pointing/STIM_002.jpg
550.629	1.489	correct	pointing	Trial1	pointing/STIM_002.jpg
555.036	1.877	correct	pointing	Trial1	pointing/STIM_002.jpg
559.557	1.052	correct	pointing	Trial1	pointing/STIM_002.jpg
562.825	1.638	correct	pointing	Trial1	pointing/STIM_002.jpg
567.114	1.304	correct	pointing	Trial1	pointing/STIM_003.jpg
571.784	1.773	incorrect	pointing	Trial1	pointing/STIM_003.jpg
576.232	1.844	correct	pointing	Trial1	pointing/STIM_003.jpg
580.552	1.527	correct	pointing	Trial1	pointing/STIM_003.jpg
585.593	1.699	correct	pointing	Trial1	pointing/STIM_003.jpg
589.49	1.704	correct	pointing	Trial1	pointing/STIM_003.jpg
593.534	1.242	correct	pointing	Trial1	pointing/STIM_004.jpg
598.669	1.808	correct	pointing	Trial1	pointing/STIM_004.jpg
602.615	1.818	correct	pointing	Trial1	pointing/STIM_004.jpg
608.355	1.316	correct	pointing	Trial1	pointing/STIM_004.jpg
612.542	1.312	incorrect	pointing	Trial1	pointing/STIM_004.jpg
616.285	1.644	incorrect	pointing	Trial1	pointing/STIM_004.jpg
620.353	1.56	correct	pointing	Trial1	pointing/STIM_005.jpg
624.583	1.909	correct	pointing	Trial1	pointing/STIM_005.jpg
628.536	1.41	correct	pointing	Trial1	pointing/STIM_005.jpg
633.727	1.879	correct	pointing	Trial1	pointing/STIM_005.jpg
638.241	1.76	correct	pointing	Trial1	pointing/STIM_005.jpg
643.132	1.11	incorrect	pointing	Trial1	pointing/STIM_005.jpg
646.513	1.923	correct	pointing	Trial1	pointing/STIM_006.jpg
650.912	1.853	correct	pointing	Trial1	pointing/STIM_006.jpg
655.222	1.052	correct	pointing	Trial1	pointing/STIM_006.jpg
660.16	1.264	correct	pointing	Trial1	pointing/STIM_006.jpg
664.986	1.51	incorrect	pointing	Trial1	pointing/STIM_006.jpg
670.331	1.064	correct	pointing	Trial1	pointing/STIM_006.jpg
673.992	1.906	correct	pointing	Trial1	pointing/STIM_007.jpg
678.185	1.258	correct	pointing	Trial1	pointing/STIM_007.jpg
683.046	1.075	correct	pointing	Trial1	pointing/STIM_007.jpg
687.967	1.928	correct	pointing	Trial1	pointing/STIM_007.jpg
692.151	1.574	correct	pointing	Trial1	pointing/STIM_007.jpg
697.21	1.389	correct	pointing	Trial1	pointing/STIM_007.jpg
702.381	1.056	incorrect	pointing	Trial1	pointing/STIM_008.jpg
707.043	1.299	correct	pointing	Trial1	pointing/STIM_008.jpg
710.532	1.3	correct	pointing	Trial1	pointing/STIM_008.jpg
715.772	1.439	correct	pointing	Trial1	pointing/STIM_008.jpg
720.504	1.587	correct	pointing	Trial1	pointing/STIM_008.jpg
724.141	1.18	correct	pointing	Trial1	pointing/STIM_008.jpg
728.869	1.121	correct	pointing	Trial1	pointing/STIM_009.jpg
733.402	1.361	correct	pointing	Trial1	pointing/STIM_009.jpg
736.996	1.36	correct	pointing	Trial1	pointing/STIM_009.jpg
740.78	1.328	correct	pointing	Trial1	pointing/STIM_009.jpg
745.553	1.32	incorrect	pointing	Trial1	pointing/STIM_009.jpg
749.025	1.237	incorrect	pointing	Trial1	pointing/STIM_009.jpg
753.056	1.069	correct	pointing	Trial1	pointing/STIM_010.jpg
757.561	1.46	incorrect	pointing	Trial1	pointing/STIM_010.jpg
761.156	1.676	correct	pointing	Trial1	pointing/STIM_010.jpg
766.544	1.351	correct	pointing	Trial1	pointing/STIM_010.jpg
771.612	1.817	correct	pointing	Trial1	pointing/STIM_010.jpg
776.956	1.694	correct	pointing	Trial1	pointing/STIM_010.jpg
781.87	1.442	correct	pointing	Trial1	pointing/STIM_011.jpg
786.874	1.574	incorrect	pointing	Trial1	pointing/STIM_011.jpg
791.687	1.324	correct	pointing	Trial1	pointing/STIM_011.jpg
796.774	1.631	correct	pointing	Trial1	pointing/STIM_011.jpg
802.131	1.437	correct	pointing	Trial1	pointing/STIM_011.jpg
807.484	1.921	correct	pointing	Trial1	pointing/STIM_011.jpg
811.932	3.769	correct	navigation	Trial2	navigation/STIM_000.jpg
818.58	4.67	correct	navigation	Trial2	navigation/STIM_000.jpg
826.819	2.89	incorrect	navigation	Trial2	navigation/STIM_000.jpg
832.453	4.199	correct	navigation	Trial2	navigation/STIM_000.jpg
840.267	4.228	incorrect	navigation	Trial2	navigation/STIM_000.jpg
847.118	2.346	correct	navigation	Trial2	navigation/STIM_000.jpg
852.596	2.75	incorrect	navigation	Trial2	navigation/STIM_001.jpg
857.43	2.656	incorrect	navigation	Trial2	navigation/STIM_001.jpg
862.647	2.661	correct	navigation	Trial2	navigation/STIM_001.jpg
868.818	2.707	correct	navigation	Trial2	navigation/STIM_001.jpg
875.095	3.406	correct	navigation	Trial2	navigation/STIM_001.jpg
881.686	1.888	incorrect	navigation	Trial2	navigation/STIM_001.jpg
887.218	4.065	incorrect	navigation	Trial2	navigation/STIM_002.jpg
894.11	4.56	correct	navigation	Trial2	navigation/STIM_002.jpg
901.919	2.72	incorrect	navigation	Trial2	navigation/STIM_002.jpg
907.731	2.224	incorrect	navigation	Trial2	navigation/STIM_002.jpg
912.509	4.124	incorrect	navigation	Trial2	navigation/STIM_002.jpg
920.424	2.785	correct	navigation	Trial2	navigation/STIM_002.jpg
925.484	2.609	correct	navigation	Trial2	navigation/STIM_003.jpg
930.813	2.559	incorrect	navigation	Trial2	navigation/STIM_003.jpg
936.815	3.711	correct	navigation	Trial2	navigation/STIM_003.jpg
944.461	1.826	correct	navigation	Trial2	navigation/STIM_003.jpg
949.449	4.065	correct	navigation	Trial2	navigation/STIM_003.jpg
955.949	3.453	correct	navigation	Trial2	navigation/STIM_003.jpg
962.658	3.746	correct	navigation	Trial2	navigation/STIM_004.jpg
969.624	3.362	correct	navigation	Trial2	navigation/STIM_004.jpg
976.778	3.878	correct	navigation	Trial2	navigation/STIM_004.jpg
984.463	1.9	correct	navigation	Trial2	navigation/STIM_004.jpg
989.02	3.88	correct	navigation	Trial2	navigation/STIM_004.jpg
995.548	1.982	incorrect	navigation	Trial2	navigation/STIM_004.jpg
999.829	3.999	correct	navigation	Trial2	navigation/STIM_005.jpg
1007.422	3.074	correct	navigation	Trial2	navigation/STIM_005.jpg
1012.776	4.422	correct	navigation	Trial2	navigation/STIM_005.jpg
1019.755	2.909	correct	navigation	Trial2	navigation/STIM_005.jpg
1026.048	4.306	correct	navigation	Trial2	navigation/STIM_005.jpg
1033.219	2.336	incorrect	navigation	Trial2	navigation/STIM_005.jpg
1037.879	2.257	incorrect	navigation	Trial2	navigation/STIM_006.jpg
1042.487	2.845	correct	navigation	Trial2	navigation/STIM_006.jpg
1048.829	3.038	correct	navigation	Trial2	navigation/STIM_006.jpg
1055.103	2.841	correct	navigation	Trial2	navigation/STIM_006.jpg
1061.394	2.186	correct	navigation	Trial2	navigation/STIM_006.jpg
1067.152	1.963	correct	navigation	Trial2	navigation/STIM_006.jpg
1072.912	2.593	incorrect	navigation	Trial2	navigation/STIM_007.jpg
1077.929	3.055	correct	navigation	Trial2	navigation/STIM_007.jpg
1084.963	2.379	correct	navigation	Trial2	navigation/STIM_007.jpg
1089.546	4.292	correct	navigation	Trial2	navigation/STIM_007.jpg
1097.177	2.74	correct	navigation	Trial2	navigation/STIM_007.jpg
1102.996	2.509	correct	navigation	Trial2	navigation/STIM_007.jpg
1108.321	4.347	incorrect	navigation	Trial2	navigation/STIM_008.jpg
1115.158	4.436	correct	navigation	Trial2	navigation/STIM_008.jpg
1122.724	4.444	correct	navigation	Trial2	navigation/STIM_008.jpg
1129.914	1.952	correct	navigation	Trial2	navigation/STIM_008.jpg
1134.111	3.97	correct	navigation	Trial2	navigation/STIM_008.jpg
1140.73	2.473	correct	navigation	Trial2	navigation/STIM_008.jpg
1146.585	2.265	correct	navigation	Trial2	navigation/STIM_009.jpg
1150.936	2.205	correct	navigation	Trial2	navigation/STIM_009.jpg
1156.104	2.194	correct	navigation	Trial2	navigation/STIM_009.jpg
1161.919	3.105	correct	navigation	Trial2	navigation/STIM_009.jpg
1167.885	3.317	correct	navigation	Trial2	navigation/STIM_009.jpg
1174.767	3.488	correct	navigation	Trial2	navigation/STIM_009.jpg
1181.987	3.073	correct	navigation	Trial2	navigation/STIM_010.jpg
1187.659	2.498	correct	navigation	Trial2	navigation/STIM_010.jpg
1192.556	4.022	correct	navigation	Trial2	navigation/STIM_010.jpg
1199.11	3.434	correct	navigation	Trial2	navigation/STIM_010.jpg
1205.291	3.689	correct	navigation	Trial2	navigation/STIM_010.jpg
1210.995	2.913	correct	navigation	Trial2	navigation/STIM_010.jpg
1217.814	4.325	correct	navigation	Trial2	navigation/STIM_011.jpg
1224.314	4.844	correct	navigation	Trial2	navigation/STIM_011.jpg
1232.303	3.748	correct	navigation	Trial2	navigation/STIM_011.jpg
1238.579	2.793	incorrect	navigation	Trial2	navigation/STIM_011.jpg
1243.673	2.796	correct	navigation	Trial2	navigation/STIM_011.jpg
1249.984	2.969	correct	navigation	Trial2	navigation/STIM_011.jpg
1255.715	1.234	correct	pointing	Trial2	pointing/STIM_000.jpg
1259.448	1.429	correct	pointing	Trial2	pointing/STIM_000.jpg
1264.033	1.308	correct	pointing	Trial2	pointing/STIM_000.jpg
1268.568	1.673	correct	pointing	Trial2	pointing/STIM_000.jpg
1272.416	1.304	correct	pointing	Trial2	pointing/STIM_000.jpg
1276.235	1.099	correct	pointing	Trial2	pointing/STIM_000.jpg
1280.208	1.704	correct	pointing	Trial2	pointing/STIM_001.jpg
1285.877	1.491	correct	pointing	Trial2	pointing/STIM_001.jpg
1290.284	1.633	correct	pointing	Trial2	pointing/STIM_001.jpg
1295.48	1.363	correct	pointing	Trial2	pointing/STIM_001.jpg
1300.121	1.269	correct	pointing	Trial2	pointing/STIM_001.jpg
1304.582	1.438	correct	pointing	Trial2	pointing/STIM_001.jpg
1308.071	1.788	correct	pointing	Trial2	pointing/STIM_002.jpg
1313.003	1.335	correct	pointing	Trial2	pointing/STIM_002.jpg
1317.367	1.056	incorrect	pointing	Trial2	pointing/STIM_002.jpg
1320.93	1.237	incorrect	pointing	Trial2	pointing/STIM_002.jpg
1325.638	1.492	correct	pointing	Trial2	pointing/STIM_002.jpg
1330.891	1.73	correct	pointing	Trial2	pointing/STIM_002.jpg
1335.205	1.449	correct	pointing	Trial2	pointing/STIM_003.jpg
1340.418	1.659	correct	pointing	Trial2	pointing/STIM_003.jpg
1344.97	1.86	incorrect	pointing	Trial2	pointing/STIM_003.jpg
1349.264	1.082	correct	pointing	Trial2	pointing/STIM_003.jpg
1352.482	1.582	correct	pointing	Trial2	pointing/STIM_003.jpg
1356.922	1.554	correct	pointing	Trial2	pointing/STIM_003.jpg
1362.4	1.189	correct	pointing	Trial2	pointing/STIM_004.jpg
1367.377	1.869	correct	pointing	Trial2	pointing/STIM_004.jpg
1373.039	1.469	correct	pointing	Trial2	pointing/STIM_004.jpg
1378.478	1.22	correct	pointing	Trial2	pointing/STIM_004.jpg
1383.682	1.59	correct	pointing	Trial2	pointing/STIM_004.jpg
1387.922	1.599	correct	pointing	Trial2	pointing/STIM_004.jpg
1392.994	1.043	correct	pointing	Trial2	pointing/STIM_005.jpg
1396.935	1.247	correct	pointing	Trial2	pointing/STIM_005.jpg
1401.956	1.657	incorrect	pointing	Trial2	pointing/STIM_005.jpg
1406.404	1.755	correct	pointing	Trial2	pointing/STIM_005.jpg
1410.835	1.609	correct	pointing	Trial2	pointing/STIM_005.jpg
1415.676	1.699	correct	pointing	Trial2	pointing/STIM_005.jpg
1420.057	1.654	correct	pointing	Trial2	pointing/STIM_006.jpg
1425.34	1.583	correct	pointing	Trial2	pointing/STIM_006.jpg
1429.279	1.13	correct	pointing	Trial2	pointing/STIM_006.jpg
1432.838	1.945	correct	pointing	Trial2	pointing/STIM_006.jpg
1437.687	1.311	correct	pointing	Trial2	pointing/STIM_006.jpg
1442.056	1.804	correct	pointing	Trial2	pointing/STIM_006.jpg
1446.306	1.928	correct	pointing	Trial2	pointing/STIM_007.jpg
1452.039	1.104	correct	pointing	Trial2	pointing/STIM_007.jpg
1455.696	1.904	incorrect	pointing	Trial2	pointing/STIM_007.jpg
1460.746	1.626	correct	pointing	Trial2	pointing/STIM_007.jpg
1464.426	1.934	correct	pointing	Trial2	pointing/STIM_007.jpg
1468.454	1.335	incorrect	pointing	Trial2	pointing/STIM_007.jpg
1473.626	1.458	correct	pointing	Trial2	pointing/STIM_008.jpg
1479.064	1.318	incorrect	pointing	Trial2	pointing/STIM_008.jpg
1483.092	1.221	correct	pointing	Trial2	pointing/STIM_008.jpg
1488.167	1.484	incorrect	pointing	Trial2	pointing/STIM_008.jpg
1491.799	1.1	correct	pointing	Trial2	pointing/STIM_008.jpg
1495.984	1.099	correct	pointing	Trial2	pointing/STIM_008.jpg
1499.428	1.573	correct	pointing	Trial2	pointing/STIM_009.jpg
1504.607	1.915	correct	pointing	Trial2	pointing/STIM_009.jpg
1508.827	1.618	correct	pointing	Trial2	pointing/STIM_009.jpg
1513.76	1.087	correct	pointing	Trial2	pointing/STIM_009.jpg
1516.973	1.669	correct	pointing	Trial2	pointing/STIM_009.jpg
1522.35	1.466	correct	pointing	Trial2	pointing/STIM_009.jpg
1526.514	1.467	incorrect	pointing	Trial2	pointing/STIM_010.jpg
1531.906	1.475	incorrect	pointing	Trial2	pointing/STIM_010.jpg
1536.604	1.942	correct	pointing	Trial2	pointing/STIM_010.jpg
1541.072	1.225	correct	pointing	Trial2	pointing/STIM_010.jpg
1546.024	1.586	correct	pointing	Trial2	pointing/STIM_010.jpg
1549.74	1.642	correct	pointing	Trial2	pointing/STIM_010.jpg
1553.525	1.632	correct	pointing	Trial2	pointing/STIM_011.jpg
1557.795	1.782	correct	pointing	Trial2	pointing/STIM_011.jpg
1562.752	1.92	correct	pointing	Trial2	pointing/STIM_011.jpg
1566.679	1.736	correct	pointing	Trial2	pointing/STIM_011.jpg
1571.246	1.766	correct	pointing	Trial2	pointing/STIM_011.jpg
1575.813	1.143	correct	pointing	Trial2	pointing/STIM_011.jpg
1579.645	2.708	incorrect	navigation	Trial3	navigation/STIM_000.jpg
1585.358	3.136	correct	navigation	Trial3	navigation/STIM_000.jpg
1592.399	4.513	incorrect	navigation	Trial3	navigation/STIM_000.jpg
1599.794	2.993	correct	navigation	Trial3	navigation/STIM_000.jpg
1606.519	4.438	correct	navigation	Trial3	navigation/STIM_000.jpg
1614.84	4.514	correct	navigation	Trial3	navigation/STIM_000.jpg
1622.893	4.4	correct	navigation	Trial3	navigation/STIM_001.jpg
1630.809	3.498	correct	navigation	Trial3	navigation/STIM_001.jpg
1636.836	4.257	correct	navigation	Trial3	navigation/STIM_001.jpg
1643.844	2.697	correct	navigation	Trial3	navigation/STIM_001.jpg
1649.269	3.029	correct	navigation	Trial3	navigation/STIM_001.jpg
1654.842	3.356	correct	navigation	Trial3	navigation/STIM_001.jpg
1661.1	4.083	correct	navigation	Trial3	navigation/STIM_002.jpg
1667.396	4.232	correct	navigation	Trial3	navigation/STIM_002.jpg
1673.958	4.08	correct	navigation	Trial3	navigation/STIM_002.jpg
1681.306	4.536	correct	navigation	Trial3	navigation/STIM_002.jpg
1687.904	3.716	correct	navigation	Trial3	navigation/STIM_002.jpg
1694.196	3.06	correct	navigation	Trial3	navigation/STIM_002.jpg
1700.449	2.54	incorrect	navigation	Trial3	navigation/STIM_003.jpg
1705.681	1.961	correct	navigation	Trial3	navigation/STIM_003.jpg
1709.973	3.244	correct	navigation	Trial3	navigation/STIM_003.jpg
1716.424	3.358	correct	navigation	Trial3	navigation/STIM_003.jpg
1722.153	2.822	correct	navigation	Trial3	navigation/STIM_003.jpg
1728.709	3.136	correct	navigation	Trial3	navigation/STIM_003.jpg
1733.942	3.432	correct	navigation	Trial3	navigation/STIM_004.jpg
1740.703	2.678	incorrect	navigation	Trial3	navigation/STIM_004.jpg
1747.311	4.254	correct	navigation	Trial3	navigation/STIM_004.jpg
1755.108	3.528	correct	navigation	Trial3	navigation/STIM_004.jpg
1761.708	3.311	correct	navigation	Trial3	navigation/STIM_004.jpg
1767.132	3.969	correct	navigation	Trial3	navigation/STIM_004.jpg
1773.192	4.19	correct	navigation	Trial3	navigation/STIM_005.jpg
1780.305	2.97	correct	navigation	Trial3	navigation/STIM_005.jpg
1785.842	2.863	incorrect	navigation	Trial3	navigation/STIM_005.jpg
1792.373	3.958	correct	navigation	Trial3	navigation/STIM_005.jpg
1800.123	4.404	correct	navigation	Trial3	navigation/STIM_005.jpg
1808.325	3.321	correct	navigation	Trial3	navigation/STIM_005.jpg
1814.684	3.298	correct	navigation	Trial3	navigation/STIM_006.jpg
1821.802	3.61	correct	navigation	Trial3	navigation/STIM_006.jpg
1829.061	3.864	correct	navigation	Trial3	navigation/STIM_006.jpg
1835.227	3.6	correct	navigation	Trial3	navigation/STIM_006.jpg
1842.415	4.065	correct	navigation	Trial3	navigation/STIM_006.jpg
1848.772	2.938	incorrect	navigation	Trial3	navigation/STIM_006.jpg
1855.361	3.059	correct	navigation	Trial3	navigation/STIM_007.jpg
1861.258	2.972	incorrect	navigation	Trial3	navigation/STIM_007.jpg
1866.776	3.77	correct	navigation	Trial3	navigation/STIM_007.jpg
1873.346	2.563	correct	navigation	Trial3	navigation/STIM_007.jpg
1878.006	2.563	correct	navigation	Trial3	navigation/STIM_007.jpg
1882.702	4.359	correct	navigation	Trial3	navigation/STIM_007.jpg
1889.727	2.402	incorrect	navigation	Trial3	navigation/STIM_008.jpg
1895.793	2.088	correct	navigation	Trial3	navigation/STIM_008.jpg
1900.607	2.359	correct	navigation	Trial3	navigation/STIM_008.jpg
1906.295	4.133	correct	navigation	Trial3	navigation/STIM_008.jpg
1912.65	2.692	correct	navigation	Trial3	navigation/STIM_008.jpg
1918.839	4.493	incorrect	navigation	Trial3	navigation/STIM_008.jpg
1926.767	4.174	correct	navigation	Trial3	navigation/STIM_009.jpg
1934.132	1.929	incorrect	navigation	Trial3	navigation/STIM_009.jpg
1939.284	3.873	correct	navigation	Trial3	navigation/STIM_009.jpg
1945.202	2.947	correct	navigation	Trial3	navigation/STIM_009.jpg
1951.347	4.02	correct	navigation	Trial3	navigation/STIM_009.jpg
1957.626	3.114	correct	navigation	Trial3	navigation/STIM_009.jpg
1963.691	2.399	correct	navigation	Trial3	navigation/STIM_010.jpg
1969.53	3.57	correct	navigation	Trial3	navigation/STIM_010.jpg
1976.36	3.38	correct	navigation	Trial3	navigation/STIM_010.jpg
1982.359	1.841	correct	navigation	Trial3	navigation/STIM_010.jpg
1987.967	2.804	incorrect	navigation	Trial3	navigation/STIM_010.jpg
1993.971	2.051	correct	navigation	Trial3	navigation/STIM_010.jpg
1998.148	3.433	correct	navigation	Trial3	navigation/STIM_011.jpg
2004.994	3.131	incorrect	navigation	Trial3	navigation/STIM_011.jpg
2011.354	3.074	correct	navigation	Trial3	navigation/STIM_011.jpg
2017.697	1.838	correct	navigation	Trial3	navigation/STIM_011.jpg
2022.095	2.795	correct	navigation	Trial3	navigation/STIM_011.jpg
2028.189	3.354	correct	navigation	Trial3	navigation/STIM_011.jpg
2034.076	1.641	correct	pointing	Trial3	pointing/STIM_000.jpg
2038.374	1.23	correct	pointing	Trial3	pointing/STIM_000.jpg
2043.401	1.565	correct	pointing	Trial3	pointing/STIM_000.jpg
2047.424	1.596	correct	pointing	Trial3	pointing/STIM_000.jpg
2051.068	1.258	correct	pointing	Trial3	pointing/STIM_000.jpg
2056.225	1.62	correct	pointing	Trial3	pointing/STIM_000.jpg
2061.539	1.158	correct	pointing	Trial3	pointing/STIM_001.jpg
2065.407	1.147	incorrect	pointing	Trial3	pointing/STIM_001.jpg
2070.266	1.12	correct	pointing	Trial3	pointing/STIM_001.jpg
2073.593	1.242	incorrect	pointing	Trial3	pointing/STIM_001.jpg
2078.351	1.804	incorrect	pointing	Trial3	pointing/STIM_001.jpg
2083.572	1.774	correct	pointing	Trial3	pointing/STIM_001.jpg
2088.456	1.781	correct	pointing	Trial3	pointing/STIM_002.jpg
2094.133	1.317	correct	pointing	Trial3	pointing/STIM_002.jpg
2098.006	1.608	correct	pointing	Trial3	pointing/STIM_002.jpg
2102.868	1.83	correct	pointing	Trial3	pointing/STIM_002.jpg
2107.175	1.383	correct	pointing	Trial3	pointing/STIM_002.jpg
2110.965	1.908	correct	pointing	Trial3	pointing/STIM_002.jpg
2115.727	1.819	incorrect	pointing	Trial3	pointing/STIM_003.jpg
2121.467	1.402	correct	pointing	Trial3	pointing/STIM_003.jpg
2125.267	1.763	correct	pointing	Trial3	pointing/STIM_003.jpg
2130.708	1.09	incorrect	pointing	Trial3	pointing/STIM_003.jpg
2134.961	1.312	correct	pointing	Trial3	pointing/STIM_003.jpg
2139.534	1.387	correct	pointing	Trial3	pointing/STIM_003.jpg
2143.793	1.643	correct	pointing	Trial3	pointing/STIM_004.jpg
2148.285	1.214	correct	pointing	Trial3	pointing/STIM_004.jpg
2152.659	1.266	correct	pointing	Trial3	pointing/STIM_004.jpg
2156.163	1.742	correct	pointing	Trial3	pointing/STIM_004.jpg
2160.791	1.538	correct	pointing	Trial3	pointing/STIM_004.jpg
2164.906	1.796	correct	pointing	Trial3	pointing/STIM_004.jpg
2170.479	1.839	correct	pointing	Trial3	pointing/STIM_005.jpg
2175.372	1.88	correct	pointing	Trial3	pointing/STIM_005.jpg
2181.207	1.361	incorrect	pointing	Trial3	pointing/STIM_005.jpg
2185.844	1.734	incorrect	pointing	Trial3	pointing/STIM_005.jpg
2191.459	1.714	correct	pointing	Trial3	pointing/STIM_005.jpg
2197.125	1.666	correct	pointing	Trial3	pointing/STIM_005.jpg
2201.247	1.156	correct	pointing	Trial3	pointing/STIM_006.jpg
2205.976	1.597	correct	pointing	Trial3	pointing/STIM_006.jpg
2210.16	1.182	correct	pointing	Trial3	pointing/STIM_006.jpg
2214.521	1.518	correct	pointing	Trial3	pointing/STIM_006.jpg
2218.139	1.222	correct	pointing	Trial3	pointing/STIM_006.jpg
2222.369	1.786	correct	pointing	Trial3	pointing/STIM_006.jpg
2226.928	1.058	incorrect	pointing	Trial3	pointing/STIM_007.jpg
2230.422	1.675	correct	pointing	Trial3	pointing/STIM_007.jpg
2234.394	1.272	incorrect	pointing	Trial3	pointing/STIM_007.jpg
2239.487	1.5	correct	pointing	Trial3	pointing/STIM_007.jpg
2244.977	1.67	incorrect	pointing	Trial3	pointing/STIM_007.jpg
2248.705	1.631	correct	pointing	Trial3	pointing/STIM_007.jpg
2253.908	1.401	correct	pointing	Trial3	pointing/STIM_008.jpg
2257.844	1.051	correct	pointing	Trial3	pointing/STIM_008.jpg
2261.446	1.731	correct	pointing	Trial3	pointing/STIM_008.jpg
2266.604	1.895	correct	pointing	Trial3	pointing/STIM_008.jpg
2271.889	1.225	correct	pointing	Trial3	pointing/STIM_008.jpg
2276.565	1.425	correct	pointing	Trial3	pointing/STIM_008.jpg
2281.333	1.526	correct	pointing	Trial3	pointing/STIM_009.jpg
2286.317	1.676	correct	pointing	Trial3	pointing/STIM_009.jpg
2290.175	1.743	correct	pointing	Trial3	pointing/STIM_009.jpg
2294.585	1.44	incorrect	pointing	Trial3	pointing/STIM_009.jpg
2299.688	1.045	incorrect	pointing	Trial3	pointing/STIM_009.jpg
2303.459	1.315	incorrect	pointing	Trial3	pointing/STIM_009.jpg
2307.29	1.596	correct	pointing	Trial3	pointing/STIM_010.jpg
2312.091	1.36	correct	pointing	Trial3	pointing/STIM_010.jpg
2316.771	1.43	correct	pointing	Trial3	pointing/STIM_010.jpg
2321.22	1.316	correct	pointing	Trial3	pointing/STIM_010.jpg
2324.607	1.47	correct	pointing	Trial3	pointing/STIM_010.jpg
2328.885	1.068	correct	pointing	Trial3	pointing/STIM_010.jpg
2331.981	1.077	correct	pointing	Trial3	pointing/STIM_011.jpg
2335.551	1.176	correct	pointing	Trial3	pointing/STIM_011.jpg
2340.511	1.88	correct	pointing	Trial3	pointing/STIM_011.jpg
2344.556	1.478	correct	pointing	Trial3	pointing/STIM_011.jpg
2348.261	1.721	incorrect	pointing	Trial3	pointing/STIM_011.jpg
2352.997	1.54	correct	pointing	Trial3	pointing/STIM_011.jpg
