onset	duration	accuracy_binary	trial_type	learning_stage	stimulus
24.142	0.573	1	learning	LS1	h33_p11_k_down_right.jpg
28.841	0.205	1	learning	LS1	h33_p11_k_down_right.jpg
33.541	1.403	1	learning	LS1	h120_p12_k_up_right.jpg
38.257	0.419	1	learning	LS1	h116_p28_k_up_right.jpg
42.973	1.225	0	learning	LS1	h36_p12_k_down_left.jpg
47.689	0.883	1	learning	LS1	h116_p28_k_up_right.jpg
52.405	0.015	0	learning	LS1	h114_p35_k_up_right.jpg
57.088	1.696	1	learning	LS1	h36_p12_k_down_left.jpg
61.787	0.729	1	learning	LS1	h120_p12_k_up_right.jpg
66.487	0.128	1	learning	LS1	h114_p35_k_up_right.jpg
75.669	0.293	1	learning	LS2	h116_p28_k_up_right.jpg
80.352	1.911	0	learning	LS2	h33_p11_k_down_right.jpg
85.084	2.458	0	learning	LS2	h33_p11_k_down_right.jpg
89.817	0.672	1	learning	LS2	h116_p28_k_up_right.jpg
94.533	1.821	1	learning	LS2	h36_p12_k_down_left.jpg
99.249	1.376	1	learning	LS2	h120_p12_k_up_right.jpg
103.982	0.735	1	learning	LS2	h114_p35_k_up_right.jpg
108.715	0.367	1	learning	LS2	h114_p35_k_up_right.jpg
113.464	0.616	1	learning	LS2	h36_p12_k_down_left.jpg
118.180	0.765	1	learning	LS2	h120_p12_k_up_right.jpg
127.395	1.563	1	learning	LS3	h120_p12_k_up_right.jpg
132.128	0.728	1	learning	LS3	h36_p12_k_down_left.jpg
136.844	0.244	1	learning	LS3	h114_p35_k_up_right.jpg
141.560	1.292	1	learning	LS3	h120_p12_k_up_right.jpg
146.276	0.774	1	learning	LS3	h116_p28_k_up_right.jpg
150.976	1.230	1	learning	LS3	h114_p35_k_up_right.jpg
155.692	1.022	1	learning	LS3	h116_p28_k_up_right.jpg
160.391	1.651	1	learning	LS3	h33_p11_k_down_right.jpg
165.107	2.229	0	learning	LS3	h36_p12_k_down_left.jpg
169.807	1.135	1	learning	LS3	h33_p11_k_down_right.jpg
179.006	1.557	1	learning	LS4	h33_p11_k_down_right.jpg
183.705	1.315	1	learning	LS4	h116_p28_k_up_right.jpg
188.404	0.147	1	learning	LS4	h114_p35_k_up_right.jpg
193.120	1.134	1	learning	LS4	h116_p28_k_up_right.jpg
197.853	0.945	1	learning	LS4	h120_p12_k_up_right.jpg
202.586	1.698	0	learning	LS4	h36_p12_k_down_left.jpg
207.302	0.755	1	learning	LS4	h33_p11_k_down_right.jpg
212.035	0.925	1	learning	LS4	h36_p12_k_down_left.jpg
216.751	0.290	1	learning	LS4	h114_p35_k_up_right.jpg
221.467	1.505	1	learning	LS4	h120_p12_k_up_right.jpg
248.780	1.182	1	learning	LS1	h89_p39_k_up_left.jpg
253.496	1.414	1	learning	LS1	h94_p2_k_up_left.jpg
258.212	0.746	1	learning	LS1	h25_p14_k_down_left.jpg
262.928	0.078	0	learning	LS1	h117_p6_k_up_left.jpg
267.644	0.893	0	learning	LS1	h94_p2_k_up_left.jpg
272.344	0.342	0	learning	LS1	h42_p5_k_down_left.jpg
277.043	1.308	1	learning	LS1	h117_p6_k_up_left.jpg
281.726	0.440	0	learning	LS1	h25_p14_k_down_left.jpg
286.408	1.795	0	learning	LS1	h42_p5_k_down_left.jpg
291.091	1.190	1	learning	LS1	h89_p39_k_up_left.jpg
300.290	0.419	1	learning	LS2	h117_p6_k_up_left.jpg
305.006	2.470	1	learning	LS2	h94_p2_k_up_left.jpg
309.739	0.616	1	learning	LS2	h42_p5_k_down_left.jpg
314.471	0.231	1	learning	LS2	h94_p2_k_up_left.jpg
319.204	0.972	1	learning	LS2	h89_p39_k_up_left.jpg
323.937	0.795	0	learning	LS2	h117_p6_k_up_left.jpg
328.653	1.471	1	learning	LS2	h89_p39_k_up_left.jpg
333.386	1.476	1	learning	LS2	h25_p14_k_down_left.jpg
338.118	0.759	1	learning	LS2	h42_p5_k_down_left.jpg
342.834	0.655	1	learning	LS2	h25_p14_k_down_left.jpg
352.083	0.788	1	learning	LS3	h25_p14_k_down_left.jpg
356.816	0.138	1	learning	LS3	h94_p2_k_up_left.jpg
361.549	1.269	1	learning	LS3	h89_p39_k_up_left.jpg
366.265	0.385	1	learning	LS3	h117_p6_k_up_left.jpg
370.981	1.208	1	learning	LS3	h42_p5_k_down_left.jpg
375.697	0.649	1	learning	LS3	h94_p2_k_up_left.jpg
380.413	0.449	1	learning	LS3	h117_p6_k_up_left.jpg
385.129	1.407	1	learning	LS3	h89_p39_k_up_left.jpg
389.845	0.780	1	learning	LS3	h42_p5_k_down_left.jpg
394.561	0.329	1	learning	LS3	h25_p14_k_down_left.jpg
403.793	0.959	1	learning	LS4	h117_p6_k_up_left.jpg
408.493	n/a	n/a	learning	LS4	n/a
413.192	n/a	n/a	learning	LS4	n/a
417.908	0.506	1	learning	LS4	h94_p2_k_up_left.jpg
422.658	0.305	1	learning	LS4	h42_p5_k_down_left.jpg
427.407	1.586	1	learning	LS4	h117_p6_k_up_left.jpg
432.156	0.786	1	learning	LS4	h25_p14_k_down_left.jpg
436.906	0.988	1	learning	LS4	h89_p39_k_up_left.jpg
441.655	1.132	1	learning	LS4	h42_p5_k_down_left.jpg
446.388	0.681	1	learning	LS4	h94_p2_k_up_left.jpg
473.618	n/a	n/a	control	LS1	n/a
478.734	1.876	0	control	LS1	h108_p27_k_up_left.jpg
483.350	1.258	0	control	LS1	h108_p13_i_up_right.jpg
487.966	1.904	1	control	LS1	h36_p11_i_down_right.jpg
492.582	1.607	1	control	LS1	h35_p50_k_down_right.jpg
497.198	2.429	1	control	LS1	h107_p11_i_up_left.jpg
501.814	2.051	1	control	LS1	h107_p42_k_up_right.jpg
506.430	1.561	1	control	LS1	h35_p31_i_down_right.jpg
511.046	0.944	0	control	LS1	h120_p12_k_up_right.jpg
515.662	2.197	0	control	LS1	h36_p12_k_down_left.jpg
524.794	1.462	1	control	LS2	h107_p42_k_up_right.jpg
529.410	2.460	1	control	LS2	h35_p50_k_down_right.jpg
534.060	1.826	1	control	LS2	h120_p37_i_up_right.jpg
538.709	1.175	0	control	LS2	h120_p12_k_up_right.jpg
543.342	1.021	1	control	LS2	h108_p15_i_up_right.jpg
547.975	1.906	0	control	LS2	h108_p27_k_up_left.jpg
552.607	1.767	1	control	LS2	h36_p25_i_down_right.jpg
557.257	0.893	1	control	LS2	h35_p43_i_down_left.jpg
561.890	1.969	1	control	LS2	h107_p25_i_up_left.jpg
566.506	1.943	1	control	LS2	h36_p12_k_down_left.jpg
575.638	2.232	1	control	LS3	h107_p42_k_up_right.jpg
580.254	1.614	1	control	LS3	h35_p31_i_down_right.jpg
584.870	0.997	1	control	LS3	h35_p50_k_down_right.jpg
589.486	2.378	1	control	LS3	h36_p11_i_down_right.jpg
594.102	1.761	1	control	LS3	h108_p27_k_up_left.jpg
598.718	1.143	1	control	LS3	h120_p21_i_up_right.jpg
603.334	0.892	1	control	LS3	h107_p11_i_up_left.jpg
607.950	1.906	1	control	LS3	h108_p13_i_up_right.jpg
612.550	1.321	1	control	LS3	h36_p12_k_down_left.jpg
617.166	0.816	0	control	LS3	h120_p12_k_up_right.jpg
626.281	2.240	1	control	LS4	h35_p50_k_down_right.jpg
630.881	0.984	1	control	LS4	h120_p37_i_up_right.jpg
635.480	2.382	1	control	LS4	h36_p25_i_down_right.jpg
640.080	1.781	0	control	LS4	h120_p12_k_up_right.jpg
644.712	1.164	0	control	LS4	h107_p42_k_up_right.jpg
649.362	2.512	1	control	LS4	h107_p25_i_up_left.jpg
653.995	1.878	1	control	LS4	h35_p43_i_down_left.jpg
658.627	1.979	1	control	LS4	h36_p12_k_down_left.jpg
663.277	1.520	1	control	LS4	h108_p27_k_up_left.jpg
667.909	1.974	1	control	LS4	h108_p15_i_up_right.jpg
695.239	0.942	1	learning	LS1	h87_p9_k_up_left.jpg
699.989	0.932	0	learning	LS1	h32_p31_k_down_right.jpg
704.721	1.376	1	learning	LS1	h87_p9_k_up_left.jpg
709.437	1.596	0	learning	LS1	h22_p21_k_down_left.jpg
714.154	0.146	0	learning	LS1	h32_p31_k_down_right.jpg
718.870	1.159	1	learning	LS1	h109_p51_k_up_left.jpg
723.586	2.345	1	learning	LS1	h12_p4_k_down_left.jpg
728.285	1.883	1	learning	LS1	h22_p21_k_down_left.jpg
732.968	1.662	1	learning	LS1	h12_p4_k_down_left.jpg
737.684	2.417	1	learning	LS1	h109_p51_k_up_left.jpg
746.883	1.055	1	learning	LS2	h109_p51_k_up_left.jpg
751.565	0.719	0	learning	LS2	h32_p31_k_down_right.jpg
756.265	0.702	1	learning	LS2	h22_p21_k_down_left.jpg
760.981	1.288	0	learning	LS2	h87_p9_k_up_left.jpg
765.713	0.849	1	learning	LS2	h12_p4_k_down_left.jpg
770.446	0.315	1	learning	LS2	h87_p9_k_up_left.jpg
775.179	0.861	1	learning	LS2	h109_p51_k_up_left.jpg
779.912	0.829	1	learning	LS2	h32_p31_k_down_right.jpg
784.644	0.128	1	learning	LS2	h22_p21_k_down_left.jpg
789.361	1.376	1	learning	LS2	h12_p4_k_down_left.jpg
798.593	1.406	1	learning	LS3	h32_p31_k_down_right.jpg
803.309	0.752	1	learning	LS3	h87_p9_k_up_left.jpg
808.025	0.538	1	learning	LS3	h22_p21_k_down_left.jpg
812.741	1.380	1	learning	LS3	h109_p51_k_up_left.jpg
817.457	1.502	1	learning	LS3	h32_p31_k_down_right.jpg
822.173	1.721	1	learning	LS3	h12_p4_k_down_left.jpg
826.856	1.132	1	learning	LS3	h87_p9_k_up_left.jpg
831.555	1.148	1	learning	LS3	h22_p21_k_down_left.jpg
836.271	0.464	1	learning	LS3	h109_p51_k_up_left.jpg
840.987	1.955	1	learning	LS3	h12_p4_k_down_left.jpg
850.186	0.394	1	learning	LS4	h12_p4_k_down_left.jpg
854.885	1.012	1	learning	LS4	h22_p21_k_down_left.jpg
859.585	1.391	1	learning	LS4	h109_p51_k_up_left.jpg
864.301	0.557	1	learning	LS4	h32_p31_k_down_right.jpg
869.017	1.628	1	learning	LS4	h87_p9_k_up_left.jpg
873.750	1.087	1	learning	LS4	h32_p31_k_down_right.jpg
878.499	0.636	1	learning	LS4	h87_p9_k_up_left.jpg
883.232	0.864	1	learning	LS4	h109_p51_k_up_left.jpg
887.948	0.951	1	learning	LS4	h12_p4_k_down_left.jpg
892.681	0.183	1	learning	LS4	h22_p21_k_down_left.jpg
920.027	0.809	0	learning	LS1	h83_p29_k_up_right.jpg
924.743	0.158	1	learning	LS1	h48_p41_k_down_right.jpg
929.476	2.426	0	learning	LS1	h53_p33_k_down_right.jpg
934.175	0.305	1	learning	LS1	h83_p29_k_up_right.jpg
938.891	1.230	1	learning	LS1	h48_p41_k_down_right.jpg
943.607	1.069	1	learning	LS1	h82_p21_k_up_right.jpg
948.307	0.252	0	learning	LS1	h11_p43_k_down_left.jpg
953.006	1.591	0	learning	LS1	h82_p21_k_up_right.jpg
957.706	0.416	1	learning	LS1	h53_p33_k_down_right.jpg
962.422	0.148	1	learning	LS1	h11_p43_k_down_left.jpg
971.620	0.445	1	learning	LS2	h53_p33_k_down_right.jpg
976.337	0.111	1	learning	LS2	h48_p41_k_down_right.jpg
981.036	0.043	1	learning	LS2	h11_p43_k_down_left.jpg
985.769	1.308	1	learning	LS2	h53_p33_k_down_right.jpg
990.518	1.649	1	learning	LS2	h48_p41_k_down_right.jpg
995.217	n/a	n/a	learning	LS2	n/a
999.950	0.205	1	learning	LS2	h82_p21_k_up_right.jpg
1004.683	0.020	1	learning	LS2	h11_p43_k_down_left.jpg
1009.399	1.085	1	learning	LS2	h83_p29_k_up_right.jpg
1014.115	0.818	1	learning	LS2	h82_p21_k_up_right.jpg
1023.347	0.782	1	learning	LS3	h83_p29_k_up_right.jpg
1028.063	0.698	1	learning	LS3	h11_p43_k_down_left.jpg
1032.796	0.247	1	learning	LS3	h53_p33_k_down_right.jpg
1037.495	1.579	1	learning	LS3	h48_p41_k_down_right.jpg
1042.211	0.778	1	learning	LS3	h11_p43_k_down_left.jpg
1046.911	0.260	1	learning	LS3	h53_p33_k_down_right.jpg
1051.610	1.291	1	learning	LS3	h82_p21_k_up_right.jpg
1056.326	1.592	1	learning	LS3	h48_p41_k_down_right.jpg
1061.042	0.922	1	learning	LS3	h82_p21_k_up_right.jpg
1065.742	0.888	1	learning	LS3	h83_p29_k_up_right.jpg
1074.940	1.786	1	learning	LS4	h48_p41_k_down_right.jpg
1079.640	1.634	1	learning	LS4	h11_p43_k_down_left.jpg
1084.323	0.683	1	learning	LS4	h82_p21_k_up_right.jpg
1089.022	1.300	1	learning	LS4	h83_p29_k_up_right.jpg
1093.722	1.197	1	learning	LS4	h53_p33_k_down_right.jpg
1098.438	1.673	1	learning	LS4	h82_p21_k_up_right.jpg
1103.170	0.859	1	learning	LS4	h83_p29_k_up_right.jpg
1107.886	1.010	1	learning	LS4	h11_p43_k_down_left.jpg
1112.602	0.176	1	learning	LS4	h53_p33_k_down_right.jpg
1117.318	0.721	1	learning	LS4	h48_p41_k_down_right.jpg
1144.548	n/a	n/a	control	LS1	n/a
1149.664	n/a	n/a	control	LS1	n/a
1154.780	1.513	0	control	LS1	h12_p12_i_down_left.jpg
1159.396	2.463	1	control	LS1	h12_p4_k_down_left.jpg
1164.012	1.845	1	control	LS1	h11_p2_i_down_right.jpg
1168.612	1.243	1	control	LS1	h33_p11_k_down_right.jpg
1173.211	0.979	1	control	LS1	h33_p15_i_down_left.jpg
1177.827	2.041	1	control	LS1	h87_p9_k_up_left.jpg
1182.427	1.440	1	control	LS1	h87_p10_i_up_left.jpg
1187.026	0.839	1	control	LS1	h32_p31_k_down_right.jpg
1196.142	n/a	n/a	control	LS2	n/a
1201.241	2.011	1	control	LS2	h33_p11_k_down_right.jpg
1205.874	2.001	1	control	LS2	h11_p43_k_down_left.jpg
1210.506	1.751	1	control	LS2	h87_p9_k_up_left.jpg
1215.139	1.564	1	control	LS2	h32_p13_i_down_left.jpg
1219.789	2.097	1	control	LS2	h33_p33_i_down_right.jpg
1224.421	1.463	1	control	LS2	h87_p34_i_up_right.jpg
1229.054	1.564	1	control	LS2	h11_p47_i_down_right.jpg
1233.687	2.194	1	control	LS2	h12_p4_k_down_left.jpg
1238.303	1.559	1	control	LS2	h32_p31_k_down_right.jpg
1247.435	2.423	1	control	LS3	h32_p10_i_down_right.jpg
1252.051	1.806	1	control	LS3	h12_p12_i_down_left.jpg
1256.667	n/a	n/a	control	LS3	n/a
1261.783	2.070	1	control	LS3	h11_p2_i_down_right.jpg
1266.399	1.468	1	control	LS3	h87_p10_i_up_left.jpg
1271.015	0.947	1	control	LS3	h32_p31_k_down_right.jpg
1275.615	2.249	1	control	LS3	h12_p4_k_down_left.jpg
1280.214	1.648	1	control	LS3	h11_p43_k_down_left.jpg
1284.814	1.351	1	control	LS3	h87_p9_k_up_left.jpg
1289.413	2.446	1	control	LS3	h33_p11_k_down_right.jpg
1298.528	1.615	1	control	LS4	h33_p11_k_down_right.jpg
1303.128	0.823	1	control	LS4	h87_p9_k_up_left.jpg
1307.727	2.141	1	control	LS4	h32_p31_k_down_right.jpg
1312.327	1.540	1	control	LS4	h87_p34_i_up_right.jpg
1316.926	1.499	0	control	LS4	h11_p43_k_down_left.jpg
1321.576	2.304	1	control	LS4	h32_p13_i_down_left.jpg
1326.208	1.670	1	control	LS4	h11_p47_i_down_right.jpg
1330.841	1.420	1	control	LS4	h12_p4_k_down_left.jpg
1335.474	2.401	1	control	LS4	h12_p37_i_down_left.jpg
1340.107	1.767	1	control	LS4	h33_p33_i_down_right.jpg
1367.436	1.393	1	learning	LS1	h108_p27_k_up_left.jpg
1372.152	0.725	1	learning	LS1	h46_p18_k_down_left.jpg
1376.869	1.027	1	learning	LS1	h107_p42_k_up_right.jpg
1381.584	1.039	1	learning	LS1	h18_p7_k_down_right.jpg
1386.301	0.222	0	learning	LS1	h107_p42_k_up_right.jpg
1391.017	2.009	0	learning	LS1	h35_p50_k_down_right.jpg
1395.716	0.835	1	learning	LS1	h108_p27_k_up_left.jpg
1400.415	1.871	1	learning	LS1	h18_p7_k_down_right.jpg
1405.115	1.665	1	learning	LS1	h46_p18_k_down_left.jpg
1409.814	0.282	0	learning	LS1	h35_p50_k_down_right.jpg
1419.013	1.570	1	learning	LS2	h35_p50_k_down_right.jpg
1423.713	0.745	1	learning	LS2	h18_p7_k_down_right.jpg
1428.395	1.864	1	learning	LS2	h35_p50_k_down_right.jpg
1433.128	1.243	1	learning	LS2	h46_p18_k_down_left.jpg
1437.877	0.541	1	learning	LS2	h107_p42_k_up_right.jpg
1442.610	0.440	1	learning	LS2	h46_p18_k_down_left.jpg
1447.309	n/a	n/a	learning	LS2	n/a
1452.025	0.788	1	learning	LS2	h108_p27_k_up_left.jpg
1456.742	0.004	1	learning	LS2	h18_p7_k_down_right.jpg
1461.458	1.502	1	learning	LS2	h108_p27_k_up_left.jpg
1470.690	0.067	1	learning	LS3	h18_p7_k_down_right.jpg
1475.406	1.549	1	learning	LS3	h108_p27_k_up_left.jpg
1480.122	0.431	1	learning	LS3	h35_p50_k_down_right.jpg
1484.838	2.153	0	learning	LS3	h108_p27_k_up_left.jpg
1489.554	0.628	1	learning	LS3	h46_p18_k_down_left.jpg
1494.253	0.627	1	learning	LS3	h35_p50_k_down_right.jpg
1498.936	2.105	1	learning	LS3	h107_p42_k_up_right.jpg
1503.636	1.191	1	learning	LS3	h18_p7_k_down_right.jpg
1508.352	0.690	1	learning	LS3	h107_p42_k_up_right.jpg
1513.051	1.033	1	learning	LS3	h46_p18_k_down_left.jpg
1522.283	0.737	1	learning	LS4	h35_p50_k_down_right.jpg
1526.966	0.921	1	learning	LS4	h107_p42_k_up_right.jpg
1531.665	1.167	1	learning	LS4	h18_p7_k_down_right.jpg
1536.348	0.600	1	learning	LS4	h35_p50_k_down_right.jpg
1541.031	0.899	1	learning	LS4	h108_p27_k_up_left.jpg
1545.797	0.797	1	learning	LS4	h46_p18_k_down_left.jpg
1550.530	0.280	1	learning	LS4	h108_p27_k_up_left.jpg
1555.279	0.952	1	learning	LS4	h107_p42_k_up_right.jpg
1559.995	1.010	1	learning	LS4	h18_p7_k_down_right.jpg
1564.728	0.025	1	learning	LS4	h46_p18_k_down_left.jpg
1592.074	0.934	1	learning	LS1	h29_p3_k_down_left.jpg
1596.790	0.334	1	learning	LS1	h85_p11_k_up_left.jpg
1601.506	1.282	0	learning	LS1	h111_p47_k_up_left.jpg
1606.222	0.381	1	learning	LS1	h29_p3_k_down_left.jpg
1610.922	n/a	n/a	learning	LS1	n/a
1615.638	0.895	0	learning	LS1	h28_p46_k_down_right.jpg
1620.354	1.642	1	learning	LS1	h111_p47_k_up_left.jpg
1625.053	0.925	1	learning	LS1	h98_p19_k_up_right.jpg
1629.753	0.808	1	learning	LS1	h28_p46_k_down_right.jpg
1634.452	0.174	1	learning	LS1	h85_p11_k_up_left.jpg
1643.668	0.921	1	learning	LS2	h29_p3_k_down_left.jpg
1648.350	1.587	1	learning	LS2	h28_p46_k_down_right.jpg
1653.033	1.031	1	learning	LS2	h111_p47_k_up_left.jpg
1657.782	1.017	1	learning	LS2	h85_p11_k_up_left.jpg
1662.515	1.818	1	learning	LS2	h98_p19_k_up_right.jpg
1667.248	1.052	1	learning	LS2	h29_p3_k_down_left.jpg
1671.981	0.764	1	learning	LS2	h98_p19_k_up_right.jpg
1676.730	1.838	1	learning	LS2	h28_p46_k_down_right.jpg
1681.463	1.195	1	learning	LS2	h85_p11_k_up_left.jpg
1686.195	1.713	1	learning	LS2	h111_p47_k_up_left.jpg
1695.428	1.174	1	learning	LS3	h85_p11_k_up_left.jpg
1700.144	0.406	1	learning	LS3	h98_p19_k_up_right.jpg
1704.860	1.233	1	learning	LS3	h85_p11_k_up_left.jpg
1709.576	1.537	1	learning	LS3	h98_p19_k_up_right.jpg
1714.292	0.370	1	learning	LS3	h29_p3_k_down_left.jpg
1719.008	0.119	1	learning	LS3	h111_p47_k_up_left.jpg
1723.724	0.784	1	learning	LS3	h28_p46_k_down_right.jpg
1728.440	0.400	1	learning	LS3	h111_p47_k_up_left.jpg
1733.123	1.583	1	learning	LS3	h29_p3_k_down_left.jpg
1737.839	1.080	1	learning	LS3	h28_p46_k_down_right.jpg
1747.038	1.679	1	learning	LS4	h85_p11_k_up_left.jpg
1751.754	0.776	1	learning	LS4	h111_p47_k_up_left.jpg
1756.453	1.572	0	learning	LS4	h29_p3_k_down_left.jpg
1761.152	0.903	1	learning	LS4	h28_p46_k_down_right.jpg
1765.852	0.940	1	learning	LS4	h98_p19_k_up_right.jpg
1770.585	0.339	1	learning	LS4	h85_p11_k_up_left.jpg
1775.301	1.006	1	learning	LS4	h98_p19_k_up_right.jpg
1780.017	0.803	1	learning	LS4	h28_p46_k_down_right.jpg
1784.733	1.218	1	learning	LS4	h29_p3_k_down_left.jpg
1789.466	0.950	1	learning	LS4	h111_p47_k_up_left.jpg
