onset	duration	response_time_ms	trial_type	learning_stage	stimulus	response_port
0.0	2.274	2274.0	generate	Run1	generate/STIM_000.jpg	100
4.375	1.441	1441.0	generate	Run1	generate/STIM_000.jpg	99
9.186	2.149	2148.9	generate	Run1	generate/STIM_000.jpg	100
14.96	1.691	1691.2	generate	Run1	generate/STIM_000.jpg	100
19.646	2.262	2261.9	generate	Run1	generate/STIM_000.jpg	100
24.652	2.381	2381.3	generate	Run1	generate/STIM_001.jpg	99
30.031	1.939	1939.0	generate	Run1	generate/STIM_001.jpg	99
35.298	2.54	2540.2	generate	Run1	generate/STIM_001.jpg	100
41.153	1.874	1873.6	generate	Run1	generate/STIM_001.jpg	100
45.578	1.939	1939.2	generate	Run1	generate/STIM_001.jpg	100
49.939	1.431	1431.3	generate	Run1	generate/STIM_002.jpg	99
54.596	2.807	2807.2	generate	Run1	generate/STIM_002.jpg	99
60.328	1.646	1645.9	generate	Run1	generate/STIM_002.jpg	100
65.837	1.457	1457.3	generate	Run1	generate/STIM_002.jpg	99
70.439	2.193	2193.4	generate	Run1	generate/STIM_002.jpg	100
75.604	2.267	2267.2	generate	Run1	generate/STIM_003.jpg	100
80.168	1.401	1400.7	generate	Run1	generate/STIM_003.jpg	100
84.3	1.92	1919.9	generate	Run1	generate/STIM_003.jpg	99
89.63	1.838	1837.7	generate	Run1	generate/STIM_003.jpg	100
93.952	1.646	1646.0	generate	Run1	generate/STIM_003.jpg	100
97.819	1.533	1533.4	generate	Run1	generate/STIM_004.jpg	99
101.311	2.379	2379.4	generate	Run1	generate/STIM_004.jpg	100
107.393	1.664	1664.5	generate	Run1	generate/STIM_004.jpg	99
112.352	1.811	1811.1	generate	Run1	generate/STIM_004.jpg	99
117.186	1.43	1429.7	generate	Run1	generate/STIM_004.jpg	99
121.819	1.318	1318.5	generate	Run1	generate/STIM_005.jpg	99
126.772	2.746	2745.7	generate	Run1	generate/STIM_005.jpg	99
132.694	1.285	1285.1	generate	Run1	generate/STIM_005.jpg	100
136.306	1.754	1753.5	generate	Run1	generate/STIM_005.jpg	100
140.938	2.025	2025.3	generate	Run1	generate/STIM_005.jpg	100
146.855	1.883	1882.6	generate	Run1	generate/STIM_006.jpg	100
151.026	2.117	2117.3	generate	Run1	generate/STIM_006.jpg	99
157.044	2.356	2355.9	generate	Run1	generate/STIM_006.jpg	99
161.833	2.075	2074.8	generate	Run1	generate/STIM_006.jpg	100
166.711	2.317	2316.8	generate	Run1	generate/STIM_006.jpg	100
172.482	2.893	2892.8	generate	Run1	generate/STIM_007.jpg	100
178.211	1.676	1676.4	generate	Run1	generate/STIM_007.jpg	99
183.677	1.636	1635.6	generate	Run1	generate/STIM_007.jpg	100
187.952	1.448	1447.6	generate	Run1	generate/STIM_007.jpg	99
192.472	1.238	1238.4	generate	Run1	generate/STIM_007.jpg	100
196.038	1.259	1259.2	generate	Run1	generate/STIM_008.jpg	100
199.37	2.888	2888.5	generate	Run1	generate/STIM_008.jpg	99
205.918	2.743	2743.4	generate	Run1	generate/STIM_008.jpg	100
211.201	2.604	2604.4	generate	Run1	generate/STIM_008.jpg	99
216.714	1.264	1264.3	generate	Run1	generate/STIM_008.jpg	100
220.679	2.164	2163.8	generate	Run1	generate/STIM_009.jpg	99
224.983	2.801	2800.7	generate	Run1	generate/STIM_009.jpg	100
230.952	1.845	1845.4	generate	Run1	generate/STIM_009.jpg	100
236.092	1.153	1152.9	generate	Run1	generate/STIM_009.jpg	99
240.816	1.733	1733.2	generate	Run1	generate/STIM_009.jpg	99
244.799	2.746	2745.8	generate	Run1	generate/STIM_010.jpg	100
249.479	1.254	1253.6	generate	Run1	generate/STIM_010.jpg	99
253.384	2.396	2395.9	generate	Run1	generate/STIM_010.jpg	100
258.656	1.962	1961.7	generate	Run1	generate/STIM_010.jpg	99
264.506	1.438	1438.2	generate	Run1	generate/STIM_010.jpg	100
268.65	1.835	1835.0	generate	Run1	generate/STIM_011.jpg	100
273.446	2.407	2406.8	generate	Run1	generate/STIM_011.jpg	100
279.601	1.194	1193.6	generate	Run1	generate/STIM_011.jpg	99
283.421	1.612	1612.5	generate	Run1	generate/STIM_011.jpg	99
288.678	1.581	1581.1	generate	Run1	generate/STIM_011.jpg	100
293.144	2.4	2399.9	generate	Run1	generate/STIM_012.jpg	99
298.542	2.846	2845.8	generate	Run1	generate/STIM_012.jpg	100
304.594	2.486	2486.2	generate	Run1	generate/STIM_012.jpg	100
309.218	2.007	2007.3	generate	Run1	generate/STIM_012.jpg	100
314.614	1.654	1654.0	generate	Run1	generate/STIM_012.jpg	100
320.114	1.399	1399.4	generate	Run1	generate/STIM_013.jpg	99
324.844	2.364	2364.3	generate	Run1	generate/STIM_013.jpg	100
329.996	1.203	1202.8	generate	Run1	generate/STIM_013.jpg	99
335.074	1.32	1319.8	generate	Run1	generate/STIM_013.jpg	100
338.699	1.965	1964.8	generate	Run1	generate/STIM_013.jpg	100
343.329	1.561	1561.3	generate	Run1	generate/STIM_014.jpg	99
348.51	1.469	1469.0	generate	Run1	generate/STIM_014.jpg	99
353.673	1.828	1828.2	generate	Run1	generate/STIM_014.jpg	99
357.614	1.277	1277.1	generate	Run1	generate/STIM_014.jpg	100
362.291	1.62	1620.0	generate	Run1	generate/STIM_014.jpg	99
366.888	2.049	2048.6	generate	Run1	generate/STIM_015.jpg	100
372.141	2.229	2228.7	generate	Run1	generate/STIM_015.jpg	100
378.048	1.341	1341.3	generate	Run1	generate/STIM_015.jpg	100
381.592	2.006	2005.8	generate	Run1	generate/STIM_015.jpg	100
387.456	1.734	1734.1	generate	Run1	generate/STIM_015.jpg	100
392.431	2.803	2802.8	generate	Run1	generate/STIM_016.jpg	99
398.483	2.813	2812.8	generate	Run1	generate/STIM_016.jpg	100
404.12	2.634	2634.1	generate	Run1	generate/STIM_016.jpg	99
408.805	2.459	2459.1	generate	Run1	generate/STIM_016.jpg	99
413.702	2.22	2219.5	generate	Run1	generate/STIM_016.jpg	99
418.818	2.08	2080.5	generate	Run1	generate/STIM_017.jpg	99
423.519	2.397	2396.9	generate	Run1	generate/STIM_017.jpg	99
429.678	2.206	2206.2	generate	Run1	generate/STIM_017.jpg	100
434.422	2.101	2101.0	generate	Run1	generate/STIM_017.jpg	99
440.309	1.488	1488.0	generate	Run1	generate/STIM_017.jpg	100
445.534	2.726	2725.5	generate	Run1	generate/STIM_018.jpg	99
450.854	2.33	2329.6	generate	Run1	generate/STIM_018.jpg	100
456.295	1.118	1118.3	generate	Run1	generate/STIM_018.jpg	100
461.318	2.353	2353.1	generate	Run1	generate/STIM_018.jpg	99
466.2	1.258	1257.8	generate	Run1	generate/STIM_018.jpg	99
470.62	1.298	1298.3	generate	Run1	generate/STIM_019.jpg	100
475.743	2.107	2107.3	generate	Run1	generate/STIM_019.jpg	99
480.722	2.242	2241.7	generate	Run1	generate/STIM_019.jpg	99
486.603	1.157	1156.8	generate	Run1	generate/STIM_019.jpg	99
489.74	1.948	1947.8	generate	Run1	generate/STIM_019.jpg	99
494.216	1.655	1654.6	generate	Run1	generate/STIM_020.jpg	100
499.02	2.715	2715.1	generate	Run1	generate/STIM_020.jpg	99
504.852	2.532	2531.7	generate	Run1	generate/STIM_020.jpg	100
509.661	1.693	1692.9	generate	Run1	generate/STIM_020.jpg	99
513.741	1.641	1640.9	generate	Run1	generate/STIM_020.jpg	100
519.056	3.064	3064.5	generate	Run1	generate/STIM_021.jpg	99
524.078	1.391	1391.0	generate	Run1	generate/STIM_021.jpg	99
529.188	1.319	1319.0	generate	Run1	generate/STIM_021.jpg	99
533.853	1.922	1922.3	generate	Run1	generate/STIM_021.jpg	99
539.306	2.213	2212.8	generate	Run1	generate/STIM_021.jpg	100
545.157	1.632	1632.1	generate	Run1	generate/STIM_022.jpg	100
550.112	1.474	1474.4	generate	Run1	generate/STIM_022.jpg	100
554.084	2.589	2589.1	generate	Run1	generate/STIM_022.jpg	99
559.524	1.198	1197.8	generate	Run1	generate/STIM_022.jpg	100
564.425	1.122	1122.3	generate	Run1	generate/STIM_022.jpg	100
569.251	1.892	1892.5	generate	Run1	generate/STIM_023.jpg	99
573.836	2.12	2119.6	generate	Run1	generate/STIM_023.jpg	99
578.996	2.628	2627.8	generate	Run1	generate/STIM_023.jpg	99
583.595	1.613	1613.0	generate	Run1	generate/STIM_023.jpg	99
587.845	1.699	1699.0	generate	Run1	generate/STIM_023.jpg	100
592.681	1.444	1444.5	generate	Run1	generate/STIM_024.jpg	99
597.2	2.57	2570.3	generate	Run1	generate/STIM_024.jpg	99
602.169	1.542	1541.6	generate	Run1	generate/STIM_024.jpg	99
605.789	1.734	1734.5	generate	Run1	generate/STIM_024.jpg	99
610.533	1.112	1112.5	generate	Run1	generate/STIM_024.jpg	100
613.661	0.732	731.8	repeat	Run1	repeat/STIM_000.jpg	100
617.58	0.828	827.5	repeat	Run1	repeat/STIM_000.jpg	99
621.795	0.574	574.1	repeat	Run1	repeat/STIM_000.jpg	99
624.862	0.574	574.3	repeat	Run1	repeat/STIM_000.jpg	100
628.937	0.543	542.7	repeat	Run1	repeat/STIM_000.jpg	99
633.289	0.668	667.6	repeat	Run1	repeat/STIM_001.jpg	99
636.431	0.93	930.1	repeat	Run1	repeat/STIM_001.jpg	99
639.834	0.659	659.0	repeat	Run1	repeat/STIM_001.jpg	99
643.27	0.629	628.9	repeat	Run1	repeat/STIM_001.jpg	99
646.412	0.675	674.9	repeat	Run1	repeat/STIM_001.jpg	99
650.825	0.883	883.0	repeat	Run1	repeat/STIM_002.jpg	100
653.724	0.854	854.3	repeat	Run1	repeat/STIM_002.jpg	100
657.128	0.9	899.5	repeat	Run1	repeat/STIM_002.jpg	99
661.32	0.937	937.4	repeat	Run1	repeat/STIM_002.jpg	100
665.296	1.008	1008.5	repeat	Run1	repeat/STIM_002.jpg	100
670.109	0.893	892.6	repeat	Run1	repeat/STIM_003.jpg	100
673.023	0.545	545.4	repeat	Run1	repeat/STIM_003.jpg	100
676.788	0.605	604.8	repeat	Run1	repeat/STIM_003.jpg	99
680.994	1.001	1001.3	repeat	Run1	repeat/STIM_003.jpg	100
685.713	0.627	626.6	repeat	Run1	repeat/STIM_003.jpg	100
688.501	0.574	573.9	repeat	Run1	repeat/STIM_004.jpg	100
691.181	0.884	883.9	repeat	Run1	repeat/STIM_004.jpg	100
695.61	0.605	604.9	repeat	Run1	repeat/STIM_004.jpg	100
698.806	0.93	930.3	repeat	Run1	repeat/STIM_004.jpg	100
703.622	0.674	674.4	repeat	Run1	repeat/STIM_004.jpg	100
707.292	0.9	899.8	repeat	Run1	repeat/STIM_005.jpg	100
712.164	0.556	556.4	repeat	Run1	repeat/STIM_005.jpg	99
715.261	0.748	747.6	repeat	Run1	repeat/STIM_005.jpg	100
719.885	0.766	765.6	repeat	Run1	repeat/STIM_005.jpg	99
722.784	0.92	919.5	repeat	Run1	repeat/STIM_005.jpg	100
726.536	0.766	766.0	repeat	Run1	repeat/STIM_006.jpg	99
729.589	0.672	671.5	repeat	Run1	repeat/STIM_006.jpg	100
733.805	0.791	791.4	repeat	Run1	repeat/STIM_006.jpg	100
736.926	0.628	628.0	repeat	Run1	repeat/STIM_006.jpg	99
740.338	0.564	563.6	repeat	Run1	repeat/STIM_006.jpg	99
744.814	0.628	627.5	repeat	Run1	repeat/STIM_007.jpg	99
748.741	0.629	628.6	repeat	Run1	repeat/STIM_007.jpg	99
752.045	0.9	899.8	repeat	Run1	repeat/STIM_007.jpg	99
756.338	0.909	908.7	repeat	Run1	repeat/STIM_007.jpg	99
759.631	0.576	576.4	repeat	Run1	repeat/STIM_007.jpg	100
762.221	0.733	732.8	repeat	Run1	repeat/STIM_008.jpg	100
765.624	0.868	868.5	repeat	Run1	repeat/STIM_008.jpg	99
769.545	0.861	860.8	repeat	Run1	repeat/STIM_008.jpg	100
773.211	0.691	691.2	repeat	Run1	repeat/STIM_008.jpg	100
777.096	0.921	920.7	repeat	Run1	repeat/STIM_008.jpg	99
780.757	0.743	743.1	repeat	Run1	repeat/STIM_009.jpg	100
784.947	0.806	805.6	repeat	Run1	repeat/STIM_009.jpg	100
788.126	0.793	792.8	repeat	Run1	repeat/STIM_009.jpg	100
792.382	0.714	713.7	repeat	Run1	repeat/STIM_009.jpg	99
796.508	0.799	799.1	repeat	Run1	repeat/STIM_009.jpg	100
800.315	1.002	1001.9	repeat	Run1	repeat/STIM_010.jpg	100
803.748	1.008	1008.1	repeat	Run1	repeat/STIM_010.jpg	99
807.492	0.55	550.5	repeat	Run1	repeat/STIM_010.jpg	100
810.835	0.526	525.5	repeat	Run1	repeat/STIM_010.jpg	99
814.533	0.882	882.2	repeat	Run1	repeat/STIM_010.jpg	99
818.794	0.777	777.2	repeat	Run1	repeat/STIM_011.jpg	99
821.791	0.971	971.0	repeat	Run1	repeat/STIM_011.jpg	99
825.06	0.633	633.0	repeat	Run1	repeat/STIM_011.jpg	100
829.459	0.627	626.6	repeat	Run1	repeat/STIM_011.jpg	100
833.76	0.778	778.3	repeat	Run1	repeat/STIM_011.jpg	100
837.256	0.802	801.6	repeat	Run1	repeat/STIM_012.jpg	100
841.433	0.793	792.7	repeat	Run1	repeat/STIM_012.jpg	100
844.647	0.882	881.5	repeat	Run1	repeat/STIM_012.jpg	99
848.451	0.753	753.0	repeat	Run1	repeat/STIM_012.jpg	100
851.54	0.809	809.3	repeat	Run1	repeat/STIM_012.jpg	99
854.915	0.998	997.6	repeat	Run1	repeat/STIM_013.jpg	100
858.797	0.839	838.6	repeat	Run1	repeat/STIM_013.jpg	99
863.071	0.978	977.8	repeat	Run1	repeat/STIM_013.jpg	100
867.189	0.976	976.3	repeat	Run1	repeat/STIM_013.jpg	100
870.197	0.954	954.3	repeat	Run1	repeat/STIM_013.jpg	100
874.318	1.016	1015.7	repeat	Run1	repeat/STIM_014.jpg	99
877.989	0.568	568.4	repeat	Run1	repeat/STIM_014.jpg	99
881.535	0.784	784.0	repeat	Run1	repeat/STIM_014.jpg	99
885.364	0.721	721.3	repeat	Run1	repeat/STIM_014.jpg	100
888.563	0.552	552.5	repeat	Run1	repeat/STIM_014.jpg	99
891.859	1.67	1670.5	generate	Run2	generate/STIM_000.jpg	99
896.281	2.212	2212.3	generate	Run2	generate/STIM_000.jpg	100
900.998	2.206	2206.0	generate	Run2	generate/STIM_000.jpg	99
906.812	1.526	1526.4	generate	Run2	generate/STIM_000.jpg	100
911.06	0.961	961.0	generate	Run2	generate/STIM_000.jpg	100
914.744	1.219	1219.2	generate	Run2	generate/STIM_001.jpg	100
919.104	2.198	2198.2	generate	Run2	generate/STIM_001.jpg	99
923.65	1.828	1828.4	generate	Run2	generate/STIM_001.jpg	100
928.639	1.33	1329.8	generate	Run2	generate/STIM_001.jpg	99
933.661	2.08	2080.1	generate	Run2	generate/STIM_001.jpg	100
939.327	2.194	2194.4	generate	Run2	generate/STIM_002.jpg	99
943.735	1.479	1478.7	generate	Run2	generate/STIM_002.jpg	100
947.4	1.12	1119.8	generate	Run2	generate/STIM_002.jpg	99
951.555	1.846	1846.4	generate	Run2	generate/STIM_002.jpg	99
956.382	1.485	1485.3	generate	Run2	generate/STIM_002.jpg	99
961.251	1.108	1108.2	generate	Run2	generate/STIM_003.jpg	100
964.771	2.142	2141.8	generate	Run2	generate/STIM_003.jpg	99
969.634	1.127	1127.2	generate	Run2	generate/STIM_003.jpg	99
973.125	1.104	1104.5	generate	Run2	generate/STIM_003.jpg	100
977.651	1.92	1920.3	generate	Run2	generate/STIM_003.jpg	99
983.357	2.293	2293.4	generate	Run2	generate/STIM_004.jpg	100
988.129	1.857	1857.4	generate	Run2	generate/STIM_004.jpg	99
993.139	2.01	2010.0	generate	Run2	generate/STIM_004.jpg	100
998.849	2.069	2069.1	generate	Run2	generate/STIM_004.jpg	99
1003.756	1.96	1959.5	generate	Run2	generate/STIM_004.jpg	99
1008.639	2.263	2262.8	generate	Run2	generate/STIM_005.jpg	100
1013.899	1.282	1282.1	generate	Run2	generate/STIM_005.jpg	99
1017.24	1.577	1577.2	generate	Run2	generate/STIM_005.jpg	100
1022.338	2.098	2097.8	generate	Run2	generate/STIM_005.jpg	99
1026.51	0.915	914.9	generate	Run2	generate/STIM_005.jpg	100
1031.38	1.701	1701.4	generate	Run2	generate/STIM_006.jpg	100
1035.417	1.509	1509.4	generate	Run2	generate/STIM_006.jpg	100
1039.942	1.203	1202.6	generate	Run2	generate/STIM_006.jpg	100
1043.752	1.997	1996.6	generate	Run2	generate/STIM_006.jpg	100
1048.325	1.55	1549.6	generate	Run2	generate/STIM_006.jpg	99
1053.573	1.737	1736.7	generate	Run2	generate/STIM_007.jpg	100
1057.893	1.013	1012.9	generate	Run2	generate/STIM_007.jpg	99
1061.633	2.04	2039.7	generate	Run2	generate/STIM_007.jpg	99
1067.057	1.165	1165.4	generate	Run2	generate/STIM_007.jpg	100
1070.855	1.408	1407.5	generate	Run2	generate/STIM_007.jpg	99
1074.65	1.716	1716.4	generate	Run2	generate/STIM_008.jpg	99
1079.255	2.279	2279.0	generate	Run2	generate/STIM_008.jpg	99
1084.235	1.267	1266.6	generate	Run2	generate/STIM_008.jpg	100
1088.703	1.549	1549.2	generate	Run2	generate/STIM_008.jpg	99
1093.179	2.132	2132.3	generate	Run2	generate/STIM_008.jpg	99
1097.68	1.812	1812.3	generate	Run2	generate/STIM_009.jpg	100
1102.625	2.27	2270.1	generate	Run2	generate/STIM_009.jpg	100
1107.386	1.674	1673.9	generate	Run2	generate/STIM_009.jpg	100
1112.889	1.749	1748.6	generate	Run2	generate/STIM_009.jpg	100
1118.469	1.148	1148.5	generate	Run2	generate/STIM_009.jpg	100
1123.471	1.308	1308.5	generate	Run2	generate/STIM_010.jpg	99
1128.148	1.273	1273.0	generate	Run2	generate/STIM_010.jpg	100
1133.121	1.09	1089.5	generate	Run2	generate/STIM_010.jpg	100
1136.986	1.337	1336.7	generate	Run2	generate/STIM_010.jpg	100
1141.046	2.041	2041.2	generate	Run2	generate/STIM_010.jpg	100
1145.89	1.936	1935.6	generate	Run2	generate/STIM_011.jpg	100
1150.459	1.658	1658.2	generate	Run2	generate/STIM_011.jpg	99
1154.552	1.849	1849.1	generate	Run2	generate/STIM_011.jpg	99
1158.424	2.105	2105.0	generate	Run2	generate/STIM_011.jpg	99
1163.671	1.293	1293.0	generate	Run2	generate/STIM_011.jpg	100
1168.626	1.108	1107.9	generate	Run2	generate/STIM_012.jpg	99
1173.373	1.992	1992.3	generate	Run2	generate/STIM_012.jpg	100
1177.904	2.037	2036.6	generate	Run2	generate/STIM_012.jpg	100
1182.035	1.844	1844.0	generate	Run2	generate/STIM_012.jpg	100
1186.43	2.019	2019.2	generate	Run2	generate/STIM_012.jpg	99
1192.18	1.084	1084.3	generate	Run2	generate/STIM_013.jpg	100
1195.549	2.082	2081.8	generate	Run2	generate/STIM_013.jpg	99
1201.52	1.113	1112.9	generate	Run2	generate/STIM_013.jpg	99
1205.795	1.497	1497.2	generate	Run2	generate/STIM_013.jpg	99
1209.844	0.937	937.1	generate	Run2	generate/STIM_013.jpg	99
1214.36	1.12	1120.0	generate	Run2	generate/STIM_014.jpg	100
1219.233	2.176	2175.7	generate	Run2	generate/STIM_014.jpg	100
1224.003	2.309	2309.2	generate	Run2	generate/STIM_014.jpg	100
1228.397	0.873	873.4	generate	Run2	generate/STIM_014.jpg	99
1232.781	1.002	1002.4	generate	Run2	generate/STIM_014.jpg	100
1237.192	1.94	1940.1	generate	Run2	generate/STIM_015.jpg	100
1241.727	1.097	1097.1	generate	Run2	generate/STIM_015.jpg	100
1245.242	1.314	1313.6	generate	Run2	generate/STIM_015.jpg	99
1248.756	1.135	1135.3	generate	Run2	generate/STIM_015.jpg	100
1253.227	1.08	1080.2	generate	Run2	generate/STIM_015.jpg	99
1257.487	1.955	1954.8	generate	Run2	generate/STIM_016.jpg	99
1261.428	1.642	1641.5	generate	Run2	generate/STIM_016.jpg	100
1266.632	1.582	1582.3	generate	Run2	generate/STIM_016.jpg	99
1270.36	1.597	1596.8	generate	Run2	generate/STIM_016.jpg	100
1274.656	1.314	1314.5	generate	Run2	generate/STIM_016.jpg	100
1279.583	2.268	2267.7	generate	Run2	generate/STIM_017.jpg	99
1285.392	2.324	2323.9	generate	Run2	generate/STIM_017.jpg	99
1290.989	2.248	2248.4	generate	Run2	generate/STIM_017.jpg	100
1297.132	1.495	1494.8	generate	Run2	generate/STIM_017.jpg	99
1300.93	1.58	1580.2	generate	Run2	generate/STIM_017.jpg	99
1306.313	2.454	2454.3	generate	Run2	generate/STIM_018.jpg	99
1312.667	1.343	1343.2	generate	Run2	generate/STIM_018.jpg	100
1317.901	1.06	1060.2	generate	Run2	generate/STIM_018.jpg	100
1322.531	1.275	1275.1	generate	Run2	generate/STIM_018.jpg	99
1326.449	1.623	1622.9	generate	Run2	generate/STIM_018.jpg	99
1331.813	2.367	2366.7	generate	Run2	generate/STIM_019.jpg	99
1337.575	1.34	1339.8	generate	Run2	generate/STIM_019.jpg	100
1342.254	1.307	1306.7	generate	Run2	generate/STIM_019.jpg	99
1346.196	1.941	1940.9	generate	Run2	generate/STIM_019.jpg	99
1350.703	1.728	1727.7	generate	Run2	generate/STIM_019.jpg	100
1355.032	2.313	2313.3	generate	Run2	generate/STIM_020.jpg	99
1360.047	1.989	1988.6	generate	Run2	generate/STIM_020.jpg	99
1365.267	1.4	1400.5	generate	Run2	generate/STIM_020.jpg	99
1369.397	2.096	2096.2	generate	Run2	generate/STIM_020.jpg	99
1374.035	0.967	967.1	generate	Run2	generate/STIM_020.jpg	100
1377.288	2.085	2085.1	generate	Run2	generate/STIM_021.jpg	100
1383.157	1.095	1094.8	generate	Run2	generate/STIM_021.jpg	100
1386.284	2.042	2041.7	generate	Run2	generate/STIM_021.jpg	100
1391.686	1.14	1140.1	generate	Run2	generate/STIM_021.jpg	100
1396.262	1.934	1933.7	generate	Run2	generate/STIM_021.jpg	100
1401.658	2.382	2382.1	generate	Run2	generate/STIM_022.jpg	100
1406.488	1.244	1243.8	generate	Run2	generate/STIM_022.jpg	99
1410.55	1.086	1085.7	generate	Run2	generate/STIM_022.jpg	100
1414.084	1.872	1872.1	generate	Run2	generate/STIM_022.jpg	100
1419.02	0.883	883.3	generate	Run2	generate/STIM_022.jpg	100
1422.246	1.345	1345.0	generate	Run2	generate/STIM_023.jpg	99
1426.07	1.647	1647.2	generate	Run2	generate/STIM_023.jpg	100
1430.645	2.211	2210.8	generate	Run2	generate/STIM_023.jpg	100
1436.755	2.108	2108.1	generate	Run2	generate/STIM_023.jpg	99
1440.827	0.877	877.4	generate	Run2	generate/STIM_023.jpg	100
1444.645	1.662	1662.0	generate	Run2	generate/STIM_024.jpg	99
1450.152	2.368	2367.7	generate	Run2	generate/STIM_024.jpg	99
1456.314	1.061	1061.0	generate	Run2	generate/STIM_024.jpg	100
1461.288	1.681	1681.0	generate	Run2	generate/STIM_024.jpg	99
1466.305	1.333	1332.7	generate	Run2	generate/STIM_024.jpg	100
1471.108	0.84	839.5	repeat	Run2	repeat/STIM_000.jpg	100
1474.982	0.6	600.1	repeat	Run2	repeat/STIM_000.jpg	100
1479.302	0.799	799.3	repeat	Run2	repeat/STIM_000.jpg	100
1483.276	0.628	628.0	repeat	Run2	repeat/STIM_000.jpg	99
1487.038	0.632	632.4	repeat	Run2	repeat/STIM_000.jpg	100
1489.716	0.981	981.3	repeat	Run2	repeat/STIM_001.jpg	99
1493.368	0.63	630.2	repeat	Run2	repeat/STIM_001.jpg	100
1496.711	0.682	681.6	repeat	Run2	repeat/STIM_001.jpg	100
1499.986	0.663	662.9	repeat	Run2	repeat/STIM_001.jpg	99
1504.34	0.672	671.9	repeat	Run2	repeat/STIM_001.jpg	99
1508.52	0.558	557.8	repeat	Run2	repeat/STIM_002.jpg	100
1512.91	0.689	688.8	repeat	Run2	repeat/STIM_002.jpg	100
1516.708	0.942	942.2	repeat	Run2	repeat/STIM_002.jpg	99
1520.021	0.705	704.7	repeat	Run2	repeat/STIM_002.jpg	100
1523.064	1.014	1014.4	repeat	Run2	repeat/STIM_002.jpg	100
1527.267	0.614	613.8	repeat	Run2	repeat/STIM_003.jpg	100
1531.124	0.724	723.5	repeat	Run2	repeat/STIM_003.jpg	99
1535.442	0.725	725.0	repeat	Run2	repeat/STIM_003.jpg	100
1539.91	0.532	532.1	repeat	Run2	repeat/STIM_003.jpg	100
1543.619	0.819	818.8	repeat	Run2	repeat/STIM_003.jpg	99
1548.297	0.744	744.3	repeat	Run2	repeat/STIM_004.jpg	100
1552.265	1.022	1022.1	repeat	Run2	repeat/STIM_004.jpg	100
1556.468	0.568	568.4	repeat	Run2	repeat/STIM_004.jpg	99
1559.951	0.552	552.5	repeat	Run2	repeat/STIM_004.jpg	100
1562.796	1.007	1007.2	repeat	Run2	repeat/STIM_004.jpg	100
1567.063	0.554	554.5	repeat	Run2	repeat/STIM_005.jpg	99
1570.005	0.557	557.2	repeat	Run2	repeat/STIM_005.jpg	100
1572.952	0.53	529.7	repeat	Run2	repeat/STIM_005.jpg	100
1577.272	0.906	905.5	repeat	Run2	repeat/STIM_005.jpg	100
1581.236	0.519	518.6	repeat	Run2	repeat/STIM_005.jpg	99
1583.981	0.528	528.3	repeat	Run2	repeat/STIM_006.jpg	99
1587.9	0.787	786.9	repeat	Run2	repeat/STIM_006.jpg	99
1591.986	0.708	707.5	repeat	Run2	repeat/STIM_006.jpg	99
1596.579	0.697	697.3	repeat	Run2	repeat/STIM_006.jpg	100
1599.466	0.798	797.7	repeat	Run2	repeat/STIM_006.jpg	99
1602.979	0.655	655.3	repeat	Run2	repeat/STIM_007.jpg	100
1606.339	0.724	724.0	repeat	Run2	repeat/STIM_007.jpg	99
1609.829	0.782	781.6	repeat	Run2	repeat/STIM_007.jpg	100
1613.687	0.6	600.5	repeat	Run2	repeat/STIM_007.jpg	99
1617.612	0.567	567.1	repeat	Run2	repeat/STIM_007.jpg	100
1622.155	0.784	783.8	repeat	Run2	repeat/STIM_008.jpg	99
1625.342	0.56	560.2	repeat	Run2	repeat/STIM_008.jpg	99
1628.902	0.562	561.5	repeat	Run2	repeat/STIM_008.jpg	99
1632.447	0.81	809.9	repeat	Run2	repeat/STIM_008.jpg	99
1635.769	1.004	1004.4	repeat	Run2	repeat/STIM_008.jpg	100
1639.144	0.611	610.6	repeat	Run2	repeat/STIM_009.jpg	100
1643.332	0.775	774.9	repeat	Run2	repeat/STIM_009.jpg	100
1647.698	0.986	986.2	repeat	Run2	repeat/STIM_009.jpg	100
1651.119	0.687	686.8	repeat	Run2	repeat/STIM_009.jpg	99
1653.916	0.561	561.0	repeat	Run2	repeat/STIM_009.jpg	99
1656.692	0.603	602.8	repeat	Run2	repeat/STIM_010.jpg	99
1660.093	0.913	913.0	repeat	Run2	repeat/STIM_010.jpg	100
1663.689	0.901	900.8	repeat	Run2	repeat/STIM_010.jpg	100
1667.133	0.694	694.5	repeat	Run2	repeat/STIM_010.jpg	99
1671.002	0.736	735.9	repeat	Run2	repeat/STIM_010.jpg	100
1675.339	0.805	804.9	repeat	Run2	repeat/STIM_011.jpg	99
1679.968	0.569	568.9	repeat	Run2	repeat/STIM_011.jpg	99
1684.169	0.724	723.9	repeat	Run2	repeat/STIM_011.jpg	99
1687.328	0.868	868.1	repeat	Run2	repeat/STIM_011.jpg	99
1691.996	0.851	850.7	repeat	Run2	repeat/STIM_011.jpg	100
1695.133	0.575	574.6	repeat	Run2	repeat/STIM_012.jpg	100
1698.301	0.544	543.5	repeat	Run2	repeat/STIM_012.jpg	99
1702.069	0.582	582.4	repeat	Run2	repeat/STIM_012.jpg	100
1705.349	0.604	603.9	repeat	Run2	repeat/STIM_012.jpg	100
1709.471	1.002	1002.1	repeat	Run2	repeat/STIM_012.jpg	100
1714.121	0.518	518.2	repeat	Run2	repeat/STIM_013.jpg	99
1717.424	0.659	658.9	repeat	Run2	repeat/STIM_013.jpg	99
1721.324	0.791	791.1	repeat	Run2	repeat/STIM_013.jpg	99
1724.624	0.76	759.8	repeat	Run2	repeat/STIM_013.jpg	100
1727.858	0.937	937.2	repeat	Run2	repeat/STIM_013.jpg	99
1731.776	0.593	592.9	repeat	Run2	repeat/STIM_014.jpg	99
1734.563	0.656	656.0	repeat	Run2	repeat/STIM_014.jpg	100
1739.073	0.81	809.6	repeat	Run2	repeat/STIM_014.jpg	99
1742.309	0.994	993.8	repeat	Run2	repeat/STIM_014.jpg	100
1746.841	0.637	636.7	repeat	Run2	repeat/STIM_014.jpg	100
1749.965	1.484	1484.3	generate	Run3	generate/STIM_000.jpg	100
1754.035	1.76	1759.5	generate	Run3	generate/STIM_000.jpg	99
1759.717	1.388	1387.6	generate	Run3	generate/STIM_000.jpg	100
1764.653	1.225	1224.6	generate	Run3	generate/STIM_000.jpg	99
1768.254	1.501	1501.3	generate	Run3	generate/STIM_000.jpg	100
1773.061	1.889	1888.6	generate	Run3	generate/STIM_001.jpg	100
1778.714	1.384	1383.8	generate	Run3	generate/STIM_001.jpg	99
1782.736	1.946	1945.6	generate	Run3	generate/STIM_001.jpg	100
1787.544	1.217	1217.2	generate	Run3	generate/STIM_001.jpg	99
1791.392	2.004	2004.1	generate	Run3	generate/STIM_001.jpg	100
1796.905	2.091	2091.4	generate	Run3	generate/STIM_002.jpg	100
1801.954	1.155	1155.0	generate	Run3	generate/STIM_002.jpg	100
1806.563	2.078	2077.6	generate	Run3	generate/STIM_002.jpg	99
1811.038	1.374	1374.1	generate	Run3	generate/STIM_002.jpg	99
1814.649	1.183	1182.7	generate	Run3	generate/STIM_002.jpg	100
1819.142	1.131	1130.6	generate	Run3	generate/STIM_003.jpg	100
1822.84	1.313	1313.4	generate	Run3	generate/STIM_003.jpg	100
1826.437	1.43	1430.0	generate	Run3	generate/STIM_003.jpg	99
1831.429	1.538	1537.6	generate	Run3	generate/STIM_003.jpg	100
1836.177	1.815	1815.0	generate	Run3	generate/STIM_003.jpg	99
1840.545	1.118	1118.0	generate	Run3	generate/STIM_004.jpg	100
1843.889	1.182	1181.7	generate	Run3	generate/STIM_004.jpg	99
1847.331	1.843	1843.4	generate	Run3	generate/STIM_004.jpg	100
1852.372	1.063	1063.3	generate	Run3	generate/STIM_004.jpg	99
1855.445	1.072	1072.3	generate	Run3	generate/STIM_004.jpg	99
1859.456	2.139	2139.2	generate	Run3	generate/STIM_005.jpg	99
1865.409	1.954	1954.3	generate	Run3	generate/STIM_005.jpg	100
1870.06	1.145	1145.2	generate	Run3	generate/STIM_005.jpg	99
1873.37	1.801	1801.3	generate	Run3	generate/STIM_005.jpg	99
1877.236	1.305	1305.2	generate	Run3	generate/STIM_005.jpg	100
1881.418	0.983	982.9	generate	Run3	generate/STIM_006.jpg	99
1885.942	2.015	2014.7	generate	Run3	generate/STIM_006.jpg	100
1889.913	1.096	1095.9	generate	Run3	generate/STIM_006.jpg	100
1894.368	1.45	1449.5	generate	Run3	generate/STIM_006.jpg	100
1898.327	1.476	1476.5	generate	Run3	generate/STIM_006.jpg	99
1903.2	0.993	992.8	generate	Run3	generate/STIM_007.jpg	99
1906.868	1.945	1945.2	generate	Run3	generate/STIM_007.jpg	100
1912.684	1.854	1853.5	generate	Run3	generate/STIM_007.jpg	100
1917.469	0.907	906.7	generate	Run3	generate/STIM_007.jpg	100
1920.456	1.329	1329.4	generate	Run3	generate/STIM_007.jpg	99
1924.787	1.062	1061.7	generate	Run3	generate/STIM_008.jpg	100
1927.927	1.263	1263.1	generate	Run3	generate/STIM_008.jpg	99
1931.796	1.276	1276.0	generate	Run3	generate/STIM_008.jpg	99
1936.131	1.761	1761.4	generate	Run3	generate/STIM_008.jpg	100
1940.628	1.939	1939.0	generate	Run3	generate/STIM_008.jpg	100
1945.715	1.172	1172.4	generate	Run3	generate/STIM_009.jpg	99
1949.269	1.717	1716.9	generate	Run3	generate/STIM_009.jpg	99
1954.879	2.069	2069.4	generate	Run3	generate/STIM_009.jpg	99
1958.914	0.944	943.7	generate	Run3	generate/STIM_009.jpg	100
1962.352	1.036	1035.8	generate	Run3	generate/STIM_009.jpg	99
1966.848	1.438	1437.8	generate	Run3	generate/STIM_010.jpg	99
1970.525	1.803	1802.8	generate	Run3	generate/STIM_010.jpg	99
1975.626	1.681	1681.4	generate	Run3	generate/STIM_010.jpg	99
1981.074	1.504	1504.0	generate	Run3	generate/STIM_010.jpg	99
1986.345	1.599	1599.0	generate	Run3	generate/STIM_010.jpg	99
1990.86	1.124	1124.3	generate	Run3	generate/STIM_011.jpg	100
1994.235	1.988	1988.0	generate	Run3	generate/STIM_011.jpg	99
1998.851	1.434	1433.7	generate	Run3	generate/STIM_011.jpg	100
2004.204	1.085	1084.8	generate	Run3	generate/STIM_011.jpg	99
2008.527	1.889	1889.4	generate	Run3	generate/STIM_011.jpg	100
2013.032	1.467	1467.3	generate	Run3	generate/STIM_012.jpg	99
2018.136	1.373	1372.8	generate	Run3	generate/STIM_012.jpg	100
2023.037	1.785	1784.6	generate	Run3	generate/STIM_012.jpg	99
2027.524	1.886	1886.5	generate	Run3	generate/STIM_012.jpg	99
2031.867	1.775	1774.7	generate	Run3	generate/STIM_012.jpg	100
2036.151	2.028	2028.3	generate	Run3	generate/STIM_013.jpg	100
2040.829	1.13	1129.7	generate	Run3	generate/STIM_013.jpg	99
2045.401	1.785	1785.0	generate	Run3	generate/STIM_013.jpg	100
2050.386	1.409	1409.3	generate	Run3	generate/STIM_013.jpg	100
2054.265	2.041	2041.0	generate	Run3	generate/STIM_013.jpg	100
2059.526	0.877	877.4	generate	Run3	generate/STIM_014.jpg	100
2063.65	1.648	1648.3	generate	Run3	generate/STIM_014.jpg	100
2067.899	1.401	1401.4	generate	Run3	generate/STIM_014.jpg	99
2072.852	0.979	978.9	generate	Run3	generate/STIM_014.jpg	99
2077.475	1.337	1336.9	generate	Run3	generate/STIM_014.jpg	99
2081.194	1.629	1629.3	generate	Run3	generate/STIM_015.jpg	99
2085.192	2.123	2123.3	generate	Run3	generate/STIM_015.jpg	99
2089.857	1.568	1568.3	generate	Run3	generate/STIM_015.jpg	100
2093.935	1.937	1937.4	generate	Run3	generate/STIM_015.jpg	99
2098.901	1.988	1988.5	generate	Run3	generate/STIM_015.jpg	99
2104.385	1.057	1057.4	generate	Run3	generate/STIM_016.jpg	99
2109.115	0.982	981.7	generate	Run3	generate/STIM_016.jpg	100
2113.85	1.372	1371.5	generate	Run3	generate/STIM_016.jpg	99
2119.074	1.318	1318.3	generate	Run3	generate/STIM_016.jpg	99
2123.557	1.869	1868.9	generate	Run3	generate/STIM_016.jpg	99
2128.545	1.199	1198.7	generate	Run3	generate/STIM_017.jpg	100
2131.752	1.568	1568.2	generate	Run3	generate/STIM_017.jpg	99
2136.195	2.106	2105.8	generate	Run3	generate/STIM_017.jpg	99
2142.195	1.183	1183.4	generate	Run3	generate/STIM_017.jpg	100
2147.072	0.904	903.8	generate	Run3	generate/STIM_017.jpg	99
2150.944	1.923	1922.6	generate	Run3	generate/STIM_018.jpg	100
2156.229	1.856	1855.5	generate	Run3	generate/STIM_018.jpg	99
2161.478	1.463	1462.7	generate	Run3	generate/STIM_018.jpg	99
2166.865	2.138	2137.9	generate	Run3	generate/STIM_018.jpg	99
2172.844	1.534	1534.3	generate	Run3	generate/STIM_018.jpg	100
2177.786	1.144	1143.6	generate	Run3	generate/STIM_019.jpg	99
2181.964	1.909	1908.9	generate	Run3	generate/STIM_019.jpg	99
2187.807	0.881	881.2	generate	Run3	generate/STIM_019.jpg	100
2192.431	1.045	1044.9	generate	Run3	generate/STIM_019.jpg	99
2195.852	1.926	1926.3	generate	Run3	generate/STIM_019.jpg	99
2201.314	1.369	1369.1	generate	Run3	generate/STIM_020.jpg	99
2206.462	1.709	1709.1	generate	Run3	generate/STIM_020.jpg	99
2212.053	1.31	1309.9	generate	Run3	generate/STIM_020.jpg	100
2216.469	0.919	919.0	generate	Run3	generate/STIM_020.jpg	99
2220.145	1.501	1501.4	generate	Run3	generate/STIM_020.jpg	99
2225.162	0.974	974.0	generate	Run3	generate/STIM_021.jpg	100
2228.966	1.61	1610.3	generate	Run3	generate/STIM_021.jpg	99
2233.228	1.118	1118.0	generate	Run3	generate/STIM_021.jpg	99
2237.137	1.434	1433.6	generate	Run3	generate/STIM_021.jpg	99
2241.488	1.806	1805.9	generate	Run3	generate/STIM_021.jpg	99
2246.535	1.662	1662.2	generate	Run3	generate/STIM_022.jpg	100
2251.298	1.246	1246.1	generate	Run3	generate/STIM_022.jpg	100
2256.025	1.178	1178.4	generate	Run3	generate/STIM_022.jpg	100
2259.217	1.849	1848.6	generate	Run3	generate/STIM_022.jpg	100
2264.426	1.091	1091.4	generate	Run3	generate/STIM_022.jpg	100
2269.215	1.353	1353.4	generate	Run3	generate/STIM_023.jpg	100
2273.999	1.291	1291.3	generate	Run3	generate/STIM_023.jpg	99
2277.733	1.672	1672.5	generate	Run3	generate/STIM_023.jpg	99
2283.245	1.54	1540.3	generate	Run3	generate/STIM_023.jpg	99
2288.682	0.977	977.4	generate	Run3	generate/STIM_023.jpg	99
2292.581	0.918	918.2	generate	Run3	generate/STIM_024.jpg	100
2296.574	1.892	1892.3	generate	Run3	generate/STIM_024.jpg	100
2300.672	1.861	1860.8	generate	Run3	generate/STIM_024.jpg	99
2304.753	0.989	988.6	generate	Run3	generate/STIM_024.jpg	100
2308.552	1.666	1666.3	generate	Run3	generate/STIM_024.jpg	99
2312.281	0.616	616.0	repeat	Run3	repeat/STIM_000.jpg	100
2315.885	0.91	909.7	repeat	Run3	repeat/STIM_000.jpg	100
2319.876	0.686	686.1	repeat	Run3	repeat/STIM_000.jpg	100
2323.51	0.984	984.0	repeat	Run3	repeat/STIM_000.jpg	99
2327.182	0.834	834.1	repeat	Run3	repeat/STIM_000.jpg	99
2331.695	0.61	609.9	repeat	Run3	repeat/STIM_001.jpg	100
2335.522	0.737	736.9	repeat	Run3	repeat/STIM_001.jpg	100
2340.103	0.666	665.8	repeat	Run3	repeat/STIM_001.jpg	99
2343.513	0.818	818.0	repeat	Run3	repeat/STIM_001.jpg	99
2346.413	0.659	658.7	repeat	Run3	repeat/STIM_001.jpg	100
2350.323	0.556	556.4	repeat	Run3	repeat/STIM_002.jpg	99
2354.377	0.614	614.1	repeat	Run3	repeat/STIM_002.jpg	99
2357.091	0.602	602.3	repeat	Run3	repeat/STIM_002.jpg	99
2360.733	0.567	567.4	repeat	Run3	repeat/STIM_002.jpg	99
2364.006	0.854	854.0	repeat	Run3	repeat/STIM_002.jpg	100
2368.244	0.811	810.7	repeat	Run3	repeat/STIM_003.jpg	100
2372.237	0.788	788.1	repeat	Run3	repeat/STIM_003.jpg	99
2375.907	0.788	788.4	repeat	Run3	repeat/STIM_003.jpg	100
2380.119	0.596	596.5	repeat	Run3	repeat/STIM_003.jpg	99
2384.573	0.521	521.0	repeat	Run3	repeat/STIM_003.jpg	99
2387.69	0.874	873.6	repeat	Run3	repeat/STIM_004.jpg	100
2390.806	0.846	846.0	repeat	Run3	repeat/STIM_004.jpg	99
2395.506	0.943	943.0	repeat	Run3	repeat/STIM_004.jpg	99
2399.647	0.547	547.1	repeat	Run3	repeat/STIM_004.jpg	99
2402.61	0.844	843.9	repeat	Run3	repeat/STIM_004.jpg	100
2406.528	0.752	751.9	repeat	Run3	repeat/STIM_005.jpg	99
2410.528	0.748	747.8	repeat	Run3	repeat/STIM_005.jpg	100
2414.325	0.786	785.6	repeat	Run3	repeat/STIM_005.jpg	99
2417.937	0.552	552.4	repeat	Run3	repeat/STIM_005.jpg	100
2420.495	0.607	607.2	repeat	Run3	repeat/STIM_005.jpg	99
2424.178	1.008	1007.5	repeat	Run3	repeat/STIM_006.jpg	100
2427.59	1.011	1010.7	repeat	Run3	repeat/STIM_006.jpg	99
2432.37	0.515	515.3	repeat	Run3	repeat/STIM_006.jpg	99
2436.26	0.516	516.2	repeat	Run3	repeat/STIM_006.jpg	99
2440.34	0.952	951.8	repeat	Run3	repeat/STIM_006.jpg	99
2443.839	0.675	675.0	repeat	Run3	repeat/STIM_007.jpg	100
2446.667	0.846	846.0	repeat	Run3	repeat/STIM_007.jpg	99
2449.81	0.535	534.7	repeat	Run3	repeat/STIM_007.jpg	99
2452.36	0.975	975.4	repeat	Run3	repeat/STIM_007.jpg	99
2455.451	0.601	601.2	repeat	Run3	repeat/STIM_007.jpg	100
2459.962	0.951	950.7	repeat	Run3	repeat/STIM_008.jpg	100
2464.163	0.737	737.3	repeat	Run3	repeat/STIM_008.jpg	99
2468.584	0.516	516.3	repeat	Run3	repeat/STIM_008.jpg	99
2472.892	0.584	583.6	repeat	Run3	repeat/STIM_008.jpg	100
2475.874	0.589	588.8	repeat	Run3	repeat/STIM_008.jpg	99
2479.302	0.933	932.9	repeat	Run3	repeat/STIM_009.jpg	100
2483.023	0.763	763.2	repeat	Run3	repeat/STIM_009.jpg	100
2486.163	0.668	668.0	repeat	Run3	repeat/STIM_009.jpg	100
2490.375	0.743	742.7	repeat	Run3	repeat/STIM_009.jpg	99
2494.949	0.619	619.3	repeat	Run3	repeat/STIM_009.jpg	100
2499.202	0.601	600.8	repeat	Run3	repeat/STIM_010.jpg	99
2501.881	1.015	1015.4	repeat	Run3	repeat/STIM_010.jpg	100
2504.883	0.655	654.8	repeat	Run3	repeat/STIM_010.jpg	99
2508.82	0.647	647.4	repeat	Run3	repeat/STIM_010.jpg	99
2511.999	1.026	1026.2	repeat	Run3	repeat/STIM_010.jpg	99
2515.93	0.887	886.6	repeat	Run3	repeat/STIM_011.jpg	100
2520.554	0.997	996.9	repeat	Run3	repeat/STIM_011.jpg	100
2525.343	0.988	988.0	repeat	Run3	repeat/STIM_011.jpg	100
2529.612	0.804	804.0	repeat	Run3	repeat/STIM_011.jpg	99
2533.066	0.615	615.2	repeat	Run3	repeat/STIM_011.jpg	100
2536.283	0.56	559.8	repeat	Run3	repeat/STIM_012.jpg	99
2539.178	1.003	1002.8	repeat	Run3	repeat/STIM_012.jpg	99
2542.718	0.882	882.2	repeat	Run3	repeat/STIM_012.jpg	100
2547.337	0.862	862.1	repeat	Run3	repeat/STIM_012.jpg	99
2551.44	0.889	888.6	repeat	Run3	repeat/STIM_012.jpg	99
2555.555	0.796	796.2	repeat	Run3	repeat/STIM_013.jpg	100
2559.589	0.627	626.6	repeat	Run3	repeat/STIM_013.jpg	100
2563.852	0.739	739.4	repeat	Run3	repeat/STIM_013.jpg	100
2567.94	0.976	975.5	repeat	Run3	repeat/STIM_013.jpg	100
2572.196	0.698	697.6	repeat	Run3	repeat/STIM_013.jpg	99
2576.592	0.719	719.1	repeat	Run3	repeat/STIM_014.jpg	100
2580.258	0.681	681.4	repeat	Run3	repeat/STIM_014.jpg	99
2583.575	0.962	961.6	repeat	Run3	repeat/STIM_014.jpg	100
2587.068	0.696	696.0	repeat	Run3	repeat/STIM_014.jpg	99
2590.776	0.672	671.5	repeat	Run3	repeat/STIM_014.jpg	100
2594.247	1.863	1863.4	generate	Run4	generate/STIM_000.jpg	99
2599.07	2.051	2050.8	generate	Run4	generate/STIM_000.jpg	99
2604.209	1.162	1161.5	generate	Run4	generate/STIM_000.jpg	100
2607.794	1.166	1166.3	generate	Run4	generate/STIM_000.jpg	99
2612.079	0.864	864.1	generate	Run4	generate/STIM_000.jpg	99
2615.575	1.154	1153.6	generate	Run4	generate/STIM_001.jpg	100
2620.261	1.923	1923.1	generate	Run4	generate/STIM_001.jpg	100
2625.454	0.99	990.5	generate	Run4	generate/STIM_001.jpg	100
2630.375	0.901	900.8	generate	Run4	generate/STIM_001.jpg	100
2633.704	1.099	1099.3	generate	Run4	generate/STIM_001.jpg	100
2638.425	0.945	944.8	generate	Run4	generate/STIM_002.jpg	99
2643.075	1.24	1240.2	generate	Run4	generate/STIM_002.jpg	100
2647.923	1.699	1699.0	generate	Run4	generate/STIM_002.jpg	99
2652.093	1.863	1862.9	generate	Run4	generate/STIM_002.jpg	99
2656.149	1.439	1438.7	generate	Run4	generate/STIM_002.jpg	100
2660.145	1.034	1033.9	generate	Run4	generate/STIM_003.jpg	100
2664.456	1.707	1707.3	generate	Run4	generate/STIM_003.jpg	99
2669.869	2.05	2050.0	generate	Run4	generate/STIM_003.jpg	99
2673.95	1.463	1462.9	generate	Run4	generate/STIM_003.jpg	99
2678.968	1.21	1209.8	generate	Run4	generate/STIM_003.jpg	99
2683.808	2.051	2050.9	generate	Run4	generate/STIM_004.jpg	100
2689.764	1.854	1854.0	generate	Run4	generate/STIM_004.jpg	99
2694.453	1.488	1487.7	generate	Run4	generate/STIM_004.jpg	100
2699.735	1.782	1781.6	generate	Run4	generate/STIM_004.jpg	99
2703.922	1.764	1764.2	generate	Run4	generate/STIM_004.jpg	99
2708.436	2.14	2139.7	generate	Run4	generate/STIM_005.jpg	100
2713.489	0.905	904.9	generate	Run4	generate/STIM_005.jpg	99
2717.371	1.006	1006.3	generate	Run4	generate/STIM_005.jpg	99
2721.801	1.21	1209.9	generate	Run4	generate/STIM_005.jpg	100
2726.672	1.691	1690.7	generate	Run4	generate/STIM_005.jpg	99
2730.645	0.892	891.8	generate	Run4	generate/STIM_006.jpg	100
2734.981	1.717	1717.3	generate	Run4	generate/STIM_006.jpg	100
2739.214	2.034	2034.4	generate	Run4	generate/STIM_006.jpg	100
2743.845	1.803	1803.0	generate	Run4	generate/STIM_006.jpg	99
2749.344	1.108	1108.1	generate	Run4	generate/STIM_006.jpg	100
2754.081	1.105	1105.1	generate	Run4	generate/STIM_007.jpg	100
2757.968	1.571	1570.7	generate	Run4	generate/STIM_007.jpg	99
2762.559	1.892	1892.1	generate	Run4	generate/STIM_007.jpg	99
2766.692	0.885	884.8	generate	Run4	generate/STIM_007.jpg	100
2771.415	1.253	1253.3	generate	Run4	generate/STIM_007.jpg	99
2775.81	1.003	1002.9	generate	Run4	generate/STIM_008.jpg	99
2780.19	1.086	1086.4	generate	Run4	generate/STIM_008.jpg	99
2783.284	1.921	1921.3	generate	Run4	generate/STIM_008.jpg	99
2788.026	1.418	1418.4	generate	Run4	generate/STIM_008.jpg	100
2792.557	1.394	1393.6	generate	Run4	generate/STIM_008.jpg	100
2797.413	0.935	935.3	generate	Run4	generate/STIM_009.jpg	100
2801.53	2.126	2126.4	generate	Run4	generate/STIM_009.jpg	100
2807.352	1.966	1965.9	generate	Run4	generate/STIM_009.jpg	100
2811.357	1.725	1725.2	generate	Run4	generate/STIM_009.jpg	99
2815.522	1.742	1741.8	generate	Run4	generate/STIM_009.jpg	100
2820.916	1.211	1210.7	generate	Run4	generate/STIM_010.jpg	99
2824.768	2.005	2005.1	generate	Run4	generate/STIM_010.jpg	100
2829.792	1.665	1665.1	generate	Run4	generate/STIM_010.jpg	100
2835.369	1.076	1075.6	generate	Run4	generate/STIM_010.jpg	100
2838.782	1.645	1645.4	generate	Run4	generate/STIM_010.jpg	99
2842.827	1.594	1593.8	generate	Run4	generate/STIM_011.jpg	100
2848.283	1.188	1187.8	generate	Run4	generate/STIM_011.jpg	99
2851.861	1.228	1227.9	generate	Run4	generate/STIM_011.jpg	100
2855.331	1.412	1411.7	generate	Run4	generate/STIM_011.jpg	99
2860.49	1.989	1989.3	generate	Run4	generate/STIM_011.jpg	99
2865.437	1.12	1119.7	generate	Run4	generate/STIM_012.jpg	99
2869.375	1.383	1382.7	generate	Run4	generate/STIM_012.jpg	99
2874.308	1.005	1005.3	generate	Run4	generate/STIM_012.jpg	99
2877.879	1.654	1654.4	generate	Run4	generate/STIM_012.jpg	100
2882.601	1.273	1272.6	generate	Run4	generate/STIM_012.jpg	99
2886.222	1.219	1219.0	generate	Run4	generate/STIM_013.jpg	99
2890.191	1.887	1887.1	generate	Run4	generate/STIM_013.jpg	100
2894.12	1.315	1315.1	generate	Run4	generate/STIM_013.jpg	100
2897.52	1.085	1084.8	generate	Run4	generate/STIM_013.jpg	99
2901.271	1.44	1439.5	generate	Run4	generate/STIM_013.jpg	99
2906.511	1.445	1445.0	generate	Run4	generate/STIM_014.jpg	100
2910.862	2.122	2122.4	generate	Run4	generate/STIM_014.jpg	100
2915.473	1.506	1505.6	generate	Run4	generate/STIM_014.jpg	99
2920.069	1.592	1592.2	generate	Run4	generate/STIM_014.jpg	99
2925.412	1.468	1468.3	generate	Run4	generate/STIM_014.jpg	100
2929.361	1.235	1235.1	generate	Run4	generate/STIM_015.jpg	99
2933.156	1.492	1491.9	generate	Run4	generate/STIM_015.jpg	99
2937.34	1.688	1687.7	generate	Run4	generate/STIM_015.jpg	100
2942.62	0.907	906.6	generate	Run4	generate/STIM_015.jpg	100
2946.651	1.532	1531.6	generate	Run4	generate/STIM_015.jpg	99
2950.845	0.884	884.0	generate	Run4	generate/STIM_016.jpg	99
2954.045	1.881	1881.0	generate	Run4	generate/STIM_016.jpg	99
2958.756	1.941	1941.1	generate	Run4	generate/STIM_016.jpg	100
2963.306	1.919	1919.3	generate	Run4	generate/STIM_016.jpg	99
2968.961	1.626	1626.0	generate	Run4	generate/STIM_016.jpg	99
2973.219	1.553	1553.0	generate	Run4	generate/STIM_017.jpg	99
2976.807	1.919	1919.2	generate	Run4	generate/STIM_017.jpg	100
2982.148	1.607	1607.1	generate	Run4	generate/STIM_017.jpg	99
2986.044	1.776	1776.0	generate	Run4	generate/STIM_017.jpg	100
2991.273	1.925	1925.1	generate	Run4	generate/STIM_017.jpg	100
2996.125	2.125	2124.7	generate	Run4	generate/STIM_018.jpg	99
3000.298	0.996	995.8	generate	Run4	generate/STIM_018.jpg	99
3005.048	1.32	1320.2	generate	Run4	generate/STIM_018.jpg	99
3008.43	1.817	1817.1	generate	Run4	generate/STIM_018.jpg	100
3012.854	1.538	1537.6	generate	Run4	generate/STIM_018.jpg	100
3017.652	2.025	2024.6	generate	Run4	generate/STIM_019.jpg	100
3023.468	1.662	1661.6	generate	Run4	generate/STIM_019.jpg	99
3027.557	1.085	1085.3	generate	Run4	generate/STIM_019.jpg	100
3032.385	1.09	1089.9	generate	Run4	generate/STIM_019.jpg	100
3037.21	1.65	1649.5	generate	Run4	generate/STIM_019.jpg	99
3041.963	1.614	1613.9	generate	Run4	generate/STIM_020.jpg	99
3046.258	1.828	1828.3	generate	Run4	generate/STIM_020.jpg	100
3051.957	1.118	1117.7	generate	Run4	generate/STIM_020.jpg	100
3055.434	1.862	1861.5	generate	Run4	generate/STIM_020.jpg	100
3061.119	0.974	974.1	generate	Run4	generate/STIM_020.jpg	99
3064.813	2.085	2084.6	generate	Run4	generate/STIM_021.jpg	99
3068.92	0.886	886.4	generate	Run4	generate/STIM_021.jpg	99
3072.299	1.383	1383.4	generate	Run4	generate/STIM_021.jpg	100
3076.129	1.392	1392.5	generate	Run4	generate/STIM_021.jpg	99
3080.324	1.501	1500.7	generate	Run4	generate/STIM_021.jpg	100
3085.742	0.882	882.2	generate	Run4	generate/STIM_022.jpg	100
3088.804	2.045	2044.6	generate	Run4	generate/STIM_022.jpg	100
3093.937	1.753	1753.1	generate	Run4	generate/STIM_022.jpg	100
3097.869	1.098	1098.1	generate	Run4	generate/STIM_022.jpg	99
3101.198	0.985	985.4	generate	Run4	generate/STIM_022.jpg	99
3104.836	1.783	1782.7	generate	Run4	generate/STIM_023.jpg	100
3110.043	1.144	1144.1	generate	Run4	generate/STIM_023.jpg	100
3113.687	1.158	1158.2	generate	Run4	generate/STIM_023.jpg	99
3118.528	1.472	1472.4	generate	Run4	generate/STIM_023.jpg	100
3122.822	1.53	1530.3	generate	Run4	generate/STIM_023.jpg	100
3128.079	1.188	1188.4	generate	Run4	generate/STIM_024.jpg	100
3132.909	1.271	1271.0	generate	Run4	generate/STIM_024.jpg	100
3136.717	1.067	1066.8	generate	Run4	generate/STIM_024.jpg	99
3141.476	1.516	1515.6	generate	Run4	generate/STIM_024.jpg	99
3146.173	2.035	2035.1	generate	Run4	generate/STIM_024.jpg	99
3151.332	0.977	976.7	repeat	Run4	repeat/STIM_000.jpg	99
3155.411	0.58	579.6	repeat	Run4	repeat/STIM_000.jpg	99
3159.767	0.592	591.7	repeat	Run4	repeat/STIM_000.jpg	99
3163.734	0.926	925.5	repeat	Run4	repeat/STIM_000.jpg	100
3168.566	0.731	731.0	repeat	Run4	repeat/STIM_000.jpg	100
3172.137	0.663	662.8	repeat	Run4	repeat/STIM_001.jpg	99
3176.141	0.522	522.1	repeat	Run4	repeat/STIM_001.jpg	100
3179.283	0.709	709.4	repeat	Run4	repeat/STIM_001.jpg	100
3183.852	0.565	564.9	repeat	Run4	repeat/STIM_001.jpg	100
3187.029	0.777	776.6	repeat	Run4	repeat/STIM_001.jpg	100
3190.006	0.684	683.9	repeat	Run4	repeat/STIM_002.jpg	100
3194.323	0.719	719.0	repeat	Run4	repeat/STIM_002.jpg	99
3197.872	0.79	790.2	repeat	Run4	repeat/STIM_002.jpg	100
3201.226	0.838	838.2	repeat	Run4	repeat/STIM_002.jpg	99
3205.477	1.021	1020.9	repeat	Run4	repeat/STIM_002.jpg	99
3209.12	0.914	913.9	repeat	Run4	repeat/STIM_003.jpg	100
3213.835	1.003	1002.6	repeat	Run4	repeat/STIM_003.jpg	100
3218.255	0.996	995.7	repeat	Run4	repeat/STIM_003.jpg	100
3222.851	0.784	784.2	repeat	Run4	repeat/STIM_003.jpg	100
3225.657	0.535	534.7	repeat	Run4	repeat/STIM_003.jpg	99
3229.24	0.668	668.3	repeat	Run4	repeat/STIM_004.jpg	100
3232.176	0.878	878.3	repeat	Run4	repeat/STIM_004.jpg	99
3236.546	0.878	878.1	repeat	Run4	repeat/STIM_004.jpg	100
3240.55	0.882	882.5	repeat	Run4	repeat/STIM_004.jpg	99
3245.316	0.642	642.5	repeat	Run4	repeat/STIM_004.jpg	99
3249.123	0.902	902.1	repeat	Run4	repeat/STIM_005.jpg	99
3253.497	0.587	586.8	repeat	Run4	repeat/STIM_005.jpg	99
3257.267	0.763	763.3	repeat	Run4	repeat/STIM_005.jpg	99
3260.093	0.931	931.1	repeat	Run4	repeat/STIM_005.jpg	99
3263.069	0.671	670.8	repeat	Run4	repeat/STIM_005.jpg	99
3265.78	0.59	590.1	repeat	Run4	repeat/STIM_006.jpg	99
3269.499	0.781	781.1	repeat	Run4	repeat/STIM_006.jpg	99
3273.911	0.55	550.2	repeat	Run4	repeat/STIM_006.jpg	100
3277.289	0.893	892.8	repeat	Run4	repeat/STIM_006.jpg	99
3281.961	0.991	990.8	repeat	Run4	repeat/STIM_006.jpg	100
3286.74	0.936	935.8	repeat	Run4	repeat/STIM_007.jpg	100
3291.268	0.771	771.3	repeat	Run4	repeat/STIM_007.jpg	100
3294.171	0.73	730.3	repeat	Run4	repeat/STIM_007.jpg	100
3297.459	0.846	846.3	repeat	Run4	repeat/STIM_007.jpg	99
3301.245	0.851	850.7	repeat	Run4	repeat/STIM_007.jpg	99
3304.867	0.78	779.6	repeat	Run4	repeat/STIM_008.jpg	100
3309.395	0.871	870.9	repeat	Run4	repeat/STIM_008.jpg	100
3314.051	0.593	593.3	repeat	Run4	repeat/STIM_008.jpg	99
3318.375	0.866	865.5	repeat	Run4	repeat/STIM_008.jpg	99
3322.245	0.994	994.5	repeat	Run4	repeat/STIM_008.jpg	99
3326.9	0.924	924.4	repeat	Run4	repeat/STIM_009.jpg	100
3331.312	0.556	556.1	repeat	Run4	repeat/STIM_009.jpg	99
3334.515	0.52	519.6	repeat	Run4	repeat/STIM_009.jpg	100
3337.389	0.9	899.7	repeat	Run4	repeat/STIM_009.jpg	100
3342.029	0.76	759.9	repeat	Run4	repeat/STIM_009.jpg	99
3346.261	0.786	786.4	repeat	Run4	repeat/STIM_010.jpg	99
3349.887	1.011	1010.7	repeat	Run4	repeat/STIM_010.jpg	99
3354.388	0.579	578.8	repeat	Run4	repeat/STIM_010.jpg	100
3357.55	0.646	646.0	repeat	Run4	repeat/STIM_010.jpg	99
3361.314	0.672	672.0	repeat	Run4	repeat/STIM_010.jpg	100
3364.278	0.612	612.4	repeat	Run4	repeat/STIM_011.jpg	99
3368.104	1.006	1005.6	repeat	Run4	repeat/STIM_011.jpg	100
3371.187	0.862	861.9	repeat	Run4	repeat/STIM_011.jpg	100
3374.953	0.998	998.0	repeat	Run4	repeat/STIM_011.jpg	100
3378.876	0.985	985.0	repeat	Run4	repeat/STIM_011.jpg	100
3381.92	1.003	1003.3	repeat	Run4	repeat/STIM_012.jpg	100
3385.881	0.751	751.2	repeat	Run4	repeat/STIM_012.jpg	99
3390.061	0.851	851.1	repeat	Run4	repeat/STIM_012.jpg	99
3393.166	0.91	910.4	repeat	Run4	repeat/STIM_012.jpg	99
3397.328	0.992	991.6	repeat	Run4	repeat/STIM_012.jpg	100
3400.435	0.738	737.8	repeat	Run4	repeat/STIM_013.jpg	99
3403.787	0.706	706.2	repeat	Run4	repeat/STIM_013.jpg	100
3407.28	0.852	851.6	repeat	Run4	repeat/STIM_013.jpg	99
3411.77	0.692	692.4	repeat	Run4	repeat/STIM_013.jpg	100
3415.298	0.537	536.9	repeat	Run4	repeat/STIM_013.jpg	100
3419.41	0.954	953.7	repeat	Run4	repeat/STIM_014.jpg	99
3423.402	0.537	536.6	repeat	Run4	repeat/STIM_014.jpg	100
3426.847	0.893	893.1	repeat	Run4	repeat/STIM_014.jpg	100
3430.919	0.819	819.3	repeat	Run4	repeat/STIM_014.jpg	100
3434.103	0.628	628.5	repeat	Run4	repeat/STIM_014.jpg	100
