onset	duration	accuracy	trial_type	learning_stage	stimulus
0.0	2.274	correct	generate	Run1	generate/STIM_000.jpg
4.375	1.441	correct	generate	Run1	generate/STIM_000.jpg
9.186	2.149	incorrect	generate	Run1	generate/STIM_000.jpg
14.96	1.691	incorrect	generate	Run1	generate/STIM_000.jpg
19.646	2.262	correct	generate	Run1	generate/STIM_000.jpg
24.652	2.381	correct	generate	Run1	generate/STIM_001.jpg
30.031	1.939	correct	generate	Run1	generate/STIM_001.jpg
35.298	2.54	correct	generate	Run1	generate/STIM_001.jpg
41.153	1.874	correct	generate	Run1	generate/STIM_001.jpg
45.578	1.939	correct	generate	Run1	generate/STIM_001.jpg
49.939	1.431	correct	generate	Run1	generate/STIM_002.jpg
54.596	2.807	correct	generate	Run1	generate/STIM_002.jpg
60.328	1.646	correct	generate	Run1	generate/STIM_002.jpg
65.837	1.457	incorrect	generate	Run1	generate/STIM_002.jpg
70.439	2.193	correct	generate	Run1	generate/STIM_002.jpg
75.604	2.267	correct	generate	Run1	generate/STIM_003.jpg
80.168	1.401	correct	generate	Run1	generate/STIM_003.jpg
84.3	1.92	correct	generate	Run1	generate/STIM_003.jpg
89.63	1.838	correct	generate	Run1	generate/STIM_003.jpg
93.952	1.646	correct	generate	Run1	generate/STIM_003.jpg
97.819	1.533	incorrect	generate	Run1	generate/STIM_004.jpg
101.311	2.379	correct	generate	Run1	generate/STIM_004.jpg
107.393	1.664	correct	generate	Run1	generate/STIM_004.jpg
112.352	1.811	correct	generate	Run1	generate/STIM_004.jpg
117.186	1.43	correct	generate	Run1	generate/STIM_004.jpg
121.819	1.318	incorrect	generate	Run1	generate/STIM_005.jpg
126.772	2.746	correct	generate	Run1	generate/STIM_005.jpg
132.694	1.285	correct	generate	Run1	generate/STIM_005.jpg
136.306	1.754	correct	generate	Run1	generate/STIM_005.jpg
140.938	2.025	correct	generate	Run1	generate/STIM_005.jpg
146.855	1.883	correct	generate	Run1	generate/STIM_006.jpg
151.026	2.117	incorrect	generate	Run1	generate/STIM_006.jpg
157.044	2.356	correct	generate	Run1	generate/STIM_006.jpg
161.833	2.075	correct	generate	Run1	generate/STIM_006.jpg
166.711	2.317	correct	generate	Run1	generate/STIM_006.jpg
172.482	2.893	correct	generate	Run1	generate/STIM_007.jpg
178.211	1.676	incorrect	generate	Run1	generate/STIM_007.jpg
183.677	1.636	correct	generate	Run1	generate/STIM_007.jpg
187.952	1.448	correct	generate	Run1	generate/STIM_007.jpg
192.472	1.238	incorrect	generate	Run1	generate/STIM_007.jpg
196.038	1.259	correct	generate	Run1	generate/STIM_008.jpg
199.37	2.888	correct	generate	Run1	generate/STIM_008.jpg
205.918	2.743	correct	generate	Run1	generate/STIM_008.jpg
211.201	2.604	correct	generate	Run1	generate/STIM_008.jpg
216.714	1.264	correct	generate	Run1	generate/STIM_008.jpg
220.679	2.164	correct	generate	Run1	generate/STIM_009.jpg
224.983	2.801	correct	generate	Run1	generate/STIM_009.jpg
230.952	1.845	correct	generate	Run1	generate/STIM_009.jpg
236.092	1.153	correct	generate	Run1	generate/STIM_009.jpg
240.816	1.733	correct	generate	Run1	generate/STIM_009.jpg
244.799	2.746	correct	generate	Run1	generate/STIM_010.jpg
249.479	1.254	incorrect	generate	Run1	generate/STIM_010.jpg
253.384	2.396	incorrect	generate	Run1	generate/STIM_010.jpg
258.656	1.962	correct	generate	Run1	generate/STIM_010.jpg
264.506	1.438	correct	generate	Run1	generate/STIM_010.jpg
268.65	1.835	correct	generate	Run1	generate/STIM_011.jpg
273.446	2.407	correct	generate	Run1	generate/STIM_011.jpg
279.601	1.194	correct	generate	Run1	generate/STIM_011.jpg
283.421	1.612	incorrect	generate	Run1	generate/STIM_011.jpg
288.678	1.581	incorrect	generate	Run1	generate/STIM_011.jpg
293.144	2.4	correct	generate	Run1	generate/STIM_012.jpg
298.542	2.846	correct	generate	Run1	generate/STIM_012.jpg
304.594	2.486	incorrect	generate	Run1	generate/STIM_012.jpg
309.218	2.007	correct	generate	Run1	generate/STIM_012.jpg
314.614	1.654	correct	generate	Run1	generate/STIM_012.jpg
320.114	1.399	correct	generate	Run1	generate/STIM_013.jpg
324.844	2.364	correct	generate	Run1	generate/STIM_013.jpg
329.996	1.203	incorrect	generate	Run1	generate/STIM_013.jpg
335.074	1.32	incorrect	generate	Run1	generate/STIM_013.jpg
338.699	1.965	correct	generate	Run1	generate/STIM_013.jpg
343.329	1.561	incorrect	generate	Run1	generate/STIM_014.jpg
348.51	1.469	correct	generate	Run1	generate/STIM_014.jpg
353.673	1.828	correct	generate	Run1	generate/STIM_014.jpg
357.614	1.277	correct	generate	Run1	generate/STIM_014.jpg
362.291	1.62	incorrect	generate	Run1	generate/STIM_014.jpg
366.888	2.049	correct	generate	Run1	generate/STIM_015.jpg
372.141	2.229	correct	generate	Run1	generate/STIM_015.jpg
378.048	1.341	correct	generate	Run1	generate/STIM_015.jpg
381.592	2.006	correct	generate	Run1	generate/STIM_015.jpg
387.456	1.734	incorrect	generate	Run1	generate/STIM_015.jpg
392.431	2.803	correct	generate	Run1	generate/STIM_016.jpg
398.483	2.813	correct	generate	Run1	generate/STIM_016.jpg
404.12	2.634	correct	generate	Run1	generate/STIM_016.jpg
408.805	2.459	incorrect	generate	Run1	generate/STIM_016.jpg
413.702	2.22	correct	generate	Run1	generate/STIM_016.jpg
418.818	2.08	incorrect	generate	Run1	generate/STIM_017.jpg
423.519	2.397	correct	generate	Run1	generate/STIM_017.jpg
429.678	2.206	correct	generate	Run1	generate/STIM_017.jpg
434.422	2.101	incorrect	generate	Run1	generate/STIM_017.jpg
440.309	1.488	correct	generate	Run1	generate/STIM_017.jpg
445.534	2.726	correct	generate	Run1	generate/STIM_018.jpg
450.854	2.33	correct	generate	Run1	generate/STIM_018.jpg
456.295	1.118	correct	generate	Run1	generate/STIM_018.jpg
461.318	2.353	correct	generate	Run1	generate/STIM_018.jpg
466.2	1.258	correct	generate	Run1	generate/STIM_018.jpg
470.62	1.298	correct	generate	Run1	generate/STIM_019.jpg
475.743	2.107	correct	generate	Run1	generate/STIM_019.jpg
480.722	2.242	correct	generate	Run1	generate/STIM_019.jpg
486.603	1.157	correct	generate	Run1	generate/STIM_019.jpg
489.74	1.948	incorrect	generate	Run1	generate/STIM_019.jpg
494.216	1.655	correct	generate	Run1	generate/STIM_020.jpg
499.02	2.715	correct	generate	Run1	generate/STIM_020.jpg
504.852	2.532	correct	generate	Run1	generate/STIM_020.jpg
509.661	1.693	incorrect	generate	Run1	generate/STIM_020.jpg
513.741	1.641	correct	generate	Run1	generate/STIM_020.jpg
519.056	3.064	correct	generate	Run1	generate/STIM_021.jpg
524.078	1.391	correct	generate	Run1	generate/STIM_021.jpg
529.188	1.319	incorrect	generate	Run1	generate/STIM_021.jpg
533.853	1.922	correct	generate	Run1	generate/STIM_021.jpg
539.306	2.213	correct	generate	Run1	generate/STIM_021.jpg
545.157	1.632	correct	generate	Run1	generate/STIM_022.jpg
550.112	1.474	correct	generate	Run1	generate/STIM_022.jpg
554.084	2.589	correct	generate	Run1	generate/STIM_022.jpg
559.524	1.198	correct	generate	Run1	generate/STIM_022.jpg
564.425	1.122	correct	generate	Run1	generate/STIM_022.jpg
569.251	1.892	incorrect	generate	Run1	generate/STIM_023.jpg
573.836	2.12	correct	generate	Run1	generate/STIM_023.jpg
578.996	2.628	incorrect	generate	Run1	generate/STIM_023.jpg
583.595	1.613	incorrect	generate	Run1	generate/STIM_023.jpg
587.845	1.699	correct	generate	Run1	generate/STIM_023.jpg
592.681	1.444	incorrect	generate	Run1	generate/STIM_024.jpg
597.2	2.57	incorrect	generate	Run1	generate/STIM_024.jpg
602.169	1.542	correct	generate	Run1	generate/STIM_024.jpg
605.789	1.734	correct	generate	Run1	generate/STIM_024.jpg
610.533	1.112	incorrect	generate	Run1	generate/STIM_024.jpg
613.661	0.732	correct	repeat	Run1	repeat/STIM_000.jpg
617.58	0.828	correct	repeat	Run1	repeat/STIM_000.jpg
621.795	0.574	correct	repeat	Run1	repeat/STIM_000.jpg
624.862	0.574	correct	repeat	Run1	repeat/STIM_000.jpg
628.937	0.543	correct	repeat	Run1	repeat/STIM_000.jpg
633.289	0.668	incorrect	repeat	Run1	repeat/STIM_001.jpg
636.431	0.93	correct	repeat	Run1	repeat/STIM_001.jpg
639.834	0.659	correct	repeat	Run1	repeat/STIM_001.jpg
643.27	0.629	correct	repeat	Run1	repeat/STIM_001.jpg
646.412	0.675	correct	repeat	Run1	repeat/STIM_001.jpg
650.825	0.883	correct	repeat	Run1	repeat/STIM_002.jpg
653.724	0.854	correct	repeat	Run1	repeat/STIM_002.jpg
657.128	0.9	correct	repeat	Run1	repeat/STIM_002.jpg
661.32	0.937	incorrect	repeat	Run1	repeat/STIM_002.jpg
665.296	1.008	correct	repeat	Run1	repeat/STIM_002.jpg
670.109	0.893	correct	repeat	Run1	repeat/STIM_003.jpg
673.023	0.545	correct	repeat	Run1	repeat/STIM_003.jpg
676.788	0.605	correct	repeat	Run1	repeat/STIM_003.jpg
680.994	1.001	correct	repeat	Run1	repeat/STIM_003.jpg
685.713	0.627	incorrect	repeat	Run1	repeat/STIM_003.jpg
688.501	0.574	correct	repeat	Run1	repeat/STIM_004.jpg
691.181	0.884	correct	repeat	Run1	repeat/STIM_004.jpg
695.61	0.605	correct	repeat	Run1	repeat/STIM_004.jpg
698.806	0.93	correct	repeat	Run1	repeat/STIM_004.jpg
703.622	0.674	correct	repeat	Run1	repeat/STIM_004.jpg
707.292	0.9	correct	repeat	Run1	repeat/STIM_005.jpg
712.164	0.556	correct	repeat	Run1	repeat/STIM_005.jpg
715.261	0.748	correct	repeat	Run1	repeat/STIM_005.jpg
719.885	0.766	correct	repeat	Run1	repeat/STIM_005.jpg
722.784	0.92	correct	repeat	Run1	repeat/STIM_005.jpg
726.536	0.766	correct	repeat	Run1	repeat/STIM_006.jpg
729.589	0.672	correct	repeat	Run1	repeat/STIM_006.jpg
733.805	0.791	correct	repeat	Run1	repeat/STIM_006.jpg
736.926	0.628	correct	repeat	Run1	repeat/STIM_006.jpg
740.338	0.564	correct	repeat	Run1	repeat/STIM_006.jpg
744.814	0.628	correct	repeat	Run1	repeat/STIM_007.jpg
748.741	0.629	correct	repeat	Run1	repeat/STIM_007.jpg
752.045	0.9	correct	repeat	Run1	repeat/STIM_007.jpg
756.338	0.909	correct	repeat	Run1	repeat/STIM_007.jpg
759.631	0.576	incorrect	repeat	Run1	repeat/STIM_007.jpg
762.221	0.733	correct	repeat	Run1	repeat/STIM_008.jpg
765.624	0.868	correct	repeat	Run1	repeat/STIM_008.jpg
769.545	0.861	correct	repeat	Run1	repeat/STIM_008.jpg
773.211	0.691	correct	repeat	Run1	repeat/STIM_008.jpg
777.096	0.921	incorrect	repeat	Run1	repeat/STIM_008.jpg
780.757	0.743	correct	repeat	Run1	repeat/STIM_009.jpg
784.947	0.806	correct	repeat	Run1	repeat/STIM_009.jpg
788.126	0.793	correct	repeat	Run1	repeat/STIM_009.jpg
792.382	0.714	correct	repeat	Run1	repeat/STIM_009.jpg
796.508	0.799	correct	repeat	Run1	repeat/STIM_009.jpg
800.315	1.002	incorrect	repeat	Run1	repeat/STIM_010.jpg
803.748	1.008	correct	repeat	Run1	repeat/STIM_010.jpg
807.492	0.55	correct	repeat	Run1	repeat/STIM_010.jpg
810.835	0.526	correct	repeat	Run1	repeat/STIM_010.jpg
814.533	0.882	correct	repeat	Run1	repeat/STIM_010.jpg
818.794	0.777	correct	repeat	Run1	repeat/STIM_011.jpg
821.791	0.971	correct	repeat	Run1	repeat/STIM_011.jpg
825.06	0.633	correct	repeat	Run1	repeat/STIM_011.jpg
829.459	0.627	correct	repeat	Run1	repeat/STIM_011.jpg
833.76	0.778	correct	repeat	Run1	repeat/STIM_011.jpg
837.256	0.802	correct	repeat	Run1	repeat/STIM_012.jpg
841.433	0.793	correct	repeat	Run1	repeat/STIM_012.jpg
844.647	0.882	correct	repeat	Run1	repeat/STIM_012.jpg
848.451	0.753	correct	repeat	Run1	repeat/STIM_012.jpg
851.54	0.809	correct	repeat	Run1	repeat/STIM_012.jpg
854.915	0.998	incorrect	repeat	Run1	repeat/STIM_013.jpg
858.797	0.839	correct	repeat	Run1	repeat/STIM_013.jpg
863.071	0.978	correct	repeat	Run1	repeat/STIM_013.jpg
867.189	0.976	incorrect	repeat	Run1	repeat/STIM_013.jpg
870.197	0.954	correct	repeat	Run1	repeat/STIM_013.jpg
874.318	1.016	correct	repeat	Run1	repeat/STIM_014.jpg
877.989	0.568	correct	repeat	Run1	repeat/STIM_014.jpg
881.535	0.784	correct	repeat	Run1	repeat/STIM_014.jpg
885.364	0.721	correct	repeat	Run1	repeat/STIM_014.jpg
888.563	0.552	correct	repeat	Run1	repeat/STIM_014.jpg
891.859	1.67	correct	generate	Run2	generate/STIM_000.jpg
896.281	2.212	correct	generate	Run2	generate/STIM_000.jpg
900.998	2.206	correct	generate	Run2	generate/STIM_000.jpg
906.812	1.526	correct	generate	Run2	generate/STIM_000.jpg
911.06	0.961	correct	generate	Run2	generate/STIM_000.jpg
914.744	1.219	correct	generate	Run2	generate/STIM_001.jpg
919.104	2.198	correct	generate	Run2	generate/STIM_001.jpg
923.65	1.828	incorrect	generate	Run2	generate/STIM_001.jpg
928.639	1.33	correct	generate	Run2	generate/STIM_001.jpg
933.661	2.08	correct	generate	Run2	generate/STIM_001.jpg
939.327	2.194	correct	generate	Run2	generate/STIM_002.jpg
943.735	1.479	correct	generate	Run2	generate/STIM_002.jpg
947.4	1.12	correct	generate	Run2	generate/STIM_002.jpg
951.555	1.846	correct	generate	Run2	generate/STIM_002.jpg
956.382	1.485	correct	generate	Run2	generate/STIM_002.jpg
961.251	1.108	correct	generate	Run2	generate/STIM_003.jpg
964.771	2.142	correct	generate	Run2	generate/STIM_003.jpg
969.634	1.127	correct	generate	Run2	generate/STIM_003.jpg
973.125	1.104	correct	generate	Run2	generate/STIM_003.jpg
977.651	1.92	correct	generate	Run2	generate/STIM_003.jpg
983.357	2.293	correct	generate	Run2	generate/STIM_004.jpg
988.129	1.857	correct	generate	Run2	generate/STIM_004.jpg
993.139	2.01	correct	generate	Run2	generate/STIM_004.jpg
998.849	2.069	correct	generate	Run2	generate/STIM_004.jpg
1003.756	1.96	correct	generate	Run2	generate/STIM_004.jpg
1008.639	2.263	correct	generate	Run2	generate/STIM_005.jpg
1013.899	1.282	correct	generate	Run2	generate/STIM_005.jpg
1017.24	1.577	correct	generate	Run2	generate/STIM_005.jpg
1022.338	2.098	correct	generate	Run2	generate/STIM_005.jpg
1026.51	0.915	correct	generate	Run2	generate/STIM_005.jpg
1031.38	1.701	correct	generate	Run2	generate/STIM_006.jpg
1035.417	1.509	correct	generate	Run2	generate/STIM_006.jpg
1039.942	1.203	correct	generate	Run2	generate/STIM_006.jpg
1043.752	1.997	correct	generate	Run2	generate/STIM_006.jpg
1048.325	1.55	correct	generate	Run2	generate/STIM_006.jpg
1053.573	1.737	correct	generate	Run2	generate/STIM_007.jpg
1057.893	1.013	incorrect	generate	Run2	generate/STIM_007.jpg
1061.633	2.04	correct	generate	Run2	generate/STIM_007.jpg
1067.057	1.165	correct	generate	Run2	generate/STIM_007.jpg
1070.855	1.408	correct	generate	Run2	generate/STIM_007.jpg
1074.65	1.716	correct	generate	Run2	generate/STIM_008.jpg
1079.255	2.279	incorrect	generate	Run2	generate/STIM_008.jpg
1084.235	1.267	correct	generate	Run2	generate/STIM_008.jpg
1088.703	1.549	correct	generate	Run2	generate/STIM_008.jpg
1093.179	2.132	correct	generate	Run2	generate/STIM_008.jpg
1097.68	1.812	correct	generate	Run2	generate/STIM_009.jpg
1102.625	2.27	correct	generate	Run2	generate/STIM_009.jpg
1107.386	1.674	correct	generate	Run2	generate/STIM_009.jpg
1112.889	1.749	correct	generate	Run2	generate/STIM_009.jpg
1118.469	1.148	correct	generate	Run2	generate/STIM_009.jpg
1123.471	1.308	correct	generate	Run2	generate/STIM_010.jpg
1128.148	1.273	correct	generate	Run2	generate/STIM_010.jpg
1133.121	1.09	correct	generate	Run2	generate/STIM_010.jpg
1136.986	1.337	incorrect	generate	Run2	generate/STIM_010.jpg
1141.046	2.041	incorrect	generate	Run2	generate/STIM_010.jpg
1145.89	1.936	correct	generate	Run2	generate/STIM_011.jpg
1150.459	1.658	correct	generate	Run2	generate/STIM_011.jpg
1154.552	1.849	correct	generate	Run2	generate/STIM_011.jpg
1158.424	2.105	correct	generate	Run2	generate/STIM_011.jpg
1163.671	1.293	correct	generate	Run2	generate/STIM_011.jpg
1168.626	1.108	correct	generate	Run2	generate/STIM_012.jpg
1173.373	1.992	correct	generate	Run2	generate/STIM_012.jpg
1177.904	2.037	correct	generate	Run2	generate/STIM_012.jpg
1182.035	1.844	correct	generate	Run2	generate/STIM_012.jpg
1186.43	2.019	correct	generate	Run2	generate/STIM_012.jpg
1192.18	1.084	incorrect	generate	Run2	generate/STIM_013.jpg
1195.549	2.082	correct	generate	Run2	generate/STIM_013.jpg
1201.52	1.113	incorrect	generate	Run2	generate/STIM_013.jpg
1205.795	1.497	correct	generate	Run2	generate/STIM_013.jpg
1209.844	0.937	correct	generate	Run2	generate/STIM_013.jpg
1214.36	1.12	incorrect	generate	Run2	generate/STIM_014.jpg
1219.233	2.176	incorrect	generate	Run2	generate/STIM_014.jpg
1224.003	2.309	correct	generate	Run2	generate/STIM_014.jpg
1228.397	0.873	correct	generate	Run2	generate/STIM_014.jpg
1232.781	1.002	correct	generate	Run2	generate/STIM_014.jpg
1237.192	1.94	correct	generate	Run2	generate/STIM_015.jpg
1241.727	1.097	incorrect	generate	Run2	generate/STIM_015.jpg
1245.242	1.314	correct	generate	Run2	generate/STIM_015.jpg
1248.756	1.135	correct	generate	Run2	generate/STIM_015.jpg
1253.227	1.08	correct	generate	Run2	generate/STIM_015.jpg
1257.487	1.955	correct	generate	Run2	generate/STIM_016.jpg
1261.428	1.642	correct	generate	Run2	generate/STIM_016.jpg
1266.632	1.582	correct	generate	Run2	generate/STIM_016.jpg
1270.36	1.597	correct	generate	Run2	generate/STIM_016.jpg
1274.656	1.314	correct	generate	Run2	generate/STIM_016.jpg
1279.583	2.268	incorrect	generate	Run2	generate/STIM_017.jpg
1285.392	2.324	correct	generate	Run2	generate/STIM_017.jpg
1290.989	2.248	correct	generate	Run2	generate/STIM_017.jpg
1297.132	1.495	correct	generate	Run2	generate/STIM_017.jpg
1300.93	1.58	correct	generate	Run2	generate/STIM_017.jpg
1306.313	2.454	correct	generate	Run2	generate/STIM_018.jpg
1312.667	1.343	correct	generate	Run2	generate/STIM_018.jpg
1317.901	1.06	correct	generate	Run2	generate/STIM_018.jpg
1322.531	1.275	correct	generate	Run2	generate/STIM_018.jpg
1326.449	1.623	correct	generate	Run2	generate/STIM_018.jpg
1331.813	2.367	incorrect	generate	Run2	generate/STIM_019.jpg
1337.575	1.34	correct	generate	Run2	generate/STIM_019.jpg
1342.254	1.307	correct	generate	Run2	generate/STIM_019.jpg
1346.196	1.941	correct	generate	Run2	generate/STIM_019.jpg
1350.703	1.728	correct	generate	Run2	generate/STIM_019.jpg
1355.032	2.313	incorrect	generate	Run2	generate/STIM_020.jpg
1360.047	1.989	correct	generate	Run2	generate/STIM_020.jpg
1365.267	1.4	incorrect	generate	Run2	generate/STIM_020.jpg
1369.397	2.096	correct	generate	Run2	generate/STIM_020.jpg
1374.035	0.967	correct	generate	Run2	generate/STIM_020.jpg
1377.288	2.085	correct	generate	Run2	generate/STIM_021.jpg
1383.157	1.095	correct	generate	Run2	generate/STIM_021.jpg
1386.284	2.042	correct	generate	Run2	generate/STIM_021.jpg
1391.686	1.14	correct	generate	Run2	generate/STIM_021.jpg
1396.262	1.934	correct	generate	Run2	generate/STIM_021.jpg
1401.658	2.382	correct	generate	Run2	generate/STIM_022.jpg
1406.488	1.244	correct	generate	Run2	generate/STIM_022.jpg
1410.55	1.086	incorrect	generate	Run2	generate/STIM_022.jpg
1414.084	1.872	correct	generate	Run2	generate/STIM_022.jpg
1419.02	0.883	correct	generate	Run2	generate/STIM_022.jpg
1422.246	1.345	correct	generate	Run2	generate/STIM_023.jpg
1426.07	1.647	incorrect	generate	Run2	generate/STIM_023.jpg
1430.645	2.211	incorrect	generate	Run2	generate/STIM_023.jpg
1436.755	2.108	incorrect	generate	Run2	generate/STIM_023.jpg
1440.827	0.877	correct	generate	Run2	generate/STIM_023.jpg
1444.645	1.662	correct	generate	Run2	generate/STIM_024.jpg
1450.152	2.368	correct	generate	Run2	generate/STIM_024.jpg
1456.314	1.061	correct	generate	Run2	generate/STIM_024.jpg
1461.288	1.681	correct	generate	Run2	generate/STIM_024.jpg
1466.305	1.333	incorrect	generate	Run2	generate/STIM_024.jpg
1471.108	0.84	correct	repeat	Run2	repeat/STIM_000.jpg
1474.982	0.6	incorrect	repeat	Run2	repeat/STIM_000.jpg
1479.302	0.799	correct	repeat	Run2	repeat/STIM_000.jpg
1483.276	0.628	correct	repeat	Run2	repeat/STIM_000.jpg
1487.038	0.632	correct	repeat	Run2	repeat/STIM_000.jpg
1489.716	0.981	correct	repeat	Run2	repeat/STIM_001.jpg
1493.368	0.63	correct	repeat	Run2	repeat/STIM_001.jpg
1496.711	0.682	correct	repeat	Run2	repeat/STIM_001.jpg
1499.986	0.663	correct	repeat	Run2	repeat/STIM_001.jpg
1504.34	0.672	correct	repeat	Run2	repeat/STIM_001.jpg
1508.52	0.558	correct	repeat	Run2	repeat/STIM_002.jpg
1512.91	0.689	correct	repeat	Run2	repeat/STIM_002.jpg
1516.708	0.942	correct	repeat	Run2	repeat/STIM_002.jpg
1520.021	0.705	correct	repeat	Run2	repeat/STIM_002.jpg
1523.064	1.014	correct	repeat	Run2	repeat/STIM_002.jpg
1527.267	0.614	correct	repeat	Run2	repeat/STIM_003.jpg
1531.124	0.724	correct	repeat	Run2	repeat/STIM_003.jpg
1535.442	0.725	correct	repeat	Run2	repeat/STIM_003.jpg
1539.91	0.532	incorrect	repeat	Run2	repeat/STIM_003.jpg
1543.619	0.819	correct	repeat	Run2	repeat/STIM_003.jpg
1548.297	0.744	correct	repeat	Run2	repeat/STIM_004.jpg
1552.265	1.022	correct	repeat	Run2	repeat/STIM_004.jpg
1556.468	0.568	correct	repeat	Run2	repeat/STIM_004.jpg
1559.951	0.552	correct	repeat	Run2	repeat/STIM_004.jpg
1562.796	1.007	correct	repeat	Run2	repeat/STIM_004.jpg
1567.063	0.554	correct	repeat	Run2	repeat/STIM_005.jpg
1570.005	0.557	correct	repeat	Run2	repeat/STIM_005.jpg
1572.952	0.53	correct	repeat	Run2	repeat/STIM_005.jpg
1577.272	0.906	correct	repeat	Run2	repeat/STIM_005.jpg
1581.236	0.519	correct	repeat	Run2	repeat/STIM_005.jpg
1583.981	0.528	incorrect	repeat	Run2	repeat/STIM_006.jpg
1587.9	0.787	correct	repeat	Run2	repeat/STIM_006.jpg
1591.986	0.708	correct	repeat	Run2	repeat/STIM_006.jpg
1596.579	0.697	correct	repeat	Run2	repeat/STIM_006.jpg
1599.466	0.798	correct	repeat	Run2	repeat/STIM_006.jpg
1602.979	0.655	correct	repeat	Run2	repeat/STIM_007.jpg
1606.339	0.724	correct	repeat	Run2	repeat/STIM_007.jpg
1609.829	0.782	correct	repeat	Run2	repeat/STIM_007.jpg
1613.687	0.6	incorrect	repeat	Run2	repeat/STIM_007.jpg
1617.612	0.567	correct	repeat	Run2	repeat/STIM_007.jpg
1622.155	0.784	correct	repeat	Run2	repeat/STIM_008.jpg
1625.342	0.56	correct	repeat	Run2	repeat/STIM_008.jpg
1628.902	0.562	correct	repeat	Run2	repeat/STIM_008.jpg
1632.447	0.81	correct	repeat	Run2	repeat/STIM_008.jpg
1635.769	1.004	correct	repeat	Run2	repeat/STIM_008.jpg
1639.144	0.611	correct	repeat	Run2	repeat/STIM_009.jpg
1643.332	0.775	correct	repeat	Run2	repeat/STIM_009.jpg
1647.698	0.986	correct	repeat	Run2	repeat/STIM_009.jpg
1651.119	0.687	correct	repeat	Run2	repeat/STIM_009.jpg
1653.916	0.561	correct	repeat	Run2	repeat/STIM_009.jpg
1656.692	0.603	correct	repeat	Run2	repeat/STIM_010.jpg
1660.093	0.913	correct	repeat	Run2	repeat/STIM_010.jpg
1663.689	0.901	correct	repeat	Run2	repeat/STIM_010.jpg
1667.133	0.694	correct	repeat	Run2	repeat/STIM_010.jpg
1671.002	0.736	correct	repeat	Run2	repeat/STIM_010.jpg
1675.339	0.805	correct	repeat	Run2	repeat/STIM_011.jpg
1679.968	0.569	correct	repeat	Run2	repeat/STIM_011.jpg
1684.169	0.724	correct	repeat	Run2	repeat/STIM_011.jpg
1687.328	0.868	correct	repeat	Run2	repeat/STIM_011.jpg
1691.996	0.851	correct	repeat	Run2	repeat/STIM_011.jpg
1695.133	0.575	correct	repeat	Run2	repeat/STIM_012.jpg
1698.301	0.544	correct	repeat	Run2	repeat/STIM_012.jpg
1702.069	0.582	correct	repeat	Run2	repeat/STIM_012.jpg
1705.349	0.604	correct	repeat	Run2	repeat/STIM_012.jpg
1709.471	1.002	incorrect	repeat	Run2	repeat/STIM_012.jpg
1714.121	0.518	correct	repeat	Run2	repeat/STIM_013.jpg
1717.424	0.659	correct	repeat	Run2	repeat/STIM_013.jpg
1721.324	0.791	correct	repeat	Run2	repeat/STIM_013.jpg
1724.624	0.76	correct	repeat	Run2	repeat/STIM_013.jpg
1727.858	0.937	correct	repeat	Run2	repeat/STIM_013.jpg
1731.776	0.593	incorrect	repeat	Run2	repeat/STIM_014.jpg
1734.563	0.656	correct	repeat	Run2	repeat/STIM_014.jpg
1739.073	0.81	correct	repeat	Run2	repeat/STIM_014.jpg
1742.309	0.994	correct	repeat	Run2	repeat/STIM_014.jpg
1746.841	0.637	correct	repeat	Run2	repeat/STIM_014.jpg
1749.965	1.484	correct	generate	Run3	generate/STIM_000.jpg
1754.035	1.76	incorrect	generate	Run3	generate/STIM_000.jpg
1759.717	1.388	correct	generate	Run3	generate/STIM_000.jpg
1764.653	1.225	correct	generate	Run3	generate/STIM_000.jpg
1768.254	1.501	correct	generate	Run3	generate/STIM_000.jpg
1773.061	1.889	correct	generate	Run3	generate/STIM_001.jpg
1778.714	1.384	correct	generate	Run3	generate/STIM_001.jpg
1782.736	1.946	correct	generate	Run3	generate/STIM_001.jpg
1787.544	1.217	correct	generate	Run3	generate/STIM_001.jpg
1791.392	2.004	incorrect	generate	Run3	generate/STIM_001.jpg
1796.905	2.091	correct	generate	Run3	generate/STIM_002.jpg
1801.954	1.155	correct	generate	Run3	generate/STIM_002.jpg
1806.563	2.078	correct	generate	Run3	generate/STIM_002.jpg
1811.038	1.374	incorrect	generate	Run3	generate/STIM_002.jpg
1814.649	1.183	correct	generate	Run3	generate/STIM_002.jpg
1819.142	1.131	correct	generate	Run3	generate/STIM_003.jpg
1822.84	1.313	correct	generate	Run3	generate/STIM_003.jpg
1826.437	1.43	correct	generate	Run3	generate/STIM_003.jpg
1831.429	1.538	correct	generate	Run3	generate/STIM_003.jpg
1836.177	1.815	correct	generate	Run3	generate/STIM_003.jpg
1840.545	1.118	correct	generate	Run3	generate/STIM_004.jpg
1843.889	1.182	correct	generate	Run3	generate/STIM_004.jpg
1847.331	1.843	correct	generate	Run3	generate/STIM_004.jpg
1852.372	1.063	correct	generate	Run3	generate/STIM_004.jpg
1855.445	1.072	correct	generate	Run3	generate/STIM_004.jpg
1859.456	2.139	correct	generate	Run3	generate/STIM_005.jpg
1865.409	1.954	incorrect	generate	Run3	generate/STIM_005.jpg
1870.06	1.145	correct	generate	Run3	generate/STIM_005.jpg
1873.37	1.801	correct	generate	Run3	generate/STIM_005.jpg
1877.236	1.305	correct	generate	Run3	generate/STIM_005.jpg
1881.418	0.983	correct	generate	Run3	generate/STIM_006.jpg
1885.942	2.015	correct	generate	Run3	generate/STIM_006.jpg
1889.913	1.096	correct	generate	Run3	generate/STIM_006.jpg
1894.368	1.45	correct	generate	Run3	generate/STIM_006.jpg
1898.327	1.476	correct	generate	Run3	generate/STIM_006.jpg
1903.2	0.993	correct	generate	Run3	generate/STIM_007.jpg
1906.868	1.945	correct	generate	Run3	generate/STIM_007.jpg
1912.684	1.854	correct	generate	Run3	generate/STIM_007.jpg
1917.469	0.907	correct	generate	Run3	generate/STIM_007.jpg
1920.456	1.329	correct	generate	Run3	generate/STIM_007.jpg
1924.787	1.062	correct	generate	Run3	generate/STIM_008.jpg
1927.927	1.263	correct	generate	Run3	generate/STIM_008.jpg
1931.796	1.276	correct	generate	Run3	generate/STIM_008.jpg
1936.131	1.761	correct	generate	Run3	generate/STIM_008.jpg
1940.628	1.939	incorrect	generate	Run3	generate/STIM_008.jpg
1945.715	1.172	correct	generate	Run3	generate/STIM_009.jpg
1949.269	1.717	incorrect	generate	Run3	generate/STIM_009.jpg
1954.879	2.069	correct	generate	Run3	generate/STIM_009.jpg
1958.914	0.944	correct	generate	Run3	generate/STIM_009.jpg
1962.352	1.036	correct	generate	Run3	generate/STIM_009.jpg
1966.848	1.438	incorrect	generate	Run3	generate/STIM_010.jpg
1970.525	1.803	correct	generate	Run3	generate/STIM_010.jpg
1975.626	1.681	correct	generate	Run3	generate/STIM_010.jpg
1981.074	1.504	correct	generate	Run3	generate/STIM_010.jpg
1986.345	1.599	correct	generate	Run3	generate/STIM_010.jpg
1990.86	1.124	correct	generate	Run3	generate/STIM_011.jpg
1994.235	1.988	correct	generate	Run3	generate/STIM_011.jpg
1998.851	1.434	correct	generate	Run3	generate/STIM_011.jpg
2004.204	1.085	correct	generate	Run3	generate/STIM_011.jpg
2008.527	1.889	correct	generate	Run3	generate/STIM_011.jpg
2013.032	1.467	incorrect	generate	Run3	generate/STIM_012.jpg
2018.136	1.373	correct	generate	Run3	generate/STIM_012.jpg
2023.037	1.785	correct	generate	Run3	generate/STIM_012.jpg
2027.524	1.886	correct	generate	Run3	generate/STIM_012.jpg
2031.867	1.775	correct	generate	Run3	generate/STIM_012.jpg
2036.151	2.028	correct	generate	Run3	generate/STIM_013.jpg
2040.829	1.13	correct	generate	Run3	generate/STIM_013.jpg
2045.401	1.785	correct	generate	Run3	generate/STIM_013.jpg
2050.386	1.409	correct	generate	Run3	generate/STIM_013.jpg
2054.265	2.041	incorrect	generate	Run3	generate/STIM_013.jpg
2059.526	0.877	correct	generate	Run3	generate/STIM_014.jpg
2063.65	1.648	correct	generate	Run3	generate/STIM_014.jpg
2067.899	1.401	correct	generate	Run3	generate/STIM_014.jpg
2072.852	0.979	correct	generate	Run3	generate/STIM_014.jpg
2077.475	1.337	correct	generate	Run3	generate/STIM_014.jpg
2081.194	1.629	incorrect	generate	Run3	generate/STIM_015.jpg
2085.192	2.123	correct	generate	Run3	generate/STIM_015.jpg
2089.857	1.568	incorrect	generate	Run3	generate/STIM_015.jpg
2093.935	1.937	correct	generate	Run3	generate/STIM_015.jpg
2098.901	1.988	correct	generate	Run3	generate/STIM_015.jpg
2104.385	1.057	correct	generate	Run3	generate/STIM_016.jpg
2109.115	0.982	correct	generate	Run3	generate/STIM_016.jpg
2113.85	1.372	correct	generate	Run3	generate/STIM_016.jpg
2119.074	1.318	correct	generate	Run3	generate/STIM_016.jpg
2123.557	1.869	correct	generate	Run3	generate/STIM_016.jpg
2128.545	1.199	correct	generate	Run3	generate/STIM_017.jpg
2131.752	1.568	incorrect	generate	Run3	generate/STIM_017.jpg
2136.195	2.106	correct	generate	Run3	generate/STIM_017.jpg
2142.195	1.183	correct	generate	Run3	generate/STIM_017.jpg
2147.072	0.904	correct	generate	Run3	generate/STIM_017.jpg
2150.944	1.923	correct	generate	Run3	generate/STIM_018.jpg
2156.229	1.856	correct	generate	Run3	generate/STIM_018.jpg
2161.478	1.463	correct	generate	Run3	generate/STIM_018.jpg
2166.865	2.138	correct	generate	Run3	generate/STIM_018.jpg
2172.844	1.534	correct	generate	Run3	generate/STIM_018.jpg
2177.786	1.144	correct	generate	Run3	generate/STIM_019.jpg
2181.964	1.909	correct	generate	Run3	generate/STIM_019.jpg
2187.807	0.881	correct	generate	Run3	generate/STIM_019.jpg
2192.431	1.045	correct	generate	Run3	generate/STIM_019.jpg
2195.852	1.926	correct	generate	Run3	generate/STIM_019.jpg
2201.314	1.369	correct	generate	Run3	generate/STIM_020.jpg
2206.462	1.709	correct	generate	Run3	generate/STIM_020.jpg
2212.053	1.31	correct	generate	Run3	generate/STIM_020.jpg
2216.469	0.919	correct	generate	Run3	generate/STIM_020.jpg
2220.145	1.501	correct	generate	Run3	generate/STIM_020.jpg
2225.162	0.974	correct	generate	Run3	generate/STIM_021.jpg
2228.966	1.61	incorrect	generate	Run3	generate/STIM_021.jpg
2233.228	1.118	correct	generate	Run3	generate/STIM_021.jpg
2237.137	1.434	correct	generate	Run3	generate/STIM_021.jpg
2241.488	1.806	correct	generate	Run3	generate/STIM_021.jpg
2246.535	1.662	correct	generate	Run3	generate/STIM_022.jpg
2251.298	1.246	correct	generate	Run3	generate/STIM_022.jpg
2256.025	1.178	correct	generate	Run3	generate/STIM_022.jpg
2259.217	1.849	correct	generate	Run3	generate/STIM_022.jpg
2264.426	1.091	correct	generate	Run3	generate/STIM_022.jpg
2269.215	1.353	correct	generate	Run3	generate/STIM_023.jpg
2273.999	1.291	correct	generate	Run3	generate/STIM_023.jpg
2277.733	1.672	correct	generate	Run3	generate/STIM_023.jpg
2283.245	1.54	correct	generate	Run3	generate/STIM_023.jpg
2288.682	0.977	correct	generate	Run3	generate/STIM_023.jpg
2292.581	0.918	correct	generate	Run3	generate/STIM_024.jpg
2296.574	1.892	correct	generate	Run3	generate/STIM_024.jpg
2300.672	1.861	correct	generate	Run3	generate/STIM_024.jpg
2304.753	0.989	correct	generate	Run3	generate/STIM_024.jpg
2308.552	1.666	correct	generate	Run3	generate/STIM_024.jpg
2312.281	0.616	correct	repeat	Run3	repeat/STIM_000.jpg
2315.885	0.91	correct	repeat	Run3	repeat/STIM_000.jpg
2319.876	0.686	correct	repeat	Run3	repeat/STIM_000.jpg
2323.51	0.984	correct	repeat	Run3	repeat/STIM_000.jpg
2327.182	0.834	correct	repeat	Run3	repeat/STIM_000.jpg
2331.695	0.61	correct	repeat	Run3	repeat/STIM_001.jpg
2335.522	0.737	correct	repeat	Run3	repeat/STIM_001.jpg
2340.103	0.666	correct	repeat	Run3	repeat/STIM_001.jpg
2343.513	0.818	correct	repeat	Run3	repeat/STIM_001.jpg
2346.413	0.659	correct	repeat	Run3	repeat/STIM_001.jpg
2350.323	0.556	correct	repeat	Run3	repeat/STIM_002.jpg
2354.377	0.614	correct	repeat	Run3	repeat/STIM_002.jpg
2357.091	0.602	correct	repeat	Run3	repeat/STIM_002.jpg
2360.733	0.567	correct	repeat	Run3	repeat/STIM_002.jpg
2364.006	0.854	correct	repeat	Run3	repeat/STIM_002.jpg
2368.244	0.811	correct	repeat	Run3	repeat/STIM_003.jpg
2372.237	0.788	correct	repeat	Run3	repeat/STIM_003.jpg
2375.907	0.788	correct	repeat	Run3	repeat/STIM_003.jpg
2380.119	0.596	incorrect	repeat	Run3	repeat/STIM_003.jpg
2384.573	0.521	correct	repeat	Run3	repeat/STIM_003.jpg
2387.69	0.874	correct	repeat	Run3	repeat/STIM_004.jpg
2390.806	0.846	correct	repeat	Run3	repeat/STIM_004.jpg
2395.506	0.943	correct	repeat	Run3	repeat/STIM_004.jpg
2399.647	0.547	correct	repeat	Run3	repeat/STIM_004.jpg
2402.61	0.844	correct	repeat	Run3	repeat/STIM_004.jpg
2406.528	0.752	correct	repeat	Run3	repeat/STIM_005.jpg
2410.528	0.748	correct	repeat	Run3	repeat/STIM_005.jpg
2414.325	0.786	correct	repeat	Run3	repeat/STIM_005.jpg
2417.937	0.552	incorrect	repeat	Run3	repeat/STIM_005.jpg
2420.495	0.607	correct	repeat	Run3	repeat/STIM_005.jpg
2424.178	1.008	correct	repeat	Run3	repeat/STIM_006.jpg
2427.59	1.011	correct	repeat	Run3	repeat/STIM_006.jpg
2432.37	0.515	correct	repeat	Run3	repeat/STIM_006.jpg
2436.26	0.516	correct	repeat	Run3	repeat/STIM_006.jpg
2440.34	0.952	correct	repeat	Run3	repeat/STIM_006.jpg
2443.839	0.675	incorrect	repeat	Run3	repeat/STIM_007.jpg
2446.667	0.846	correct	repeat	Run3	repeat/STIM_007.jpg
2449.81	0.535	correct	repeat	Run3	repeat/STIM_007.jpg
2452.36	0.975	correct	repeat	Run3	repeat/STIM_007.jpg
2455.451	0.601	correct	repeat	Run3	repeat/STIM_007.jpg
2459.962	0.951	correct	repeat	Run3	repeat/STIM_008.jpg
2464.163	0.737	correct	repeat	Run3	repeat/STIM_008.jpg
2468.584	0.516	correct	repeat	Run3	repeat/STIM_008.jpg
2472.892	0.584	correct	repeat	Run3	repeat/STIM_008.jpg
2475.874	0.589	correct	repeat	Run3	repeat/STIM_008.jpg
2479.302	0.933	incorrect	repeat	Run3	repeat/STIM_009.jpg
2483.023	0.763	correct	repeat	Run3	repeat/STIM_009.jpg
2486.163	0.668	correct	repeat	Run3	repeat/STIM_009.jpg
2490.375	0.743	incorrect	repeat	Run3	repeat/STIM_009.jpg
2494.949	0.619	correct	repeat	Run3	repeat/STIM_009.jpg
2499.202	0.601	correct	repeat	Run3	repeat/STIM_010.jpg
2501.881	1.015	correct	repeat	Run3	repeat/STIM_010.jpg
2504.883	0.655	correct	repeat	Run3	repeat/STIM_010.jpg
2508.82	0.647	correct	repeat	Run3	repeat/STIM_010.jpg
2511.999	1.026	correct	repeat	Run3	repeat/STIM_010.jpg
2515.93	0.887	correct	repeat	Run3	repeat/STIM_011.jpg
2520.554	0.997	correct	repeat	Run3	repeat/STIM_011.jpg
2525.343	0.988	correct	repeat	Run3	repeat/STIM_011.jpg
2529.612	0.804	incorrect	repeat	Run3	repeat/STIM_011.jpg
2533.066	0.615	correct	repeat	Run3	repeat/STIM_011.jpg
2536.283	0.56	correct	repeat	Run3	repeat/STIM_012.jpg
2539.178	1.003	correct	repeat	Run3	repeat/STIM_012.jpg
2542.718	0.882	correct	repeat	Run3	repeat/STIM_012.jpg
2547.337	0.862	correct	repeat	Run3	repeat/STIM_012.jpg
2551.44	0.889	incorrect	repeat	Run3	repeat/STIM_012.jpg
2555.555	0.796	correct	repeat	Run3	repeat/STIM_013.jpg
2559.589	0.627	correct	repeat	Run3	repeat/STIM_013.jpg
2563.852	0.739	correct	repeat	Run3	repeat/STIM_013.jpg
2567.94	0.976	correct	repeat	Run3	repeat/STIM_013.jpg
2572.196	0.698	correct	repeat	Run3	repeat/STIM_013.jpg
2576.592	0.719	correct	repeat	Run3	repeat/STIM_014.jpg
2580.258	0.681	correct	repeat	Run3	repeat/STIM_014.jpg
2583.575	0.962	correct	repeat	Run3	repeat/STIM_014.jpg
2587.068	0.696	correct	repeat	Run3	repeat/STIM_014.jpg
2590.776	0.672	correct	repeat	Run3	repeat/STIM_014.jpg
2594.247	1.863	correct	generate	Run4	generate/STIM_000.jpg
2599.07	2.051	correct	generate	Run4	generate/STIM_000.jpg
2604.209	1.162	correct	generate	Run4	generate/STIM_000.jpg
2607.794	1.166	correct	generate	Run4	generate/STIM_000.jpg
2612.079	0.864	correct	generate	Run4	generate/STIM_000.jpg
2615.575	1.154	correct	generate	Run4	generate/STIM_001.jpg
2620.261	1.923	correct	generate	Run4	generate/STIM_001.jpg
2625.454	0.99	correct	generate	Run4	generate/STIM_001.jpg
2630.375	0.901	correct	generate	Run4	generate/STIM_001.jpg
2633.704	1.099	correct	generate	Run4	generate/STIM_001.jpg
2638.425	0.945	correct	generate	Run4	generate/STIM_002.jpg
2643.075	1.24	correct	generate	Run4	generate/STIM_002.jpg
2647.923	1.699	correct	generate	Run4	generate/STIM_002.jpg
2652.093	1.863	correct	generate	Run4	generate/STIM_002.jpg
2656.149	1.439	correct	generate	Run4	generate/STIM_002.jpg
2660.145	1.034	correct	generate	Run4	generate/STIM_003.jpg
2664.456	1.707	correct	generate	Run4	generate/STIM_003.jpg
2669.869	2.05	correct	generate	Run4	generate/STIM_003.jpg
2673.95	1.463	correct	generate	Run4	generate/STIM_003.jpg
2678.968	1.21	correct	generate	Run4	generate/STIM_003.jpg
2683.808	2.051	correct	generate	Run4	generate/STIM_004.jpg
2689.764	1.854	correct	generate	Run4	generate/STIM_004.jpg
2694.453	1.488	correct	generate	Run4	generate/STIM_004.jpg
2699.735	1.782	correct	generate	Run4	generate/STIM_004.jpg
2703.922	1.764	correct	generate	Run4	generate/STIM_004.jpg
2708.436	2.14	correct	generate	Run4	generate/STIM_005.jpg
2713.489	0.905	correct	generate	Run4	generate/STIM_005.jpg
2717.371	1.006	correct	generate	Run4	generate/STIM_005.jpg
2721.801	1.21	correct	generate	Run4	generate/STIM_005.jpg
2726.672	1.691	correct	generate	Run4	generate/STIM_005.jpg
2730.645	0.892	correct	generate	Run4	generate/STIM_006.jpg
2734.981	1.717	correct	generate	Run4	generate/STIM_006.jpg
2739.214	2.034	correct	generate	Run4	generate/STIM_006.jpg
2743.845	1.803	correct	generate	Run4	generate/STIM_006.jpg
2749.344	1.108	correct	generate	Run4	generate/STIM_006.jpg
2754.081	1.105	correct	generate	Run4	generate/STIM_007.jpg
2757.968	1.571	correct	generate	Run4	generate/STIM_007.jpg
2762.559	1.892	correct	generate	Run4	generate/STIM_007.jpg
2766.692	0.885	correct	generate	Run4	generate/STIM_007.jpg
2771.415	1.253	correct	generate	Run4	generate/STIM_007.jpg
2775.81	1.003	correct	generate	Run4	generate/STIM_008.jpg
2780.19	1.086	correct	generate	Run4	generate/STIM_008.jpg
2783.284	1.921	correct	generate	Run4	generate/STIM_008.jpg
2788.026	1.418	correct	generate	Run4	generate/STIM_008.jpg
2792.557	1.394	correct	generate	Run4	generate/STIM_008.jpg
2797.413	0.935	correct	generate	Run4	generate/STIM_009.jpg
2801.53	2.126	correct	generate	Run4	generate/STIM_009.jpg
2807.352	1.966	correct	generate	Run4	generate/STIM_009.jpg
2811.357	1.725	correct	generate	Run4	generate/STIM_009.jpg
2815.522	1.742	correct	generate	Run4	generate/STIM_009.jpg
2820.916	1.211	correct	generate	Run4	generate/STIM_010.jpg
2824.768	2.005	correct	generate	Run4	generate/STIM_010.jpg
2829.792	1.665	correct	generate	Run4	generate/STIM_010.jpg
2835.369	1.076	correct	generate	Run4	generate/STIM_010.jpg
2838.782	1.645	correct	generate	Run4	generate/STIM_010.jpg
2842.827	1.594	correct	generate	Run4	generate/STIM_011.jpg
2848.283	1.188	incorrect	generate	Run4	generate/STIM_011.jpg
2851.861	1.228	correct	generate	Run4	generate/STIM_011.jpg
2855.331	1.412	correct	generate	Run4	generate/STIM_011.jpg
2860.49	1.989	correct	generate	Run4	generate/STIM_011.jpg
2865.437	1.12	correct	generate	Run4	generate/STIM_012.jpg
2869.375	1.383	correct	generate	Run4	generate/STIM_012.jpg
2874.308	1.005	correct	generate	Run4	generate/STIM_012.jpg
2877.879	1.654	correct	generate	Run4	generate/STIM_012.jpg
2882.601	1.273	correct	generate	Run4	generate/STIM_012.jpg
2886.222	1.219	correct	generate	Run4	generate/STIM_013.jpg
2890.191	1.887	correct	generate	Run4	generate/STIM_013.jpg
2894.12	1.315	incorrect	generate	Run4	generate/STIM_013.jpg
2897.52	1.085	correct	generate	Run4	generate/STIM_013.jpg
2901.271	1.44	correct	generate	Run4	generate/STIM_013.jpg
2906.511	1.445	correct	generate	Run4	generate/STIM_014.jpg
2910.862	2.122	correct	generate	Run4	generate/STIM_014.jpg
2915.473	1.506	correct	generate	Run4	generate/STIM_014.jpg
2920.069	1.592	correct	generate	Run4	generate/STIM_014.jpg
2925.412	1.468	correct	generate	Run4	generate/STIM_014.jpg
2929.361	1.235	correct	generate	Run4	generate/STIM_015.jpg
2933.156	1.492	correct	generate	Run4	generate/STIM_015.jpg
2937.34	1.688	correct	generate	Run4	generate/STIM_015.jpg
2942.62	0.907	correct	generate	Run4	generate/STIM_015.jpg
2946.651	1.532	correct	generate	Run4	generate/STIM_015.jpg
2950.845	0.884	correct	generate	Run4	generate/STIM_016.jpg
2954.045	1.881	correct	generate	Run4	generate/STIM_016.jpg
2958.756	1.941	correct	generate	Run4	generate/STIM_016.jpg
2963.306	1.919	correct	generate	Run4	generate/STIM_016.jpg
2968.961	1.626	correct	generate	Run4	generate/STIM_016.jpg
2973.219	1.553	correct	generate	Run4	generate/STIM_017.jpg
2976.807	1.919	correct	generate	Run4	generate/STIM_017.jpg
2982.148	1.607	correct	generate	Run4	generate/STIM_017.jpg
2986.044	1.776	correct	generate	Run4	generate/STIM_017.jpg
2991.273	1.925	correct	generate	Run4	generate/STIM_017.jpg
2996.125	2.125	correct	generate	Run4	generate/STIM_018.jpg
3000.298	0.996	correct	generate	Run4	generate/STIM_018.jpg
3005.048	1.32	incorrect	generate	Run4	generate/STIM_018.jpg
3008.43	1.817	correct	generate	Run4	generate/STIM_018.jpg
3012.854	1.538	correct	generate	Run4	generate/STIM_018.jpg
3017.652	2.025	correct	generate	Run4	generate/STIM_019.jpg
3023.468	1.662	correct	generate	Run4	generate/STIM_019.jpg
3027.557	1.085	correct	generate	Run4	generate/STIM_019.jpg
3032.385	1.09	correct	generate	Run4	generate/STIM_019.jpg
3037.21	1.65	correct	generate	Run4	generate/STIM_019.jpg
3041.963	1.614	correct	generate	Run4	generate/STIM_020.jpg
3046.258	1.828	correct	generate	Run4	generate/STIM_020.jpg
3051.957	1.118	correct	generate	Run4	generate/STIM_020.jpg
3055.434	1.862	correct	generate	Run4	generate/STIM_020.jpg
3061.119	0.974	correct	generate	Run4	generate/STIM_020.jpg
3064.813	2.085	correct	generate	Run4	generate/STIM_021.jpg
3068.92	0.886	correct	generate	Run4	generate/STIM_021.jpg
3072.299	1.383	correct	generate	Run4	generate/STIM_021.jpg
3076.129	1.392	correct	generate	Run4	generate/STIM_021.jpg
3080.324	1.501	correct	generate	Run4	generate/STIM_021.jpg
3085.742	0.882	correct	generate	Run4	generate/STIM_022.jpg
3088.804	2.045	correct	generate	Run4	generate/STIM_022.jpg
3093.937	1.753	correct	generate	Run4	generate/STIM_022.jpg
3097.869	1.098	correct	generate	Run4	generate/STIM_022.jpg
3101.198	0.985	correct	generate	Run4	generate/STIM_022.jpg
3104.836	1.783	correct	generate	Run4	generate/STIM_023.jpg
3110.043	1.144	correct	generate	Run4	generate/STIM_023.jpg
3113.687	1.158	correct	generate	Run4	generate/STIM_023.jpg
3118.528	1.472	correct	generate	Run4	generate/STIM_023.jpg
3122.822	1.53	correct	generate	Run4	generate/STIM_023.jpg
3128.079	1.188	correct	generate	Run4	generate/STIM_024.jpg
3132.909	1.271	correct	generate	Run4	generate/STIM_024.jpg
3136.717	1.067	correct	generate	Run4	generate/STIM_024.jpg
3141.476	1.516	correct	generate	Run4	generate/STIM_024.jpg
3146.173	2.035	correct	generate	Run4	generate/STIM_024.jpg
3151.332	0.977	correct	repeat	Run4	repeat/STIM_000.jpg
3155.411	0.58	correct	repeat	Run4	repeat/STIM_000.jpg
3159.767	0.592	correct	repeat	Run4	repeat/STIM_000.jpg
3163.734	0.926	correct	repeat	Run4	repeat/STIM_000.jpg
3168.566	0.731	correct	repeat	Run4	repeat/STIM_000.jpg
3172.137	0.663	correct	repeat	Run4	repeat/STIM_001.jpg
3176.141	0.522	incorrect	repeat	Run4	repeat/STIM_001.jpg
3179.283	0.709	correct	repeat	Run4	repeat/STIM_001.jpg
3183.852	0.565	correct	repeat	Run4	repeat/STIM_001.jpg
3187.029	0.777	correct	repeat	Run4	repeat/STIM_001.jpg
3190.006	0.684	correct	repeat	Run4	repeat/STIM_002.jpg
3194.323	0.719	correct	repeat	Run4	repeat/STIM_002.jpg
3197.872	0.79	correct	repeat	Run4	repeat/STIM_002.jpg
3201.226	0.838	correct	repeat	Run4	repeat/STIM_002.jpg
3205.477	1.021	correct	repeat	Run4	repeat/STIM_002.jpg
3209.12	0.914	correct	repeat	Run4	repeat/STIM_003.jpg
3213.835	1.003	correct	repeat	Run4	repeat/STIM_003.jpg
3218.255	0.996	correct	repeat	Run4	repeat/STIM_003.jpg
3222.851	0.784	correct	repeat	Run4	repeat/STIM_003.jpg
3225.657	0.535	correct	repeat	Run4	repeat/STIM_003.jpg
3229.24	0.668	correct	repeat	Run4	repeat/STIM_004.jpg
3232.176	0.878	correct	repeat	Run4	repeat/STIM_004.jpg
3236.546	0.878	correct	repeat	Run4	repeat/STIM_004.jpg
3240.55	0.882	correct	repeat	Run4	repeat/STIM_004.jpg
3245.316	0.642	correct	repeat	Run4	repeat/STIM_004.jpg
3249.123	0.902	correct	repeat	Run4	repeat/STIM_005.jpg
3253.497	0.587	correct	repeat	Run4	repeat/STIM_005.jpg
3257.267	0.763	correct	repeat	Run4	repeat/STIM_005.jpg
3260.093	0.931	correct	repeat	Run4	repeat/STIM_005.jpg
3263.069	0.671	correct	repeat	Run4	repeat/STIM_005.jpg
3265.78	0.59	correct	repeat	Run4	repeat/STIM_006.jpg
3269.499	0.781	correct	repeat	Run4	repeat/STIM_006.jpg
3273.911	0.55	correct	repeat	Run4	repeat/STIM_006.jpg
3277.289	0.893	correct	repeat	Run4	repeat/STIM_006.jpg
3281.961	0.991	correct	repeat	Run4	repeat/STIM_006.jpg
3286.74	0.936	incorrect	repeat	Run4	repeat/STIM_007.jpg
3291.268	0.771	correct	repeat	Run4	repeat/STIM_007.jpg
3294.171	0.73	correct	repeat	Run4	repeat/STIM_007.jpg
3297.459	0.846	correct	repeat	Run4	repeat/STIM_007.jpg
3301.245	0.851	correct	repeat	Run4	repeat/STIM_007.jpg
3304.867	0.78	correct	repeat	Run4	repeat/STIM_008.jpg
3309.395	0.871	correct	repeat	Run4	repeat/STIM_008.jpg
3314.051	0.593	correct	repeat	Run4	repeat/STIM_008.jpg
3318.375	0.866	correct	repeat	Run4	repeat/STIM_008.jpg
3322.245	0.994	correct	repeat	Run4	repeat/STIM_008.jpg
3326.9	0.924	correct	repeat	Run4	repeat/STIM_009.jpg
3331.312	0.556	correct	repeat	Run4	repeat/STIM_009.jpg
3334.515	0.52	correct	repeat	Run4	repeat/STIM_009.jpg
3337.389	0.9	correct	repeat	Run4	repeat/STIM_009.jpg
3342.029	0.76	correct	repeat	Run4	repeat/STIM_009.jpg
3346.261	0.786	correct	repeat	Run4	repeat/STIM_010.jpg
3349.887	1.011	correct	repeat	Run4	repeat/STIM_010.jpg
3354.388	0.579	correct	repeat	Run4	repeat/STIM_010.jpg
3357.55	0.646	correct	repeat	Run4	repeat/STIM_010.jpg
3361.314	0.672	correct	repeat	Run4	repeat/STIM_010.jpg
3364.278	0.612	correct	repeat	Run4	repeat/STIM_011.jpg
3368.104	1.006	correct	repeat	Run4	repeat/STIM_011.jpg
3371.187	0.862	correct	repeat	Run4	repeat/STIM_011.jpg
3374.953	0.998	correct	repeat	Run4	repeat/STIM_011.jpg
3378.876	0.985	correct	repeat	Run4	repeat/STIM_011.jpg
3381.92	1.003	correct	repeat	Run4	repeat/STIM_012.jpg
3385.881	0.751	correct	repeat	Run4	repeat/STIM_012.jpg
3390.061	0.851	correct	repeat	Run4	repeat/STIM_012.jpg
3393.166	0.91	incorrect	repeat	Run4	repeat/STIM_012.jpg
3397.328	0.992	correct	repeat	Run4	repeat/STIM_012.jpg
3400.435	0.738	correct	repeat	Run4	repeat/STIM_013.jpg
3403.787	0.706	correct	repeat	Run4	repeat/STIM_013.jpg
3407.28	0.852	correct	repeat	Run4	repeat/STIM_013.jpg
3411.77	0.692	incorrect	repeat	Run4	repeat/STIM_013.jpg
3415.298	0.537	correct	repeat	Run4	repeat/STIM_013.jpg
3419.41	0.954	correct	repeat	Run4	repeat/STIM_014.jpg
3423.402	0.537	correct	repeat	Run4	repeat/STIM_014.jpg
3426.847	0.893	correct	repeat	Run4	repeat/STIM_014.jpg
3430.919	0.819	correct	repeat	Run4	repeat/STIM_014.jpg
3434.103	0.628	correct	repeat	Run4	repeat/STIM_014.jpg
