onset	duration	accuracy	trial_type	learning_stage	stimulus
0.0	1.289	correct	generate	Run1	generate/STIM_000.jpg
3.561	2.325	correct	generate	Run1	generate/STIM_000.jpg
8.12	1.06	correct	generate	Run1	generate/STIM_000.jpg
12.427	1.282	correct	generate	Run1	generate/STIM_000.jpg
16.65	1.104	correct	generate	Run1	generate/STIM_000.jpg
20.172	2.15	correct	generate	Run1	generate/STIM_001.jpg
24.884	2.334	correct	generate	Run1	generate/STIM_001.jpg
30.287	1.885	correct	generate	Run1	generate/STIM_001.jpg
35.823	1.267	correct	generate	Run1	generate/STIM_001.jpg
40.484	1.429	correct	generate	Run1	generate/STIM_001.jpg
44.805	1.389	incorrect	generate	Run1	generate/STIM_002.jpg
48.948	2.237	correct	generate	Run1	generate/STIM_002.jpg
53.472	1.188	correct	generate	Run1	generate/STIM_002.jpg
56.856	2.064	incorrect	generate	Run1	generate/STIM_002.jpg
62.128	1.208	correct	generate	Run1	generate/STIM_002.jpg
65.402	1.128	correct	generate	Run1	generate/STIM_003.jpg
69.622	1.662	correct	generate	Run1	generate/STIM_003.jpg
74.079	2.295	correct	generate	Run1	generate/STIM_003.jpg
78.565	2.17	correct	generate	Run1	generate/STIM_003.jpg
84.164	1.583	correct	generate	Run1	generate/STIM_003.jpg
88.747	1.133	incorrect	generate	Run1	generate/STIM_004.jpg
93.267	2.134	correct	generate	Run1	generate/STIM_004.jpg
98.729	2.019	correct	generate	Run1	generate/STIM_004.jpg
103.98	1.469	correct	generate	Run1	generate/STIM_004.jpg
108.491	1.515	correct	generate	Run1	generate/STIM_004.jpg
113.465	2.521	incorrect	generate	Run1	generate/STIM_005.jpg
119.408	2.419	correct	generate	Run1	generate/STIM_005.jpg
124.518	1.009	correct	generate	Run1	generate/STIM_005.jpg
127.919	1.479	correct	generate	Run1	generate/STIM_005.jpg
132.698	1.208	correct	generate	Run1	generate/STIM_005.jpg
135.952	1.543	incorrect	generate	Run1	generate/STIM_006.jpg
141.164	2.484	incorrect	generate	Run1	generate/STIM_006.jpg
146.444	1.372	correct	generate	Run1	generate/STIM_006.jpg
150.961	1.298	correct	generate	Run1	generate/STIM_006.jpg
154.283	1.184	correct	generate	Run1	generate/STIM_006.jpg
158.882	2.052	correct	generate	Run1	generate/STIM_007.jpg
164.381	1.907	incorrect	generate	Run1	generate/STIM_007.jpg
169.745	1.473	incorrect	generate	Run1	generate/STIM_007.jpg
174.377	1.636	correct	generate	Run1	generate/STIM_007.jpg
178.543	1.382	correct	generate	Run1	generate/STIM_007.jpg
183.517	1.127	correct	generate	Run1	generate/STIM_008.jpg
187.998	1.675	correct	generate	Run1	generate/STIM_008.jpg
193.289	1.761	correct	generate	Run1	generate/STIM_008.jpg
198.095	1.038	correct	generate	Run1	generate/STIM_008.jpg
202.296	2.013	correct	generate	Run1	generate/STIM_008.jpg
207.235	1.315	correct	generate	Run1	generate/STIM_009.jpg
211.45	2.289	correct	generate	Run1	generate/STIM_009.jpg
217.487	2.363	correct	generate	Run1	generate/STIM_009.jpg
222.491	2.091	correct	generate	Run1	generate/STIM_009.jpg
227.152	2.105	correct	generate	Run1	generate/STIM_009.jpg
232.306	1.31	correct	generate	Run1	generate/STIM_010.jpg
236.083	1.9	incorrect	generate	Run1	generate/STIM_010.jpg
241.388	1.399	incorrect	generate	Run1	generate/STIM_010.jpg
246.223	1.422	incorrect	generate	Run1	generate/STIM_010.jpg
251.321	1.896	correct	generate	Run1	generate/STIM_010.jpg
256.723	2.077	correct	generate	Run1	generate/STIM_011.jpg
261.726	2.115	correct	generate	Run1	generate/STIM_011.jpg
267.373	1.78	correct	generate	Run1	generate/STIM_011.jpg
271.904	2.177	correct	generate	Run1	generate/STIM_011.jpg
276.309	2.06	incorrect	generate	Run1	generate/STIM_011.jpg
282.051	1.573	correct	generate	Run1	generate/STIM_012.jpg
286.111	1.658	correct	generate	Run1	generate/STIM_012.jpg
291.745	1.265	correct	generate	Run1	generate/STIM_012.jpg
296.606	1.497	correct	generate	Run1	generate/STIM_012.jpg
301.153	1.026	correct	generate	Run1	generate/STIM_012.jpg
304.734	1.607	correct	generate	Run1	generate/STIM_013.jpg
309.466	2.319	incorrect	generate	Run1	generate/STIM_013.jpg
314.435	1.894	incorrect	generate	Run1	generate/STIM_013.jpg
319.141	1.483	incorrect	generate	Run1	generate/STIM_013.jpg
324.301	1.241	correct	generate	Run1	generate/STIM_013.jpg
329.098	1.464	incorrect	generate	Run1	generate/STIM_014.jpg
332.579	1.785	correct	generate	Run1	generate/STIM_014.jpg
337.079	1.682	correct	generate	Run1	generate/STIM_014.jpg
341.411	1.911	correct	generate	Run1	generate/STIM_014.jpg
347.005	1.436	incorrect	generate	Run1	generate/STIM_014.jpg
351.901	2.503	correct	generate	Run1	generate/STIM_015.jpg
358.23	1.448	correct	generate	Run1	generate/STIM_015.jpg
362.725	1.245	correct	generate	Run1	generate/STIM_015.jpg
367.253	1.496	correct	generate	Run1	generate/STIM_015.jpg
371.154	1.097	incorrect	generate	Run1	generate/STIM_015.jpg
374.869	2.422	correct	generate	Run1	generate/STIM_016.jpg
380.051	1.085	correct	generate	Run1	generate/STIM_016.jpg
383.312	2.427	correct	generate	Run1	generate/STIM_016.jpg
388.015	1.95	incorrect	generate	Run1	generate/STIM_016.jpg
392.672	1.544	correct	generate	Run1	generate/STIM_016.jpg
396.861	2.07	correct	generate	Run1	generate/STIM_017.jpg
401.583	2.286	correct	generate	Run1	generate/STIM_017.jpg
407.292	2.332	correct	generate	Run1	generate/STIM_017.jpg
412.18	1.769	incorrect	generate	Run1	generate/STIM_017.jpg
416.299	1.347	correct	generate	Run1	generate/STIM_017.jpg
421.178	1.996	correct	generate	Run1	generate/STIM_018.jpg
426.357	1.831	correct	generate	Run1	generate/STIM_018.jpg
430.865	2.027	correct	generate	Run1	generate/STIM_018.jpg
436.05	1.168	correct	generate	Run1	generate/STIM_018.jpg
440.784	1.275	correct	generate	Run1	generate/STIM_018.jpg
445.629	1.631	correct	generate	Run1	generate/STIM_019.jpg
449.933	2.244	correct	generate	Run1	generate/STIM_019.jpg
455.534	1.723	correct	generate	Run1	generate/STIM_019.jpg
459.618	1.65	correct	generate	Run1	generate/STIM_019.jpg
463.905	1.386	incorrect	generate	Run1	generate/STIM_019.jpg
468.189	1.176	correct	generate	Run1	generate/STIM_020.jpg
473.177	1.788	correct	generate	Run1	generate/STIM_020.jpg
478.915	2.004	correct	generate	Run1	generate/STIM_020.jpg
483.551	2.217	correct	generate	Run1	generate/STIM_020.jpg
488.721	1.511	incorrect	generate	Run1	generate/STIM_020.jpg
493.561	2.515	correct	generate	Run1	generate/STIM_021.jpg
499.01	1.583	correct	generate	Run1	generate/STIM_021.jpg
503.172	1.702	incorrect	generate	Run1	generate/STIM_021.jpg
508.795	1.194	correct	generate	Run1	generate/STIM_021.jpg
512.92	1.333	correct	generate	Run1	generate/STIM_021.jpg
517.909	1.486	correct	generate	Run1	generate/STIM_022.jpg
521.547	1.946	correct	generate	Run1	generate/STIM_022.jpg
527.025	2.268	correct	generate	Run1	generate/STIM_022.jpg
532.251	1.414	correct	generate	Run1	generate/STIM_022.jpg
535.813	0.982	correct	generate	Run1	generate/STIM_022.jpg
539.384	1.688	incorrect	generate	Run1	generate/STIM_023.jpg
544.691	1.463	correct	generate	Run1	generate/STIM_023.jpg
549.657	1.499	incorrect	generate	Run1	generate/STIM_023.jpg
553.687	1.718	incorrect	generate	Run1	generate/STIM_023.jpg
559.082	1.95	correct	generate	Run1	generate/STIM_023.jpg
563.888	2.395	incorrect	generate	Run1	generate/STIM_024.jpg
569.626	1.108	incorrect	generate	Run1	generate/STIM_024.jpg
574.511	2.179	correct	generate	Run1	generate/STIM_024.jpg
579.026	1.577	correct	generate	Run1	generate/STIM_024.jpg
583.296	2.027	incorrect	generate	Run1	generate/STIM_024.jpg
589.231	0.697	correct	repeat	Run1	repeat/STIM_000.jpg
593.838	0.85	correct	repeat	Run1	repeat/STIM_000.jpg
597.968	0.849	correct	repeat	Run1	repeat/STIM_000.jpg
601.637	0.831	correct	repeat	Run1	repeat/STIM_000.jpg
605.07	0.732	correct	repeat	Run1	repeat/STIM_000.jpg
608.169	0.63	correct	repeat	Run1	repeat/STIM_001.jpg
612.44	0.493	correct	repeat	Run1	repeat/STIM_001.jpg
615.594	0.892	correct	repeat	Run1	repeat/STIM_001.jpg
620.133	0.659	correct	repeat	Run1	repeat/STIM_001.jpg
622.832	0.728	correct	repeat	Run1	repeat/STIM_001.jpg
625.966	0.755	correct	repeat	Run1	repeat/STIM_002.jpg
630.095	0.455	correct	repeat	Run1	repeat/STIM_002.jpg
633.737	0.709	correct	repeat	Run1	repeat/STIM_002.jpg
636.535	0.821	incorrect	repeat	Run1	repeat/STIM_002.jpg
641.203	0.759	correct	repeat	Run1	repeat/STIM_002.jpg
644.918	0.798	correct	repeat	Run1	repeat/STIM_003.jpg
649.417	0.672	correct	repeat	Run1	repeat/STIM_003.jpg
652.452	0.504	correct	repeat	Run1	repeat/STIM_003.jpg
655.513	0.479	correct	repeat	Run1	repeat/STIM_003.jpg
658.412	0.821	incorrect	repeat	Run1	repeat/STIM_003.jpg
663.22	0.662	correct	repeat	Run1	repeat/STIM_004.jpg
666.026	0.571	correct	repeat	Run1	repeat/STIM_004.jpg
670.509	0.659	correct	repeat	Run1	repeat/STIM_004.jpg
674.501	0.552	correct	repeat	Run1	repeat/STIM_004.jpg
677.252	0.542	correct	repeat	Run1	repeat/STIM_004.jpg
681.497	0.451	correct	repeat	Run1	repeat/STIM_005.jpg
685.029	0.772	correct	repeat	Run1	repeat/STIM_005.jpg
689.784	0.661	correct	repeat	Run1	repeat/STIM_005.jpg
693.352	0.595	correct	repeat	Run1	repeat/STIM_005.jpg
697.564	0.66	correct	repeat	Run1	repeat/STIM_005.jpg
700.322	0.594	correct	repeat	Run1	repeat/STIM_006.jpg
703.876	0.823	correct	repeat	Run1	repeat/STIM_006.jpg
707.481	0.584	correct	repeat	Run1	repeat/STIM_006.jpg
711.889	0.508	correct	repeat	Run1	repeat/STIM_006.jpg
714.436	0.641	correct	repeat	Run1	repeat/STIM_006.jpg
718.034	0.583	correct	repeat	Run1	repeat/STIM_007.jpg
721.772	0.837	correct	repeat	Run1	repeat/STIM_007.jpg
724.723	0.539	correct	repeat	Run1	repeat/STIM_007.jpg
727.576	0.668	correct	repeat	Run1	repeat/STIM_007.jpg
730.556	0.485	incorrect	repeat	Run1	repeat/STIM_007.jpg
734.209	0.703	correct	repeat	Run1	repeat/STIM_008.jpg
738.225	0.849	correct	repeat	Run1	repeat/STIM_008.jpg
742.393	0.508	correct	repeat	Run1	repeat/STIM_008.jpg
745.471	0.567	correct	repeat	Run1	repeat/STIM_008.jpg
748.677	0.742	incorrect	repeat	Run1	repeat/STIM_008.jpg
752.2	0.822	correct	repeat	Run1	repeat/STIM_009.jpg
755.049	0.565	correct	repeat	Run1	repeat/STIM_009.jpg
758.029	0.649	correct	repeat	Run1	repeat/STIM_009.jpg
761.477	0.61	incorrect	repeat	Run1	repeat/STIM_009.jpg
764.648	0.484	correct	repeat	Run1	repeat/STIM_009.jpg
768.768	0.627	incorrect	repeat	Run1	repeat/STIM_010.jpg
772.293	0.892	correct	repeat	Run1	repeat/STIM_010.jpg
777.145	0.56	correct	repeat	Run1	repeat/STIM_010.jpg
780.963	0.731	correct	repeat	Run1	repeat/STIM_010.jpg
785.543	0.758	correct	repeat	Run1	repeat/STIM_010.jpg
789.218	0.649	correct	repeat	Run1	repeat/STIM_011.jpg
792.093	0.569	incorrect	repeat	Run1	repeat/STIM_011.jpg
796.176	0.673	correct	repeat	Run1	repeat/STIM_011.jpg
800.018	0.869	correct	repeat	Run1	repeat/STIM_011.jpg
803.706	0.639	correct	repeat	Run1	repeat/STIM_011.jpg
807.479	0.501	correct	repeat	Run1	repeat/STIM_012.jpg
810.302	0.572	correct	repeat	Run1	repeat/STIM_012.jpg
814.554	0.892	correct	repeat	Run1	repeat/STIM_012.jpg
818.452	0.778	correct	repeat	Run1	repeat/STIM_012.jpg
822.004	0.814	correct	repeat	Run1	repeat/STIM_012.jpg
826.103	0.819	correct	repeat	Run1	repeat/STIM_013.jpg
830.428	0.511	correct	repeat	Run1	repeat/STIM_013.jpg
833.939	0.704	correct	repeat	Run1	repeat/STIM_013.jpg
836.855	0.613	correct	repeat	Run1	repeat/STIM_013.jpg
840.733	0.535	correct	repeat	Run1	repeat/STIM_013.jpg
844.016	0.722	correct	repeat	Run1	repeat/STIM_014.jpg
848.082	0.555	correct	repeat	Run1	repeat/STIM_014.jpg
851.832	0.738	correct	repeat	Run1	repeat/STIM_014.jpg
855.439	0.531	correct	repeat	Run1	repeat/STIM_014.jpg
859.94	0.471	correct	repeat	Run1	repeat/STIM_014.jpg
863.639	2.251	correct	generate	Run2	generate/STIM_000.jpg
869.823	1.809	correct	generate	Run2	generate/STIM_000.jpg
873.686	1.853	correct	generate	Run2	generate/STIM_000.jpg
879.174	0.787	correct	generate	Run2	generate/STIM_000.jpg
882.604	1.75	correct	generate	Run2	generate/STIM_000.jpg
887.786	1.3	correct	generate	Run2	generate/STIM_001.jpg
891.632	1.562	correct	generate	Run2	generate/STIM_001.jpg
895.527	1.763	incorrect	generate	Run2	generate/STIM_001.jpg
900.722	0.841	correct	generate	Run2	generate/STIM_001.jpg
904.732	1.825	correct	generate	Run2	generate/STIM_001.jpg
909.587	1.215	correct	generate	Run2	generate/STIM_002.jpg
912.962	1.666	correct	generate	Run2	generate/STIM_002.jpg
918.062	1.142	correct	generate	Run2	generate/STIM_002.jpg
921.619	1.357	correct	generate	Run2	generate/STIM_002.jpg
925.623	1.16	correct	generate	Run2	generate/STIM_002.jpg
930.633	0.952	correct	generate	Run2	generate/STIM_003.jpg
935.005	1.059	correct	generate	Run2	generate/STIM_003.jpg
938.259	1.683	correct	generate	Run2	generate/STIM_003.jpg
942.185	1.595	correct	generate	Run2	generate/STIM_003.jpg
946.624	1.238	correct	generate	Run2	generate/STIM_003.jpg
951.489	2.052	correct	generate	Run2	generate/STIM_004.jpg
957.397	1.571	correct	generate	Run2	generate/STIM_004.jpg
962.461	1.271	correct	generate	Run2	generate/STIM_004.jpg
967.532	1.882	correct	generate	Run2	generate/STIM_004.jpg
972.628	1.516	correct	generate	Run2	generate/STIM_004.jpg
977.296	1.492	correct	generate	Run2	generate/STIM_005.jpg
981.846	1.902	correct	generate	Run2	generate/STIM_005.jpg
986.723	1.433	correct	generate	Run2	generate/STIM_005.jpg
991.291	1.008	correct	generate	Run2	generate/STIM_005.jpg
994.978	0.982	correct	generate	Run2	generate/STIM_005.jpg
999.94	1.838	incorrect	generate	Run2	generate/STIM_006.jpg
1004.645	1.156	correct	generate	Run2	generate/STIM_006.jpg
1009.169	0.97	correct	generate	Run2	generate/STIM_006.jpg
1013.218	1.373	correct	generate	Run2	generate/STIM_006.jpg
1018.3	1.051	correct	generate	Run2	generate/STIM_006.jpg
1022.897	0.983	correct	generate	Run2	generate/STIM_007.jpg
1026.76	1.927	incorrect	generate	Run2	generate/STIM_007.jpg
1032.046	1.78	correct	generate	Run2	generate/STIM_007.jpg
1036.271	1.684	correct	generate	Run2	generate/STIM_007.jpg
1041.373	1.413	correct	generate	Run2	generate/STIM_007.jpg
1045.096	1.412	correct	generate	Run2	generate/STIM_008.jpg
1050.051	1.43	incorrect	generate	Run2	generate/STIM_008.jpg
1054.351	1.921	correct	generate	Run2	generate/STIM_008.jpg
1059.499	1.429	correct	generate	Run2	generate/STIM_008.jpg
1063.742	0.886	correct	generate	Run2	generate/STIM_008.jpg
1067.943	1.982	correct	generate	Run2	generate/STIM_009.jpg
1073.433	1.555	correct	generate	Run2	generate/STIM_009.jpg
1077.828	1.81	correct	generate	Run2	generate/STIM_009.jpg
1082.288	1.121	correct	generate	Run2	generate/STIM_009.jpg
1086.154	1.297	correct	generate	Run2	generate/STIM_009.jpg
1090.008	1.289	correct	generate	Run2	generate/STIM_010.jpg
1093.705	0.978	correct	generate	Run2	generate/STIM_010.jpg
1096.735	1.383	correct	generate	Run2	generate/STIM_010.jpg
1100.797	0.853	correct	generate	Run2	generate/STIM_010.jpg
1105.333	1.772	incorrect	generate	Run2	generate/STIM_010.jpg
1110.548	1.117	correct	generate	Run2	generate/STIM_011.jpg
1114.255	1.055	correct	generate	Run2	generate/STIM_011.jpg
1118.573	1.813	correct	generate	Run2	generate/STIM_011.jpg
1123.558	1.794	correct	generate	Run2	generate/STIM_011.jpg
1127.72	1.725	correct	generate	Run2	generate/STIM_011.jpg
1131.976	1.741	correct	generate	Run2	generate/STIM_012.jpg
1136.419	1.045	correct	generate	Run2	generate/STIM_012.jpg
1141.404	1.037	correct	generate	Run2	generate/STIM_012.jpg
1144.664	1.538	correct	generate	Run2	generate/STIM_012.jpg
1149.43	1.753	correct	generate	Run2	generate/STIM_012.jpg
1153.998	2.166	incorrect	generate	Run2	generate/STIM_013.jpg
1159.142	0.953	correct	generate	Run2	generate/STIM_013.jpg
1162.696	1.13	incorrect	generate	Run2	generate/STIM_013.jpg
1166.469	1.595	correct	generate	Run2	generate/STIM_013.jpg
1172.063	1.045	correct	generate	Run2	generate/STIM_013.jpg
1176.289	2.232	correct	generate	Run2	generate/STIM_014.jpg
1182.383	1.215	incorrect	generate	Run2	generate/STIM_014.jpg
1185.683	1.422	correct	generate	Run2	generate/STIM_014.jpg
1190.281	1.024	correct	generate	Run2	generate/STIM_014.jpg
1195.128	0.951	correct	generate	Run2	generate/STIM_014.jpg
1199.133	1.188	correct	generate	Run2	generate/STIM_015.jpg
1203.4	1.824	correct	generate	Run2	generate/STIM_015.jpg
1208.867	1.69	correct	generate	Run2	generate/STIM_015.jpg
1214.514	0.932	correct	generate	Run2	generate/STIM_015.jpg
1217.448	1.489	correct	generate	Run2	generate/STIM_015.jpg
1222.62	1.857	correct	generate	Run2	generate/STIM_016.jpg
1226.945	2.14	correct	generate	Run2	generate/STIM_016.jpg
1232.851	1.826	correct	generate	Run2	generate/STIM_016.jpg
1237.181	0.954	correct	generate	Run2	generate/STIM_016.jpg
1241.551	1.797	correct	generate	Run2	generate/STIM_016.jpg
1245.435	1.888	correct	generate	Run2	generate/STIM_017.jpg
1250.848	1.607	correct	generate	Run2	generate/STIM_017.jpg
1255.476	1.056	correct	generate	Run2	generate/STIM_017.jpg
1259.122	1.204	correct	generate	Run2	generate/STIM_017.jpg
1264.035	1.652	correct	generate	Run2	generate/STIM_017.jpg
1269.107	1.96	correct	generate	Run2	generate/STIM_018.jpg
1274.609	2.049	correct	generate	Run2	generate/STIM_018.jpg
1280.496	1.485	correct	generate	Run2	generate/STIM_018.jpg
1284.439	0.814	correct	generate	Run2	generate/STIM_018.jpg
1289.16	1.727	correct	generate	Run2	generate/STIM_018.jpg
1292.906	1.786	incorrect	generate	Run2	generate/STIM_019.jpg
1297.305	1.895	correct	generate	Run2	generate/STIM_019.jpg
1301.282	0.848	correct	generate	Run2	generate/STIM_019.jpg
1305.834	0.89	correct	generate	Run2	generate/STIM_019.jpg
1310.258	1.072	correct	generate	Run2	generate/STIM_019.jpg
1314.041	1.508	incorrect	generate	Run2	generate/STIM_020.jpg
1319.44	2.062	correct	generate	Run2	generate/STIM_020.jpg
1324.321	1.878	incorrect	generate	Run2	generate/STIM_020.jpg
1329.939	1.51	correct	generate	Run2	generate/STIM_020.jpg
1335.291	1.294	correct	generate	Run2	generate/STIM_020.jpg
1339.087	1.068	correct	generate	Run2	generate/STIM_021.jpg
1343.955	1.887	correct	generate	Run2	generate/STIM_021.jpg
1348.211	0.83	correct	generate	Run2	generate/STIM_021.jpg
1351.371	0.771	correct	generate	Run2	generate/STIM_021.jpg
1355.324	1.339	correct	generate	Run2	generate/STIM_021.jpg
1360.301	1.533	correct	generate	Run2	generate/STIM_022.jpg
1365.136	2.039	correct	generate	Run2	generate/STIM_022.jpg
1370.522	1.667	incorrect	generate	Run2	generate/STIM_022.jpg
1375.739	1.632	correct	generate	Run2	generate/STIM_022.jpg
1380.112	0.869	correct	generate	Run2	generate/STIM_022.jpg
1384.287	1.951	correct	generate	Run2	generate/STIM_023.jpg
1388.687	1.903	incorrect	generate	Run2	generate/STIM_023.jpg
1393.826	1.236	incorrect	generate	Run2	generate/STIM_023.jpg
1397.994	1.164	correct	generate	Run2	generate/STIM_023.jpg
1402.555	0.798	correct	generate	Run2	generate/STIM_023.jpg
1406.839	1.29	correct	generate	Run2	generate/STIM_024.jpg
1410.323	1.602	correct	generate	Run2	generate/STIM_024.jpg
1414.371	1.656	correct	generate	Run2	generate/STIM_024.jpg
1419.122	0.783	correct	generate	Run2	generate/STIM_024.jpg
1421.95	0.771	incorrect	generate	Run2	generate/STIM_024.jpg
1425.36	0.768	correct	repeat	Run2	repeat/STIM_000.jpg
1430.063	0.746	correct	repeat	Run2	repeat/STIM_000.jpg
1433.314	0.727	correct	repeat	Run2	repeat/STIM_000.jpg
1437.089	0.842	correct	repeat	Run2	repeat/STIM_000.jpg
1440.847	0.543	correct	repeat	Run2	repeat/STIM_000.jpg
1444.701	0.696	correct	repeat	Run2	repeat/STIM_001.jpg
1448.438	0.836	correct	repeat	Run2	repeat/STIM_001.jpg
1452.099	0.652	correct	repeat	Run2	repeat/STIM_001.jpg
1456.002	0.61	correct	repeat	Run2	repeat/STIM_001.jpg
1460.577	0.572	correct	repeat	Run2	repeat/STIM_001.jpg
1464.994	0.549	correct	repeat	Run2	repeat/STIM_002.jpg
1469.279	0.881	correct	repeat	Run2	repeat/STIM_002.jpg
1473.329	0.884	correct	repeat	Run2	repeat/STIM_002.jpg
1477.857	0.499	correct	repeat	Run2	repeat/STIM_002.jpg
1480.68	0.886	correct	repeat	Run2	repeat/STIM_002.jpg
1484.824	0.706	correct	repeat	Run2	repeat/STIM_003.jpg
1488.644	0.852	correct	repeat	Run2	repeat/STIM_003.jpg
1492.075	0.759	correct	repeat	Run2	repeat/STIM_003.jpg
1495.491	0.764	correct	repeat	Run2	repeat/STIM_003.jpg
1499.24	0.527	correct	repeat	Run2	repeat/STIM_003.jpg
1503.375	0.701	correct	repeat	Run2	repeat/STIM_004.jpg
1507.85	0.821	correct	repeat	Run2	repeat/STIM_004.jpg
1511.623	0.604	correct	repeat	Run2	repeat/STIM_004.jpg
1515.94	0.732	correct	repeat	Run2	repeat/STIM_004.jpg
1519.246	0.674	correct	repeat	Run2	repeat/STIM_004.jpg
1523.726	0.799	correct	repeat	Run2	repeat/STIM_005.jpg
1528.223	0.517	correct	repeat	Run2	repeat/STIM_005.jpg
1532.497	0.606	correct	repeat	Run2	repeat/STIM_005.jpg
1536.112	0.471	correct	repeat	Run2	repeat/STIM_005.jpg
1539.607	0.852	correct	repeat	Run2	repeat/STIM_005.jpg
1543.135	0.686	incorrect	repeat	Run2	repeat/STIM_006.jpg
1547.117	0.764	correct	repeat	Run2	repeat/STIM_006.jpg
1550.095	0.468	correct	repeat	Run2	repeat/STIM_006.jpg
1552.573	0.832	correct	repeat	Run2	repeat/STIM_006.jpg
1556.15	0.54	correct	repeat	Run2	repeat/STIM_006.jpg
1559.066	0.602	correct	repeat	Run2	repeat/STIM_007.jpg
1562.312	0.476	correct	repeat	Run2	repeat/STIM_007.jpg
1566.549	0.746	correct	repeat	Run2	repeat/STIM_007.jpg
1571.022	0.495	incorrect	repeat	Run2	repeat/STIM_007.jpg
1573.727	0.837	correct	repeat	Run2	repeat/STIM_007.jpg
1577.963	0.595	correct	repeat	Run2	repeat/STIM_008.jpg
1581.315	0.81	correct	repeat	Run2	repeat/STIM_008.jpg
1584.245	0.75	correct	repeat	Run2	repeat/STIM_008.jpg
1588.437	0.82	correct	repeat	Run2	repeat/STIM_008.jpg
1591.335	0.604	correct	repeat	Run2	repeat/STIM_008.jpg
1595.051	0.52	incorrect	repeat	Run2	repeat/STIM_009.jpg
1599.508	0.833	correct	repeat	Run2	repeat/STIM_009.jpg
1602.808	0.885	correct	repeat	Run2	repeat/STIM_009.jpg
1607.402	0.457	incorrect	repeat	Run2	repeat/STIM_009.jpg
1611.158	0.595	correct	repeat	Run2	repeat/STIM_009.jpg
1615.718	0.633	correct	repeat	Run2	repeat/STIM_010.jpg
1620.2	0.515	correct	repeat	Run2	repeat/STIM_010.jpg
1622.904	0.887	correct	repeat	Run2	repeat/STIM_010.jpg
1627.33	0.65	correct	repeat	Run2	repeat/STIM_010.jpg
1631.736	0.602	correct	repeat	Run2	repeat/STIM_010.jpg
1634.952	0.463	correct	repeat	Run2	repeat/STIM_011.jpg
1638.614	0.485	correct	repeat	Run2	repeat/STIM_011.jpg
1641.983	0.834	correct	repeat	Run2	repeat/STIM_011.jpg
1645.938	0.515	correct	repeat	Run2	repeat/STIM_011.jpg
1650.196	0.5	correct	repeat	Run2	repeat/STIM_011.jpg
1654.649	0.521	correct	repeat	Run2	repeat/STIM_012.jpg
1657.492	0.754	correct	repeat	Run2	repeat/STIM_012.jpg
1660.805	0.776	incorrect	repeat	Run2	repeat/STIM_012.jpg
1664.663	0.475	correct	repeat	Run2	repeat/STIM_012.jpg
1668.422	0.824	incorrect	repeat	Run2	repeat/STIM_012.jpg
1671.641	0.521	correct	repeat	Run2	repeat/STIM_013.jpg
1676.124	0.727	correct	repeat	Run2	repeat/STIM_013.jpg
1679.99	0.829	correct	repeat	Run2	repeat/STIM_013.jpg
1683.911	0.843	correct	repeat	Run2	repeat/STIM_013.jpg
1687.36	0.886	correct	repeat	Run2	repeat/STIM_013.jpg
1690.676	0.8	incorrect	repeat	Run2	repeat/STIM_014.jpg
1693.684	0.807	correct	repeat	Run2	repeat/STIM_014.jpg
1698.475	0.77	correct	repeat	Run2	repeat/STIM_014.jpg
1701.527	0.509	correct	repeat	Run2	repeat/STIM_014.jpg
1705.909	0.646	correct	repeat	Run2	repeat/STIM_014.jpg
1708.858	1.295	correct	generate	Run3	generate/STIM_000.jpg
1712.549	1.563	incorrect	generate	Run3	generate/STIM_000.jpg
1716.21	1.402	correct	generate	Run3	generate/STIM_000.jpg
1719.659	0.918	correct	generate	Run3	generate/STIM_000.jpg
1723.523	0.791	correct	generate	Run3	generate/STIM_000.jpg
1726.941	0.76	correct	generate	Run3	generate/STIM_001.jpg
1730.982	1.824	correct	generate	Run3	generate/STIM_001.jpg
1735.222	1.027	correct	generate	Run3	generate/STIM_001.jpg
1739.076	1.541	correct	generate	Run3	generate/STIM_001.jpg
1743.232	1.525	incorrect	generate	Run3	generate/STIM_001.jpg
1747.504	1.136	correct	generate	Run3	generate/STIM_002.jpg
1751.616	1.316	correct	generate	Run3	generate/STIM_002.jpg
1756.229	1.267	correct	generate	Run3	generate/STIM_002.jpg
1760.074	0.787	correct	generate	Run3	generate/STIM_002.jpg
1763.722	1.786	correct	generate	Run3	generate/STIM_002.jpg
1767.831	1.118	correct	generate	Run3	generate/STIM_003.jpg
1772.572	1.571	correct	generate	Run3	generate/STIM_003.jpg
1776.615	1.17	correct	generate	Run3	generate/STIM_003.jpg
1780.43	1.699	correct	generate	Run3	generate/STIM_003.jpg
1786.057	1.329	correct	generate	Run3	generate/STIM_003.jpg
1791.282	1.414	incorrect	generate	Run3	generate/STIM_004.jpg
1796.54	0.974	incorrect	generate	Run3	generate/STIM_004.jpg
1801.394	1.085	correct	generate	Run3	generate/STIM_004.jpg
1805.822	1.056	correct	generate	Run3	generate/STIM_004.jpg
1810.686	1.083	correct	generate	Run3	generate/STIM_004.jpg
1815.321	1.131	correct	generate	Run3	generate/STIM_005.jpg
1820.157	1.067	correct	generate	Run3	generate/STIM_005.jpg
1824.155	1.078	correct	generate	Run3	generate/STIM_005.jpg
1829.064	1.546	correct	generate	Run3	generate/STIM_005.jpg
1834.577	0.85	correct	generate	Run3	generate/STIM_005.jpg
1837.969	0.873	correct	generate	Run3	generate/STIM_006.jpg
1842.236	1.326	correct	generate	Run3	generate/STIM_006.jpg
1845.727	1.156	correct	generate	Run3	generate/STIM_006.jpg
1850.191	0.781	correct	generate	Run3	generate/STIM_006.jpg
1853.934	1.295	correct	generate	Run3	generate/STIM_006.jpg
1857.521	1.794	correct	generate	Run3	generate/STIM_007.jpg
1862.901	1.071	correct	generate	Run3	generate/STIM_007.jpg
1867.657	0.837	correct	generate	Run3	generate/STIM_007.jpg
1871.952	1.702	correct	generate	Run3	generate/STIM_007.jpg
1876.6	1.663	correct	generate	Run3	generate/STIM_007.jpg
1881.219	0.929	correct	generate	Run3	generate/STIM_008.jpg
1885.874	0.963	correct	generate	Run3	generate/STIM_008.jpg
1889.808	1.824	incorrect	generate	Run3	generate/STIM_008.jpg
1894.643	1.597	correct	generate	Run3	generate/STIM_008.jpg
1898.654	1.811	correct	generate	Run3	generate/STIM_008.jpg
1903.483	1.217	correct	generate	Run3	generate/STIM_009.jpg
1906.783	1.426	incorrect	generate	Run3	generate/STIM_009.jpg
1911.391	1.874	correct	generate	Run3	generate/STIM_009.jpg
1916.859	1.513	correct	generate	Run3	generate/STIM_009.jpg
1920.434	1.191	correct	generate	Run3	generate/STIM_009.jpg
1925.452	0.834	correct	generate	Run3	generate/STIM_010.jpg
1928.422	1.707	correct	generate	Run3	generate/STIM_010.jpg
1933.746	1.165	incorrect	generate	Run3	generate/STIM_010.jpg
1938.024	1.837	correct	generate	Run3	generate/STIM_010.jpg
1942.984	1.095	correct	generate	Run3	generate/STIM_010.jpg
1947.467	1.257	correct	generate	Run3	generate/STIM_011.jpg
1951.785	1.093	correct	generate	Run3	generate/STIM_011.jpg
1955.626	0.948	correct	generate	Run3	generate/STIM_011.jpg
1959.618	1.358	correct	generate	Run3	generate/STIM_011.jpg
1964.51	1.871	correct	generate	Run3	generate/STIM_011.jpg
1969.42	1.188	incorrect	generate	Run3	generate/STIM_012.jpg
1973.267	1.041	correct	generate	Run3	generate/STIM_012.jpg
1978.105	1.694	correct	generate	Run3	generate/STIM_012.jpg
1981.911	1.091	correct	generate	Run3	generate/STIM_012.jpg
1985.024	1.264	correct	generate	Run3	generate/STIM_012.jpg
1989.425	0.817	correct	generate	Run3	generate/STIM_013.jpg
1994.035	1.358	correct	generate	Run3	generate/STIM_013.jpg
1997.609	1.838	correct	generate	Run3	generate/STIM_013.jpg
2002.889	0.926	correct	generate	Run3	generate/STIM_013.jpg
2006.181	1.608	correct	generate	Run3	generate/STIM_013.jpg
2011.718	1.269	correct	generate	Run3	generate/STIM_014.jpg
2016.946	1.445	correct	generate	Run3	generate/STIM_014.jpg
2021.311	1.44	correct	generate	Run3	generate/STIM_014.jpg
2025.491	1.058	correct	generate	Run3	generate/STIM_014.jpg
2030.266	0.756	correct	generate	Run3	generate/STIM_014.jpg
2034.995	0.984	incorrect	generate	Run3	generate/STIM_015.jpg
2039.141	0.904	correct	generate	Run3	generate/STIM_015.jpg
2042.436	1.075	incorrect	generate	Run3	generate/STIM_015.jpg
2046.513	1.179	incorrect	generate	Run3	generate/STIM_015.jpg
2050.047	1.001	correct	generate	Run3	generate/STIM_015.jpg
2054.731	1.708	correct	generate	Run3	generate/STIM_016.jpg
2060.2	1.747	correct	generate	Run3	generate/STIM_016.jpg
2065.827	0.764	correct	generate	Run3	generate/STIM_016.jpg
2069.886	1.604	correct	generate	Run3	generate/STIM_016.jpg
2074.177	1.502	correct	generate	Run3	generate/STIM_016.jpg
2078.886	1.852	correct	generate	Run3	generate/STIM_017.jpg
2083.2	1.86	incorrect	generate	Run3	generate/STIM_017.jpg
2087.64	1.775	correct	generate	Run3	generate/STIM_017.jpg
2093.006	1.34	correct	generate	Run3	generate/STIM_017.jpg
2097.569	1.53	correct	generate	Run3	generate/STIM_017.jpg
2102.852	1.199	correct	generate	Run3	generate/STIM_018.jpg
2106.198	1.122	correct	generate	Run3	generate/STIM_018.jpg
2109.97	1.324	correct	generate	Run3	generate/STIM_018.jpg
2113.612	1.224	correct	generate	Run3	generate/STIM_018.jpg
2116.935	1.371	correct	generate	Run3	generate/STIM_018.jpg
2120.453	0.782	correct	generate	Run3	generate/STIM_019.jpg
2123.508	1.709	correct	generate	Run3	generate/STIM_019.jpg
2128.214	1.14	correct	generate	Run3	generate/STIM_019.jpg
2132.145	0.966	correct	generate	Run3	generate/STIM_019.jpg
2135.336	1.791	correct	generate	Run3	generate/STIM_019.jpg
2139.683	0.759	correct	generate	Run3	generate/STIM_020.jpg
2142.994	1.651	correct	generate	Run3	generate/STIM_020.jpg
2147.307	1.61	correct	generate	Run3	generate/STIM_020.jpg
2151.604	1.816	correct	generate	Run3	generate/STIM_020.jpg
2156.393	1.232	correct	generate	Run3	generate/STIM_020.jpg
2160.025	1.666	correct	generate	Run3	generate/STIM_021.jpg
2165.479	0.934	correct	generate	Run3	generate/STIM_021.jpg
2168.777	1.614	correct	generate	Run3	generate/STIM_021.jpg
2173.847	1.63	correct	generate	Run3	generate/STIM_021.jpg
2177.666	1.104	correct	generate	Run3	generate/STIM_021.jpg
2182.437	1.296	correct	generate	Run3	generate/STIM_022.jpg
2185.865	1.046	correct	generate	Run3	generate/STIM_022.jpg
2189.03	0.838	correct	generate	Run3	generate/STIM_022.jpg
2192.103	1.117	correct	generate	Run3	generate/STIM_022.jpg
2196.476	0.974	correct	generate	Run3	generate/STIM_022.jpg
2201.368	0.924	correct	generate	Run3	generate/STIM_023.jpg
2205.651	0.781	correct	generate	Run3	generate/STIM_023.jpg
2210.054	0.902	correct	generate	Run3	generate/STIM_023.jpg
2213.449	1.044	correct	generate	Run3	generate/STIM_023.jpg
2217.819	0.829	correct	generate	Run3	generate/STIM_023.jpg
2222.147	0.825	correct	generate	Run3	generate/STIM_024.jpg
2226.672	1.111	correct	generate	Run3	generate/STIM_024.jpg
2230.695	1.514	correct	generate	Run3	generate/STIM_024.jpg
2235.34	0.856	correct	generate	Run3	generate/STIM_024.jpg
2239.725	1.838	correct	generate	Run3	generate/STIM_024.jpg
2244.547	0.868	correct	repeat	Run3	repeat/STIM_000.jpg
2247.754	0.685	correct	repeat	Run3	repeat/STIM_000.jpg
2251.587	0.746	correct	repeat	Run3	repeat/STIM_000.jpg
2256.047	0.645	correct	repeat	Run3	repeat/STIM_000.jpg
2259.708	0.501	correct	repeat	Run3	repeat/STIM_000.jpg
2262.535	0.803	correct	repeat	Run3	repeat/STIM_001.jpg
2265.935	0.579	correct	repeat	Run3	repeat/STIM_001.jpg
2268.559	0.562	correct	repeat	Run3	repeat/STIM_001.jpg
2272.149	0.573	correct	repeat	Run3	repeat/STIM_001.jpg
2275.431	0.809	correct	repeat	Run3	repeat/STIM_001.jpg
2279.844	0.558	correct	repeat	Run3	repeat/STIM_002.jpg
2283.267	0.662	correct	repeat	Run3	repeat/STIM_002.jpg
2287.379	0.567	correct	repeat	Run3	repeat/STIM_002.jpg
2291.684	0.506	correct	repeat	Run3	repeat/STIM_002.jpg
2294.463	0.628	correct	repeat	Run3	repeat/STIM_002.jpg
2298.808	0.883	correct	repeat	Run3	repeat/STIM_003.jpg
2302.337	0.504	correct	repeat	Run3	repeat/STIM_003.jpg
2305.538	0.52	correct	repeat	Run3	repeat/STIM_003.jpg
2309.495	0.592	incorrect	repeat	Run3	repeat/STIM_003.jpg
2313.79	0.512	correct	repeat	Run3	repeat/STIM_003.jpg
2317.819	0.556	correct	repeat	Run3	repeat/STIM_004.jpg
2322.035	0.628	correct	repeat	Run3	repeat/STIM_004.jpg
2325.961	0.659	correct	repeat	Run3	repeat/STIM_004.jpg
2328.868	0.892	correct	repeat	Run3	repeat/STIM_004.jpg
2333.461	0.469	correct	repeat	Run3	repeat/STIM_004.jpg
2336.652	0.569	incorrect	repeat	Run3	repeat/STIM_005.jpg
2341.191	0.889	correct	repeat	Run3	repeat/STIM_005.jpg
2344.171	0.832	correct	repeat	Run3	repeat/STIM_005.jpg
2348.237	0.666	incorrect	repeat	Run3	repeat/STIM_005.jpg
2352.836	0.562	correct	repeat	Run3	repeat/STIM_005.jpg
2355.865	0.798	correct	repeat	Run3	repeat/STIM_006.jpg
2359.576	0.58	correct	repeat	Run3	repeat/STIM_006.jpg
2362.875	0.865	correct	repeat	Run3	repeat/STIM_006.jpg
2366.115	0.892	correct	repeat	Run3	repeat/STIM_006.jpg
2370.793	0.881	correct	repeat	Run3	repeat/STIM_006.jpg
2373.726	0.511	incorrect	repeat	Run3	repeat/STIM_007.jpg
2376.552	0.535	correct	repeat	Run3	repeat/STIM_007.jpg
2379.825	0.765	correct	repeat	Run3	repeat/STIM_007.jpg
2383.175	0.85	correct	repeat	Run3	repeat/STIM_007.jpg
2386.103	0.568	correct	repeat	Run3	repeat/STIM_007.jpg
2390.367	0.884	correct	repeat	Run3	repeat/STIM_008.jpg
2394.561	0.852	correct	repeat	Run3	repeat/STIM_008.jpg
2398.273	0.738	correct	repeat	Run3	repeat/STIM_008.jpg
2402.977	0.563	correct	repeat	Run3	repeat/STIM_008.jpg
2406.746	0.52	correct	repeat	Run3	repeat/STIM_008.jpg
2409.335	0.523	correct	repeat	Run3	repeat/STIM_009.jpg
2413.249	0.883	correct	repeat	Run3	repeat/STIM_009.jpg
2417.608	0.669	correct	repeat	Run3	repeat/STIM_009.jpg
2420.757	0.61	incorrect	repeat	Run3	repeat/STIM_009.jpg
2423.432	0.581	correct	repeat	Run3	repeat/STIM_009.jpg
2427.777	0.46	correct	repeat	Run3	repeat/STIM_010.jpg
2430.728	0.527	correct	repeat	Run3	repeat/STIM_010.jpg
2434.43	0.822	correct	repeat	Run3	repeat/STIM_010.jpg
2438.534	0.724	correct	repeat	Run3	repeat/STIM_010.jpg
2441.764	0.813	correct	repeat	Run3	repeat/STIM_010.jpg
2446.207	0.451	correct	repeat	Run3	repeat/STIM_011.jpg
2449.544	0.642	correct	repeat	Run3	repeat/STIM_011.jpg
2452.452	0.778	correct	repeat	Run3	repeat/STIM_011.jpg
2456.923	0.833	correct	repeat	Run3	repeat/STIM_011.jpg
2460.134	0.898	correct	repeat	Run3	repeat/STIM_011.jpg
2463.41	0.67	correct	repeat	Run3	repeat/STIM_012.jpg
2467.391	0.729	correct	repeat	Run3	repeat/STIM_012.jpg
2471.597	0.577	correct	repeat	Run3	repeat/STIM_012.jpg
2475.021	0.562	correct	repeat	Run3	repeat/STIM_012.jpg
2478.616	0.618	incorrect	repeat	Run3	repeat/STIM_012.jpg
2482.836	0.852	correct	repeat	Run3	repeat/STIM_013.jpg
2486.019	0.73	correct	repeat	Run3	repeat/STIM_013.jpg
2490.295	0.459	correct	repeat	Run3	repeat/STIM_013.jpg
2494.104	0.534	correct	repeat	Run3	repeat/STIM_013.jpg
2498.602	0.856	correct	repeat	Run3	repeat/STIM_013.jpg
2503.19	0.548	correct	repeat	Run3	repeat/STIM_014.jpg
2505.92	0.675	correct	repeat	Run3	repeat/STIM_014.jpg
2508.659	0.691	correct	repeat	Run3	repeat/STIM_014.jpg
2512.577	0.806	correct	repeat	Run3	repeat/STIM_014.jpg
2516.148	0.509	incorrect	repeat	Run3	repeat/STIM_014.jpg
2520.516	0.88	correct	generate	Run4	generate/STIM_000.jpg
2525.028	0.928	correct	generate	Run4	generate/STIM_000.jpg
2528.34	1.688	correct	generate	Run4	generate/STIM_000.jpg
2533.835	1.186	correct	generate	Run4	generate/STIM_000.jpg
2537.16	1.705	correct	generate	Run4	generate/STIM_000.jpg
2540.963	1.378	correct	generate	Run4	generate/STIM_001.jpg
2544.438	1.756	correct	generate	Run4	generate/STIM_001.jpg
2548.397	1.42	correct	generate	Run4	generate/STIM_001.jpg
2553.564	1.44	correct	generate	Run4	generate/STIM_001.jpg
2558.813	1.209	correct	generate	Run4	generate/STIM_001.jpg
2563.245	1.437	correct	generate	Run4	generate/STIM_002.jpg
2567.096	1.878	correct	generate	Run4	generate/STIM_002.jpg
2571.62	1.165	correct	generate	Run4	generate/STIM_002.jpg
2575.483	1.767	correct	generate	Run4	generate/STIM_002.jpg
2580.976	0.874	correct	generate	Run4	generate/STIM_002.jpg
2583.879	1.354	correct	generate	Run4	generate/STIM_003.jpg
2588.378	0.974	incorrect	generate	Run4	generate/STIM_003.jpg
2591.947	1.273	correct	generate	Run4	generate/STIM_003.jpg
2595.336	1.046	correct	generate	Run4	generate/STIM_003.jpg
2600.069	1.372	correct	generate	Run4	generate/STIM_003.jpg
2605.073	1.322	correct	generate	Run4	generate/STIM_004.jpg
2609.52	1.777	correct	generate	Run4	generate/STIM_004.jpg
2613.784	0.761	correct	generate	Run4	generate/STIM_004.jpg
2617.651	0.978	correct	generate	Run4	generate/STIM_004.jpg
2621.766	1.371	correct	generate	Run4	generate/STIM_004.jpg
2627.043	1.721	correct	generate	Run4	generate/STIM_005.jpg
2631.392	0.813	correct	generate	Run4	generate/STIM_005.jpg
2634.728	1.514	correct	generate	Run4	generate/STIM_005.jpg
2639.471	0.818	correct	generate	Run4	generate/STIM_005.jpg
2642.569	1.721	correct	generate	Run4	generate/STIM_005.jpg
2646.865	1.558	correct	generate	Run4	generate/STIM_006.jpg
2650.681	0.998	correct	generate	Run4	generate/STIM_006.jpg
2654.757	1.375	correct	generate	Run4	generate/STIM_006.jpg
2658.987	1.27	correct	generate	Run4	generate/STIM_006.jpg
2663.164	0.839	correct	generate	Run4	generate/STIM_006.jpg
2666.671	1.252	correct	generate	Run4	generate/STIM_007.jpg
2670.363	1.373	correct	generate	Run4	generate/STIM_007.jpg
2674.89	1.15	correct	generate	Run4	generate/STIM_007.jpg
2678.978	1.396	correct	generate	Run4	generate/STIM_007.jpg
2683.959	1.089	correct	generate	Run4	generate/STIM_007.jpg
2687.15	1.175	correct	generate	Run4	generate/STIM_008.jpg
2691.838	1.6	correct	generate	Run4	generate/STIM_008.jpg
2696.104	1.852	correct	generate	Run4	generate/STIM_008.jpg
2700.379	1.245	correct	generate	Run4	generate/STIM_008.jpg
2703.639	1.387	correct	generate	Run4	generate/STIM_008.jpg
2708.703	0.774	correct	generate	Run4	generate/STIM_009.jpg
2712.078	0.839	correct	generate	Run4	generate/STIM_009.jpg
2715.613	1.265	correct	generate	Run4	generate/STIM_009.jpg
2719.519	1.331	correct	generate	Run4	generate/STIM_009.jpg
2724.407	1.749	correct	generate	Run4	generate/STIM_009.jpg
2729.002	1.337	correct	generate	Run4	generate/STIM_010.jpg
2733.157	1.13	correct	generate	Run4	generate/STIM_010.jpg
2737.013	0.833	correct	generate	Run4	generate/STIM_010.jpg
2741.132	1.628	correct	generate	Run4	generate/STIM_010.jpg
2745.503	1.544	correct	generate	Run4	generate/STIM_010.jpg
2749.778	1.395	correct	generate	Run4	generate/STIM_011.jpg
2754.275	1.693	incorrect	generate	Run4	generate/STIM_011.jpg
2759.281	1.514	correct	generate	Run4	generate/STIM_011.jpg
2762.808	1.458	incorrect	generate	Run4	generate/STIM_011.jpg
2767.204	1.769	correct	generate	Run4	generate/STIM_011.jpg
2771.282	1.549	incorrect	generate	Run4	generate/STIM_012.jpg
2775.078	1.412	correct	generate	Run4	generate/STIM_012.jpg
2779.62	1.401	correct	generate	Run4	generate/STIM_012.jpg
2784.702	1.142	correct	generate	Run4	generate/STIM_012.jpg
2788.199	1.332	correct	generate	Run4	generate/STIM_012.jpg
2792.088	1.152	correct	generate	Run4	generate/STIM_013.jpg
2796.047	1.286	correct	generate	Run4	generate/STIM_013.jpg
2799.333	1.042	correct	generate	Run4	generate/STIM_013.jpg
2803.406	1.486	correct	generate	Run4	generate/STIM_013.jpg
2808.317	1.46	correct	generate	Run4	generate/STIM_013.jpg
2813.015	1.42	incorrect	generate	Run4	generate/STIM_014.jpg
2817.072	1.341	correct	generate	Run4	generate/STIM_014.jpg
2821.92	1.701	correct	generate	Run4	generate/STIM_014.jpg
2827.18	1.583	correct	generate	Run4	generate/STIM_014.jpg
2831.514	1.366	correct	generate	Run4	generate/STIM_014.jpg
2836.781	1.723	correct	generate	Run4	generate/STIM_015.jpg
2840.539	1.073	correct	generate	Run4	generate/STIM_015.jpg
2843.637	1.887	correct	generate	Run4	generate/STIM_015.jpg
2847.587	1.344	correct	generate	Run4	generate/STIM_015.jpg
2851.928	1.441	correct	generate	Run4	generate/STIM_015.jpg
2855.947	1.391	correct	generate	Run4	generate/STIM_016.jpg
2859.502	1.657	correct	generate	Run4	generate/STIM_016.jpg
2864.931	1.387	correct	generate	Run4	generate/STIM_016.jpg
2868.782	1.196	correct	generate	Run4	generate/STIM_016.jpg
2872.365	1.545	correct	generate	Run4	generate/STIM_016.jpg
2876.02	1.404	correct	generate	Run4	generate/STIM_017.jpg
2881.144	1.333	correct	generate	Run4	generate/STIM_017.jpg
2886.461	1.724	correct	generate	Run4	generate/STIM_017.jpg
2891.99	1.093	correct	generate	Run4	generate/STIM_017.jpg
2895.699	0.886	correct	generate	Run4	generate/STIM_017.jpg
2899.449	1.122	correct	generate	Run4	generate/STIM_018.jpg
2902.858	1.396	correct	generate	Run4	generate/STIM_018.jpg
2907.262	1.866	incorrect	generate	Run4	generate/STIM_018.jpg
2911.989	1.295	correct	generate	Run4	generate/STIM_018.jpg
2916.08	1.084	correct	generate	Run4	generate/STIM_018.jpg
2920.397	1.463	correct	generate	Run4	generate/STIM_019.jpg
2925.691	1.259	correct	generate	Run4	generate/STIM_019.jpg
2929.338	1.613	correct	generate	Run4	generate/STIM_019.jpg
2933.058	1.675	correct	generate	Run4	generate/STIM_019.jpg
2938.403	1.616	correct	generate	Run4	generate/STIM_019.jpg
2943.491	0.966	correct	generate	Run4	generate/STIM_020.jpg
2946.726	1.583	correct	generate	Run4	generate/STIM_020.jpg
2951.712	1.449	correct	generate	Run4	generate/STIM_020.jpg
2956.709	1.618	correct	generate	Run4	generate/STIM_020.jpg
2960.344	1.315	correct	generate	Run4	generate/STIM_020.jpg
2965.258	1.488	correct	generate	Run4	generate/STIM_021.jpg
2968.935	1.68	correct	generate	Run4	generate/STIM_021.jpg
2973.491	1.689	correct	generate	Run4	generate/STIM_021.jpg
2979.052	1.677	correct	generate	Run4	generate/STIM_021.jpg
2982.784	1.472	correct	generate	Run4	generate/STIM_021.jpg
2987.615	1.333	correct	generate	Run4	generate/STIM_022.jpg
2992.494	1.498	correct	generate	Run4	generate/STIM_022.jpg
2997.678	1.797	correct	generate	Run4	generate/STIM_022.jpg
3002.285	0.92	correct	generate	Run4	generate/STIM_022.jpg
3006.512	1.745	correct	generate	Run4	generate/STIM_022.jpg
3011.202	1.669	correct	generate	Run4	generate/STIM_023.jpg
3015.838	1.104	correct	generate	Run4	generate/STIM_023.jpg
3020.724	1.517	correct	generate	Run4	generate/STIM_023.jpg
3024.974	1.624	correct	generate	Run4	generate/STIM_023.jpg
3030.555	1.778	correct	generate	Run4	generate/STIM_023.jpg
3036.117	1.483	correct	generate	Run4	generate/STIM_024.jpg
3041.117	1.326	correct	generate	Run4	generate/STIM_024.jpg
3044.644	0.849	correct	generate	Run4	generate/STIM_024.jpg
3049.054	1.562	correct	generate	Run4	generate/STIM_024.jpg
3054.578	1.533	correct	generate	Run4	generate/STIM_024.jpg
3058.904	0.837	correct	repeat	Run4	repeat/STIM_000.jpg
3062.973	0.491	correct	repeat	Run4	repeat/STIM_000.jpg
3066.596	0.489	correct	repeat	Run4	repeat/STIM_000.jpg
3069.636	0.734	correct	repeat	Run4	repeat/STIM_000.jpg
3072.416	0.896	correct	repeat	Run4	repeat/STIM_000.jpg
3075.501	0.809	correct	repeat	Run4	repeat/STIM_001.jpg
3080.26	0.802	incorrect	repeat	Run4	repeat/STIM_001.jpg
3084.617	0.553	correct	repeat	Run4	repeat/STIM_001.jpg
3088.21	0.48	correct	repeat	Run4	repeat/STIM_001.jpg
3092.0	0.641	correct	repeat	Run4	repeat/STIM_001.jpg
3094.986	0.489	correct	repeat	Run4	repeat/STIM_002.jpg
3098.891	0.527	correct	repeat	Run4	repeat/STIM_002.jpg
3102.839	0.716	correct	repeat	Run4	repeat/STIM_002.jpg
3107.279	0.785	correct	repeat	Run4	repeat/STIM_002.jpg
3110.804	0.497	correct	repeat	Run4	repeat/STIM_002.jpg
3115.222	0.861	correct	repeat	Run4	repeat/STIM_003.jpg
3119.19	0.896	correct	repeat	Run4	repeat/STIM_003.jpg
3123.32	0.782	correct	repeat	Run4	repeat/STIM_003.jpg
3127.91	0.474	incorrect	repeat	Run4	repeat/STIM_003.jpg
3131.239	0.898	correct	repeat	Run4	repeat/STIM_003.jpg
3134.726	0.452	correct	repeat	Run4	repeat/STIM_004.jpg
3138.619	0.843	correct	repeat	Run4	repeat/STIM_004.jpg
3142.778	0.606	correct	repeat	Run4	repeat/STIM_004.jpg
3145.519	0.738	correct	repeat	Run4	repeat/STIM_004.jpg
3150.237	0.704	correct	repeat	Run4	repeat/STIM_004.jpg
3153.456	0.678	correct	repeat	Run4	repeat/STIM_005.jpg
3157.034	0.768	correct	repeat	Run4	repeat/STIM_005.jpg
3159.951	0.55	correct	repeat	Run4	repeat/STIM_005.jpg
3163.699	0.647	correct	repeat	Run4	repeat/STIM_005.jpg
3166.998	0.462	correct	repeat	Run4	repeat/STIM_005.jpg
3170.694	0.671	correct	repeat	Run4	repeat/STIM_006.jpg
3173.807	0.568	correct	repeat	Run4	repeat/STIM_006.jpg
3177.115	0.899	correct	repeat	Run4	repeat/STIM_006.jpg
3181.552	0.459	correct	repeat	Run4	repeat/STIM_006.jpg
3184.649	0.677	correct	repeat	Run4	repeat/STIM_006.jpg
3188.964	0.728	correct	repeat	Run4	repeat/STIM_007.jpg
3193.14	0.564	correct	repeat	Run4	repeat/STIM_007.jpg
3196.875	0.79	correct	repeat	Run4	repeat/STIM_007.jpg
3200.495	0.833	correct	repeat	Run4	repeat/STIM_007.jpg
3204.178	0.833	correct	repeat	Run4	repeat/STIM_007.jpg
3208.78	0.832	correct	repeat	Run4	repeat/STIM_008.jpg
3212.121	0.645	correct	repeat	Run4	repeat/STIM_008.jpg
3216.626	0.499	correct	repeat	Run4	repeat/STIM_008.jpg
3220.024	0.505	correct	repeat	Run4	repeat/STIM_008.jpg
3223.254	0.545	correct	repeat	Run4	repeat/STIM_008.jpg
3227.066	0.772	correct	repeat	Run4	repeat/STIM_009.jpg
3230.007	0.835	correct	repeat	Run4	repeat/STIM_009.jpg
3233.133	0.893	correct	repeat	Run4	repeat/STIM_009.jpg
3237.424	0.468	correct	repeat	Run4	repeat/STIM_009.jpg
3240.178	0.892	correct	repeat	Run4	repeat/STIM_009.jpg
3245.013	0.54	correct	repeat	Run4	repeat/STIM_010.jpg
3248.793	0.679	correct	repeat	Run4	repeat/STIM_010.jpg
3252.126	0.705	correct	repeat	Run4	repeat/STIM_010.jpg
3255.817	0.787	correct	repeat	Run4	repeat/STIM_010.jpg
3260.049	0.791	correct	repeat	Run4	repeat/STIM_010.jpg
3263.872	0.543	correct	repeat	Run4	repeat/STIM_011.jpg
3266.818	0.582	correct	repeat	Run4	repeat/STIM_011.jpg
3269.507	0.7	correct	repeat	Run4	repeat/STIM_011.jpg
3272.43	0.575	correct	repeat	Run4	repeat/STIM_011.jpg
3276.83	0.535	correct	repeat	Run4	repeat/STIM_011.jpg
3280.522	0.791	correct	repeat	Run4	repeat/STIM_012.jpg
3284.488	0.596	correct	repeat	Run4	repeat/STIM_012.jpg
3288.925	0.617	correct	repeat	Run4	repeat/STIM_012.jpg
3292.842	0.812	correct	repeat	Run4	repeat/STIM_012.jpg
3295.784	0.739	correct	repeat	Run4	repeat/STIM_012.jpg
3299.896	0.876	correct	repeat	Run4	repeat/STIM_013.jpg
3304.088	0.838	correct	repeat	Run4	repeat/STIM_013.jpg
3307.491	0.494	correct	repeat	Run4	repeat/STIM_013.jpg
3310.014	0.622	incorrect	repeat	Run4	repeat/STIM_013.jpg
3313.847	0.7	correct	repeat	Run4	repeat/STIM_013.jpg
3316.796	0.882	correct	repeat	Run4	repeat/STIM_014.jpg
3320.005	0.611	correct	repeat	Run4	repeat/STIM_014.jpg
3323.724	0.607	correct	repeat	Run4	repeat/STIM_014.jpg
3327.173	0.513	correct	repeat	Run4	repeat/STIM_014.jpg
3331.546	0.558	correct	repeat	Run4	repeat/STIM_014.jpg
