onset	duration	accuracy	trial_type	learning_stage	stimulus
0.0	1.023	correct	2back	Block1	2back/STIM_000.jpg
3.762	1.124	correct	2back	Block1	2back/STIM_000.jpg
7.587	0.785	correct	2back	Block1	2back/STIM_000.jpg
10.421	1.323	correct	2back	Block1	2back/STIM_001.jpg
15.05	1.207	correct	2back	Block1	2back/STIM_001.jpg
20.199	0.733	correct	2back	Block1	2back/STIM_001.jpg
23.533	1.167	correct	2back	Block1	2back/STIM_002.jpg
27.747	1.178	correct	2back	Block1	2back/STIM_002.jpg
31.793	0.736	correct	2back	Block1	2back/STIM_002.jpg
35.24	1.293	correct	2back	Block1	2back/STIM_003.jpg
39.287	0.839	correct	2back	Block1	2back/STIM_003.jpg
42.591	0.789	correct	2back	Block1	2back/STIM_003.jpg
46.929	1.2	correct	2back	Block1	2back/STIM_004.jpg
52.001	0.884	correct	2back	Block1	2back/STIM_004.jpg
55.681	0.578	correct	2back	Block1	2back/STIM_004.jpg
59.323	1.023	incorrect	2back	Block1	2back/STIM_005.jpg
63.257	1.046	correct	2back	Block1	2back/STIM_005.jpg
67.258	0.873	incorrect	2back	Block1	2back/STIM_005.jpg
70.778	1.115	correct	2back	Block1	2back/STIM_006.jpg
74.505	0.728	correct	2back	Block1	2back/STIM_006.jpg
78.147	1.143	correct	2back	Block1	2back/STIM_006.jpg
82.626	0.856	incorrect	2back	Block1	2back/STIM_007.jpg
87.415	1.083	correct	2back	Block1	2back/STIM_007.jpg
92.228	0.97	correct	2back	Block1	2back/STIM_007.jpg
96.517	0.869	correct	2back	Block1	2back/STIM_008.jpg
101.24	0.605	correct	2back	Block1	2back/STIM_008.jpg
104.079	1.126	incorrect	2back	Block1	2back/STIM_008.jpg
107.321	0.74	correct	2back	Block1	2back/STIM_009.jpg
110.337	0.842	correct	2back	Block1	2back/STIM_009.jpg
115.098	0.744	correct	2back	Block1	2back/STIM_009.jpg
118.79	0.946	incorrect	2back	Block1	2back/STIM_010.jpg
123.055	1.122	correct	2back	Block1	2back/STIM_010.jpg
126.25	0.79	correct	2back	Block1	2back/STIM_010.jpg
130.906	1.228	correct	2back	Block1	2back/STIM_011.jpg
135.223	0.641	correct	2back	Block1	2back/STIM_011.jpg
139.687	1.173	correct	2back	Block1	2back/STIM_011.jpg
143.322	0.854	correct	2back	Block1	2back/STIM_012.jpg
147.529	0.889	correct	2back	Block1	2back/STIM_012.jpg
150.426	0.771	correct	2back	Block1	2back/STIM_012.jpg
155.146	0.697	correct	2back	Block1	2back/STIM_013.jpg
158.247	0.611	correct	2back	Block1	2back/STIM_013.jpg
162.722	0.62	correct	2back	Block1	2back/STIM_013.jpg
166.704	1.048	correct	2back	Block1	2back/STIM_014.jpg
169.9	1.086	correct	2back	Block1	2back/STIM_014.jpg
174.643	0.933	incorrect	2back	Block1	2back/STIM_014.jpg
179.223	1.307	correct	2back	Block1	2back/STIM_015.jpg
183.88	0.625	correct	2back	Block1	2back/STIM_015.jpg
186.529	0.923	correct	2back	Block1	2back/STIM_015.jpg
190.223	1.07	correct	2back	Block1	2back/STIM_016.jpg
194.287	0.842	correct	2back	Block1	2back/STIM_016.jpg
197.637	1.007	correct	2back	Block1	2back/STIM_016.jpg
202.37	1.076	correct	2back	Block1	2back/STIM_017.jpg
207.322	1.185	correct	2back	Block1	2back/STIM_017.jpg
211.226	0.598	correct	2back	Block1	2back/STIM_017.jpg
215.409	0.832	correct	2back	Block1	2back/STIM_018.jpg
219.449	0.916	correct	2back	Block1	2back/STIM_018.jpg
223.276	0.902	correct	2back	Block1	2back/STIM_018.jpg
226.552	0.771	correct	2back	Block1	2back/STIM_019.jpg
230.945	0.707	correct	2back	Block1	2back/STIM_019.jpg
233.813	0.895	correct	2back	Block1	2back/STIM_019.jpg
238.442	1.025	correct	2back	Block1	2back/STIM_020.jpg
242.231	0.767	correct	2back	Block1	2back/STIM_020.jpg
246.329	1.186	correct	2back	Block1	2back/STIM_020.jpg
250.241	1.072	incorrect	2back	Block1	2back/STIM_021.jpg
254.997	0.785	correct	2back	Block1	2back/STIM_021.jpg
259.402	0.705	correct	2back	Block1	2back/STIM_021.jpg
262.74	1.278	correct	2back	Block1	2back/STIM_022.jpg
266.193	1.21	correct	2back	Block1	2back/STIM_022.jpg
270.259	0.676	correct	2back	Block1	2back/STIM_022.jpg
273.399	0.907	correct	2back	Block1	2back/STIM_023.jpg
277.438	1.154	correct	2back	Block1	2back/STIM_023.jpg
281.139	0.884	correct	2back	Block1	2back/STIM_023.jpg
285.684	1.285	correct	2back	Block1	2back/STIM_024.jpg
289.515	0.981	correct	2back	Block1	2back/STIM_024.jpg
292.828	0.818	correct	2back	Block1	2back/STIM_024.jpg
295.973	0.96	correct	2back	Block1	2back/STIM_025.jpg
300.156	0.625	correct	2back	Block1	2back/STIM_025.jpg
304.31	1.24	correct	2back	Block1	2back/STIM_025.jpg
308.845	0.915	incorrect	2back	Block1	2back/STIM_026.jpg
313.383	1.266	incorrect	2back	Block1	2back/STIM_026.jpg
316.935	0.66	correct	2back	Block1	2back/STIM_026.jpg
320.251	0.83	correct	2back	Block1	2back/STIM_027.jpg
324.308	1.032	correct	2back	Block1	2back/STIM_027.jpg
328.428	1.098	correct	2back	Block1	2back/STIM_027.jpg
332.798	1.266	correct	2back	Block1	2back/STIM_028.jpg
337.037	0.721	incorrect	2back	Block1	2back/STIM_028.jpg
340.464	0.79	incorrect	2back	Block1	2back/STIM_028.jpg
343.766	1.147	correct	2back	Block1	2back/STIM_029.jpg
347.462	0.828	correct	2back	Block1	2back/STIM_029.jpg
352.246	0.974	correct	2back	Block1	2back/STIM_029.jpg
355.498	0.799	incorrect	2back	Block1	2back/STIM_030.jpg
359.851	0.746	correct	2back	Block1	2back/STIM_030.jpg
363.049	0.889	correct	2back	Block1	2back/STIM_030.jpg
367.925	1.313	correct	2back	Block1	2back/STIM_031.jpg
371.66	0.618	correct	2back	Block1	2back/STIM_031.jpg
375.402	0.8	correct	2back	Block1	2back/STIM_031.jpg
379.829	0.664	incorrect	2back	Block1	2back/STIM_032.jpg
383.088	1.213	incorrect	2back	Block1	2back/STIM_032.jpg
387.53	0.855	correct	2back	Block1	2back/STIM_032.jpg
392.096	1.295	incorrect	2back	Block1	2back/STIM_033.jpg
395.805	0.648	correct	2back	Block1	2back/STIM_033.jpg
399.171	1.076	correct	2back	Block1	2back/STIM_033.jpg
403.4	0.998	correct	2back	Block1	2back/STIM_034.jpg
407.272	0.836	correct	2back	Block1	2back/STIM_034.jpg
411.339	1.055	incorrect	2back	Block1	2back/STIM_034.jpg
415.436	1.347	correct	2back	Block1	2back/STIM_035.jpg
420.499	1.051	incorrect	2back	Block1	2back/STIM_035.jpg
424.491	0.631	correct	2back	Block1	2back/STIM_035.jpg
427.572	0.777	correct	2back	Block1	2back/STIM_036.jpg
431.024	0.848	correct	2back	Block1	2back/STIM_036.jpg
434.807	0.612	correct	2back	Block1	2back/STIM_036.jpg
437.78	0.788	correct	2back	Block1	2back/STIM_037.jpg
440.923	1.225	correct	2back	Block1	2back/STIM_037.jpg
444.494	0.545	correct	2back	Block1	2back/STIM_037.jpg
448.128	1.278	correct	2back	Block1	2back/STIM_038.jpg
452.609	0.703	correct	2back	Block1	2back/STIM_038.jpg
455.588	0.939	correct	2back	Block1	2back/STIM_038.jpg
459.622	0.601	correct	2back	Block1	2back/STIM_039.jpg
463.393	0.604	correct	2back	Block1	2back/STIM_039.jpg
466.737	0.766	correct	2back	Block1	2back/STIM_039.jpg
469.605	0.709	correct	0back	Block1	0back/STIM_000.jpg
474.041	0.752	correct	0back	Block1	0back/STIM_000.jpg
478.587	0.529	correct	0back	Block1	0back/STIM_000.jpg
481.939	0.446	correct	0back	Block1	0back/STIM_001.jpg
485.723	0.607	correct	0back	Block1	0back/STIM_001.jpg
488.616	0.503	correct	0back	Block1	0back/STIM_001.jpg
493.025	0.502	correct	0back	Block1	0back/STIM_002.jpg
496.709	0.613	correct	0back	Block1	0back/STIM_002.jpg
499.507	0.693	correct	0back	Block1	0back/STIM_002.jpg
503.784	0.509	correct	0back	Block1	0back/STIM_003.jpg
506.788	0.404	correct	0back	Block1	0back/STIM_003.jpg
510.329	0.438	correct	0back	Block1	0back/STIM_003.jpg
514.678	0.674	correct	0back	Block1	0back/STIM_004.jpg
517.643	0.709	correct	0back	Block1	0back/STIM_004.jpg
521.847	0.457	correct	0back	Block1	0back/STIM_004.jpg
524.603	0.79	correct	0back	Block1	0back/STIM_005.jpg
528.237	0.503	correct	0back	Block1	0back/STIM_005.jpg
531.911	0.708	correct	0back	Block1	0back/STIM_005.jpg
536.195	0.493	correct	0back	Block1	0back/STIM_006.jpg
539.172	0.59	correct	0back	Block1	0back/STIM_006.jpg
542.92	0.493	correct	0back	Block1	0back/STIM_006.jpg
545.582	0.491	correct	0back	Block1	0back/STIM_007.jpg
548.479	0.462	correct	0back	Block1	0back/STIM_007.jpg
552.101	0.407	correct	0back	Block1	0back/STIM_007.jpg
554.678	0.684	correct	0back	Block1	0back/STIM_008.jpg
558.861	0.556	correct	0back	Block1	0back/STIM_008.jpg
562.068	0.785	correct	0back	Block1	0back/STIM_008.jpg
565.581	0.762	correct	0back	Block1	0back/STIM_009.jpg
569.204	0.744	correct	0back	Block1	0back/STIM_009.jpg
573.423	0.652	correct	0back	Block1	0back/STIM_009.jpg
577.716	0.773	correct	0back	Block1	0back/STIM_010.jpg
580.765	0.69	correct	0back	Block1	0back/STIM_010.jpg
583.99	0.632	correct	0back	Block1	0back/STIM_010.jpg
587.234	0.57	correct	0back	Block1	0back/STIM_011.jpg
589.815	0.494	correct	0back	Block1	0back/STIM_011.jpg
593.068	0.591	correct	0back	Block1	0back/STIM_011.jpg
597.447	0.446	correct	0back	Block1	0back/STIM_012.jpg
600.236	0.47	correct	0back	Block1	0back/STIM_012.jpg
603.5	0.403	correct	0back	Block1	0back/STIM_012.jpg
607.368	0.435	correct	0back	Block1	0back/STIM_013.jpg
610.192	0.564	correct	0back	Block1	0back/STIM_013.jpg
614.737	0.399	correct	0back	Block1	0back/STIM_013.jpg
618.105	0.558	correct	0back	Block1	0back/STIM_014.jpg
620.729	0.444	correct	0back	Block1	0back/STIM_014.jpg
625.075	0.702	correct	0back	Block1	0back/STIM_014.jpg
628.007	0.585	correct	0back	Block1	0back/STIM_015.jpg
631.242	0.405	correct	0back	Block1	0back/STIM_015.jpg
634.319	0.731	correct	0back	Block1	0back/STIM_015.jpg
637.853	0.621	correct	0back	Block1	0back/STIM_016.jpg
642.428	0.638	correct	0back	Block1	0back/STIM_016.jpg
647.009	0.543	correct	0back	Block1	0back/STIM_016.jpg
650.879	0.582	correct	0back	Block1	0back/STIM_017.jpg
655.364	0.702	correct	0back	Block1	0back/STIM_017.jpg
659.043	0.616	correct	0back	Block1	0back/STIM_017.jpg
662.529	0.401	correct	0back	Block1	0back/STIM_018.jpg
666.226	0.76	correct	0back	Block1	0back/STIM_018.jpg
670.285	0.793	correct	0back	Block1	0back/STIM_018.jpg
673.331	0.485	correct	0back	Block1	0back/STIM_019.jpg
676.921	0.458	correct	0back	Block1	0back/STIM_019.jpg
680.919	0.441	correct	0back	Block1	0back/STIM_019.jpg
684.39	0.743	correct	2back	Block2	2back/STIM_000.jpg
688.813	0.945	correct	2back	Block2	2back/STIM_000.jpg
691.916	0.993	correct	2back	Block2	2back/STIM_000.jpg
695.084	0.83	correct	2back	Block2	2back/STIM_001.jpg
699.908	0.6	correct	2back	Block2	2back/STIM_001.jpg
704.137	0.549	correct	2back	Block2	2back/STIM_001.jpg
708.263	0.892	correct	2back	Block2	2back/STIM_002.jpg
712.503	1.078	correct	2back	Block2	2back/STIM_002.jpg
716.94	0.794	correct	2back	Block2	2back/STIM_002.jpg
719.922	0.57	correct	2back	Block2	2back/STIM_003.jpg
722.691	0.712	correct	2back	Block2	2back/STIM_003.jpg
725.425	1.032	correct	2back	Block2	2back/STIM_003.jpg
728.595	0.921	correct	2back	Block2	2back/STIM_004.jpg
732.798	0.684	correct	2back	Block2	2back/STIM_004.jpg
736.363	0.851	correct	2back	Block2	2back/STIM_004.jpg
740.758	0.517	incorrect	2back	Block2	2back/STIM_005.jpg
743.278	0.642	correct	2back	Block2	2back/STIM_005.jpg
746.689	0.673	correct	2back	Block2	2back/STIM_005.jpg
751.007	0.532	incorrect	2back	Block2	2back/STIM_006.jpg
753.635	0.71	correct	2back	Block2	2back/STIM_006.jpg
757.004	0.772	correct	2back	Block2	2back/STIM_006.jpg
761.052	1.179	correct	2back	Block2	2back/STIM_007.jpg
765.629	0.67	correct	2back	Block2	2back/STIM_007.jpg
769.197	0.719	correct	2back	Block2	2back/STIM_007.jpg
773.176	1.112	correct	2back	Block2	2back/STIM_008.jpg
776.671	0.536	incorrect	2back	Block2	2back/STIM_008.jpg
780.127	0.782	correct	2back	Block2	2back/STIM_008.jpg
784.274	0.54	correct	2back	Block2	2back/STIM_009.jpg
788.075	1.041	correct	2back	Block2	2back/STIM_009.jpg
792.029	0.658	correct	2back	Block2	2back/STIM_009.jpg
795.13	0.997	correct	2back	Block2	2back/STIM_010.jpg
799.671	0.635	correct	2back	Block2	2back/STIM_010.jpg
802.685	0.816	incorrect	2back	Block2	2back/STIM_010.jpg
806.717	0.9	correct	2back	Block2	2back/STIM_011.jpg
810.883	1.109	incorrect	2back	Block2	2back/STIM_011.jpg
814.806	0.648	correct	2back	Block2	2back/STIM_011.jpg
817.578	0.771	correct	2back	Block2	2back/STIM_012.jpg
822.204	0.771	correct	2back	Block2	2back/STIM_012.jpg
825.731	0.888	incorrect	2back	Block2	2back/STIM_012.jpg
828.94	0.698	correct	2back	Block2	2back/STIM_013.jpg
832.746	0.623	correct	2back	Block2	2back/STIM_013.jpg
836.792	0.54	correct	2back	Block2	2back/STIM_013.jpg
841.086	0.672	correct	2back	Block2	2back/STIM_014.jpg
844.776	1.024	correct	2back	Block2	2back/STIM_014.jpg
849.77	0.971	correct	2back	Block2	2back/STIM_014.jpg
853.629	1.071	correct	2back	Block2	2back/STIM_015.jpg
857.808	0.543	incorrect	2back	Block2	2back/STIM_015.jpg
862.121	0.702	correct	2back	Block2	2back/STIM_015.jpg
865.916	0.613	correct	2back	Block2	2back/STIM_016.jpg
869.384	0.776	correct	2back	Block2	2back/STIM_016.jpg
872.506	0.898	correct	2back	Block2	2back/STIM_016.jpg
877.324	0.684	correct	2back	Block2	2back/STIM_017.jpg
881.333	1.111	correct	2back	Block2	2back/STIM_017.jpg
885.249	0.465	correct	2back	Block2	2back/STIM_017.jpg
889.464	0.549	correct	2back	Block2	2back/STIM_018.jpg
893.773	0.561	incorrect	2back	Block2	2back/STIM_018.jpg
898.16	0.551	correct	2back	Block2	2back/STIM_018.jpg
900.974	1.002	correct	2back	Block2	2back/STIM_019.jpg
904.562	0.778	correct	2back	Block2	2back/STIM_019.jpg
907.972	0.773	incorrect	2back	Block2	2back/STIM_019.jpg
912.699	1.16	correct	2back	Block2	2back/STIM_020.jpg
917.02	0.481	correct	2back	Block2	2back/STIM_020.jpg
921.44	0.497	correct	2back	Block2	2back/STIM_020.jpg
923.946	1.127	correct	2back	Block2	2back/STIM_021.jpg
928.172	0.956	correct	2back	Block2	2back/STIM_021.jpg
932.526	0.907	correct	2back	Block2	2back/STIM_021.jpg
936.236	0.963	correct	2back	Block2	2back/STIM_022.jpg
940.129	0.955	correct	2back	Block2	2back/STIM_022.jpg
943.524	0.926	correct	2back	Block2	2back/STIM_022.jpg
947.474	0.55	correct	2back	Block2	2back/STIM_023.jpg
951.672	0.625	correct	2back	Block2	2back/STIM_023.jpg
955.735	0.478	correct	2back	Block2	2back/STIM_023.jpg
959.227	0.526	correct	2back	Block2	2back/STIM_024.jpg
963.558	0.804	correct	2back	Block2	2back/STIM_024.jpg
966.481	0.58	correct	2back	Block2	2back/STIM_024.jpg
969.62	0.632	correct	2back	Block2	2back/STIM_025.jpg
973.414	1.094	correct	2back	Block2	2back/STIM_025.jpg
977.012	0.507	correct	2back	Block2	2back/STIM_025.jpg
980.56	0.957	correct	2back	Block2	2back/STIM_026.jpg
985.362	0.94	correct	2back	Block2	2back/STIM_026.jpg
988.338	0.888	correct	2back	Block2	2back/STIM_026.jpg
992.802	1.031	correct	2back	Block2	2back/STIM_027.jpg
996.626	0.812	correct	2back	Block2	2back/STIM_027.jpg
1001.286	0.939	correct	2back	Block2	2back/STIM_027.jpg
1005.476	0.635	correct	2back	Block2	2back/STIM_028.jpg
1009.812	1.001	correct	2back	Block2	2back/STIM_028.jpg
1014.203	1.026	correct	2back	Block2	2back/STIM_028.jpg
1017.633	0.894	correct	2back	Block2	2back/STIM_029.jpg
1020.543	0.954	correct	2back	Block2	2back/STIM_029.jpg
1024.961	0.995	correct	2back	Block2	2back/STIM_029.jpg
1029.285	0.912	correct	2back	Block2	2back/STIM_030.jpg
1032.665	0.487	correct	2back	Block2	2back/STIM_030.jpg
1035.947	0.902	correct	2back	Block2	2back/STIM_030.jpg
1040.057	0.934	correct	2back	Block2	2back/STIM_031.jpg
1043.412	0.909	correct	2back	Block2	2back/STIM_031.jpg
1046.732	0.783	correct	2back	Block2	2back/STIM_031.jpg
1049.957	1.025	correct	2back	Block2	2back/STIM_032.jpg
1053.266	0.661	correct	2back	Block2	2back/STIM_032.jpg
1056.203	0.727	correct	2back	Block2	2back/STIM_032.jpg
1060.807	1.03	correct	2back	Block2	2back/STIM_033.jpg
1064.748	0.651	correct	2back	Block2	2back/STIM_033.jpg
1068.055	0.839	correct	2back	Block2	2back/STIM_033.jpg
1072.562	0.889	correct	2back	Block2	2back/STIM_034.jpg
1077.228	1.079	correct	2back	Block2	2back/STIM_034.jpg
1080.924	0.493	correct	2back	Block2	2back/STIM_034.jpg
1084.336	1.174	correct	2back	Block2	2back/STIM_035.jpg
1089.169	0.516	correct	2back	Block2	2back/STIM_035.jpg
1092.513	0.531	correct	2back	Block2	2back/STIM_035.jpg
1096.724	0.848	correct	2back	Block2	2back/STIM_036.jpg
1101.491	0.921	correct	2back	Block2	2back/STIM_036.jpg
1105.198	1.033	correct	2back	Block2	2back/STIM_036.jpg
1108.519	1.18	correct	2back	Block2	2back/STIM_037.jpg
1113.506	0.672	correct	2back	Block2	2back/STIM_037.jpg
1117.563	0.549	correct	2back	Block2	2back/STIM_037.jpg
1121.972	1.101	correct	2back	Block2	2back/STIM_038.jpg
1126.547	0.853	correct	2back	Block2	2back/STIM_038.jpg
1130.03	0.615	correct	2back	Block2	2back/STIM_038.jpg
1132.898	0.693	correct	2back	Block2	2back/STIM_039.jpg
1137.329	0.759	correct	2back	Block2	2back/STIM_039.jpg
1141.065	0.641	correct	2back	Block2	2back/STIM_039.jpg
1145.502	0.689	correct	0back	Block2	0back/STIM_000.jpg
1149.175	0.768	correct	0back	Block2	0back/STIM_000.jpg
1152.454	0.693	correct	0back	Block2	0back/STIM_000.jpg
1156.037	0.674	correct	0back	Block2	0back/STIM_001.jpg
1160.32	0.587	correct	0back	Block2	0back/STIM_001.jpg
1164.615	0.457	correct	0back	Block2	0back/STIM_001.jpg
1168.453	0.444	correct	0back	Block2	0back/STIM_002.jpg
1172.058	0.755	correct	0back	Block2	0back/STIM_002.jpg
1175.305	0.696	correct	0back	Block2	0back/STIM_002.jpg
1179.902	0.641	correct	0back	Block2	0back/STIM_003.jpg
1184.366	0.49	correct	0back	Block2	0back/STIM_003.jpg
1187.122	0.744	correct	0back	Block2	0back/STIM_003.jpg
1190.056	0.438	correct	0back	Block2	0back/STIM_004.jpg
1193.754	0.748	correct	0back	Block2	0back/STIM_004.jpg
1198.209	0.741	correct	0back	Block2	0back/STIM_004.jpg
1201.018	0.415	correct	0back	Block2	0back/STIM_005.jpg
1204.725	0.607	correct	0back	Block2	0back/STIM_005.jpg
1209.1	0.463	correct	0back	Block2	0back/STIM_005.jpg
1213.263	0.452	correct	0back	Block2	0back/STIM_006.jpg
1216.511	0.471	correct	0back	Block2	0back/STIM_006.jpg
1220.748	0.605	correct	0back	Block2	0back/STIM_006.jpg
1224.759	0.403	correct	0back	Block2	0back/STIM_007.jpg
1228.524	0.407	correct	0back	Block2	0back/STIM_007.jpg
1231.093	0.507	correct	0back	Block2	0back/STIM_007.jpg
1235.434	0.745	correct	0back	Block2	0back/STIM_008.jpg
1238.655	0.496	correct	0back	Block2	0back/STIM_008.jpg
1241.204	0.405	correct	0back	Block2	0back/STIM_008.jpg
1244.04	0.593	correct	0back	Block2	0back/STIM_009.jpg
1246.951	0.617	correct	0back	Block2	0back/STIM_009.jpg
1251.388	0.508	correct	0back	Block2	0back/STIM_009.jpg
1255.69	0.505	correct	0back	Block2	0back/STIM_010.jpg
1258.25	0.706	correct	0back	Block2	0back/STIM_010.jpg
1262.186	0.469	correct	0back	Block2	0back/STIM_010.jpg
1265.305	0.421	correct	0back	Block2	0back/STIM_011.jpg
1268.406	0.664	correct	0back	Block2	0back/STIM_011.jpg
1271.508	0.562	correct	0back	Block2	0back/STIM_011.jpg
1274.757	0.46	correct	0back	Block2	0back/STIM_012.jpg
1278.31	0.552	correct	0back	Block2	0back/STIM_012.jpg
1281.219	0.448	correct	0back	Block2	0back/STIM_012.jpg
1283.708	0.526	correct	0back	Block2	0back/STIM_013.jpg
1286.402	0.582	correct	0back	Block2	0back/STIM_013.jpg
1289.679	0.54	correct	0back	Block2	0back/STIM_013.jpg
1293.139	0.49	correct	0back	Block2	0back/STIM_014.jpg
1296.246	0.657	correct	0back	Block2	0back/STIM_014.jpg
1299.26	0.736	correct	0back	Block2	0back/STIM_014.jpg
1302.573	0.475	correct	0back	Block2	0back/STIM_015.jpg
1306.062	0.707	correct	0back	Block2	0back/STIM_015.jpg
1309.158	0.623	correct	0back	Block2	0back/STIM_015.jpg
1312.693	0.455	correct	0back	Block2	0back/STIM_016.jpg
1315.197	0.578	correct	0back	Block2	0back/STIM_016.jpg
1318.165	0.796	correct	0back	Block2	0back/STIM_016.jpg
1321.742	0.518	correct	0back	Block2	0back/STIM_017.jpg
1325.64	0.475	correct	0back	Block2	0back/STIM_017.jpg
1329.734	0.647	correct	0back	Block2	0back/STIM_017.jpg
1332.684	0.452	correct	0back	Block2	0back/STIM_018.jpg
1336.134	0.706	correct	0back	Block2	0back/STIM_018.jpg
1339.94	0.701	correct	0back	Block2	0back/STIM_018.jpg
1343.258	0.428	correct	0back	Block2	0back/STIM_019.jpg
1347.062	0.434	correct	0back	Block2	0back/STIM_019.jpg
1350.095	0.72	correct	0back	Block2	0back/STIM_019.jpg
1353.518	0.764	correct	2back	Block3	2back/STIM_000.jpg
1358.008	0.918	correct	2back	Block3	2back/STIM_000.jpg
1361.721	0.627	correct	2back	Block3	2back/STIM_000.jpg
1365.468	0.549	correct	2back	Block3	2back/STIM_001.jpg
1368.244	0.472	correct	2back	Block3	2back/STIM_001.jpg
1372.055	0.947	correct	2back	Block3	2back/STIM_001.jpg
1375.288	0.838	correct	2back	Block3	2back/STIM_002.jpg
1379.107	0.782	correct	2back	Block3	2back/STIM_002.jpg
1383.134	0.904	correct	2back	Block3	2back/STIM_002.jpg
1386.81	0.936	correct	2back	Block3	2back/STIM_003.jpg
1390.978	0.934	correct	2back	Block3	2back/STIM_003.jpg
1394.118	0.598	correct	2back	Block3	2back/STIM_003.jpg
1397.161	0.611	correct	2back	Block3	2back/STIM_004.jpg
1400.812	0.533	correct	2back	Block3	2back/STIM_004.jpg
1404.343	0.671	correct	2back	Block3	2back/STIM_004.jpg
1407.816	0.893	correct	2back	Block3	2back/STIM_005.jpg
1411.462	0.56	correct	2back	Block3	2back/STIM_005.jpg
1415.911	0.919	correct	2back	Block3	2back/STIM_005.jpg
1420.575	0.681	correct	2back	Block3	2back/STIM_006.jpg
1424.091	0.438	correct	2back	Block3	2back/STIM_006.jpg
1427.835	0.621	correct	2back	Block3	2back/STIM_006.jpg
1431.127	0.754	correct	2back	Block3	2back/STIM_007.jpg
1435.132	0.881	correct	2back	Block3	2back/STIM_007.jpg
1438.217	0.718	correct	2back	Block3	2back/STIM_007.jpg
1441.462	0.701	correct	2back	Block3	2back/STIM_008.jpg
1444.721	0.49	correct	2back	Block3	2back/STIM_008.jpg
1448.486	0.725	correct	2back	Block3	2back/STIM_008.jpg
1451.898	0.751	correct	2back	Block3	2back/STIM_009.jpg
1455.625	0.789	correct	2back	Block3	2back/STIM_009.jpg
1460.399	0.434	correct	2back	Block3	2back/STIM_009.jpg
1463.09	0.586	correct	2back	Block3	2back/STIM_010.jpg
1466.146	0.625	correct	2back	Block3	2back/STIM_010.jpg
1469.391	0.57	correct	2back	Block3	2back/STIM_010.jpg
1473.559	0.75	correct	2back	Block3	2back/STIM_011.jpg
1478.186	0.797	correct	2back	Block3	2back/STIM_011.jpg
1482.927	0.463	correct	2back	Block3	2back/STIM_011.jpg
1486.054	0.445	correct	2back	Block3	2back/STIM_012.jpg
1489.255	0.769	correct	2back	Block3	2back/STIM_012.jpg
1492.825	0.804	correct	2back	Block3	2back/STIM_012.jpg
1496.613	0.8	correct	2back	Block3	2back/STIM_013.jpg
1499.56	0.781	correct	2back	Block3	2back/STIM_013.jpg
1503.564	0.821	correct	2back	Block3	2back/STIM_013.jpg
1506.698	0.636	correct	2back	Block3	2back/STIM_014.jpg
1510.418	0.816	correct	2back	Block3	2back/STIM_014.jpg
1513.433	0.536	correct	2back	Block3	2back/STIM_014.jpg
1517.644	0.542	correct	2back	Block3	2back/STIM_015.jpg
1520.968	0.934	correct	2back	Block3	2back/STIM_015.jpg
1525.018	0.914	correct	2back	Block3	2back/STIM_015.jpg
1529.516	0.976	correct	2back	Block3	2back/STIM_016.jpg
1533.472	0.884	correct	2back	Block3	2back/STIM_016.jpg
1538.08	0.508	correct	2back	Block3	2back/STIM_016.jpg
1542.389	0.739	incorrect	2back	Block3	2back/STIM_017.jpg
1546.655	0.611	correct	2back	Block3	2back/STIM_017.jpg
1549.269	0.551	correct	2back	Block3	2back/STIM_017.jpg
1552.492	0.813	correct	2back	Block3	2back/STIM_018.jpg
1557.254	0.546	correct	2back	Block3	2back/STIM_018.jpg
1561.612	0.599	correct	2back	Block3	2back/STIM_018.jpg
1566.161	0.649	correct	2back	Block3	2back/STIM_019.jpg
1570.086	0.821	correct	2back	Block3	2back/STIM_019.jpg
1574.335	0.547	correct	2back	Block3	2back/STIM_019.jpg
1578.844	0.533	correct	2back	Block3	2back/STIM_020.jpg
1582.053	0.948	correct	2back	Block3	2back/STIM_020.jpg
1586.185	0.501	correct	2back	Block3	2back/STIM_020.jpg
1589.442	0.586	correct	2back	Block3	2back/STIM_021.jpg
1592.531	0.902	correct	2back	Block3	2back/STIM_021.jpg
1595.565	0.601	correct	2back	Block3	2back/STIM_021.jpg
1598.862	0.907	correct	2back	Block3	2back/STIM_022.jpg
1603.565	0.899	correct	2back	Block3	2back/STIM_022.jpg
1607.937	0.536	correct	2back	Block3	2back/STIM_022.jpg
1610.762	0.555	correct	2back	Block3	2back/STIM_023.jpg
1613.969	0.973	correct	2back	Block3	2back/STIM_023.jpg
1618.492	0.758	correct	2back	Block3	2back/STIM_023.jpg
1622.52	0.492	correct	2back	Block3	2back/STIM_024.jpg
1625.198	0.855	correct	2back	Block3	2back/STIM_024.jpg
1629.852	0.469	correct	2back	Block3	2back/STIM_024.jpg
1632.878	0.801	correct	2back	Block3	2back/STIM_025.jpg
1636.964	0.561	correct	2back	Block3	2back/STIM_025.jpg
1641.112	0.467	correct	2back	Block3	2back/STIM_025.jpg
1645.147	0.84	correct	2back	Block3	2back/STIM_026.jpg
1649.376	0.49	correct	2back	Block3	2back/STIM_026.jpg
1652.969	0.631	correct	2back	Block3	2back/STIM_026.jpg
1656.453	0.58	correct	2back	Block3	2back/STIM_027.jpg
1659.994	0.766	correct	2back	Block3	2back/STIM_027.jpg
1663.699	0.524	correct	2back	Block3	2back/STIM_027.jpg
1666.257	0.547	correct	2back	Block3	2back/STIM_028.jpg
1668.968	0.506	correct	2back	Block3	2back/STIM_028.jpg
1672.074	0.931	correct	2back	Block3	2back/STIM_028.jpg
1676.447	0.805	correct	2back	Block3	2back/STIM_029.jpg
1679.425	0.66	correct	2back	Block3	2back/STIM_029.jpg
1683.855	0.428	correct	2back	Block3	2back/STIM_029.jpg
1686.528	0.547	correct	2back	Block3	2back/STIM_030.jpg
1690.032	0.624	correct	2back	Block3	2back/STIM_030.jpg
1693.4	0.597	correct	2back	Block3	2back/STIM_030.jpg
1697.089	0.532	correct	2back	Block3	2back/STIM_031.jpg
1699.932	0.527	correct	2back	Block3	2back/STIM_031.jpg
1703.432	0.634	correct	2back	Block3	2back/STIM_031.jpg
1706.41	0.568	correct	2back	Block3	2back/STIM_032.jpg
1708.979	0.753	correct	2back	Block3	2back/STIM_032.jpg
1712.442	0.86	correct	2back	Block3	2back/STIM_032.jpg
1715.368	0.818	correct	2back	Block3	2back/STIM_033.jpg
1719.492	0.567	correct	2back	Block3	2back/STIM_033.jpg
1722.358	0.561	correct	2back	Block3	2back/STIM_033.jpg
1726.64	0.84	correct	2back	Block3	2back/STIM_034.jpg
1729.858	0.774	correct	2back	Block3	2back/STIM_034.jpg
1733.496	0.525	correct	2back	Block3	2back/STIM_034.jpg
1736.628	0.444	incorrect	2back	Block3	2back/STIM_035.jpg
1740.827	0.596	correct	2back	Block3	2back/STIM_035.jpg
1744.627	0.638	correct	2back	Block3	2back/STIM_035.jpg
1748.558	0.438	correct	2back	Block3	2back/STIM_036.jpg
1752.286	0.941	correct	2back	Block3	2back/STIM_036.jpg
1756.326	0.732	correct	2back	Block3	2back/STIM_036.jpg
1760.348	0.435	correct	2back	Block3	2back/STIM_037.jpg
1763.238	0.828	correct	2back	Block3	2back/STIM_037.jpg
1766.19	0.775	correct	2back	Block3	2back/STIM_037.jpg
1769.112	0.691	correct	2back	Block3	2back/STIM_038.jpg
1772.942	0.443	correct	2back	Block3	2back/STIM_038.jpg
1775.999	0.645	correct	2back	Block3	2back/STIM_038.jpg
1780.434	0.952	correct	2back	Block3	2back/STIM_039.jpg
1783.543	0.865	correct	2back	Block3	2back/STIM_039.jpg
1787.591	0.801	correct	2back	Block3	2back/STIM_039.jpg
1792.223	0.517	correct	0back	Block3	0back/STIM_000.jpg
1794.756	0.785	correct	0back	Block3	0back/STIM_000.jpg
1798.788	0.673	correct	0back	Block3	0back/STIM_000.jpg
1802.701	0.424	correct	0back	Block3	0back/STIM_001.jpg
1805.617	0.754	correct	0back	Block3	0back/STIM_001.jpg
1810.309	0.666	correct	0back	Block3	0back/STIM_001.jpg
1813.17	0.568	correct	0back	Block3	0back/STIM_002.jpg
1817.601	0.416	correct	0back	Block3	0back/STIM_002.jpg
1820.473	0.79	correct	0back	Block3	0back/STIM_002.jpg
1823.292	0.486	correct	0back	Block3	0back/STIM_003.jpg
1826.266	0.471	correct	0back	Block3	0back/STIM_003.jpg
1830.408	0.431	correct	0back	Block3	0back/STIM_003.jpg
1834.699	0.792	correct	0back	Block3	0back/STIM_004.jpg
1838.106	0.5	correct	0back	Block3	0back/STIM_004.jpg
1841.348	0.705	correct	0back	Block3	0back/STIM_004.jpg
1844.691	0.406	correct	0back	Block3	0back/STIM_005.jpg
1848.39	0.521	correct	0back	Block3	0back/STIM_005.jpg
1852.438	0.435	correct	0back	Block3	0back/STIM_005.jpg
1855.614	0.556	correct	0back	Block3	0back/STIM_006.jpg
1858.205	0.563	correct	0back	Block3	0back/STIM_006.jpg
1862.387	0.649	correct	0back	Block3	0back/STIM_006.jpg
1865.728	0.636	correct	0back	Block3	0back/STIM_007.jpg
1869.927	0.422	correct	0back	Block3	0back/STIM_007.jpg
1872.355	0.444	correct	0back	Block3	0back/STIM_007.jpg
1875.125	0.564	correct	0back	Block3	0back/STIM_008.jpg
1878.958	0.752	correct	0back	Block3	0back/STIM_008.jpg
1881.713	0.758	correct	0back	Block3	0back/STIM_008.jpg
1884.552	0.547	correct	0back	Block3	0back/STIM_009.jpg
1887.608	0.67	correct	0back	Block3	0back/STIM_009.jpg
1890.774	0.481	correct	0back	Block3	0back/STIM_009.jpg
1893.303	0.593	correct	0back	Block3	0back/STIM_010.jpg
1896.869	0.43	correct	0back	Block3	0back/STIM_010.jpg
1900.825	0.717	correct	0back	Block3	0back/STIM_010.jpg
1905.09	0.681	correct	0back	Block3	0back/STIM_011.jpg
1907.975	0.591	correct	0back	Block3	0back/STIM_011.jpg
1911.213	0.623	correct	0back	Block3	0back/STIM_011.jpg
1914.81	0.583	correct	0back	Block3	0back/STIM_012.jpg
1917.972	0.469	correct	0back	Block3	0back/STIM_012.jpg
1921.858	0.77	correct	0back	Block3	0back/STIM_012.jpg
1926.064	0.431	correct	0back	Block3	0back/STIM_013.jpg
1929.715	0.614	correct	0back	Block3	0back/STIM_013.jpg
1932.656	0.604	correct	0back	Block3	0back/STIM_013.jpg
1936.643	0.564	correct	0back	Block3	0back/STIM_014.jpg
1940.599	0.45	correct	0back	Block3	0back/STIM_014.jpg
1943.197	0.629	correct	0back	Block3	0back/STIM_014.jpg
1946.485	0.495	correct	0back	Block3	0back/STIM_015.jpg
1949.562	0.68	correct	0back	Block3	0back/STIM_015.jpg
1954.2	0.552	correct	0back	Block3	0back/STIM_015.jpg
1957.746	0.557	correct	0back	Block3	0back/STIM_016.jpg
1962.031	0.545	correct	0back	Block3	0back/STIM_016.jpg
1965.165	0.482	correct	0back	Block3	0back/STIM_016.jpg
1969.168	0.562	correct	0back	Block3	0back/STIM_017.jpg
1973.575	0.422	correct	0back	Block3	0back/STIM_017.jpg
1977.976	0.696	correct	0back	Block3	0back/STIM_017.jpg
1981.636	0.454	correct	0back	Block3	0back/STIM_018.jpg
1985.065	0.584	correct	0back	Block3	0back/STIM_018.jpg
1988.199	0.633	correct	0back	Block3	0back/STIM_018.jpg
1992.511	0.427	correct	0back	Block3	0back/STIM_019.jpg
1996.708	0.539	correct	0back	Block3	0back/STIM_019.jpg
1999.921	0.516	correct	0back	Block3	0back/STIM_019.jpg
2003.316	0.931	correct	2back	Block4	2back/STIM_000.jpg
2008.157	0.666	correct	2back	Block4	2back/STIM_000.jpg
2012.162	0.61	correct	2back	Block4	2back/STIM_000.jpg
2016.258	0.718	correct	2back	Block4	2back/STIM_001.jpg
2020.623	0.595	correct	2back	Block4	2back/STIM_001.jpg
2023.733	0.451	correct	2back	Block4	2back/STIM_001.jpg
2026.301	0.57	correct	2back	Block4	2back/STIM_002.jpg
2030.367	0.711	correct	2back	Block4	2back/STIM_002.jpg
2033.797	0.768	correct	2back	Block4	2back/STIM_002.jpg
2037.415	0.94	correct	2back	Block4	2back/STIM_003.jpg
2040.578	0.551	correct	2back	Block4	2back/STIM_003.jpg
2043.347	0.613	correct	2back	Block4	2back/STIM_003.jpg
2047.903	0.555	correct	2back	Block4	2back/STIM_004.jpg
2051.077	0.832	correct	2back	Block4	2back/STIM_004.jpg
2055.664	0.562	correct	2back	Block4	2back/STIM_004.jpg
2058.938	0.518	correct	2back	Block4	2back/STIM_005.jpg
2062.293	0.422	correct	2back	Block4	2back/STIM_005.jpg
2066.679	0.538	correct	2back	Block4	2back/STIM_005.jpg
2070.136	0.508	correct	2back	Block4	2back/STIM_006.jpg
2074.304	0.601	correct	2back	Block4	2back/STIM_006.jpg
2078.489	0.431	correct	2back	Block4	2back/STIM_006.jpg
2081.08	0.808	correct	2back	Block4	2back/STIM_007.jpg
2085.279	0.965	correct	2back	Block4	2back/STIM_007.jpg
2089.336	0.714	correct	2back	Block4	2back/STIM_007.jpg
2092.167	0.796	correct	2back	Block4	2back/STIM_008.jpg
2096.247	0.621	correct	2back	Block4	2back/STIM_008.jpg
2098.944	0.835	correct	2back	Block4	2back/STIM_008.jpg
2103.08	0.57	correct	2back	Block4	2back/STIM_009.jpg
2105.796	0.854	correct	2back	Block4	2back/STIM_009.jpg
2110.211	0.47	correct	2back	Block4	2back/STIM_009.jpg
2113.386	0.919	correct	2back	Block4	2back/STIM_010.jpg
2116.92	0.494	correct	2back	Block4	2back/STIM_010.jpg
2120.651	0.967	correct	2back	Block4	2back/STIM_010.jpg
2124.391	0.568	correct	2back	Block4	2back/STIM_011.jpg
2126.996	0.538	correct	2back	Block4	2back/STIM_011.jpg
2130.983	0.686	correct	2back	Block4	2back/STIM_011.jpg
2133.836	0.474	correct	2back	Block4	2back/STIM_012.jpg
2136.724	0.555	correct	2back	Block4	2back/STIM_012.jpg
2141.238	0.934	correct	2back	Block4	2back/STIM_012.jpg
2144.42	0.94	correct	2back	Block4	2back/STIM_013.jpg
2147.469	0.576	correct	2back	Block4	2back/STIM_013.jpg
2151.061	0.894	correct	2back	Block4	2back/STIM_013.jpg
2154.567	0.819	correct	2back	Block4	2back/STIM_014.jpg
2159.283	0.545	correct	2back	Block4	2back/STIM_014.jpg
2163.087	0.51	correct	2back	Block4	2back/STIM_014.jpg
2166.659	0.886	correct	2back	Block4	2back/STIM_015.jpg
2169.862	0.782	correct	2back	Block4	2back/STIM_015.jpg
2174.295	0.485	incorrect	2back	Block4	2back/STIM_015.jpg
2178.432	0.541	correct	2back	Block4	2back/STIM_016.jpg
2182.056	0.635	correct	2back	Block4	2back/STIM_016.jpg
2185.653	0.82	correct	2back	Block4	2back/STIM_016.jpg
2188.688	0.632	correct	2back	Block4	2back/STIM_017.jpg
2192.971	0.597	correct	2back	Block4	2back/STIM_017.jpg
2196.873	0.494	incorrect	2back	Block4	2back/STIM_017.jpg
2199.816	0.875	correct	2back	Block4	2back/STIM_018.jpg
2202.862	0.888	correct	2back	Block4	2back/STIM_018.jpg
2206.7	0.972	correct	2back	Block4	2back/STIM_018.jpg
2210.912	0.56	correct	2back	Block4	2back/STIM_019.jpg
2214.559	0.831	correct	2back	Block4	2back/STIM_019.jpg
2219.037	0.649	correct	2back	Block4	2back/STIM_019.jpg
2222.775	0.432	correct	2back	Block4	2back/STIM_020.jpg
2227.124	0.938	correct	2back	Block4	2back/STIM_020.jpg
2231.408	0.535	correct	2back	Block4	2back/STIM_020.jpg
2235.788	0.958	correct	2back	Block4	2back/STIM_021.jpg
2240.529	0.845	correct	2back	Block4	2back/STIM_021.jpg
2243.874	0.728	correct	2back	Block4	2back/STIM_021.jpg
2247.773	0.828	correct	2back	Block4	2back/STIM_022.jpg
2251.063	0.605	correct	2back	Block4	2back/STIM_022.jpg
2254.574	0.967	correct	2back	Block4	2back/STIM_022.jpg
2258.716	0.603	correct	2back	Block4	2back/STIM_023.jpg
2262.523	0.696	correct	2back	Block4	2back/STIM_023.jpg
2266.105	0.609	correct	2back	Block4	2back/STIM_023.jpg
2270.713	0.697	correct	2back	Block4	2back/STIM_024.jpg
2274.844	0.615	correct	2back	Block4	2back/STIM_024.jpg
2278.273	0.897	correct	2back	Block4	2back/STIM_024.jpg
2281.958	0.932	correct	2back	Block4	2back/STIM_025.jpg
2285.692	0.596	correct	2back	Block4	2back/STIM_025.jpg
2288.953	0.58	correct	2back	Block4	2back/STIM_025.jpg
2292.941	0.565	correct	2back	Block4	2back/STIM_026.jpg
2297.325	0.515	correct	2back	Block4	2back/STIM_026.jpg
2300.212	0.651	correct	2back	Block4	2back/STIM_026.jpg
2304.803	0.902	correct	2back	Block4	2back/STIM_027.jpg
2307.978	0.805	correct	2back	Block4	2back/STIM_027.jpg
2311.882	0.861	correct	2back	Block4	2back/STIM_027.jpg
2314.932	0.573	correct	2back	Block4	2back/STIM_028.jpg
2318.367	0.76	correct	2back	Block4	2back/STIM_028.jpg
2321.864	0.775	correct	2back	Block4	2back/STIM_028.jpg
2326.465	0.657	correct	2back	Block4	2back/STIM_029.jpg
2329.739	0.804	correct	2back	Block4	2back/STIM_029.jpg
2333.42	0.451	correct	2back	Block4	2back/STIM_029.jpg
2335.885	0.427	incorrect	2back	Block4	2back/STIM_030.jpg
2340.161	0.692	incorrect	2back	Block4	2back/STIM_030.jpg
2344.719	0.49	correct	2back	Block4	2back/STIM_030.jpg
2347.659	0.528	correct	2back	Block4	2back/STIM_031.jpg
2350.342	0.514	correct	2back	Block4	2back/STIM_031.jpg
2353.357	0.564	correct	2back	Block4	2back/STIM_031.jpg
2357.085	0.467	correct	2back	Block4	2back/STIM_032.jpg
2361.498	0.526	correct	2back	Block4	2back/STIM_032.jpg
2364.271	0.905	correct	2back	Block4	2back/STIM_032.jpg
2368.928	0.867	correct	2back	Block4	2back/STIM_033.jpg
2373.142	0.829	incorrect	2back	Block4	2back/STIM_033.jpg
2377.185	0.773	correct	2back	Block4	2back/STIM_033.jpg
2381.061	0.669	correct	2back	Block4	2back/STIM_034.jpg
2385.287	0.945	correct	2back	Block4	2back/STIM_034.jpg
2389.917	0.566	correct	2back	Block4	2back/STIM_034.jpg
2394.403	0.804	correct	2back	Block4	2back/STIM_035.jpg
2398.509	0.784	correct	2back	Block4	2back/STIM_035.jpg
2402.557	0.703	correct	2back	Block4	2back/STIM_035.jpg
2406.516	0.867	correct	2back	Block4	2back/STIM_036.jpg
2410.908	0.879	correct	2back	Block4	2back/STIM_036.jpg
2415.376	0.82	correct	2back	Block4	2back/STIM_036.jpg
2418.226	0.683	correct	2back	Block4	2back/STIM_037.jpg
2422.037	0.912	correct	2back	Block4	2back/STIM_037.jpg
2425.238	0.88	correct	2back	Block4	2back/STIM_037.jpg
2429.987	0.514	correct	2back	Block4	2back/STIM_038.jpg
2432.938	0.742	correct	2back	Block4	2back/STIM_038.jpg
2436.701	0.862	correct	2back	Block4	2back/STIM_038.jpg
2440.94	0.57	correct	2back	Block4	2back/STIM_039.jpg
2444.447	0.861	correct	2back	Block4	2back/STIM_039.jpg
2448.447	0.572	correct	2back	Block4	2back/STIM_039.jpg
2451.473	0.466	correct	0back	Block4	0back/STIM_000.jpg
2454.97	0.662	correct	0back	Block4	0back/STIM_000.jpg
2459.592	0.59	correct	0back	Block4	0back/STIM_000.jpg
2463.212	0.649	correct	0back	Block4	0back/STIM_001.jpg
2467.791	0.532	correct	0back	Block4	0back/STIM_001.jpg
2471.584	0.64	correct	0back	Block4	0back/STIM_001.jpg
2474.933	0.507	correct	0back	Block4	0back/STIM_002.jpg
2477.899	0.785	correct	0back	Block4	0back/STIM_002.jpg
2481.273	0.604	incorrect	0back	Block4	0back/STIM_002.jpg
2485.209	0.433	correct	0back	Block4	0back/STIM_003.jpg
2488.744	0.468	correct	0back	Block4	0back/STIM_003.jpg
2491.874	0.701	correct	0back	Block4	0back/STIM_003.jpg
2494.742	0.745	correct	0back	Block4	0back/STIM_004.jpg
2499.214	0.757	correct	0back	Block4	0back/STIM_004.jpg
2502.004	0.404	correct	0back	Block4	0back/STIM_004.jpg
2505.951	0.487	correct	0back	Block4	0back/STIM_005.jpg
2509.251	0.694	correct	0back	Block4	0back/STIM_005.jpg
2512.286	0.606	correct	0back	Block4	0back/STIM_005.jpg
2516.635	0.577	correct	0back	Block4	0back/STIM_006.jpg
2519.366	0.717	correct	0back	Block4	0back/STIM_006.jpg
2523.587	0.794	correct	0back	Block4	0back/STIM_006.jpg
2526.985	0.4	correct	0back	Block4	0back/STIM_007.jpg
2531.284	0.739	correct	0back	Block4	0back/STIM_007.jpg
2534.496	0.48	correct	0back	Block4	0back/STIM_007.jpg
2537.449	0.519	correct	0back	Block4	0back/STIM_008.jpg
2541.555	0.618	correct	0back	Block4	0back/STIM_008.jpg
2544.583	0.428	correct	0back	Block4	0back/STIM_008.jpg
2547.666	0.66	correct	0back	Block4	0back/STIM_009.jpg
2551.195	0.519	correct	0back	Block4	0back/STIM_009.jpg
2554.394	0.561	correct	0back	Block4	0back/STIM_009.jpg
2558.2	0.503	correct	0back	Block4	0back/STIM_010.jpg
2561.653	0.517	incorrect	0back	Block4	0back/STIM_010.jpg
2565.72	0.74	correct	0back	Block4	0back/STIM_010.jpg
2568.59	0.691	correct	0back	Block4	0back/STIM_011.jpg
2571.754	0.496	correct	0back	Block4	0back/STIM_011.jpg
2575.908	0.752	correct	0back	Block4	0back/STIM_011.jpg
2578.907	0.575	correct	0back	Block4	0back/STIM_012.jpg
2582.544	0.64	correct	0back	Block4	0back/STIM_012.jpg
2586.299	0.566	correct	0back	Block4	0back/STIM_012.jpg
2589.251	0.638	correct	0back	Block4	0back/STIM_013.jpg
2591.962	0.762	correct	0back	Block4	0back/STIM_013.jpg
2596.365	0.524	correct	0back	Block4	0back/STIM_013.jpg
2600.879	0.466	correct	0back	Block4	0back/STIM_014.jpg
2604.734	0.512	correct	0back	Block4	0back/STIM_014.jpg
2607.741	0.564	correct	0back	Block4	0back/STIM_014.jpg
2610.752	0.618	correct	0back	Block4	0back/STIM_015.jpg
2614.429	0.768	correct	0back	Block4	0back/STIM_015.jpg
2618.286	0.738	correct	0back	Block4	0back/STIM_015.jpg
2622.834	0.492	correct	0back	Block4	0back/STIM_016.jpg
2625.503	0.656	correct	0back	Block4	0back/STIM_016.jpg
2629.191	0.681	correct	0back	Block4	0back/STIM_016.jpg
2632.166	0.668	correct	0back	Block4	0back/STIM_017.jpg
2634.858	0.791	correct	0back	Block4	0back/STIM_017.jpg
2638.399	0.627	correct	0back	Block4	0back/STIM_017.jpg
2641.157	0.722	correct	0back	Block4	0back/STIM_018.jpg
2645.589	0.438	correct	0back	Block4	0back/STIM_018.jpg
2648.425	0.607	correct	0back	Block4	0back/STIM_018.jpg
2651.649	0.737	correct	0back	Block4	0back/STIM_019.jpg
2655.353	0.606	correct	0back	Block4	0back/STIM_019.jpg
2659.835	0.609	correct	0back	Block4	0back/STIM_019.jpg
