onset	duration	response_time_ms	trial_type	learning_stage	stimulus	response_port
0.0	1.094	1093.5	2back	Block1	2back/STIM_000.jpg	99
3.936	1.009	1008.8	2back	Block1	2back/STIM_000.jpg	100
8.657	1.234	1233.7	2back	Block1	2back/STIM_000.jpg	100
12.457	0.986	985.6	2back	Block1	2back/STIM_001.jpg	100
16.654	0.624	623.8	2back	Block1	2back/STIM_001.jpg	100
19.448	1.121	1121.3	2back	Block1	2back/STIM_001.jpg	100
23.394	1.218	1217.5	2back	Block1	2back/STIM_002.jpg	100
28.5	0.655	655.2	2back	Block1	2back/STIM_002.jpg	100
32.224	1.06	1060.0	2back	Block1	2back/STIM_002.jpg	99
35.857	0.667	666.9	2back	Block1	2back/STIM_003.jpg	100
38.829	0.832	831.7	2back	Block1	2back/STIM_003.jpg	100
41.874	1.044	1043.7	2back	Block1	2back/STIM_003.jpg	99
45.583	0.55	550.4	2back	Block1	2back/STIM_004.jpg	99
49.655	0.634	634.4	2back	Block1	2back/STIM_004.jpg	99
52.543	1.036	1036.3	2back	Block1	2back/STIM_004.jpg	100
57.622	1.295	1294.6	2back	Block1	2back/STIM_005.jpg	100
62.79	1.239	1238.7	2back	Block1	2back/STIM_005.jpg	99
66.576	0.639	638.7	2back	Block1	2back/STIM_005.jpg	99
70.592	0.708	708.2	2back	Block1	2back/STIM_006.jpg	99
74.814	1.194	1194.4	2back	Block1	2back/STIM_006.jpg	100
78.739	0.716	716.4	2back	Block1	2back/STIM_006.jpg	100
83.332	0.92	919.5	2back	Block1	2back/STIM_007.jpg	99
86.746	0.763	763.1	2back	Block1	2back/STIM_007.jpg	100
90.612	0.468	467.8	2back	Block1	2back/STIM_007.jpg	100
93.954	0.806	805.9	2back	Block1	2back/STIM_008.jpg	99
98.164	0.562	561.8	2back	Block1	2back/STIM_008.jpg	99
102.247	0.705	704.7	2back	Block1	2back/STIM_008.jpg	99
106.546	1.049	1048.9	2back	Block1	2back/STIM_009.jpg	100
110.712	0.858	857.7	2back	Block1	2back/STIM_009.jpg	99
114.321	1.195	1195.3	2back	Block1	2back/STIM_009.jpg	99
117.669	0.993	992.9	2back	Block1	2back/STIM_010.jpg	100
121.042	0.67	670.2	2back	Block1	2back/STIM_010.jpg	99
125.54	0.717	717.1	2back	Block1	2back/STIM_010.jpg	100
130.266	1.114	1114.3	2back	Block1	2back/STIM_011.jpg	100
134.506	1.236	1236.1	2back	Block1	2back/STIM_011.jpg	100
138.471	1.201	1200.7	2back	Block1	2back/STIM_011.jpg	99
142.023	1.0	999.8	2back	Block1	2back/STIM_012.jpg	99
146.685	0.879	878.8	2back	Block1	2back/STIM_012.jpg	100
150.457	0.601	601.4	2back	Block1	2back/STIM_012.jpg	99
154.228	0.692	691.9	2back	Block1	2back/STIM_013.jpg	99
157.074	0.52	520.5	2back	Block1	2back/STIM_013.jpg	100
160.233	1.078	1078.1	2back	Block1	2back/STIM_013.jpg	99
164.037	1.211	1211.0	2back	Block1	2back/STIM_014.jpg	100
168.443	0.588	587.8	2back	Block1	2back/STIM_014.jpg	99
172.199	0.832	831.6	2back	Block1	2back/STIM_014.jpg	99
176.924	0.712	712.4	2back	Block1	2back/STIM_015.jpg	100
180.919	0.617	616.7	2back	Block1	2back/STIM_015.jpg	100
185.255	0.572	572.5	2back	Block1	2back/STIM_015.jpg	100
189.899	0.997	996.9	2back	Block1	2back/STIM_016.jpg	99
194.582	1.251	1250.6	2back	Block1	2back/STIM_016.jpg	100
198.245	0.473	473.2	2back	Block1	2back/STIM_016.jpg	99
201.179	0.856	856.5	2back	Block1	2back/STIM_017.jpg	99
204.891	0.961	961.1	2back	Block1	2back/STIM_017.jpg	99
209.66	1.141	1140.7	2back	Block1	2back/STIM_017.jpg	99
213.232	0.61	609.5	2back	Block1	2back/STIM_018.jpg	99
216.238	0.54	540.3	2back	Block1	2back/STIM_018.jpg	100
220.483	1.235	1234.7	2back	Block1	2back/STIM_018.jpg	99
224.912	0.775	775.0	2back	Block1	2back/STIM_019.jpg	99
229.577	0.854	854.2	2back	Block1	2back/STIM_019.jpg	100
232.773	0.674	673.5	2back	Block1	2back/STIM_019.jpg	100
236.085	1.205	1205.3	2back	Block1	2back/STIM_020.jpg	100
240.428	1.24	1240.1	2back	Block1	2back/STIM_020.jpg	99
245.275	1.15	1150.0	2back	Block1	2back/STIM_020.jpg	100
250.332	1.124	1123.8	2back	Block1	2back/STIM_021.jpg	99
254.941	1.017	1017.4	2back	Block1	2back/STIM_021.jpg	99
258.363	0.8	799.9	2back	Block1	2back/STIM_021.jpg	99
262.983	0.475	474.8	2back	Block1	2back/STIM_022.jpg	99
266.417	0.832	831.6	2back	Block1	2back/STIM_022.jpg	100
269.457	0.715	714.6	2back	Block1	2back/STIM_022.jpg	99
273.848	1.254	1253.7	2back	Block1	2back/STIM_023.jpg	99
278.383	1.098	1098.3	2back	Block1	2back/STIM_023.jpg	99
282.43	0.602	602.5	2back	Block1	2back/STIM_023.jpg	100
286.817	1.265	1265.1	2back	Block1	2back/STIM_024.jpg	100
291.487	0.852	851.9	2back	Block1	2back/STIM_024.jpg	100
295.79	1.197	1196.6	2back	Block1	2back/STIM_024.jpg	99
299.273	0.801	801.2	2back	Block1	2back/STIM_025.jpg	100
303.558	0.855	855.0	2back	Block1	2back/STIM_025.jpg	99
306.853	1.001	1001.4	2back	Block1	2back/STIM_025.jpg	100
311.603	1.174	1173.9	2back	Block1	2back/STIM_026.jpg	99
316.272	1.02	1019.7	2back	Block1	2back/STIM_026.jpg	100
319.903	1.195	1195.0	2back	Block1	2back/STIM_026.jpg	99
323.962	1.007	1006.6	2back	Block1	2back/STIM_027.jpg	99
328.132	0.643	643.2	2back	Block1	2back/STIM_027.jpg	99
331.138	0.463	463.4	2back	Block1	2back/STIM_027.jpg	100
334.974	0.717	717.3	2back	Block1	2back/STIM_028.jpg	99
338.438	0.869	869.0	2back	Block1	2back/STIM_028.jpg	100
342.632	0.778	778.4	2back	Block1	2back/STIM_028.jpg	100
346.831	1.083	1082.6	2back	Block1	2back/STIM_029.jpg	99
351.03	1.041	1040.9	2back	Block1	2back/STIM_029.jpg	99
355.404	0.497	497.4	2back	Block1	2back/STIM_029.jpg	99
358.23	0.948	947.6	2back	Block1	2back/STIM_030.jpg	100
362.07	1.052	1052.4	2back	Block1	2back/STIM_030.jpg	100
366.416	0.833	833.1	2back	Block1	2back/STIM_030.jpg	99
370.791	1.209	1208.9	2back	Block1	2back/STIM_031.jpg	100
375.195	1.091	1090.6	2back	Block1	2back/STIM_031.jpg	100
379.849	1.152	1152.0	2back	Block1	2back/STIM_031.jpg	100
383.607	0.623	622.6	2back	Block1	2back/STIM_032.jpg	99
386.66	1.014	1013.9	2back	Block1	2back/STIM_032.jpg	99
390.031	1.12	1120.1	2back	Block1	2back/STIM_032.jpg	100
393.783	1.29	1290.0	2back	Block1	2back/STIM_033.jpg	99
398.351	1.078	1078.0	2back	Block1	2back/STIM_033.jpg	99
401.684	1.028	1027.9	2back	Block1	2back/STIM_033.jpg	100
406.595	0.528	528.1	2back	Block1	2back/STIM_034.jpg	100
409.971	0.49	490.4	2back	Block1	2back/STIM_034.jpg	99
413.488	0.722	722.2	2back	Block1	2back/STIM_034.jpg	99
417.143	1.107	1106.7	2back	Block1	2back/STIM_035.jpg	100
422.029	1.172	1171.6	2back	Block1	2back/STIM_035.jpg	100
426.952	1.263	1263.0	2back	Block1	2back/STIM_035.jpg	100
430.728	1.282	1281.8	2back	Block1	2back/STIM_036.jpg	100
434.691	0.976	976.5	2back	Block1	2back/STIM_036.jpg	99
439.355	1.011	1010.8	2back	Block1	2back/STIM_036.jpg	99
443.811	0.746	746.1	2back	Block1	2back/STIM_037.jpg	100
448.513	1.23	1230.2	2back	Block1	2back/STIM_037.jpg	99
452.439	0.498	498.4	2back	Block1	2back/STIM_037.jpg	100
455.875	0.78	779.9	2back	Block1	2back/STIM_038.jpg	100
459.331	0.982	982.1	2back	Block1	2back/STIM_038.jpg	100
463.435	0.72	719.7	2back	Block1	2back/STIM_038.jpg	99
467.163	0.998	998.3	2back	Block1	2back/STIM_039.jpg	100
471.998	0.8	799.5	2back	Block1	2back/STIM_039.jpg	100
476.277	0.555	555.3	2back	Block1	2back/STIM_039.jpg	100
479.36	0.757	757.0	0back	Block1	0back/STIM_000.jpg	99
484.062	0.781	781.3	0back	Block1	0back/STIM_000.jpg	99
488.171	0.664	663.8	0back	Block1	0back/STIM_000.jpg	99
491.856	0.772	772.1	0back	Block1	0back/STIM_001.jpg	99
496.074	0.502	502.3	0back	Block1	0back/STIM_001.jpg	99
499.996	0.409	409.3	0back	Block1	0back/STIM_001.jpg	99
503.207	0.85	850.0	0back	Block1	0back/STIM_002.jpg	100
506.721	0.532	531.8	0back	Block1	0back/STIM_002.jpg	100
509.894	0.603	602.6	0back	Block1	0back/STIM_002.jpg	100
513.754	0.676	675.6	0back	Block1	0back/STIM_003.jpg	100
516.511	0.507	506.8	0back	Block1	0back/STIM_003.jpg	99
520.801	0.36	360.0	0back	Block1	0back/STIM_003.jpg	99
525.062	0.521	520.6	0back	Block1	0back/STIM_004.jpg	100
527.771	0.576	575.6	0back	Block1	0back/STIM_004.jpg	100
531.604	0.569	569.2	0back	Block1	0back/STIM_004.jpg	99
536.189	0.367	366.7	0back	Block1	0back/STIM_005.jpg	100
538.873	0.634	634.2	0back	Block1	0back/STIM_005.jpg	100
543.323	0.785	784.8	0back	Block1	0back/STIM_005.jpg	100
546.215	0.556	555.9	0back	Block1	0back/STIM_006.jpg	99
549.076	0.473	472.7	0back	Block1	0back/STIM_006.jpg	100
553.19	0.671	671.0	0back	Block1	0back/STIM_006.jpg	100
556.187	0.67	670.1	0back	Block1	0back/STIM_007.jpg	100
559.643	0.759	758.7	0back	Block1	0back/STIM_007.jpg	100
563.981	0.345	344.7	0back	Block1	0back/STIM_007.jpg	99
566.526	0.537	536.8	0back	Block1	0back/STIM_008.jpg	100
570.693	0.748	747.8	0back	Block1	0back/STIM_008.jpg	100
574.122	0.61	609.8	0back	Block1	0back/STIM_008.jpg	100
577.221	0.719	719.3	0back	Block1	0back/STIM_009.jpg	99
581.173	0.772	771.7	0back	Block1	0back/STIM_009.jpg	100
585.938	0.557	556.8	0back	Block1	0back/STIM_009.jpg	99
590.417	0.66	660.2	0back	Block1	0back/STIM_010.jpg	100
593.468	0.64	639.5	0back	Block1	0back/STIM_010.jpg	99
598.029	0.43	429.6	0back	Block1	0back/STIM_010.jpg	99
600.644	0.486	486.2	0back	Block1	0back/STIM_011.jpg	99
604.067	0.61	610.5	0back	Block1	0back/STIM_011.jpg	99
607.095	0.667	666.8	0back	Block1	0back/STIM_011.jpg	99
609.808	0.591	591.4	0back	Block1	0back/STIM_012.jpg	99
614.043	0.703	702.6	0back	Block1	0back/STIM_012.jpg	99
617.606	0.593	592.8	0back	Block1	0back/STIM_012.jpg	100
620.952	0.794	794.1	0back	Block1	0back/STIM_013.jpg	100
625.453	0.401	401.1	0back	Block1	0back/STIM_013.jpg	100
628.087	0.459	458.8	0back	Block1	0back/STIM_013.jpg	99
630.833	0.755	754.6	0back	Block1	0back/STIM_014.jpg	100
634.734	0.441	441.3	0back	Block1	0back/STIM_014.jpg	99
638.525	0.728	728.5	0back	Block1	0back/STIM_014.jpg	100
641.811	0.727	726.6	0back	Block1	0back/STIM_015.jpg	100
645.631	0.543	542.6	0back	Block1	0back/STIM_015.jpg	100
648.881	0.669	668.8	0back	Block1	0back/STIM_015.jpg	100
652.892	0.562	562.3	0back	Block1	0back/STIM_016.jpg	100
656.745	0.694	693.5	0back	Block1	0back/STIM_016.jpg	99
661.409	0.733	733.0	0back	Block1	0back/STIM_016.jpg	99
664.251	0.487	487.1	0back	Block1	0back/STIM_017.jpg	99
668.628	0.476	475.5	0back	Block1	0back/STIM_017.jpg	99
671.197	0.534	534.4	0back	Block1	0back/STIM_017.jpg	100
674.669	0.725	725.1	0back	Block1	0back/STIM_018.jpg	99
678.129	0.557	557.3	0back	Block1	0back/STIM_018.jpg	99
680.983	0.423	422.6	0back	Block1	0back/STIM_018.jpg	99
684.033	0.484	484.2	0back	Block1	0back/STIM_019.jpg	99
688.044	0.615	615.2	0back	Block1	0back/STIM_019.jpg	99
692.541	0.578	578.2	0back	Block1	0back/STIM_019.jpg	100
696.137	0.904	904.1	2back	Block2	2back/STIM_000.jpg	99
700.317	0.949	948.9	2back	Block2	2back/STIM_000.jpg	99
705.017	0.595	594.6	2back	Block2	2back/STIM_000.jpg	99
708.427	0.839	839.3	2back	Block2	2back/STIM_001.jpg	99
711.881	1.006	1006.3	2back	Block2	2back/STIM_001.jpg	99
715.343	0.919	919.1	2back	Block2	2back/STIM_001.jpg	100
719.897	0.561	561.3	2back	Block2	2back/STIM_002.jpg	99
724.45	0.479	479.1	2back	Block2	2back/STIM_002.jpg	100
728.979	0.841	840.6	2back	Block2	2back/STIM_002.jpg	100
733.723	0.898	898.1	2back	Block2	2back/STIM_003.jpg	99
738.59	0.721	720.7	2back	Block2	2back/STIM_003.jpg	100
742.711	0.74	739.7	2back	Block2	2back/STIM_003.jpg	100
746.622	0.626	625.9	2back	Block2	2back/STIM_004.jpg	99
749.992	0.625	625.3	2back	Block2	2back/STIM_004.jpg	99
754.402	0.995	994.8	2back	Block2	2back/STIM_004.jpg	100
758.057	0.589	588.9	2back	Block2	2back/STIM_005.jpg	100
760.942	1.004	1004.4	2back	Block2	2back/STIM_005.jpg	99
765.523	0.503	503.2	2back	Block2	2back/STIM_005.jpg	99
769.546	0.94	939.9	2back	Block2	2back/STIM_006.jpg	99
773.064	0.815	815.0	2back	Block2	2back/STIM_006.jpg	100
777.468	0.687	687.1	2back	Block2	2back/STIM_006.jpg	100
780.92	0.817	816.8	2back	Block2	2back/STIM_007.jpg	100
784.664	0.491	491.2	2back	Block2	2back/STIM_007.jpg	99
788.622	0.792	792.0	2back	Block2	2back/STIM_007.jpg	100
791.836	1.042	1042.2	2back	Block2	2back/STIM_008.jpg	99
795.385	0.783	782.6	2back	Block2	2back/STIM_008.jpg	100
799.706	0.58	579.9	2back	Block2	2back/STIM_008.jpg	99
803.438	0.897	896.8	2back	Block2	2back/STIM_009.jpg	100
806.78	0.463	462.9	2back	Block2	2back/STIM_009.jpg	99
809.318	0.452	451.6	2back	Block2	2back/STIM_009.jpg	99
813.379	0.783	783.3	2back	Block2	2back/STIM_010.jpg	99
817.497	0.598	597.7	2back	Block2	2back/STIM_010.jpg	100
821.454	0.675	675.1	2back	Block2	2back/STIM_010.jpg	100
825.841	0.922	922.3	2back	Block2	2back/STIM_011.jpg	99
829.9	0.725	724.7	2back	Block2	2back/STIM_011.jpg	100
833.695	0.842	841.9	2back	Block2	2back/STIM_011.jpg	99
837.86	0.774	773.5	2back	Block2	2back/STIM_012.jpg	99
841.427	0.838	837.9	2back	Block2	2back/STIM_012.jpg	99
844.464	0.962	961.7	2back	Block2	2back/STIM_012.jpg	100
847.59	0.788	788.4	2back	Block2	2back/STIM_013.jpg	100
851.367	0.998	997.6	2back	Block2	2back/STIM_013.jpg	100
856.0	0.44	440.0	2back	Block2	2back/STIM_013.jpg	100
859.96	0.623	622.7	2back	Block2	2back/STIM_014.jpg	99
863.029	0.563	563.3	2back	Block2	2back/STIM_014.jpg	100
866.001	0.6	600.5	2back	Block2	2back/STIM_014.jpg	100
868.675	0.554	554.3	2back	Block2	2back/STIM_015.jpg	100
872.359	0.881	880.7	2back	Block2	2back/STIM_015.jpg	99
876.548	0.677	676.6	2back	Block2	2back/STIM_015.jpg	99
880.641	0.867	866.8	2back	Block2	2back/STIM_016.jpg	99
884.978	0.604	603.6	2back	Block2	2back/STIM_016.jpg	100
888.549	0.85	850.0	2back	Block2	2back/STIM_016.jpg	100
892.045	0.621	621.1	2back	Block2	2back/STIM_017.jpg	99
895.688	0.472	471.9	2back	Block2	2back/STIM_017.jpg	99
899.117	0.525	524.9	2back	Block2	2back/STIM_017.jpg	100
901.872	0.544	544.3	2back	Block2	2back/STIM_018.jpg	99
905.234	0.919	919.3	2back	Block2	2back/STIM_018.jpg	100
908.369	1.022	1022.4	2back	Block2	2back/STIM_018.jpg	100
912.455	0.782	782.5	2back	Block2	2back/STIM_019.jpg	99
915.643	0.616	616.1	2back	Block2	2back/STIM_019.jpg	100
919.84	0.747	747.3	2back	Block2	2back/STIM_019.jpg	99
924.472	0.59	590.5	2back	Block2	2back/STIM_020.jpg	100
928.633	0.911	910.6	2back	Block2	2back/STIM_020.jpg	100
932.59	0.744	744.2	2back	Block2	2back/STIM_020.jpg	99
936.836	0.543	543.4	2back	Block2	2back/STIM_021.jpg	100
940.354	1.017	1017.1	2back	Block2	2back/STIM_021.jpg	99
945.267	0.591	590.8	2back	Block2	2back/STIM_021.jpg	100
948.847	0.584	584.4	2back	Block2	2back/STIM_022.jpg	100
953.375	0.532	532.0	2back	Block2	2back/STIM_022.jpg	100
956.841	0.615	615.4	2back	Block2	2back/STIM_022.jpg	99
960.238	0.645	645.2	2back	Block2	2back/STIM_023.jpg	99
964.633	0.481	481.3	2back	Block2	2back/STIM_023.jpg	100
967.736	0.595	595.0	2back	Block2	2back/STIM_023.jpg	99
972.317	0.634	634.3	2back	Block2	2back/STIM_024.jpg	99
975.19	1.063	1063.4	2back	Block2	2back/STIM_024.jpg	100
979.534	0.859	859.2	2back	Block2	2back/STIM_024.jpg	100
983.435	0.95	949.6	2back	Block2	2back/STIM_025.jpg	99
987.736	0.646	645.7	2back	Block2	2back/STIM_025.jpg	100
992.216	0.64	640.0	2back	Block2	2back/STIM_025.jpg	100
995.329	0.915	915.1	2back	Block2	2back/STIM_026.jpg	99
999.496	0.776	775.6	2back	Block2	2back/STIM_026.jpg	100
1003.533	0.806	805.9	2back	Block2	2back/STIM_026.jpg	100
1007.522	0.817	817.4	2back	Block2	2back/STIM_027.jpg	99
1012.026	1.015	1015.1	2back	Block2	2back/STIM_027.jpg	99
1016.203	0.976	976.1	2back	Block2	2back/STIM_027.jpg	100
1020.931	1.041	1041.3	2back	Block2	2back/STIM_028.jpg	100
1024.561	1.017	1016.8	2back	Block2	2back/STIM_028.jpg	100
1028.449	0.531	531.4	2back	Block2	2back/STIM_028.jpg	99
1031.313	1.185	1185.1	2back	Block2	2back/STIM_029.jpg	99
1036.365	0.991	991.4	2back	Block2	2back/STIM_029.jpg	99
1041.161	0.896	896.3	2back	Block2	2back/STIM_029.jpg	99
1046.047	0.703	702.9	2back	Block2	2back/STIM_030.jpg	99
1050.254	0.963	962.6	2back	Block2	2back/STIM_030.jpg	100
1054.329	0.596	596.4	2back	Block2	2back/STIM_030.jpg	99
1057.161	1.063	1063.1	2back	Block2	2back/STIM_031.jpg	100
1061.077	0.794	793.6	2back	Block2	2back/STIM_031.jpg	99
1064.367	0.89	890.5	2back	Block2	2back/STIM_031.jpg	100
1068.846	0.981	980.6	2back	Block2	2back/STIM_032.jpg	100
1073.655	1.052	1052.4	2back	Block2	2back/STIM_032.jpg	99
1078.075	0.847	846.8	2back	Block2	2back/STIM_032.jpg	99
1081.648	0.934	934.1	2back	Block2	2back/STIM_033.jpg	99
1085.758	0.456	456.1	2back	Block2	2back/STIM_033.jpg	99
1090.238	0.893	893.4	2back	Block2	2back/STIM_033.jpg	100
1094.7	0.663	663.2	2back	Block2	2back/STIM_034.jpg	100
1097.937	0.38	379.7	2back	Block2	2back/STIM_034.jpg	99
1100.64	0.967	966.7	2back	Block2	2back/STIM_034.jpg	100
1104.7	1.088	1087.6	2back	Block2	2back/STIM_035.jpg	100
1108.751	0.837	836.8	2back	Block2	2back/STIM_035.jpg	100
1111.907	0.479	478.6	2back	Block2	2back/STIM_035.jpg	100
1115.983	0.96	960.1	2back	Block2	2back/STIM_036.jpg	99
1119.034	0.522	522.3	2back	Block2	2back/STIM_036.jpg	99
1122.207	0.846	845.5	2back	Block2	2back/STIM_036.jpg	100
1126.614	0.987	987.1	2back	Block2	2back/STIM_037.jpg	100
1129.931	0.869	869.1	2back	Block2	2back/STIM_037.jpg	99
1134.229	0.748	747.6	2back	Block2	2back/STIM_037.jpg	99
1137.453	0.808	808.2	2back	Block2	2back/STIM_038.jpg	99
1141.396	0.901	901.4	2back	Block2	2back/STIM_038.jpg	100
1144.74	0.722	722.3	2back	Block2	2back/STIM_038.jpg	99
1148.889	0.824	823.7	2back	Block2	2back/STIM_039.jpg	100
1151.804	0.935	935.4	2back	Block2	2back/STIM_039.jpg	99
1155.097	0.522	521.6	2back	Block2	2back/STIM_039.jpg	100
1158.013	0.737	737.2	0back	Block2	0back/STIM_000.jpg	99
1161.253	0.57	569.9	0back	Block2	0back/STIM_000.jpg	100
1165.561	0.548	547.7	0back	Block2	0back/STIM_000.jpg	99
1169.59	0.549	549.3	0back	Block2	0back/STIM_001.jpg	100
1172.927	0.349	348.6	0back	Block2	0back/STIM_001.jpg	100
1176.091	0.701	701.3	0back	Block2	0back/STIM_001.jpg	99
1179.786	0.487	486.9	0back	Block2	0back/STIM_002.jpg	99
1183.637	0.464	463.9	0back	Block2	0back/STIM_002.jpg	99
1187.727	0.582	582.2	0back	Block2	0back/STIM_002.jpg	99
1192.391	0.416	415.8	0back	Block2	0back/STIM_003.jpg	100
1195.418	0.463	463.2	0back	Block2	0back/STIM_003.jpg	99
1198.387	0.429	428.7	0back	Block2	0back/STIM_003.jpg	100
1200.924	0.608	607.9	0back	Block2	0back/STIM_004.jpg	100
1204.803	0.472	472.1	0back	Block2	0back/STIM_004.jpg	99
1209.23	0.771	770.8	0back	Block2	0back/STIM_004.jpg	99
1212.264	0.64	640.4	0back	Block2	0back/STIM_005.jpg	100
1215.715	0.633	633.2	0back	Block2	0back/STIM_005.jpg	100
1219.451	0.48	479.5	0back	Block2	0back/STIM_005.jpg	99
1222.033	0.73	729.7	0back	Block2	0back/STIM_006.jpg	99
1225.161	0.694	693.6	0back	Block2	0back/STIM_006.jpg	100
1228.857	0.756	755.5	0back	Block2	0back/STIM_006.jpg	99
1232.059	0.39	390.5	0back	Block2	0back/STIM_007.jpg	99
1234.599	0.398	398.0	0back	Block2	0back/STIM_007.jpg	99
1238.765	0.661	661.1	0back	Block2	0back/STIM_007.jpg	99
1242.259	0.755	754.7	0back	Block2	0back/STIM_008.jpg	100
1246.834	0.578	578.3	0back	Block2	0back/STIM_008.jpg	99
1249.758	0.676	676.1	0back	Block2	0back/STIM_008.jpg	99
1253.641	0.864	863.5	0back	Block2	0back/STIM_009.jpg	100
1256.899	0.762	762.2	0back	Block2	0back/STIM_009.jpg	99
1261.561	0.642	642.1	0back	Block2	0back/STIM_009.jpg	100
1266.005	0.401	401.1	0back	Block2	0back/STIM_010.jpg	100
1268.981	0.404	404.5	0back	Block2	0back/STIM_010.jpg	100
1271.667	0.605	604.6	0back	Block2	0back/STIM_010.jpg	100
1274.927	0.669	669.3	0back	Block2	0back/STIM_011.jpg	99
1279.038	0.616	615.6	0back	Block2	0back/STIM_011.jpg	100
1281.897	0.797	797.4	0back	Block2	0back/STIM_011.jpg	100
1285.139	0.524	523.5	0back	Block2	0back/STIM_012.jpg	99
1288.304	0.418	417.9	0back	Block2	0back/STIM_012.jpg	100
1292.585	0.565	565.3	0back	Block2	0back/STIM_012.jpg	99
1295.929	0.479	479.1	0back	Block2	0back/STIM_013.jpg	100
1299.346	0.666	665.7	0back	Block2	0back/STIM_013.jpg	100
1302.682	0.698	698.1	0back	Block2	0back/STIM_013.jpg	99
1306.579	0.448	448.1	0back	Block2	0back/STIM_014.jpg	99
1309.177	0.712	711.7	0back	Block2	0back/STIM_014.jpg	99
1312.497	0.478	478.4	0back	Block2	0back/STIM_014.jpg	100
1316.246	0.457	456.6	0back	Block2	0back/STIM_015.jpg	99
1319.784	0.695	695.0	0back	Block2	0back/STIM_015.jpg	99
1323.632	0.547	546.8	0back	Block2	0back/STIM_015.jpg	100
1327.325	0.431	430.6	0back	Block2	0back/STIM_016.jpg	100
1330.855	0.567	566.8	0back	Block2	0back/STIM_016.jpg	99
1334.728	0.623	622.7	0back	Block2	0back/STIM_016.jpg	99
1337.931	0.716	716.5	0back	Block2	0back/STIM_017.jpg	99
1340.756	0.583	582.9	0back	Block2	0back/STIM_017.jpg	100
1344.005	0.375	374.7	0back	Block2	0back/STIM_017.jpg	100
1347.343	0.681	681.2	0back	Block2	0back/STIM_018.jpg	99
1350.253	0.752	752.3	0back	Block2	0back/STIM_018.jpg	100
1353.808	0.573	572.6	0back	Block2	0back/STIM_018.jpg	100
1356.392	0.551	551.0	0back	Block2	0back/STIM_019.jpg	100
1360.0	0.418	418.5	0back	Block2	0back/STIM_019.jpg	99
1362.68	0.427	426.6	0back	Block2	0back/STIM_019.jpg	100
1365.822	0.602	602.3	2back	Block3	2back/STIM_000.jpg	99
1369.128	0.533	532.9	2back	Block3	2back/STIM_000.jpg	100
1372.757	0.904	903.8	2back	Block3	2back/STIM_000.jpg	99
1376.601	0.526	526.0	2back	Block3	2back/STIM_001.jpg	99
1379.188	0.955	955.0	2back	Block3	2back/STIM_001.jpg	100
1383.411	0.938	938.2	2back	Block3	2back/STIM_001.jpg	99
1388.36	0.829	829.0	2back	Block3	2back/STIM_002.jpg	99
1393.201	0.942	941.6	2back	Block3	2back/STIM_002.jpg	100
1398.022	0.824	823.9	2back	Block3	2back/STIM_002.jpg	99
1402.114	0.604	603.9	2back	Block3	2back/STIM_003.jpg	100
1405.227	0.787	787.4	2back	Block3	2back/STIM_003.jpg	100
1409.805	0.515	515.0	2back	Block3	2back/STIM_003.jpg	100
1413.933	0.647	647.4	2back	Block3	2back/STIM_004.jpg	99
1417.754	0.728	728.5	2back	Block3	2back/STIM_004.jpg	99
1422.332	0.543	542.6	2back	Block3	2back/STIM_004.jpg	99
1426.834	0.811	810.9	2back	Block3	2back/STIM_005.jpg	100
1430.636	0.873	873.3	2back	Block3	2back/STIM_005.jpg	100
1435.533	0.88	880.3	2back	Block3	2back/STIM_005.jpg	99
1438.682	0.537	536.9	2back	Block3	2back/STIM_006.jpg	100
1442.156	0.546	546.5	2back	Block3	2back/STIM_006.jpg	100
1445.885	0.867	867.0	2back	Block3	2back/STIM_006.jpg	99
1449.575	0.856	855.5	2back	Block3	2back/STIM_007.jpg	100
1453.967	0.712	711.6	2back	Block3	2back/STIM_007.jpg	99
1458.698	0.829	828.6	2back	Block3	2back/STIM_007.jpg	100
1462.666	0.452	452.2	2back	Block3	2back/STIM_008.jpg	99
1465.462	0.883	883.3	2back	Block3	2back/STIM_008.jpg	99
1469.301	0.736	736.3	2back	Block3	2back/STIM_008.jpg	100
1472.803	0.511	511.5	2back	Block3	2back/STIM_009.jpg	100
1476.577	0.505	504.8	2back	Block3	2back/STIM_009.jpg	100
1479.95	0.556	556.0	2back	Block3	2back/STIM_009.jpg	99
1483.038	0.855	855.3	2back	Block3	2back/STIM_010.jpg	100
1487.742	0.709	709.4	2back	Block3	2back/STIM_010.jpg	99
1492.169	0.731	730.9	2back	Block3	2back/STIM_010.jpg	99
1495.221	0.383	383.1	2back	Block3	2back/STIM_011.jpg	99
1498.363	0.817	817.3	2back	Block3	2back/STIM_011.jpg	99
1501.408	0.694	693.7	2back	Block3	2back/STIM_011.jpg	100
1504.707	0.588	588.4	2back	Block3	2back/STIM_012.jpg	100
1507.999	0.932	932.5	2back	Block3	2back/STIM_012.jpg	99
1511.425	0.69	689.8	2back	Block3	2back/STIM_012.jpg	100
1514.331	0.499	498.8	2back	Block3	2back/STIM_013.jpg	99
1516.892	0.623	623.1	2back	Block3	2back/STIM_013.jpg	99
1520.939	0.452	451.9	2back	Block3	2back/STIM_013.jpg	99
1523.703	0.837	837.4	2back	Block3	2back/STIM_014.jpg	99
1527.717	0.428	428.1	2back	Block3	2back/STIM_014.jpg	99
1531.473	0.64	640.4	2back	Block3	2back/STIM_014.jpg	99
1535.824	0.811	810.7	2back	Block3	2back/STIM_015.jpg	100
1539.996	0.57	570.4	2back	Block3	2back/STIM_015.jpg	100
1543.987	0.984	984.0	2back	Block3	2back/STIM_015.jpg	99
1548.218	0.704	703.6	2back	Block3	2back/STIM_016.jpg	100
1552.284	0.623	622.8	2back	Block3	2back/STIM_016.jpg	99
1555.706	0.48	480.4	2back	Block3	2back/STIM_016.jpg	99
1558.654	0.506	506.5	2back	Block3	2back/STIM_017.jpg	99
1563.327	0.999	999.3	2back	Block3	2back/STIM_017.jpg	99
1567.685	0.699	698.8	2back	Block3	2back/STIM_017.jpg	100
1570.813	0.437	436.9	2back	Block3	2back/STIM_018.jpg	100
1575.131	0.693	692.8	2back	Block3	2back/STIM_018.jpg	100
1578.083	0.661	661.4	2back	Block3	2back/STIM_018.jpg	100
1580.825	0.553	553.4	2back	Block3	2back/STIM_019.jpg	100
1584.855	0.632	631.7	2back	Block3	2back/STIM_019.jpg	99
1589.415	0.589	589.4	2back	Block3	2back/STIM_019.jpg	100
1593.751	0.986	985.8	2back	Block3	2back/STIM_020.jpg	100
1598.456	0.776	776.5	2back	Block3	2back/STIM_020.jpg	99
1603.24	0.821	821.2	2back	Block3	2back/STIM_020.jpg	100
1606.076	0.5	499.6	2back	Block3	2back/STIM_021.jpg	100
1610.259	0.64	640.1	2back	Block3	2back/STIM_021.jpg	100
1613.655	0.693	693.3	2back	Block3	2back/STIM_021.jpg	99
1617.694	0.576	576.5	2back	Block3	2back/STIM_022.jpg	99
1621.43	0.384	384.3	2back	Block3	2back/STIM_022.jpg	99
1625.415	0.689	689.4	2back	Block3	2back/STIM_022.jpg	99
1629.709	0.506	506.2	2back	Block3	2back/STIM_023.jpg	100
1632.7	0.765	765.2	2back	Block3	2back/STIM_023.jpg	100
1637.38	0.65	649.6	2back	Block3	2back/STIM_023.jpg	100
1640.412	0.91	910.2	2back	Block3	2back/STIM_024.jpg	99
1643.91	0.596	595.9	2back	Block3	2back/STIM_024.jpg	100
1647.717	0.689	689.0	2back	Block3	2back/STIM_024.jpg	100
1651.419	0.912	911.9	2back	Block3	2back/STIM_025.jpg	100
1654.474	0.692	692.0	2back	Block3	2back/STIM_025.jpg	100
1657.926	0.534	534.1	2back	Block3	2back/STIM_025.jpg	99
1660.635	0.9	900.4	2back	Block3	2back/STIM_026.jpg	100
1664.811	0.576	576.3	2back	Block3	2back/STIM_026.jpg	100
1668.527	0.528	528.4	2back	Block3	2back/STIM_026.jpg	99
1671.678	0.784	784.3	2back	Block3	2back/STIM_027.jpg	99
1674.728	0.522	521.5	2back	Block3	2back/STIM_027.jpg	99
1678.049	0.907	907.3	2back	Block3	2back/STIM_027.jpg	99
1681.013	0.329	329.2	2back	Block3	2back/STIM_028.jpg	100
1683.836	0.616	615.7	2back	Block3	2back/STIM_028.jpg	99
1687.292	0.687	687.3	2back	Block3	2back/STIM_028.jpg	99
1690.519	0.677	677.1	2back	Block3	2back/STIM_029.jpg	99
1693.586	0.84	839.5	2back	Block3	2back/STIM_029.jpg	99
1698.079	0.797	797.1	2back	Block3	2back/STIM_029.jpg	99
1702.225	0.878	878.4	2back	Block3	2back/STIM_030.jpg	100
1705.481	0.594	593.9	2back	Block3	2back/STIM_030.jpg	99
1709.128	0.844	844.2	2back	Block3	2back/STIM_030.jpg	99
1713.901	0.849	848.9	2back	Block3	2back/STIM_031.jpg	99
1718.392	0.985	984.6	2back	Block3	2back/STIM_031.jpg	100
1722.486	0.381	380.9	2back	Block3	2back/STIM_031.jpg	100
1726.32	0.571	570.6	2back	Block3	2back/STIM_032.jpg	99
1730.021	0.57	569.6	2back	Block3	2back/STIM_032.jpg	99
1734.494	0.45	450.4	2back	Block3	2back/STIM_032.jpg	99
1737.066	0.777	777.1	2back	Block3	2back/STIM_033.jpg	100
1739.874	0.885	884.6	2back	Block3	2back/STIM_033.jpg	99
1744.555	0.883	882.6	2back	Block3	2back/STIM_033.jpg	100
1747.841	0.935	935.2	2back	Block3	2back/STIM_034.jpg	99
1750.908	0.598	598.4	2back	Block3	2back/STIM_034.jpg	99
1755.104	0.704	704.2	2back	Block3	2back/STIM_034.jpg	100
1758.937	0.676	676.1	2back	Block3	2back/STIM_035.jpg	100
1761.952	0.862	862.2	2back	Block3	2back/STIM_035.jpg	99
1766.443	0.45	449.7	2back	Block3	2back/STIM_035.jpg	99
1769.631	0.473	473.4	2back	Block3	2back/STIM_036.jpg	100
1772.845	0.654	654.5	2back	Block3	2back/STIM_036.jpg	99
1775.593	0.793	792.9	2back	Block3	2back/STIM_036.jpg	99
1779.506	0.85	849.8	2back	Block3	2back/STIM_037.jpg	99
1782.822	0.455	454.6	2back	Block3	2back/STIM_037.jpg	100
1785.709	0.355	355.0	2back	Block3	2back/STIM_037.jpg	100
1788.233	0.87	870.2	2back	Block3	2back/STIM_038.jpg	100
1792.069	0.439	438.9	2back	Block3	2back/STIM_038.jpg	99
1795.732	0.796	796.2	2back	Block3	2back/STIM_038.jpg	100
1799.96	0.924	924.4	2back	Block3	2back/STIM_039.jpg	99
1803.579	0.67	670.1	2back	Block3	2back/STIM_039.jpg	100
1806.641	0.812	812.3	2back	Block3	2back/STIM_039.jpg	99
1809.834	0.491	490.8	0back	Block3	0back/STIM_000.jpg	99
1812.751	0.627	627.4	0back	Block3	0back/STIM_000.jpg	100
1815.458	0.609	609.1	0back	Block3	0back/STIM_000.jpg	99
1819.29	0.747	746.6	0back	Block3	0back/STIM_001.jpg	100
1823.241	0.399	399.0	0back	Block3	0back/STIM_001.jpg	100
1826.115	0.429	428.7	0back	Block3	0back/STIM_001.jpg	99
1829.937	0.507	506.9	0back	Block3	0back/STIM_002.jpg	100
1833.528	0.56	560.2	0back	Block3	0back/STIM_002.jpg	99
1836.863	0.535	535.3	0back	Block3	0back/STIM_002.jpg	99
1839.73	0.59	589.9	0back	Block3	0back/STIM_003.jpg	100
1842.275	0.441	441.2	0back	Block3	0back/STIM_003.jpg	100
1846.541	0.447	447.4	0back	Block3	0back/STIM_003.jpg	99
1850.818	0.501	501.5	0back	Block3	0back/STIM_004.jpg	100
1854.262	0.479	479.4	0back	Block3	0back/STIM_004.jpg	100
1858.436	0.627	627.1	0back	Block3	0back/STIM_004.jpg	99
1862.613	0.746	745.5	0back	Block3	0back/STIM_005.jpg	100
1866.959	0.754	754.3	0back	Block3	0back/STIM_005.jpg	99
1869.867	0.459	459.2	0back	Block3	0back/STIM_005.jpg	99
1872.811	0.678	677.5	0back	Block3	0back/STIM_006.jpg	100
1876.201	0.48	480.3	0back	Block3	0back/STIM_006.jpg	99
1880.176	0.401	401.3	0back	Block3	0back/STIM_006.jpg	100
1883.272	0.676	676.0	0back	Block3	0back/STIM_007.jpg	99
1887.58	0.727	726.7	0back	Block3	0back/STIM_007.jpg	99
1890.551	0.483	482.8	0back	Block3	0back/STIM_007.jpg	100
1894.547	0.701	701.2	0back	Block3	0back/STIM_008.jpg	100
1898.023	0.471	471.4	0back	Block3	0back/STIM_008.jpg	99
1902.198	0.497	497.0	0back	Block3	0back/STIM_008.jpg	100
1905.118	0.734	733.5	0back	Block3	0back/STIM_009.jpg	99
1908.782	0.591	591.3	0back	Block3	0back/STIM_009.jpg	100
1912.214	0.418	417.9	0back	Block3	0back/STIM_009.jpg	99
1916.38	0.7	699.6	0back	Block3	0back/STIM_010.jpg	99
1920.056	0.767	767.1	0back	Block3	0back/STIM_010.jpg	99
1923.435	0.769	769.4	0back	Block3	0back/STIM_010.jpg	100
1927.931	0.741	741.2	0back	Block3	0back/STIM_011.jpg	99
1932.11	0.676	675.8	0back	Block3	0back/STIM_011.jpg	100
1936.462	0.573	573.0	0back	Block3	0back/STIM_011.jpg	99
1940.101	0.503	503.5	0back	Block3	0back/STIM_012.jpg	100
1942.918	0.391	390.8	0back	Block3	0back/STIM_012.jpg	100
1947.242	0.658	657.7	0back	Block3	0back/STIM_012.jpg	99
1951.189	0.32	320.4	0back	Block3	0back/STIM_013.jpg	99
1955.04	0.458	457.9	0back	Block3	0back/STIM_013.jpg	100
1958.403	0.588	587.6	0back	Block3	0back/STIM_013.jpg	99
1962.702	0.712	711.6	0back	Block3	0back/STIM_014.jpg	99
1966.15	0.69	689.9	0back	Block3	0back/STIM_014.jpg	99
1969.697	0.638	637.7	0back	Block3	0back/STIM_014.jpg	100
1973.02	0.527	527.3	0back	Block3	0back/STIM_015.jpg	99
1975.881	0.797	796.7	0back	Block3	0back/STIM_015.jpg	100
1979.614	0.745	745.0	0back	Block3	0back/STIM_015.jpg	100
1982.979	0.622	621.7	0back	Block3	0back/STIM_016.jpg	99
1986.159	0.658	657.5	0back	Block3	0back/STIM_016.jpg	100
1990.479	0.812	811.6	0back	Block3	0back/STIM_016.jpg	100
1993.446	0.647	647.3	0back	Block3	0back/STIM_017.jpg	99
1997.339	0.654	654.2	0back	Block3	0back/STIM_017.jpg	99
2001.191	0.357	357.0	0back	Block3	0back/STIM_017.jpg	100
2005.204	0.654	653.5	0back	Block3	0back/STIM_018.jpg	100
2009.078	0.474	474.1	0back	Block3	0back/STIM_018.jpg	100
2011.644	0.41	410.4	0back	Block3	0back/STIM_018.jpg	100
2015.774	0.765	764.6	0back	Block3	0back/STIM_019.jpg	99
2020.011	0.533	532.8	0back	Block3	0back/STIM_019.jpg	99
2023.491	0.632	632.1	0back	Block3	0back/STIM_019.jpg	100
2027.234	0.872	871.6	2back	Block4	2back/STIM_000.jpg	99
2030.946	0.907	906.8	2back	Block4	2back/STIM_000.jpg	99
2034.568	0.596	596.1	2back	Block4	2back/STIM_000.jpg	99
2037.841	0.457	457.3	2back	Block4	2back/STIM_001.jpg	99
2042.232	0.684	684.3	2back	Block4	2back/STIM_001.jpg	100
2046.339	0.434	433.7	2back	Block4	2back/STIM_001.jpg	99
2048.881	0.88	879.7	2back	Block4	2back/STIM_002.jpg	100
2053.095	0.711	711.1	2back	Block4	2back/STIM_002.jpg	100
2056.09	0.706	706.1	2back	Block4	2back/STIM_002.jpg	100
2058.811	0.891	890.7	2back	Block4	2back/STIM_003.jpg	100
2062.264	0.793	793.4	2back	Block4	2back/STIM_003.jpg	99
2066.514	0.618	617.8	2back	Block4	2back/STIM_003.jpg	99
2070.919	0.891	891.0	2back	Block4	2back/STIM_004.jpg	99
2074.083	0.698	698.5	2back	Block4	2back/STIM_004.jpg	99
2077.971	0.724	724.0	2back	Block4	2back/STIM_004.jpg	99
2082.408	0.9	900.2	2back	Block4	2back/STIM_005.jpg	100
2086.579	0.836	836.1	2back	Block4	2back/STIM_005.jpg	100
2090.601	0.94	939.7	2back	Block4	2back/STIM_005.jpg	100
2094.927	0.689	689.2	2back	Block4	2back/STIM_006.jpg	100
2098.307	0.702	702.0	2back	Block4	2back/STIM_006.jpg	99
2102.217	0.569	569.1	2back	Block4	2back/STIM_006.jpg	99
2105.112	0.916	915.9	2back	Block4	2back/STIM_007.jpg	99
2108.423	0.805	804.9	2back	Block4	2back/STIM_007.jpg	100
2113.005	0.518	517.9	2back	Block4	2back/STIM_007.jpg	99
2115.903	0.571	571.0	2back	Block4	2back/STIM_008.jpg	99
2119.001	0.526	526.3	2back	Block4	2back/STIM_008.jpg	100
2122.234	0.929	929.3	2back	Block4	2back/STIM_008.jpg	100
2126.064	0.976	975.5	2back	Block4	2back/STIM_009.jpg	100
2129.076	0.62	619.7	2back	Block4	2back/STIM_009.jpg	99
2132.883	0.58	579.7	2back	Block4	2back/STIM_009.jpg	99
2137.076	0.351	351.1	2back	Block4	2back/STIM_010.jpg	99
2139.795	0.789	789.3	2back	Block4	2back/STIM_010.jpg	99
2144.088	0.649	648.6	2back	Block4	2back/STIM_010.jpg	99
2148.216	0.487	486.8	2back	Block4	2back/STIM_011.jpg	100
2151.219	0.794	793.7	2back	Block4	2back/STIM_011.jpg	100
2155.366	0.574	573.9	2back	Block4	2back/STIM_011.jpg	100
2158.847	0.359	359.3	2back	Block4	2back/STIM_012.jpg	99
2163.108	0.653	653.4	2back	Block4	2back/STIM_012.jpg	99
2167.863	0.488	488.1	2back	Block4	2back/STIM_012.jpg	99
2170.607	0.776	775.7	2back	Block4	2back/STIM_013.jpg	100
2174.836	0.515	515.2	2back	Block4	2back/STIM_013.jpg	100
2179.144	0.628	628.2	2back	Block4	2back/STIM_013.jpg	100
2182.208	0.854	853.9	2back	Block4	2back/STIM_014.jpg	100
2186.651	0.83	830.3	2back	Block4	2back/STIM_014.jpg	100
2190.753	0.454	453.9	2back	Block4	2back/STIM_014.jpg	100
2193.845	0.433	433.0	2back	Block4	2back/STIM_015.jpg	99
2196.97	0.604	604.3	2back	Block4	2back/STIM_015.jpg	100
2200.657	0.498	497.5	2back	Block4	2back/STIM_015.jpg	99
2204.638	0.791	791.3	2back	Block4	2back/STIM_016.jpg	99
2208.82	0.676	676.0	2back	Block4	2back/STIM_016.jpg	100
2213.287	0.71	710.1	2back	Block4	2back/STIM_016.jpg	100
2218.104	0.623	622.9	2back	Block4	2back/STIM_017.jpg	99
2222.272	0.73	730.5	2back	Block4	2back/STIM_017.jpg	99
2225.437	0.795	795.3	2back	Block4	2back/STIM_017.jpg	99
2228.365	0.512	511.8	2back	Block4	2back/STIM_018.jpg	99
2231.973	0.609	609.0	2back	Block4	2back/STIM_018.jpg	100
2235.77	0.658	658.1	2back	Block4	2back/STIM_018.jpg	99
2238.74	0.883	882.7	2back	Block4	2back/STIM_019.jpg	99
2243.084	0.825	824.8	2back	Block4	2back/STIM_019.jpg	100
2247.304	0.677	676.9	2back	Block4	2back/STIM_019.jpg	99
2250.936	0.779	779.4	2back	Block4	2back/STIM_020.jpg	100
2253.769	0.589	589.4	2back	Block4	2back/STIM_020.jpg	100
2258.124	0.818	818.1	2back	Block4	2back/STIM_020.jpg	100
2261.769	0.421	420.7	2back	Block4	2back/STIM_021.jpg	100
2265.312	0.719	718.8	2back	Block4	2back/STIM_021.jpg	99
2269.831	0.564	564.4	2back	Block4	2back/STIM_021.jpg	100
2273.501	0.618	617.5	2back	Block4	2back/STIM_022.jpg	100
2277.81	0.496	496.0	2back	Block4	2back/STIM_022.jpg	100
2282.207	0.616	616.5	2back	Block4	2back/STIM_022.jpg	100
2286.525	0.698	697.7	2back	Block4	2back/STIM_023.jpg	99
2290.641	0.408	408.0	2back	Block4	2back/STIM_023.jpg	99
2294.155	0.439	439.4	2back	Block4	2back/STIM_023.jpg	99
2297.336	0.878	878.4	2back	Block4	2back/STIM_024.jpg	99
2300.592	0.565	565.2	2back	Block4	2back/STIM_024.jpg	99
2304.719	0.563	562.7	2back	Block4	2back/STIM_024.jpg	99
2307.969	0.435	435.0	2back	Block4	2back/STIM_025.jpg	99
2310.912	0.726	726.0	2back	Block4	2back/STIM_025.jpg	99
2313.952	0.682	682.3	2back	Block4	2back/STIM_025.jpg	100
2318.302	0.6	599.5	2back	Block4	2back/STIM_026.jpg	100
2322.157	0.951	951.2	2back	Block4	2back/STIM_026.jpg	99
2325.655	0.448	447.7	2back	Block4	2back/STIM_026.jpg	99
2329.512	0.647	647.0	2back	Block4	2back/STIM_027.jpg	99
2332.206	0.913	913.1	2back	Block4	2back/STIM_027.jpg	100
2335.322	0.473	473.0	2back	Block4	2back/STIM_027.jpg	99
2338.468	0.839	838.7	2back	Block4	2back/STIM_028.jpg	100
2341.556	0.618	617.5	2back	Block4	2back/STIM_028.jpg	99
2345.099	0.384	383.9	2back	Block4	2back/STIM_028.jpg	99
2347.757	0.599	599.4	2back	Block4	2back/STIM_029.jpg	99
2351.731	0.458	457.9	2back	Block4	2back/STIM_029.jpg	100
2354.989	0.698	698.3	2back	Block4	2back/STIM_029.jpg	99
2359.106	0.815	815.0	2back	Block4	2back/STIM_030.jpg	100
2362.83	0.856	855.5	2back	Block4	2back/STIM_030.jpg	100
2366.734	0.565	565.2	2back	Block4	2back/STIM_030.jpg	100
2370.56	0.736	735.8	2back	Block4	2back/STIM_031.jpg	100
2374.28	0.493	492.7	2back	Block4	2back/STIM_031.jpg	100
2377.107	0.935	934.8	2back	Block4	2back/STIM_031.jpg	100
2381.24	0.614	614.0	2back	Block4	2back/STIM_032.jpg	100
2384.613	0.567	566.7	2back	Block4	2back/STIM_032.jpg	100
2389.065	0.862	862.3	2back	Block4	2back/STIM_032.jpg	99
2393.08	0.741	740.7	2back	Block4	2back/STIM_033.jpg	99
2396.315	0.7	699.7	2back	Block4	2back/STIM_033.jpg	99
2400.026	0.493	492.8	2back	Block4	2back/STIM_033.jpg	100
2403.79	0.68	679.8	2back	Block4	2back/STIM_034.jpg	99
2407.927	0.814	814.5	2back	Block4	2back/STIM_034.jpg	99
2412.189	0.768	767.8	2back	Block4	2back/STIM_034.jpg	99
2415.195	0.784	783.8	2back	Block4	2back/STIM_035.jpg	99
2418.357	0.594	594.5	2back	Block4	2back/STIM_035.jpg	100
2422.226	0.81	810.1	2back	Block4	2back/STIM_035.jpg	99
2426.044	0.538	537.9	2back	Block4	2back/STIM_036.jpg	100
2429.202	0.502	501.8	2back	Block4	2back/STIM_036.jpg	99
2432.601	0.585	584.9	2back	Block4	2back/STIM_036.jpg	100
2436.928	1.005	1004.7	2back	Block4	2back/STIM_037.jpg	99
2441.503	0.607	606.9	2back	Block4	2back/STIM_037.jpg	100
2445.26	0.421	420.7	2back	Block4	2back/STIM_037.jpg	100
2449.237	0.636	635.5	2back	Block4	2back/STIM_038.jpg	100
2453.92	0.487	487.4	2back	Block4	2back/STIM_038.jpg	99
2456.887	0.635	635.3	2back	Block4	2back/STIM_038.jpg	100
2460.736	0.718	717.6	2back	Block4	2back/STIM_039.jpg	99
2464.097	0.896	895.9	2back	Block4	2back/STIM_039.jpg	100
2468.869	0.624	623.6	2back	Block4	2back/STIM_039.jpg	100
2472.154	0.524	523.6	0back	Block4	0back/STIM_000.jpg	99
2475.888	0.827	827.4	0back	Block4	0back/STIM_000.jpg	100
2480.537	0.485	485.3	0back	Block4	0back/STIM_000.jpg	99
2484.991	0.447	446.7	0back	Block4	0back/STIM_001.jpg	99
2488.74	0.417	416.8	0back	Block4	0back/STIM_001.jpg	100
2492.036	0.522	522.5	0back	Block4	0back/STIM_001.jpg	99
2495.104	0.339	339.3	0back	Block4	0back/STIM_002.jpg	100
2498.476	0.717	717.4	0back	Block4	0back/STIM_002.jpg	99
2502.848	0.465	464.9	0back	Block4	0back/STIM_002.jpg	100
2507.083	0.454	454.3	0back	Block4	0back/STIM_003.jpg	100
2511.138	0.459	459.0	0back	Block4	0back/STIM_003.jpg	100
2515.276	0.586	585.9	0back	Block4	0back/STIM_003.jpg	99
2518.82	0.667	667.4	0back	Block4	0back/STIM_004.jpg	99
2522.235	0.521	521.2	0back	Block4	0back/STIM_004.jpg	100
2526.305	0.765	765.1	0back	Block4	0back/STIM_004.jpg	100
2529.585	0.489	489.3	0back	Block4	0back/STIM_005.jpg	100
2533.886	0.545	545.0	0back	Block4	0back/STIM_005.jpg	100
2537.861	0.625	624.9	0back	Block4	0back/STIM_005.jpg	99
2540.742	0.496	496.4	0back	Block4	0back/STIM_006.jpg	99
2544.863	0.389	389.4	0back	Block4	0back/STIM_006.jpg	100
2548.678	0.438	438.2	0back	Block4	0back/STIM_006.jpg	100
2552.157	0.728	727.7	0back	Block4	0back/STIM_007.jpg	100
2555.913	0.433	432.7	0back	Block4	0back/STIM_007.jpg	99
2559.0	0.383	383.4	0back	Block4	0back/STIM_007.jpg	99
2562.97	0.529	529.4	0back	Block4	0back/STIM_008.jpg	99
2566.752	0.585	585.2	0back	Block4	0back/STIM_008.jpg	100
2570.697	0.701	701.4	0back	Block4	0back/STIM_008.jpg	100
2574.911	0.649	648.6	0back	Block4	0back/STIM_009.jpg	99
2579.023	0.767	766.8	0back	Block4	0back/STIM_009.jpg	99
2582.801	0.65	649.5	0back	Block4	0back/STIM_009.jpg	99
2587.256	0.603	602.6	0back	Block4	0back/STIM_010.jpg	99
2590.943	0.505	505.0	0back	Block4	0back/STIM_010.jpg	100
2593.905	0.611	610.7	0back	Block4	0back/STIM_010.jpg	100
2597.532	0.459	459.2	0back	Block4	0back/STIM_011.jpg	100
2600.937	0.574	573.6	0back	Block4	0back/STIM_011.jpg	99
2604.255	0.663	663.0	0back	Block4	0back/STIM_011.jpg	99
2607.274	0.436	435.5	0back	Block4	0back/STIM_012.jpg	100
2611.456	0.664	664.0	0back	Block4	0back/STIM_012.jpg	99
2615.52	0.676	675.9	0back	Block4	0back/STIM_012.jpg	99
2618.269	0.53	530.2	0back	Block4	0back/STIM_013.jpg	99
2621.283	0.647	647.4	0back	Block4	0back/STIM_013.jpg	99
2625.17	0.586	586.2	0back	Block4	0back/STIM_013.jpg	99
2629.58	0.49	490.4	0back	Block4	0back/STIM_014.jpg	99
2632.352	0.458	457.9	0back	Block4	0back/STIM_014.jpg	100
2635.454	0.48	479.7	0back	Block4	0back/STIM_014.jpg	100
2640.028	0.659	658.7	0back	Block4	0back/STIM_015.jpg	100
2643.614	0.686	685.5	0back	Block4	0back/STIM_015.jpg	99
2647.096	0.454	453.7	0back	Block4	0back/STIM_015.jpg	99
2650.185	0.727	727.3	0back	Block4	0back/STIM_016.jpg	100
2653.283	0.525	525.4	0back	Block4	0back/STIM_016.jpg	99
2656.536	0.529	528.6	0back	Block4	0back/STIM_016.jpg	99
2659.736	0.566	566.3	0back	Block4	0back/STIM_017.jpg	100
2664.03	0.661	660.6	0back	Block4	0back/STIM_017.jpg	100
2668.525	0.449	449.2	0back	Block4	0back/STIM_017.jpg	99
2671.431	0.353	353.4	0back	Block4	0back/STIM_018.jpg	100
2673.959	0.525	524.6	0back	Block4	0back/STIM_018.jpg	99
2677.425	0.562	562.2	0back	Block4	0back/STIM_018.jpg	100
2681.455	0.571	571.4	0back	Block4	0back/STIM_019.jpg	100
2684.317	0.311	310.6	0back	Block4	0back/STIM_019.jpg	99
2687.482	0.548	547.7	0back	Block4	0back/STIM_019.jpg	100
