onset	duration	accuracy_binary	trial_type	learning_stage	stimulus
0.0	1.094	1	2back	Block1	2back/STIM_000.jpg
3.936	1.009	1	2back	Block1	2back/STIM_000.jpg
8.657	1.234	1	2back	Block1	2back/STIM_000.jpg
12.457	0.986	1	2back	Block1	2back/STIM_001.jpg
16.654	0.624	1	2back	Block1	2back/STIM_001.jpg
19.448	1.121	0	2back	Block1	2back/STIM_001.jpg
23.394	1.218	1	2back	Block1	2back/STIM_002.jpg
28.5	0.655	1	2back	Block1	2back/STIM_002.jpg
32.224	1.06	1	2back	Block1	2back/STIM_002.jpg
35.857	0.667	1	2back	Block1	2back/STIM_003.jpg
38.829	0.832	1	2back	Block1	2back/STIM_003.jpg
41.874	1.044	1	2back	Block1	2back/STIM_003.jpg
45.583	0.55	1	2back	Block1	2back/STIM_004.jpg
49.655	0.634	1	2back	Block1	2back/STIM_004.jpg
52.543	1.036	0	2back	Block1	2back/STIM_004.jpg
57.622	1.295	1	2back	Block1	2back/STIM_005.jpg
62.79	1.239	1	2back	Block1	2back/STIM_005.jpg
66.576	0.639	0	2back	Block1	2back/STIM_005.jpg
70.592	0.708	1	2back	Block1	2back/STIM_006.jpg
74.814	1.194	1	2back	Block1	2back/STIM_006.jpg
78.739	0.716	1	2back	Block1	2back/STIM_006.jpg
83.332	0.92	1	2back	Block1	2back/STIM_007.jpg
86.746	0.763	1	2back	Block1	2back/STIM_007.jpg
90.612	0.468	1	2back	Block1	2back/STIM_007.jpg
93.954	0.806	1	2back	Block1	2back/STIM_008.jpg
98.164	0.562	1	2back	Block1	2back/STIM_008.jpg
102.247	0.705	1	2back	Block1	2back/STIM_008.jpg
106.546	1.049	1	2back	Block1	2back/STIM_009.jpg
110.712	0.858	1	2back	Block1	2back/STIM_009.jpg
114.321	1.195	1	2back	Block1	2back/STIM_009.jpg
117.669	0.993	1	2back	Block1	2back/STIM_010.jpg
121.042	0.67	1	2back	Block1	2back/STIM_010.jpg
125.54	0.717	1	2back	Block1	2back/STIM_010.jpg
130.266	1.114	1	2back	Block1	2back/STIM_011.jpg
134.506	1.236	1	2back	Block1	2back/STIM_011.jpg
138.471	1.201	1	2back	Block1	2back/STIM_011.jpg
142.023	1.0	1	2back	Block1	2back/STIM_012.jpg
146.685	0.879	0	2back	Block1	2back/STIM_012.jpg
150.457	0.601	1	2back	Block1	2back/STIM_012.jpg
154.228	0.692	1	2back	Block1	2back/STIM_013.jpg
157.074	0.52	1	2back	Block1	2back/STIM_013.jpg
160.233	1.078	0	2back	Block1	2back/STIM_013.jpg
164.037	1.211	1	2back	Block1	2back/STIM_014.jpg
168.443	0.588	1	2back	Block1	2back/STIM_014.jpg
172.199	0.832	0	2back	Block1	2back/STIM_014.jpg
176.924	0.712	1	2back	Block1	2back/STIM_015.jpg
180.919	0.617	1	2back	Block1	2back/STIM_015.jpg
185.255	0.572	1	2back	Block1	2back/STIM_015.jpg
189.899	0.997	1	2back	Block1	2back/STIM_016.jpg
194.582	1.251	1	2back	Block1	2back/STIM_016.jpg
198.245	0.473	1	2back	Block1	2back/STIM_016.jpg
201.179	0.856	1	2back	Block1	2back/STIM_017.jpg
204.891	0.961	1	2back	Block1	2back/STIM_017.jpg
209.66	1.141	1	2back	Block1	2back/STIM_017.jpg
213.232	0.61	1	2back	Block1	2back/STIM_018.jpg
216.238	0.54	1	2back	Block1	2back/STIM_018.jpg
220.483	1.235	1	2back	Block1	2back/STIM_018.jpg
224.912	0.775	1	2back	Block1	2back/STIM_019.jpg
229.577	0.854	1	2back	Block1	2back/STIM_019.jpg
232.773	0.674	1	2back	Block1	2back/STIM_019.jpg
236.085	1.205	1	2back	Block1	2back/STIM_020.jpg
240.428	1.24	1	2back	Block1	2back/STIM_020.jpg
245.275	1.15	1	2back	Block1	2back/STIM_020.jpg
250.332	1.124	0	2back	Block1	2back/STIM_021.jpg
254.941	1.017	1	2back	Block1	2back/STIM_021.jpg
258.363	0.8	1	2back	Block1	2back/STIM_021.jpg
262.983	0.475	1	2back	Block1	2back/STIM_022.jpg
266.417	0.832	1	2back	Block1	2back/STIM_022.jpg
269.457	0.715	1	2back	Block1	2back/STIM_022.jpg
273.848	1.254	1	2back	Block1	2back/STIM_023.jpg
278.383	1.098	1	2back	Block1	2back/STIM_023.jpg
282.43	0.602	1	2back	Block1	2back/STIM_023.jpg
286.817	1.265	1	2back	Block1	2back/STIM_024.jpg
291.487	0.852	1	2back	Block1	2back/STIM_024.jpg
295.79	1.197	1	2back	Block1	2back/STIM_024.jpg
299.273	0.801	1	2back	Block1	2back/STIM_025.jpg
303.558	0.855	0	2back	Block1	2back/STIM_025.jpg
306.853	1.001	1	2back	Block1	2back/STIM_025.jpg
311.603	1.174	0	2back	Block1	2back/STIM_026.jpg
316.272	1.02	0	2back	Block1	2back/STIM_026.jpg
319.903	1.195	1	2back	Block1	2back/STIM_026.jpg
323.962	1.007	1	2back	Block1	2back/STIM_027.jpg
328.132	0.643	1	2back	Block1	2back/STIM_027.jpg
331.138	0.463	1	2back	Block1	2back/STIM_027.jpg
334.974	0.717	1	2back	Block1	2back/STIM_028.jpg
338.438	0.869	0	2back	Block1	2back/STIM_028.jpg
342.632	0.778	0	2back	Block1	2back/STIM_028.jpg
346.831	1.083	1	2back	Block1	2back/STIM_029.jpg
351.03	1.041	1	2back	Block1	2back/STIM_029.jpg
355.404	0.497	1	2back	Block1	2back/STIM_029.jpg
358.23	0.948	0	2back	Block1	2back/STIM_030.jpg
362.07	1.052	1	2back	Block1	2back/STIM_030.jpg
366.416	0.833	1	2back	Block1	2back/STIM_030.jpg
370.791	1.209	1	2back	Block1	2back/STIM_031.jpg
375.195	1.091	0	2back	Block1	2back/STIM_031.jpg
379.849	1.152	1	2back	Block1	2back/STIM_031.jpg
383.607	0.623	0	2back	Block1	2back/STIM_032.jpg
386.66	1.014	0	2back	Block1	2back/STIM_032.jpg
390.031	1.12	1	2back	Block1	2back/STIM_032.jpg
393.783	1.29	0	2back	Block1	2back/STIM_033.jpg
398.351	1.078	1	2back	Block1	2back/STIM_033.jpg
401.684	1.028	1	2back	Block1	2back/STIM_033.jpg
406.595	0.528	1	2back	Block1	2back/STIM_034.jpg
409.971	0.49	1	2back	Block1	2back/STIM_034.jpg
413.488	0.722	0	2back	Block1	2back/STIM_034.jpg
417.143	1.107	1	2back	Block1	2back/STIM_035.jpg
422.029	1.172	0	2back	Block1	2back/STIM_035.jpg
426.952	1.263	1	2back	Block1	2back/STIM_035.jpg
430.728	1.282	1	2back	Block1	2back/STIM_036.jpg
434.691	0.976	1	2back	Block1	2back/STIM_036.jpg
439.355	1.011	1	2back	Block1	2back/STIM_036.jpg
443.811	0.746	0	2back	Block1	2back/STIM_037.jpg
448.513	1.23	1	2back	Block1	2back/STIM_037.jpg
452.439	0.498	1	2back	Block1	2back/STIM_037.jpg
455.875	0.78	1	2back	Block1	2back/STIM_038.jpg
459.331	0.982	1	2back	Block1	2back/STIM_038.jpg
463.435	0.72	1	2back	Block1	2back/STIM_038.jpg
467.163	0.998	1	2back	Block1	2back/STIM_039.jpg
471.998	0.8	1	2back	Block1	2back/STIM_039.jpg
476.277	0.555	1	2back	Block1	2back/STIM_039.jpg
479.36	0.757	1	0back	Block1	0back/STIM_000.jpg
484.062	0.781	1	0back	Block1	0back/STIM_000.jpg
488.171	0.664	1	0back	Block1	0back/STIM_000.jpg
491.856	0.772	1	0back	Block1	0back/STIM_001.jpg
496.074	0.502	1	0back	Block1	0back/STIM_001.jpg
499.996	0.409	1	0back	Block1	0back/STIM_001.jpg
503.207	0.85	1	0back	Block1	0back/STIM_002.jpg
506.721	0.532	1	0back	Block1	0back/STIM_002.jpg
509.894	0.603	1	0back	Block1	0back/STIM_002.jpg
513.754	0.676	1	0back	Block1	0back/STIM_003.jpg
516.511	0.507	1	0back	Block1	0back/STIM_003.jpg
520.801	0.36	1	0back	Block1	0back/STIM_003.jpg
525.062	0.521	1	0back	Block1	0back/STIM_004.jpg
527.771	0.576	1	0back	Block1	0back/STIM_004.jpg
531.604	0.569	1	0back	Block1	0back/STIM_004.jpg
536.189	0.367	1	0back	Block1	0back/STIM_005.jpg
538.873	0.634	1	0back	Block1	0back/STIM_005.jpg
543.323	0.785	1	0back	Block1	0back/STIM_005.jpg
546.215	0.556	1	0back	Block1	0back/STIM_006.jpg
549.076	0.473	1	0back	Block1	0back/STIM_006.jpg
553.19	0.671	1	0back	Block1	0back/STIM_006.jpg
556.187	0.67	1	0back	Block1	0back/STIM_007.jpg
559.643	0.759	1	0back	Block1	0back/STIM_007.jpg
563.981	0.345	1	0back	Block1	0back/STIM_007.jpg
566.526	0.537	1	0back	Block1	0back/STIM_008.jpg
570.693	0.748	1	0back	Block1	0back/STIM_008.jpg
574.122	0.61	1	0back	Block1	0back/STIM_008.jpg
577.221	0.719	1	0back	Block1	0back/STIM_009.jpg
581.173	0.772	1	0back	Block1	0back/STIM_009.jpg
585.938	0.557	1	0back	Block1	0back/STIM_009.jpg
590.417	0.66	1	0back	Block1	0back/STIM_010.jpg
593.468	0.64	1	0back	Block1	0back/STIM_010.jpg
598.029	0.43	1	0back	Block1	0back/STIM_010.jpg
600.644	0.486	1	0back	Block1	0back/STIM_011.jpg
604.067	0.61	1	0back	Block1	0back/STIM_011.jpg
607.095	0.667	1	0back	Block1	0back/STIM_011.jpg
609.808	0.591	1	0back	Block1	0back/STIM_012.jpg
614.043	0.703	1	0back	Block1	0back/STIM_012.jpg
617.606	0.593	1	0back	Block1	0back/STIM_012.jpg
620.952	0.794	1	0back	Block1	0back/STIM_013.jpg
625.453	0.401	1	0back	Block1	0back/STIM_013.jpg
628.087	0.459	1	0back	Block1	0back/STIM_013.jpg
630.833	0.755	1	0back	Block1	0back/STIM_014.jpg
634.734	0.441	1	0back	Block1	0back/STIM_014.jpg
638.525	0.728	1	0back	Block1	0back/STIM_014.jpg
641.811	0.727	1	0back	Block1	0back/STIM_015.jpg
645.631	0.543	1	0back	Block1	0back/STIM_015.jpg
648.881	0.669	1	0back	Block1	0back/STIM_015.jpg
652.892	0.562	1	0back	Block1	0back/STIM_016.jpg
656.745	0.694	1	0back	Block1	0back/STIM_016.jpg
661.409	0.733	1	0back	Block1	0back/STIM_016.jpg
664.251	0.487	1	0back	Block1	0back/STIM_017.jpg
668.628	0.476	1	0back	Block1	0back/STIM_017.jpg
671.197	0.534	1	0back	Block1	0back/STIM_017.jpg
674.669	0.725	1	0back	Block1	0back/STIM_018.jpg
678.129	0.557	1	0back	Block1	0back/STIM_018.jpg
680.983	0.423	1	0back	Block1	0back/STIM_018.jpg
684.033	0.484	1	0back	Block1	0back/STIM_019.jpg
688.044	0.615	1	0back	Block1	0back/STIM_019.jpg
692.541	0.578	1	0back	Block1	0back/STIM_019.jpg
696.137	0.904	1	2back	Block2	2back/STIM_000.jpg
700.317	0.949	1	2back	Block2	2back/STIM_000.jpg
705.017	0.595	1	2back	Block2	2back/STIM_000.jpg
708.427	0.839	1	2back	Block2	2back/STIM_001.jpg
711.881	1.006	1	2back	Block2	2back/STIM_001.jpg
715.343	0.919	1	2back	Block2	2back/STIM_001.jpg
719.897	0.561	1	2back	Block2	2back/STIM_002.jpg
724.45	0.479	1	2back	Block2	2back/STIM_002.jpg
728.979	0.841	1	2back	Block2	2back/STIM_002.jpg
733.723	0.898	1	2back	Block2	2back/STIM_003.jpg
738.59	0.721	1	2back	Block2	2back/STIM_003.jpg
742.711	0.74	1	2back	Block2	2back/STIM_003.jpg
746.622	0.626	1	2back	Block2	2back/STIM_004.jpg
749.992	0.625	1	2back	Block2	2back/STIM_004.jpg
754.402	0.995	1	2back	Block2	2back/STIM_004.jpg
758.057	0.589	0	2back	Block2	2back/STIM_005.jpg
760.942	1.004	1	2back	Block2	2back/STIM_005.jpg
765.523	0.503	1	2back	Block2	2back/STIM_005.jpg
769.546	0.94	0	2back	Block2	2back/STIM_006.jpg
773.064	0.815	1	2back	Block2	2back/STIM_006.jpg
777.468	0.687	1	2back	Block2	2back/STIM_006.jpg
780.92	0.817	1	2back	Block2	2back/STIM_007.jpg
784.664	0.491	1	2back	Block2	2back/STIM_007.jpg
788.622	0.792	1	2back	Block2	2back/STIM_007.jpg
791.836	1.042	1	2back	Block2	2back/STIM_008.jpg
795.385	0.783	0	2back	Block2	2back/STIM_008.jpg
799.706	0.58	1	2back	Block2	2back/STIM_008.jpg
803.438	0.897	1	2back	Block2	2back/STIM_009.jpg
806.78	0.463	1	2back	Block2	2back/STIM_009.jpg
809.318	0.452	1	2back	Block2	2back/STIM_009.jpg
813.379	0.783	1	2back	Block2	2back/STIM_010.jpg
817.497	0.598	1	2back	Block2	2back/STIM_010.jpg
821.454	0.675	1	2back	Block2	2back/STIM_010.jpg
825.841	0.922	1	2back	Block2	2back/STIM_011.jpg
829.9	0.725	0	2back	Block2	2back/STIM_011.jpg
833.695	0.842	1	2back	Block2	2back/STIM_011.jpg
837.86	0.774	1	2back	Block2	2back/STIM_012.jpg
841.427	0.838	1	2back	Block2	2back/STIM_012.jpg
844.464	0.962	0	2back	Block2	2back/STIM_012.jpg
847.59	0.788	1	2back	Block2	2back/STIM_013.jpg
851.367	0.998	1	2back	Block2	2back/STIM_013.jpg
856.0	0.44	1	2back	Block2	2back/STIM_013.jpg
859.96	0.623	1	2back	Block2	2back/STIM_014.jpg
863.029	0.563	1	2back	Block2	2back/STIM_014.jpg
866.001	0.6	1	2back	Block2	2back/STIM_014.jpg
868.675	0.554	1	2back	Block2	2back/STIM_015.jpg
872.359	0.881	0	2back	Block2	2back/STIM_015.jpg
876.548	0.677	1	2back	Block2	2back/STIM_015.jpg
880.641	0.867	1	2back	Block2	2back/STIM_016.jpg
884.978	0.604	1	2back	Block2	2back/STIM_016.jpg
888.549	0.85	1	2back	Block2	2back/STIM_016.jpg
892.045	0.621	1	2back	Block2	2back/STIM_017.jpg
895.688	0.472	1	2back	Block2	2back/STIM_017.jpg
899.117	0.525	1	2back	Block2	2back/STIM_017.jpg
901.872	0.544	1	2back	Block2	2back/STIM_018.jpg
905.234	0.919	1	2back	Block2	2back/STIM_018.jpg
908.369	1.022	1	2back	Block2	2back/STIM_018.jpg
912.455	0.782	1	2back	Block2	2back/STIM_019.jpg
915.643	0.616	1	2back	Block2	2back/STIM_019.jpg
919.84	0.747	0	2back	Block2	2back/STIM_019.jpg
924.472	0.59	1	2back	Block2	2back/STIM_020.jpg
928.633	0.911	1	2back	Block2	2back/STIM_020.jpg
932.59	0.744	1	2back	Block2	2back/STIM_020.jpg
936.836	0.543	1	2back	Block2	2back/STIM_021.jpg
940.354	1.017	1	2back	Block2	2back/STIM_021.jpg
945.267	0.591	1	2back	Block2	2back/STIM_021.jpg
948.847	0.584	0	2back	Block2	2back/STIM_022.jpg
953.375	0.532	1	2back	Block2	2back/STIM_022.jpg
956.841	0.615	1	2back	Block2	2back/STIM_022.jpg
960.238	0.645	1	2back	Block2	2back/STIM_023.jpg
964.633	0.481	1	2back	Block2	2back/STIM_023.jpg
967.736	0.595	1	2back	Block2	2back/STIM_023.jpg
972.317	0.634	1	2back	Block2	2back/STIM_024.jpg
975.19	1.063	1	2back	Block2	2back/STIM_024.jpg
979.534	0.859	1	2back	Block2	2back/STIM_024.jpg
983.435	0.95	1	2back	Block2	2back/STIM_025.jpg
987.736	0.646	1	2back	Block2	2back/STIM_025.jpg
992.216	0.64	1	2back	Block2	2back/STIM_025.jpg
995.329	0.915	1	2back	Block2	2back/STIM_026.jpg
999.496	0.776	1	2back	Block2	2back/STIM_026.jpg
1003.533	0.806	1	2back	Block2	2back/STIM_026.jpg
1007.522	0.817	1	2back	Block2	2back/STIM_027.jpg
1012.026	1.015	1	2back	Block2	2back/STIM_027.jpg
1016.203	0.976	1	2back	Block2	2back/STIM_027.jpg
1020.931	1.041	1	2back	Block2	2back/STIM_028.jpg
1024.561	1.017	1	2back	Block2	2back/STIM_028.jpg
1028.449	0.531	1	2back	Block2	2back/STIM_028.jpg
1031.313	1.185	1	2back	Block2	2back/STIM_029.jpg
1036.365	0.991	1	2back	Block2	2back/STIM_029.jpg
1041.161	0.896	1	2back	Block2	2back/STIM_029.jpg
1046.047	0.703	1	2back	Block2	2back/STIM_030.jpg
1050.254	0.963	1	2back	Block2	2back/STIM_030.jpg
1054.329	0.596	1	2back	Block2	2back/STIM_030.jpg
1057.161	1.063	0	2back	Block2	2back/STIM_031.jpg
1061.077	0.794	1	2back	Block2	2back/STIM_031.jpg
1064.367	0.89	1	2back	Block2	2back/STIM_031.jpg
1068.846	0.981	1	2back	Block2	2back/STIM_032.jpg
1073.655	1.052	1	2back	Block2	2back/STIM_032.jpg
1078.075	0.847	1	2back	Block2	2back/STIM_032.jpg
1081.648	0.934	1	2back	Block2	2back/STIM_033.jpg
1085.758	0.456	1	2back	Block2	2back/STIM_033.jpg
1090.238	0.893	1	2back	Block2	2back/STIM_033.jpg
1094.7	0.663	1	2back	Block2	2back/STIM_034.jpg
1097.937	0.38	1	2back	Block2	2back/STIM_034.jpg
1100.64	0.967	1	2back	Block2	2back/STIM_034.jpg
1104.7	1.088	1	2back	Block2	2back/STIM_035.jpg
1108.751	0.837	1	2back	Block2	2back/STIM_035.jpg
1111.907	0.479	1	2back	Block2	2back/STIM_035.jpg
1115.983	0.96	0	2back	Block2	2back/STIM_036.jpg
1119.034	0.522	1	2back	Block2	2back/STIM_036.jpg
1122.207	0.846	1	2back	Block2	2back/STIM_036.jpg
1126.614	0.987	0	2back	Block2	2back/STIM_037.jpg
1129.931	0.869	1	2back	Block2	2back/STIM_037.jpg
1134.229	0.748	1	2back	Block2	2back/STIM_037.jpg
1137.453	0.808	1	2back	Block2	2back/STIM_038.jpg
1141.396	0.901	1	2back	Block2	2back/STIM_038.jpg
1144.74	0.722	1	2back	Block2	2back/STIM_038.jpg
1148.889	0.824	1	2back	Block2	2back/STIM_039.jpg
1151.804	0.935	1	2back	Block2	2back/STIM_039.jpg
1155.097	0.522	1	2back	Block2	2back/STIM_039.jpg
1158.013	0.737	1	0back	Block2	0back/STIM_000.jpg
1161.253	0.57	1	0back	Block2	0back/STIM_000.jpg
1165.561	0.548	1	0back	Block2	0back/STIM_000.jpg
1169.59	0.549	1	0back	Block2	0back/STIM_001.jpg
1172.927	0.349	1	0back	Block2	0back/STIM_001.jpg
1176.091	0.701	1	0back	Block2	0back/STIM_001.jpg
1179.786	0.487	1	0back	Block2	0back/STIM_002.jpg
1183.637	0.464	1	0back	Block2	0back/STIM_002.jpg
1187.727	0.582	1	0back	Block2	0back/STIM_002.jpg
1192.391	0.416	1	0back	Block2	0back/STIM_003.jpg
1195.418	0.463	1	0back	Block2	0back/STIM_003.jpg
1198.387	0.429	1	0back	Block2	0back/STIM_003.jpg
1200.924	0.608	1	0back	Block2	0back/STIM_004.jpg
1204.803	0.472	1	0back	Block2	0back/STIM_004.jpg
1209.23	0.771	1	0back	Block2	0back/STIM_004.jpg
1212.264	0.64	1	0back	Block2	0back/STIM_005.jpg
1215.715	0.633	1	0back	Block2	0back/STIM_005.jpg
1219.451	0.48	1	0back	Block2	0back/STIM_005.jpg
1222.033	0.73	1	0back	Block2	0back/STIM_006.jpg
1225.161	0.694	1	0back	Block2	0back/STIM_006.jpg
1228.857	0.756	1	0back	Block2	0back/STIM_006.jpg
1232.059	0.39	1	0back	Block2	0back/STIM_007.jpg
1234.599	0.398	1	0back	Block2	0back/STIM_007.jpg
1238.765	0.661	1	0back	Block2	0back/STIM_007.jpg
1242.259	0.755	1	0back	Block2	0back/STIM_008.jpg
1246.834	0.578	1	0back	Block2	0back/STIM_008.jpg
1249.758	0.676	1	0back	Block2	0back/STIM_008.jpg
1253.641	0.864	1	0back	Block2	0back/STIM_009.jpg
1256.899	0.762	1	0back	Block2	0back/STIM_009.jpg
1261.561	0.642	1	0back	Block2	0back/STIM_009.jpg
1266.005	0.401	1	0back	Block2	0back/STIM_010.jpg
1268.981	0.404	1	0back	Block2	0back/STIM_010.jpg
1271.667	0.605	1	0back	Block2	0back/STIM_010.jpg
1274.927	0.669	1	0back	Block2	0back/STIM_011.jpg
1279.038	0.616	0	0back	Block2	0back/STIM_011.jpg
1281.897	0.797	1	0back	Block2	0back/STIM_011.jpg
1285.139	0.524	1	0back	Block2	0back/STIM_012.jpg
1288.304	0.418	1	0back	Block2	0back/STIM_012.jpg
1292.585	0.565	1	0back	Block2	0back/STIM_012.jpg
1295.929	0.479	1	0back	Block2	0back/STIM_013.jpg
1299.346	0.666	0	0back	Block2	0back/STIM_013.jpg
1302.682	0.698	1	0back	Block2	0back/STIM_013.jpg
1306.579	0.448	1	0back	Block2	0back/STIM_014.jpg
1309.177	0.712	1	0back	Block2	0back/STIM_014.jpg
1312.497	0.478	1	0back	Block2	0back/STIM_014.jpg
1316.246	0.457	1	0back	Block2	0back/STIM_015.jpg
1319.784	0.695	1	0back	Block2	0back/STIM_015.jpg
1323.632	0.547	1	0back	Block2	0back/STIM_015.jpg
1327.325	0.431	1	0back	Block2	0back/STIM_016.jpg
1330.855	0.567	1	0back	Block2	0back/STIM_016.jpg
1334.728	0.623	1	0back	Block2	0back/STIM_016.jpg
1337.931	0.716	1	0back	Block2	0back/STIM_017.jpg
1340.756	0.583	1	0back	Block2	0back/STIM_017.jpg
1344.005	0.375	1	0back	Block2	0back/STIM_017.jpg
1347.343	0.681	1	0back	Block2	0back/STIM_018.jpg
1350.253	0.752	1	0back	Block2	0back/STIM_018.jpg
1353.808	0.573	1	0back	Block2	0back/STIM_018.jpg
1356.392	0.551	1	0back	Block2	0back/STIM_019.jpg
1360.0	0.418	1	0back	Block2	0back/STIM_019.jpg
1362.68	0.427	1	0back	Block2	0back/STIM_019.jpg
1365.822	0.602	1	2back	Block3	2back/STIM_000.jpg
1369.128	0.533	1	2back	Block3	2back/STIM_000.jpg
1372.757	0.904	1	2back	Block3	2back/STIM_000.jpg
1376.601	0.526	1	2back	Block3	2back/STIM_001.jpg
1379.188	0.955	1	2back	Block3	2back/STIM_001.jpg
1383.411	0.938	1	2back	Block3	2back/STIM_001.jpg
1388.36	0.829	1	2back	Block3	2back/STIM_002.jpg
1393.201	0.942	1	2back	Block3	2back/STIM_002.jpg
1398.022	0.824	1	2back	Block3	2back/STIM_002.jpg
1402.114	0.604	1	2back	Block3	2back/STIM_003.jpg
1405.227	0.787	1	2back	Block3	2back/STIM_003.jpg
1409.805	0.515	1	2back	Block3	2back/STIM_003.jpg
1413.933	0.647	0	2back	Block3	2back/STIM_004.jpg
1417.754	0.728	1	2back	Block3	2back/STIM_004.jpg
1422.332	0.543	1	2back	Block3	2back/STIM_004.jpg
1426.834	0.811	1	2back	Block3	2back/STIM_005.jpg
1430.636	0.873	1	2back	Block3	2back/STIM_005.jpg
1435.533	0.88	1	2back	Block3	2back/STIM_005.jpg
1438.682	0.537	1	2back	Block3	2back/STIM_006.jpg
1442.156	0.546	1	2back	Block3	2back/STIM_006.jpg
1445.885	0.867	1	2back	Block3	2back/STIM_006.jpg
1449.575	0.856	1	2back	Block3	2back/STIM_007.jpg
1453.967	0.712	1	2back	Block3	2back/STIM_007.jpg
1458.698	0.829	1	2back	Block3	2back/STIM_007.jpg
1462.666	0.452	1	2back	Block3	2back/STIM_008.jpg
1465.462	0.883	1	2back	Block3	2back/STIM_008.jpg
1469.301	0.736	1	2back	Block3	2back/STIM_008.jpg
1472.803	0.511	1	2back	Block3	2back/STIM_009.jpg
1476.577	0.505	1	2back	Block3	2back/STIM_009.jpg
1479.95	0.556	1	2back	Block3	2back/STIM_009.jpg
1483.038	0.855	1	2back	Block3	2back/STIM_010.jpg
1487.742	0.709	1	2back	Block3	2back/STIM_010.jpg
1492.169	0.731	1	2back	Block3	2back/STIM_010.jpg
1495.221	0.383	1	2back	Block3	2back/STIM_011.jpg
1498.363	0.817	1	2back	Block3	2back/STIM_011.jpg
1501.408	0.694	1	2back	Block3	2back/STIM_011.jpg
1504.707	0.588	1	2back	Block3	2back/STIM_012.jpg
1507.999	0.932	1	2back	Block3	2back/STIM_012.jpg
1511.425	0.69	1	2back	Block3	2back/STIM_012.jpg
1514.331	0.499	1	2back	Block3	2back/STIM_013.jpg
1516.892	0.623	1	2back	Block3	2back/STIM_013.jpg
1520.939	0.452	1	2back	Block3	2back/STIM_013.jpg
1523.703	0.837	1	2back	Block3	2back/STIM_014.jpg
1527.717	0.428	1	2back	Block3	2back/STIM_014.jpg
1531.473	0.64	1	2back	Block3	2back/STIM_014.jpg
1535.824	0.811	1	2back	Block3	2back/STIM_015.jpg
1539.996	0.57	1	2back	Block3	2back/STIM_015.jpg
1543.987	0.984	1	2back	Block3	2back/STIM_015.jpg
1548.218	0.704	1	2back	Block3	2back/STIM_016.jpg
1552.284	0.623	0	2back	Block3	2back/STIM_016.jpg
1555.706	0.48	1	2back	Block3	2back/STIM_016.jpg
1558.654	0.506	1	2back	Block3	2back/STIM_017.jpg
1563.327	0.999	1	2back	Block3	2back/STIM_017.jpg
1567.685	0.699	1	2back	Block3	2back/STIM_017.jpg
1570.813	0.437	1	2back	Block3	2back/STIM_018.jpg
1575.131	0.693	1	2back	Block3	2back/STIM_018.jpg
1578.083	0.661	1	2back	Block3	2back/STIM_018.jpg
1580.825	0.553	1	2back	Block3	2back/STIM_019.jpg
1584.855	0.632	1	2back	Block3	2back/STIM_019.jpg
1589.415	0.589	1	2back	Block3	2back/STIM_019.jpg
1593.751	0.986	1	2back	Block3	2back/STIM_020.jpg
1598.456	0.776	1	2back	Block3	2back/STIM_020.jpg
1603.24	0.821	1	2back	Block3	2back/STIM_020.jpg
1606.076	0.5	1	2back	Block3	2back/STIM_021.jpg
1610.259	0.64	1	2back	Block3	2back/STIM_021.jpg
1613.655	0.693	1	2back	Block3	2back/STIM_021.jpg
1617.694	0.576	1	2back	Block3	2back/STIM_022.jpg
1621.43	0.384	1	2back	Block3	2back/STIM_022.jpg
1625.415	0.689	1	2back	Block3	2back/STIM_022.jpg
1629.709	0.506	1	2back	Block3	2back/STIM_023.jpg
1632.7	0.765	1	2back	Block3	2back/STIM_023.jpg
1637.38	0.65	1	2back	Block3	2back/STIM_023.jpg
1640.412	0.91	1	2back	Block3	2back/STIM_024.jpg
1643.91	0.596	1	2back	Block3	2back/STIM_024.jpg
1647.717	0.689	1	2back	Block3	2back/STIM_024.jpg
1651.419	0.912	1	2back	Block3	2back/STIM_025.jpg
1654.474	0.692	1	2back	Block3	2back/STIM_025.jpg
1657.926	0.534	1	2back	Block3	2back/STIM_025.jpg
1660.635	0.9	1	2back	Block3	2back/STIM_026.jpg
1664.811	0.576	1	2back	Block3	2back/STIM_026.jpg
1668.527	0.528	1	2back	Block3	2back/STIM_026.jpg
1671.678	0.784	0	2back	Block3	2back/STIM_027.jpg
1674.728	0.522	1	2back	Block3	2back/STIM_027.jpg
1678.049	0.907	1	2back	Block3	2back/STIM_027.jpg
1681.013	0.329	1	2back	Block3	2back/STIM_028.jpg
1683.836	0.616	1	2back	Block3	2back/STIM_028.jpg
1687.292	0.687	1	2back	Block3	2back/STIM_028.jpg
1690.519	0.677	1	2back	Block3	2back/STIM_029.jpg
1693.586	0.84	1	2back	Block3	2back/STIM_029.jpg
1698.079	0.797	1	2back	Block3	2back/STIM_029.jpg
1702.225	0.878	1	2back	Block3	2back/STIM_030.jpg
1705.481	0.594	1	2back	Block3	2back/STIM_030.jpg
1709.128	0.844	1	2back	Block3	2back/STIM_030.jpg
1713.901	0.849	1	2back	Block3	2back/STIM_031.jpg
1718.392	0.985	1	2back	Block3	2back/STIM_031.jpg
1722.486	0.381	1	2back	Block3	2back/STIM_031.jpg
1726.32	0.571	1	2back	Block3	2back/STIM_032.jpg
1730.021	0.57	1	2back	Block3	2back/STIM_032.jpg
1734.494	0.45	1	2back	Block3	2back/STIM_032.jpg
1737.066	0.777	1	2back	Block3	2back/STIM_033.jpg
1739.874	0.885	1	2back	Block3	2back/STIM_033.jpg
1744.555	0.883	1	2back	Block3	2back/STIM_033.jpg
1747.841	0.935	1	2back	Block3	2back/STIM_034.jpg
1750.908	0.598	1	2back	Block3	2back/STIM_034.jpg
1755.104	0.704	1	2back	Block3	2back/STIM_034.jpg
1758.937	0.676	0	2back	Block3	2back/STIM_035.jpg
1761.952	0.862	1	2back	Block3	2back/STIM_035.jpg
1766.443	0.45	1	2back	Block3	2back/STIM_035.jpg
1769.631	0.473	1	2back	Block3	2back/STIM_036.jpg
1772.845	0.654	1	2back	Block3	2back/STIM_036.jpg
1775.593	0.793	1	2back	Block3	2back/STIM_036.jpg
1779.506	0.85	1	2back	Block3	2back/STIM_037.jpg
1782.822	0.455	1	2back	Block3	2back/STIM_037.jpg
1785.709	0.355	1	2back	Block3	2back/STIM_037.jpg
1788.233	0.87	1	2back	Block3	2back/STIM_038.jpg
1792.069	0.439	1	2back	Block3	2back/STIM_038.jpg
1795.732	0.796	1	2back	Block3	2back/STIM_038.jpg
1799.96	0.924	1	2back	Block3	2back/STIM_039.jpg
1803.579	0.67	0	2back	Block3	2back/STIM_039.jpg
1806.641	0.812	1	2back	Block3	2back/STIM_039.jpg
1809.834	0.491	1	0back	Block3	0back/STIM_000.jpg
1812.751	0.627	1	0back	Block3	0back/STIM_000.jpg
1815.458	0.609	1	0back	Block3	0back/STIM_000.jpg
1819.29	0.747	1	0back	Block3	0back/STIM_001.jpg
1823.241	0.399	1	0back	Block3	0back/STIM_001.jpg
1826.115	0.429	1	0back	Block3	0back/STIM_001.jpg
1829.937	0.507	1	0back	Block3	0back/STIM_002.jpg
1833.528	0.56	1	0back	Block3	0back/STIM_002.jpg
1836.863	0.535	1	0back	Block3	0back/STIM_002.jpg
1839.73	0.59	1	0back	Block3	0back/STIM_003.jpg
1842.275	0.441	1	0back	Block3	0back/STIM_003.jpg
1846.541	0.447	1	0back	Block3	0back/STIM_003.jpg
1850.818	0.501	1	0back	Block3	0back/STIM_004.jpg
1854.262	0.479	1	0back	Block3	0back/STIM_004.jpg
1858.436	0.627	1	0back	Block3	0back/STIM_004.jpg
1862.613	0.746	1	0back	Block3	0back/STIM_005.jpg
1866.959	0.754	1	0back	Block3	0back/STIM_005.jpg
1869.867	0.459	1	0back	Block3	0back/STIM_005.jpg
1872.811	0.678	0	0back	Block3	0back/STIM_006.jpg
1876.201	0.48	1	0back	Block3	0back/STIM_006.jpg
1880.176	0.401	1	0back	Block3	0back/STIM_006.jpg
1883.272	0.676	0	0back	Block3	0back/STIM_007.jpg
1887.58	0.727	1	0back	Block3	0back/STIM_007.jpg
1890.551	0.483	1	0back	Block3	0back/STIM_007.jpg
1894.547	0.701	1	0back	Block3	0back/STIM_008.jpg
1898.023	0.471	1	0back	Block3	0back/STIM_008.jpg
1902.198	0.497	1	0back	Block3	0back/STIM_008.jpg
1905.118	0.734	1	0back	Block3	0back/STIM_009.jpg
1908.782	0.591	0	0back	Block3	0back/STIM_009.jpg
1912.214	0.418	1	0back	Block3	0back/STIM_009.jpg
1916.38	0.7	1	0back	Block3	0back/STIM_010.jpg
1920.056	0.767	1	0back	Block3	0back/STIM_010.jpg
1923.435	0.769	1	0back	Block3	0back/STIM_010.jpg
1927.931	0.741	1	0back	Block3	0back/STIM_011.jpg
1932.11	0.676	1	0back	Block3	0back/STIM_011.jpg
1936.462	0.573	1	0back	Block3	0back/STIM_011.jpg
1940.101	0.503	1	0back	Block3	0back/STIM_012.jpg
1942.918	0.391	1	0back	Block3	0back/STIM_012.jpg
1947.242	0.658	1	0back	Block3	0back/STIM_012.jpg
1951.189	0.32	1	0back	Block3	0back/STIM_013.jpg
1955.04	0.458	1	0back	Block3	0back/STIM_013.jpg
1958.403	0.588	1	0back	Block3	0back/STIM_013.jpg
1962.702	0.712	1	0back	Block3	0back/STIM_014.jpg
1966.15	0.69	1	0back	Block3	0back/STIM_014.jpg
1969.697	0.638	1	0back	Block3	0back/STIM_014.jpg
1973.02	0.527	1	0back	Block3	0back/STIM_015.jpg
1975.881	0.797	1	0back	Block3	0back/STIM_015.jpg
1979.614	0.745	1	0back	Block3	0back/STIM_015.jpg
1982.979	0.622	1	0back	Block3	0back/STIM_016.jpg
1986.159	0.658	1	0back	Block3	0back/STIM_016.jpg
1990.479	0.812	1	0back	Block3	0back/STIM_016.jpg
1993.446	0.647	1	0back	Block3	0back/STIM_017.jpg
1997.339	0.654	1	0back	Block3	0back/STIM_017.jpg
2001.191	0.357	1	0back	Block3	0back/STIM_017.jpg
2005.204	0.654	1	0back	Block3	0back/STIM_018.jpg
2009.078	0.474	1	0back	Block3	0back/STIM_018.jpg
2011.644	0.41	1	0back	Block3	0back/STIM_018.jpg
2015.774	0.765	1	0back	Block3	0back/STIM_019.jpg
2020.011	0.533	1	0back	Block3	0back/STIM_019.jpg
2023.491	0.632	1	0back	Block3	0back/STIM_019.jpg
2027.234	0.872	1	2back	Block4	2back/STIM_000.jpg
2030.946	0.907	1	2back	Block4	2back/STIM_000.jpg
2034.568	0.596	1	2back	Block4	2back/STIM_000.jpg
2037.841	0.457	1	2back	Block4	2back/STIM_001.jpg
2042.232	0.684	1	2back	Block4	2back/STIM_001.jpg
2046.339	0.434	1	2back	Block4	2back/STIM_001.jpg
2048.881	0.88	1	2back	Block4	2back/STIM_002.jpg
2053.095	0.711	1	2back	Block4	2back/STIM_002.jpg
2056.09	0.706	1	2back	Block4	2back/STIM_002.jpg
2058.811	0.891	1	2back	Block4	2back/STIM_003.jpg
2062.264	0.793	1	2back	Block4	2back/STIM_003.jpg
2066.514	0.618	1	2back	Block4	2back/STIM_003.jpg
2070.919	0.891	1	2back	Block4	2back/STIM_004.jpg
2074.083	0.698	1	2back	Block4	2back/STIM_004.jpg
2077.971	0.724	1	2back	Block4	2back/STIM_004.jpg
2082.408	0.9	1	2back	Block4	2back/STIM_005.jpg
2086.579	0.836	1	2back	Block4	2back/STIM_005.jpg
2090.601	0.94	1	2back	Block4	2back/STIM_005.jpg
2094.927	0.689	1	2back	Block4	2back/STIM_006.jpg
2098.307	0.702	1	2back	Block4	2back/STIM_006.jpg
2102.217	0.569	1	2back	Block4	2back/STIM_006.jpg
2105.112	0.916	1	2back	Block4	2back/STIM_007.jpg
2108.423	0.805	1	2back	Block4	2back/STIM_007.jpg
2113.005	0.518	1	2back	Block4	2back/STIM_007.jpg
2115.903	0.571	1	2back	Block4	2back/STIM_008.jpg
2119.001	0.526	1	2back	Block4	2back/STIM_008.jpg
2122.234	0.929	1	2back	Block4	2back/STIM_008.jpg
2126.064	0.976	1	2back	Block4	2back/STIM_009.jpg
2129.076	0.62	1	2back	Block4	2back/STIM_009.jpg
2132.883	0.58	1	2back	Block4	2back/STIM_009.jpg
2137.076	0.351	1	2back	Block4	2back/STIM_010.jpg
2139.795	0.789	1	2back	Block4	2back/STIM_010.jpg
2144.088	0.649	1	2back	Block4	2back/STIM_010.jpg
2148.216	0.487	1	2back	Block4	2back/STIM_011.jpg
2151.219	0.794	1	2back	Block4	2back/STIM_011.jpg
2155.366	0.574	1	2back	Block4	2back/STIM_011.jpg
2158.847	0.359	1	2back	Block4	2back/STIM_012.jpg
2163.108	0.653	1	2back	Block4	2back/STIM_012.jpg
2167.863	0.488	1	2back	Block4	2back/STIM_012.jpg
2170.607	0.776	1	2back	Block4	2back/STIM_013.jpg
2174.836	0.515	1	2back	Block4	2back/STIM_013.jpg
2179.144	0.628	1	2back	Block4	2back/STIM_013.jpg
2182.208	0.854	1	2back	Block4	2back/STIM_014.jpg
2186.651	0.83	1	2back	Block4	2back/STIM_014.jpg
2190.753	0.454	1	2back	Block4	2back/STIM_014.jpg
2193.845	0.433	1	2back	Block4	2back/STIM_015.jpg
2196.97	0.604	1	2back	Block4	2back/STIM_015.jpg
2200.657	0.498	0	2back	Block4	2back/STIM_015.jpg
2204.638	0.791	1	2back	Block4	2back/STIM_016.jpg
2208.82	0.676	1	2back	Block4	2back/STIM_016.jpg
2213.287	0.71	1	2back	Block4	2back/STIM_016.jpg
2218.104	0.623	1	2back	Block4	2back/STIM_017.jpg
2222.272	0.73	1	2back	Block4	2back/STIM_017.jpg
2225.437	0.795	0	2back	Block4	2back/STIM_017.jpg
2228.365	0.512	1	2back	Block4	2back/STIM_018.jpg
2231.973	0.609	1	2back	Block4	2back/STIM_018.jpg
2235.77	0.658	1	2back	Block4	2back/STIM_018.jpg
2238.74	0.883	1	2back	Block4	2back/STIM_019.jpg
2243.084	0.825	1	2back	Block4	2back/STIM_019.jpg
2247.304	0.677	1	2back	Block4	2back/STIM_019.jpg
2250.936	0.779	1	2back	Block4	2back/STIM_020.jpg
2253.769	0.589	1	2back	Block4	2back/STIM_020.jpg
2258.124	0.818	1	2back	Block4	2back/STIM_020.jpg
2261.769	0.421	1	2back	Block4	2back/STIM_021.jpg
2265.312	0.719	1	2back	Block4	2back/STIM_021.jpg
2269.831	0.564	1	2back	Block4	2back/STIM_021.jpg
2273.501	0.618	1	2back	Block4	2back/STIM_022.jpg
2277.81	0.496	1	2back	Block4	2back/STIM_022.jpg
2282.207	0.616	1	2back	Block4	2back/STIM_022.jpg
2286.525	0.698	1	2back	Block4	2back/STIM_023.jpg
2290.641	0.408	1	2back	Block4	2back/STIM_023.jpg
2294.155	0.439	1	2back	Block4	2back/STIM_023.jpg
2297.336	0.878	1	2back	Block4	2back/STIM_024.jpg
2300.592	0.565	1	2back	Block4	2back/STIM_024.jpg
2304.719	0.563	1	2back	Block4	2back/STIM_024.jpg
2307.969	0.435	1	2back	Block4	2back/STIM_025.jpg
2310.912	0.726	1	2back	Block4	2back/STIM_025.jpg
2313.952	0.682	1	2back	Block4	2back/STIM_025.jpg
2318.302	0.6	1	2back	Block4	2back/STIM_026.jpg
2322.157	0.951	1	2back	Block4	2back/STIM_026.jpg
2325.655	0.448	1	2back	Block4	2back/STIM_026.jpg
2329.512	0.647	1	2back	Block4	2back/STIM_027.jpg
2332.206	0.913	1	2back	Block4	2back/STIM_027.jpg
2335.322	0.473	1	2back	Block4	2back/STIM_027.jpg
2338.468	0.839	1	2back	Block4	2back/STIM_028.jpg
2341.556	0.618	1	2back	Block4	2back/STIM_028.jpg
2345.099	0.384	1	2back	Block4	2back/STIM_028.jpg
2347.757	0.599	1	2back	Block4	2back/STIM_029.jpg
2351.731	0.458	1	2back	Block4	2back/STIM_029.jpg
2354.989	0.698	1	2back	Block4	2back/STIM_029.jpg
2359.106	0.815	0	2back	Block4	2back/STIM_030.jpg
2362.83	0.856	0	2back	Block4	2back/STIM_030.jpg
2366.734	0.565	1	2back	Block4	2back/STIM_030.jpg
2370.56	0.736	1	2back	Block4	2back/STIM_031.jpg
2374.28	0.493	1	2back	Block4	2back/STIM_031.jpg
2377.107	0.935	1	2back	Block4	2back/STIM_031.jpg
2381.24	0.614	1	2back	Block4	2back/STIM_032.jpg
2384.613	0.567	1	2back	Block4	2back/STIM_032.jpg
2389.065	0.862	1	2back	Block4	2back/STIM_032.jpg
2393.08	0.741	1	2back	Block4	2back/STIM_033.jpg
2396.315	0.7	0	2back	Block4	2back/STIM_033.jpg
2400.026	0.493	1	2back	Block4	2back/STIM_033.jpg
2403.79	0.68	1	2back	Block4	2back/STIM_034.jpg
2407.927	0.814	1	2back	Block4	2back/STIM_034.jpg
2412.189	0.768	1	2back	Block4	2back/STIM_034.jpg
2415.195	0.784	1	2back	Block4	2back/STIM_035.jpg
2418.357	0.594	1	2back	Block4	2back/STIM_035.jpg
2422.226	0.81	1	2back	Block4	2back/STIM_035.jpg
2426.044	0.538	1	2back	Block4	2back/STIM_036.jpg
2429.202	0.502	1	2back	Block4	2back/STIM_036.jpg
2432.601	0.585	1	2back	Block4	2back/STIM_036.jpg
2436.928	1.005	1	2back	Block4	2back/STIM_037.jpg
2441.503	0.607	1	2back	Block4	2back/STIM_037.jpg
2445.26	0.421	1	2back	Block4	2back/STIM_037.jpg
2449.237	0.636	1	2back	Block4	2back/STIM_038.jpg
2453.92	0.487	1	2back	Block4	2back/STIM_038.jpg
2456.887	0.635	1	2back	Block4	2back/STIM_038.jpg
2460.736	0.718	0	2back	Block4	2back/STIM_039.jpg
2464.097	0.896	1	2back	Block4	2back/STIM_039.jpg
2468.869	0.624	1	2back	Block4	2back/STIM_039.jpg
2472.154	0.524	1	0back	Block4	0back/STIM_000.jpg
2475.888	0.827	1	0back	Block4	0back/STIM_000.jpg
2480.537	0.485	0	0back	Block4	0back/STIM_000.jpg
2484.991	0.447	1	0back	Block4	0back/STIM_001.jpg
2488.74	0.417	1	0back	Block4	0back/STIM_001.jpg
2492.036	0.522	1	0back	Block4	0back/STIM_001.jpg
2495.104	0.339	1	0back	Block4	0back/STIM_002.jpg
2498.476	0.717	1	0back	Block4	0back/STIM_002.jpg
2502.848	0.465	0	0back	Block4	0back/STIM_002.jpg
2507.083	0.454	1	0back	Block4	0back/STIM_003.jpg
2511.138	0.459	1	0back	Block4	0back/STIM_003.jpg
2515.276	0.586	1	0back	Block4	0back/STIM_003.jpg
2518.82	0.667	1	0back	Block4	0back/STIM_004.jpg
2522.235	0.521	1	0back	Block4	0back/STIM_004.jpg
2526.305	0.765	1	0back	Block4	0back/STIM_004.jpg
2529.585	0.489	0	0back	Block4	0back/STIM_005.jpg
2533.886	0.545	1	0back	Block4	0back/STIM_005.jpg
2537.861	0.625	1	0back	Block4	0back/STIM_005.jpg
2540.742	0.496	1	0back	Block4	0back/STIM_006.jpg
2544.863	0.389	1	0back	Block4	0back/STIM_006.jpg
2548.678	0.438	1	0back	Block4	0back/STIM_006.jpg
2552.157	0.728	1	0back	Block4	0back/STIM_007.jpg
2555.913	0.433	1	0back	Block4	0back/STIM_007.jpg
2559.0	0.383	1	0back	Block4	0back/STIM_007.jpg
2562.97	0.529	1	0back	Block4	0back/STIM_008.jpg
2566.752	0.585	1	0back	Block4	0back/STIM_008.jpg
2570.697	0.701	1	0back	Block4	0back/STIM_008.jpg
2574.911	0.649	1	0back	Block4	0back/STIM_009.jpg
2579.023	0.767	1	0back	Block4	0back/STIM_009.jpg
2582.801	0.65	1	0back	Block4	0back/STIM_009.jpg
2587.256	0.603	1	0back	Block4	0back/STIM_010.jpg
2590.943	0.505	0	0back	Block4	0back/STIM_010.jpg
2593.905	0.611	1	0back	Block4	0back/STIM_010.jpg
2597.532	0.459	1	0back	Block4	0back/STIM_011.jpg
2600.937	0.574	1	0back	Block4	0back/STIM_011.jpg
2604.255	0.663	1	0back	Block4	0back/STIM_011.jpg
2607.274	0.436	1	0back	Block4	0back/STIM_012.jpg
2611.456	0.664	1	0back	Block4	0back/STIM_012.jpg
2615.52	0.676	1	0back	Block4	0back/STIM_012.jpg
2618.269	0.53	1	0back	Block4	0back/STIM_013.jpg
2621.283	0.647	1	0back	Block4	0back/STIM_013.jpg
2625.17	0.586	1	0back	Block4	0back/STIM_013.jpg
2629.58	0.49	1	0back	Block4	0back/STIM_014.jpg
2632.352	0.458	1	0back	Block4	0back/STIM_014.jpg
2635.454	0.48	1	0back	Block4	0back/STIM_014.jpg
2640.028	0.659	1	0back	Block4	0back/STIM_015.jpg
2643.614	0.686	1	0back	Block4	0back/STIM_015.jpg
2647.096	0.454	1	0back	Block4	0back/STIM_015.jpg
2650.185	0.727	1	0back	Block4	0back/STIM_016.jpg
2653.283	0.525	1	0back	Block4	0back/STIM_016.jpg
2656.536	0.529	1	0back	Block4	0back/STIM_016.jpg
2659.736	0.566	1	0back	Block4	0back/STIM_017.jpg
2664.03	0.661	1	0back	Block4	0back/STIM_017.jpg
2668.525	0.449	1	0back	Block4	0back/STIM_017.jpg
2671.431	0.353	1	0back	Block4	0back/STIM_018.jpg
2673.959	0.525	1	0back	Block4	0back/STIM_018.jpg
2677.425	0.562	1	0back	Block4	0back/STIM_018.jpg
2681.455	0.571	1	0back	Block4	0back/STIM_019.jpg
2684.317	0.311	1	0back	Block4	0back/STIM_019.jpg
2687.482	0.548	1	0back	Block4	0back/STIM_019.jpg
