onset	duration	accuracy_binary	trial_type	learning_stage	stimulus
0.0	2.636	1	navigation	Trial1	navigation/STIM_000.jpg
5.849	1.507	1	navigation	Trial1	navigation/STIM_000.jpg
10.649	1.83	1	navigation	Trial1	navigation/STIM_000.jpg
16.333	2.045	0	navigation	Trial1	navigation/STIM_000.jpg
21.945	2.368	1	navigation	Trial1	navigation/STIM_000.jpg
27.823	2.736	0	navigation	Trial1	navigation/STIM_000.jpg
32.804	3.051	1	navigation	Trial1	navigation/STIM_001.jpg
38.865	2.235	1	navigation	Trial1	navigation/STIM_001.jpg
44.727	3.002	1	navigation	Trial1	navigation/STIM_001.jpg
51.001	1.462	0	navigation	Trial1	navigation/STIM_001.jpg
54.485	1.552	0	navigation	Trial1	navigation/STIM_001.jpg
59.338	2.629	1	navigation	Trial1	navigation/STIM_001.jpg
65.73	1.642	1	navigation	Trial1	navigation/STIM_002.jpg
70.973	2.588	1	navigation	Trial1	navigation/STIM_002.jpg
76.153	1.643	1	navigation	Trial1	navigation/STIM_002.jpg
81.026	2.325	1	navigation	Trial1	navigation/STIM_002.jpg
86.37	1.638	1	navigation	Trial1	navigation/STIM_002.jpg
90.987	1.564	0	navigation	Trial1	navigation/STIM_002.jpg
95.675	3.147	1	navigation	Trial1	navigation/STIM_003.jpg
101.719	3.541	0	navigation	Trial1	navigation/STIM_003.jpg
107.287	3.405	1	navigation	Trial1	navigation/STIM_003.jpg
113.179	2.281	0	navigation	Trial1	navigation/STIM_003.jpg
119.23	2.369	1	navigation	Trial1	navigation/STIM_003.jpg
124.19	2.277	1	navigation	Trial1	navigation/STIM_003.jpg
128.587	2.03	0	navigation	Trial1	navigation/STIM_004.jpg
134.129	2.848	1	navigation	Trial1	navigation/STIM_004.jpg
140.379	1.528	1	navigation	Trial1	navigation/STIM_004.jpg
144.074	1.463	1	navigation	Trial1	navigation/STIM_004.jpg
149.166	1.294	1	navigation	Trial1	navigation/STIM_004.jpg
154.09	1.777	1	navigation	Trial1	navigation/STIM_004.jpg
158.328	2.07	1	navigation	Trial1	navigation/STIM_005.jpg
163.303	3.242	1	navigation	Trial1	navigation/STIM_005.jpg
170.475	2.61	1	navigation	Trial1	navigation/STIM_005.jpg
175.762	2.697	1	navigation	Trial1	navigation/STIM_005.jpg
181.215	2.302	0	navigation	Trial1	navigation/STIM_005.jpg
186.058	1.662	1	navigation	Trial1	navigation/STIM_005.jpg
191.5	2.73	1	navigation	Trial1	navigation/STIM_006.jpg
197.167	1.642	1	navigation	Trial1	navigation/STIM_006.jpg
202.742	2.972	1	navigation	Trial1	navigation/STIM_006.jpg
209.293	2.858	1	navigation	Trial1	navigation/STIM_006.jpg
214.523	1.789	1	navigation	Trial1	navigation/STIM_006.jpg
219.641	2.086	1	navigation	Trial1	navigation/STIM_006.jpg
225.234	3.29	1	navigation	Trial1	navigation/STIM_007.jpg
231.274	3.229	0	navigation	Trial1	navigation/STIM_007.jpg
237.021	2.294	1	navigation	Trial1	navigation/STIM_007.jpg
241.51	1.475	1	navigation	Trial1	navigation/STIM_007.jpg
246.174	2.954	1	navigation	Trial1	navigation/STIM_007.jpg
251.508	1.678	1	navigation	Trial1	navigation/STIM_007.jpg
257.031	1.928	0	navigation	Trial1	navigation/STIM_008.jpg
261.954	2.669	0	navigation	Trial1	navigation/STIM_008.jpg
268.567	3.043	1	navigation	Trial1	navigation/STIM_008.jpg
273.959	2.105	0	navigation	Trial1	navigation/STIM_008.jpg
280.024	2.933	1	navigation	Trial1	navigation/STIM_008.jpg
285.365	1.269	1	navigation	Trial1	navigation/STIM_008.jpg
289.312	3.784	1	navigation	Trial1	navigation/STIM_009.jpg
296.96	3.58	1	navigation	Trial1	navigation/STIM_009.jpg
303.809	2.25	1	navigation	Trial1	navigation/STIM_009.jpg
309.95	2.613	0	navigation	Trial1	navigation/STIM_009.jpg
315.779	1.342	0	navigation	Trial1	navigation/STIM_009.jpg
319.396	1.456	1	navigation	Trial1	navigation/STIM_009.jpg
323.795	1.854	0	navigation	Trial1	navigation/STIM_010.jpg
328.169	2.121	0	navigation	Trial1	navigation/STIM_010.jpg
333.456	3.338	1	navigation	Trial1	navigation/STIM_010.jpg
339.317	1.395	1	navigation	Trial1	navigation/STIM_010.jpg
344.532	2.523	1	navigation	Trial1	navigation/STIM_010.jpg
350.961	2.202	1	navigation	Trial1	navigation/STIM_010.jpg
355.186	3.641	1	navigation	Trial1	navigation/STIM_011.jpg
362.812	3.565	1	navigation	Trial1	navigation/STIM_011.jpg
368.973	1.763	0	navigation	Trial1	navigation/STIM_011.jpg
373.878	3.108	1	navigation	Trial1	navigation/STIM_011.jpg
379.327	3.01	1	navigation	Trial1	navigation/STIM_011.jpg
384.645	2.242	1	navigation	Trial1	navigation/STIM_011.jpg
389.146	0.865	1	pointing	Trial1	pointing/STIM_000.jpg
393.804	1.022	1	pointing	Trial1	pointing/STIM_000.jpg
397.925	0.936	1	pointing	Trial1	pointing/STIM_000.jpg
402.054	0.784	1	pointing	Trial1	pointing/STIM_000.jpg
405.133	0.782	1	pointing	Trial1	pointing/STIM_000.jpg
407.939	1.002	1	pointing	Trial1	pointing/STIM_000.jpg
412.802	0.9	1	pointing	Trial1	pointing/STIM_001.jpg
416.176	0.76	1	pointing	Trial1	pointing/STIM_001.jpg
420.817	0.957	1	pointing	Trial1	pointing/STIM_001.jpg
424.718	0.997	1	pointing	Trial1	pointing/STIM_001.jpg
428.018	0.882	1	pointing	Trial1	pointing/STIM_001.jpg
431.244	0.731	1	pointing	Trial1	pointing/STIM_001.jpg
435.167	0.728	1	pointing	Trial1	pointing/STIM_002.jpg
438.757	0.766	1	pointing	Trial1	pointing/STIM_002.jpg
443.483	0.784	0	pointing	Trial1	pointing/STIM_002.jpg
446.734	0.954	1	pointing	Trial1	pointing/STIM_002.jpg
449.926	0.961	1	pointing	Trial1	pointing/STIM_002.jpg
454.011	0.72	1	pointing	Trial1	pointing/STIM_002.jpg
457.501	1.016	1	pointing	Trial1	pointing/STIM_003.jpg
461.614	0.712	1	pointing	Trial1	pointing/STIM_003.jpg
466.277	0.962	1	pointing	Trial1	pointing/STIM_003.jpg
470.503	0.859	1	pointing	Trial1	pointing/STIM_003.jpg
473.64	0.668	1	pointing	Trial1	pointing/STIM_003.jpg
477.197	0.97	1	pointing	Trial1	pointing/STIM_003.jpg
481.128	0.752	1	pointing	Trial1	pointing/STIM_004.jpg
485.452	0.773	1	pointing	Trial1	pointing/STIM_004.jpg
489.722	0.945	1	pointing	Trial1	pointing/STIM_004.jpg
493.498	0.743	1	pointing	Trial1	pointing/STIM_004.jpg
496.608	1.086	1	pointing	Trial1	pointing/STIM_004.jpg
500.233	0.816	1	pointing	Trial1	pointing/STIM_004.jpg
504.615	0.686	1	pointing	Trial1	pointing/STIM_005.jpg
508.548	0.959	1	pointing	Trial1	pointing/STIM_005.jpg
512.367	0.971	1	pointing	Trial1	pointing/STIM_005.jpg
516.196	0.946	1	pointing	Trial1	pointing/STIM_005.jpg
519.664	1.022	1	pointing	Trial1	pointing/STIM_005.jpg
522.945	1.145	1	pointing	Trial1	pointing/STIM_005.jpg
527.654	0.93	1	pointing	Trial1	pointing/STIM_006.jpg
532.214	0.981	1	pointing	Trial1	pointing/STIM_006.jpg
535.419	1.041	1	pointing	Trial1	pointing/STIM_006.jpg
539.955	0.757	1	pointing	Trial1	pointing/STIM_006.jpg
542.95	1.166	1	pointing	Trial1	pointing/STIM_006.jpg
547.207	0.653	1	pointing	Trial1	pointing/STIM_006.jpg
551.067	1.13	1	pointing	Trial1	pointing/STIM_007.jpg
554.911	1.034	1	pointing	Trial1	pointing/STIM_007.jpg
558.509	1.078	1	pointing	Trial1	pointing/STIM_007.jpg
562.098	1.135	1	pointing	Trial1	pointing/STIM_007.jpg
566.402	0.854	1	pointing	Trial1	pointing/STIM_007.jpg
569.737	1.098	0	pointing	Trial1	pointing/STIM_007.jpg
573.258	0.639	1	pointing	Trial1	pointing/STIM_008.jpg
577.851	0.92	1	pointing	Trial1	pointing/STIM_008.jpg
581.68	0.959	1	pointing	Trial1	pointing/STIM_008.jpg
586.601	0.9	1	pointing	Trial1	pointing/STIM_008.jpg
590.666	1.037	1	pointing	Trial1	pointing/STIM_008.jpg
593.876	0.785	1	pointing	Trial1	pointing/STIM_008.jpg
597.546	0.777	1	pointing	Trial1	pointing/STIM_009.jpg
601.804	0.744	1	pointing	Trial1	pointing/STIM_009.jpg
604.712	0.768	1	pointing	Trial1	pointing/STIM_009.jpg
608.652	1.166	1	pointing	Trial1	pointing/STIM_009.jpg
612.512	0.845	1	pointing	Trial1	pointing/STIM_009.jpg
617.078	0.942	1	pointing	Trial1	pointing/STIM_009.jpg
620.941	0.83	1	pointing	Trial1	pointing/STIM_010.jpg
625.376	0.798	1	pointing	Trial1	pointing/STIM_010.jpg
628.962	0.734	1	pointing	Trial1	pointing/STIM_010.jpg
631.762	0.723	1	pointing	Trial1	pointing/STIM_010.jpg
636.331	0.767	1	pointing	Trial1	pointing/STIM_010.jpg
640.651	1.136	1	pointing	Trial1	pointing/STIM_010.jpg
644.698	0.813	1	pointing	Trial1	pointing/STIM_011.jpg
647.876	0.721	1	pointing	Trial1	pointing/STIM_011.jpg
651.226	1.036	1	pointing	Trial1	pointing/STIM_011.jpg
655.391	0.948	1	pointing	Trial1	pointing/STIM_011.jpg
660.338	0.91	1	pointing	Trial1	pointing/STIM_011.jpg
663.569	0.812	1	pointing	Trial1	pointing/STIM_011.jpg
667.499	2.203	1	navigation	Trial2	navigation/STIM_000.jpg
672.927	1.658	1	navigation	Trial2	navigation/STIM_000.jpg
677.636	2.698	1	navigation	Trial2	navigation/STIM_000.jpg
683.164	2.358	1	navigation	Trial2	navigation/STIM_000.jpg
688.035	2.491	1	navigation	Trial2	navigation/STIM_000.jpg
693.83	1.19	1	navigation	Trial2	navigation/STIM_000.jpg
697.249	3.232	1	navigation	Trial2	navigation/STIM_001.jpg
703.344	1.556	1	navigation	Trial2	navigation/STIM_001.jpg
708.188	1.62	1	navigation	Trial2	navigation/STIM_001.jpg
712.249	2.218	1	navigation	Trial2	navigation/STIM_001.jpg
717.538	1.483	1	navigation	Trial2	navigation/STIM_001.jpg
722.502	1.806	1	navigation	Trial2	navigation/STIM_001.jpg
726.801	3.196	1	navigation	Trial2	navigation/STIM_002.jpg
732.378	2.895	1	navigation	Trial2	navigation/STIM_002.jpg
739.233	2.623	1	navigation	Trial2	navigation/STIM_002.jpg
744.851	2.08	1	navigation	Trial2	navigation/STIM_002.jpg
750.856	1.81	1	navigation	Trial2	navigation/STIM_002.jpg
755.032	1.657	1	navigation	Trial2	navigation/STIM_002.jpg
759.893	1.809	1	navigation	Trial2	navigation/STIM_003.jpg
763.912	2.61	1	navigation	Trial2	navigation/STIM_003.jpg
770.091	1.325	1	navigation	Trial2	navigation/STIM_003.jpg
774.391	2.181	0	navigation	Trial2	navigation/STIM_003.jpg
779.955	1.786	1	navigation	Trial2	navigation/STIM_003.jpg
783.991	2.298	1	navigation	Trial2	navigation/STIM_003.jpg
789.739	2.553	0	navigation	Trial2	navigation/STIM_004.jpg
795.118	1.452	1	navigation	Trial2	navigation/STIM_004.jpg
799.669	2.513	1	navigation	Trial2	navigation/STIM_004.jpg
804.236	2.259	1	navigation	Trial2	navigation/STIM_004.jpg
809.091	2.202	1	navigation	Trial2	navigation/STIM_004.jpg
814.922	2.032	1	navigation	Trial2	navigation/STIM_004.jpg
820.236	2.011	1	navigation	Trial2	navigation/STIM_005.jpg
824.756	2.923	1	navigation	Trial2	navigation/STIM_005.jpg
830.781	2.176	1	navigation	Trial2	navigation/STIM_005.jpg
835.934	2.443	1	navigation	Trial2	navigation/STIM_005.jpg
841.472	1.921	0	navigation	Trial2	navigation/STIM_005.jpg
846.502	1.098	1	navigation	Trial2	navigation/STIM_005.jpg
850.15	1.78	1	navigation	Trial2	navigation/STIM_006.jpg
854.02	2.837	1	navigation	Trial2	navigation/STIM_006.jpg
859.845	1.601	1	navigation	Trial2	navigation/STIM_006.jpg
863.939	1.908	1	navigation	Trial2	navigation/STIM_006.jpg
868.097	1.458	1	navigation	Trial2	navigation/STIM_006.jpg
871.83	1.42	1	navigation	Trial2	navigation/STIM_006.jpg
877.098	2.517	0	navigation	Trial2	navigation/STIM_007.jpg
883.274	1.485	1	navigation	Trial2	navigation/STIM_007.jpg
887.317	1.53	1	navigation	Trial2	navigation/STIM_007.jpg
891.929	2.549	1	navigation	Trial2	navigation/STIM_007.jpg
896.622	1.189	1	navigation	Trial2	navigation/STIM_007.jpg
900.25	1.786	1	navigation	Trial2	navigation/STIM_007.jpg
905.704	2.451	1	navigation	Trial2	navigation/STIM_008.jpg
910.691	2.339	0	navigation	Trial2	navigation/STIM_008.jpg
916.707	2.085	1	navigation	Trial2	navigation/STIM_008.jpg
921.213	2.059	1	navigation	Trial2	navigation/STIM_008.jpg
925.88	2.198	1	navigation	Trial2	navigation/STIM_008.jpg
931.151	2.294	1	navigation	Trial2	navigation/STIM_008.jpg
936.877	3.149	1	navigation	Trial2	navigation/STIM_009.jpg
942.917	3.117	0	navigation	Trial2	navigation/STIM_009.jpg
949.123	1.344	1	navigation	Trial2	navigation/STIM_009.jpg
954.108	1.652	1	navigation	Trial2	navigation/STIM_009.jpg
958.539	2.269	1	navigation	Trial2	navigation/STIM_009.jpg
963.978	2.263	1	navigation	Trial2	navigation/STIM_009.jpg
969.517	2.399	1	navigation	Trial2	navigation/STIM_010.jpg
974.335	1.98	0	navigation	Trial2	navigation/STIM_010.jpg
979.989	1.728	1	navigation	Trial2	navigation/STIM_010.jpg
983.718	1.116	1	navigation	Trial2	navigation/STIM_010.jpg
987.943	2.522	1	navigation	Trial2	navigation/STIM_010.jpg
993.741	2.415	1	navigation	Trial2	navigation/STIM_010.jpg
999.325	2.614	0	navigation	Trial2	navigation/STIM_011.jpg
1004.549	1.431	1	navigation	Trial2	navigation/STIM_011.jpg
1008.745	2.123	0	navigation	Trial2	navigation/STIM_011.jpg
1014.712	1.777	1	navigation	Trial2	navigation/STIM_011.jpg
1018.759	1.677	1	navigation	Trial2	navigation/STIM_011.jpg
1023.405	1.252	1	navigation	Trial2	navigation/STIM_011.jpg
1026.82	0.696	1	pointing	Trial2	pointing/STIM_000.jpg
1030.781	0.817	1	pointing	Trial2	pointing/STIM_000.jpg
1035.261	0.906	1	pointing	Trial2	pointing/STIM_000.jpg
1039.719	1.156	1	pointing	Trial2	pointing/STIM_000.jpg
1043.321	0.651	1	pointing	Trial2	pointing/STIM_000.jpg
1047.487	0.822	1	pointing	Trial2	pointing/STIM_000.jpg
1051.292	0.871	1	pointing	Trial2	pointing/STIM_001.jpg
1055.997	0.982	1	pointing	Trial2	pointing/STIM_001.jpg
1060.506	0.915	1	pointing	Trial2	pointing/STIM_001.jpg
1064.955	0.955	1	pointing	Trial2	pointing/STIM_001.jpg
1068.201	1.072	1	pointing	Trial2	pointing/STIM_001.jpg
1072.883	1.062	1	pointing	Trial2	pointing/STIM_001.jpg
1076.865	0.964	1	pointing	Trial2	pointing/STIM_002.jpg
1080.398	1.017	1	pointing	Trial2	pointing/STIM_002.jpg
1083.805	1.07	1	pointing	Trial2	pointing/STIM_002.jpg
1088.275	0.834	1	pointing	Trial2	pointing/STIM_002.jpg
1091.436	1.076	1	pointing	Trial2	pointing/STIM_002.jpg
1095.667	1.056	1	pointing	Trial2	pointing/STIM_002.jpg
1098.745	0.846	1	pointing	Trial2	pointing/STIM_003.jpg
1103.566	1.096	1	pointing	Trial2	pointing/STIM_003.jpg
1107.742	0.948	1	pointing	Trial2	pointing/STIM_003.jpg
1112.24	1.121	1	pointing	Trial2	pointing/STIM_003.jpg
1115.912	0.881	1	pointing	Trial2	pointing/STIM_003.jpg
1119.829	0.945	1	pointing	Trial2	pointing/STIM_003.jpg
1123.435	0.687	1	pointing	Trial2	pointing/STIM_004.jpg
1126.862	0.978	1	pointing	Trial2	pointing/STIM_004.jpg
1129.956	0.954	1	pointing	Trial2	pointing/STIM_004.jpg
1134.555	0.732	1	pointing	Trial2	pointing/STIM_004.jpg
1138.991	1.047	1	pointing	Trial2	pointing/STIM_004.jpg
1142.36	0.661	1	pointing	Trial2	pointing/STIM_004.jpg
1146.542	0.639	1	pointing	Trial2	pointing/STIM_005.jpg
1150.13	1.108	1	pointing	Trial2	pointing/STIM_005.jpg
1154.309	0.64	1	pointing	Trial2	pointing/STIM_005.jpg
1158.946	0.695	1	pointing	Trial2	pointing/STIM_005.jpg
1162.777	1.134	1	pointing	Trial2	pointing/STIM_005.jpg
1166.403	0.641	1	pointing	Trial2	pointing/STIM_005.jpg
1169.697	1.139	1	pointing	Trial2	pointing/STIM_006.jpg
1174.69	0.716	0	pointing	Trial2	pointing/STIM_006.jpg
1178.334	0.731	1	pointing	Trial2	pointing/STIM_006.jpg
1182.99	0.766	1	pointing	Trial2	pointing/STIM_006.jpg
1187.427	0.737	1	pointing	Trial2	pointing/STIM_006.jpg
1191.739	1.07	1	pointing	Trial2	pointing/STIM_006.jpg
1196.132	0.914	1	pointing	Trial2	pointing/STIM_007.jpg
1200.749	0.732	1	pointing	Trial2	pointing/STIM_007.jpg
1204.707	0.754	1	pointing	Trial2	pointing/STIM_007.jpg
1208.61	1.062	1	pointing	Trial2	pointing/STIM_007.jpg
1213.054	0.958	1	pointing	Trial2	pointing/STIM_007.jpg
1217.103	1.076	1	pointing	Trial2	pointing/STIM_007.jpg
1221.121	0.998	1	pointing	Trial2	pointing/STIM_008.jpg
1224.16	0.857	1	pointing	Trial2	pointing/STIM_008.jpg
1227.275	0.726	1	pointing	Trial2	pointing/STIM_008.jpg
1230.203	1.096	1	pointing	Trial2	pointing/STIM_008.jpg
1233.836	0.919	1	pointing	Trial2	pointing/STIM_008.jpg
1237.294	1.06	1	pointing	Trial2	pointing/STIM_008.jpg
1241.172	0.917	0	pointing	Trial2	pointing/STIM_009.jpg
1245.12	0.933	1	pointing	Trial2	pointing/STIM_009.jpg
1248.391	1.076	1	pointing	Trial2	pointing/STIM_009.jpg
1253.072	0.743	1	pointing	Trial2	pointing/STIM_009.jpg
1255.881	1.106	1	pointing	Trial2	pointing/STIM_009.jpg
1259.398	1.011	1	pointing	Trial2	pointing/STIM_009.jpg
1263.145	1.131	1	pointing	Trial2	pointing/STIM_010.jpg
1267.163	0.665	1	pointing	Trial2	pointing/STIM_010.jpg
1271.297	0.939	1	pointing	Trial2	pointing/STIM_010.jpg
1275.676	0.962	1	pointing	Trial2	pointing/STIM_010.jpg
1279.017	0.745	0	pointing	Trial2	pointing/STIM_010.jpg
1283.5	0.748	0	pointing	Trial2	pointing/STIM_010.jpg
1287.415	1.083	1	pointing	Trial2	pointing/STIM_011.jpg
1291.046	1.109	1	pointing	Trial2	pointing/STIM_011.jpg
1295.699	0.817	1	pointing	Trial2	pointing/STIM_011.jpg
1300.246	1.044	1	pointing	Trial2	pointing/STIM_011.jpg
1304.685	0.863	1	pointing	Trial2	pointing/STIM_011.jpg
1307.554	1.037	1	pointing	Trial2	pointing/STIM_011.jpg
1312.186	1.735	1	navigation	Trial3	navigation/STIM_000.jpg
1317.393	2.305	1	navigation	Trial3	navigation/STIM_000.jpg
1323.246	1.398	1	navigation	Trial3	navigation/STIM_000.jpg
1326.867	1.23	1	navigation	Trial3	navigation/STIM_000.jpg
1330.563	1.322	1	navigation	Trial3	navigation/STIM_000.jpg
1335.306	2.592	1	navigation	Trial3	navigation/STIM_000.jpg
1340.586	1.163	1	navigation	Trial3	navigation/STIM_001.jpg
1345.07	1.403	1	navigation	Trial3	navigation/STIM_001.jpg
1349.781	1.172	1	navigation	Trial3	navigation/STIM_001.jpg
1353.2	2.394	1	navigation	Trial3	navigation/STIM_001.jpg
1358.899	1.317	1	navigation	Trial3	navigation/STIM_001.jpg
1363.383	2.268	1	navigation	Trial3	navigation/STIM_001.jpg
1368.932	1.224	1	navigation	Trial3	navigation/STIM_002.jpg
1372.616	1.826	1	navigation	Trial3	navigation/STIM_002.jpg
1377.927	2.259	1	navigation	Trial3	navigation/STIM_002.jpg
1382.252	1.599	1	navigation	Trial3	navigation/STIM_002.jpg
1386.954	1.999	0	navigation	Trial3	navigation/STIM_002.jpg
1391.69	2.69	1	navigation	Trial3	navigation/STIM_002.jpg
1397.74	2.424	1	navigation	Trial3	navigation/STIM_003.jpg
1403.336	2.347	1	navigation	Trial3	navigation/STIM_003.jpg
1408.88	1.347	1	navigation	Trial3	navigation/STIM_003.jpg
1413.622	1.42	1	navigation	Trial3	navigation/STIM_003.jpg
1419.022	2.64	1	navigation	Trial3	navigation/STIM_003.jpg
1423.797	1.225	1	navigation	Trial3	navigation/STIM_003.jpg
1427.385	2.725	1	navigation	Trial3	navigation/STIM_004.jpg
1433.773	1.464	1	navigation	Trial3	navigation/STIM_004.jpg
1439.062	2.004	1	navigation	Trial3	navigation/STIM_004.jpg
1443.935	2.725	1	navigation	Trial3	navigation/STIM_004.jpg
1449.759	2.128	1	navigation	Trial3	navigation/STIM_004.jpg
1454.088	2.359	1	navigation	Trial3	navigation/STIM_004.jpg
1460.027	1.68	1	navigation	Trial3	navigation/STIM_005.jpg
1464.312	1.644	1	navigation	Trial3	navigation/STIM_005.jpg
1468.824	2.188	1	navigation	Trial3	navigation/STIM_005.jpg
1473.813	2.568	1	navigation	Trial3	navigation/STIM_005.jpg
1478.847	2.03	1	navigation	Trial3	navigation/STIM_005.jpg
1484.82	2.398	1	navigation	Trial3	navigation/STIM_005.jpg
1490.322	1.685	0	navigation	Trial3	navigation/STIM_006.jpg
1494.609	1.143	1	navigation	Trial3	navigation/STIM_006.jpg
1499.099	1.241	1	navigation	Trial3	navigation/STIM_006.jpg
1502.85	2.436	1	navigation	Trial3	navigation/STIM_006.jpg
1509.042	2.59	1	navigation	Trial3	navigation/STIM_006.jpg
1514.85	2.418	1	navigation	Trial3	navigation/STIM_006.jpg
1519.661	1.702	1	navigation	Trial3	navigation/STIM_007.jpg
1525.002	1.992	1	navigation	Trial3	navigation/STIM_007.jpg
1530.966	1.985	1	navigation	Trial3	navigation/STIM_007.jpg
1534.99	2.279	1	navigation	Trial3	navigation/STIM_007.jpg
1539.306	2.065	1	navigation	Trial3	navigation/STIM_007.jpg
1544.452	1.719	0	navigation	Trial3	navigation/STIM_007.jpg
1548.423	2.157	1	navigation	Trial3	navigation/STIM_008.jpg
1552.746	1.804	1	navigation	Trial3	navigation/STIM_008.jpg
1558.023	2.652	1	navigation	Trial3	navigation/STIM_008.jpg
1563.328	1.129	1	navigation	Trial3	navigation/STIM_008.jpg
1567.991	2.571	1	navigation	Trial3	navigation/STIM_008.jpg
1573.055	2.58	1	navigation	Trial3	navigation/STIM_008.jpg
1578.667	1.418	1	navigation	Trial3	navigation/STIM_009.jpg
1583.379	1.288	1	navigation	Trial3	navigation/STIM_009.jpg
1587.631	2.108	1	navigation	Trial3	navigation/STIM_009.jpg
1593.568	1.455	1	navigation	Trial3	navigation/STIM_009.jpg
1597.91	1.663	1	navigation	Trial3	navigation/STIM_009.jpg
1602.396	2.257	1	navigation	Trial3	navigation/STIM_009.jpg
1607.903	1.39	1	navigation	Trial3	navigation/STIM_010.jpg
1611.462	2.019	1	navigation	Trial3	navigation/STIM_010.jpg
1616.836	1.255	1	navigation	Trial3	navigation/STIM_010.jpg
1621.374	1.24	1	navigation	Trial3	navigation/STIM_010.jpg
1625.433	1.244	1	navigation	Trial3	navigation/STIM_010.jpg
1629.545	2.102	1	navigation	Trial3	navigation/STIM_010.jpg
1634.886	1.788	1	navigation	Trial3	navigation/STIM_011.jpg
1639.042	2.39	1	navigation	Trial3	navigation/STIM_011.jpg
1643.899	2.462	0	navigation	Trial3	navigation/STIM_011.jpg
1648.407	2.34	1	navigation	Trial3	navigation/STIM_011.jpg
1653.027	1.558	1	navigation	Trial3	navigation/STIM_011.jpg
1656.804	2.576	1	navigation	Trial3	navigation/STIM_011.jpg
1663.192	0.903	0	pointing	Trial3	pointing/STIM_000.jpg
1666.469	0.682	1	pointing	Trial3	pointing/STIM_000.jpg
1670.162	0.941	1	pointing	Trial3	pointing/STIM_000.jpg
1674.756	1.098	1	pointing	Trial3	pointing/STIM_000.jpg
1678.318	0.686	1	pointing	Trial3	pointing/STIM_000.jpg
1682.049	0.832	1	pointing	Trial3	pointing/STIM_000.jpg
1686.24	1.146	1	pointing	Trial3	pointing/STIM_001.jpg
1689.837	1.15	1	pointing	Trial3	pointing/STIM_001.jpg
1693.755	1.141	1	pointing	Trial3	pointing/STIM_001.jpg
1698.811	0.779	1	pointing	Trial3	pointing/STIM_001.jpg
1702.359	0.861	1	pointing	Trial3	pointing/STIM_001.jpg
1706.982	1.107	1	pointing	Trial3	pointing/STIM_001.jpg
1711.758	1.114	1	pointing	Trial3	pointing/STIM_002.jpg
1715.109	0.93	1	pointing	Trial3	pointing/STIM_002.jpg
1718.525	0.693	1	pointing	Trial3	pointing/STIM_002.jpg
1722.63	1.053	1	pointing	Trial3	pointing/STIM_002.jpg
1727.37	0.987	1	pointing	Trial3	pointing/STIM_002.jpg
1730.809	0.649	1	pointing	Trial3	pointing/STIM_002.jpg
1735.254	0.676	1	pointing	Trial3	pointing/STIM_003.jpg
1739.085	1.015	1	pointing	Trial3	pointing/STIM_003.jpg
1742.914	0.979	1	pointing	Trial3	pointing/STIM_003.jpg
1746.726	0.687	1	pointing	Trial3	pointing/STIM_003.jpg
1751.041	0.946	1	pointing	Trial3	pointing/STIM_003.jpg
1755.735	0.913	1	pointing	Trial3	pointing/STIM_003.jpg
1760.401	0.746	1	pointing	Trial3	pointing/STIM_004.jpg
1763.676	0.798	1	pointing	Trial3	pointing/STIM_004.jpg
1767.361	1.132	1	pointing	Trial3	pointing/STIM_004.jpg
1772.134	0.799	1	pointing	Trial3	pointing/STIM_004.jpg
1775.235	0.992	1	pointing	Trial3	pointing/STIM_004.jpg
1780.152	1.096	1	pointing	Trial3	pointing/STIM_004.jpg
1784.091	0.774	1	pointing	Trial3	pointing/STIM_005.jpg
1788.641	0.763	1	pointing	Trial3	pointing/STIM_005.jpg
1791.915	0.831	0	pointing	Trial3	pointing/STIM_005.jpg
1796.435	1.034	1	pointing	Trial3	pointing/STIM_005.jpg
1800.635	1.123	1	pointing	Trial3	pointing/STIM_005.jpg
1804.865	0.915	0	pointing	Trial3	pointing/STIM_005.jpg
1809.154	1.029	1	pointing	Trial3	pointing/STIM_006.jpg
1813.52	0.871	1	pointing	Trial3	pointing/STIM_006.jpg
1816.426	0.941	1	pointing	Trial3	pointing/STIM_006.jpg
1820.258	0.977	1	pointing	Trial3	pointing/STIM_006.jpg
1824.241	0.998	1	pointing	Trial3	pointing/STIM_006.jpg
1827.927	0.815	1	pointing	Trial3	pointing/STIM_006.jpg
1831.415	0.937	1	pointing	Trial3	pointing/STIM_007.jpg
1834.541	0.969	1	pointing	Trial3	pointing/STIM_007.jpg
1838.493	0.651	1	pointing	Trial3	pointing/STIM_007.jpg
1842.942	0.996	1	pointing	Trial3	pointing/STIM_007.jpg
1847.228	0.665	1	pointing	Trial3	pointing/STIM_007.jpg
1851.438	0.966	1	pointing	Trial3	pointing/STIM_007.jpg
1855.869	0.752	1	pointing	Trial3	pointing/STIM_008.jpg
1858.716	0.959	1	pointing	Trial3	pointing/STIM_008.jpg
1863.177	1.164	1	pointing	Trial3	pointing/STIM_008.jpg
1868.034	0.907	1	pointing	Trial3	pointing/STIM_008.jpg
1872.213	1.097	1	pointing	Trial3	pointing/STIM_008.jpg
1877.162	0.624	1	pointing	Trial3	pointing/STIM_008.jpg
1881.189	1.001	1	pointing	Trial3	pointing/STIM_009.jpg
1885.799	1.114	1	pointing	Trial3	pointing/STIM_009.jpg
1890.394	0.915	1	pointing	Trial3	pointing/STIM_009.jpg
1893.396	0.707	1	pointing	Trial3	pointing/STIM_009.jpg
1897.188	0.936	1	pointing	Trial3	pointing/STIM_009.jpg
1901.514	0.67	1	pointing	Trial3	pointing/STIM_009.jpg
1905.051	0.637	1	pointing	Trial3	pointing/STIM_010.jpg
1909.443	1.084	1	pointing	Trial3	pointing/STIM_010.jpg
1912.99	0.864	1	pointing	Trial3	pointing/STIM_010.jpg
1917.108	0.696	1	pointing	Trial3	pointing/STIM_010.jpg
1921.091	0.634	1	pointing	Trial3	pointing/STIM_010.jpg
1924.537	0.798	1	pointing	Trial3	pointing/STIM_010.jpg
1927.615	0.818	1	pointing	Trial3	pointing/STIM_011.jpg
1931.168	1.045	1	pointing	Trial3	pointing/STIM_011.jpg
1935.435	0.859	1	pointing	Trial3	pointing/STIM_011.jpg
1939.512	1.096	1	pointing	Trial3	pointing/STIM_011.jpg
1942.711	0.782	1	pointing	Trial3	pointing/STIM_011.jpg
1945.608	0.752	1	pointing	Trial3	pointing/STIM_011.jpg
