onset	duration	response_time_ms	trial_type	learning_stage	stimulus	response_port
0.0	2.636	2635.5	navigation	Trial1	navigation/STIM_000.jpg	99
5.849	1.507	1506.7	navigation	Trial1	navigation/STIM_000.jpg	99
10.649	1.83	1830.0	navigation	Trial1	navigation/STIM_000.jpg	99
16.333	2.045	2045.2	navigation	Trial1	navigation/STIM_000.jpg	100
21.945	2.368	2367.9	navigation	Trial1	navigation/STIM_000.jpg	99
27.823	2.736	2735.8	navigation	Trial1	navigation/STIM_000.jpg	100
32.804	3.051	3051.2	navigation	Trial1	navigation/STIM_001.jpg	99
38.865	2.235	2235.1	navigation	Trial1	navigation/STIM_001.jpg	100
44.727	3.002	3002.1	navigation	Trial1	navigation/STIM_001.jpg	100
51.001	1.462	1462.0	navigation	Trial1	navigation/STIM_001.jpg	99
54.485	1.552	1552.4	navigation	Trial1	navigation/STIM_001.jpg	100
59.338	2.629	2629.3	navigation	Trial1	navigation/STIM_001.jpg	100
65.73	1.642	1641.5	navigation	Trial1	navigation/STIM_002.jpg	100
70.973	2.588	2587.6	navigation	Trial1	navigation/STIM_002.jpg	100
76.153	1.643	1643.1	navigation	Trial1	navigation/STIM_002.jpg	100
81.026	2.325	2324.8	navigation	Trial1	navigation/STIM_002.jpg	100
86.37	1.638	1637.7	navigation	Trial1	navigation/STIM_002.jpg	100
90.987	1.564	1563.9	navigation	Trial1	navigation/STIM_002.jpg	99
95.675	3.147	3146.8	navigation	Trial1	navigation/STIM_003.jpg	99
101.719	3.541	3540.6	navigation	Trial1	navigation/STIM_003.jpg	100
107.287	3.405	3405.0	navigation	Trial1	navigation/STIM_003.jpg	100
113.179	2.281	2280.7	navigation	Trial1	navigation/STIM_003.jpg	99
119.23	2.369	2368.9	navigation	Trial1	navigation/STIM_003.jpg	100
124.19	2.277	2277.0	navigation	Trial1	navigation/STIM_003.jpg	99
128.587	2.03	2030.4	navigation	Trial1	navigation/STIM_004.jpg	99
134.129	2.848	2848.0	navigation	Trial1	navigation/STIM_004.jpg	100
140.379	1.528	1528.1	navigation	Trial1	navigation/STIM_004.jpg	99
144.074	1.463	1463.0	navigation	Trial1	navigation/STIM_004.jpg	100
149.166	1.294	1293.7	navigation	Trial1	navigation/STIM_004.jpg	100
154.09	1.777	1777.4	navigation	Trial1	navigation/STIM_004.jpg	99
158.328	2.07	2069.7	navigation	Trial1	navigation/STIM_005.jpg	99
163.303	3.242	3242.0	navigation	Trial1	navigation/STIM_005.jpg	100
170.475	2.61	2609.9	navigation	Trial1	navigation/STIM_005.jpg	100
175.762	2.697	2697.0	navigation	Trial1	navigation/STIM_005.jpg	99
181.215	2.302	2302.1	navigation	Trial1	navigation/STIM_005.jpg	99
186.058	1.662	1662.3	navigation	Trial1	navigation/STIM_005.jpg	99
191.5	2.73	2730.1	navigation	Trial1	navigation/STIM_006.jpg	100
197.167	1.642	1641.7	navigation	Trial1	navigation/STIM_006.jpg	100
202.742	2.972	2971.7	navigation	Trial1	navigation/STIM_006.jpg	100
209.293	2.858	2858.2	navigation	Trial1	navigation/STIM_006.jpg	99
214.523	1.789	1789.2	navigation	Trial1	navigation/STIM_006.jpg	100
219.641	2.086	2085.5	navigation	Trial1	navigation/STIM_006.jpg	100
225.234	3.29	3290.1	navigation	Trial1	navigation/STIM_007.jpg	99
231.274	3.229	3228.8	navigation	Trial1	navigation/STIM_007.jpg	100
237.021	2.294	2294.2	navigation	Trial1	navigation/STIM_007.jpg	100
241.51	1.475	1475.4	navigation	Trial1	navigation/STIM_007.jpg	100
246.174	2.954	2954.2	navigation	Trial1	navigation/STIM_007.jpg	99
251.508	1.678	1677.7	navigation	Trial1	navigation/STIM_007.jpg	100
257.031	1.928	1928.1	navigation	Trial1	navigation/STIM_008.jpg	99
261.954	2.669	2668.8	navigation	Trial1	navigation/STIM_008.jpg	99
268.567	3.043	3042.6	navigation	Trial1	navigation/STIM_008.jpg	100
273.959	2.105	2104.6	navigation	Trial1	navigation/STIM_008.jpg	99
280.024	2.933	2932.9	navigation	Trial1	navigation/STIM_008.jpg	100
285.365	1.269	1268.7	navigation	Trial1	navigation/STIM_008.jpg	100
289.312	3.784	3784.3	navigation	Trial1	navigation/STIM_009.jpg	100
296.96	3.58	3580.3	navigation	Trial1	navigation/STIM_009.jpg	99
303.809	2.25	2250.1	navigation	Trial1	navigation/STIM_009.jpg	99
309.95	2.613	2612.7	navigation	Trial1	navigation/STIM_009.jpg	100
315.779	1.342	1342.3	navigation	Trial1	navigation/STIM_009.jpg	100
319.396	1.456	1456.0	navigation	Trial1	navigation/STIM_009.jpg	99
323.795	1.854	1854.5	navigation	Trial1	navigation/STIM_010.jpg	100
328.169	2.121	2121.0	navigation	Trial1	navigation/STIM_010.jpg	99
333.456	3.338	3337.8	navigation	Trial1	navigation/STIM_010.jpg	100
339.317	1.395	1394.6	navigation	Trial1	navigation/STIM_010.jpg	100
344.532	2.523	2523.3	navigation	Trial1	navigation/STIM_010.jpg	99
350.961	2.202	2202.1	navigation	Trial1	navigation/STIM_010.jpg	99
355.186	3.641	3641.0	navigation	Trial1	navigation/STIM_011.jpg	100
362.812	3.565	3565.4	navigation	Trial1	navigation/STIM_011.jpg	100
368.973	1.763	1763.1	navigation	Trial1	navigation/STIM_011.jpg	99
373.878	3.108	3108.2	navigation	Trial1	navigation/STIM_011.jpg	100
379.327	3.01	3010.5	navigation	Trial1	navigation/STIM_011.jpg	100
384.645	2.242	2241.6	navigation	Trial1	navigation/STIM_011.jpg	100
389.146	0.865	865.4	pointing	Trial1	pointing/STIM_000.jpg	100
393.804	1.022	1022.2	pointing	Trial1	pointing/STIM_000.jpg	100
397.925	0.936	935.8	pointing	Trial1	pointing/STIM_000.jpg	99
402.054	0.784	784.3	pointing	Trial1	pointing/STIM_000.jpg	100
405.133	0.782	782.4	pointing	Trial1	pointing/STIM_000.jpg	99
407.939	1.002	1001.9	pointing	Trial1	pointing/STIM_000.jpg	100
412.802	0.9	900.1	pointing	Trial1	pointing/STIM_001.jpg	99
416.176	0.76	759.7	pointing	Trial1	pointing/STIM_001.jpg	100
420.817	0.957	957.0	pointing	Trial1	pointing/STIM_001.jpg	100
424.718	0.997	996.8	pointing	Trial1	pointing/STIM_001.jpg	100
428.018	0.882	881.7	pointing	Trial1	pointing/STIM_001.jpg	99
431.244	0.731	731.4	pointing	Trial1	pointing/STIM_001.jpg	99
435.167	0.728	727.7	pointing	Trial1	pointing/STIM_002.jpg	100
438.757	0.766	766.1	pointing	Trial1	pointing/STIM_002.jpg	99
443.483	0.784	784.5	pointing	Trial1	pointing/STIM_002.jpg	100
446.734	0.954	953.8	pointing	Trial1	pointing/STIM_002.jpg	99
449.926	0.961	961.0	pointing	Trial1	pointing/STIM_002.jpg	99
454.011	0.72	720.4	pointing	Trial1	pointing/STIM_002.jpg	100
457.501	1.016	1015.8	pointing	Trial1	pointing/STIM_003.jpg	100
461.614	0.712	712.3	pointing	Trial1	pointing/STIM_003.jpg	100
466.277	0.962	961.6	pointing	Trial1	pointing/STIM_003.jpg	100
470.503	0.859	858.9	pointing	Trial1	pointing/STIM_003.jpg	100
473.64	0.668	668.5	pointing	Trial1	pointing/STIM_003.jpg	100
477.197	0.97	969.9	pointing	Trial1	pointing/STIM_003.jpg	99
481.128	0.752	752.5	pointing	Trial1	pointing/STIM_004.jpg	99
485.452	0.773	772.8	pointing	Trial1	pointing/STIM_004.jpg	99
489.722	0.945	945.1	pointing	Trial1	pointing/STIM_004.jpg	100
493.498	0.743	743.2	pointing	Trial1	pointing/STIM_004.jpg	99
496.608	1.086	1086.1	pointing	Trial1	pointing/STIM_004.jpg	99
500.233	0.816	816.2	pointing	Trial1	pointing/STIM_004.jpg	99
504.615	0.686	686.1	pointing	Trial1	pointing/STIM_005.jpg	99
508.548	0.959	959.2	pointing	Trial1	pointing/STIM_005.jpg	99
512.367	0.971	971.0	pointing	Trial1	pointing/STIM_005.jpg	99
516.196	0.946	945.7	pointing	Trial1	pointing/STIM_005.jpg	99
519.664	1.022	1022.5	pointing	Trial1	pointing/STIM_005.jpg	99
522.945	1.145	1145.3	pointing	Trial1	pointing/STIM_005.jpg	99
527.654	0.93	930.0	pointing	Trial1	pointing/STIM_006.jpg	100
532.214	0.981	981.4	pointing	Trial1	pointing/STIM_006.jpg	99
535.419	1.041	1040.6	pointing	Trial1	pointing/STIM_006.jpg	100
539.955	0.757	756.9	pointing	Trial1	pointing/STIM_006.jpg	100
542.95	1.166	1166.1	pointing	Trial1	pointing/STIM_006.jpg	100
547.207	0.653	653.2	pointing	Trial1	pointing/STIM_006.jpg	99
551.067	1.13	1130.5	pointing	Trial1	pointing/STIM_007.jpg	100
554.911	1.034	1034.0	pointing	Trial1	pointing/STIM_007.jpg	99
558.509	1.078	1078.2	pointing	Trial1	pointing/STIM_007.jpg	100
562.098	1.135	1135.0	pointing	Trial1	pointing/STIM_007.jpg	99
566.402	0.854	853.9	pointing	Trial1	pointing/STIM_007.jpg	100
569.737	1.098	1098.2	pointing	Trial1	pointing/STIM_007.jpg	100
573.258	0.639	639.3	pointing	Trial1	pointing/STIM_008.jpg	99
577.851	0.92	920.3	pointing	Trial1	pointing/STIM_008.jpg	100
581.68	0.959	958.7	pointing	Trial1	pointing/STIM_008.jpg	99
586.601	0.9	900.3	pointing	Trial1	pointing/STIM_008.jpg	100
590.666	1.037	1037.3	pointing	Trial1	pointing/STIM_008.jpg	99
593.876	0.785	784.6	pointing	Trial1	pointing/STIM_008.jpg	99
597.546	0.777	777.2	pointing	Trial1	pointing/STIM_009.jpg	99
601.804	0.744	744.5	pointing	Trial1	pointing/STIM_009.jpg	100
604.712	0.768	767.7	pointing	Trial1	pointing/STIM_009.jpg	99
608.652	1.166	1166.1	pointing	Trial1	pointing/STIM_009.jpg	100
612.512	0.845	844.9	pointing	Trial1	pointing/STIM_009.jpg	99
617.078	0.942	942.2	pointing	Trial1	pointing/STIM_009.jpg	99
620.941	0.83	829.8	pointing	Trial1	pointing/STIM_010.jpg	100
625.376	0.798	798.4	pointing	Trial1	pointing/STIM_010.jpg	99
628.962	0.734	734.1	pointing	Trial1	pointing/STIM_010.jpg	99
631.762	0.723	723.2	pointing	Trial1	pointing/STIM_010.jpg	99
636.331	0.767	766.8	pointing	Trial1	pointing/STIM_010.jpg	99
640.651	1.136	1136.5	pointing	Trial1	pointing/STIM_010.jpg	100
644.698	0.813	812.9	pointing	Trial1	pointing/STIM_011.jpg	99
647.876	0.721	720.9	pointing	Trial1	pointing/STIM_011.jpg	100
651.226	1.036	1036.1	pointing	Trial1	pointing/STIM_011.jpg	100
655.391	0.948	948.2	pointing	Trial1	pointing/STIM_011.jpg	100
660.338	0.91	909.6	pointing	Trial1	pointing/STIM_011.jpg	100
663.569	0.812	812.2	pointing	Trial1	pointing/STIM_011.jpg	100
667.499	2.203	2203.3	navigation	Trial2	navigation/STIM_000.jpg	100
672.927	1.658	1657.8	navigation	Trial2	navigation/STIM_000.jpg	100
677.636	2.698	2697.6	navigation	Trial2	navigation/STIM_000.jpg	100
683.164	2.358	2358.4	navigation	Trial2	navigation/STIM_000.jpg	100
688.035	2.491	2491.3	navigation	Trial2	navigation/STIM_000.jpg	99
693.83	1.19	1189.9	navigation	Trial2	navigation/STIM_000.jpg	99
697.249	3.232	3231.5	navigation	Trial2	navigation/STIM_001.jpg	99
703.344	1.556	1556.3	navigation	Trial2	navigation/STIM_001.jpg	100
708.188	1.62	1620.5	navigation	Trial2	navigation/STIM_001.jpg	99
712.249	2.218	2217.5	navigation	Trial2	navigation/STIM_001.jpg	99
717.538	1.483	1482.9	navigation	Trial2	navigation/STIM_001.jpg	100
722.502	1.806	1805.6	navigation	Trial2	navigation/STIM_001.jpg	100
726.801	3.196	3196.2	navigation	Trial2	navigation/STIM_002.jpg	99
732.378	2.895	2895.2	navigation	Trial2	navigation/STIM_002.jpg	99
739.233	2.623	2623.3	navigation	Trial2	navigation/STIM_002.jpg	100
744.851	2.08	2080.0	navigation	Trial2	navigation/STIM_002.jpg	100
750.856	1.81	1809.8	navigation	Trial2	navigation/STIM_002.jpg	99
755.032	1.657	1657.3	navigation	Trial2	navigation/STIM_002.jpg	99
759.893	1.809	1808.6	navigation	Trial2	navigation/STIM_003.jpg	99
763.912	2.61	2609.5	navigation	Trial2	navigation/STIM_003.jpg	100
770.091	1.325	1325.0	navigation	Trial2	navigation/STIM_003.jpg	100
774.391	2.181	2180.9	navigation	Trial2	navigation/STIM_003.jpg	99
779.955	1.786	1786.4	navigation	Trial2	navigation/STIM_003.jpg	100
783.991	2.298	2298.2	navigation	Trial2	navigation/STIM_003.jpg	100
789.739	2.553	2553.4	navigation	Trial2	navigation/STIM_004.jpg	99
795.118	1.452	1452.5	navigation	Trial2	navigation/STIM_004.jpg	100
799.669	2.513	2513.4	navigation	Trial2	navigation/STIM_004.jpg	99
804.236	2.259	2259.3	navigation	Trial2	navigation/STIM_004.jpg	100
809.091	2.202	2202.1	navigation	Trial2	navigation/STIM_004.jpg	99
814.922	2.032	2031.9	navigation	Trial2	navigation/STIM_004.jpg	100
820.236	2.011	2010.8	navigation	Trial2	navigation/STIM_005.jpg	100
824.756	2.923	2922.8	navigation	Trial2	navigation/STIM_005.jpg	99
830.781	2.176	2176.3	navigation	Trial2	navigation/STIM_005.jpg	99
835.934	2.443	2443.4	navigation	Trial2	navigation/STIM_005.jpg	100
841.472	1.921	1920.8	navigation	Trial2	navigation/STIM_005.jpg	100
846.502	1.098	1098.4	navigation	Trial2	navigation/STIM_005.jpg	99
850.15	1.78	1780.4	navigation	Trial2	navigation/STIM_006.jpg	99
854.02	2.837	2837.0	navigation	Trial2	navigation/STIM_006.jpg	99
859.845	1.601	1600.6	navigation	Trial2	navigation/STIM_006.jpg	99
863.939	1.908	1908.0	navigation	Trial2	navigation/STIM_006.jpg	100
868.097	1.458	1457.9	navigation	Trial2	navigation/STIM_006.jpg	99
871.83	1.42	1420.3	navigation	Trial2	navigation/STIM_006.jpg	100
877.098	2.517	2517.1	navigation	Trial2	navigation/STIM_007.jpg	99
883.274	1.485	1485.4	navigation	Trial2	navigation/STIM_007.jpg	100
887.317	1.53	1530.0	navigation	Trial2	navigation/STIM_007.jpg	99
891.929	2.549	2548.7	navigation	Trial2	navigation/STIM_007.jpg	100
896.622	1.189	1189.1	navigation	Trial2	navigation/STIM_007.jpg	100
900.25	1.786	1785.5	navigation	Trial2	navigation/STIM_007.jpg	99
905.704	2.451	2450.7	navigation	Trial2	navigation/STIM_008.jpg	100
910.691	2.339	2338.7	navigation	Trial2	navigation/STIM_008.jpg	99
916.707	2.085	2084.7	navigation	Trial2	navigation/STIM_008.jpg	100
921.213	2.059	2058.6	navigation	Trial2	navigation/STIM_008.jpg	99
925.88	2.198	2198.2	navigation	Trial2	navigation/STIM_008.jpg	100
931.151	2.294	2294.0	navigation	Trial2	navigation/STIM_008.jpg	100
936.877	3.149	3149.0	navigation	Trial2	navigation/STIM_009.jpg	100
942.917	3.117	3117.4	navigation	Trial2	navigation/STIM_009.jpg	99
949.123	1.344	1344.3	navigation	Trial2	navigation/STIM_009.jpg	99
954.108	1.652	1652.4	navigation	Trial2	navigation/STIM_009.jpg	100
958.539	2.269	2269.4	navigation	Trial2	navigation/STIM_009.jpg	99
963.978	2.263	2262.9	navigation	Trial2	navigation/STIM_009.jpg	100
969.517	2.399	2398.8	navigation	Trial2	navigation/STIM_010.jpg	99
974.335	1.98	1979.6	navigation	Trial2	navigation/STIM_010.jpg	99
979.989	1.728	1728.3	navigation	Trial2	navigation/STIM_010.jpg	99
983.718	1.116	1116.5	navigation	Trial2	navigation/STIM_010.jpg	99
987.943	2.522	2522.1	navigation	Trial2	navigation/STIM_010.jpg	100
993.741	2.415	2415.2	navigation	Trial2	navigation/STIM_010.jpg	100
999.325	2.614	2613.6	navigation	Trial2	navigation/STIM_011.jpg	99
1004.549	1.431	1431.3	navigation	Trial2	navigation/STIM_011.jpg	99
1008.745	2.123	2122.7	navigation	Trial2	navigation/STIM_011.jpg	100
1014.712	1.777	1776.7	navigation	Trial2	navigation/STIM_011.jpg	99
1018.759	1.677	1677.4	navigation	Trial2	navigation/STIM_011.jpg	100
1023.405	1.252	1251.5	navigation	Trial2	navigation/STIM_011.jpg	100
1026.82	0.696	695.5	pointing	Trial2	pointing/STIM_000.jpg	99
1030.781	0.817	817.1	pointing	Trial2	pointing/STIM_000.jpg	99
1035.261	0.906	905.5	pointing	Trial2	pointing/STIM_000.jpg	99
1039.719	1.156	1156.4	pointing	Trial2	pointing/STIM_000.jpg	99
1043.321	0.651	650.7	pointing	Trial2	pointing/STIM_000.jpg	99
1047.487	0.822	822.1	pointing	Trial2	pointing/STIM_000.jpg	99
1051.292	0.871	871.4	pointing	Trial2	pointing/STIM_001.jpg	100
1055.997	0.982	982.1	pointing	Trial2	pointing/STIM_001.jpg	99
1060.506	0.915	915.4	pointing	Trial2	pointing/STIM_001.jpg	99
1064.955	0.955	955.1	pointing	Trial2	pointing/STIM_001.jpg	100
1068.201	1.072	1072.2	pointing	Trial2	pointing/STIM_001.jpg	100
1072.883	1.062	1062.5	pointing	Trial2	pointing/STIM_001.jpg	100
1076.865	0.964	964.3	pointing	Trial2	pointing/STIM_002.jpg	99
1080.398	1.017	1017.1	pointing	Trial2	pointing/STIM_002.jpg	100
1083.805	1.07	1070.3	pointing	Trial2	pointing/STIM_002.jpg	99
1088.275	0.834	834.1	pointing	Trial2	pointing/STIM_002.jpg	100
1091.436	1.076	1076.2	pointing	Trial2	pointing/STIM_002.jpg	100
1095.667	1.056	1056.2	pointing	Trial2	pointing/STIM_002.jpg	100
1098.745	0.846	846.1	pointing	Trial2	pointing/STIM_003.jpg	99
1103.566	1.096	1096.0	pointing	Trial2	pointing/STIM_003.jpg	99
1107.742	0.948	947.9	pointing	Trial2	pointing/STIM_003.jpg	100
1112.24	1.121	1121.4	pointing	Trial2	pointing/STIM_003.jpg	100
1115.912	0.881	880.6	pointing	Trial2	pointing/STIM_003.jpg	99
1119.829	0.945	945.3	pointing	Trial2	pointing/STIM_003.jpg	100
1123.435	0.687	687.1	pointing	Trial2	pointing/STIM_004.jpg	100
1126.862	0.978	977.5	pointing	Trial2	pointing/STIM_004.jpg	100
1129.956	0.954	953.8	pointing	Trial2	pointing/STIM_004.jpg	100
1134.555	0.732	732.2	pointing	Trial2	pointing/STIM_004.jpg	99
1138.991	1.047	1047.0	pointing	Trial2	pointing/STIM_004.jpg	100
1142.36	0.661	661.1	pointing	Trial2	pointing/STIM_004.jpg	99
1146.542	0.639	638.7	pointing	Trial2	pointing/STIM_005.jpg	100
1150.13	1.108	1108.1	pointing	Trial2	pointing/STIM_005.jpg	99
1154.309	0.64	639.9	pointing	Trial2	pointing/STIM_005.jpg	99
1158.946	0.695	695.1	pointing	Trial2	pointing/STIM_005.jpg	99
1162.777	1.134	1133.8	pointing	Trial2	pointing/STIM_005.jpg	99
1166.403	0.641	640.9	pointing	Trial2	pointing/STIM_005.jpg	100
1169.697	1.139	1138.9	pointing	Trial2	pointing/STIM_006.jpg	99
1174.69	0.716	716.5	pointing	Trial2	pointing/STIM_006.jpg	99
1178.334	0.731	730.7	pointing	Trial2	pointing/STIM_006.jpg	99
1182.99	0.766	766.4	pointing	Trial2	pointing/STIM_006.jpg	99
1187.427	0.737	737.0	pointing	Trial2	pointing/STIM_006.jpg	100
1191.739	1.07	1070.2	pointing	Trial2	pointing/STIM_006.jpg	99
1196.132	0.914	913.9	pointing	Trial2	pointing/STIM_007.jpg	100
1200.749	0.732	731.8	pointing	Trial2	pointing/STIM_007.jpg	99
1204.707	0.754	754.0	pointing	Trial2	pointing/STIM_007.jpg	99
1208.61	1.062	1062.5	pointing	Trial2	pointing/STIM_007.jpg	99
1213.054	0.958	958.5	pointing	Trial2	pointing/STIM_007.jpg	99
1217.103	1.076	1076.1	pointing	Trial2	pointing/STIM_007.jpg	99
1221.121	0.998	998.3	pointing	Trial2	pointing/STIM_008.jpg	99
1224.16	0.857	857.4	pointing	Trial2	pointing/STIM_008.jpg	99
1227.275	0.726	726.0	pointing	Trial2	pointing/STIM_008.jpg	99
1230.203	1.096	1095.9	pointing	Trial2	pointing/STIM_008.jpg	99
1233.836	0.919	918.7	pointing	Trial2	pointing/STIM_008.jpg	100
1237.294	1.06	1060.4	pointing	Trial2	pointing/STIM_008.jpg	99
1241.172	0.917	916.8	pointing	Trial2	pointing/STIM_009.jpg	100
1245.12	0.933	933.0	pointing	Trial2	pointing/STIM_009.jpg	100
1248.391	1.076	1076.4	pointing	Trial2	pointing/STIM_009.jpg	100
1253.072	0.743	742.6	pointing	Trial2	pointing/STIM_009.jpg	100
1255.881	1.106	1106.1	pointing	Trial2	pointing/STIM_009.jpg	99
1259.398	1.011	1011.0	pointing	Trial2	pointing/STIM_009.jpg	100
1263.145	1.131	1130.6	pointing	Trial2	pointing/STIM_010.jpg	100
1267.163	0.665	665.1	pointing	Trial2	pointing/STIM_010.jpg	100
1271.297	0.939	938.8	pointing	Trial2	pointing/STIM_010.jpg	100
1275.676	0.962	961.8	pointing	Trial2	pointing/STIM_010.jpg	100
1279.017	0.745	745.2	pointing	Trial2	pointing/STIM_010.jpg	99
1283.5	0.748	748.1	pointing	Trial2	pointing/STIM_010.jpg	100
1287.415	1.083	1083.0	pointing	Trial2	pointing/STIM_011.jpg	100
1291.046	1.109	1108.9	pointing	Trial2	pointing/STIM_011.jpg	99
1295.699	0.817	817.4	pointing	Trial2	pointing/STIM_011.jpg	99
1300.246	1.044	1043.7	pointing	Trial2	pointing/STIM_011.jpg	100
1304.685	0.863	863.2	pointing	Trial2	pointing/STIM_011.jpg	99
1307.554	1.037	1036.6	pointing	Trial2	pointing/STIM_011.jpg	100
1312.186	1.735	1734.6	navigation	Trial3	navigation/STIM_000.jpg	99
1317.393	2.305	2305.2	navigation	Trial3	navigation/STIM_000.jpg	100
1323.246	1.398	1397.5	navigation	Trial3	navigation/STIM_000.jpg	99
1326.867	1.23	1229.9	navigation	Trial3	navigation/STIM_000.jpg	99
1330.563	1.322	1321.7	navigation	Trial3	navigation/STIM_000.jpg	99
1335.306	2.592	2592.4	navigation	Trial3	navigation/STIM_000.jpg	99
1340.586	1.163	1162.9	navigation	Trial3	navigation/STIM_001.jpg	99
1345.07	1.403	1402.8	navigation	Trial3	navigation/STIM_001.jpg	100
1349.781	1.172	1171.7	navigation	Trial3	navigation/STIM_001.jpg	99
1353.2	2.394	2393.7	navigation	Trial3	navigation/STIM_001.jpg	100
1358.899	1.317	1317.1	navigation	Trial3	navigation/STIM_001.jpg	100
1363.383	2.268	2267.8	navigation	Trial3	navigation/STIM_001.jpg	99
1368.932	1.224	1224.0	navigation	Trial3	navigation/STIM_002.jpg	99
1372.616	1.826	1826.2	navigation	Trial3	navigation/STIM_002.jpg	100
1377.927	2.259	2259.3	navigation	Trial3	navigation/STIM_002.jpg	99
1382.252	1.599	1599.1	navigation	Trial3	navigation/STIM_002.jpg	100
1386.954	1.999	1999.1	navigation	Trial3	navigation/STIM_002.jpg	99
1391.69	2.69	2690.0	navigation	Trial3	navigation/STIM_002.jpg	100
1397.74	2.424	2424.5	navigation	Trial3	navigation/STIM_003.jpg	99
1403.336	2.347	2346.8	navigation	Trial3	navigation/STIM_003.jpg	99
1408.88	1.347	1347.1	navigation	Trial3	navigation/STIM_003.jpg	100
1413.622	1.42	1420.3	navigation	Trial3	navigation/STIM_003.jpg	99
1419.022	2.64	2640.3	navigation	Trial3	navigation/STIM_003.jpg	100
1423.797	1.225	1225.0	navigation	Trial3	navigation/STIM_003.jpg	99
1427.385	2.725	2724.7	navigation	Trial3	navigation/STIM_004.jpg	99
1433.773	1.464	1464.2	navigation	Trial3	navigation/STIM_004.jpg	100
1439.062	2.004	2003.6	navigation	Trial3	navigation/STIM_004.jpg	99
1443.935	2.725	2724.6	navigation	Trial3	navigation/STIM_004.jpg	100
1449.759	2.128	2128.3	navigation	Trial3	navigation/STIM_004.jpg	100
1454.088	2.359	2358.8	navigation	Trial3	navigation/STIM_004.jpg	99
1460.027	1.68	1679.9	navigation	Trial3	navigation/STIM_005.jpg	99
1464.312	1.644	1644.2	navigation	Trial3	navigation/STIM_005.jpg	100
1468.824	2.188	2187.8	navigation	Trial3	navigation/STIM_005.jpg	100
1473.813	2.568	2568.3	navigation	Trial3	navigation/STIM_005.jpg	100
1478.847	2.03	2030.3	navigation	Trial3	navigation/STIM_005.jpg	100
1484.82	2.398	2398.5	navigation	Trial3	navigation/STIM_005.jpg	99
1490.322	1.685	1685.0	navigation	Trial3	navigation/STIM_006.jpg	100
1494.609	1.143	1143.4	navigation	Trial3	navigation/STIM_006.jpg	100
1499.099	1.241	1241.0	navigation	Trial3	navigation/STIM_006.jpg	100
1502.85	2.436	2435.5	navigation	Trial3	navigation/STIM_006.jpg	99
1509.042	2.59	2590.3	navigation	Trial3	navigation/STIM_006.jpg	99
1514.85	2.418	2417.7	navigation	Trial3	navigation/STIM_006.jpg	99
1519.661	1.702	1702.4	navigation	Trial3	navigation/STIM_007.jpg	99
1525.002	1.992	1992.0	navigation	Trial3	navigation/STIM_007.jpg	99
1530.966	1.985	1985.0	navigation	Trial3	navigation/STIM_007.jpg	99
1534.99	2.279	2279.3	navigation	Trial3	navigation/STIM_007.jpg	100
1539.306	2.065	2065.0	navigation	Trial3	navigation/STIM_007.jpg	99
1544.452	1.719	1719.0	navigation	Trial3	navigation/STIM_007.jpg	100
1548.423	2.157	2157.4	navigation	Trial3	navigation/STIM_008.jpg	100
1552.746	1.804	1803.8	navigation	Trial3	navigation/STIM_008.jpg	99
1558.023	2.652	2651.9	navigation	Trial3	navigation/STIM_008.jpg	99
1563.328	1.129	1129.2	navigation	Trial3	navigation/STIM_008.jpg	99
1567.991	2.571	2570.9	navigation	Trial3	navigation/STIM_008.jpg	99
1573.055	2.58	2580.0	navigation	Trial3	navigation/STIM_008.jpg	100
1578.667	1.418	1418.5	navigation	Trial3	navigation/STIM_009.jpg	100
1583.379	1.288	1287.5	navigation	Trial3	navigation/STIM_009.jpg	100
1587.631	2.108	2108.2	navigation	Trial3	navigation/STIM_009.jpg	100
1593.568	1.455	1454.6	navigation	Trial3	navigation/STIM_009.jpg	100
1597.91	1.663	1663.4	navigation	Trial3	navigation/STIM_009.jpg	100
1602.396	2.257	2257.3	navigation	Trial3	navigation/STIM_009.jpg	99
1607.903	1.39	1390.2	navigation	Trial3	navigation/STIM_010.jpg	99
1611.462	2.019	2019.1	navigation	Trial3	navigation/STIM_010.jpg	99
1616.836	1.255	1254.6	navigation	Trial3	navigation/STIM_010.jpg	100
1621.374	1.24	1240.1	navigation	Trial3	navigation/STIM_010.jpg	100
1625.433	1.244	1244.2	navigation	Trial3	navigation/STIM_010.jpg	99
1629.545	2.102	2102.2	navigation	Trial3	navigation/STIM_010.jpg	99
1634.886	1.788	1788.0	navigation	Trial3	navigation/STIM_011.jpg	100
1639.042	2.39	2389.6	navigation	Trial3	navigation/STIM_011.jpg	99
1643.899	2.462	2461.8	navigation	Trial3	navigation/STIM_011.jpg	99
1648.407	2.34	2340.5	navigation	Trial3	navigation/STIM_011.jpg	100
1653.027	1.558	1557.7	navigation	Trial3	navigation/STIM_011.jpg	100
1656.804	2.576	2575.5	navigation	Trial3	navigation/STIM_011.jpg	99
1663.192	0.903	903.4	pointing	Trial3	pointing/STIM_000.jpg	100
1666.469	0.682	682.3	pointing	Trial3	pointing/STIM_000.jpg	99
1670.162	0.941	941.0	pointing	Trial3	pointing/STIM_000.jpg	99
1674.756	1.098	1098.4	pointing	Trial3	pointing/STIM_000.jpg	99
1678.318	0.686	685.7	pointing	Trial3	pointing/STIM_000.jpg	99
1682.049	0.832	832.0	pointing	Trial3	pointing/STIM_000.jpg	99
1686.24	1.146	1145.6	pointing	Trial3	pointing/STIM_001.jpg	100
1689.837	1.15	1150.2	pointing	Trial3	pointing/STIM_001.jpg	99
1693.755	1.141	1141.2	pointing	Trial3	pointing/STIM_001.jpg	100
1698.811	0.779	779.0	pointing	Trial3	pointing/STIM_001.jpg	100
1702.359	0.861	861.1	pointing	Trial3	pointing/STIM_001.jpg	99
1706.982	1.107	1106.6	pointing	Trial3	pointing/STIM_001.jpg	100
1711.758	1.114	1114.5	pointing	Trial3	pointing/STIM_002.jpg	100
1715.109	0.93	929.5	pointing	Trial3	pointing/STIM_002.jpg	99
1718.525	0.693	693.1	pointing	Trial3	pointing/STIM_002.jpg	99
1722.63	1.053	1053.2	pointing	Trial3	pointing/STIM_002.jpg	100
1727.37	0.987	987.4	pointing	Trial3	pointing/STIM_002.jpg	100
1730.809	0.649	649.0	pointing	Trial3	pointing/STIM_002.jpg	99
1735.254	0.676	676.3	pointing	Trial3	pointing/STIM_003.jpg	100
1739.085	1.015	1014.8	pointing	Trial3	pointing/STIM_003.jpg	99
1742.914	0.979	978.9	pointing	Trial3	pointing/STIM_003.jpg	100
1746.726	0.687	687.3	pointing	Trial3	pointing/STIM_003.jpg	99
1751.041	0.946	946.1	pointing	Trial3	pointing/STIM_003.jpg	100
1755.735	0.913	913.4	pointing	Trial3	pointing/STIM_003.jpg	99
1760.401	0.746	745.9	pointing	Trial3	pointing/STIM_004.jpg	100
1763.676	0.798	797.9	pointing	Trial3	pointing/STIM_004.jpg	99
1767.361	1.132	1132.3	pointing	Trial3	pointing/STIM_004.jpg	99
1772.134	0.799	799.3	pointing	Trial3	pointing/STIM_004.jpg	99
1775.235	0.992	991.8	pointing	Trial3	pointing/STIM_004.jpg	100
1780.152	1.096	1095.6	pointing	Trial3	pointing/STIM_004.jpg	100
1784.091	0.774	773.7	pointing	Trial3	pointing/STIM_005.jpg	100
1788.641	0.763	762.8	pointing	Trial3	pointing/STIM_005.jpg	100
1791.915	0.831	831.3	pointing	Trial3	pointing/STIM_005.jpg	99
1796.435	1.034	1034.0	pointing	Trial3	pointing/STIM_005.jpg	100
1800.635	1.123	1123.1	pointing	Trial3	pointing/STIM_005.jpg	99
1804.865	0.915	915.0	pointing	Trial3	pointing/STIM_005.jpg	100
1809.154	1.029	1028.6	pointing	Trial3	pointing/STIM_006.jpg	100
1813.52	0.871	871.3	pointing	Trial3	pointing/STIM_006.jpg	99
1816.426	0.941	941.1	pointing	Trial3	pointing/STIM_006.jpg	100
1820.258	0.977	977.0	pointing	Trial3	pointing/STIM_006.jpg	99
1824.241	0.998	998.1	pointing	Trial3	pointing/STIM_006.jpg	100
1827.927	0.815	815.2	pointing	Trial3	pointing/STIM_006.jpg	99
1831.415	0.937	937.0	pointing	Trial3	pointing/STIM_007.jpg	99
1834.541	0.969	968.9	pointing	Trial3	pointing/STIM_007.jpg	100
1838.493	0.651	650.8	pointing	Trial3	pointing/STIM_007.jpg	99
1842.942	0.996	996.2	pointing	Trial3	pointing/STIM_007.jpg	100
1847.228	0.665	665.0	pointing	Trial3	pointing/STIM_007.jpg	100
1851.438	0.966	966.2	pointing	Trial3	pointing/STIM_007.jpg	99
1855.869	0.752	751.7	pointing	Trial3	pointing/STIM_008.jpg	100
1858.716	0.959	959.2	pointing	Trial3	pointing/STIM_008.jpg	100
1863.177	1.164	1163.9	pointing	Trial3	pointing/STIM_008.jpg	100
1868.034	0.907	907.3	pointing	Trial3	pointing/STIM_008.jpg	100
1872.213	1.097	1096.6	pointing	Trial3	pointing/STIM_008.jpg	99
1877.162	0.624	624.1	pointing	Trial3	pointing/STIM_008.jpg	100
1881.189	1.001	1000.8	pointing	Trial3	pointing/STIM_009.jpg	99
1885.799	1.114	1114.1	pointing	Trial3	pointing/STIM_009.jpg	99
1890.394	0.915	914.9	pointing	Trial3	pointing/STIM_009.jpg	99
1893.396	0.707	707.1	pointing	Trial3	pointing/STIM_009.jpg	100
1897.188	0.936	936.2	pointing	Trial3	pointing/STIM_009.jpg	99
1901.514	0.67	669.8	pointing	Trial3	pointing/STIM_009.jpg	99
1905.051	0.637	637.3	pointing	Trial3	pointing/STIM_010.jpg	99
1909.443	1.084	1084.5	pointing	Trial3	pointing/STIM_010.jpg	99
1912.99	0.864	863.8	pointing	Trial3	pointing/STIM_010.jpg	99
1917.108	0.696	696.1	pointing	Trial3	pointing/STIM_010.jpg	100
1921.091	0.634	634.0	pointing	Trial3	pointing/STIM_010.jpg	100
1924.537	0.798	797.9	pointing	Trial3	pointing/STIM_010.jpg	99
1927.615	0.818	818.4	pointing	Trial3	pointing/STIM_011.jpg	100
1931.168	1.045	1045.1	pointing	Trial3	pointing/STIM_011.jpg	99
1935.435	0.859	858.6	pointing	Trial3	pointing/STIM_011.jpg	100
1939.512	1.096	1096.2	pointing	Trial3	pointing/STIM_011.jpg	99
1942.711	0.782	782.0	pointing	Trial3	pointing/STIM_011.jpg	100
1945.608	0.752	751.9	pointing	Trial3	pointing/STIM_011.jpg	100
