onset	duration	response_time_ms	trial_type	learning_stage	stimulus	coherence	response_port
0.000	13.327	13327.0	learning	LS1	PICTURE_358.jpg	c	n/a
13.327	14.135	14135.0	learning	LS1	PICTURE_165.jpg	c	n/a
27.462	16.546	16546.0	learning	LS1	PICTURE_453.jpg	c	n/a
44.008	15.598	15598.0	learning	LS1	PICTURE_202.jpg	i	n/a
59.606	10.971	10971.0	learning	LS1	PICTURE_148.jpg	i	n/a
70.577	21.376	21376.0	learning	LS1	PICTURE_165.jpg	i	n/a
91.953	n/a	n/a	learning	LS1	PICTURE_148.jpg	c	n/a
116.953	14.207	14207.0	learning	LS1	PICTURE_358.jpg	i	n/a
131.160	10.542	10542.0	learning	LS1	PICTURE_453.jpg	i	n/a
141.702	11.197	11197.0	learning	LS1	PICTURE_202.jpg	c	n/a
152.899	14.121	14121.0	learning	LS2	PICTURE_165.jpg	i	n/a
167.020	8.859	8859.0	learning	LS2	PICTURE_358.jpg	c	n/a
175.879	8.072	8072.0	learning	LS2	PICTURE_453.jpg	c	n/a
183.951	14.955	14955.0	learning	LS2	PICTURE_148.jpg	c	n/a
198.906	15.443	15443.0	learning	LS2	PICTURE_358.jpg	i	n/a
214.349	13.858	13858.0	learning	LS2	PICTURE_202.jpg	c	n/a
228.207	12.115	12115.0	learning	LS2	PICTURE_148.jpg	i	n/a
240.322	16.444	16444.0	learning	LS2	PICTURE_202.jpg	i	n/a
256.766	11.657	11657.0	learning	LS2	PICTURE_165.jpg	c	n/a
268.423	10.713	10713.0	learning	LS2	PICTURE_453.jpg	i	n/a
279.136	13.795	13795.0	learning	LS3	PICTURE_202.jpg	c	n/a
292.931	9.649	9649.0	learning	LS3	PICTURE_148.jpg	i	n/a
302.580	7.424	7424.0	learning	LS3	PICTURE_453.jpg	c	n/a
310.004	5.999	5999.0	learning	LS3	PICTURE_358.jpg	c	n/a
316.003	7.770	7770.0	learning	LS3	PICTURE_165.jpg	i	n/a
323.773	9.380	9380.0	learning	LS3	PICTURE_148.jpg	c	n/a
333.153	10.667	10667.0	learning	LS3	PICTURE_165.jpg	c	n/a
343.820	8.918	8918.0	learning	LS3	PICTURE_202.jpg	i	n/a
352.738	9.250	9250.0	learning	LS3	PICTURE_453.jpg	i	n/a
361.988	7.504	7504.0	learning	LS3	PICTURE_358.jpg	i	n/a
369.492	7.871	7871.0	learning	LS4	PICTURE_148.jpg	c	n/a
377.363	10.123	10123.0	learning	LS4	PICTURE_165.jpg	i	n/a
387.486	11.414	11414.0	learning	LS4	PICTURE_148.jpg	i	n/a
398.900	7.429	7429.0	learning	LS4	PICTURE_453.jpg	c	n/a
406.329	10.800	10800.0	learning	LS4	PICTURE_202.jpg	c	n/a
417.129	9.209	9209.0	learning	LS4	PICTURE_358.jpg	i	n/a
426.338	6.184	6184.0	learning	LS4	PICTURE_453.jpg	i	n/a
432.522	8.751	8751.0	learning	LS4	PICTURE_202.jpg	i	n/a
441.273	7.646	7646.0	learning	LS4	PICTURE_358.jpg	c	n/a
448.919	10.528	10528.0	learning	LS4	PICTURE_165.jpg	c	n/a
459.447	13.752	13752.0	control	LS1	PICTURE_338.jpg	i	n/a
473.199	8.972	8972.0	control	LS1	PICTURE_255.jpg	c	n/a
482.171	7.227	7227.0	control	LS1	PICTURE_368.jpg	c	n/a
489.398	6.760	6760.0	control	LS1	PICTURE_391.jpg	c	n/a
496.158	6.130	6130.0	control	LS1	PICTURE_398.jpg	c	n/a
502.288	8.218	8218.0	control	LS1	PICTURE_368.jpg	i	n/a
510.506	7.271	7271.0	control	LS1	PICTURE_398.jpg	i	n/a
517.777	8.559	8559.0	control	LS1	PICTURE_391.jpg	i	n/a
526.336	6.972	6972.0	control	LS1	PICTURE_255.jpg	i	n/a
533.308	7.141	7141.0	control	LS1	PICTURE_338.jpg	c	n/a
540.449	8.459	8459.0	control	LS2	PICTURE_338.jpg	i	n/a
548.908	6.392	6392.0	control	LS2	PICTURE_391.jpg	c	n/a
555.300	7.365	7365.0	control	LS2	PICTURE_398.jpg	i	n/a
562.665	6.255	6255.0	control	LS2	PICTURE_255.jpg	c	n/a
568.920	5.946	5946.0	control	LS2	PICTURE_398.jpg	c	n/a
574.866	6.116	6116.0	control	LS2	PICTURE_368.jpg	c	n/a
580.982	6.768	6768.0	control	LS2	PICTURE_255.jpg	i	n/a
587.750	6.618	6618.0	control	LS2	PICTURE_368.jpg	i	n/a
594.368	7.589	7589.0	control	LS2	PICTURE_391.jpg	i	n/a
601.957	7.284	7284.0	control	LS2	PICTURE_338.jpg	c	n/a
609.241	8.124	8124.0	control	LS3	PICTURE_19.jpg	c	n/a
617.365	8.135	8135.0	control	LS3	PICTURE_185.jpg	c	n/a
625.500	5.912	5912.0	control	LS3	PICTURE_551.jpg	c	n/a
631.412	5.765	5765.0	control	LS3	PICTURE_708.jpg	c	n/a
637.177	7.054	7054.0	control	LS3	PICTURE_551.jpg	i	n/a
644.231	6.905	6905.0	control	LS3	PICTURE_19.jpg	i	n/a
651.136	6.274	6274.0	control	LS3	PICTURE_185.jpg	i	n/a
657.410	7.085	7085.0	control	LS3	PICTURE_343.jpg	c	n/a
664.495	6.775	6775.0	control	LS3	PICTURE_708.jpg	i	n/a
671.270	6.465	6465.0	control	LS3	PICTURE_343.jpg	i	n/a
677.735	11.624	11624.0	control	LS4	PICTURE_551.jpg	c	n/a
689.359	6.358	6358.0	control	LS4	PICTURE_708.jpg	i	n/a
695.717	6.370	6370.0	control	LS4	PICTURE_19.jpg	i	n/a
702.087	6.698	6698.0	control	LS4	PICTURE_551.jpg	i	n/a
708.785	8.149	8149.0	control	LS4	PICTURE_185.jpg	i	n/a
716.934	6.880	6880.0	control	LS4	PICTURE_343.jpg	c	n/a
723.814	7.213	7213.0	control	LS4	PICTURE_19.jpg	c	n/a
731.027	8.024	8024.0	control	LS4	PICTURE_708.jpg	c	n/a
739.051	7.078	7078.0	control	LS4	PICTURE_185.jpg	c	n/a
746.129	8.048	8048.0	control	LS4	PICTURE_343.jpg	i	n/a
754.177	11.264	11264.0	learning	LS1	PICTURE_26.jpg	c	n/a
765.441	6.480	6480.0	learning	LS1	PICTURE_212.jpg	i	n/a
771.921	13.206	13206.0	learning	LS1	PICTURE_659.jpg	c	n/a
785.127	11.136	11136.0	learning	LS1	PICTURE_212.jpg	c	n/a
796.263	11.786	11786.0	learning	LS1	PICTURE_38.jpg	c	n/a
808.049	10.039	10039.0	learning	LS1	PICTURE_654.jpg	i	n/a
818.088	15.800	15800.0	learning	LS1	PICTURE_659.jpg	i	n/a
833.888	16.610	16610.0	learning	LS1	PICTURE_38.jpg	i	n/a
850.498	13.581	13581.0	learning	LS1	PICTURE_26.jpg	i	n/a
864.079	13.910	13910.0	learning	LS1	PICTURE_654.jpg	c	n/a
877.989	12.033	12033.0	learning	LS2	PICTURE_659.jpg	i	n/a
890.022	8.845	8845.0	learning	LS2	PICTURE_654.jpg	i	n/a
898.867	12.848	12848.0	learning	LS2	PICTURE_659.jpg	c	n/a
911.715	11.261	11261.0	learning	LS2	PICTURE_26.jpg	c	n/a
922.976	15.111	15111.0	learning	LS2	PICTURE_212.jpg	i	n/a
938.087	7.772	7772.0	learning	LS2	PICTURE_654.jpg	c	n/a
945.859	8.423	8423.0	learning	LS2	PICTURE_26.jpg	i	n/a
954.282	10.353	10353.0	learning	LS2	PICTURE_38.jpg	c	n/a
964.635	7.649	7649.0	learning	LS2	PICTURE_212.jpg	c	n/a
972.284	8.459	8459.0	learning	LS2	PICTURE_38.jpg	i	n/a
980.743	6.745	6745.0	learning	LS3	PICTURE_38.jpg	c	n/a
987.488	6.275	6275.0	learning	LS3	PICTURE_654.jpg	c	n/a
993.763	9.640	9640.0	learning	LS3	PICTURE_212.jpg	i	n/a
1003.403	8.371	8371.0	learning	LS3	PICTURE_659.jpg	i	n/a
1011.774	8.862	8862.0	learning	LS3	PICTURE_38.jpg	i	n/a
1020.636	7.755	7755.0	learning	LS3	PICTURE_212.jpg	c	n/a
1028.391	8.083	8083.0	learning	LS3	PICTURE_26.jpg	c	n/a
1036.474	7.454	7454.0	learning	LS3	PICTURE_654.jpg	i	n/a
1043.928	8.421	8421.0	learning	LS3	PICTURE_26.jpg	i	n/a
1052.349	6.509	6509.0	learning	LS3	PICTURE_659.jpg	c	n/a
1058.858	6.391	6391.0	learning	LS4	PICTURE_654.jpg	c	n/a
1065.249	9.437	9437.0	learning	LS4	PICTURE_659.jpg	i	n/a
1074.686	9.607	9607.0	learning	LS4	PICTURE_26.jpg	i	n/a
1084.293	7.058	7058.0	learning	LS4	PICTURE_659.jpg	c	n/a
1091.351	8.188	8188.0	learning	LS4	PICTURE_654.jpg	i	n/a
1099.539	7.719	7719.0	learning	LS4	PICTURE_26.jpg	c	n/a
1107.258	6.775	6775.0	learning	LS4	PICTURE_38.jpg	i	n/a
1114.033	9.982	9982.0	learning	LS4	PICTURE_212.jpg	i	n/a
1124.015	8.396	8396.0	learning	LS4	PICTURE_38.jpg	c	n/a
1132.411	6.967	6967.0	learning	LS4	PICTURE_212.jpg	c	n/a
1139.378	7.145	7145.0	control	LS1	PICTURE_540.jpg	c	n/a
1146.523	9.237	9237.0	control	LS1	PICTURE_135.jpg	i	n/a
1155.760	10.369	10369.0	control	LS1	PICTURE_263.jpg	i	n/a
1166.129	7.186	7186.0	control	LS1	PICTURE_540.jpg	i	n/a
1173.315	7.514	7514.0	control	LS1	PICTURE_263.jpg	c	n/a
1180.829	10.083	10083.0	control	LS1	PICTURE_116.jpg	c	n/a
1190.912	7.539	7539.0	control	LS1	PICTURE_491.jpg	c	n/a
1198.451	7.388	7388.0	control	LS1	PICTURE_116.jpg	i	n/a
1205.839	7.877	7877.0	control	LS1	PICTURE_135.jpg	c	n/a
1213.716	7.569	7569.0	control	LS1	PICTURE_491.jpg	i	n/a
1221.285	7.924	7924.0	control	LS2	PICTURE_540.jpg	c	n/a
1229.209	6.338	6338.0	control	LS2	PICTURE_263.jpg	i	n/a
1235.547	7.148	7148.0	control	LS2	PICTURE_116.jpg	c	n/a
1242.695	7.317	7317.0	control	LS2	PICTURE_135.jpg	i	n/a
1250.012	7.007	7007.0	control	LS2	PICTURE_540.jpg	i	n/a
1257.019	7.336	7336.0	control	LS2	PICTURE_116.jpg	i	n/a
1264.355	7.667	7667.0	control	LS2	PICTURE_491.jpg	c	n/a
1272.022	6.877	6877.0	control	LS2	PICTURE_263.jpg	c	n/a
1278.899	7.203	7203.0	control	LS2	PICTURE_491.jpg	i	n/a
1286.102	6.894	6894.0	control	LS2	PICTURE_135.jpg	c	n/a
1292.996	9.652	9652.0	control	LS3	PICTURE_119.jpg	i	n/a
1302.648	8.059	8059.0	control	LS3	PICTURE_111.jpg	c	n/a
1310.707	7.584	7584.0	control	LS3	PICTURE_234.jpg	i	n/a
1318.291	8.874	8874.0	control	LS3	PICTURE_111.jpg	i	n/a
1327.165	9.203	9203.0	control	LS3	PICTURE_621.jpg	i	n/a
1336.368	9.213	9213.0	control	LS3	PICTURE_234.jpg	c	n/a
1345.581	6.665	6665.0	control	LS3	PICTURE_151.jpg	i	n/a
1352.246	6.995	6995.0	control	LS3	PICTURE_119.jpg	c	n/a
1359.241	7.000	7000.0	control	LS3	PICTURE_621.jpg	c	n/a
1366.241	8.286	8286.0	control	LS3	PICTURE_151.jpg	c	n/a
1374.527	8.167	8167.0	control	LS4	PICTURE_621.jpg	c	n/a
1382.694	6.580	6580.0	control	LS4	PICTURE_151.jpg	c	n/a
1389.274	7.391	7391.0	control	LS4	PICTURE_119.jpg	i	n/a
1396.665	6.920	6920.0	control	LS4	PICTURE_234.jpg	i	n/a
1403.585	5.810	5810.0	control	LS4	PICTURE_111.jpg	c	n/a
1409.395	6.302	6302.0	control	LS4	PICTURE_119.jpg	c	n/a
1415.697	7.271	7271.0	control	LS4	PICTURE_621.jpg	i	n/a
1422.968	7.598	7598.0	control	LS4	PICTURE_151.jpg	i	n/a
1430.566	8.244	8244.0	control	LS4	PICTURE_111.jpg	i	n/a
1438.810	8.255	8255.0	control	LS4	PICTURE_234.jpg	c	n/a
1447.065	12.269	12269.0	learning	LS1	PICTURE_71.jpg	i	n/a
1459.334	9.083	9083.0	learning	LS1	PICTURE_72.jpg	c	n/a
1468.417	10.371	10371.0	learning	LS1	PICTURE_67.jpg	c	n/a
1478.788	8.464	8464.0	learning	LS1	PICTURE_68.jpg	c	n/a
1487.252	13.908	13908.0	learning	LS1	PICTURE_72.jpg	i	n/a
1501.160	8.802	8802.0	learning	LS1	PICTURE_71.jpg	c	n/a
1509.962	15.358	15358.0	learning	LS1	PICTURE_74.jpg	i	n/a
1525.320	14.890	14890.0	learning	LS1	PICTURE_67.jpg	i	n/a
1540.210	9.788	9788.0	learning	LS1	PICTURE_68.jpg	i	n/a
1549.998	9.160	9160.0	learning	LS1	PICTURE_74.jpg	c	n/a
1559.158	8.719	8719.0	learning	LS2	PICTURE_72.jpg	i	n/a
1567.877	8.087	8087.0	learning	LS2	PICTURE_67.jpg	c	n/a
1575.964	7.139	7139.0	learning	LS2	PICTURE_71.jpg	c	n/a
1583.103	9.072	9072.0	learning	LS2	PICTURE_67.jpg	i	n/a
1592.175	9.084	9084.0	learning	LS2	PICTURE_71.jpg	i	n/a
1601.259	8.773	8773.0	learning	LS2	PICTURE_74.jpg	i	n/a
1610.032	20.131	20131.0	learning	LS2	PICTURE_68.jpg	c	n/a
1630.163	9.752	9752.0	learning	LS2	PICTURE_72.jpg	c	n/a
1639.915	12.477	12477.0	learning	LS2	PICTURE_74.jpg	c	n/a
1652.392	20.157	20157.0	learning	LS2	PICTURE_68.jpg	i	n/a
1672.549	10.450	10450.0	learning	LS3	PICTURE_72.jpg	i	n/a
1682.999	10.937	10937.0	learning	LS3	PICTURE_74.jpg	i	n/a
1693.936	10.304	10304.0	learning	LS3	PICTURE_67.jpg	i	n/a
1704.240	7.114	7114.0	learning	LS3	PICTURE_71.jpg	c	n/a
1711.354	7.286	7286.0	learning	LS3	PICTURE_67.jpg	c	n/a
1718.640	7.456	7456.0	learning	LS3	PICTURE_72.jpg	c	n/a
1726.096	6.987	6987.0	learning	LS3	PICTURE_68.jpg	c	n/a
1733.083	8.433	8433.0	learning	LS3	PICTURE_71.jpg	i	n/a
1741.516	8.921	8921.0	learning	LS3	PICTURE_68.jpg	i	n/a
1750.437	9.087	9087.0	learning	LS3	PICTURE_74.jpg	c	n/a
1759.524	7.850	7850.0	learning	LS4	PICTURE_67.jpg	i	n/a
1767.374	8.499	8499.0	learning	LS4	PICTURE_68.jpg	i	n/a
1775.873	8.985	8985.0	learning	LS4	PICTURE_67.jpg	c	n/a
1784.858	8.193	8193.0	learning	LS4	PICTURE_71.jpg	i	n/a
1793.051	7.724	7724.0	learning	LS4	PICTURE_74.jpg	c	n/a
1800.775	9.009	9009.0	learning	LS4	PICTURE_71.jpg	c	n/a
1809.784	8.860	8860.0	learning	LS4	PICTURE_72.jpg	i	n/a
1818.644	12.223	12223.0	learning	LS4	PICTURE_74.jpg	i	n/a
1830.867	5.522	5522.0	learning	LS4	PICTURE_68.jpg	c	n/a
1836.389	6.649	6649.0	learning	LS4	PICTURE_72.jpg	c	n/a
1843.038	9.706	9706.0	learning	LS1	PICTURE_203.jpg	i	n/a
1852.744	7.797	7797.0	learning	LS1	PICTURE_42.jpg	i	n/a
1860.541	7.966	7966.0	learning	LS1	PICTURE_414.jpg	c	n/a
1868.507	8.928	8928.0	learning	LS1	PICTURE_224.jpg	c	n/a
1877.435	10.691	10691.0	learning	LS1	PICTURE_566.jpg	c	n/a
1888.126	9.899	9899.0	learning	LS1	PICTURE_42.jpg	c	n/a
1898.025	12.471	12471.0	learning	LS1	PICTURE_224.jpg	i	n/a
1910.496	11.838	11838.0	learning	LS1	PICTURE_414.jpg	i	n/a
1922.334	10.252	10252.0	learning	LS1	PICTURE_566.jpg	i	n/a
1932.586	8.345	8345.0	learning	LS1	PICTURE_203.jpg	c	n/a
1940.931	10.784	10784.0	learning	LS2	PICTURE_566.jpg	i	n/a
1951.715	9.674	9674.0	learning	LS2	PICTURE_414.jpg	c	n/a
1961.389	6.646	6646.0	learning	LS2	PICTURE_42.jpg	c	n/a
1968.035	10.814	10814.0	learning	LS2	PICTURE_203.jpg	i	n/a
1978.849	11.780	11780.0	learning	LS2	PICTURE_414.jpg	i	n/a
1990.629	9.234	9234.0	learning	LS2	PICTURE_224.jpg	i	n/a
1999.863	8.130	8130.0	learning	LS2	PICTURE_566.jpg	c	n/a
2007.993	7.498	7498.0	learning	LS2	PICTURE_42.jpg	i	n/a
2015.491	7.027	7027.0	learning	LS2	PICTURE_203.jpg	c	n/a
2022.518	6.559	6559.0	learning	LS2	PICTURE_224.jpg	c	n/a
2029.077	6.917	6917.0	learning	LS3	PICTURE_42.jpg	c	n/a
2035.994	9.005	9005.0	learning	LS3	PICTURE_203.jpg	i	n/a
2044.999	8.854	8854.0	learning	LS3	PICTURE_566.jpg	i	n/a
2053.853	6.787	6787.0	learning	LS3	PICTURE_414.jpg	i	n/a
2060.640	6.317	6317.0	learning	LS3	PICTURE_224.jpg	c	n/a
2066.957	8.406	8406.0	learning	LS3	PICTURE_203.jpg	c	n/a
2075.363	10.010	10010.0	learning	LS3	PICTURE_42.jpg	i	n/a
2085.373	7.302	7302.0	learning	LS3	PICTURE_224.jpg	i	n/a
2092.675	8.590	8590.0	learning	LS3	PICTURE_566.jpg	c	n/a
2101.265	7.482	7482.0	learning	LS3	PICTURE_414.jpg	c	n/a
2108.747	7.200	7200.0	learning	LS4	PICTURE_566.jpg	c	n/a
2115.947	6.730	6730.0	learning	LS4	PICTURE_203.jpg	c	n/a
2122.677	8.018	8018.0	learning	LS4	PICTURE_42.jpg	i	n/a
2130.695	6.749	6749.0	learning	LS4	PICTURE_224.jpg	i	n/a
2137.444	7.719	7719.0	learning	LS4	PICTURE_42.jpg	c	n/a
2145.163	7.887	7887.0	learning	LS4	PICTURE_414.jpg	i	n/a
2153.050	8.062	8062.0	learning	LS4	PICTURE_203.jpg	i	n/a
2161.112	8.871	8871.0	learning	LS4	PICTURE_566.jpg	i	n/a
2169.983	6.964	6964.0	learning	LS4	PICTURE_224.jpg	c	n/a
2176.947	7.450	7450.0	learning	LS4	PICTURE_414.jpg	c	n/a
2184.397	10.333	10333.0	learning	LS1	PICTURE_692.jpg	i	n/a
2194.730	10.983	10983.0	learning	LS1	PICTURE_640.jpg	i	n/a
2205.713	8.753	8753.0	learning	LS1	PICTURE_592.jpg	c	n/a
2214.466	10.511	10511.0	learning	LS1	PICTURE_465.jpg	c	n/a
2224.977	15.636	15636.0	learning	LS1	PICTURE_379.jpg	c	n/a
2240.613	10.368	10368.0	learning	LS1	PICTURE_640.jpg	c	n/a
2250.981	15.331	15331.0	learning	LS1	PICTURE_592.jpg	i	n/a
2266.312	13.903	13903.0	learning	LS1	PICTURE_465.jpg	i	n/a
2280.215	10.395	10395.0	learning	LS1	PICTURE_692.jpg	c	n/a
2290.610	13.601	13601.0	learning	LS1	PICTURE_379.jpg	i	n/a
2304.211	7.889	7889.0	learning	LS2	PICTURE_379.jpg	c	n/a
2312.100	11.893	11893.0	learning	LS2	PICTURE_640.jpg	c	n/a
2323.993	11.581	11581.0	learning	LS2	PICTURE_692.jpg	i	n/a
2335.574	8.716	8716.0	learning	LS2	PICTURE_465.jpg	i	n/a
2344.290	7.451	7451.0	learning	LS2	PICTURE_692.jpg	c	n/a
2351.741	8.579	8579.0	learning	LS2	PICTURE_379.jpg	i	n/a
2360.320	12.581	12581.0	learning	LS2	PICTURE_592.jpg	c	n/a
2372.901	7.158	7158.0	learning	LS2	PICTURE_465.jpg	c	n/a
2380.059	9.246	9246.0	learning	LS2	PICTURE_640.jpg	i	n/a
2389.305	8.776	8776.0	learning	LS2	PICTURE_592.jpg	i	n/a
2398.081	7.700	7700.0	learning	LS3	PICTURE_379.jpg	c	n/a
2405.781	9.307	9307.0	learning	LS3	PICTURE_640.jpg	c	n/a
2415.088	6.761	6761.0	learning	LS3	PICTURE_692.jpg	c	n/a
2421.849	9.486	9486.0	learning	LS3	PICTURE_640.jpg	i	n/a
2431.335	7.418	7418.0	learning	LS3	PICTURE_592.jpg	i	n/a
2438.753	7.907	7907.0	learning	LS3	PICTURE_465.jpg	c	n/a
2446.660	10.312	10312.0	learning	LS3	PICTURE_379.jpg	i	n/a
2456.972	11.119	11119.0	learning	LS3	PICTURE_692.jpg	i	n/a
2468.091	8.730	8730.0	learning	LS3	PICTURE_465.jpg	i	n/a
2476.821	7.460	7460.0	learning	LS3	PICTURE_592.jpg	c	n/a
2484.281	11.662	11662.0	learning	LS4	PICTURE_379.jpg	i	n/a
2495.943	8.794	8794.0	learning	LS4	PICTURE_592.jpg	i	n/a
2504.737	8.801	8801.0	learning	LS4	PICTURE_692.jpg	i	n/a
2513.538	6.412	6412.0	learning	LS4	PICTURE_640.jpg	i	n/a
2519.950	7.385	7385.0	learning	LS4	PICTURE_692.jpg	c	n/a
2527.335	9.151	9151.0	learning	LS4	PICTURE_465.jpg	i	n/a
2536.486	7.719	7719.0	learning	LS4	PICTURE_379.jpg	c	n/a
2544.205	7.087	7087.0	learning	LS4	PICTURE_465.jpg	c	n/a
2551.292	6.779	6779.0	learning	LS4	PICTURE_592.jpg	c	n/a
2558.071	6.788	6788.0	learning	LS4	PICTURE_640.jpg	c	n/a
2564.859	16.574	16574.0	learning	LS1	PICTURE_77.jpg	i	n/a
2581.433	9.710	9710.0	learning	LS1	PICTURE_267.jpg	c	n/a
2591.143	10.517	10517.0	learning	LS1	PICTURE_97.jpg	c	n/a
2601.660	10.841	10841.0	learning	LS1	PICTURE_100.jpg	i	n/a
2612.501	9.735	9735.0	learning	LS1	PICTURE_32.jpg	c	n/a
2622.236	12.619	12619.0	learning	LS1	PICTURE_267.jpg	i	n/a
2634.855	17.581	17581.0	learning	LS1	PICTURE_32.jpg	i	n/a
2652.436	8.802	8802.0	learning	LS1	PICTURE_77.jpg	c	n/a
2661.238	8.971	8971.0	learning	LS1	PICTURE_97.jpg	i	n/a
2670.209	13.136	13136.0	learning	LS1	PICTURE_100.jpg	c	n/a
2683.345	12.537	12537.0	learning	LS2	PICTURE_97.jpg	c	n/a
2695.882	9.347	9347.0	learning	LS2	PICTURE_267.jpg	c	n/a
2705.229	16.066	16066.0	learning	LS2	PICTURE_32.jpg	i	n/a
2721.295	7.923	7923.0	learning	LS2	PICTURE_100.jpg	c	n/a
2729.218	6.334	6334.0	learning	LS2	PICTURE_77.jpg	c	n/a
2735.552	5.701	5701.0	learning	LS2	PICTURE_32.jpg	c	n/a
2741.253	8.910	8910.0	learning	LS2	PICTURE_267.jpg	i	n/a
2750.163	6.844	6844.0	learning	LS2	PICTURE_97.jpg	i	n/a
2757.007	7.811	7811.0	learning	LS2	PICTURE_100.jpg	i	n/a
2764.818	7.504	7504.0	learning	LS2	PICTURE_77.jpg	i	n/a
2772.322	8.176	8176.0	learning	LS3	PICTURE_97.jpg	i	n/a
2780.498	6.746	6746.0	learning	LS3	PICTURE_32.jpg	c	n/a
2787.244	11.228	11228.0	learning	LS3	PICTURE_100.jpg	i	n/a
2798.472	8.839	8839.0	learning	LS3	PICTURE_77.jpg	i	n/a
2807.311	8.049	8049.0	learning	LS3	PICTURE_100.jpg	c	n/a
2815.360	8.694	8694.0	learning	LS3	PICTURE_32.jpg	i	n/a
2824.054	7.584	7584.0	learning	LS3	PICTURE_267.jpg	i	n/a
2831.638	6.636	6636.0	learning	LS3	PICTURE_97.jpg	c	n/a
2838.274	7.610	7610.0	learning	LS3	PICTURE_267.jpg	c	n/a
2845.884	6.816	6816.0	learning	LS3	PICTURE_77.jpg	c	n/a
2852.700	10.052	10052.0	learning	LS4	PICTURE_100.jpg	i	n/a
2862.752	11.656	11656.0	learning	LS4	PICTURE_32.jpg	i	n/a
2874.408	8.310	8310.0	learning	LS4	PICTURE_77.jpg	i	n/a
2882.718	6.881	6881.0	learning	LS4	PICTURE_267.jpg	i	n/a
2889.599	6.890	6890.0	learning	LS4	PICTURE_77.jpg	c	n/a
2896.489	8.969	8969.0	learning	LS4	PICTURE_267.jpg	c	n/a
2905.458	9.778	9778.0	learning	LS4	PICTURE_97.jpg	i	n/a
2915.236	6.750	6750.0	learning	LS4	PICTURE_32.jpg	c	n/a
2921.986	6.918	6918.0	learning	LS4	PICTURE_100.jpg	c	n/a
2928.904	6.926	6926.0	learning	LS4	PICTURE_97.jpg	c	n/a
