onset	duration	response_time_ms	trial_type	learning_stage	stimulus	response_port
24.112	1.333	1332.7	learning	LS1	learning/PICTURE_358.jpg	99
28.681	1.413	1413.5	learning	LS1	learning/PICTURE_165.jpg	99
33.251	1.655	1654.7	learning	LS1	learning/PICTURE_453.jpg	100
37.821	1.56	1559.9	learning	LS1	learning/PICTURE_202.jpg	99
42.407	1.097	1097.1	learning	LS1	learning/PICTURE_148.jpg	99
46.977	2.138	2137.6	learning	LS1	learning/PICTURE_165.jpg	99
51.547	2.618	2618.1	learning	LS1	learning/PICTURE_148.jpg	100
56.117	1.421	1420.7	learning	LS1	learning/PICTURE_358.jpg	100
60.687	1.054	1054.2	learning	LS1	learning/PICTURE_453.jpg	100
65.257	1.12	1119.7	learning	LS1	learning/PICTURE_202.jpg	99
74.346	1.412	1412.2	learning	LS2	learning/PICTURE_165.jpg	99
78.916	0.886	885.9	learning	LS2	learning/PICTURE_358.jpg	99
83.486	0.807	807.2	learning	LS2	learning/PICTURE_453.jpg	99
88.055	1.495	1495.4	learning	LS2	learning/PICTURE_148.jpg	99
92.625	1.544	1544.3	learning	LS2	learning/PICTURE_358.jpg	100
97.195	1.386	1385.8	learning	LS2	learning/PICTURE_202.jpg	99
101.765	1.211	1211.4	learning	LS2	learning/PICTURE_148.jpg	100
106.335	1.644	1644.3	learning	LS2	learning/PICTURE_202.jpg	100
110.904	1.166	1165.7	learning	LS2	learning/PICTURE_165.jpg	99
115.474	1.071	1071.3	learning	LS2	learning/PICTURE_453.jpg	100
124.564	1.379	1379.5	learning	LS3	learning/PICTURE_202.jpg	99
129.133	0.965	964.9	learning	LS3	learning/PICTURE_148.jpg	100
133.703	0.742	742.4	learning	LS3	learning/PICTURE_453.jpg	99
138.273	0.6	599.9	learning	LS3	learning/PICTURE_358.jpg	99
142.843	0.777	777.0	learning	LS3	learning/PICTURE_165.jpg	100
147.413	0.938	938.0	learning	LS3	learning/PICTURE_148.jpg	99
151.982	1.067	1066.8	learning	LS3	learning/PICTURE_165.jpg	99
156.552	0.892	891.9	learning	LS3	learning/PICTURE_202.jpg	100
161.122	0.925	925.1	learning	LS3	learning/PICTURE_453.jpg	100
165.692	0.75	750.5	learning	LS3	learning/PICTURE_358.jpg	100
174.781	0.787	787.1	learning	LS4	learning/PICTURE_148.jpg	99
179.351	1.012	1012.2	learning	LS4	learning/PICTURE_165.jpg	100
183.921	1.141	1141.4	learning	LS4	learning/PICTURE_148.jpg	99
188.491	0.743	743.0	learning	LS4	learning/PICTURE_453.jpg	99
193.06	1.08	1080.0	learning	LS4	learning/PICTURE_202.jpg	99
197.63	0.921	920.9	learning	LS4	learning/PICTURE_358.jpg	100
202.2	0.618	618.4	learning	LS4	learning/PICTURE_453.jpg	100
206.77	0.875	875.2	learning	LS4	learning/PICTURE_202.jpg	100
211.34	0.765	764.6	learning	LS4	learning/PICTURE_358.jpg	99
215.91	1.053	1052.8	learning	LS4	learning/PICTURE_165.jpg	99
243.045	1.375	1375.2	control	LS1	control/PICTURE_338.jpg	100
247.614	0.897	897.2	control	LS1	control/PICTURE_255.jpg	99
252.184	0.723	722.7	control	LS1	control/PICTURE_368.jpg	99
256.754	0.676	676.0	control	LS1	control/PICTURE_391.jpg	99
261.324	0.613	613.0	control	LS1	control/PICTURE_398.jpg	99
265.894	0.822	821.8	control	LS1	control/PICTURE_368.jpg	100
270.464	0.727	727.0	control	LS1	control/PICTURE_398.jpg	100
275.033	0.856	855.9	control	LS1	control/PICTURE_391.jpg	100
279.603	0.697	697.2	control	LS1	control/PICTURE_255.jpg	100
284.173	0.714	714.1	control	LS1	control/PICTURE_338.jpg	99
293.262	0.846	845.9	control	LS2	control/PICTURE_338.jpg	100
297.832	0.639	639.2	control	LS2	control/PICTURE_391.jpg	99
302.402	0.737	736.5	control	LS2	control/PICTURE_398.jpg	100
306.972	0.625	625.5	control	LS2	control/PICTURE_255.jpg	99
311.542	0.595	594.5	control	LS2	control/PICTURE_398.jpg	99
316.111	0.612	611.5	control	LS2	control/PICTURE_368.jpg	99
320.681	0.677	676.7	control	LS2	control/PICTURE_255.jpg	100
325.251	0.662	661.9	control	LS2	control/PICTURE_368.jpg	100
329.821	0.759	759.0	control	LS2	control/PICTURE_391.jpg	100
334.39	0.728	728.4	control	LS2	control/PICTURE_338.jpg	99
343.48	0.812	812.4	control	LS3	control/PICTURE_19.jpg	99
348.05	0.814	813.5	control	LS3	control/PICTURE_185.jpg	99
352.62	0.591	591.2	control	LS3	control/PICTURE_551.jpg	99
357.19	0.576	576.4	control	LS3	control/PICTURE_708.jpg	99
361.759	0.706	705.5	control	LS3	control/PICTURE_551.jpg	100
366.329	0.691	690.6	control	LS3	control/PICTURE_19.jpg	100
370.899	0.627	627.5	control	LS3	control/PICTURE_185.jpg	100
375.469	0.709	708.5	control	LS3	control/PICTURE_343.jpg	99
380.038	0.677	677.5	control	LS3	control/PICTURE_708.jpg	100
384.608	0.646	646.5	control	LS3	control/PICTURE_343.jpg	100
393.698	1.162	1162.4	control	LS4	control/PICTURE_551.jpg	99
398.267	0.636	635.8	control	LS4	control/PICTURE_708.jpg	100
402.837	0.637	637.0	control	LS4	control/PICTURE_19.jpg	100
407.407	0.67	669.9	control	LS4	control/PICTURE_551.jpg	99
411.977	0.815	814.9	control	LS4	control/PICTURE_185.jpg	100
416.547	0.688	688.0	control	LS4	control/PICTURE_343.jpg	99
421.116	0.721	721.3	control	LS4	control/PICTURE_19.jpg	99
425.686	0.802	802.4	control	LS4	control/PICTURE_708.jpg	99
430.256	0.708	707.8	control	LS4	control/PICTURE_185.jpg	99
434.826	0.805	804.8	control	LS4	control/PICTURE_343.jpg	100
461.978	1.126	1126.4	learning	LS1	learning/PICTURE_26.jpg	100
466.548	0.648	648.0	learning	LS1	learning/PICTURE_212.jpg	99
471.117	1.321	1320.6	learning	LS1	learning/PICTURE_659.jpg	99
475.687	1.114	1113.6	learning	LS1	learning/PICTURE_212.jpg	99
480.257	1.179	1178.5	learning	LS1	learning/PICTURE_38.jpg	99
484.827	1.004	1003.9	learning	LS1	learning/PICTURE_654.jpg	100
489.397	1.58	1580.0	learning	LS1	learning/PICTURE_659.jpg	100
493.966	1.661	1661.0	learning	LS1	learning/PICTURE_38.jpg	100
498.536	1.358	1358.1	learning	LS1	learning/PICTURE_26.jpg	99
503.106	1.391	1391.0	learning	LS1	learning/PICTURE_654.jpg	99
512.196	1.203	1203.2	learning	LS2	learning/PICTURE_659.jpg	100
516.765	0.884	884.5	learning	LS2	learning/PICTURE_654.jpg	100
521.335	1.285	1284.8	learning	LS2	learning/PICTURE_659.jpg	99
525.905	1.126	1126.2	learning	LS2	learning/PICTURE_26.jpg	99
530.475	1.511	1511.1	learning	LS2	learning/PICTURE_212.jpg	100
535.044	0.777	777.3	learning	LS2	learning/PICTURE_654.jpg	99
539.614	0.842	842.3	learning	LS2	learning/PICTURE_26.jpg	100
544.184	1.035	1035.3	learning	LS2	learning/PICTURE_38.jpg	99
548.754	0.765	764.9	learning	LS2	learning/PICTURE_212.jpg	99
553.324	0.846	845.9	learning	LS2	learning/PICTURE_38.jpg	100
562.413	0.675	674.6	learning	LS3	learning/PICTURE_38.jpg	99
566.983	0.627	627.5	learning	LS3	learning/PICTURE_654.jpg	99
571.553	0.964	964.1	learning	LS3	learning/PICTURE_212.jpg	100
576.122	0.837	837.1	learning	LS3	learning/PICTURE_659.jpg	100
580.692	0.886	886.2	learning	LS3	learning/PICTURE_38.jpg	100
585.262	0.775	775.5	learning	LS3	learning/PICTURE_212.jpg	99
589.832	0.808	808.3	learning	LS3	learning/PICTURE_26.jpg	99
594.402	0.745	745.3	learning	LS3	learning/PICTURE_654.jpg	100
598.971	0.842	842.1	learning	LS3	learning/PICTURE_26.jpg	100
603.541	0.651	650.9	learning	LS3	learning/PICTURE_659.jpg	99
612.631	0.639	639.1	learning	LS4	learning/PICTURE_654.jpg	99
617.201	0.944	943.8	learning	LS4	learning/PICTURE_659.jpg	100
621.77	0.961	960.7	learning	LS4	learning/PICTURE_26.jpg	100
626.34	0.706	705.8	learning	LS4	learning/PICTURE_659.jpg	99
630.91	0.819	818.8	learning	LS4	learning/PICTURE_654.jpg	100
635.48	0.772	771.9	learning	LS4	learning/PICTURE_26.jpg	99
640.05	0.677	677.4	learning	LS4	learning/PICTURE_38.jpg	100
644.619	0.998	998.1	learning	LS4	learning/PICTURE_212.jpg	100
649.189	0.84	839.6	learning	LS4	learning/PICTURE_38.jpg	99
653.759	0.697	696.7	learning	LS4	learning/PICTURE_212.jpg	99
680.894	0.715	714.5	control	LS1	control/PICTURE_540.jpg	99
685.464	0.924	923.7	control	LS1	control/PICTURE_135.jpg	100
690.034	1.037	1036.8	control	LS1	control/PICTURE_263.jpg	100
694.604	0.719	718.6	control	LS1	control/PICTURE_540.jpg	100
699.173	0.751	751.4	control	LS1	control/PICTURE_263.jpg	99
703.743	1.008	1008.4	control	LS1	control/PICTURE_116.jpg	99
708.313	0.754	753.9	control	LS1	control/PICTURE_491.jpg	99
712.883	0.739	738.9	control	LS1	control/PICTURE_116.jpg	100
717.452	0.788	787.7	control	LS1	control/PICTURE_135.jpg	99
722.022	0.757	756.9	control	LS1	control/PICTURE_491.jpg	100
731.112	0.792	792.4	control	LS2	control/PICTURE_540.jpg	99
735.682	0.634	633.9	control	LS2	control/PICTURE_263.jpg	100
740.251	0.715	714.8	control	LS2	control/PICTURE_116.jpg	99
744.821	0.732	731.7	control	LS2	control/PICTURE_135.jpg	100
749.391	0.701	700.8	control	LS2	control/PICTURE_540.jpg	100
753.961	0.734	733.6	control	LS2	control/PICTURE_116.jpg	100
758.531	0.767	766.7	control	LS2	control/PICTURE_491.jpg	99
763.1	0.688	687.7	control	LS2	control/PICTURE_263.jpg	99
767.67	0.72	720.3	control	LS2	control/PICTURE_491.jpg	100
772.24	0.689	689.4	control	LS2	control/PICTURE_135.jpg	99
781.33	0.965	965.2	control	LS3	control/PICTURE_119.jpg	100
785.916	0.806	806.0	control	LS3	control/PICTURE_111.jpg	99
790.503	0.758	758.4	control	LS3	control/PICTURE_234.jpg	100
795.072	0.887	887.4	control	LS3	control/PICTURE_111.jpg	100
799.642	0.92	920.2	control	LS3	control/PICTURE_621.jpg	100
804.212	0.921	921.3	control	LS3	control/PICTURE_234.jpg	99
808.782	0.667	666.6	control	LS3	control/PICTURE_151.jpg	100
813.351	0.7	699.5	control	LS3	control/PICTURE_119.jpg	99
817.921	0.7	700.0	control	LS3	control/PICTURE_621.jpg	99
822.491	0.829	828.6	control	LS3	control/PICTURE_151.jpg	99
831.581	0.817	816.6	control	LS4	control/PICTURE_621.jpg	99
836.15	0.658	658.0	control	LS4	control/PICTURE_151.jpg	99
840.72	0.739	739.2	control	LS4	control/PICTURE_119.jpg	100
845.29	0.692	692.0	control	LS4	control/PICTURE_234.jpg	100
849.86	0.581	581.0	control	LS4	control/PICTURE_111.jpg	99
854.429	0.63	630.2	control	LS4	control/PICTURE_119.jpg	99
858.999	0.727	727.1	control	LS4	control/PICTURE_621.jpg	100
863.569	0.76	759.8	control	LS4	control/PICTURE_151.jpg	100
868.139	0.824	824.4	control	LS4	control/PICTURE_111.jpg	100
872.709	0.826	825.5	control	LS4	control/PICTURE_234.jpg	99
899.844	1.227	1227.0	learning	LS1	learning/PICTURE_71.jpg	99
904.414	0.908	908.3	learning	LS1	learning/PICTURE_72.jpg	99
908.984	1.037	1037.1	learning	LS1	learning/PICTURE_67.jpg	99
913.553	0.846	846.4	learning	LS1	learning/PICTURE_68.jpg	99
918.123	1.391	1390.8	learning	LS1	learning/PICTURE_72.jpg	100
922.693	0.88	880.2	learning	LS1	learning/PICTURE_71.jpg	99
927.279	1.536	1535.9	learning	LS1	learning/PICTURE_74.jpg	100
931.849	1.489	1489.1	learning	LS1	learning/PICTURE_67.jpg	100
936.419	0.979	978.8	learning	LS1	learning/PICTURE_68.jpg	100
940.989	0.916	916.0	learning	LS1	learning/PICTURE_74.jpg	99
950.078	0.872	871.8	learning	LS2	learning/PICTURE_72.jpg	100
954.648	0.809	808.7	learning	LS2	learning/PICTURE_67.jpg	99
959.218	0.714	713.9	learning	LS2	learning/PICTURE_71.jpg	99
963.788	0.907	907.2	learning	LS2	learning/PICTURE_67.jpg	100
968.357	0.908	908.4	learning	LS2	learning/PICTURE_71.jpg	100
972.927	0.877	877.4	learning	LS2	learning/PICTURE_74.jpg	100
977.497	2.013	2013.1	learning	LS2	learning/PICTURE_68.jpg	99
982.067	0.975	975.2	learning	LS2	learning/PICTURE_72.jpg	99
986.637	1.248	1247.7	learning	LS2	learning/PICTURE_74.jpg	100
991.206	2.016	2015.7	learning	LS2	learning/PICTURE_68.jpg	99
1000.296	1.045	1045.0	learning	LS3	learning/PICTURE_72.jpg	100
1004.866	1.094	1093.7	learning	LS3	learning/PICTURE_74.jpg	100
1009.436	1.03	1030.5	learning	LS3	learning/PICTURE_67.jpg	100
1014.005	0.711	711.4	learning	LS3	learning/PICTURE_71.jpg	99
1018.575	0.729	728.6	learning	LS3	learning/PICTURE_67.jpg	99
1023.145	0.746	745.6	learning	LS3	learning/PICTURE_72.jpg	99
1027.715	0.699	698.7	learning	LS3	learning/PICTURE_68.jpg	99
1032.284	0.843	843.3	learning	LS3	learning/PICTURE_71.jpg	100
1036.854	0.892	892.1	learning	LS3	learning/PICTURE_68.jpg	100
1041.424	0.909	908.7	learning	LS3	learning/PICTURE_74.jpg	99
1050.514	0.785	785.0	learning	LS4	learning/PICTURE_67.jpg	100
1055.083	0.85	849.9	learning	LS4	learning/PICTURE_68.jpg	100
1059.653	0.898	898.5	learning	LS4	learning/PICTURE_67.jpg	99
1064.223	0.819	819.3	learning	LS4	learning/PICTURE_71.jpg	100
1068.793	0.772	772.4	learning	LS4	learning/PICTURE_74.jpg	99
1073.363	0.901	900.9	learning	LS4	learning/PICTURE_71.jpg	99
1077.932	0.886	885.9	learning	LS4	learning/PICTURE_72.jpg	100
1082.502	1.222	1222.3	learning	LS4	learning/PICTURE_74.jpg	100
1087.072	0.552	552.2	learning	LS4	learning/PICTURE_68.jpg	99
1091.642	0.665	664.9	learning	LS4	learning/PICTURE_72.jpg	99
1118.777	0.971	970.6	learning	LS1	learning/PICTURE_203.jpg	99
1123.347	0.78	779.7	learning	LS1	learning/PICTURE_42.jpg	99
1127.917	0.796	796.5	learning	LS1	learning/PICTURE_414.jpg	99
1132.503	0.893	892.8	learning	LS1	learning/PICTURE_224.jpg	99
1137.09	1.069	1069.1	learning	LS1	learning/PICTURE_566.jpg	99
1141.659	0.99	989.9	learning	LS1	learning/PICTURE_42.jpg	99
1146.229	1.247	1247.1	learning	LS1	learning/PICTURE_224.jpg	100
1150.799	1.184	1183.8	learning	LS1	learning/PICTURE_414.jpg	100
1155.369	1.025	1025.1	learning	LS1	learning/PICTURE_566.jpg	100
1159.938	0.834	834.4	learning	LS1	learning/PICTURE_203.jpg	99
1169.028	1.078	1078.4	learning	LS2	learning/PICTURE_566.jpg	100
1173.598	0.967	967.4	learning	LS2	learning/PICTURE_414.jpg	99
1178.168	0.665	664.6	learning	LS2	learning/PICTURE_42.jpg	99
1182.737	1.081	1081.4	learning	LS2	learning/PICTURE_203.jpg	100
1187.307	1.178	1178.0	learning	LS2	learning/PICTURE_414.jpg	100
1191.877	0.923	923.4	learning	LS2	learning/PICTURE_224.jpg	100
1196.447	0.813	812.9	learning	LS2	learning/PICTURE_566.jpg	99
1201.017	0.75	749.8	learning	LS2	learning/PICTURE_42.jpg	100
1205.586	0.703	702.8	learning	LS2	learning/PICTURE_203.jpg	99
1210.156	0.656	655.9	learning	LS2	learning/PICTURE_224.jpg	99
1219.246	0.692	691.7	learning	LS3	learning/PICTURE_42.jpg	99
1223.815	0.9	900.5	learning	LS3	learning/PICTURE_203.jpg	100
1228.385	0.885	885.4	learning	LS3	learning/PICTURE_566.jpg	100
1232.955	0.679	678.7	learning	LS3	learning/PICTURE_414.jpg	100
1237.525	0.632	631.7	learning	LS3	learning/PICTURE_224.jpg	99
1242.095	0.841	840.6	learning	LS3	learning/PICTURE_203.jpg	99
1246.664	1.001	1001.0	learning	LS3	learning/PICTURE_42.jpg	100
1251.234	0.73	730.2	learning	LS3	learning/PICTURE_224.jpg	100
1255.804	0.859	859.0	learning	LS3	learning/PICTURE_566.jpg	99
1260.374	0.748	748.2	learning	LS3	learning/PICTURE_414.jpg	99
1269.463	0.72	720.0	learning	LS4	learning/PICTURE_566.jpg	99
1274.033	0.673	672.9	learning	LS4	learning/PICTURE_203.jpg	99
1278.603	0.802	801.9	learning	LS4	learning/PICTURE_42.jpg	100
1283.173	0.675	675.0	learning	LS4	learning/PICTURE_224.jpg	100
1287.743	0.772	771.9	learning	LS4	learning/PICTURE_42.jpg	99
1292.312	0.789	788.8	learning	LS4	learning/PICTURE_414.jpg	100
1296.882	0.806	806.2	learning	LS4	learning/PICTURE_203.jpg	100
1301.452	0.887	887.1	learning	LS4	learning/PICTURE_566.jpg	100
1306.022	0.696	696.4	learning	LS4	learning/PICTURE_224.jpg	99
1310.591	0.745	745.0	learning	LS4	learning/PICTURE_414.jpg	99
1337.727	1.033	1033.3	learning	LS1	learning/PICTURE_692.jpg	99
1342.296	1.098	1098.3	learning	LS1	learning/PICTURE_640.jpg	99
1346.866	0.875	875.3	learning	LS1	learning/PICTURE_592.jpg	99
1351.453	1.051	1051.1	learning	LS1	learning/PICTURE_465.jpg	99
1356.023	1.563	1563.5	learning	LS1	learning/PICTURE_379.jpg	100
1360.592	1.037	1036.8	learning	LS1	learning/PICTURE_640.jpg	99
1365.162	1.533	1533.2	learning	LS1	learning/PICTURE_592.jpg	100
1369.732	1.39	1390.4	learning	LS1	learning/PICTURE_465.jpg	100
1374.302	1.04	1039.5	learning	LS1	learning/PICTURE_692.jpg	99
1378.871	1.36	1360.1	learning	LS1	learning/PICTURE_379.jpg	100
1387.961	0.789	788.9	learning	LS2	learning/PICTURE_379.jpg	99
1392.531	1.189	1189.2	learning	LS2	learning/PICTURE_640.jpg	99
1397.101	1.158	1158.1	learning	LS2	learning/PICTURE_692.jpg	100
1401.67	0.872	871.6	learning	LS2	learning/PICTURE_465.jpg	100
1406.24	0.745	745.1	learning	LS2	learning/PICTURE_692.jpg	99
1410.81	0.858	858.0	learning	LS2	learning/PICTURE_379.jpg	99
1415.38	1.258	1258.1	learning	LS2	learning/PICTURE_592.jpg	99
1419.95	0.716	715.9	learning	LS2	learning/PICTURE_465.jpg	99
1424.519	0.925	924.6	learning	LS2	learning/PICTURE_640.jpg	100
1429.089	0.878	877.6	learning	LS2	learning/PICTURE_592.jpg	100
1438.179	0.77	769.9	learning	LS3	learning/PICTURE_379.jpg	99
1442.748	0.931	930.8	learning	LS3	learning/PICTURE_640.jpg	99
1447.318	0.676	676.1	learning	LS3	learning/PICTURE_692.jpg	99
1451.888	0.949	948.6	learning	LS3	learning/PICTURE_640.jpg	100
1456.458	0.742	741.8	learning	LS3	learning/PICTURE_592.jpg	100
1461.028	0.791	790.7	learning	LS3	learning/PICTURE_465.jpg	99
1465.598	1.031	1031.2	learning	LS3	learning/PICTURE_379.jpg	100
1470.167	1.112	1111.9	learning	LS3	learning/PICTURE_692.jpg	100
1474.737	0.873	873.0	learning	LS3	learning/PICTURE_465.jpg	100
1479.307	0.746	746.0	learning	LS3	learning/PICTURE_592.jpg	99
1488.396	1.166	1166.2	learning	LS4	learning/PICTURE_379.jpg	100
1492.966	0.879	879.4	learning	LS4	learning/PICTURE_592.jpg	100
1497.536	0.88	880.1	learning	LS4	learning/PICTURE_692.jpg	100
1502.106	0.641	641.2	learning	LS4	learning/PICTURE_640.jpg	100
1506.676	0.739	738.5	learning	LS4	learning/PICTURE_692.jpg	99
1511.245	0.915	915.1	learning	LS4	learning/PICTURE_465.jpg	100
1515.815	0.772	771.9	learning	LS4	learning/PICTURE_379.jpg	99
1520.385	0.709	708.6	learning	LS4	learning/PICTURE_465.jpg	99
1524.955	0.678	677.9	learning	LS4	learning/PICTURE_592.jpg	99
1529.525	0.679	678.8	learning	LS4	learning/PICTURE_640.jpg	99
1538.614	1.657	1657.4	learning	LS1	learning/PICTURE_77.jpg	99
1543.184	0.971	971.0	learning	LS1	learning/PICTURE_267.jpg	99
1547.754	1.052	1051.7	learning	LS1	learning/PICTURE_97.jpg	99
1552.323	1.084	1084.1	learning	LS1	learning/PICTURE_100.jpg	99
1556.893	0.974	973.5	learning	LS1	learning/PICTURE_32.jpg	99
1561.463	1.262	1261.9	learning	LS1	learning/PICTURE_267.jpg	100
1566.033	1.758	1758.0	learning	LS1	learning/PICTURE_32.jpg	100
1570.603	0.88	880.3	learning	LS1	learning/PICTURE_77.jpg	99
1575.172	0.897	897.1	learning	LS1	learning/PICTURE_97.jpg	100
1579.742	1.314	1313.7	learning	LS1	learning/PICTURE_100.jpg	99
1588.832	1.254	1253.7	learning	LS2	learning/PICTURE_97.jpg	99
1593.402	0.935	934.7	learning	LS2	learning/PICTURE_267.jpg	99
1597.971	1.607	1606.5	learning	LS2	learning/PICTURE_32.jpg	99
1602.541	0.792	792.2	learning	LS2	learning/PICTURE_100.jpg	99
1607.111	0.633	633.4	learning	LS2	learning/PICTURE_77.jpg	99
1611.681	0.57	570.1	learning	LS2	learning/PICTURE_32.jpg	99
1616.251	0.891	891.0	learning	LS2	learning/PICTURE_267.jpg	100
1620.82	0.684	684.5	learning	LS2	learning/PICTURE_97.jpg	100
1625.39	0.781	781.2	learning	LS2	learning/PICTURE_100.jpg	100
1629.96	0.75	750.4	learning	LS2	learning/PICTURE_77.jpg	100
1639.05	0.818	817.6	learning	LS3	learning/PICTURE_97.jpg	100
1643.619	0.675	674.6	learning	LS3	learning/PICTURE_32.jpg	99
1648.189	1.123	1122.8	learning	LS3	learning/PICTURE_100.jpg	100
1652.759	0.884	883.9	learning	LS3	learning/PICTURE_77.jpg	100
1657.329	0.805	804.9	learning	LS3	learning/PICTURE_100.jpg	100
1661.898	0.87	869.5	learning	LS3	learning/PICTURE_32.jpg	100
1666.468	0.758	758.4	learning	LS3	learning/PICTURE_267.jpg	100
1671.038	0.664	663.6	learning	LS3	learning/PICTURE_97.jpg	99
1675.608	0.761	760.9	learning	LS3	learning/PICTURE_267.jpg	99
1680.178	0.682	681.6	learning	LS3	learning/PICTURE_77.jpg	99
1689.267	1.005	1005.2	learning	LS4	learning/PICTURE_100.jpg	100
1693.837	1.166	1165.6	learning	LS4	learning/PICTURE_32.jpg	100
1698.407	0.831	831.0	learning	LS4	learning/PICTURE_77.jpg	100
1702.976	0.688	688.2	learning	LS4	learning/PICTURE_267.jpg	100
1707.546	0.689	689.0	learning	LS4	learning/PICTURE_77.jpg	99
1712.133	0.897	896.8	learning	LS4	learning/PICTURE_267.jpg	99
1716.703	0.978	977.8	learning	LS4	learning/PICTURE_97.jpg	100
1721.272	0.675	675.0	learning	LS4	learning/PICTURE_32.jpg	99
1725.842	0.692	691.7	learning	LS4	learning/PICTURE_100.jpg	99
1730.412	0.693	692.7	learning	LS4	learning/PICTURE_97.jpg	99
