onset	duration	accuracy_binary	trial_type	learning_stage	stimulus
0.0	2.238	1	regulate	Run1	regulate/STIM_000.jpg
5.687	3.286	0	regulate	Run1	regulate/STIM_000.jpg
11.202	1.713	1	regulate	Run1	regulate/STIM_000.jpg
15.651	1.301	1	regulate	Run1	regulate/STIM_000.jpg
19.754	3.215	1	regulate	Run1	regulate/STIM_001.jpg
26.302	1.844	1	regulate	Run1	regulate/STIM_001.jpg
31.776	1.504	1	regulate	Run1	regulate/STIM_001.jpg
36.902	1.346	1	regulate	Run1	regulate/STIM_001.jpg
41.617	1.771	1	regulate	Run1	regulate/STIM_002.jpg
45.432	1.719	0	regulate	Run1	regulate/STIM_002.jpg
50.356	3.094	0	regulate	Run1	regulate/STIM_002.jpg
55.867	1.474	1	regulate	Run1	regulate/STIM_002.jpg
60.067	2.446	1	regulate	Run1	regulate/STIM_003.jpg
64.803	2.563	1	regulate	Run1	regulate/STIM_003.jpg
70.138	1.918	1	regulate	Run1	regulate/STIM_003.jpg
75.181	2.829	1	regulate	Run1	regulate/STIM_003.jpg
81.306	2.707	1	regulate	Run1	regulate/STIM_004.jpg
86.754	2.22	1	regulate	Run1	regulate/STIM_004.jpg
91.341	1.84	1	regulate	Run1	regulate/STIM_004.jpg
95.541	1.298	1	regulate	Run1	regulate/STIM_004.jpg
99.109	1.662	1	regulate	Run1	regulate/STIM_005.jpg
102.997	3.131	1	regulate	Run1	regulate/STIM_005.jpg
108.343	1.634	1	regulate	Run1	regulate/STIM_005.jpg
113.741	1.919	1	regulate	Run1	regulate/STIM_005.jpg
117.658	2.004	0	regulate	Run1	regulate/STIM_006.jpg
122.621	2.978	0	regulate	Run1	regulate/STIM_006.jpg
128.288	2.159	1	regulate	Run1	regulate/STIM_006.jpg
133.799	2.233	1	regulate	Run1	regulate/STIM_006.jpg
139.408	3.308	1	regulate	Run1	regulate/STIM_007.jpg
145.922	3.036	1	regulate	Run1	regulate/STIM_007.jpg
151.345	3.094	1	regulate	Run1	regulate/STIM_007.jpg
158.35	1.446	1	regulate	Run1	regulate/STIM_007.jpg
162.426	2.28	0	regulate	Run1	regulate/STIM_008.jpg
167.628	2.621	1	regulate	Run1	regulate/STIM_008.jpg
172.985	2.677	1	regulate	Run1	regulate/STIM_008.jpg
178.121	1.965	1	regulate	Run1	regulate/STIM_008.jpg
182.267	2.281	0	regulate	Run1	regulate/STIM_009.jpg
187.358	3.011	0	regulate	Run1	regulate/STIM_009.jpg
193.358	2.546	0	regulate	Run1	regulate/STIM_009.jpg
198.056	1.87	0	regulate	Run1	regulate/STIM_009.jpg
202.268	2.679	1	regulate	Run1	regulate/STIM_010.jpg
207.202	1.839	1	regulate	Run1	regulate/STIM_010.jpg
211.824	1.496	1	regulate	Run1	regulate/STIM_010.jpg
216.118	2.106	1	regulate	Run1	regulate/STIM_010.jpg
221.33	1.719	0	regulate	Run1	regulate/STIM_011.jpg
225.475	3.338	1	regulate	Run1	regulate/STIM_011.jpg
230.979	2.618	1	regulate	Run1	regulate/STIM_011.jpg
236.903	2.352	1	regulate	Run1	regulate/STIM_011.jpg
242.738	2.354	1	regulate	Run1	regulate/STIM_012.jpg
248.751	2.94	0	regulate	Run1	regulate/STIM_012.jpg
253.712	2.823	1	regulate	Run1	regulate/STIM_012.jpg
259.479	1.922	1	regulate	Run1	regulate/STIM_012.jpg
264.527	3.283	1	regulate	Run1	regulate/STIM_013.jpg
269.808	3.264	1	regulate	Run1	regulate/STIM_013.jpg
276.913	2.289	1	regulate	Run1	regulate/STIM_013.jpg
282.887	2.222	1	regulate	Run1	regulate/STIM_013.jpg
287.181	2.262	1	regulate	Run1	regulate/STIM_014.jpg
292.983	2.298	1	regulate	Run1	regulate/STIM_014.jpg
297.401	1.461	0	regulate	Run1	regulate/STIM_014.jpg
302.451	2.37	1	regulate	Run1	regulate/STIM_014.jpg
307.897	1.595	1	regulate	Run1	regulate/STIM_015.jpg
313.132	2.282	1	regulate	Run1	regulate/STIM_015.jpg
318.326	2.947	0	regulate	Run1	regulate/STIM_015.jpg
324.158	1.501	1	regulate	Run1	regulate/STIM_015.jpg
329.421	3.146	0	regulate	Run1	regulate/STIM_016.jpg
334.583	3.175	0	regulate	Run1	regulate/STIM_016.jpg
341.317	1.84	1	regulate	Run1	regulate/STIM_016.jpg
346.149	1.56	1	regulate	Run1	regulate/STIM_016.jpg
350.609	2.842	1	regulate	Run1	regulate/STIM_017.jpg
356.001	2.528	1	regulate	Run1	regulate/STIM_017.jpg
361.021	3.171	1	regulate	Run1	regulate/STIM_017.jpg
367.327	1.588	1	regulate	Run1	regulate/STIM_017.jpg
372.093	2.269	0	regulate	Run1	regulate/STIM_018.jpg
376.834	2.19	1	regulate	Run1	regulate/STIM_018.jpg
382.855	1.763	1	regulate	Run1	regulate/STIM_018.jpg
387.322	1.382	1	regulate	Run1	regulate/STIM_018.jpg
391.586	3.104	1	regulate	Run1	regulate/STIM_019.jpg
396.825	1.497	1	regulate	Run1	regulate/STIM_019.jpg
402.282	2.797	1	regulate	Run1	regulate/STIM_019.jpg
407.478	1.77	0	regulate	Run1	regulate/STIM_019.jpg
412.096	2.369	1	regulate	Run1	regulate/STIM_020.jpg
416.6	2.043	1	regulate	Run1	regulate/STIM_020.jpg
420.958	3.017	1	regulate	Run1	regulate/STIM_020.jpg
426.605	1.654	1	regulate	Run1	regulate/STIM_020.jpg
430.977	1.666	1	regulate	Run1	regulate/STIM_021.jpg
434.849	2.788	1	regulate	Run1	regulate/STIM_021.jpg
440.325	2.788	1	regulate	Run1	regulate/STIM_021.jpg
446.967	2.398	0	regulate	Run1	regulate/STIM_021.jpg
451.449	2.224	1	regulate	Run1	regulate/STIM_022.jpg
457.063	3.333	1	regulate	Run1	regulate/STIM_022.jpg
463.222	1.536	0	regulate	Run1	regulate/STIM_022.jpg
468.156	1.878	0	regulate	Run1	regulate/STIM_022.jpg
473.538	1.738	1	regulate	Run1	regulate/STIM_023.jpg
478.424	2.746	1	regulate	Run1	regulate/STIM_023.jpg
483.714	1.509	1	regulate	Run1	regulate/STIM_023.jpg
487.497	2.055	1	regulate	Run1	regulate/STIM_023.jpg
493.307	3.217	1	regulate	Run1	regulate/STIM_024.jpg
498.537	1.94	1	regulate	Run1	regulate/STIM_024.jpg
502.604	2.511	1	regulate	Run1	regulate/STIM_024.jpg
507.094	2.63	1	regulate	Run1	regulate/STIM_024.jpg
513.078	1.822	1	regulate	Run1	regulate/STIM_025.jpg
518.738	1.971	1	regulate	Run1	regulate/STIM_025.jpg
523.31	2.683	1	regulate	Run1	regulate/STIM_025.jpg
529.719	1.693	1	regulate	Run1	regulate/STIM_025.jpg
534.528	2.04	1	regulate	Run1	regulate/STIM_026.jpg
539.604	2.382	1	regulate	Run1	regulate/STIM_026.jpg
544.876	2.532	1	regulate	Run1	regulate/STIM_026.jpg
549.64	1.676	1	regulate	Run1	regulate/STIM_026.jpg
554.87	3.133	1	regulate	Run1	regulate/STIM_027.jpg
561.759	2.063	0	regulate	Run1	regulate/STIM_027.jpg
567.686	1.666	0	regulate	Run1	regulate/STIM_027.jpg
571.675	1.467	1	regulate	Run1	regulate/STIM_027.jpg
576.95	3.036	1	regulate	Run1	regulate/STIM_028.jpg
582.012	1.771	1	regulate	Run1	regulate/STIM_028.jpg
586.287	2.731	1	regulate	Run1	regulate/STIM_028.jpg
592.087	2.944	1	regulate	Run1	regulate/STIM_028.jpg
598.107	3.293	1	regulate	Run1	regulate/STIM_029.jpg
603.587	2.864	1	regulate	Run1	regulate/STIM_029.jpg
610.423	2.542	1	regulate	Run1	regulate/STIM_029.jpg
616.306	1.674	1	regulate	Run1	regulate/STIM_029.jpg
620.32	1.148	1	observe	Run1	observe/STIM_000.jpg
624.259	1.436	1	observe	Run1	observe/STIM_000.jpg
628.01	0.814	1	observe	Run1	observe/STIM_000.jpg
632.15	0.967	0	observe	Run1	observe/STIM_000.jpg
635.874	0.856	1	observe	Run1	observe/STIM_001.jpg
640.181	1.369	1	observe	Run1	observe/STIM_001.jpg
645.526	1.064	1	observe	Run1	observe/STIM_001.jpg
649.629	1.501	1	observe	Run1	observe/STIM_001.jpg
654.308	1.518	1	observe	Run1	observe/STIM_002.jpg
658.692	1.252	1	observe	Run1	observe/STIM_002.jpg
662.888	0.948	1	observe	Run1	observe/STIM_002.jpg
666.578	0.954	1	observe	Run1	observe/STIM_002.jpg
670.043	1.179	1	observe	Run1	observe/STIM_003.jpg
673.852	1.612	1	observe	Run1	observe/STIM_003.jpg
678.016	0.842	1	observe	Run1	observe/STIM_003.jpg
681.876	1.372	1	observe	Run1	observe/STIM_003.jpg
685.257	1.01	1	observe	Run1	observe/STIM_004.jpg
689.736	1.27	1	observe	Run1	observe/STIM_004.jpg
694.566	1.24	1	observe	Run1	observe/STIM_004.jpg
699.709	1.506	1	observe	Run1	observe/STIM_004.jpg
703.693	0.975	1	observe	Run1	observe/STIM_005.jpg
708.407	1.445	1	observe	Run1	observe/STIM_005.jpg
713.584	1.205	1	observe	Run1	observe/STIM_005.jpg
717.331	0.98	1	observe	Run1	observe/STIM_005.jpg
721.594	1.575	1	observe	Run1	observe/STIM_006.jpg
725.296	1.251	1	observe	Run1	observe/STIM_006.jpg
729.015	1.426	1	observe	Run1	observe/STIM_006.jpg
733.296	1.341	1	observe	Run1	observe/STIM_006.jpg
738.134	1.084	0	observe	Run1	observe/STIM_007.jpg
741.579	1.297	1	observe	Run1	observe/STIM_007.jpg
746.771	0.94	1	observe	Run1	observe/STIM_007.jpg
751.635	1.496	1	observe	Run1	observe/STIM_007.jpg
756.27	0.974	0	observe	Run1	observe/STIM_008.jpg
759.468	1.353	0	observe	Run1	observe/STIM_008.jpg
763.855	1.064	0	observe	Run1	observe/STIM_008.jpg
767.825	1.435	1	observe	Run1	observe/STIM_008.jpg
773.117	0.878	1	observe	Run1	observe/STIM_009.jpg
777.983	1.03	1	observe	Run1	observe/STIM_009.jpg
781.014	1.603	1	observe	Run1	observe/STIM_009.jpg
786.58	1.022	1	observe	Run1	observe/STIM_009.jpg
790.658	1.05	1	observe	Run1	observe/STIM_010.jpg
794.306	1.121	1	observe	Run1	observe/STIM_010.jpg
797.66	1.0	1	observe	Run1	observe/STIM_010.jpg
802.355	1.185	1	observe	Run1	observe/STIM_010.jpg
806.118	0.851	1	observe	Run1	observe/STIM_011.jpg
809.682	0.976	1	observe	Run1	observe/STIM_011.jpg
813.564	1.246	1	observe	Run1	observe/STIM_011.jpg
817.273	1.438	1	observe	Run1	observe/STIM_011.jpg
822.405	1.549	1	observe	Run1	observe/STIM_012.jpg
826.527	1.579	1	observe	Run1	observe/STIM_012.jpg
830.349	1.304	1	observe	Run1	observe/STIM_012.jpg
833.718	1.42	1	observe	Run1	observe/STIM_012.jpg
839.067	1.146	1	observe	Run1	observe/STIM_013.jpg
843.828	0.905	1	observe	Run1	observe/STIM_013.jpg
847.441	1.5	1	observe	Run1	observe/STIM_013.jpg
852.651	1.227	1	observe	Run1	observe/STIM_013.jpg
857.568	1.076	1	observe	Run1	observe/STIM_014.jpg
861.852	1.1	1	observe	Run1	observe/STIM_014.jpg
865.709	1.311	1	observe	Run1	observe/STIM_014.jpg
869.27	1.022	1	observe	Run1	observe/STIM_014.jpg
872.678	1.091	1	observe	Run1	observe/STIM_015.jpg
877.64	1.27	1	observe	Run1	observe/STIM_015.jpg
882.148	1.255	1	observe	Run1	observe/STIM_015.jpg
886.149	1.265	1	observe	Run1	observe/STIM_015.jpg
891.131	1.131	1	observe	Run1	observe/STIM_016.jpg
895.923	0.856	1	observe	Run1	observe/STIM_016.jpg
900.368	0.817	1	observe	Run1	observe/STIM_016.jpg
903.618	0.979	1	observe	Run1	observe/STIM_016.jpg
908.407	1.43	0	observe	Run1	observe/STIM_017.jpg
912.049	0.945	1	observe	Run1	observe/STIM_017.jpg
915.255	1.414	1	observe	Run1	observe/STIM_017.jpg
918.682	0.927	1	observe	Run1	observe/STIM_017.jpg
922.797	1.419	1	observe	Run1	observe/STIM_018.jpg
927.002	1.444	1	observe	Run1	observe/STIM_018.jpg
930.913	0.93	1	observe	Run1	observe/STIM_018.jpg
935.773	1.398	1	observe	Run1	observe/STIM_018.jpg
940.592	1.2	1	observe	Run1	observe/STIM_019.jpg
944.47	1.178	1	observe	Run1	observe/STIM_019.jpg
949.357	0.92	1	observe	Run1	observe/STIM_019.jpg
954.249	1.103	1	observe	Run1	observe/STIM_019.jpg
958.959	2.596	1	regulate	Run2	regulate/STIM_000.jpg
963.931	2.188	1	regulate	Run2	regulate/STIM_000.jpg
968.935	1.486	1	regulate	Run2	regulate/STIM_000.jpg
974.273	2.38	0	regulate	Run2	regulate/STIM_000.jpg
978.765	1.639	0	regulate	Run2	regulate/STIM_001.jpg
982.898	1.345	1	regulate	Run2	regulate/STIM_001.jpg
986.768	1.922	1	regulate	Run2	regulate/STIM_001.jpg
992.429	1.504	0	regulate	Run2	regulate/STIM_001.jpg
996.902	2.82	1	regulate	Run2	regulate/STIM_002.jpg
1002.431	2.033	1	regulate	Run2	regulate/STIM_002.jpg
1006.642	2.472	1	regulate	Run2	regulate/STIM_002.jpg
1011.918	2.022	0	regulate	Run2	regulate/STIM_002.jpg
1016.928	2.49	1	regulate	Run2	regulate/STIM_003.jpg
1022.582	2.69	1	regulate	Run2	regulate/STIM_003.jpg
1027.353	2.286	1	regulate	Run2	regulate/STIM_003.jpg
1033.013	1.268	1	regulate	Run2	regulate/STIM_003.jpg
1037.538	2.463	1	regulate	Run2	regulate/STIM_004.jpg
1043.967	2.299	1	regulate	Run2	regulate/STIM_004.jpg
1048.379	1.737	1	regulate	Run2	regulate/STIM_004.jpg
1053.02	1.871	1	regulate	Run2	regulate/STIM_004.jpg
1057.854	2.944	1	regulate	Run2	regulate/STIM_005.jpg
1063.799	2.273	1	regulate	Run2	regulate/STIM_005.jpg
1069.62	1.533	1	regulate	Run2	regulate/STIM_005.jpg
1073.245	1.71	1	regulate	Run2	regulate/STIM_005.jpg
1077.409	2.797	1	regulate	Run2	regulate/STIM_006.jpg
1083.837	2.385	1	regulate	Run2	regulate/STIM_006.jpg
1089.1	2.555	1	regulate	Run2	regulate/STIM_006.jpg
1093.919	2.065	0	regulate	Run2	regulate/STIM_006.jpg
1098.241	1.374	1	regulate	Run2	regulate/STIM_007.jpg
1102.802	1.941	1	regulate	Run2	regulate/STIM_007.jpg
1107.889	1.265	1	regulate	Run2	regulate/STIM_007.jpg
1111.888	1.709	1	regulate	Run2	regulate/STIM_007.jpg
1115.644	2.026	1	regulate	Run2	regulate/STIM_008.jpg
1120.868	1.426	1	regulate	Run2	regulate/STIM_008.jpg
1125.279	2.544	1	regulate	Run2	regulate/STIM_008.jpg
1131.498	1.157	1	regulate	Run2	regulate/STIM_008.jpg
1136.542	2.018	1	regulate	Run2	regulate/STIM_009.jpg
1140.742	2.748	1	regulate	Run2	regulate/STIM_009.jpg
1146.056	1.141	0	regulate	Run2	regulate/STIM_009.jpg
1150.346	1.482	1	regulate	Run2	regulate/STIM_009.jpg
1154.986	2.836	1	regulate	Run2	regulate/STIM_010.jpg
1160.1	2.684	0	regulate	Run2	regulate/STIM_010.jpg
1165.668	2.24	1	regulate	Run2	regulate/STIM_010.jpg
1170.463	2.268	1	regulate	Run2	regulate/STIM_010.jpg
1175.068	2.761	1	regulate	Run2	regulate/STIM_011.jpg
1180.416	2.559	1	regulate	Run2	regulate/STIM_011.jpg
1184.954	1.316	1	regulate	Run2	regulate/STIM_011.jpg
1189.948	2.336	1	regulate	Run2	regulate/STIM_011.jpg
1195.238	1.434	1	regulate	Run2	regulate/STIM_012.jpg
1199.038	1.355	1	regulate	Run2	regulate/STIM_012.jpg
1203.584	2.047	1	regulate	Run2	regulate/STIM_012.jpg
1208.228	1.714	1	regulate	Run2	regulate/STIM_012.jpg
1213.004	1.934	1	regulate	Run2	regulate/STIM_013.jpg
1218.898	2.132	1	regulate	Run2	regulate/STIM_013.jpg
1224.319	2.547	1	regulate	Run2	regulate/STIM_013.jpg
1230.506	2.304	0	regulate	Run2	regulate/STIM_013.jpg
1235.246	2.589	1	regulate	Run2	regulate/STIM_014.jpg
1240.872	1.332	1	regulate	Run2	regulate/STIM_014.jpg
1244.44	1.325	1	regulate	Run2	regulate/STIM_014.jpg
1249.304	1.412	0	regulate	Run2	regulate/STIM_014.jpg
1253.69	1.664	1	regulate	Run2	regulate/STIM_015.jpg
1259.264	2.229	1	regulate	Run2	regulate/STIM_015.jpg
1263.981	1.273	1	regulate	Run2	regulate/STIM_015.jpg
1267.521	1.086	1	regulate	Run2	regulate/STIM_015.jpg
1271.554	1.962	1	regulate	Run2	regulate/STIM_016.jpg
1276.063	2.152	1	regulate	Run2	regulate/STIM_016.jpg
1280.723	2.234	1	regulate	Run2	regulate/STIM_016.jpg
1286.397	2.174	1	regulate	Run2	regulate/STIM_016.jpg
1291.002	2.122	1	regulate	Run2	regulate/STIM_017.jpg
1295.751	2.548	1	regulate	Run2	regulate/STIM_017.jpg
1301.105	1.893	1	regulate	Run2	regulate/STIM_017.jpg
1306.022	1.292	1	regulate	Run2	regulate/STIM_017.jpg
1311.054	2.872	1	regulate	Run2	regulate/STIM_018.jpg
1316.19	1.27	1	regulate	Run2	regulate/STIM_018.jpg
1321.13	2.579	1	regulate	Run2	regulate/STIM_018.jpg
1327.218	2.039	1	regulate	Run2	regulate/STIM_018.jpg
1331.457	1.717	1	regulate	Run2	regulate/STIM_019.jpg
1336.291	1.596	1	regulate	Run2	regulate/STIM_019.jpg
1341.267	2.219	1	regulate	Run2	regulate/STIM_019.jpg
1346.368	1.515	1	regulate	Run2	regulate/STIM_019.jpg
1351.242	2.604	1	regulate	Run2	regulate/STIM_020.jpg
1356.892	1.797	1	regulate	Run2	regulate/STIM_020.jpg
1361.907	2.603	1	regulate	Run2	regulate/STIM_020.jpg
1366.723	1.853	1	regulate	Run2	regulate/STIM_020.jpg
1371.628	2.816	1	regulate	Run2	regulate/STIM_021.jpg
1378.141	1.308	1	regulate	Run2	regulate/STIM_021.jpg
1381.587	1.536	1	regulate	Run2	regulate/STIM_021.jpg
1385.975	1.74	1	regulate	Run2	regulate/STIM_021.jpg
1390.01	2.29	1	regulate	Run2	regulate/STIM_022.jpg
1394.942	2.36	1	regulate	Run2	regulate/STIM_022.jpg
1400.293	2.178	1	regulate	Run2	regulate/STIM_022.jpg
1405.795	1.24	1	regulate	Run2	regulate/STIM_022.jpg
1410.126	2.673	1	regulate	Run2	regulate/STIM_023.jpg
1415.989	2.752	1	regulate	Run2	regulate/STIM_023.jpg
1421.943	2.014	1	regulate	Run2	regulate/STIM_023.jpg
1427.095	1.454	1	regulate	Run2	regulate/STIM_023.jpg
1432.509	1.303	1	regulate	Run2	regulate/STIM_024.jpg
1436.499	2.672	1	regulate	Run2	regulate/STIM_024.jpg
1442.428	1.692	1	regulate	Run2	regulate/STIM_024.jpg
1447.938	1.91	1	regulate	Run2	regulate/STIM_024.jpg
1452.344	1.355	1	regulate	Run2	regulate/STIM_025.jpg
1456.701	1.501	1	regulate	Run2	regulate/STIM_025.jpg
1460.766	1.424	1	regulate	Run2	regulate/STIM_025.jpg
1465.623	2.436	1	regulate	Run2	regulate/STIM_025.jpg
1470.854	1.667	1	regulate	Run2	regulate/STIM_026.jpg
1475.754	1.342	1	regulate	Run2	regulate/STIM_026.jpg
1479.686	1.707	1	regulate	Run2	regulate/STIM_026.jpg
1484.556	1.391	1	regulate	Run2	regulate/STIM_026.jpg
1489.648	2.684	1	regulate	Run2	regulate/STIM_027.jpg
1494.623	1.462	1	regulate	Run2	regulate/STIM_027.jpg
1499.21	1.308	0	regulate	Run2	regulate/STIM_027.jpg
1504.12	2.38	1	regulate	Run2	regulate/STIM_027.jpg
1509.139	1.45	1	regulate	Run2	regulate/STIM_028.jpg
1513.392	1.76	1	regulate	Run2	regulate/STIM_028.jpg
1517.795	2.495	1	regulate	Run2	regulate/STIM_028.jpg
1524.224	1.895	1	regulate	Run2	regulate/STIM_028.jpg
1528.82	1.846	0	regulate	Run2	regulate/STIM_029.jpg
1533.478	1.83	1	regulate	Run2	regulate/STIM_029.jpg
1539.154	1.948	1	regulate	Run2	regulate/STIM_029.jpg
1544.048	2.211	1	regulate	Run2	regulate/STIM_029.jpg
1548.585	1.095	1	observe	Run2	observe/STIM_000.jpg
1552.201	1.499	1	observe	Run2	observe/STIM_000.jpg
1556.481	1.462	1	observe	Run2	observe/STIM_000.jpg
1561.011	1.607	1	observe	Run2	observe/STIM_000.jpg
1565.851	0.88	1	observe	Run2	observe/STIM_001.jpg
1569.068	0.97	1	observe	Run2	observe/STIM_001.jpg
1573.787	1.22	1	observe	Run2	observe/STIM_001.jpg
1577.948	1.173	1	observe	Run2	observe/STIM_001.jpg
1581.805	1.122	1	observe	Run2	observe/STIM_002.jpg
1585.768	1.527	1	observe	Run2	observe/STIM_002.jpg
1589.93	1.195	1	observe	Run2	observe/STIM_002.jpg
1593.592	1.438	1	observe	Run2	observe/STIM_002.jpg
1597.142	1.096	1	observe	Run2	observe/STIM_003.jpg
1600.816	1.046	1	observe	Run2	observe/STIM_003.jpg
1605.62	0.869	1	observe	Run2	observe/STIM_003.jpg
1609.827	0.941	1	observe	Run2	observe/STIM_003.jpg
1613.221	0.907	1	observe	Run2	observe/STIM_004.jpg
1617.482	1.278	1	observe	Run2	observe/STIM_004.jpg
1621.442	0.845	1	observe	Run2	observe/STIM_004.jpg
1626.112	0.87	1	observe	Run2	observe/STIM_004.jpg
1630.527	1.363	1	observe	Run2	observe/STIM_005.jpg
1635.604	0.976	1	observe	Run2	observe/STIM_005.jpg
1640.477	1.433	1	observe	Run2	observe/STIM_005.jpg
1645.093	1.499	1	observe	Run2	observe/STIM_005.jpg
1650.499	0.945	0	observe	Run2	observe/STIM_006.jpg
1654.754	1.077	0	observe	Run2	observe/STIM_006.jpg
1657.999	0.958	1	observe	Run2	observe/STIM_006.jpg
1661.868	1.315	1	observe	Run2	observe/STIM_006.jpg
1666.121	0.819	0	observe	Run2	observe/STIM_007.jpg
1670.876	0.931	1	observe	Run2	observe/STIM_007.jpg
1674.69	1.343	1	observe	Run2	observe/STIM_007.jpg
1679.77	1.542	0	observe	Run2	observe/STIM_007.jpg
1685.262	1.498	1	observe	Run2	observe/STIM_008.jpg
1690.498	1.272	1	observe	Run2	observe/STIM_008.jpg
1694.04	0.942	1	observe	Run2	observe/STIM_008.jpg
1697.642	0.852	1	observe	Run2	observe/STIM_008.jpg
1701.169	1.155	1	observe	Run2	observe/STIM_009.jpg
1705.945	1.179	1	observe	Run2	observe/STIM_009.jpg
1709.384	1.09	1	observe	Run2	observe/STIM_009.jpg
1713.258	1.446	1	observe	Run2	observe/STIM_009.jpg
1718.255	1.375	1	observe	Run2	observe/STIM_010.jpg
1722.539	1.322	1	observe	Run2	observe/STIM_010.jpg
1727.238	1.034	1	observe	Run2	observe/STIM_010.jpg
1731.119	1.017	1	observe	Run2	observe/STIM_010.jpg
1736.035	1.224	1	observe	Run2	observe/STIM_011.jpg
1739.805	1.281	1	observe	Run2	observe/STIM_011.jpg
1743.134	1.452	1	observe	Run2	observe/STIM_011.jpg
1747.833	1.555	1	observe	Run2	observe/STIM_011.jpg
1752.738	1.374	1	observe	Run2	observe/STIM_012.jpg
1757.254	0.939	1	observe	Run2	observe/STIM_012.jpg
1760.381	1.207	1	observe	Run2	observe/STIM_012.jpg
1763.619	0.987	1	observe	Run2	observe/STIM_012.jpg
1767.377	1.545	1	observe	Run2	observe/STIM_013.jpg
1771.111	1.25	1	observe	Run2	observe/STIM_013.jpg
1774.417	0.966	1	observe	Run2	observe/STIM_013.jpg
1778.68	1.285	0	observe	Run2	observe/STIM_013.jpg
1783.263	1.349	1	observe	Run2	observe/STIM_014.jpg
1786.992	1.038	1	observe	Run2	observe/STIM_014.jpg
1791.379	1.351	1	observe	Run2	observe/STIM_014.jpg
1796.348	0.837	1	observe	Run2	observe/STIM_014.jpg
1800.972	0.925	1	observe	Run2	observe/STIM_015.jpg
1805.514	1.448	1	observe	Run2	observe/STIM_015.jpg
1810.456	1.598	1	observe	Run2	observe/STIM_015.jpg
1814.062	1.006	1	observe	Run2	observe/STIM_015.jpg
1818.431	1.317	1	observe	Run2	observe/STIM_016.jpg
1822.45	1.226	1	observe	Run2	observe/STIM_016.jpg
1827.612	0.853	1	observe	Run2	observe/STIM_016.jpg
1830.967	1.333	1	observe	Run2	observe/STIM_016.jpg
1834.645	1.127	1	observe	Run2	observe/STIM_017.jpg
1838.505	0.814	1	observe	Run2	observe/STIM_017.jpg
1843.004	1.612	1	observe	Run2	observe/STIM_017.jpg
1848.162	0.82	0	observe	Run2	observe/STIM_017.jpg
1851.108	1.093	1	observe	Run2	observe/STIM_018.jpg
1855.458	1.612	1	observe	Run2	observe/STIM_018.jpg
1860.258	1.432	1	observe	Run2	observe/STIM_018.jpg
1864.034	0.898	1	observe	Run2	observe/STIM_018.jpg
1867.901	1.536	1	observe	Run2	observe/STIM_019.jpg
1872.912	1.314	1	observe	Run2	observe/STIM_019.jpg
1877.074	1.192	0	observe	Run2	observe/STIM_019.jpg
1881.861	1.564	1	observe	Run2	observe/STIM_019.jpg
1887.271	2.033	1	regulate	Run3	regulate/STIM_000.jpg
1893.22	1.912	1	regulate	Run3	regulate/STIM_000.jpg
1897.932	1.397	1	regulate	Run3	regulate/STIM_000.jpg
1901.328	1.943	1	regulate	Run3	regulate/STIM_000.jpg
1906.89	1.077	1	regulate	Run3	regulate/STIM_001.jpg
1910.194	2.275	1	regulate	Run3	regulate/STIM_001.jpg
1915.805	1.624	1	regulate	Run3	regulate/STIM_001.jpg
1921.333	2.227	1	regulate	Run3	regulate/STIM_001.jpg
1925.798	2.202	1	regulate	Run3	regulate/STIM_002.jpg
1931.774	2.107	1	regulate	Run3	regulate/STIM_002.jpg
1937.77	1.515	1	regulate	Run3	regulate/STIM_002.jpg
1942.803	1.777	1	regulate	Run3	regulate/STIM_002.jpg
1947.912	1.421	1	regulate	Run3	regulate/STIM_003.jpg
1952.969	1.456	1	regulate	Run3	regulate/STIM_003.jpg
1957.925	2.277	1	regulate	Run3	regulate/STIM_003.jpg
1963.658	1.071	1	regulate	Run3	regulate/STIM_003.jpg
1968.174	2.009	1	regulate	Run3	regulate/STIM_004.jpg
1972.85	1.652	1	regulate	Run3	regulate/STIM_004.jpg
1977.625	2.339	1	regulate	Run3	regulate/STIM_004.jpg
1982.45	2.43	1	regulate	Run3	regulate/STIM_004.jpg
1988.4	1.216	1	regulate	Run3	regulate/STIM_005.jpg
1992.01	2.075	1	regulate	Run3	regulate/STIM_005.jpg
1997.31	1.471	1	regulate	Run3	regulate/STIM_005.jpg
2000.863	2.049	1	regulate	Run3	regulate/STIM_005.jpg
2006.892	2.242	1	regulate	Run3	regulate/STIM_006.jpg
2012.987	2.019	1	regulate	Run3	regulate/STIM_006.jpg
2017.516	1.48	1	regulate	Run3	regulate/STIM_006.jpg
2022.777	2.36	1	regulate	Run3	regulate/STIM_006.jpg
2027.848	1.991	0	regulate	Run3	regulate/STIM_007.jpg
2032.537	1.781	1	regulate	Run3	regulate/STIM_007.jpg
2036.524	2.417	1	regulate	Run3	regulate/STIM_007.jpg
2042.766	1.912	1	regulate	Run3	regulate/STIM_007.jpg
2047.19	2.279	0	regulate	Run3	regulate/STIM_008.jpg
2053.017	1.96	1	regulate	Run3	regulate/STIM_008.jpg
2057.266	1.121	1	regulate	Run3	regulate/STIM_008.jpg
2061.004	1.768	1	regulate	Run3	regulate/STIM_008.jpg
2065.381	1.536	1	regulate	Run3	regulate/STIM_009.jpg
2070.811	1.494	0	regulate	Run3	regulate/STIM_009.jpg
2075.366	1.433	1	regulate	Run3	regulate/STIM_009.jpg
2079.313	1.162	1	regulate	Run3	regulate/STIM_009.jpg
2083.078	1.907	1	regulate	Run3	regulate/STIM_010.jpg
2088.533	1.451	1	regulate	Run3	regulate/STIM_010.jpg
2092.241	1.389	1	regulate	Run3	regulate/STIM_010.jpg
2097.295	1.695	1	regulate	Run3	regulate/STIM_010.jpg
2101.387	1.967	1	regulate	Run3	regulate/STIM_011.jpg
2105.628	1.952	0	regulate	Run3	regulate/STIM_011.jpg
2111.39	2.426	1	regulate	Run3	regulate/STIM_011.jpg
2115.966	1.676	1	regulate	Run3	regulate/STIM_011.jpg
2121.128	1.779	1	regulate	Run3	regulate/STIM_012.jpg
2126.186	1.312	1	regulate	Run3	regulate/STIM_012.jpg
2131.45	1.898	1	regulate	Run3	regulate/STIM_012.jpg
2135.431	1.729	1	regulate	Run3	regulate/STIM_012.jpg
2139.844	1.537	1	regulate	Run3	regulate/STIM_013.jpg
2143.683	1.651	0	regulate	Run3	regulate/STIM_013.jpg
2148.056	1.126	1	regulate	Run3	regulate/STIM_013.jpg
2153.044	1.742	1	regulate	Run3	regulate/STIM_013.jpg
2158.61	1.152	1	regulate	Run3	regulate/STIM_014.jpg
2162.009	1.715	1	regulate	Run3	regulate/STIM_014.jpg
2166.254	1.507	1	regulate	Run3	regulate/STIM_014.jpg
2170.919	1.676	1	regulate	Run3	regulate/STIM_014.jpg
2176.531	2.142	1	regulate	Run3	regulate/STIM_015.jpg
2182.202	1.633	1	regulate	Run3	regulate/STIM_015.jpg
2187.496	1.846	1	regulate	Run3	regulate/STIM_015.jpg
2192.973	1.698	1	regulate	Run3	regulate/STIM_015.jpg
2198.211	1.496	1	regulate	Run3	regulate/STIM_016.jpg
2202.531	2.015	1	regulate	Run3	regulate/STIM_016.jpg
2207.086	1.679	1	regulate	Run3	regulate/STIM_016.jpg
2212.12	1.429	1	regulate	Run3	regulate/STIM_016.jpg
2215.613	1.101	1	regulate	Run3	regulate/STIM_017.jpg
2220.562	1.463	1	regulate	Run3	regulate/STIM_017.jpg
2224.639	1.684	0	regulate	Run3	regulate/STIM_017.jpg
2229.569	1.561	1	regulate	Run3	regulate/STIM_017.jpg
2233.73	1.348	1	regulate	Run3	regulate/STIM_018.jpg
2238.345	2.386	1	regulate	Run3	regulate/STIM_018.jpg
2243.352	2.102	1	regulate	Run3	regulate/STIM_018.jpg
2247.633	2.023	1	regulate	Run3	regulate/STIM_018.jpg
2253.569	1.439	1	regulate	Run3	regulate/STIM_019.jpg
2258.957	2.357	1	regulate	Run3	regulate/STIM_019.jpg
2264.28	2.404	1	regulate	Run3	regulate/STIM_019.jpg
2269.909	2.006	1	regulate	Run3	regulate/STIM_019.jpg
2275.236	1.46	0	regulate	Run3	regulate/STIM_020.jpg
2280.5	1.682	1	regulate	Run3	regulate/STIM_020.jpg
2286.074	1.807	1	regulate	Run3	regulate/STIM_020.jpg
2291.271	1.339	1	regulate	Run3	regulate/STIM_020.jpg
2295.6	1.452	1	regulate	Run3	regulate/STIM_021.jpg
2300.375	2.3	1	regulate	Run3	regulate/STIM_021.jpg
2305.517	1.854	1	regulate	Run3	regulate/STIM_021.jpg
2310.85	1.94	1	regulate	Run3	regulate/STIM_021.jpg
2316.763	2.464	1	regulate	Run3	regulate/STIM_022.jpg
2321.415	2.339	1	regulate	Run3	regulate/STIM_022.jpg
2326.985	1.698	1	regulate	Run3	regulate/STIM_022.jpg
2330.695	1.742	1	regulate	Run3	regulate/STIM_022.jpg
2335.605	1.113	1	regulate	Run3	regulate/STIM_023.jpg
2339.798	1.785	1	regulate	Run3	regulate/STIM_023.jpg
2344.979	1.56	1	regulate	Run3	regulate/STIM_023.jpg
2349.94	1.21	1	regulate	Run3	regulate/STIM_023.jpg
2354.167	1.59	1	regulate	Run3	regulate/STIM_024.jpg
2358.528	1.574	1	regulate	Run3	regulate/STIM_024.jpg
2362.748	2.048	1	regulate	Run3	regulate/STIM_024.jpg
2368.77	2.261	1	regulate	Run3	regulate/STIM_024.jpg
2374.122	2.45	0	regulate	Run3	regulate/STIM_025.jpg
2380.548	1.244	1	regulate	Run3	regulate/STIM_025.jpg
2384.667	1.286	1	regulate	Run3	regulate/STIM_025.jpg
2388.276	2.292	1	regulate	Run3	regulate/STIM_025.jpg
2392.578	1.413	1	regulate	Run3	regulate/STIM_026.jpg
2397.29	1.627	0	regulate	Run3	regulate/STIM_026.jpg
2401.443	1.874	1	regulate	Run3	regulate/STIM_026.jpg
2405.982	2.247	1	regulate	Run3	regulate/STIM_026.jpg
2411.165	2.134	1	regulate	Run3	regulate/STIM_027.jpg
2416.522	2.173	0	regulate	Run3	regulate/STIM_027.jpg
2422.502	2.434	1	regulate	Run3	regulate/STIM_027.jpg
2427.595	1.39	1	regulate	Run3	regulate/STIM_027.jpg
2431.606	1.806	1	regulate	Run3	regulate/STIM_028.jpg
2435.91	1.729	1	regulate	Run3	regulate/STIM_028.jpg
2440.387	1.06	1	regulate	Run3	regulate/STIM_028.jpg
2444.223	1.279	1	regulate	Run3	regulate/STIM_028.jpg
2448.528	1.273	1	regulate	Run3	regulate/STIM_029.jpg
2452.669	1.559	1	regulate	Run3	regulate/STIM_029.jpg
2456.375	2.277	1	regulate	Run3	regulate/STIM_029.jpg
2462.383	1.563	1	regulate	Run3	regulate/STIM_029.jpg
2467.426	1.538	1	observe	Run3	observe/STIM_000.jpg
2470.958	1.29	1	observe	Run3	observe/STIM_000.jpg
2474.575	1.128	1	observe	Run3	observe/STIM_000.jpg
2479.016	1.232	1	observe	Run3	observe/STIM_000.jpg
2482.709	1.431	1	observe	Run3	observe/STIM_001.jpg
2486.476	1.428	1	observe	Run3	observe/STIM_001.jpg
2490.675	1.04	1	observe	Run3	observe/STIM_001.jpg
2495.266	1.378	1	observe	Run3	observe/STIM_001.jpg
2499.083	0.992	1	observe	Run3	observe/STIM_002.jpg
2502.172	1.38	1	observe	Run3	observe/STIM_002.jpg
2506.452	0.894	1	observe	Run3	observe/STIM_002.jpg
2510.386	1.124	1	observe	Run3	observe/STIM_002.jpg
2513.86	1.401	1	observe	Run3	observe/STIM_003.jpg
2518.251	1.277	0	observe	Run3	observe/STIM_003.jpg
2523.172	1.371	1	observe	Run3	observe/STIM_003.jpg
2528.221	1.48	1	observe	Run3	observe/STIM_003.jpg
2532.664	1.396	1	observe	Run3	observe/STIM_004.jpg
2537.051	1.065	1	observe	Run3	observe/STIM_004.jpg
2542.029	1.45	1	observe	Run3	observe/STIM_004.jpg
2546.246	1.298	1	observe	Run3	observe/STIM_004.jpg
2549.564	1.38	1	observe	Run3	observe/STIM_005.jpg
2552.971	0.937	1	observe	Run3	observe/STIM_005.jpg
2556.038	0.822	1	observe	Run3	observe/STIM_005.jpg
2558.948	1.232	1	observe	Run3	observe/STIM_005.jpg
2563.242	0.962	0	observe	Run3	observe/STIM_006.jpg
2566.873	1.44	1	observe	Run3	observe/STIM_006.jpg
2570.864	1.478	1	observe	Run3	observe/STIM_006.jpg
2574.423	1.164	1	observe	Run3	observe/STIM_006.jpg
2578.404	1.144	1	observe	Run3	observe/STIM_007.jpg
2582.104	1.237	1	observe	Run3	observe/STIM_007.jpg
2585.664	1.319	1	observe	Run3	observe/STIM_007.jpg
2589.546	0.965	0	observe	Run3	observe/STIM_007.jpg
2592.59	1.352	1	observe	Run3	observe/STIM_008.jpg
2597.632	0.983	1	observe	Run3	observe/STIM_008.jpg
2602.546	1.447	1	observe	Run3	observe/STIM_008.jpg
2606.35	1.31	1	observe	Run3	observe/STIM_008.jpg
2611.252	1.274	1	observe	Run3	observe/STIM_009.jpg
2614.919	1.527	1	observe	Run3	observe/STIM_009.jpg
2619.223	1.518	1	observe	Run3	observe/STIM_009.jpg
2624.165	1.15	0	observe	Run3	observe/STIM_009.jpg
2627.812	1.242	1	observe	Run3	observe/STIM_010.jpg
2631.285	0.852	1	observe	Run3	observe/STIM_010.jpg
2634.932	1.329	1	observe	Run3	observe/STIM_010.jpg
2638.653	1.057	1	observe	Run3	observe/STIM_010.jpg
2642.582	1.52	1	observe	Run3	observe/STIM_011.jpg
2646.44	1.2	1	observe	Run3	observe/STIM_011.jpg
2650.473	1.434	1	observe	Run3	observe/STIM_011.jpg
2655.646	0.965	1	observe	Run3	observe/STIM_011.jpg
2660.316	1.384	1	observe	Run3	observe/STIM_012.jpg
2665.032	1.026	1	observe	Run3	observe/STIM_012.jpg
2668.971	1.583	1	observe	Run3	observe/STIM_012.jpg
2674.331	1.112	1	observe	Run3	observe/STIM_012.jpg
2678.578	1.062	1	observe	Run3	observe/STIM_013.jpg
2683.109	1.389	1	observe	Run3	observe/STIM_013.jpg
2688.081	0.943	1	observe	Run3	observe/STIM_013.jpg
2692.37	1.304	1	observe	Run3	observe/STIM_013.jpg
2696.407	1.562	1	observe	Run3	observe/STIM_014.jpg
2700.376	1.18	0	observe	Run3	observe/STIM_014.jpg
2705.082	1.552	1	observe	Run3	observe/STIM_014.jpg
2708.917	0.889	0	observe	Run3	observe/STIM_014.jpg
2711.954	1.134	1	observe	Run3	observe/STIM_015.jpg
2716.535	1.049	0	observe	Run3	observe/STIM_015.jpg
2719.967	1.378	1	observe	Run3	observe/STIM_015.jpg
2724.743	1.214	1	observe	Run3	observe/STIM_015.jpg
2729.549	1.411	1	observe	Run3	observe/STIM_016.jpg
2734.215	1.203	1	observe	Run3	observe/STIM_016.jpg
2739.01	1.0	1	observe	Run3	observe/STIM_016.jpg
2743.885	1.036	1	observe	Run3	observe/STIM_016.jpg
2748.537	1.312	1	observe	Run3	observe/STIM_017.jpg
2751.843	0.958	1	observe	Run3	observe/STIM_017.jpg
2755.518	1.418	1	observe	Run3	observe/STIM_017.jpg
2760.147	1.376	1	observe	Run3	observe/STIM_017.jpg
2765.122	1.538	1	observe	Run3	observe/STIM_018.jpg
2769.423	0.894	1	observe	Run3	observe/STIM_018.jpg
2772.773	0.841	0	observe	Run3	observe/STIM_018.jpg
2777.005	1.324	1	observe	Run3	observe/STIM_018.jpg
2781.831	1.535	1	observe	Run3	observe/STIM_019.jpg
2785.447	1.0	1	observe	Run3	observe/STIM_019.jpg
2789.858	1.585	1	observe	Run3	observe/STIM_019.jpg
2793.771	1.526	1	observe	Run3	observe/STIM_019.jpg
