onset	duration	accuracy	trial_type	learning_stage	stimulus
0.0	1.572	correct	regulate	Run1	regulate/STIM_000.jpg
3.973	2.31	correct	regulate	Run1	regulate/STIM_000.jpg
8.538	2.312	correct	regulate	Run1	regulate/STIM_000.jpg
13.026	1.971	correct	regulate	Run1	regulate/STIM_000.jpg
18.585	3.383	correct	regulate	Run1	regulate/STIM_001.jpg
25.178	1.998	correct	regulate	Run1	regulate/STIM_001.jpg
29.898	1.766	correct	regulate	Run1	regulate/STIM_001.jpg
35.552	2.043	correct	regulate	Run1	regulate/STIM_001.jpg
40.502	3.465	correct	regulate	Run1	regulate/STIM_002.jpg
47.672	2.895	incorrect	regulate	Run1	regulate/STIM_002.jpg
53.62	3.181	incorrect	regulate	Run1	regulate/STIM_002.jpg
59.857	2.127	correct	regulate	Run1	regulate/STIM_002.jpg
65.953	1.856	correct	regulate	Run1	regulate/STIM_003.jpg
70.446	1.602	correct	regulate	Run1	regulate/STIM_003.jpg
75.88	3.233	correct	regulate	Run1	regulate/STIM_003.jpg
82.015	2.322	correct	regulate	Run1	regulate/STIM_003.jpg
86.552	1.618	correct	regulate	Run1	regulate/STIM_004.jpg
90.439	2.851	correct	regulate	Run1	regulate/STIM_004.jpg
95.58	2.094	correct	regulate	Run1	regulate/STIM_004.jpg
100.095	2.998	correct	regulate	Run1	regulate/STIM_004.jpg
106.963	2.99	correct	regulate	Run1	regulate/STIM_005.jpg
112.233	3.18	correct	regulate	Run1	regulate/STIM_005.jpg
118.835	2.488	correct	regulate	Run1	regulate/STIM_005.jpg
124.327	2.092	correct	regulate	Run1	regulate/STIM_005.jpg
128.901	2.452	incorrect	regulate	Run1	regulate/STIM_006.jpg
133.766	2.946	incorrect	regulate	Run1	regulate/STIM_006.jpg
139.961	3.148	correct	regulate	Run1	regulate/STIM_006.jpg
145.909	2.577	correct	regulate	Run1	regulate/STIM_006.jpg
150.496	2.581	correct	regulate	Run1	regulate/STIM_007.jpg
155.752	3.278	correct	regulate	Run1	regulate/STIM_007.jpg
161.768	2.587	correct	regulate	Run1	regulate/STIM_007.jpg
167.74	2.986	correct	regulate	Run1	regulate/STIM_007.jpg
174.526	1.589	incorrect	regulate	Run1	regulate/STIM_008.jpg
178.72	1.499	correct	regulate	Run1	regulate/STIM_008.jpg
183.509	3.179	correct	regulate	Run1	regulate/STIM_008.jpg
189.676	2.144	correct	regulate	Run1	regulate/STIM_008.jpg
195.669	1.864	incorrect	regulate	Run1	regulate/STIM_009.jpg
200.162	2.497	incorrect	regulate	Run1	regulate/STIM_009.jpg
205.813	3.002	incorrect	regulate	Run1	regulate/STIM_009.jpg
210.837	2.332	correct	regulate	Run1	regulate/STIM_009.jpg
215.737	2.667	correct	regulate	Run1	regulate/STIM_010.jpg
222.036	2.196	correct	regulate	Run1	regulate/STIM_010.jpg
226.642	2.743	correct	regulate	Run1	regulate/STIM_010.jpg
232.707	1.458	correct	regulate	Run1	regulate/STIM_010.jpg
236.374	2.882	incorrect	regulate	Run1	regulate/STIM_011.jpg
241.866	3.163	correct	regulate	Run1	regulate/STIM_011.jpg
248.849	2.897	correct	regulate	Run1	regulate/STIM_011.jpg
255.422	2.158	correct	regulate	Run1	regulate/STIM_011.jpg
261.469	2.373	correct	regulate	Run1	regulate/STIM_012.jpg
267.41	3.268	incorrect	regulate	Run1	regulate/STIM_012.jpg
273.682	3.131	correct	regulate	Run1	regulate/STIM_012.jpg
280.508	2.818	correct	regulate	Run1	regulate/STIM_012.jpg
287.185	2.223	correct	regulate	Run1	regulate/STIM_013.jpg
292.135	2.301	correct	regulate	Run1	regulate/STIM_013.jpg
298.172	3.059	correct	regulate	Run1	regulate/STIM_013.jpg
303.26	3.022	correct	regulate	Run1	regulate/STIM_013.jpg
310.217	2.783	correct	regulate	Run1	regulate/STIM_014.jpg
316.173	2.756	correct	regulate	Run1	regulate/STIM_014.jpg
322.407	2.737	incorrect	regulate	Run1	regulate/STIM_014.jpg
329.048	2.794	correct	regulate	Run1	regulate/STIM_014.jpg
333.994	3.456	correct	regulate	Run1	regulate/STIM_015.jpg
339.787	3.349	correct	regulate	Run1	regulate/STIM_015.jpg
346.505	2.976	correct	regulate	Run1	regulate/STIM_015.jpg
352.439	2.767	correct	regulate	Run1	regulate/STIM_015.jpg
358.697	3.532	incorrect	regulate	Run1	regulate/STIM_016.jpg
365.181	1.515	incorrect	regulate	Run1	regulate/STIM_016.jpg
370.559	2.554	correct	regulate	Run1	regulate/STIM_016.jpg
376.275	2.445	correct	regulate	Run1	regulate/STIM_016.jpg
381.099	2.123	correct	regulate	Run1	regulate/STIM_017.jpg
386.982	3.032	correct	regulate	Run1	regulate/STIM_017.jpg
392.477	2.697	correct	regulate	Run1	regulate/STIM_017.jpg
398.608	1.34	correct	regulate	Run1	regulate/STIM_017.jpg
403.565	1.738	correct	regulate	Run1	regulate/STIM_018.jpg
407.364	1.667	correct	regulate	Run1	regulate/STIM_018.jpg
411.198	1.81	correct	regulate	Run1	regulate/STIM_018.jpg
416.35	1.776	correct	regulate	Run1	regulate/STIM_018.jpg
420.812	3.058	correct	regulate	Run1	regulate/STIM_019.jpg
426.946	3.11	correct	regulate	Run1	regulate/STIM_019.jpg
434.041	2.344	correct	regulate	Run1	regulate/STIM_019.jpg
438.678	1.896	correct	regulate	Run1	regulate/STIM_019.jpg
443.896	2.175	correct	regulate	Run1	regulate/STIM_020.jpg
449.795	1.613	correct	regulate	Run1	regulate/STIM_020.jpg
454.597	1.582	correct	regulate	Run1	regulate/STIM_020.jpg
459.238	1.51	correct	regulate	Run1	regulate/STIM_020.jpg
463.091	1.678	correct	regulate	Run1	regulate/STIM_021.jpg
468.55	1.822	correct	regulate	Run1	regulate/STIM_021.jpg
473.25	2.831	correct	regulate	Run1	regulate/STIM_021.jpg
479.536	1.431	incorrect	regulate	Run1	regulate/STIM_021.jpg
483.303	1.682	correct	regulate	Run1	regulate/STIM_022.jpg
488.089	3.151	correct	regulate	Run1	regulate/STIM_022.jpg
494.199	2.598	correct	regulate	Run1	regulate/STIM_022.jpg
499.697	2.951	correct	regulate	Run1	regulate/STIM_022.jpg
505.307	2.765	correct	regulate	Run1	regulate/STIM_023.jpg
510.17	2.56	correct	regulate	Run1	regulate/STIM_023.jpg
515.532	2.102	correct	regulate	Run1	regulate/STIM_023.jpg
521.361	1.805	correct	regulate	Run1	regulate/STIM_023.jpg
526.862	2.848	correct	regulate	Run1	regulate/STIM_024.jpg
532.491	1.931	correct	regulate	Run1	regulate/STIM_024.jpg
536.622	2.46	correct	regulate	Run1	regulate/STIM_024.jpg
542.519	2.402	correct	regulate	Run1	regulate/STIM_024.jpg
548.86	3.485	correct	regulate	Run1	regulate/STIM_025.jpg
555.339	1.838	correct	regulate	Run1	regulate/STIM_025.jpg
560.243	2.919	correct	regulate	Run1	regulate/STIM_025.jpg
565.602	2.733	correct	regulate	Run1	regulate/STIM_025.jpg
572.204	2.574	correct	regulate	Run1	regulate/STIM_026.jpg
578.526	1.724	correct	regulate	Run1	regulate/STIM_026.jpg
583.505	3.17	correct	regulate	Run1	regulate/STIM_026.jpg
589.059	1.938	correct	regulate	Run1	regulate/STIM_026.jpg
594.565	2.149	correct	regulate	Run1	regulate/STIM_027.jpg
599.804	2.557	correct	regulate	Run1	regulate/STIM_027.jpg
604.672	1.745	correct	regulate	Run1	regulate/STIM_027.jpg
609.467	1.582	correct	regulate	Run1	regulate/STIM_027.jpg
614.789	2.307	correct	regulate	Run1	regulate/STIM_028.jpg
620.717	3.149	correct	regulate	Run1	regulate/STIM_028.jpg
625.966	3.113	correct	regulate	Run1	regulate/STIM_028.jpg
631.733	2.359	correct	regulate	Run1	regulate/STIM_028.jpg
637.642	3.123	correct	regulate	Run1	regulate/STIM_029.jpg
643.093	2.728	correct	regulate	Run1	regulate/STIM_029.jpg
649.209	2.406	correct	regulate	Run1	regulate/STIM_029.jpg
655.324	1.812	correct	regulate	Run1	regulate/STIM_029.jpg
659.652	1.23	correct	observe	Run1	observe/STIM_000.jpg
664.496	1.341	correct	observe	Run1	observe/STIM_000.jpg
668.533	0.862	correct	observe	Run1	observe/STIM_000.jpg
672.409	1.175	correct	observe	Run1	observe/STIM_000.jpg
675.968	1.285	correct	observe	Run1	observe/STIM_001.jpg
681.103	1.532	correct	observe	Run1	observe/STIM_001.jpg
686.396	0.892	correct	observe	Run1	observe/STIM_001.jpg
691.009	1.376	correct	observe	Run1	observe/STIM_001.jpg
694.44	1.332	correct	observe	Run1	observe/STIM_002.jpg
698.949	1.307	correct	observe	Run1	observe/STIM_002.jpg
702.395	1.631	correct	observe	Run1	observe/STIM_002.jpg
707.281	1.014	correct	observe	Run1	observe/STIM_002.jpg
711.909	1.63	correct	observe	Run1	observe/STIM_003.jpg
716.718	1.546	correct	observe	Run1	observe/STIM_003.jpg
721.607	1.452	correct	observe	Run1	observe/STIM_003.jpg
726.043	1.222	correct	observe	Run1	observe/STIM_003.jpg
730.399	1.117	correct	observe	Run1	observe/STIM_004.jpg
734.831	1.149	correct	observe	Run1	observe/STIM_004.jpg
739.225	1.261	correct	observe	Run1	observe/STIM_004.jpg
742.775	1.436	correct	observe	Run1	observe/STIM_004.jpg
747.99	1.4	correct	observe	Run1	observe/STIM_005.jpg
751.613	1.442	correct	observe	Run1	observe/STIM_005.jpg
755.53	1.016	correct	observe	Run1	observe/STIM_005.jpg
759.953	1.159	correct	observe	Run1	observe/STIM_005.jpg
763.305	1.43	correct	observe	Run1	observe/STIM_006.jpg
766.822	1.095	correct	observe	Run1	observe/STIM_006.jpg
770.447	0.847	correct	observe	Run1	observe/STIM_006.jpg
774.498	1.25	incorrect	observe	Run1	observe/STIM_006.jpg
778.937	1.152	correct	observe	Run1	observe/STIM_007.jpg
783.529	1.128	correct	observe	Run1	observe/STIM_007.jpg
787.299	1.204	correct	observe	Run1	observe/STIM_007.jpg
790.997	1.063	correct	observe	Run1	observe/STIM_007.jpg
795.37	0.928	correct	observe	Run1	observe/STIM_008.jpg
799.712	0.899	correct	observe	Run1	observe/STIM_008.jpg
804.542	1.595	incorrect	observe	Run1	observe/STIM_008.jpg
809.033	1.634	correct	observe	Run1	observe/STIM_008.jpg
812.909	1.032	correct	observe	Run1	observe/STIM_009.jpg
816.189	1.011	correct	observe	Run1	observe/STIM_009.jpg
819.691	1.232	correct	observe	Run1	observe/STIM_009.jpg
823.974	1.5	correct	observe	Run1	observe/STIM_009.jpg
828.236	1.033	correct	observe	Run1	observe/STIM_010.jpg
833.055	1.486	correct	observe	Run1	observe/STIM_010.jpg
837.772	1.208	correct	observe	Run1	observe/STIM_010.jpg
842.84	1.441	correct	observe	Run1	observe/STIM_010.jpg
847.352	1.231	correct	observe	Run1	observe/STIM_011.jpg
851.352	1.585	correct	observe	Run1	observe/STIM_011.jpg
855.626	1.524	correct	observe	Run1	observe/STIM_011.jpg
860.794	1.538	correct	observe	Run1	observe/STIM_011.jpg
866.273	1.584	correct	observe	Run1	observe/STIM_012.jpg
870.39	0.837	correct	observe	Run1	observe/STIM_012.jpg
874.322	1.608	correct	observe	Run1	observe/STIM_012.jpg
879.656	1.62	correct	observe	Run1	observe/STIM_012.jpg
884.796	0.935	correct	observe	Run1	observe/STIM_013.jpg
888.684	1.014	correct	observe	Run1	observe/STIM_013.jpg
893.158	1.486	correct	observe	Run1	observe/STIM_013.jpg
898.315	1.277	correct	observe	Run1	observe/STIM_013.jpg
902.687	0.989	correct	observe	Run1	observe/STIM_014.jpg
905.705	1.519	correct	observe	Run1	observe/STIM_014.jpg
910.015	1.596	correct	observe	Run1	observe/STIM_014.jpg
914.632	1.543	correct	observe	Run1	observe/STIM_014.jpg
918.759	0.985	correct	observe	Run1	observe/STIM_015.jpg
921.893	1.178	correct	observe	Run1	observe/STIM_015.jpg
926.569	1.311	correct	observe	Run1	observe/STIM_015.jpg
931.34	1.327	correct	observe	Run1	observe/STIM_015.jpg
936.21	1.018	correct	observe	Run1	observe/STIM_016.jpg
939.791	0.93	correct	observe	Run1	observe/STIM_016.jpg
943.336	0.956	correct	observe	Run1	observe/STIM_016.jpg
947.298	1.649	correct	observe	Run1	observe/STIM_016.jpg
952.111	1.258	correct	observe	Run1	observe/STIM_017.jpg
955.727	1.404	correct	observe	Run1	observe/STIM_017.jpg
961.026	1.566	correct	observe	Run1	observe/STIM_017.jpg
966.348	1.624	correct	observe	Run1	observe/STIM_017.jpg
970.652	1.275	correct	observe	Run1	observe/STIM_018.jpg
975.23	1.498	correct	observe	Run1	observe/STIM_018.jpg
979.381	1.452	correct	observe	Run1	observe/STIM_018.jpg
984.111	1.376	correct	observe	Run1	observe/STIM_018.jpg
989.405	1.387	correct	observe	Run1	observe/STIM_019.jpg
993.562	1.271	correct	observe	Run1	observe/STIM_019.jpg
998.556	1.51	correct	observe	Run1	observe/STIM_019.jpg
1002.285	1.024	correct	observe	Run1	observe/STIM_019.jpg
1005.415	2.812	correct	regulate	Run2	regulate/STIM_000.jpg
1010.668	2.745	incorrect	regulate	Run2	regulate/STIM_000.jpg
1016.388	2.687	correct	regulate	Run2	regulate/STIM_000.jpg
1021.68	2.502	correct	regulate	Run2	regulate/STIM_000.jpg
1026.783	2.399	incorrect	regulate	Run2	regulate/STIM_001.jpg
1032.729	2.439	correct	regulate	Run2	regulate/STIM_001.jpg
1038.024	2.691	correct	regulate	Run2	regulate/STIM_001.jpg
1044.238	1.975	correct	regulate	Run2	regulate/STIM_001.jpg
1048.47	2.268	correct	regulate	Run2	regulate/STIM_002.jpg
1053.035	2.415	correct	regulate	Run2	regulate/STIM_002.jpg
1058.628	2.168	correct	regulate	Run2	regulate/STIM_002.jpg
1062.925	2.154	incorrect	regulate	Run2	regulate/STIM_002.jpg
1068.597	1.368	correct	regulate	Run2	regulate/STIM_003.jpg
1072.483	1.297	correct	regulate	Run2	regulate/STIM_003.jpg
1077.691	1.87	correct	regulate	Run2	regulate/STIM_003.jpg
1082.02	1.322	correct	regulate	Run2	regulate/STIM_003.jpg
1087.184	2.613	correct	regulate	Run2	regulate/STIM_004.jpg
1092.082	1.488	correct	regulate	Run2	regulate/STIM_004.jpg
1095.886	2.405	correct	regulate	Run2	regulate/STIM_004.jpg
1100.455	1.976	correct	regulate	Run2	regulate/STIM_004.jpg
1105.113	2.509	correct	regulate	Run2	regulate/STIM_005.jpg
1110.67	2.494	correct	regulate	Run2	regulate/STIM_005.jpg
1115.84	2.057	correct	regulate	Run2	regulate/STIM_005.jpg
1120.977	1.12	correct	regulate	Run2	regulate/STIM_005.jpg
1125.533	1.621	correct	regulate	Run2	regulate/STIM_006.jpg
1130.564	1.419	correct	regulate	Run2	regulate/STIM_006.jpg
1134.105	1.902	correct	regulate	Run2	regulate/STIM_006.jpg
1138.306	1.984	correct	regulate	Run2	regulate/STIM_006.jpg
1142.933	2.497	correct	regulate	Run2	regulate/STIM_007.jpg
1149.421	2.205	correct	regulate	Run2	regulate/STIM_007.jpg
1155.47	1.251	correct	regulate	Run2	regulate/STIM_007.jpg
1160.553	2.519	correct	regulate	Run2	regulate/STIM_007.jpg
1165.448	1.915	correct	regulate	Run2	regulate/STIM_008.jpg
1170.125	2.059	correct	regulate	Run2	regulate/STIM_008.jpg
1174.712	1.906	correct	regulate	Run2	regulate/STIM_008.jpg
1179.49	1.287	correct	regulate	Run2	regulate/STIM_008.jpg
1183.803	2.852	correct	regulate	Run2	regulate/STIM_009.jpg
1190.1	2.441	correct	regulate	Run2	regulate/STIM_009.jpg
1195.019	2.133	correct	regulate	Run2	regulate/STIM_009.jpg
1200.396	2.387	correct	regulate	Run2	regulate/STIM_009.jpg
1205.361	2.046	correct	regulate	Run2	regulate/STIM_010.jpg
1210.463	2.556	correct	regulate	Run2	regulate/STIM_010.jpg
1216.728	1.976	correct	regulate	Run2	regulate/STIM_010.jpg
1220.848	1.999	correct	regulate	Run2	regulate/STIM_010.jpg
1225.731	2.031	correct	regulate	Run2	regulate/STIM_011.jpg
1231.392	2.131	correct	regulate	Run2	regulate/STIM_011.jpg
1236.009	1.628	correct	regulate	Run2	regulate/STIM_011.jpg
1240.35	1.998	correct	regulate	Run2	regulate/STIM_011.jpg
1244.392	2.057	correct	regulate	Run2	regulate/STIM_012.jpg
1250.13	1.628	correct	regulate	Run2	regulate/STIM_012.jpg
1254.417	1.54	incorrect	regulate	Run2	regulate/STIM_012.jpg
1259.535	1.568	correct	regulate	Run2	regulate/STIM_012.jpg
1264.322	2.039	correct	regulate	Run2	regulate/STIM_013.jpg
1268.711	2.64	correct	regulate	Run2	regulate/STIM_013.jpg
1274.487	1.408	correct	regulate	Run2	regulate/STIM_013.jpg
1278.258	2.438	correct	regulate	Run2	regulate/STIM_013.jpg
1283.68	2.97	correct	regulate	Run2	regulate/STIM_014.jpg
1290.161	2.819	correct	regulate	Run2	regulate/STIM_014.jpg
1296.326	2.432	correct	regulate	Run2	regulate/STIM_014.jpg
1301.203	1.768	correct	regulate	Run2	regulate/STIM_014.jpg
1306.735	3.041	correct	regulate	Run2	regulate/STIM_015.jpg
1313.412	1.509	correct	regulate	Run2	regulate/STIM_015.jpg
1318.778	1.613	correct	regulate	Run2	regulate/STIM_015.jpg
1323.874	1.371	correct	regulate	Run2	regulate/STIM_015.jpg
1328.907	1.426	correct	regulate	Run2	regulate/STIM_016.jpg
1333.81	1.83	correct	regulate	Run2	regulate/STIM_016.jpg
1338.139	1.232	correct	regulate	Run2	regulate/STIM_016.jpg
1343.083	1.247	correct	regulate	Run2	regulate/STIM_016.jpg
1346.445	1.869	correct	regulate	Run2	regulate/STIM_017.jpg
1351.623	2.142	correct	regulate	Run2	regulate/STIM_017.jpg
1357.177	1.884	correct	regulate	Run2	regulate/STIM_017.jpg
1361.253	1.57	correct	regulate	Run2	regulate/STIM_017.jpg
1365.748	1.803	correct	regulate	Run2	regulate/STIM_018.jpg
1371.294	2.816	incorrect	regulate	Run2	regulate/STIM_018.jpg
1376.901	1.929	correct	regulate	Run2	regulate/STIM_018.jpg
1382.233	2.309	correct	regulate	Run2	regulate/STIM_018.jpg
1386.635	1.847	correct	regulate	Run2	regulate/STIM_019.jpg
1392.404	2.807	correct	regulate	Run2	regulate/STIM_019.jpg
1397.369	1.764	correct	regulate	Run2	regulate/STIM_019.jpg
1401.478	2.137	correct	regulate	Run2	regulate/STIM_019.jpg
1406.265	1.534	correct	regulate	Run2	regulate/STIM_020.jpg
1411.371	1.273	correct	regulate	Run2	regulate/STIM_020.jpg
1416.312	2.214	correct	regulate	Run2	regulate/STIM_020.jpg
1421.47	2.516	correct	regulate	Run2	regulate/STIM_020.jpg
1426.95	1.879	correct	regulate	Run2	regulate/STIM_021.jpg
1431.122	1.414	correct	regulate	Run2	regulate/STIM_021.jpg
1436.329	1.596	correct	regulate	Run2	regulate/STIM_021.jpg
1441.372	1.274	correct	regulate	Run2	regulate/STIM_021.jpg
1445.045	3.05	correct	regulate	Run2	regulate/STIM_022.jpg
1451.042	2.717	correct	regulate	Run2	regulate/STIM_022.jpg
1456.895	2.6	correct	regulate	Run2	regulate/STIM_022.jpg
1462.58	2.429	correct	regulate	Run2	regulate/STIM_022.jpg
1467.341	1.866	correct	regulate	Run2	regulate/STIM_023.jpg
1471.911	1.591	correct	regulate	Run2	regulate/STIM_023.jpg
1476.188	1.988	correct	regulate	Run2	regulate/STIM_023.jpg
1481.178	2.195	correct	regulate	Run2	regulate/STIM_023.jpg
1487.259	2.481	correct	regulate	Run2	regulate/STIM_024.jpg
1493.691	1.422	correct	regulate	Run2	regulate/STIM_024.jpg
1498.074	2.371	correct	regulate	Run2	regulate/STIM_024.jpg
1502.777	2.29	correct	regulate	Run2	regulate/STIM_024.jpg
1508.431	2.302	correct	regulate	Run2	regulate/STIM_025.jpg
1512.773	2.35	correct	regulate	Run2	regulate/STIM_025.jpg
1517.912	2.023	correct	regulate	Run2	regulate/STIM_025.jpg
1523.673	2.044	correct	regulate	Run2	regulate/STIM_025.jpg
1528.718	1.358	correct	regulate	Run2	regulate/STIM_026.jpg
1532.239	1.978	correct	regulate	Run2	regulate/STIM_026.jpg
1537.022	1.327	correct	regulate	Run2	regulate/STIM_026.jpg
1542.233	1.748	correct	regulate	Run2	regulate/STIM_026.jpg
1547.965	1.481	correct	regulate	Run2	regulate/STIM_027.jpg
1551.482	1.832	correct	regulate	Run2	regulate/STIM_027.jpg
1557.28	1.98	incorrect	regulate	Run2	regulate/STIM_027.jpg
1563.249	2.192	correct	regulate	Run2	regulate/STIM_027.jpg
1568.592	2.617	correct	regulate	Run2	regulate/STIM_028.jpg
1573.673	1.647	correct	regulate	Run2	regulate/STIM_028.jpg
1578.412	1.487	correct	regulate	Run2	regulate/STIM_028.jpg
1583.28	1.779	correct	regulate	Run2	regulate/STIM_028.jpg
1588.536	2.434	incorrect	regulate	Run2	regulate/STIM_029.jpg
1593.955	1.469	correct	regulate	Run2	regulate/STIM_029.jpg
1597.445	2.094	correct	regulate	Run2	regulate/STIM_029.jpg
1603.245	2.272	correct	regulate	Run2	regulate/STIM_029.jpg
1608.104	1.536	correct	observe	Run2	observe/STIM_000.jpg
1612.752	0.865	correct	observe	Run2	observe/STIM_000.jpg
1617.277	1.286	correct	observe	Run2	observe/STIM_000.jpg
1621.066	1.509	correct	observe	Run2	observe/STIM_000.jpg
1626.144	1.281	correct	observe	Run2	observe/STIM_001.jpg
1630.298	1.468	correct	observe	Run2	observe/STIM_001.jpg
1635.085	1.232	correct	observe	Run2	observe/STIM_001.jpg
1639.904	1.512	correct	observe	Run2	observe/STIM_001.jpg
1645.11	1.278	correct	observe	Run2	observe/STIM_002.jpg
1649.249	1.44	correct	observe	Run2	observe/STIM_002.jpg
1653.24	0.989	correct	observe	Run2	observe/STIM_002.jpg
1657.489	1.386	correct	observe	Run2	observe/STIM_002.jpg
1661.478	0.988	correct	observe	Run2	observe/STIM_003.jpg
1665.097	1.23	correct	observe	Run2	observe/STIM_003.jpg
1670.084	1.644	correct	observe	Run2	observe/STIM_003.jpg
1674.184	0.96	correct	observe	Run2	observe/STIM_003.jpg
1677.853	1.079	correct	observe	Run2	observe/STIM_004.jpg
1682.559	1.263	correct	observe	Run2	observe/STIM_004.jpg
1687.326	1.304	correct	observe	Run2	observe/STIM_004.jpg
1692.565	0.98	correct	observe	Run2	observe/STIM_004.jpg
1697.012	1.03	correct	observe	Run2	observe/STIM_005.jpg
1702.006	1.001	correct	observe	Run2	observe/STIM_005.jpg
1705.112	0.867	correct	observe	Run2	observe/STIM_005.jpg
1709.475	0.898	correct	observe	Run2	observe/STIM_005.jpg
1713.098	1.454	correct	observe	Run2	observe/STIM_006.jpg
1716.619	1.242	correct	observe	Run2	observe/STIM_006.jpg
1720.215	1.472	correct	observe	Run2	observe/STIM_006.jpg
1724.219	0.936	correct	observe	Run2	observe/STIM_006.jpg
1728.334	1.625	correct	observe	Run2	observe/STIM_007.jpg
1732.997	1.501	correct	observe	Run2	observe/STIM_007.jpg
1738.346	1.575	correct	observe	Run2	observe/STIM_007.jpg
1742.853	1.474	correct	observe	Run2	observe/STIM_007.jpg
1747.915	1.497	correct	observe	Run2	observe/STIM_008.jpg
1753.279	1.042	correct	observe	Run2	observe/STIM_008.jpg
1756.528	1.495	correct	observe	Run2	observe/STIM_008.jpg
1760.485	1.039	correct	observe	Run2	observe/STIM_008.jpg
1763.579	1.285	correct	observe	Run2	observe/STIM_009.jpg
1768.141	0.961	correct	observe	Run2	observe/STIM_009.jpg
1772.74	0.974	correct	observe	Run2	observe/STIM_009.jpg
1776.321	1.535	correct	observe	Run2	observe/STIM_009.jpg
1781.614	0.924	correct	observe	Run2	observe/STIM_010.jpg
1785.934	0.999	correct	observe	Run2	observe/STIM_010.jpg
1788.978	1.422	correct	observe	Run2	observe/STIM_010.jpg
1794.356	0.841	correct	observe	Run2	observe/STIM_010.jpg
1797.546	1.622	correct	observe	Run2	observe/STIM_011.jpg
1801.421	1.456	correct	observe	Run2	observe/STIM_011.jpg
1806.834	1.153	correct	observe	Run2	observe/STIM_011.jpg
1810.204	1.15	correct	observe	Run2	observe/STIM_011.jpg
1813.776	1.441	correct	observe	Run2	observe/STIM_012.jpg
1817.472	1.501	correct	observe	Run2	observe/STIM_012.jpg
1822.898	1.586	correct	observe	Run2	observe/STIM_012.jpg
1827.664	1.159	correct	observe	Run2	observe/STIM_012.jpg
1830.995	0.881	correct	observe	Run2	observe/STIM_013.jpg
1834.008	1.574	correct	observe	Run2	observe/STIM_013.jpg
1839.48	1.098	correct	observe	Run2	observe/STIM_013.jpg
1843.198	1.332	incorrect	observe	Run2	observe/STIM_013.jpg
1847.871	1.165	correct	observe	Run2	observe/STIM_014.jpg
1851.658	1.554	correct	observe	Run2	observe/STIM_014.jpg
1856.386	1.39	correct	observe	Run2	observe/STIM_014.jpg
1860.02	1.299	correct	observe	Run2	observe/STIM_014.jpg
1865.145	1.336	correct	observe	Run2	observe/STIM_015.jpg
1869.386	1.0	correct	observe	Run2	observe/STIM_015.jpg
1873.356	0.948	correct	observe	Run2	observe/STIM_015.jpg
1878.287	1.622	correct	observe	Run2	observe/STIM_015.jpg
1881.938	1.432	correct	observe	Run2	observe/STIM_016.jpg
1886.483	0.903	correct	observe	Run2	observe/STIM_016.jpg
1890.245	1.22	correct	observe	Run2	observe/STIM_016.jpg
1895.398	0.873	correct	observe	Run2	observe/STIM_016.jpg
1898.672	1.644	correct	observe	Run2	observe/STIM_017.jpg
1903.716	1.562	correct	observe	Run2	observe/STIM_017.jpg
1907.812	1.425	correct	observe	Run2	observe/STIM_017.jpg
1912.661	1.301	incorrect	observe	Run2	observe/STIM_017.jpg
1917.558	1.637	correct	observe	Run2	observe/STIM_018.jpg
1922.278	1.5	correct	observe	Run2	observe/STIM_018.jpg
1927.393	0.943	correct	observe	Run2	observe/STIM_018.jpg
1931.686	1.025	correct	observe	Run2	observe/STIM_018.jpg
1935.376	1.194	correct	observe	Run2	observe/STIM_019.jpg
1938.639	1.489	correct	observe	Run2	observe/STIM_019.jpg
1943.321	1.611	correct	observe	Run2	observe/STIM_019.jpg
1948.884	1.024	correct	observe	Run2	observe/STIM_019.jpg
1953.217	2.124	correct	regulate	Run3	regulate/STIM_000.jpg
1958.768	2.192	correct	regulate	Run3	regulate/STIM_000.jpg
1964.816	2.173	correct	regulate	Run3	regulate/STIM_000.jpg
1969.298	1.196	correct	regulate	Run3	regulate/STIM_000.jpg
1972.957	1.142	correct	regulate	Run3	regulate/STIM_001.jpg
1977.596	1.377	correct	regulate	Run3	regulate/STIM_001.jpg
1981.855	2.364	correct	regulate	Run3	regulate/STIM_001.jpg
1987.207	1.722	correct	regulate	Run3	regulate/STIM_001.jpg
1991.114	2.333	correct	regulate	Run3	regulate/STIM_002.jpg
1997.213	1.274	correct	regulate	Run3	regulate/STIM_002.jpg
2001.089	1.808	correct	regulate	Run3	regulate/STIM_002.jpg
2005.069	2.432	correct	regulate	Run3	regulate/STIM_002.jpg
2010.352	2.438	correct	regulate	Run3	regulate/STIM_003.jpg
2015.583	1.695	correct	regulate	Run3	regulate/STIM_003.jpg
2020.943	1.173	correct	regulate	Run3	regulate/STIM_003.jpg
2025.762	2.031	correct	regulate	Run3	regulate/STIM_003.jpg
2030.063	2.322	correct	regulate	Run3	regulate/STIM_004.jpg
2034.932	1.331	correct	regulate	Run3	regulate/STIM_004.jpg
2039.667	2.028	correct	regulate	Run3	regulate/STIM_004.jpg
2045.161	1.146	correct	regulate	Run3	regulate/STIM_004.jpg
2049.956	1.646	correct	regulate	Run3	regulate/STIM_005.jpg
2054.542	1.106	correct	regulate	Run3	regulate/STIM_005.jpg
2058.757	2.35	correct	regulate	Run3	regulate/STIM_005.jpg
2063.441	1.291	correct	regulate	Run3	regulate/STIM_005.jpg
2068.414	1.955	correct	regulate	Run3	regulate/STIM_006.jpg
2073.196	2.441	correct	regulate	Run3	regulate/STIM_006.jpg
2077.803	2.338	correct	regulate	Run3	regulate/STIM_006.jpg
2083.155	1.973	correct	regulate	Run3	regulate/STIM_006.jpg
2088.002	1.919	incorrect	regulate	Run3	regulate/STIM_007.jpg
2092.351	1.136	correct	regulate	Run3	regulate/STIM_007.jpg
2095.594	2.359	correct	regulate	Run3	regulate/STIM_007.jpg
2101.261	1.571	correct	regulate	Run3	regulate/STIM_007.jpg
2104.94	1.654	incorrect	regulate	Run3	regulate/STIM_008.jpg
2109.6	2.404	correct	regulate	Run3	regulate/STIM_008.jpg
2115.46	1.91	correct	regulate	Run3	regulate/STIM_008.jpg
2121.073	2.266	correct	regulate	Run3	regulate/STIM_008.jpg
2126.662	1.844	correct	regulate	Run3	regulate/STIM_009.jpg
2131.1	1.502	correct	regulate	Run3	regulate/STIM_009.jpg
2135.886	1.457	correct	regulate	Run3	regulate/STIM_009.jpg
2140.782	2.313	correct	regulate	Run3	regulate/STIM_009.jpg
2145.228	2.509	correct	regulate	Run3	regulate/STIM_010.jpg
2151.348	2.194	correct	regulate	Run3	regulate/STIM_010.jpg
2155.958	2.512	correct	regulate	Run3	regulate/STIM_010.jpg
2162.021	2.346	correct	regulate	Run3	regulate/STIM_010.jpg
2168.216	2.297	correct	regulate	Run3	regulate/STIM_011.jpg
2172.689	1.966	correct	regulate	Run3	regulate/STIM_011.jpg
2176.702	1.116	correct	regulate	Run3	regulate/STIM_011.jpg
2180.473	2.287	correct	regulate	Run3	regulate/STIM_011.jpg
2185.807	1.521	correct	regulate	Run3	regulate/STIM_012.jpg
2189.693	1.949	correct	regulate	Run3	regulate/STIM_012.jpg
2193.692	2.052	correct	regulate	Run3	regulate/STIM_012.jpg
2197.779	2.412	correct	regulate	Run3	regulate/STIM_012.jpg
2203.017	1.097	correct	regulate	Run3	regulate/STIM_013.jpg
2206.14	1.185	correct	regulate	Run3	regulate/STIM_013.jpg
2210.694	2.522	correct	regulate	Run3	regulate/STIM_013.jpg
2216.052	2.461	correct	regulate	Run3	regulate/STIM_013.jpg
2221.192	2.358	correct	regulate	Run3	regulate/STIM_014.jpg
2226.347	1.324	correct	regulate	Run3	regulate/STIM_014.jpg
2229.869	2.445	correct	regulate	Run3	regulate/STIM_014.jpg
2236.181	1.211	correct	regulate	Run3	regulate/STIM_014.jpg
2241.204	2.378	correct	regulate	Run3	regulate/STIM_015.jpg
2246.27	1.93	correct	regulate	Run3	regulate/STIM_015.jpg
2250.968	2.523	correct	regulate	Run3	regulate/STIM_015.jpg
2256.737	2.221	correct	regulate	Run3	regulate/STIM_015.jpg
2261.491	1.534	correct	regulate	Run3	regulate/STIM_016.jpg
2265.839	1.763	correct	regulate	Run3	regulate/STIM_016.jpg
2270.968	1.993	correct	regulate	Run3	regulate/STIM_016.jpg
2276.951	1.247	correct	regulate	Run3	regulate/STIM_016.jpg
2281.607	2.379	correct	regulate	Run3	regulate/STIM_017.jpg
2287.488	1.783	correct	regulate	Run3	regulate/STIM_017.jpg
2292.574	1.282	correct	regulate	Run3	regulate/STIM_017.jpg
2296.272	1.754	correct	regulate	Run3	regulate/STIM_017.jpg
2300.27	2.417	correct	regulate	Run3	regulate/STIM_018.jpg
2306.336	1.287	correct	regulate	Run3	regulate/STIM_018.jpg
2309.978	1.548	correct	regulate	Run3	regulate/STIM_018.jpg
2313.851	2.521	correct	regulate	Run3	regulate/STIM_018.jpg
2318.811	1.351	correct	regulate	Run3	regulate/STIM_019.jpg
2323.382	1.306	correct	regulate	Run3	regulate/STIM_019.jpg
2326.879	1.573	correct	regulate	Run3	regulate/STIM_019.jpg
2331.667	1.993	correct	regulate	Run3	regulate/STIM_019.jpg
2337.375	1.757	correct	regulate	Run3	regulate/STIM_020.jpg
2342.442	1.561	correct	regulate	Run3	regulate/STIM_020.jpg
2347.006	2.063	correct	regulate	Run3	regulate/STIM_020.jpg
2351.756	1.567	correct	regulate	Run3	regulate/STIM_020.jpg
2355.763	1.667	correct	regulate	Run3	regulate/STIM_021.jpg
2359.538	1.766	correct	regulate	Run3	regulate/STIM_021.jpg
2365.124	2.194	correct	regulate	Run3	regulate/STIM_021.jpg
2369.809	2.275	correct	regulate	Run3	regulate/STIM_021.jpg
2375.369	2.053	correct	regulate	Run3	regulate/STIM_022.jpg
2379.771	2.152	correct	regulate	Run3	regulate/STIM_022.jpg
2384.022	1.3	correct	regulate	Run3	regulate/STIM_022.jpg
2388.513	2.092	correct	regulate	Run3	regulate/STIM_022.jpg
2393.619	1.61	correct	regulate	Run3	regulate/STIM_023.jpg
2398.087	1.742	correct	regulate	Run3	regulate/STIM_023.jpg
2403.167	1.861	correct	regulate	Run3	regulate/STIM_023.jpg
2407.512	1.468	correct	regulate	Run3	regulate/STIM_023.jpg
2410.99	1.276	correct	regulate	Run3	regulate/STIM_024.jpg
2415.511	2.281	correct	regulate	Run3	regulate/STIM_024.jpg
2421.083	2.046	correct	regulate	Run3	regulate/STIM_024.jpg
2426.338	2.01	correct	regulate	Run3	regulate/STIM_024.jpg
2431.251	1.627	incorrect	regulate	Run3	regulate/STIM_025.jpg
2434.961	2.212	correct	regulate	Run3	regulate/STIM_025.jpg
2440.682	1.369	correct	regulate	Run3	regulate/STIM_025.jpg
2444.942	1.431	correct	regulate	Run3	regulate/STIM_025.jpg
2448.857	1.93	correct	regulate	Run3	regulate/STIM_026.jpg
2454.122	2.444	correct	regulate	Run3	regulate/STIM_026.jpg
2459.151	2.112	correct	regulate	Run3	regulate/STIM_026.jpg
2463.891	1.74	correct	regulate	Run3	regulate/STIM_026.jpg
2468.682	1.673	correct	regulate	Run3	regulate/STIM_027.jpg
2474.131	1.531	correct	regulate	Run3	regulate/STIM_027.jpg
2478.574	2.11	correct	regulate	Run3	regulate/STIM_027.jpg
2483.277	1.881	correct	regulate	Run3	regulate/STIM_027.jpg
2488.502	1.094	correct	regulate	Run3	regulate/STIM_028.jpg
2492.757	2.493	correct	regulate	Run3	regulate/STIM_028.jpg
2499.065	1.278	correct	regulate	Run3	regulate/STIM_028.jpg
2503.839	1.348	correct	regulate	Run3	regulate/STIM_028.jpg
2508.711	1.335	correct	regulate	Run3	regulate/STIM_029.jpg
2512.532	1.363	correct	regulate	Run3	regulate/STIM_029.jpg
2517.553	1.51	correct	regulate	Run3	regulate/STIM_029.jpg
2522.194	1.242	correct	regulate	Run3	regulate/STIM_029.jpg
2527.374	1.316	correct	observe	Run3	observe/STIM_000.jpg
2531.499	1.398	correct	observe	Run3	observe/STIM_000.jpg
2535.22	1.184	correct	observe	Run3	observe/STIM_000.jpg
2540.166	1.44	correct	observe	Run3	observe/STIM_000.jpg
2543.866	0.859	correct	observe	Run3	observe/STIM_001.jpg
2547.157	1.348	correct	observe	Run3	observe/STIM_001.jpg
2551.329	1.445	correct	observe	Run3	observe/STIM_001.jpg
2556.147	1.325	incorrect	observe	Run3	observe/STIM_001.jpg
2561.159	0.923	correct	observe	Run3	observe/STIM_002.jpg
2565.492	0.946	correct	observe	Run3	observe/STIM_002.jpg
2569.595	1.032	correct	observe	Run3	observe/STIM_002.jpg
2574.506	1.114	correct	observe	Run3	observe/STIM_002.jpg
2578.835	1.165	correct	observe	Run3	observe/STIM_003.jpg
2583.513	0.891	incorrect	observe	Run3	observe/STIM_003.jpg
2587.108	1.069	correct	observe	Run3	observe/STIM_003.jpg
2590.305	1.416	correct	observe	Run3	observe/STIM_003.jpg
2595.72	1.16	correct	observe	Run3	observe/STIM_004.jpg
2599.443	1.194	correct	observe	Run3	observe/STIM_004.jpg
2604.136	1.015	correct	observe	Run3	observe/STIM_004.jpg
2607.599	0.912	correct	observe	Run3	observe/STIM_004.jpg
2612.088	1.445	correct	observe	Run3	observe/STIM_005.jpg
2616.126	1.357	correct	observe	Run3	observe/STIM_005.jpg
2620.797	1.012	correct	observe	Run3	observe/STIM_005.jpg
2624.895	1.34	correct	observe	Run3	observe/STIM_005.jpg
2629.369	0.862	correct	observe	Run3	observe/STIM_006.jpg
2632.739	1.107	correct	observe	Run3	observe/STIM_006.jpg
2637.583	1.209	correct	observe	Run3	observe/STIM_006.jpg
2640.975	1.29	correct	observe	Run3	observe/STIM_006.jpg
2645.476	1.399	correct	observe	Run3	observe/STIM_007.jpg
2650.011	0.962	correct	observe	Run3	observe/STIM_007.jpg
2653.784	1.049	correct	observe	Run3	observe/STIM_007.jpg
2657.787	1.123	correct	observe	Run3	observe/STIM_007.jpg
2661.157	1.169	correct	observe	Run3	observe/STIM_008.jpg
2665.77	0.984	correct	observe	Run3	observe/STIM_008.jpg
2670.344	1.156	correct	observe	Run3	observe/STIM_008.jpg
2674.086	0.929	correct	observe	Run3	observe/STIM_008.jpg
2677.348	0.829	correct	observe	Run3	observe/STIM_009.jpg
2680.697	1.527	correct	observe	Run3	observe/STIM_009.jpg
2684.511	1.137	correct	observe	Run3	observe/STIM_009.jpg
2689.395	1.252	incorrect	observe	Run3	observe/STIM_009.jpg
2694.445	0.878	correct	observe	Run3	observe/STIM_010.jpg
2697.521	1.605	correct	observe	Run3	observe/STIM_010.jpg
2701.885	0.934	correct	observe	Run3	observe/STIM_010.jpg
2705.113	1.213	correct	observe	Run3	observe/STIM_010.jpg
2709.747	1.649	correct	observe	Run3	observe/STIM_011.jpg
2715.034	0.834	correct	observe	Run3	observe/STIM_011.jpg
2719.278	1.311	correct	observe	Run3	observe/STIM_011.jpg
2723.427	1.136	correct	observe	Run3	observe/STIM_011.jpg
2728.292	1.228	correct	observe	Run3	observe/STIM_012.jpg
2732.301	1.013	correct	observe	Run3	observe/STIM_012.jpg
2736.691	1.488	correct	observe	Run3	observe/STIM_012.jpg
2742.031	1.288	correct	observe	Run3	observe/STIM_012.jpg
2745.703	1.456	correct	observe	Run3	observe/STIM_013.jpg
2750.876	1.453	correct	observe	Run3	observe/STIM_013.jpg
2756.037	0.932	correct	observe	Run3	observe/STIM_013.jpg
2759.963	0.895	correct	observe	Run3	observe/STIM_013.jpg
2763.209	1.298	correct	observe	Run3	observe/STIM_014.jpg
2767.422	1.056	incorrect	observe	Run3	observe/STIM_014.jpg
2772.419	0.921	correct	observe	Run3	observe/STIM_014.jpg
2776.636	1.427	incorrect	observe	Run3	observe/STIM_014.jpg
2781.473	1.573	correct	observe	Run3	observe/STIM_015.jpg
2785.502	1.271	incorrect	observe	Run3	observe/STIM_015.jpg
2790.684	0.912	correct	observe	Run3	observe/STIM_015.jpg
2794.621	0.892	correct	observe	Run3	observe/STIM_015.jpg
2799.148	1.54	correct	observe	Run3	observe/STIM_016.jpg
2803.342	1.242	correct	observe	Run3	observe/STIM_016.jpg
2806.596	1.222	correct	observe	Run3	observe/STIM_016.jpg
2811.027	1.33	correct	observe	Run3	observe/STIM_016.jpg
2814.588	1.517	correct	observe	Run3	observe/STIM_017.jpg
2818.476	1.417	correct	observe	Run3	observe/STIM_017.jpg
2822.288	1.052	correct	observe	Run3	observe/STIM_017.jpg
2825.653	1.544	correct	observe	Run3	observe/STIM_017.jpg
2829.94	1.456	correct	observe	Run3	observe/STIM_018.jpg
2834.118	0.904	correct	observe	Run3	observe/STIM_018.jpg
2838.061	0.846	incorrect	observe	Run3	observe/STIM_018.jpg
2842.322	0.852	correct	observe	Run3	observe/STIM_018.jpg
2846.996	0.894	correct	observe	Run3	observe/STIM_019.jpg
2851.504	1.308	correct	observe	Run3	observe/STIM_019.jpg
2856.303	1.145	correct	observe	Run3	observe/STIM_019.jpg
2860.804	1.582	correct	observe	Run3	observe/STIM_019.jpg
