onset	duration	response_time_ms	trial_type	learning_stage	stimulus	response_port
0.0	1.572	1572.5	regulate	Run1	regulate/STIM_000.jpg	100
3.973	2.31	2310.0	regulate	Run1	regulate/STIM_000.jpg	99
8.538	2.312	2311.5	regulate	Run1	regulate/STIM_000.jpg	99
13.026	1.971	1970.6	regulate	Run1	regulate/STIM_000.jpg	100
18.585	3.383	3383.1	regulate	Run1	regulate/STIM_001.jpg	100
25.178	1.998	1998.3	regulate	Run1	regulate/STIM_001.jpg	99
29.898	1.766	1766.1	regulate	Run1	regulate/STIM_001.jpg	99
35.552	2.043	2043.5	regulate	Run1	regulate/STIM_001.jpg	99
40.502	3.465	3464.8	regulate	Run1	regulate/STIM_002.jpg	100
47.672	2.895	2894.7	regulate	Run1	regulate/STIM_002.jpg	100
53.62	3.181	3181.0	regulate	Run1	regulate/STIM_002.jpg	99
59.857	2.127	2126.7	regulate	Run1	regulate/STIM_002.jpg	99
65.953	1.856	1856.4	regulate	Run1	regulate/STIM_003.jpg	100
70.446	1.602	1601.9	regulate	Run1	regulate/STIM_003.jpg	99
75.88	3.233	3233.0	regulate	Run1	regulate/STIM_003.jpg	100
82.015	2.322	2322.0	regulate	Run1	regulate/STIM_003.jpg	100
86.552	1.618	1618.1	regulate	Run1	regulate/STIM_004.jpg	99
90.439	2.851	2850.6	regulate	Run1	regulate/STIM_004.jpg	100
95.58	2.094	2094.4	regulate	Run1	regulate/STIM_004.jpg	100
100.095	2.998	2998.1	regulate	Run1	regulate/STIM_004.jpg	99
106.963	2.99	2989.8	regulate	Run1	regulate/STIM_005.jpg	99
112.233	3.18	3179.9	regulate	Run1	regulate/STIM_005.jpg	99
118.835	2.488	2488.3	regulate	Run1	regulate/STIM_005.jpg	99
124.327	2.092	2091.5	regulate	Run1	regulate/STIM_005.jpg	100
128.901	2.452	2452.5	regulate	Run1	regulate/STIM_006.jpg	99
133.766	2.946	2946.5	regulate	Run1	regulate/STIM_006.jpg	99
139.961	3.148	3148.0	regulate	Run1	regulate/STIM_006.jpg	100
145.909	2.577	2576.7	regulate	Run1	regulate/STIM_006.jpg	99
150.496	2.581	2581.1	regulate	Run1	regulate/STIM_007.jpg	99
155.752	3.278	3277.6	regulate	Run1	regulate/STIM_007.jpg	100
161.768	2.587	2587.1	regulate	Run1	regulate/STIM_007.jpg	99
167.74	2.986	2985.6	regulate	Run1	regulate/STIM_007.jpg	100
174.526	1.589	1589.3	regulate	Run1	regulate/STIM_008.jpg	99
178.72	1.499	1499.2	regulate	Run1	regulate/STIM_008.jpg	99
183.509	3.179	3178.6	regulate	Run1	regulate/STIM_008.jpg	99
189.676	2.144	2144.2	regulate	Run1	regulate/STIM_008.jpg	100
195.669	1.864	1864.0	regulate	Run1	regulate/STIM_009.jpg	99
200.162	2.497	2497.2	regulate	Run1	regulate/STIM_009.jpg	99
205.813	3.002	3002.0	regulate	Run1	regulate/STIM_009.jpg	99
210.837	2.332	2331.5	regulate	Run1	regulate/STIM_009.jpg	99
215.737	2.667	2667.2	regulate	Run1	regulate/STIM_010.jpg	99
222.036	2.196	2196.4	regulate	Run1	regulate/STIM_010.jpg	100
226.642	2.743	2743.3	regulate	Run1	regulate/STIM_010.jpg	99
232.707	1.458	1458.0	regulate	Run1	regulate/STIM_010.jpg	100
236.374	2.882	2881.7	regulate	Run1	regulate/STIM_011.jpg	99
241.866	3.163	3163.1	regulate	Run1	regulate/STIM_011.jpg	100
248.849	2.897	2897.1	regulate	Run1	regulate/STIM_011.jpg	100
255.422	2.158	2158.2	regulate	Run1	regulate/STIM_011.jpg	100
261.469	2.373	2373.4	regulate	Run1	regulate/STIM_012.jpg	100
267.41	3.268	3268.0	regulate	Run1	regulate/STIM_012.jpg	99
273.682	3.131	3131.0	regulate	Run1	regulate/STIM_012.jpg	99
280.508	2.818	2817.8	regulate	Run1	regulate/STIM_012.jpg	100
287.185	2.223	2223.2	regulate	Run1	regulate/STIM_013.jpg	100
292.135	2.301	2301.4	regulate	Run1	regulate/STIM_013.jpg	100
298.172	3.059	3058.8	regulate	Run1	regulate/STIM_013.jpg	100
303.26	3.022	3022.4	regulate	Run1	regulate/STIM_013.jpg	100
310.217	2.783	2782.7	regulate	Run1	regulate/STIM_014.jpg	100
316.173	2.756	2756.4	regulate	Run1	regulate/STIM_014.jpg	100
322.407	2.737	2737.4	regulate	Run1	regulate/STIM_014.jpg	99
329.048	2.794	2793.7	regulate	Run1	regulate/STIM_014.jpg	100
333.994	3.456	3455.5	regulate	Run1	regulate/STIM_015.jpg	99
339.787	3.349	3349.3	regulate	Run1	regulate/STIM_015.jpg	99
346.505	2.976	2976.5	regulate	Run1	regulate/STIM_015.jpg	99
352.439	2.767	2766.6	regulate	Run1	regulate/STIM_015.jpg	99
358.697	3.532	3532.4	regulate	Run1	regulate/STIM_016.jpg	100
365.181	1.515	1514.7	regulate	Run1	regulate/STIM_016.jpg	100
370.559	2.554	2553.9	regulate	Run1	regulate/STIM_016.jpg	99
376.275	2.445	2445.2	regulate	Run1	regulate/STIM_016.jpg	100
381.099	2.123	2123.4	regulate	Run1	regulate/STIM_017.jpg	100
386.982	3.032	3032.4	regulate	Run1	regulate/STIM_017.jpg	99
392.477	2.697	2697.1	regulate	Run1	regulate/STIM_017.jpg	99
398.608	1.34	1340.3	regulate	Run1	regulate/STIM_017.jpg	99
403.565	1.738	1738.5	regulate	Run1	regulate/STIM_018.jpg	99
407.364	1.667	1667.2	regulate	Run1	regulate/STIM_018.jpg	99
411.198	1.81	1809.9	regulate	Run1	regulate/STIM_018.jpg	99
416.35	1.776	1776.5	regulate	Run1	regulate/STIM_018.jpg	99
420.812	3.058	3057.6	regulate	Run1	regulate/STIM_019.jpg	100
426.946	3.11	3110.3	regulate	Run1	regulate/STIM_019.jpg	100
434.041	2.344	2344.0	regulate	Run1	regulate/STIM_019.jpg	100
438.678	1.896	1896.5	regulate	Run1	regulate/STIM_019.jpg	100
443.896	2.175	2174.9	regulate	Run1	regulate/STIM_020.jpg	100
449.795	1.613	1613.1	regulate	Run1	regulate/STIM_020.jpg	99
454.597	1.582	1582.3	regulate	Run1	regulate/STIM_020.jpg	100
459.238	1.51	1510.4	regulate	Run1	regulate/STIM_020.jpg	99
463.091	1.678	1678.0	regulate	Run1	regulate/STIM_021.jpg	100
468.55	1.822	1821.6	regulate	Run1	regulate/STIM_021.jpg	100
473.25	2.831	2830.7	regulate	Run1	regulate/STIM_021.jpg	99
479.536	1.431	1430.6	regulate	Run1	regulate/STIM_021.jpg	99
483.303	1.682	1681.8	regulate	Run1	regulate/STIM_022.jpg	99
488.089	3.151	3151.0	regulate	Run1	regulate/STIM_022.jpg	99
494.199	2.598	2597.6	regulate	Run1	regulate/STIM_022.jpg	99
499.697	2.951	2950.8	regulate	Run1	regulate/STIM_022.jpg	100
505.307	2.765	2765.1	regulate	Run1	regulate/STIM_023.jpg	100
510.17	2.56	2560.3	regulate	Run1	regulate/STIM_023.jpg	100
515.532	2.102	2102.3	regulate	Run1	regulate/STIM_023.jpg	99
521.361	1.805	1805.4	regulate	Run1	regulate/STIM_023.jpg	100
526.862	2.848	2848.5	regulate	Run1	regulate/STIM_024.jpg	99
532.491	1.931	1930.9	regulate	Run1	regulate/STIM_024.jpg	99
536.622	2.46	2459.7	regulate	Run1	regulate/STIM_024.jpg	100
542.519	2.402	2401.5	regulate	Run1	regulate/STIM_024.jpg	99
548.86	3.485	3484.7	regulate	Run1	regulate/STIM_025.jpg	99
555.339	1.838	1838.3	regulate	Run1	regulate/STIM_025.jpg	99
560.243	2.919	2918.9	regulate	Run1	regulate/STIM_025.jpg	99
565.602	2.733	2732.6	regulate	Run1	regulate/STIM_025.jpg	99
572.204	2.574	2573.7	regulate	Run1	regulate/STIM_026.jpg	100
578.526	1.724	1724.2	regulate	Run1	regulate/STIM_026.jpg	100
583.505	3.17	3169.9	regulate	Run1	regulate/STIM_026.jpg	100
589.059	1.938	1938.0	regulate	Run1	regulate/STIM_026.jpg	99
594.565	2.149	2149.1	regulate	Run1	regulate/STIM_027.jpg	100
599.804	2.557	2557.0	regulate	Run1	regulate/STIM_027.jpg	100
604.672	1.745	1745.2	regulate	Run1	regulate/STIM_027.jpg	99
609.467	1.582	1582.3	regulate	Run1	regulate/STIM_027.jpg	100
614.789	2.307	2306.7	regulate	Run1	regulate/STIM_028.jpg	99
620.717	3.149	3148.6	regulate	Run1	regulate/STIM_028.jpg	100
625.966	3.113	3113.4	regulate	Run1	regulate/STIM_028.jpg	100
631.733	2.359	2359.2	regulate	Run1	regulate/STIM_028.jpg	99
637.642	3.123	3123.3	regulate	Run1	regulate/STIM_029.jpg	99
643.093	2.728	2728.0	regulate	Run1	regulate/STIM_029.jpg	100
649.209	2.406	2405.5	regulate	Run1	regulate/STIM_029.jpg	100
655.324	1.812	1811.5	regulate	Run1	regulate/STIM_029.jpg	99
659.652	1.23	1229.8	observe	Run1	observe/STIM_000.jpg	99
664.496	1.341	1341.4	observe	Run1	observe/STIM_000.jpg	99
668.533	0.862	862.4	observe	Run1	observe/STIM_000.jpg	100
672.409	1.175	1174.9	observe	Run1	observe/STIM_000.jpg	100
675.968	1.285	1284.8	observe	Run1	observe/STIM_001.jpg	99
681.103	1.532	1532.3	observe	Run1	observe/STIM_001.jpg	99
686.396	0.892	891.8	observe	Run1	observe/STIM_001.jpg	99
691.009	1.376	1376.1	observe	Run1	observe/STIM_001.jpg	99
694.44	1.332	1332.5	observe	Run1	observe/STIM_002.jpg	99
698.949	1.307	1306.6	observe	Run1	observe/STIM_002.jpg	100
702.395	1.631	1631.4	observe	Run1	observe/STIM_002.jpg	99
707.281	1.014	1013.6	observe	Run1	observe/STIM_002.jpg	100
711.909	1.63	1629.5	observe	Run1	observe/STIM_003.jpg	99
716.718	1.546	1545.8	observe	Run1	observe/STIM_003.jpg	99
721.607	1.452	1452.5	observe	Run1	observe/STIM_003.jpg	100
726.043	1.222	1221.8	observe	Run1	observe/STIM_003.jpg	99
730.399	1.117	1116.6	observe	Run1	observe/STIM_004.jpg	99
734.831	1.149	1149.3	observe	Run1	observe/STIM_004.jpg	100
739.225	1.261	1260.8	observe	Run1	observe/STIM_004.jpg	99
742.775	1.436	1436.3	observe	Run1	observe/STIM_004.jpg	99
747.99	1.4	1400.3	observe	Run1	observe/STIM_005.jpg	100
751.613	1.442	1441.8	observe	Run1	observe/STIM_005.jpg	99
755.53	1.016	1016.2	observe	Run1	observe/STIM_005.jpg	100
759.953	1.159	1158.8	observe	Run1	observe/STIM_005.jpg	100
763.305	1.43	1430.4	observe	Run1	observe/STIM_006.jpg	100
766.822	1.095	1095.3	observe	Run1	observe/STIM_006.jpg	100
770.447	0.847	846.6	observe	Run1	observe/STIM_006.jpg	99
774.498	1.25	1249.9	observe	Run1	observe/STIM_006.jpg	100
778.937	1.152	1152.1	observe	Run1	observe/STIM_007.jpg	100
783.529	1.128	1128.2	observe	Run1	observe/STIM_007.jpg	100
787.299	1.204	1203.9	observe	Run1	observe/STIM_007.jpg	100
790.997	1.063	1063.2	observe	Run1	observe/STIM_007.jpg	100
795.37	0.928	928.4	observe	Run1	observe/STIM_008.jpg	100
799.712	0.899	898.7	observe	Run1	observe/STIM_008.jpg	100
804.542	1.595	1594.9	observe	Run1	observe/STIM_008.jpg	99
809.033	1.634	1634.2	observe	Run1	observe/STIM_008.jpg	99
812.909	1.032	1031.5	observe	Run1	observe/STIM_009.jpg	99
816.189	1.011	1011.0	observe	Run1	observe/STIM_009.jpg	99
819.691	1.232	1232.3	observe	Run1	observe/STIM_009.jpg	99
823.974	1.5	1499.6	observe	Run1	observe/STIM_009.jpg	100
828.236	1.033	1033.0	observe	Run1	observe/STIM_010.jpg	99
833.055	1.486	1485.9	observe	Run1	observe/STIM_010.jpg	100
837.772	1.208	1207.7	observe	Run1	observe/STIM_010.jpg	99
842.84	1.441	1440.9	observe	Run1	observe/STIM_010.jpg	99
847.352	1.231	1231.2	observe	Run1	observe/STIM_011.jpg	99
851.352	1.585	1585.0	observe	Run1	observe/STIM_011.jpg	100
855.626	1.524	1524.3	observe	Run1	observe/STIM_011.jpg	100
860.794	1.538	1538.2	observe	Run1	observe/STIM_011.jpg	99
866.273	1.584	1584.2	observe	Run1	observe/STIM_012.jpg	100
870.39	0.837	837.3	observe	Run1	observe/STIM_012.jpg	100
874.322	1.608	1608.5	observe	Run1	observe/STIM_012.jpg	100
879.656	1.62	1620.5	observe	Run1	observe/STIM_012.jpg	100
884.796	0.935	934.8	observe	Run1	observe/STIM_013.jpg	99
888.684	1.014	1014.0	observe	Run1	observe/STIM_013.jpg	99
893.158	1.486	1485.8	observe	Run1	observe/STIM_013.jpg	100
898.315	1.277	1277.4	observe	Run1	observe/STIM_013.jpg	99
902.687	0.989	989.2	observe	Run1	observe/STIM_014.jpg	99
905.705	1.519	1519.0	observe	Run1	observe/STIM_014.jpg	99
910.015	1.596	1596.3	observe	Run1	observe/STIM_014.jpg	99
914.632	1.543	1542.8	observe	Run1	observe/STIM_014.jpg	99
918.759	0.985	985.2	observe	Run1	observe/STIM_015.jpg	99
921.893	1.178	1177.6	observe	Run1	observe/STIM_015.jpg	100
926.569	1.311	1310.9	observe	Run1	observe/STIM_015.jpg	99
931.34	1.327	1326.8	observe	Run1	observe/STIM_015.jpg	100
936.21	1.018	1018.4	observe	Run1	observe/STIM_016.jpg	99
939.791	0.93	929.5	observe	Run1	observe/STIM_016.jpg	99
943.336	0.956	956.3	observe	Run1	observe/STIM_016.jpg	100
947.298	1.649	1648.7	observe	Run1	observe/STIM_016.jpg	99
952.111	1.258	1258.0	observe	Run1	observe/STIM_017.jpg	100
955.727	1.404	1403.9	observe	Run1	observe/STIM_017.jpg	99
961.026	1.566	1566.1	observe	Run1	observe/STIM_017.jpg	100
966.348	1.624	1624.2	observe	Run1	observe/STIM_017.jpg	99
970.652	1.275	1275.0	observe	Run1	observe/STIM_018.jpg	99
975.23	1.498	1497.5	observe	Run1	observe/STIM_018.jpg	100
979.381	1.452	1451.7	observe	Run1	observe/STIM_018.jpg	99
984.111	1.376	1375.9	observe	Run1	observe/STIM_018.jpg	100
989.405	1.387	1387.2	observe	Run1	observe/STIM_019.jpg	99
993.562	1.271	1271.4	observe	Run1	observe/STIM_019.jpg	99
998.556	1.51	1510.0	observe	Run1	observe/STIM_019.jpg	100
1002.285	1.024	1023.6	observe	Run1	observe/STIM_019.jpg	100
1005.415	2.812	2812.4	regulate	Run2	regulate/STIM_000.jpg	99
1010.668	2.745	2744.6	regulate	Run2	regulate/STIM_000.jpg	100
1016.388	2.687	2687.3	regulate	Run2	regulate/STIM_000.jpg	100
1021.68	2.502	2502.2	regulate	Run2	regulate/STIM_000.jpg	100
1026.783	2.399	2399.4	regulate	Run2	regulate/STIM_001.jpg	100
1032.729	2.439	2439.2	regulate	Run2	regulate/STIM_001.jpg	99
1038.024	2.691	2690.7	regulate	Run2	regulate/STIM_001.jpg	100
1044.238	1.975	1974.7	regulate	Run2	regulate/STIM_001.jpg	100
1048.47	2.268	2267.9	regulate	Run2	regulate/STIM_002.jpg	100
1053.035	2.415	2414.6	regulate	Run2	regulate/STIM_002.jpg	100
1058.628	2.168	2168.4	regulate	Run2	regulate/STIM_002.jpg	99
1062.925	2.154	2154.5	regulate	Run2	regulate/STIM_002.jpg	100
1068.597	1.368	1368.1	regulate	Run2	regulate/STIM_003.jpg	99
1072.483	1.297	1297.1	regulate	Run2	regulate/STIM_003.jpg	100
1077.691	1.87	1870.3	regulate	Run2	regulate/STIM_003.jpg	99
1082.02	1.322	1322.3	regulate	Run2	regulate/STIM_003.jpg	100
1087.184	2.613	2613.3	regulate	Run2	regulate/STIM_004.jpg	99
1092.082	1.488	1487.6	regulate	Run2	regulate/STIM_004.jpg	100
1095.886	2.405	2404.7	regulate	Run2	regulate/STIM_004.jpg	100
1100.455	1.976	1976.1	regulate	Run2	regulate/STIM_004.jpg	99
1105.113	2.509	2509.3	regulate	Run2	regulate/STIM_005.jpg	100
1110.67	2.494	2494.1	regulate	Run2	regulate/STIM_005.jpg	100
1115.84	2.057	2056.8	regulate	Run2	regulate/STIM_005.jpg	100
1120.977	1.12	1120.0	regulate	Run2	regulate/STIM_005.jpg	99
1125.533	1.621	1621.4	regulate	Run2	regulate/STIM_006.jpg	100
1130.564	1.419	1419.4	regulate	Run2	regulate/STIM_006.jpg	100
1134.105	1.902	1901.7	regulate	Run2	regulate/STIM_006.jpg	100
1138.306	1.984	1983.5	regulate	Run2	regulate/STIM_006.jpg	100
1142.933	2.497	2496.7	regulate	Run2	regulate/STIM_007.jpg	99
1149.421	2.205	2205.3	regulate	Run2	regulate/STIM_007.jpg	99
1155.47	1.251	1251.1	regulate	Run2	regulate/STIM_007.jpg	99
1160.553	2.519	2519.3	regulate	Run2	regulate/STIM_007.jpg	100
1165.448	1.915	1914.8	regulate	Run2	regulate/STIM_008.jpg	100
1170.125	2.059	2059.2	regulate	Run2	regulate/STIM_008.jpg	100
1174.712	1.906	1906.1	regulate	Run2	regulate/STIM_008.jpg	99
1179.49	1.287	1287.1	regulate	Run2	regulate/STIM_008.jpg	100
1183.803	2.852	2852.1	regulate	Run2	regulate/STIM_009.jpg	100
1190.1	2.441	2440.9	regulate	Run2	regulate/STIM_009.jpg	99
1195.019	2.133	2133.2	regulate	Run2	regulate/STIM_009.jpg	100
1200.396	2.387	2387.4	regulate	Run2	regulate/STIM_009.jpg	100
1205.361	2.046	2045.5	regulate	Run2	regulate/STIM_010.jpg	100
1210.463	2.556	2556.2	regulate	Run2	regulate/STIM_010.jpg	100
1216.728	1.976	1975.7	regulate	Run2	regulate/STIM_010.jpg	99
1220.848	1.999	1999.2	regulate	Run2	regulate/STIM_010.jpg	99
1225.731	2.031	2030.7	regulate	Run2	regulate/STIM_011.jpg	100
1231.392	2.131	2131.4	regulate	Run2	regulate/STIM_011.jpg	99
1236.009	1.628	1627.5	regulate	Run2	regulate/STIM_011.jpg	99
1240.35	1.998	1998.1	regulate	Run2	regulate/STIM_011.jpg	99
1244.392	2.057	2056.8	regulate	Run2	regulate/STIM_012.jpg	100
1250.13	1.628	1628.4	regulate	Run2	regulate/STIM_012.jpg	100
1254.417	1.54	1540.1	regulate	Run2	regulate/STIM_012.jpg	100
1259.535	1.568	1567.8	regulate	Run2	regulate/STIM_012.jpg	100
1264.322	2.039	2039.3	regulate	Run2	regulate/STIM_013.jpg	100
1268.711	2.64	2639.7	regulate	Run2	regulate/STIM_013.jpg	99
1274.487	1.408	1407.8	regulate	Run2	regulate/STIM_013.jpg	99
1278.258	2.438	2438.1	regulate	Run2	regulate/STIM_013.jpg	99
1283.68	2.97	2969.9	regulate	Run2	regulate/STIM_014.jpg	100
1290.161	2.819	2819.1	regulate	Run2	regulate/STIM_014.jpg	100
1296.326	2.432	2432.3	regulate	Run2	regulate/STIM_014.jpg	100
1301.203	1.768	1767.7	regulate	Run2	regulate/STIM_014.jpg	100
1306.735	3.041	3040.7	regulate	Run2	regulate/STIM_015.jpg	99
1313.412	1.509	1509.1	regulate	Run2	regulate/STIM_015.jpg	100
1318.778	1.613	1612.7	regulate	Run2	regulate/STIM_015.jpg	100
1323.874	1.371	1370.9	regulate	Run2	regulate/STIM_015.jpg	99
1328.907	1.426	1426.4	regulate	Run2	regulate/STIM_016.jpg	100
1333.81	1.83	1830.3	regulate	Run2	regulate/STIM_016.jpg	100
1338.139	1.232	1231.8	regulate	Run2	regulate/STIM_016.jpg	100
1343.083	1.247	1246.9	regulate	Run2	regulate/STIM_016.jpg	100
1346.445	1.869	1869.0	regulate	Run2	regulate/STIM_017.jpg	100
1351.623	2.142	2142.3	regulate	Run2	regulate/STIM_017.jpg	99
1357.177	1.884	1883.5	regulate	Run2	regulate/STIM_017.jpg	100
1361.253	1.57	1570.1	regulate	Run2	regulate/STIM_017.jpg	100
1365.748	1.803	1802.8	regulate	Run2	regulate/STIM_018.jpg	99
1371.294	2.816	2815.5	regulate	Run2	regulate/STIM_018.jpg	100
1376.901	1.929	1928.7	regulate	Run2	regulate/STIM_018.jpg	99
1382.233	2.309	2308.7	regulate	Run2	regulate/STIM_018.jpg	99
1386.635	1.847	1847.3	regulate	Run2	regulate/STIM_019.jpg	100
1392.404	2.807	2806.6	regulate	Run2	regulate/STIM_019.jpg	100
1397.369	1.764	1764.0	regulate	Run2	regulate/STIM_019.jpg	99
1401.478	2.137	2137.1	regulate	Run2	regulate/STIM_019.jpg	99
1406.265	1.534	1534.2	regulate	Run2	regulate/STIM_020.jpg	100
1411.371	1.273	1273.3	regulate	Run2	regulate/STIM_020.jpg	100
1416.312	2.214	2214.5	regulate	Run2	regulate/STIM_020.jpg	99
1421.47	2.516	2516.4	regulate	Run2	regulate/STIM_020.jpg	100
1426.95	1.879	1879.4	regulate	Run2	regulate/STIM_021.jpg	99
1431.122	1.414	1414.0	regulate	Run2	regulate/STIM_021.jpg	100
1436.329	1.596	1596.2	regulate	Run2	regulate/STIM_021.jpg	99
1441.372	1.274	1274.5	regulate	Run2	regulate/STIM_021.jpg	99
1445.045	3.05	3049.5	regulate	Run2	regulate/STIM_022.jpg	99
1451.042	2.717	2716.8	regulate	Run2	regulate/STIM_022.jpg	100
1456.895	2.6	2600.0	regulate	Run2	regulate/STIM_022.jpg	99
1462.58	2.429	2429.0	regulate	Run2	regulate/STIM_022.jpg	99
1467.341	1.866	1866.5	regulate	Run2	regulate/STIM_023.jpg	99
1471.911	1.591	1591.2	regulate	Run2	regulate/STIM_023.jpg	99
1476.188	1.988	1988.1	regulate	Run2	regulate/STIM_023.jpg	100
1481.178	2.195	2194.9	regulate	Run2	regulate/STIM_023.jpg	100
1487.259	2.481	2480.8	regulate	Run2	regulate/STIM_024.jpg	100
1493.691	1.422	1422.4	regulate	Run2	regulate/STIM_024.jpg	100
1498.074	2.371	2371.1	regulate	Run2	regulate/STIM_024.jpg	100
1502.777	2.29	2290.4	regulate	Run2	regulate/STIM_024.jpg	99
1508.431	2.302	2302.0	regulate	Run2	regulate/STIM_025.jpg	100
1512.773	2.35	2350.5	regulate	Run2	regulate/STIM_025.jpg	99
1517.912	2.023	2023.4	regulate	Run2	regulate/STIM_025.jpg	100
1523.673	2.044	2043.8	regulate	Run2	regulate/STIM_025.jpg	100
1528.718	1.358	1357.5	regulate	Run2	regulate/STIM_026.jpg	100
1532.239	1.978	1977.6	regulate	Run2	regulate/STIM_026.jpg	100
1537.022	1.327	1326.8	regulate	Run2	regulate/STIM_026.jpg	99
1542.233	1.748	1747.7	regulate	Run2	regulate/STIM_026.jpg	100
1547.965	1.481	1480.8	regulate	Run2	regulate/STIM_027.jpg	99
1551.482	1.832	1832.0	regulate	Run2	regulate/STIM_027.jpg	99
1557.28	1.98	1980.2	regulate	Run2	regulate/STIM_027.jpg	99
1563.249	2.192	2192.1	regulate	Run2	regulate/STIM_027.jpg	99
1568.592	2.617	2617.0	regulate	Run2	regulate/STIM_028.jpg	100
1573.673	1.647	1647.1	regulate	Run2	regulate/STIM_028.jpg	100
1578.412	1.487	1487.2	regulate	Run2	regulate/STIM_028.jpg	100
1583.28	1.779	1779.2	regulate	Run2	regulate/STIM_028.jpg	99
1588.536	2.434	2434.1	regulate	Run2	regulate/STIM_029.jpg	100
1593.955	1.469	1469.4	regulate	Run2	regulate/STIM_029.jpg	100
1597.445	2.094	2093.6	regulate	Run2	regulate/STIM_029.jpg	100
1603.245	2.272	2272.3	regulate	Run2	regulate/STIM_029.jpg	99
1608.104	1.536	1536.5	observe	Run2	observe/STIM_000.jpg	99
1612.752	0.865	864.7	observe	Run2	observe/STIM_000.jpg	99
1617.277	1.286	1285.9	observe	Run2	observe/STIM_000.jpg	100
1621.066	1.509	1508.8	observe	Run2	observe/STIM_000.jpg	99
1626.144	1.281	1280.7	observe	Run2	observe/STIM_001.jpg	99
1630.298	1.468	1467.6	observe	Run2	observe/STIM_001.jpg	99
1635.085	1.232	1232.1	observe	Run2	observe/STIM_001.jpg	99
1639.904	1.512	1512.0	observe	Run2	observe/STIM_001.jpg	99
1645.11	1.278	1277.8	observe	Run2	observe/STIM_002.jpg	100
1649.249	1.44	1440.1	observe	Run2	observe/STIM_002.jpg	100
1653.24	0.989	988.6	observe	Run2	observe/STIM_002.jpg	99
1657.489	1.386	1386.2	observe	Run2	observe/STIM_002.jpg	99
1661.478	0.988	987.7	observe	Run2	observe/STIM_003.jpg	100
1665.097	1.23	1229.9	observe	Run2	observe/STIM_003.jpg	100
1670.084	1.644	1644.2	observe	Run2	observe/STIM_003.jpg	99
1674.184	0.96	960.5	observe	Run2	observe/STIM_003.jpg	99
1677.853	1.079	1078.8	observe	Run2	observe/STIM_004.jpg	100
1682.559	1.263	1262.9	observe	Run2	observe/STIM_004.jpg	99
1687.326	1.304	1304.4	observe	Run2	observe/STIM_004.jpg	99
1692.565	0.98	979.7	observe	Run2	observe/STIM_004.jpg	99
1697.012	1.03	1030.0	observe	Run2	observe/STIM_005.jpg	99
1702.006	1.001	1001.1	observe	Run2	observe/STIM_005.jpg	100
1705.112	0.867	866.9	observe	Run2	observe/STIM_005.jpg	99
1709.475	0.898	898.4	observe	Run2	observe/STIM_005.jpg	99
1713.098	1.454	1453.5	observe	Run2	observe/STIM_006.jpg	99
1716.619	1.242	1241.5	observe	Run2	observe/STIM_006.jpg	99
1720.215	1.472	1471.5	observe	Run2	observe/STIM_006.jpg	99
1724.219	0.936	936.0	observe	Run2	observe/STIM_006.jpg	99
1728.334	1.625	1625.4	observe	Run2	observe/STIM_007.jpg	100
1732.997	1.501	1501.4	observe	Run2	observe/STIM_007.jpg	100
1738.346	1.575	1574.7	observe	Run2	observe/STIM_007.jpg	100
1742.853	1.474	1473.5	observe	Run2	observe/STIM_007.jpg	100
1747.915	1.497	1497.2	observe	Run2	observe/STIM_008.jpg	99
1753.279	1.042	1041.9	observe	Run2	observe/STIM_008.jpg	99
1756.528	1.495	1495.4	observe	Run2	observe/STIM_008.jpg	99
1760.485	1.039	1038.8	observe	Run2	observe/STIM_008.jpg	99
1763.579	1.285	1284.6	observe	Run2	observe/STIM_009.jpg	100
1768.141	0.961	961.4	observe	Run2	observe/STIM_009.jpg	99
1772.74	0.974	974.1	observe	Run2	observe/STIM_009.jpg	99
1776.321	1.535	1534.8	observe	Run2	observe/STIM_009.jpg	100
1781.614	0.924	924.4	observe	Run2	observe/STIM_010.jpg	100
1785.934	0.999	999.4	observe	Run2	observe/STIM_010.jpg	99
1788.978	1.422	1422.0	observe	Run2	observe/STIM_010.jpg	100
1794.356	0.841	840.8	observe	Run2	observe/STIM_010.jpg	100
1797.546	1.622	1622.0	observe	Run2	observe/STIM_011.jpg	99
1801.421	1.456	1455.8	observe	Run2	observe/STIM_011.jpg	99
1806.834	1.153	1152.8	observe	Run2	observe/STIM_011.jpg	99
1810.204	1.15	1150.0	observe	Run2	observe/STIM_011.jpg	100
1813.776	1.441	1440.9	observe	Run2	observe/STIM_012.jpg	100
1817.472	1.501	1500.6	observe	Run2	observe/STIM_012.jpg	99
1822.898	1.586	1586.1	observe	Run2	observe/STIM_012.jpg	99
1827.664	1.159	1158.7	observe	Run2	observe/STIM_012.jpg	99
1830.995	0.881	881.0	observe	Run2	observe/STIM_013.jpg	100
1834.008	1.574	1573.8	observe	Run2	observe/STIM_013.jpg	99
1839.48	1.098	1097.7	observe	Run2	observe/STIM_013.jpg	99
1843.198	1.332	1332.3	observe	Run2	observe/STIM_013.jpg	99
1847.871	1.165	1165.1	observe	Run2	observe/STIM_014.jpg	99
1851.658	1.554	1554.5	observe	Run2	observe/STIM_014.jpg	99
1856.386	1.39	1390.2	observe	Run2	observe/STIM_014.jpg	100
1860.02	1.299	1299.1	observe	Run2	observe/STIM_014.jpg	100
1865.145	1.336	1335.6	observe	Run2	observe/STIM_015.jpg	100
1869.386	1.0	999.7	observe	Run2	observe/STIM_015.jpg	100
1873.356	0.948	948.4	observe	Run2	observe/STIM_015.jpg	100
1878.287	1.622	1622.0	observe	Run2	observe/STIM_015.jpg	100
1881.938	1.432	1431.9	observe	Run2	observe/STIM_016.jpg	100
1886.483	0.903	902.9	observe	Run2	observe/STIM_016.jpg	100
1890.245	1.22	1220.4	observe	Run2	observe/STIM_016.jpg	100
1895.398	0.873	873.0	observe	Run2	observe/STIM_016.jpg	100
1898.672	1.644	1644.5	observe	Run2	observe/STIM_017.jpg	100
1903.716	1.562	1562.3	observe	Run2	observe/STIM_017.jpg	100
1907.812	1.425	1424.7	observe	Run2	observe/STIM_017.jpg	100
1912.661	1.301	1301.1	observe	Run2	observe/STIM_017.jpg	100
1917.558	1.637	1637.2	observe	Run2	observe/STIM_018.jpg	100
1922.278	1.5	1499.9	observe	Run2	observe/STIM_018.jpg	100
1927.393	0.943	943.0	observe	Run2	observe/STIM_018.jpg	100
1931.686	1.025	1025.1	observe	Run2	observe/STIM_018.jpg	99
1935.376	1.194	1194.1	observe	Run2	observe/STIM_019.jpg	100
1938.639	1.489	1489.2	observe	Run2	observe/STIM_019.jpg	99
1943.321	1.611	1610.6	observe	Run2	observe/STIM_019.jpg	99
1948.884	1.024	1023.5	observe	Run2	observe/STIM_019.jpg	99
1953.217	2.124	2124.1	regulate	Run3	regulate/STIM_000.jpg	100
1958.768	2.192	2192.3	regulate	Run3	regulate/STIM_000.jpg	99
1964.816	2.173	2172.7	regulate	Run3	regulate/STIM_000.jpg	100
1969.298	1.196	1196.0	regulate	Run3	regulate/STIM_000.jpg	100
1972.957	1.142	1142.5	regulate	Run3	regulate/STIM_001.jpg	99
1977.596	1.377	1377.0	regulate	Run3	regulate/STIM_001.jpg	100
1981.855	2.364	2364.5	regulate	Run3	regulate/STIM_001.jpg	100
1987.207	1.722	1721.9	regulate	Run3	regulate/STIM_001.jpg	100
1991.114	2.333	2332.6	regulate	Run3	regulate/STIM_002.jpg	100
1997.213	1.274	1273.9	regulate	Run3	regulate/STIM_002.jpg	99
2001.089	1.808	1807.7	regulate	Run3	regulate/STIM_002.jpg	100
2005.069	2.432	2431.9	regulate	Run3	regulate/STIM_002.jpg	100
2010.352	2.438	2438.2	regulate	Run3	regulate/STIM_003.jpg	99
2015.583	1.695	1695.0	regulate	Run3	regulate/STIM_003.jpg	100
2020.943	1.173	1173.4	regulate	Run3	regulate/STIM_003.jpg	100
2025.762	2.031	2030.7	regulate	Run3	regulate/STIM_003.jpg	100
2030.063	2.322	2322.3	regulate	Run3	regulate/STIM_004.jpg	99
2034.932	1.331	1331.0	regulate	Run3	regulate/STIM_004.jpg	99
2039.667	2.028	2027.6	regulate	Run3	regulate/STIM_004.jpg	99
2045.161	1.146	1146.2	regulate	Run3	regulate/STIM_004.jpg	100
2049.956	1.646	1646.1	regulate	Run3	regulate/STIM_005.jpg	100
2054.542	1.106	1105.7	regulate	Run3	regulate/STIM_005.jpg	99
2058.757	2.35	2349.5	regulate	Run3	regulate/STIM_005.jpg	99
2063.441	1.291	1290.6	regulate	Run3	regulate/STIM_005.jpg	100
2068.414	1.955	1955.1	regulate	Run3	regulate/STIM_006.jpg	100
2073.196	2.441	2441.3	regulate	Run3	regulate/STIM_006.jpg	100
2077.803	2.338	2337.8	regulate	Run3	regulate/STIM_006.jpg	99
2083.155	1.973	1973.2	regulate	Run3	regulate/STIM_006.jpg	99
2088.002	1.919	1918.8	regulate	Run3	regulate/STIM_007.jpg	100
2092.351	1.136	1136.4	regulate	Run3	regulate/STIM_007.jpg	99
2095.594	2.359	2359.3	regulate	Run3	regulate/STIM_007.jpg	99
2101.261	1.571	1571.4	regulate	Run3	regulate/STIM_007.jpg	100
2104.94	1.654	1654.1	regulate	Run3	regulate/STIM_008.jpg	100
2109.6	2.404	2403.6	regulate	Run3	regulate/STIM_008.jpg	100
2115.46	1.91	1910.5	regulate	Run3	regulate/STIM_008.jpg	100
2121.073	2.266	2265.8	regulate	Run3	regulate/STIM_008.jpg	99
2126.662	1.844	1844.3	regulate	Run3	regulate/STIM_009.jpg	100
2131.1	1.502	1502.1	regulate	Run3	regulate/STIM_009.jpg	99
2135.886	1.457	1457.1	regulate	Run3	regulate/STIM_009.jpg	100
2140.782	2.313	2313.2	regulate	Run3	regulate/STIM_009.jpg	100
2145.228	2.509	2509.4	regulate	Run3	regulate/STIM_010.jpg	99
2151.348	2.194	2193.7	regulate	Run3	regulate/STIM_010.jpg	100
2155.958	2.512	2511.9	regulate	Run3	regulate/STIM_010.jpg	100
2162.021	2.346	2346.4	regulate	Run3	regulate/STIM_010.jpg	100
2168.216	2.297	2296.6	regulate	Run3	regulate/STIM_011.jpg	99
2172.689	1.966	1965.8	regulate	Run3	regulate/STIM_011.jpg	100
2176.702	1.116	1115.5	regulate	Run3	regulate/STIM_011.jpg	100
2180.473	2.287	2286.7	regulate	Run3	regulate/STIM_011.jpg	99
2185.807	1.521	1521.0	regulate	Run3	regulate/STIM_012.jpg	100
2189.693	1.949	1948.7	regulate	Run3	regulate/STIM_012.jpg	100
2193.692	2.052	2051.6	regulate	Run3	regulate/STIM_012.jpg	100
2197.779	2.412	2412.3	regulate	Run3	regulate/STIM_012.jpg	99
2203.017	1.097	1097.2	regulate	Run3	regulate/STIM_013.jpg	99
2206.14	1.185	1184.7	regulate	Run3	regulate/STIM_013.jpg	99
2210.694	2.522	2522.0	regulate	Run3	regulate/STIM_013.jpg	99
2216.052	2.461	2461.4	regulate	Run3	regulate/STIM_013.jpg	99
2221.192	2.358	2357.6	regulate	Run3	regulate/STIM_014.jpg	99
2226.347	1.324	1324.2	regulate	Run3	regulate/STIM_014.jpg	100
2229.869	2.445	2445.1	regulate	Run3	regulate/STIM_014.jpg	100
2236.181	1.211	1211.4	regulate	Run3	regulate/STIM_014.jpg	99
2241.204	2.378	2377.9	regulate	Run3	regulate/STIM_015.jpg	99
2246.27	1.93	1929.5	regulate	Run3	regulate/STIM_015.jpg	100
2250.968	2.523	2523.3	regulate	Run3	regulate/STIM_015.jpg	100
2256.737	2.221	2220.7	regulate	Run3	regulate/STIM_015.jpg	100
2261.491	1.534	1533.7	regulate	Run3	regulate/STIM_016.jpg	99
2265.839	1.763	1762.7	regulate	Run3	regulate/STIM_016.jpg	100
2270.968	1.993	1992.8	regulate	Run3	regulate/STIM_016.jpg	100
2276.951	1.247	1247.0	regulate	Run3	regulate/STIM_016.jpg	100
2281.607	2.379	2378.9	regulate	Run3	regulate/STIM_017.jpg	100
2287.488	1.783	1783.0	regulate	Run3	regulate/STIM_017.jpg	99
2292.574	1.282	1282.2	regulate	Run3	regulate/STIM_017.jpg	99
2296.272	1.754	1754.3	regulate	Run3	regulate/STIM_017.jpg	99
2300.27	2.417	2416.6	regulate	Run3	regulate/STIM_018.jpg	100
2306.336	1.287	1287.2	regulate	Run3	regulate/STIM_018.jpg	99
2309.978	1.548	1547.9	regulate	Run3	regulate/STIM_018.jpg	100
2313.851	2.521	2521.1	regulate	Run3	regulate/STIM_018.jpg	99
2318.811	1.351	1350.9	regulate	Run3	regulate/STIM_019.jpg	100
2323.382	1.306	1306.2	regulate	Run3	regulate/STIM_019.jpg	99
2326.879	1.573	1572.8	regulate	Run3	regulate/STIM_019.jpg	99
2331.667	1.993	1992.8	regulate	Run3	regulate/STIM_019.jpg	100
2337.375	1.757	1756.6	regulate	Run3	regulate/STIM_020.jpg	100
2342.442	1.561	1560.7	regulate	Run3	regulate/STIM_020.jpg	99
2347.006	2.063	2062.6	regulate	Run3	regulate/STIM_020.jpg	100
2351.756	1.567	1567.1	regulate	Run3	regulate/STIM_020.jpg	100
2355.763	1.667	1667.0	regulate	Run3	regulate/STIM_021.jpg	99
2359.538	1.766	1765.5	regulate	Run3	regulate/STIM_021.jpg	100
2365.124	2.194	2194.1	regulate	Run3	regulate/STIM_021.jpg	100
2369.809	2.275	2274.8	regulate	Run3	regulate/STIM_021.jpg	100
2375.369	2.053	2053.3	regulate	Run3	regulate/STIM_022.jpg	99
2379.771	2.152	2151.8	regulate	Run3	regulate/STIM_022.jpg	99
2384.022	1.3	1300.0	regulate	Run3	regulate/STIM_022.jpg	99
2388.513	2.092	2092.0	regulate	Run3	regulate/STIM_022.jpg	99
2393.619	1.61	1610.0	regulate	Run3	regulate/STIM_023.jpg	99
2398.087	1.742	1741.5	regulate	Run3	regulate/STIM_023.jpg	99
2403.167	1.861	1860.6	regulate	Run3	regulate/STIM_023.jpg	99
2407.512	1.468	1468.2	regulate	Run3	regulate/STIM_023.jpg	100
2410.99	1.276	1275.7	regulate	Run3	regulate/STIM_024.jpg	99
2415.511	2.281	2281.2	regulate	Run3	regulate/STIM_024.jpg	99
2421.083	2.046	2045.9	regulate	Run3	regulate/STIM_024.jpg	100
2426.338	2.01	2010.2	regulate	Run3	regulate/STIM_024.jpg	99
2431.251	1.627	1626.8	regulate	Run3	regulate/STIM_025.jpg	99
2434.961	2.212	2211.6	regulate	Run3	regulate/STIM_025.jpg	100
2440.682	1.369	1369.0	regulate	Run3	regulate/STIM_025.jpg	99
2444.942	1.431	1431.3	regulate	Run3	regulate/STIM_025.jpg	100
2448.857	1.93	1929.9	regulate	Run3	regulate/STIM_026.jpg	100
2454.122	2.444	2444.5	regulate	Run3	regulate/STIM_026.jpg	100
2459.151	2.112	2111.9	regulate	Run3	regulate/STIM_026.jpg	100
2463.891	1.74	1740.2	regulate	Run3	regulate/STIM_026.jpg	100
2468.682	1.673	1672.6	regulate	Run3	regulate/STIM_027.jpg	99
2474.131	1.531	1530.7	regulate	Run3	regulate/STIM_027.jpg	99
2478.574	2.11	2110.0	regulate	Run3	regulate/STIM_027.jpg	100
2483.277	1.881	1881.2	regulate	Run3	regulate/STIM_027.jpg	99
2488.502	1.094	1093.9	regulate	Run3	regulate/STIM_028.jpg	99
2492.757	2.493	2492.7	regulate	Run3	regulate/STIM_028.jpg	100
2499.065	1.278	1278.3	regulate	Run3	regulate/STIM_028.jpg	100
2503.839	1.348	1348.2	regulate	Run3	regulate/STIM_028.jpg	100
2508.711	1.335	1335.1	regulate	Run3	regulate/STIM_029.jpg	99
2512.532	1.363	1363.3	regulate	Run3	regulate/STIM_029.jpg	99
2517.553	1.51	1510.5	regulate	Run3	regulate/STIM_029.jpg	99
2522.194	1.242	1241.6	regulate	Run3	regulate/STIM_029.jpg	100
2527.374	1.316	1316.2	observe	Run3	observe/STIM_000.jpg	100
2531.499	1.398	1397.6	observe	Run3	observe/STIM_000.jpg	100
2535.22	1.184	1184.4	observe	Run3	observe/STIM_000.jpg	99
2540.166	1.44	1439.9	observe	Run3	observe/STIM_000.jpg	99
2543.866	0.859	858.8	observe	Run3	observe/STIM_001.jpg	99
2547.157	1.348	1348.0	observe	Run3	observe/STIM_001.jpg	99
2551.329	1.445	1444.8	observe	Run3	observe/STIM_001.jpg	100
2556.147	1.325	1324.8	observe	Run3	observe/STIM_001.jpg	100
2561.159	0.923	922.6	observe	Run3	observe/STIM_002.jpg	99
2565.492	0.946	945.5	observe	Run3	observe/STIM_002.jpg	99
2569.595	1.032	1031.8	observe	Run3	observe/STIM_002.jpg	99
2574.506	1.114	1113.8	observe	Run3	observe/STIM_002.jpg	100
2578.835	1.165	1165.0	observe	Run3	observe/STIM_003.jpg	100
2583.513	0.891	891.4	observe	Run3	observe/STIM_003.jpg	99
2587.108	1.069	1068.7	observe	Run3	observe/STIM_003.jpg	99
2590.305	1.416	1416.5	observe	Run3	observe/STIM_003.jpg	100
2595.72	1.16	1159.6	observe	Run3	observe/STIM_004.jpg	100
2599.443	1.194	1194.2	observe	Run3	observe/STIM_004.jpg	100
2604.136	1.015	1014.6	observe	Run3	observe/STIM_004.jpg	99
2607.599	0.912	911.8	observe	Run3	observe/STIM_004.jpg	100
2612.088	1.445	1445.1	observe	Run3	observe/STIM_005.jpg	99
2616.126	1.357	1356.9	observe	Run3	observe/STIM_005.jpg	100
2620.797	1.012	1012.1	observe	Run3	observe/STIM_005.jpg	100
2624.895	1.34	1339.7	observe	Run3	observe/STIM_005.jpg	99
2629.369	0.862	861.6	observe	Run3	observe/STIM_006.jpg	100
2632.739	1.107	1106.9	observe	Run3	observe/STIM_006.jpg	100
2637.583	1.209	1208.7	observe	Run3	observe/STIM_006.jpg	99
2640.975	1.29	1289.6	observe	Run3	observe/STIM_006.jpg	99
2645.476	1.399	1398.9	observe	Run3	observe/STIM_007.jpg	100
2650.011	0.962	962.2	observe	Run3	observe/STIM_007.jpg	100
2653.784	1.049	1049.3	observe	Run3	observe/STIM_007.jpg	99
2657.787	1.123	1123.1	observe	Run3	observe/STIM_007.jpg	99
2661.157	1.169	1168.6	observe	Run3	observe/STIM_008.jpg	100
2665.77	0.984	984.3	observe	Run3	observe/STIM_008.jpg	99
2670.344	1.156	1156.2	observe	Run3	observe/STIM_008.jpg	99
2674.086	0.929	929.0	observe	Run3	observe/STIM_008.jpg	99
2677.348	0.829	828.9	observe	Run3	observe/STIM_009.jpg	100
2680.697	1.527	1527.3	observe	Run3	observe/STIM_009.jpg	99
2684.511	1.137	1137.4	observe	Run3	observe/STIM_009.jpg	100
2689.395	1.252	1252.4	observe	Run3	observe/STIM_009.jpg	100
2694.445	0.878	877.5	observe	Run3	observe/STIM_010.jpg	99
2697.521	1.605	1604.8	observe	Run3	observe/STIM_010.jpg	99
2701.885	0.934	934.1	observe	Run3	observe/STIM_010.jpg	100
2705.113	1.213	1213.0	observe	Run3	observe/STIM_010.jpg	99
2709.747	1.649	1648.8	observe	Run3	observe/STIM_011.jpg	100
2715.034	0.834	833.7	observe	Run3	observe/STIM_011.jpg	99
2719.278	1.311	1310.8	observe	Run3	observe/STIM_011.jpg	99
2723.427	1.136	1135.5	observe	Run3	observe/STIM_011.jpg	99
2728.292	1.228	1228.3	observe	Run3	observe/STIM_012.jpg	99
2732.301	1.013	1013.4	observe	Run3	observe/STIM_012.jpg	100
2736.691	1.488	1487.6	observe	Run3	observe/STIM_012.jpg	99
2742.031	1.288	1288.1	observe	Run3	observe/STIM_012.jpg	99
2745.703	1.456	1455.6	observe	Run3	observe/STIM_013.jpg	100
2750.876	1.453	1453.3	observe	Run3	observe/STIM_013.jpg	99
2756.037	0.932	932.4	observe	Run3	observe/STIM_013.jpg	100
2759.963	0.895	895.3	observe	Run3	observe/STIM_013.jpg	100
2763.209	1.298	1297.7	observe	Run3	observe/STIM_014.jpg	100
2767.422	1.056	1056.0	observe	Run3	observe/STIM_014.jpg	99
2772.419	0.921	921.2	observe	Run3	observe/STIM_014.jpg	100
2776.636	1.427	1426.9	observe	Run3	observe/STIM_014.jpg	99
2781.473	1.573	1573.2	observe	Run3	observe/STIM_015.jpg	100
2785.502	1.271	1271.2	observe	Run3	observe/STIM_015.jpg	99
2790.684	0.912	911.7	observe	Run3	observe/STIM_015.jpg	100
2794.621	0.892	892.2	observe	Run3	observe/STIM_015.jpg	99
2799.148	1.54	1540.4	observe	Run3	observe/STIM_016.jpg	99
2803.342	1.242	1242.1	observe	Run3	observe/STIM_016.jpg	99
2806.596	1.222	1221.6	observe	Run3	observe/STIM_016.jpg	99
2811.027	1.33	1330.5	observe	Run3	observe/STIM_016.jpg	100
2814.588	1.517	1517.2	observe	Run3	observe/STIM_017.jpg	100
2818.476	1.417	1417.4	observe	Run3	observe/STIM_017.jpg	99
2822.288	1.052	1052.4	observe	Run3	observe/STIM_017.jpg	100
2825.653	1.544	1543.9	observe	Run3	observe/STIM_017.jpg	100
2829.94	1.456	1455.8	observe	Run3	observe/STIM_018.jpg	100
2834.118	0.904	904.2	observe	Run3	observe/STIM_018.jpg	100
2838.061	0.846	846.0	observe	Run3	observe/STIM_018.jpg	99
2842.322	0.852	852.0	observe	Run3	observe/STIM_018.jpg	99
2846.996	0.894	893.9	observe	Run3	observe/STIM_019.jpg	99
2851.504	1.308	1308.4	observe	Run3	observe/STIM_019.jpg	100
2856.303	1.145	1144.6	observe	Run3	observe/STIM_019.jpg	99
2860.804	1.582	1582.3	observe	Run3	observe/STIM_019.jpg	100
