onset	duration	accuracy_binary	trial_type	learning_stage	stimulus
0.0	5.81	1	navigation	Trial1	navigation/STIM_000.jpg
9.36	3.859	0	navigation	Trial1	navigation/STIM_000.jpg
16.672	4.882	0	navigation	Trial1	navigation/STIM_000.jpg
24.996	6.002	1	navigation	Trial1	navigation/STIM_000.jpg
34.417	5.687	1	navigation	Trial1	navigation/STIM_000.jpg
42.226	4.04	0	navigation	Trial1	navigation/STIM_000.jpg
49.03	6.018	0	navigation	Trial1	navigation/STIM_001.jpg
58.962	5.013	1	navigation	Trial1	navigation/STIM_001.jpg
67.445	6.113	1	navigation	Trial1	navigation/STIM_001.jpg
77.085	3.329	1	navigation	Trial1	navigation/STIM_001.jpg
83.906	5.704	1	navigation	Trial1	navigation/STIM_001.jpg
92.134	2.258	1	navigation	Trial1	navigation/STIM_001.jpg
97.723	4.212	0	navigation	Trial1	navigation/STIM_002.jpg
105.236	5.784	0	navigation	Trial1	navigation/STIM_002.jpg
114.845	3.931	1	navigation	Trial1	navigation/STIM_002.jpg
122.329	2.855	1	navigation	Trial1	navigation/STIM_002.jpg
128.311	5.416	1	navigation	Trial1	navigation/STIM_002.jpg
136.135	2.341	0	navigation	Trial1	navigation/STIM_002.jpg
141.09	5.589	1	navigation	Trial1	navigation/STIM_003.jpg
149.505	4.663	1	navigation	Trial1	navigation/STIM_003.jpg
156.915	5.833	0	navigation	Trial1	navigation/STIM_003.jpg
164.885	5.762	1	navigation	Trial1	navigation/STIM_003.jpg
174.045	2.504	1	navigation	Trial1	navigation/STIM_003.jpg
178.815	3.725	1	navigation	Trial1	navigation/STIM_003.jpg
184.949	5.163	1	navigation	Trial1	navigation/STIM_004.jpg
193.507	5.041	1	navigation	Trial1	navigation/STIM_004.jpg
201.192	6.135	1	navigation	Trial1	navigation/STIM_004.jpg
210.446	3.111	0	navigation	Trial1	navigation/STIM_004.jpg
216.555	3.514	0	navigation	Trial1	navigation/STIM_004.jpg
222.812	5.253	0	navigation	Trial1	navigation/STIM_004.jpg
231.54	5.81	1	navigation	Trial1	navigation/STIM_005.jpg
240.629	6.624	0	navigation	Trial1	navigation/STIM_005.jpg
250.312	3.539	1	navigation	Trial1	navigation/STIM_005.jpg
256.97	4.249	0	navigation	Trial1	navigation/STIM_005.jpg
263.393	4.063	1	navigation	Trial1	navigation/STIM_005.jpg
269.529	2.778	1	navigation	Trial1	navigation/STIM_005.jpg
275.756	4.341	0	navigation	Trial1	navigation/STIM_006.jpg
284.026	6.764	0	navigation	Trial1	navigation/STIM_006.jpg
294.413	3.022	1	navigation	Trial1	navigation/STIM_006.jpg
300.583	3.05	1	navigation	Trial1	navigation/STIM_006.jpg
305.816	3.647	1	navigation	Trial1	navigation/STIM_006.jpg
312.54	4.616	1	navigation	Trial1	navigation/STIM_006.jpg
320.661	7.224	1	navigation	Trial1	navigation/STIM_007.jpg
330.972	4.795	0	navigation	Trial1	navigation/STIM_007.jpg
338.519	4.23	1	navigation	Trial1	navigation/STIM_007.jpg
345.402	4.528	1	navigation	Trial1	navigation/STIM_007.jpg
353.522	4.019	1	navigation	Trial1	navigation/STIM_007.jpg
360.112	4.645	1	navigation	Trial1	navigation/STIM_007.jpg
367.717	5.529	1	navigation	Trial1	navigation/STIM_008.jpg
375.971	4.583	1	navigation	Trial1	navigation/STIM_008.jpg
384.403	3.07	1	navigation	Trial1	navigation/STIM_008.jpg
391.226	2.628	0	navigation	Trial1	navigation/STIM_008.jpg
396.29	3.898	1	navigation	Trial1	navigation/STIM_008.jpg
403.579	3.109	1	navigation	Trial1	navigation/STIM_008.jpg
409.141	3.638	1	navigation	Trial1	navigation/STIM_009.jpg
415.344	5.541	1	navigation	Trial1	navigation/STIM_009.jpg
423.279	4.888	0	navigation	Trial1	navigation/STIM_009.jpg
431.315	4.989	1	navigation	Trial1	navigation/STIM_009.jpg
439.224	4.798	1	navigation	Trial1	navigation/STIM_009.jpg
446.959	2.23	1	navigation	Trial1	navigation/STIM_009.jpg
452.58	5.017	0	navigation	Trial1	navigation/STIM_010.jpg
460.186	2.858	1	navigation	Trial1	navigation/STIM_010.jpg
466.687	4.491	1	navigation	Trial1	navigation/STIM_010.jpg
474.029	3.538	1	navigation	Trial1	navigation/STIM_010.jpg
480.464	4.858	0	navigation	Trial1	navigation/STIM_010.jpg
488.428	5.09	1	navigation	Trial1	navigation/STIM_010.jpg
496.667	2.962	1	navigation	Trial1	navigation/STIM_011.jpg
503.544	3.401	0	navigation	Trial1	navigation/STIM_011.jpg
510.114	6.451	1	navigation	Trial1	navigation/STIM_011.jpg
519.733	4.11	1	navigation	Trial1	navigation/STIM_011.jpg
526.992	2.5	1	navigation	Trial1	navigation/STIM_011.jpg
532.822	3.134	0	navigation	Trial1	navigation/STIM_011.jpg
539.014	2.119	0	pointing	Trial1	pointing/STIM_000.jpg
544.73	1.865	1	pointing	Trial1	pointing/STIM_000.jpg
549.844	1.524	0	pointing	Trial1	pointing/STIM_000.jpg
553.473	1.26	1	pointing	Trial1	pointing/STIM_000.jpg
557.226	1.789	1	pointing	Trial1	pointing/STIM_000.jpg
561.411	1.995	1	pointing	Trial1	pointing/STIM_000.jpg
566.509	1.914	1	pointing	Trial1	pointing/STIM_001.jpg
571.029	2.05	1	pointing	Trial1	pointing/STIM_001.jpg
575.749	2.187	1	pointing	Trial1	pointing/STIM_001.jpg
581.026	1.622	1	pointing	Trial1	pointing/STIM_001.jpg
586.528	1.798	1	pointing	Trial1	pointing/STIM_001.jpg
590.521	1.856	1	pointing	Trial1	pointing/STIM_001.jpg
596.073	2.077	1	pointing	Trial1	pointing/STIM_002.jpg
601.073	1.38	1	pointing	Trial1	pointing/STIM_002.jpg
605.631	1.738	1	pointing	Trial1	pointing/STIM_002.jpg
610.534	1.642	1	pointing	Trial1	pointing/STIM_002.jpg
615.785	1.52	1	pointing	Trial1	pointing/STIM_002.jpg
619.365	1.974	1	pointing	Trial1	pointing/STIM_002.jpg
624.312	1.41	1	pointing	Trial1	pointing/STIM_003.jpg
628.23	1.246	1	pointing	Trial1	pointing/STIM_003.jpg
633.374	1.696	1	pointing	Trial1	pointing/STIM_003.jpg
637.243	2.038	1	pointing	Trial1	pointing/STIM_003.jpg
642.935	1.733	1	pointing	Trial1	pointing/STIM_003.jpg
646.737	2.059	1	pointing	Trial1	pointing/STIM_003.jpg
651.828	2.123	1	pointing	Trial1	pointing/STIM_004.jpg
657.326	1.632	1	pointing	Trial1	pointing/STIM_004.jpg
662.326	2.01	0	pointing	Trial1	pointing/STIM_004.jpg
667.438	2.179	1	pointing	Trial1	pointing/STIM_004.jpg
672.104	2.099	1	pointing	Trial1	pointing/STIM_004.jpg
677.794	1.749	1	pointing	Trial1	pointing/STIM_004.jpg
682.94	1.526	0	pointing	Trial1	pointing/STIM_005.jpg
686.467	1.727	1	pointing	Trial1	pointing/STIM_005.jpg
691.932	1.392	1	pointing	Trial1	pointing/STIM_005.jpg
695.366	2.174	1	pointing	Trial1	pointing/STIM_005.jpg
701.334	1.411	1	pointing	Trial1	pointing/STIM_005.jpg
704.76	1.912	1	pointing	Trial1	pointing/STIM_005.jpg
709.415	2.006	1	pointing	Trial1	pointing/STIM_006.jpg
714.516	1.891	1	pointing	Trial1	pointing/STIM_006.jpg
718.494	1.978	1	pointing	Trial1	pointing/STIM_006.jpg
723.892	1.532	1	pointing	Trial1	pointing/STIM_006.jpg
728.849	1.971	0	pointing	Trial1	pointing/STIM_006.jpg
733.152	2.182	1	pointing	Trial1	pointing/STIM_006.jpg
738.991	1.357	1	pointing	Trial1	pointing/STIM_007.jpg
742.793	1.754	1	pointing	Trial1	pointing/STIM_007.jpg
747.314	1.921	1	pointing	Trial1	pointing/STIM_007.jpg
752.514	2.056	1	pointing	Trial1	pointing/STIM_007.jpg
757.484	1.52	1	pointing	Trial1	pointing/STIM_007.jpg
762.738	1.294	1	pointing	Trial1	pointing/STIM_007.jpg
766.399	1.35	1	pointing	Trial1	pointing/STIM_008.jpg
771.665	2.008	1	pointing	Trial1	pointing/STIM_008.jpg
777.347	1.996	1	pointing	Trial1	pointing/STIM_008.jpg
782.999	2.15	1	pointing	Trial1	pointing/STIM_008.jpg
787.669	1.341	1	pointing	Trial1	pointing/STIM_008.jpg
792.993	2.153	1	pointing	Trial1	pointing/STIM_008.jpg
798.561	2.144	1	pointing	Trial1	pointing/STIM_009.jpg
804.077	1.502	1	pointing	Trial1	pointing/STIM_009.jpg
808.558	2.176	0	pointing	Trial1	pointing/STIM_009.jpg
814.729	1.584	1	pointing	Trial1	pointing/STIM_009.jpg
819.843	2.092	1	pointing	Trial1	pointing/STIM_009.jpg
825.232	2.154	1	pointing	Trial1	pointing/STIM_009.jpg
830.949	1.21	1	pointing	Trial1	pointing/STIM_010.jpg
835.561	1.898	1	pointing	Trial1	pointing/STIM_010.jpg
841.236	1.186	1	pointing	Trial1	pointing/STIM_010.jpg
845.917	2.15	1	pointing	Trial1	pointing/STIM_010.jpg
851.893	1.934	1	pointing	Trial1	pointing/STIM_010.jpg
856.466	1.34	1	pointing	Trial1	pointing/STIM_010.jpg
861.123	1.912	1	pointing	Trial1	pointing/STIM_011.jpg
865.299	1.672	1	pointing	Trial1	pointing/STIM_011.jpg
869.864	1.291	1	pointing	Trial1	pointing/STIM_011.jpg
873.67	1.693	0	pointing	Trial1	pointing/STIM_011.jpg
878.076	1.35	1	pointing	Trial1	pointing/STIM_011.jpg
881.927	1.679	1	pointing	Trial1	pointing/STIM_011.jpg
886.148	5.704	0	navigation	Trial2	navigation/STIM_000.jpg
894.215	3.959	1	navigation	Trial2	navigation/STIM_000.jpg
900.544	3.47	1	navigation	Trial2	navigation/STIM_000.jpg
906.385	4.94	1	navigation	Trial2	navigation/STIM_000.jpg
914.951	2.109	1	navigation	Trial2	navigation/STIM_000.jpg
920.757	4.479	1	navigation	Trial2	navigation/STIM_000.jpg
928.186	2.633	1	navigation	Trial2	navigation/STIM_001.jpg
934.26	4.691	0	navigation	Trial2	navigation/STIM_001.jpg
941.535	4.501	0	navigation	Trial2	navigation/STIM_001.jpg
948.791	2.172	1	navigation	Trial2	navigation/STIM_001.jpg
953.559	2.211	0	navigation	Trial2	navigation/STIM_001.jpg
959.527	4.38	0	navigation	Trial2	navigation/STIM_001.jpg
967.828	5.809	1	navigation	Trial2	navigation/STIM_002.jpg
977.374	3.457	1	navigation	Trial2	navigation/STIM_002.jpg
984.029	3.719	1	navigation	Trial2	navigation/STIM_002.jpg
991.469	3.86	1	navigation	Trial2	navigation/STIM_002.jpg
997.98	3.017	1	navigation	Trial2	navigation/STIM_002.jpg
1004.294	3.437	0	navigation	Trial2	navigation/STIM_002.jpg
1010.341	5.285	1	navigation	Trial2	navigation/STIM_003.jpg
1018.706	3.302	0	navigation	Trial2	navigation/STIM_003.jpg
1024.843	3.223	1	navigation	Trial2	navigation/STIM_003.jpg
1030.335	3.417	1	navigation	Trial2	navigation/STIM_003.jpg
1037.692	3.647	1	navigation	Trial2	navigation/STIM_003.jpg
1044.434	3.941	0	navigation	Trial2	navigation/STIM_003.jpg
1051.108	3.495	1	navigation	Trial2	navigation/STIM_004.jpg
1058.278	4.493	1	navigation	Trial2	navigation/STIM_004.jpg
1065.16	3.623	1	navigation	Trial2	navigation/STIM_004.jpg
1072.248	2.079	1	navigation	Trial2	navigation/STIM_004.jpg
1076.89	4.169	0	navigation	Trial2	navigation/STIM_004.jpg
1083.919	4.466	1	navigation	Trial2	navigation/STIM_004.jpg
1092.209	4.845	0	navigation	Trial2	navigation/STIM_005.jpg
1099.518	4.316	1	navigation	Trial2	navigation/STIM_005.jpg
1107.73	4.016	1	navigation	Trial2	navigation/STIM_005.jpg
1115.3	2.213	0	navigation	Trial2	navigation/STIM_005.jpg
1119.745	2.22	1	navigation	Trial2	navigation/STIM_005.jpg
1125.698	5.03	0	navigation	Trial2	navigation/STIM_005.jpg
1134.488	3.4	1	navigation	Trial2	navigation/STIM_006.jpg
1140.439	3.064	0	navigation	Trial2	navigation/STIM_006.jpg
1146.021	4.972	1	navigation	Trial2	navigation/STIM_006.jpg
1153.53	4.782	0	navigation	Trial2	navigation/STIM_006.jpg
1161.763	2.111	0	navigation	Trial2	navigation/STIM_006.jpg
1167.241	2.523	1	navigation	Trial2	navigation/STIM_006.jpg
1172.162	4.249	0	navigation	Trial2	navigation/STIM_007.jpg
1179.325	2.785	1	navigation	Trial2	navigation/STIM_007.jpg
1185.416	4.105	1	navigation	Trial2	navigation/STIM_007.jpg
1191.991	3.252	1	navigation	Trial2	navigation/STIM_007.jpg
1199.034	2.625	0	navigation	Trial2	navigation/STIM_007.jpg
1205.362	3.927	1	navigation	Trial2	navigation/STIM_007.jpg
1212.24	3.498	0	navigation	Trial2	navigation/STIM_008.jpg
1217.939	4.677	1	navigation	Trial2	navigation/STIM_008.jpg
1225.086	5.323	0	navigation	Trial2	navigation/STIM_008.jpg
1233.4	2.225	1	navigation	Trial2	navigation/STIM_008.jpg
1239.388	2.284	1	navigation	Trial2	navigation/STIM_008.jpg
1244.099	2.482	1	navigation	Trial2	navigation/STIM_008.jpg
1249.342	3.14	1	navigation	Trial2	navigation/STIM_009.jpg
1254.848	3.057	0	navigation	Trial2	navigation/STIM_009.jpg
1261.184	2.957	1	navigation	Trial2	navigation/STIM_009.jpg
1266.411	3.65	1	navigation	Trial2	navigation/STIM_009.jpg
1272.499	4.1	1	navigation	Trial2	navigation/STIM_009.jpg
1279.565	3.038	0	navigation	Trial2	navigation/STIM_009.jpg
1286.331	4.737	1	navigation	Trial2	navigation/STIM_010.jpg
1294.263	4.864	1	navigation	Trial2	navigation/STIM_010.jpg
1301.505	4.135	1	navigation	Trial2	navigation/STIM_010.jpg
1307.813	4.5	1	navigation	Trial2	navigation/STIM_010.jpg
1314.611	3.197	0	navigation	Trial2	navigation/STIM_010.jpg
1320.913	3.122	0	navigation	Trial2	navigation/STIM_010.jpg
1327.522	4.107	0	navigation	Trial2	navigation/STIM_011.jpg
1335.629	2.536	1	navigation	Trial2	navigation/STIM_011.jpg
1340.754	4.867	0	navigation	Trial2	navigation/STIM_011.jpg
1347.784	4.031	1	navigation	Trial2	navigation/STIM_011.jpg
1353.86	2.809	0	navigation	Trial2	navigation/STIM_011.jpg
1360.619	2.309	1	navigation	Trial2	navigation/STIM_011.jpg
1364.968	1.91	1	pointing	Trial2	pointing/STIM_000.jpg
1368.923	1.712	1	pointing	Trial2	pointing/STIM_000.jpg
1372.642	1.96	1	pointing	Trial2	pointing/STIM_000.jpg
1378.479	1.65	1	pointing	Trial2	pointing/STIM_000.jpg
1384.043	1.78	0	pointing	Trial2	pointing/STIM_000.jpg
1389.769	1.761	1	pointing	Trial2	pointing/STIM_000.jpg
1394.603	1.376	1	pointing	Trial2	pointing/STIM_001.jpg
1399.488	1.426	1	pointing	Trial2	pointing/STIM_001.jpg
1403.92	1.604	1	pointing	Trial2	pointing/STIM_001.jpg
1408.991	1.459	1	pointing	Trial2	pointing/STIM_001.jpg
1413.563	2.081	1	pointing	Trial2	pointing/STIM_001.jpg
1419.352	1.815	1	pointing	Trial2	pointing/STIM_001.jpg
1423.451	1.264	1	pointing	Trial2	pointing/STIM_002.jpg
1426.805	1.237	1	pointing	Trial2	pointing/STIM_002.jpg
1430.428	1.412	0	pointing	Trial2	pointing/STIM_002.jpg
1433.912	2.033	1	pointing	Trial2	pointing/STIM_002.jpg
1438.551	2.029	1	pointing	Trial2	pointing/STIM_002.jpg
1443.826	1.629	1	pointing	Trial2	pointing/STIM_002.jpg
1448.65	1.361	0	pointing	Trial2	pointing/STIM_003.jpg
1452.05	1.416	1	pointing	Trial2	pointing/STIM_003.jpg
1456.572	1.196	1	pointing	Trial2	pointing/STIM_003.jpg
1461.365	1.998	1	pointing	Trial2	pointing/STIM_003.jpg
1466.439	2.089	1	pointing	Trial2	pointing/STIM_003.jpg
1471.777	1.185	1	pointing	Trial2	pointing/STIM_003.jpg
1476.141	1.229	0	pointing	Trial2	pointing/STIM_004.jpg
1480.749	1.353	1	pointing	Trial2	pointing/STIM_004.jpg
1484.25	1.654	1	pointing	Trial2	pointing/STIM_004.jpg
1488.438	2.168	1	pointing	Trial2	pointing/STIM_004.jpg
1493.404	1.946	1	pointing	Trial2	pointing/STIM_004.jpg
1498.506	1.527	1	pointing	Trial2	pointing/STIM_004.jpg
1503.845	1.623	1	pointing	Trial2	pointing/STIM_005.jpg
1507.975	1.51	1	pointing	Trial2	pointing/STIM_005.jpg
1512.756	1.704	1	pointing	Trial2	pointing/STIM_005.jpg
1518.38	1.783	1	pointing	Trial2	pointing/STIM_005.jpg
1523.341	1.905	1	pointing	Trial2	pointing/STIM_005.jpg
1527.817	1.603	1	pointing	Trial2	pointing/STIM_005.jpg
1531.563	1.67	1	pointing	Trial2	pointing/STIM_006.jpg
1536.312	1.448	0	pointing	Trial2	pointing/STIM_006.jpg
1541.602	1.399	1	pointing	Trial2	pointing/STIM_006.jpg
1545.807	1.694	1	pointing	Trial2	pointing/STIM_006.jpg
1549.764	2.178	1	pointing	Trial2	pointing/STIM_006.jpg
1554.703	1.684	1	pointing	Trial2	pointing/STIM_006.jpg
1560.169	1.248	1	pointing	Trial2	pointing/STIM_007.jpg
1564.801	1.256	1	pointing	Trial2	pointing/STIM_007.jpg
1569.341	1.615	1	pointing	Trial2	pointing/STIM_007.jpg
1574.251	1.634	1	pointing	Trial2	pointing/STIM_007.jpg
1579.705	1.954	1	pointing	Trial2	pointing/STIM_007.jpg
1585.499	1.825	0	pointing	Trial2	pointing/STIM_007.jpg
1590.951	1.588	1	pointing	Trial2	pointing/STIM_008.jpg
1595.601	1.337	1	pointing	Trial2	pointing/STIM_008.jpg
1600.338	1.748	1	pointing	Trial2	pointing/STIM_008.jpg
1605.314	1.834	1	pointing	Trial2	pointing/STIM_008.jpg
1610.617	1.226	1	pointing	Trial2	pointing/STIM_008.jpg
1614.168	1.352	1	pointing	Trial2	pointing/STIM_008.jpg
1618.811	2.064	1	pointing	Trial2	pointing/STIM_009.jpg
1623.202	1.804	1	pointing	Trial2	pointing/STIM_009.jpg
1628.433	1.888	1	pointing	Trial2	pointing/STIM_009.jpg
1633.08	1.34	1	pointing	Trial2	pointing/STIM_009.jpg
1637.146	1.938	0	pointing	Trial2	pointing/STIM_009.jpg
1641.087	2.076	1	pointing	Trial2	pointing/STIM_009.jpg
1646.666	1.998	1	pointing	Trial2	pointing/STIM_010.jpg
1651.133	2.098	1	pointing	Trial2	pointing/STIM_010.jpg
1656.342	2.137	1	pointing	Trial2	pointing/STIM_010.jpg
1661.998	1.507	1	pointing	Trial2	pointing/STIM_010.jpg
1666.13	1.289	1	pointing	Trial2	pointing/STIM_010.jpg
1670.403	2.167	1	pointing	Trial2	pointing/STIM_010.jpg
1675.819	1.527	1	pointing	Trial2	pointing/STIM_011.jpg
1679.862	1.91	1	pointing	Trial2	pointing/STIM_011.jpg
1684.553	1.696	0	pointing	Trial2	pointing/STIM_011.jpg
1688.93	1.941	1	pointing	Trial2	pointing/STIM_011.jpg
1693.793	1.613	0	pointing	Trial2	pointing/STIM_011.jpg
1697.763	1.703	1	pointing	Trial2	pointing/STIM_011.jpg
1702.49	3.101	1	navigation	Trial3	navigation/STIM_000.jpg
1708.022	4.926	0	navigation	Trial3	navigation/STIM_000.jpg
1716.478	3.749	1	navigation	Trial3	navigation/STIM_000.jpg
1722.495	4.462	1	navigation	Trial3	navigation/STIM_000.jpg
1729.88	2.383	1	navigation	Trial3	navigation/STIM_000.jpg
1734.673	2.077	1	navigation	Trial3	navigation/STIM_000.jpg
1740.052	4.939	0	navigation	Trial3	navigation/STIM_001.jpg
1748.547	4.535	1	navigation	Trial3	navigation/STIM_001.jpg
1757.024	3.594	1	navigation	Trial3	navigation/STIM_001.jpg
1764.171	2.245	1	navigation	Trial3	navigation/STIM_001.jpg
1768.655	3.585	1	navigation	Trial3	navigation/STIM_001.jpg
1774.667	3.086	1	navigation	Trial3	navigation/STIM_001.jpg
1781.171	2.277	1	navigation	Trial3	navigation/STIM_002.jpg
1785.965	4.656	0	navigation	Trial3	navigation/STIM_002.jpg
1793.316	2.917	1	navigation	Trial3	navigation/STIM_002.jpg
1799.188	4.775	1	navigation	Trial3	navigation/STIM_002.jpg
1807.554	4.788	1	navigation	Trial3	navigation/STIM_002.jpg
1814.84	2.94	1	navigation	Trial3	navigation/STIM_002.jpg
1821.689	2.395	1	navigation	Trial3	navigation/STIM_003.jpg
1826.385	4.361	1	navigation	Trial3	navigation/STIM_003.jpg
1833.789	4.104	1	navigation	Trial3	navigation/STIM_003.jpg
1840.927	3.218	1	navigation	Trial3	navigation/STIM_003.jpg
1846.221	3.039	1	navigation	Trial3	navigation/STIM_003.jpg
1851.884	4.744	1	navigation	Trial3	navigation/STIM_003.jpg
1860.293	4.624	1	navigation	Trial3	navigation/STIM_004.jpg
1867.746	4.457	1	navigation	Trial3	navigation/STIM_004.jpg
1874.362	4.728	1	navigation	Trial3	navigation/STIM_004.jpg
1881.156	3.173	1	navigation	Trial3	navigation/STIM_004.jpg
1886.667	3.924	0	navigation	Trial3	navigation/STIM_004.jpg
1892.752	3.556	1	navigation	Trial3	navigation/STIM_004.jpg
1900.068	2.647	1	navigation	Trial3	navigation/STIM_005.jpg
1905.24	2.652	1	navigation	Trial3	navigation/STIM_005.jpg
1911.622	3.034	1	navigation	Trial3	navigation/STIM_005.jpg
1918.361	2.777	1	navigation	Trial3	navigation/STIM_005.jpg
1923.514	3.78	1	navigation	Trial3	navigation/STIM_005.jpg
1929.418	4.503	1	navigation	Trial3	navigation/STIM_005.jpg
1937.008	2.331	1	navigation	Trial3	navigation/STIM_006.jpg
1942.56	2.667	1	navigation	Trial3	navigation/STIM_006.jpg
1948.876	2.797	1	navigation	Trial3	navigation/STIM_006.jpg
1953.755	2.119	0	navigation	Trial3	navigation/STIM_006.jpg
1958.628	5.003	1	navigation	Trial3	navigation/STIM_006.jpg
1966.278	3.598	1	navigation	Trial3	navigation/STIM_006.jpg
1973.189	4.879	1	navigation	Trial3	navigation/STIM_007.jpg
1980.964	4.542	1	navigation	Trial3	navigation/STIM_007.jpg
1988.44	4.302	1	navigation	Trial3	navigation/STIM_007.jpg
1996.705	4.997	1	navigation	Trial3	navigation/STIM_007.jpg
2005.312	4.675	1	navigation	Trial3	navigation/STIM_007.jpg
2012.356	2.51	1	navigation	Trial3	navigation/STIM_007.jpg
2016.88	3.768	1	navigation	Trial3	navigation/STIM_008.jpg
2023.07	4.093	1	navigation	Trial3	navigation/STIM_008.jpg
2030.454	3.158	1	navigation	Trial3	navigation/STIM_008.jpg
2037.307	3.73	1	navigation	Trial3	navigation/STIM_008.jpg
2044.671	2.169	1	navigation	Trial3	navigation/STIM_008.jpg
2048.965	3.601	1	navigation	Trial3	navigation/STIM_008.jpg
2055.713	3.606	0	navigation	Trial3	navigation/STIM_009.jpg
2061.587	3.262	1	navigation	Trial3	navigation/STIM_009.jpg
2068.395	3.2	1	navigation	Trial3	navigation/STIM_009.jpg
2074.703	2.492	1	navigation	Trial3	navigation/STIM_009.jpg
2080.335	4.091	1	navigation	Trial3	navigation/STIM_009.jpg
2088.338	2.473	1	navigation	Trial3	navigation/STIM_009.jpg
2094.233	2.524	1	navigation	Trial3	navigation/STIM_010.jpg
2099.623	4.955	1	navigation	Trial3	navigation/STIM_010.jpg
2107.803	3.227	1	navigation	Trial3	navigation/STIM_010.jpg
2113.055	2.163	1	navigation	Trial3	navigation/STIM_010.jpg
2118.266	3.423	1	navigation	Trial3	navigation/STIM_010.jpg
2125.518	2.623	1	navigation	Trial3	navigation/STIM_010.jpg
2130.802	2.828	1	navigation	Trial3	navigation/STIM_011.jpg
2135.816	3.863	1	navigation	Trial3	navigation/STIM_011.jpg
2142.422	2.13	1	navigation	Trial3	navigation/STIM_011.jpg
2147.401	3.672	1	navigation	Trial3	navigation/STIM_011.jpg
2153.091	2.8	1	navigation	Trial3	navigation/STIM_011.jpg
2159.414	3.591	1	navigation	Trial3	navigation/STIM_011.jpg
2165.493	1.918	1	pointing	Trial3	pointing/STIM_000.jpg
2169.491	2.173	1	pointing	Trial3	pointing/STIM_000.jpg
2174.223	1.57	1	pointing	Trial3	pointing/STIM_000.jpg
2179.589	1.571	0	pointing	Trial3	pointing/STIM_000.jpg
2183.341	2.04	1	pointing	Trial3	pointing/STIM_000.jpg
2188.25	1.898	1	pointing	Trial3	pointing/STIM_000.jpg
2193.639	1.999	0	pointing	Trial3	pointing/STIM_001.jpg
2199.289	1.504	0	pointing	Trial3	pointing/STIM_001.jpg
2203.633	1.786	1	pointing	Trial3	pointing/STIM_001.jpg
2208.08	1.462	1	pointing	Trial3	pointing/STIM_001.jpg
2212.692	1.302	1	pointing	Trial3	pointing/STIM_001.jpg
2217.654	1.707	1	pointing	Trial3	pointing/STIM_001.jpg
2222.072	1.659	0	pointing	Trial3	pointing/STIM_002.jpg
2225.883	1.786	1	pointing	Trial3	pointing/STIM_002.jpg
2230.104	1.584	1	pointing	Trial3	pointing/STIM_002.jpg
2234.376	1.784	1	pointing	Trial3	pointing/STIM_002.jpg
2239.46	1.269	1	pointing	Trial3	pointing/STIM_002.jpg
2244.063	1.806	1	pointing	Trial3	pointing/STIM_002.jpg
2249.563	1.18	1	pointing	Trial3	pointing/STIM_003.jpg
2253.067	2.181	1	pointing	Trial3	pointing/STIM_003.jpg
2258.306	1.928	1	pointing	Trial3	pointing/STIM_003.jpg
2262.884	2.144	0	pointing	Trial3	pointing/STIM_003.jpg
2267.862	1.638	1	pointing	Trial3	pointing/STIM_003.jpg
2271.911	2.054	1	pointing	Trial3	pointing/STIM_003.jpg
2276.449	2.184	0	pointing	Trial3	pointing/STIM_004.jpg
2281.462	1.726	1	pointing	Trial3	pointing/STIM_004.jpg
2286.635	1.301	1	pointing	Trial3	pointing/STIM_004.jpg
2290.735	2.132	0	pointing	Trial3	pointing/STIM_004.jpg
2296.14	1.781	1	pointing	Trial3	pointing/STIM_004.jpg
2301.723	1.84	1	pointing	Trial3	pointing/STIM_004.jpg
2305.812	1.91	1	pointing	Trial3	pointing/STIM_005.jpg
2310.382	2.103	1	pointing	Trial3	pointing/STIM_005.jpg
2315.56	1.412	1	pointing	Trial3	pointing/STIM_005.jpg
2319.477	1.571	0	pointing	Trial3	pointing/STIM_005.jpg
2324.33	1.8	1	pointing	Trial3	pointing/STIM_005.jpg
2329.097	1.17	1	pointing	Trial3	pointing/STIM_005.jpg
2333.573	1.703	1	pointing	Trial3	pointing/STIM_006.jpg
2337.488	1.935	1	pointing	Trial3	pointing/STIM_006.jpg
2342.431	2.165	1	pointing	Trial3	pointing/STIM_006.jpg
2347.083	1.313	1	pointing	Trial3	pointing/STIM_006.jpg
2351.839	2.189	1	pointing	Trial3	pointing/STIM_006.jpg
2356.032	2.171	1	pointing	Trial3	pointing/STIM_006.jpg
2361.091	1.96	1	pointing	Trial3	pointing/STIM_007.jpg
2365.733	1.183	1	pointing	Trial3	pointing/STIM_007.jpg
2369.146	1.454	1	pointing	Trial3	pointing/STIM_007.jpg
2374.406	1.223	0	pointing	Trial3	pointing/STIM_007.jpg
2377.652	1.356	1	pointing	Trial3	pointing/STIM_007.jpg
2381.156	1.561	0	pointing	Trial3	pointing/STIM_007.jpg
2385.039	1.597	1	pointing	Trial3	pointing/STIM_008.jpg
2389.125	1.46	1	pointing	Trial3	pointing/STIM_008.jpg
2393.921	1.38	1	pointing	Trial3	pointing/STIM_008.jpg
2399.102	2.162	1	pointing	Trial3	pointing/STIM_008.jpg
2404.004	1.526	1	pointing	Trial3	pointing/STIM_008.jpg
2408.251	1.865	1	pointing	Trial3	pointing/STIM_008.jpg
2412.454	1.924	0	pointing	Trial3	pointing/STIM_009.jpg
2417.74	1.825	1	pointing	Trial3	pointing/STIM_009.jpg
2423.547	1.94	1	pointing	Trial3	pointing/STIM_009.jpg
2428.939	1.767	1	pointing	Trial3	pointing/STIM_009.jpg
2433.124	1.558	1	pointing	Trial3	pointing/STIM_009.jpg
2436.911	1.808	1	pointing	Trial3	pointing/STIM_009.jpg
2440.742	1.738	1	pointing	Trial3	pointing/STIM_010.jpg
2444.936	1.203	1	pointing	Trial3	pointing/STIM_010.jpg
2448.25	1.591	0	pointing	Trial3	pointing/STIM_010.jpg
2453.827	1.74	1	pointing	Trial3	pointing/STIM_010.jpg
2457.702	1.2	1	pointing	Trial3	pointing/STIM_010.jpg
2461.656	1.642	1	pointing	Trial3	pointing/STIM_010.jpg
2467.028	1.791	1	pointing	Trial3	pointing/STIM_011.jpg
2471.241	1.276	1	pointing	Trial3	pointing/STIM_011.jpg
2476.201	1.586	0	pointing	Trial3	pointing/STIM_011.jpg
2481.646	1.795	1	pointing	Trial3	pointing/STIM_011.jpg
2486.202	1.359	1	pointing	Trial3	pointing/STIM_011.jpg
2490.748	1.972	0	pointing	Trial3	pointing/STIM_011.jpg
