onset	duration	response_time_ms	trial_type	learning_stage	stimulus	response_port
0.0	5.81	5810.3	navigation	Trial1	navigation/STIM_000.jpg	100
9.36	3.859	3859.3	navigation	Trial1	navigation/STIM_000.jpg	100
16.672	4.882	4882.0	navigation	Trial1	navigation/STIM_000.jpg	100
24.996	6.002	6002.4	navigation	Trial1	navigation/STIM_000.jpg	99
34.417	5.687	5686.9	navigation	Trial1	navigation/STIM_000.jpg	100
42.226	4.04	4040.4	navigation	Trial1	navigation/STIM_000.jpg	100
49.03	6.018	6018.2	navigation	Trial1	navigation/STIM_001.jpg	99
58.962	5.013	5013.4	navigation	Trial1	navigation/STIM_001.jpg	100
67.445	6.113	6113.3	navigation	Trial1	navigation/STIM_001.jpg	100
77.085	3.329	3329.0	navigation	Trial1	navigation/STIM_001.jpg	99
83.906	5.704	5703.9	navigation	Trial1	navigation/STIM_001.jpg	100
92.134	2.258	2257.7	navigation	Trial1	navigation/STIM_001.jpg	99
97.723	4.212	4211.6	navigation	Trial1	navigation/STIM_002.jpg	99
105.236	5.784	5784.5	navigation	Trial1	navigation/STIM_002.jpg	99
114.845	3.931	3930.7	navigation	Trial1	navigation/STIM_002.jpg	99
122.329	2.855	2854.7	navigation	Trial1	navigation/STIM_002.jpg	100
128.311	5.416	5416.4	navigation	Trial1	navigation/STIM_002.jpg	100
136.135	2.341	2340.7	navigation	Trial1	navigation/STIM_002.jpg	99
141.09	5.589	5589.2	navigation	Trial1	navigation/STIM_003.jpg	99
149.505	4.663	4662.8	navigation	Trial1	navigation/STIM_003.jpg	100
156.915	5.833	5833.2	navigation	Trial1	navigation/STIM_003.jpg	100
164.885	5.762	5762.0	navigation	Trial1	navigation/STIM_003.jpg	99
174.045	2.504	2504.0	navigation	Trial1	navigation/STIM_003.jpg	100
178.815	3.725	3724.7	navigation	Trial1	navigation/STIM_003.jpg	100
184.949	5.163	5162.6	navigation	Trial1	navigation/STIM_004.jpg	100
193.507	5.041	5040.8	navigation	Trial1	navigation/STIM_004.jpg	100
201.192	6.135	6134.7	navigation	Trial1	navigation/STIM_004.jpg	100
210.446	3.111	3110.7	navigation	Trial1	navigation/STIM_004.jpg	100
216.555	3.514	3513.7	navigation	Trial1	navigation/STIM_004.jpg	99
222.812	5.253	5253.1	navigation	Trial1	navigation/STIM_004.jpg	100
231.54	5.81	5810.1	navigation	Trial1	navigation/STIM_005.jpg	99
240.629	6.624	6624.0	navigation	Trial1	navigation/STIM_005.jpg	100
250.312	3.539	3539.1	navigation	Trial1	navigation/STIM_005.jpg	99
256.97	4.249	4249.2	navigation	Trial1	navigation/STIM_005.jpg	100
263.393	4.063	4062.8	navigation	Trial1	navigation/STIM_005.jpg	99
269.529	2.778	2778.2	navigation	Trial1	navigation/STIM_005.jpg	99
275.756	4.341	4340.9	navigation	Trial1	navigation/STIM_006.jpg	99
284.026	6.764	6763.9	navigation	Trial1	navigation/STIM_006.jpg	99
294.413	3.022	3022.3	navigation	Trial1	navigation/STIM_006.jpg	100
300.583	3.05	3049.9	navigation	Trial1	navigation/STIM_006.jpg	99
305.816	3.647	3647.1	navigation	Trial1	navigation/STIM_006.jpg	99
312.54	4.616	4615.6	navigation	Trial1	navigation/STIM_006.jpg	99
320.661	7.224	7224.0	navigation	Trial1	navigation/STIM_007.jpg	100
330.972	4.795	4795.1	navigation	Trial1	navigation/STIM_007.jpg	99
338.519	4.23	4230.2	navigation	Trial1	navigation/STIM_007.jpg	99
345.402	4.528	4527.8	navigation	Trial1	navigation/STIM_007.jpg	99
353.522	4.019	4018.9	navigation	Trial1	navigation/STIM_007.jpg	99
360.112	4.645	4645.4	navigation	Trial1	navigation/STIM_007.jpg	100
367.717	5.529	5529.1	navigation	Trial1	navigation/STIM_008.jpg	99
375.971	4.583	4582.7	navigation	Trial1	navigation/STIM_008.jpg	100
384.403	3.07	3070.3	navigation	Trial1	navigation/STIM_008.jpg	100
391.226	2.628	2627.7	navigation	Trial1	navigation/STIM_008.jpg	100
396.29	3.898	3898.1	navigation	Trial1	navigation/STIM_008.jpg	99
403.579	3.109	3108.7	navigation	Trial1	navigation/STIM_008.jpg	99
409.141	3.638	3638.4	navigation	Trial1	navigation/STIM_009.jpg	99
415.344	5.541	5540.7	navigation	Trial1	navigation/STIM_009.jpg	99
423.279	4.888	4887.5	navigation	Trial1	navigation/STIM_009.jpg	99
431.315	4.989	4989.4	navigation	Trial1	navigation/STIM_009.jpg	99
439.224	4.798	4797.6	navigation	Trial1	navigation/STIM_009.jpg	99
446.959	2.23	2229.9	navigation	Trial1	navigation/STIM_009.jpg	100
452.58	5.017	5017.1	navigation	Trial1	navigation/STIM_010.jpg	99
460.186	2.858	2857.6	navigation	Trial1	navigation/STIM_010.jpg	100
466.687	4.491	4490.6	navigation	Trial1	navigation/STIM_010.jpg	100
474.029	3.538	3537.8	navigation	Trial1	navigation/STIM_010.jpg	100
480.464	4.858	4857.6	navigation	Trial1	navigation/STIM_010.jpg	99
488.428	5.09	5090.4	navigation	Trial1	navigation/STIM_010.jpg	100
496.667	2.962	2961.7	navigation	Trial1	navigation/STIM_011.jpg	100
503.544	3.401	3400.7	navigation	Trial1	navigation/STIM_011.jpg	100
510.114	6.451	6451.0	navigation	Trial1	navigation/STIM_011.jpg	99
519.733	4.11	4110.4	navigation	Trial1	navigation/STIM_011.jpg	100
526.992	2.5	2499.6	navigation	Trial1	navigation/STIM_011.jpg	99
532.822	3.134	3134.3	navigation	Trial1	navigation/STIM_011.jpg	100
539.014	2.119	2118.8	pointing	Trial1	pointing/STIM_000.jpg	99
544.73	1.865	1865.1	pointing	Trial1	pointing/STIM_000.jpg	99
549.844	1.524	1523.5	pointing	Trial1	pointing/STIM_000.jpg	100
553.473	1.26	1259.7	pointing	Trial1	pointing/STIM_000.jpg	100
557.226	1.789	1788.9	pointing	Trial1	pointing/STIM_000.jpg	100
561.411	1.995	1994.7	pointing	Trial1	pointing/STIM_000.jpg	100
566.509	1.914	1913.8	pointing	Trial1	pointing/STIM_001.jpg	99
571.029	2.05	2049.9	pointing	Trial1	pointing/STIM_001.jpg	100
575.749	2.187	2186.7	pointing	Trial1	pointing/STIM_001.jpg	99
581.026	1.622	1621.9	pointing	Trial1	pointing/STIM_001.jpg	100
586.528	1.798	1797.9	pointing	Trial1	pointing/STIM_001.jpg	100
590.521	1.856	1855.6	pointing	Trial1	pointing/STIM_001.jpg	99
596.073	2.077	2076.9	pointing	Trial1	pointing/STIM_002.jpg	99
601.073	1.38	1379.9	pointing	Trial1	pointing/STIM_002.jpg	100
605.631	1.738	1738.5	pointing	Trial1	pointing/STIM_002.jpg	100
610.534	1.642	1641.8	pointing	Trial1	pointing/STIM_002.jpg	100
615.785	1.52	1520.2	pointing	Trial1	pointing/STIM_002.jpg	99
619.365	1.974	1974.5	pointing	Trial1	pointing/STIM_002.jpg	100
624.312	1.41	1409.7	pointing	Trial1	pointing/STIM_003.jpg	99
628.23	1.246	1245.7	pointing	Trial1	pointing/STIM_003.jpg	99
633.374	1.696	1695.5	pointing	Trial1	pointing/STIM_003.jpg	100
637.243	2.038	2037.7	pointing	Trial1	pointing/STIM_003.jpg	99
642.935	1.733	1733.1	pointing	Trial1	pointing/STIM_003.jpg	100
646.737	2.059	2059.3	pointing	Trial1	pointing/STIM_003.jpg	100
651.828	2.123	2122.8	pointing	Trial1	pointing/STIM_004.jpg	100
657.326	1.632	1632.2	pointing	Trial1	pointing/STIM_004.jpg	99
662.326	2.01	2010.4	pointing	Trial1	pointing/STIM_004.jpg	99
667.438	2.179	2179.2	pointing	Trial1	pointing/STIM_004.jpg	99
672.104	2.099	2099.3	pointing	Trial1	pointing/STIM_004.jpg	99
677.794	1.749	1748.6	pointing	Trial1	pointing/STIM_004.jpg	100
682.94	1.526	1525.5	pointing	Trial1	pointing/STIM_005.jpg	99
686.467	1.727	1726.9	pointing	Trial1	pointing/STIM_005.jpg	99
691.932	1.392	1392.3	pointing	Trial1	pointing/STIM_005.jpg	100
695.366	2.174	2174.5	pointing	Trial1	pointing/STIM_005.jpg	100
701.334	1.411	1410.7	pointing	Trial1	pointing/STIM_005.jpg	100
704.76	1.912	1911.7	pointing	Trial1	pointing/STIM_005.jpg	100
709.415	2.006	2005.7	pointing	Trial1	pointing/STIM_006.jpg	100
714.516	1.891	1890.7	pointing	Trial1	pointing/STIM_006.jpg	99
718.494	1.978	1977.7	pointing	Trial1	pointing/STIM_006.jpg	100
723.892	1.532	1532.1	pointing	Trial1	pointing/STIM_006.jpg	99
728.849	1.971	1971.0	pointing	Trial1	pointing/STIM_006.jpg	99
733.152	2.182	2181.9	pointing	Trial1	pointing/STIM_006.jpg	99
738.991	1.357	1357.0	pointing	Trial1	pointing/STIM_007.jpg	99
742.793	1.754	1753.9	pointing	Trial1	pointing/STIM_007.jpg	99
747.314	1.921	1920.6	pointing	Trial1	pointing/STIM_007.jpg	99
752.514	2.056	2055.9	pointing	Trial1	pointing/STIM_007.jpg	99
757.484	1.52	1519.7	pointing	Trial1	pointing/STIM_007.jpg	100
762.738	1.294	1293.9	pointing	Trial1	pointing/STIM_007.jpg	100
766.399	1.35	1350.5	pointing	Trial1	pointing/STIM_008.jpg	99
771.665	2.008	2008.4	pointing	Trial1	pointing/STIM_008.jpg	99
777.347	1.996	1996.0	pointing	Trial1	pointing/STIM_008.jpg	99
782.999	2.15	2149.6	pointing	Trial1	pointing/STIM_008.jpg	100
787.669	1.341	1341.1	pointing	Trial1	pointing/STIM_008.jpg	100
792.993	2.153	2153.2	pointing	Trial1	pointing/STIM_008.jpg	100
798.561	2.144	2143.6	pointing	Trial1	pointing/STIM_009.jpg	99
804.077	1.502	1502.1	pointing	Trial1	pointing/STIM_009.jpg	99
808.558	2.176	2176.3	pointing	Trial1	pointing/STIM_009.jpg	100
814.729	1.584	1584.5	pointing	Trial1	pointing/STIM_009.jpg	100
819.843	2.092	2091.5	pointing	Trial1	pointing/STIM_009.jpg	100
825.232	2.154	2154.5	pointing	Trial1	pointing/STIM_009.jpg	99
830.949	1.21	1210.4	pointing	Trial1	pointing/STIM_010.jpg	100
835.561	1.898	1898.4	pointing	Trial1	pointing/STIM_010.jpg	100
841.236	1.186	1186.4	pointing	Trial1	pointing/STIM_010.jpg	99
845.917	2.15	2149.8	pointing	Trial1	pointing/STIM_010.jpg	100
851.893	1.934	1933.7	pointing	Trial1	pointing/STIM_010.jpg	99
856.466	1.34	1339.5	pointing	Trial1	pointing/STIM_010.jpg	100
861.123	1.912	1911.8	pointing	Trial1	pointing/STIM_011.jpg	99
865.299	1.672	1672.1	pointing	Trial1	pointing/STIM_011.jpg	99
869.864	1.291	1290.8	pointing	Trial1	pointing/STIM_011.jpg	100
873.67	1.693	1693.2	pointing	Trial1	pointing/STIM_011.jpg	100
878.076	1.35	1349.6	pointing	Trial1	pointing/STIM_011.jpg	100
881.927	1.679	1678.8	pointing	Trial1	pointing/STIM_011.jpg	100
886.148	5.704	5703.9	navigation	Trial2	navigation/STIM_000.jpg	99
894.215	3.959	3959.4	navigation	Trial2	navigation/STIM_000.jpg	100
900.544	3.47	3470.4	navigation	Trial2	navigation/STIM_000.jpg	99
906.385	4.94	4939.7	navigation	Trial2	navigation/STIM_000.jpg	99
914.951	2.109	2108.7	navigation	Trial2	navigation/STIM_000.jpg	100
920.757	4.479	4478.9	navigation	Trial2	navigation/STIM_000.jpg	99
928.186	2.633	2633.0	navigation	Trial2	navigation/STIM_001.jpg	99
934.26	4.691	4691.1	navigation	Trial2	navigation/STIM_001.jpg	100
941.535	4.501	4500.6	navigation	Trial2	navigation/STIM_001.jpg	100
948.791	2.172	2172.5	navigation	Trial2	navigation/STIM_001.jpg	99
953.559	2.211	2210.9	navigation	Trial2	navigation/STIM_001.jpg	100
959.527	4.38	4380.1	navigation	Trial2	navigation/STIM_001.jpg	99
967.828	5.809	5808.8	navigation	Trial2	navigation/STIM_002.jpg	100
977.374	3.457	3457.2	navigation	Trial2	navigation/STIM_002.jpg	100
984.029	3.719	3719.1	navigation	Trial2	navigation/STIM_002.jpg	99
991.469	3.86	3860.3	navigation	Trial2	navigation/STIM_002.jpg	100
997.98	3.017	3016.9	navigation	Trial2	navigation/STIM_002.jpg	99
1004.294	3.437	3437.3	navigation	Trial2	navigation/STIM_002.jpg	100
1010.341	5.285	5284.6	navigation	Trial2	navigation/STIM_003.jpg	99
1018.706	3.302	3302.4	navigation	Trial2	navigation/STIM_003.jpg	100
1024.843	3.223	3222.7	navigation	Trial2	navigation/STIM_003.jpg	99
1030.335	3.417	3416.9	navigation	Trial2	navigation/STIM_003.jpg	100
1037.692	3.647	3647.4	navigation	Trial2	navigation/STIM_003.jpg	99
1044.434	3.941	3941.0	navigation	Trial2	navigation/STIM_003.jpg	100
1051.108	3.495	3494.8	navigation	Trial2	navigation/STIM_004.jpg	99
1058.278	4.493	4492.9	navigation	Trial2	navigation/STIM_004.jpg	99
1065.16	3.623	3623.4	navigation	Trial2	navigation/STIM_004.jpg	100
1072.248	2.079	2079.1	navigation	Trial2	navigation/STIM_004.jpg	100
1076.89	4.169	4168.9	navigation	Trial2	navigation/STIM_004.jpg	99
1083.919	4.466	4465.9	navigation	Trial2	navigation/STIM_004.jpg	99
1092.209	4.845	4845.0	navigation	Trial2	navigation/STIM_005.jpg	99
1099.518	4.316	4316.5	navigation	Trial2	navigation/STIM_005.jpg	100
1107.73	4.016	4015.6	navigation	Trial2	navigation/STIM_005.jpg	100
1115.3	2.213	2213.4	navigation	Trial2	navigation/STIM_005.jpg	100
1119.745	2.22	2220.1	navigation	Trial2	navigation/STIM_005.jpg	100
1125.698	5.03	5029.9	navigation	Trial2	navigation/STIM_005.jpg	99
1134.488	3.4	3400.5	navigation	Trial2	navigation/STIM_006.jpg	99
1140.439	3.064	3063.9	navigation	Trial2	navigation/STIM_006.jpg	99
1146.021	4.972	4972.1	navigation	Trial2	navigation/STIM_006.jpg	100
1153.53	4.782	4782.2	navigation	Trial2	navigation/STIM_006.jpg	100
1161.763	2.111	2110.7	navigation	Trial2	navigation/STIM_006.jpg	100
1167.241	2.523	2522.9	navigation	Trial2	navigation/STIM_006.jpg	99
1172.162	4.249	4249.4	navigation	Trial2	navigation/STIM_007.jpg	99
1179.325	2.785	2784.9	navigation	Trial2	navigation/STIM_007.jpg	99
1185.416	4.105	4105.2	navigation	Trial2	navigation/STIM_007.jpg	99
1191.991	3.252	3251.5	navigation	Trial2	navigation/STIM_007.jpg	100
1199.034	2.625	2625.0	navigation	Trial2	navigation/STIM_007.jpg	99
1205.362	3.927	3927.3	navigation	Trial2	navigation/STIM_007.jpg	99
1212.24	3.498	3498.1	navigation	Trial2	navigation/STIM_008.jpg	100
1217.939	4.677	4677.0	navigation	Trial2	navigation/STIM_008.jpg	100
1225.086	5.323	5323.4	navigation	Trial2	navigation/STIM_008.jpg	100
1233.4	2.225	2224.8	navigation	Trial2	navigation/STIM_008.jpg	99
1239.388	2.284	2284.0	navigation	Trial2	navigation/STIM_008.jpg	99
1244.099	2.482	2482.1	navigation	Trial2	navigation/STIM_008.jpg	100
1249.342	3.14	3140.0	navigation	Trial2	navigation/STIM_009.jpg	99
1254.848	3.057	3056.7	navigation	Trial2	navigation/STIM_009.jpg	100
1261.184	2.957	2956.9	navigation	Trial2	navigation/STIM_009.jpg	100
1266.411	3.65	3650.1	navigation	Trial2	navigation/STIM_009.jpg	99
1272.499	4.1	4099.7	navigation	Trial2	navigation/STIM_009.jpg	99
1279.565	3.038	3037.8	navigation	Trial2	navigation/STIM_009.jpg	100
1286.331	4.737	4737.4	navigation	Trial2	navigation/STIM_010.jpg	99
1294.263	4.864	4863.8	navigation	Trial2	navigation/STIM_010.jpg	99
1301.505	4.135	4135.2	navigation	Trial2	navigation/STIM_010.jpg	99
1307.813	4.5	4499.9	navigation	Trial2	navigation/STIM_010.jpg	99
1314.611	3.197	3196.7	navigation	Trial2	navigation/STIM_010.jpg	99
1320.913	3.122	3121.6	navigation	Trial2	navigation/STIM_010.jpg	99
1327.522	4.107	4107.3	navigation	Trial2	navigation/STIM_011.jpg	100
1335.629	2.536	2536.0	navigation	Trial2	navigation/STIM_011.jpg	99
1340.754	4.867	4866.6	navigation	Trial2	navigation/STIM_011.jpg	100
1347.784	4.031	4031.2	navigation	Trial2	navigation/STIM_011.jpg	99
1353.86	2.809	2809.2	navigation	Trial2	navigation/STIM_011.jpg	100
1360.619	2.309	2308.9	navigation	Trial2	navigation/STIM_011.jpg	100
1364.968	1.91	1910.1	pointing	Trial2	pointing/STIM_000.jpg	99
1368.923	1.712	1711.5	pointing	Trial2	pointing/STIM_000.jpg	99
1372.642	1.96	1959.5	pointing	Trial2	pointing/STIM_000.jpg	100
1378.479	1.65	1649.5	pointing	Trial2	pointing/STIM_000.jpg	99
1384.043	1.78	1779.9	pointing	Trial2	pointing/STIM_000.jpg	100
1389.769	1.761	1761.3	pointing	Trial2	pointing/STIM_000.jpg	100
1394.603	1.376	1376.4	pointing	Trial2	pointing/STIM_001.jpg	99
1399.488	1.426	1425.6	pointing	Trial2	pointing/STIM_001.jpg	100
1403.92	1.604	1604.4	pointing	Trial2	pointing/STIM_001.jpg	100
1408.991	1.459	1458.7	pointing	Trial2	pointing/STIM_001.jpg	99
1413.563	2.081	2080.8	pointing	Trial2	pointing/STIM_001.jpg	99
1419.352	1.815	1814.6	pointing	Trial2	pointing/STIM_001.jpg	100
1423.451	1.264	1264.2	pointing	Trial2	pointing/STIM_002.jpg	100
1426.805	1.237	1237.0	pointing	Trial2	pointing/STIM_002.jpg	99
1430.428	1.412	1411.6	pointing	Trial2	pointing/STIM_002.jpg	99
1433.912	2.033	2032.9	pointing	Trial2	pointing/STIM_002.jpg	100
1438.551	2.029	2028.6	pointing	Trial2	pointing/STIM_002.jpg	100
1443.826	1.629	1628.7	pointing	Trial2	pointing/STIM_002.jpg	99
1448.65	1.361	1360.8	pointing	Trial2	pointing/STIM_003.jpg	99
1452.05	1.416	1415.9	pointing	Trial2	pointing/STIM_003.jpg	100
1456.572	1.196	1196.2	pointing	Trial2	pointing/STIM_003.jpg	100
1461.365	1.998	1997.5	pointing	Trial2	pointing/STIM_003.jpg	99
1466.439	2.089	2089.2	pointing	Trial2	pointing/STIM_003.jpg	100
1471.777	1.185	1184.9	pointing	Trial2	pointing/STIM_003.jpg	99
1476.141	1.229	1229.0	pointing	Trial2	pointing/STIM_004.jpg	99
1480.749	1.353	1353.0	pointing	Trial2	pointing/STIM_004.jpg	100
1484.25	1.654	1654.5	pointing	Trial2	pointing/STIM_004.jpg	100
1488.438	2.168	2168.1	pointing	Trial2	pointing/STIM_004.jpg	100
1493.404	1.946	1945.6	pointing	Trial2	pointing/STIM_004.jpg	100
1498.506	1.527	1526.7	pointing	Trial2	pointing/STIM_004.jpg	100
1503.845	1.623	1623.2	pointing	Trial2	pointing/STIM_005.jpg	100
1507.975	1.51	1510.2	pointing	Trial2	pointing/STIM_005.jpg	100
1512.756	1.704	1703.7	pointing	Trial2	pointing/STIM_005.jpg	99
1518.38	1.783	1783.1	pointing	Trial2	pointing/STIM_005.jpg	99
1523.341	1.905	1904.9	pointing	Trial2	pointing/STIM_005.jpg	99
1527.817	1.603	1602.8	pointing	Trial2	pointing/STIM_005.jpg	99
1531.563	1.67	1670.4	pointing	Trial2	pointing/STIM_006.jpg	100
1536.312	1.448	1447.9	pointing	Trial2	pointing/STIM_006.jpg	100
1541.602	1.399	1399.0	pointing	Trial2	pointing/STIM_006.jpg	99
1545.807	1.694	1694.5	pointing	Trial2	pointing/STIM_006.jpg	100
1549.764	2.178	2178.2	pointing	Trial2	pointing/STIM_006.jpg	99
1554.703	1.684	1683.8	pointing	Trial2	pointing/STIM_006.jpg	99
1560.169	1.248	1248.0	pointing	Trial2	pointing/STIM_007.jpg	99
1564.801	1.256	1256.4	pointing	Trial2	pointing/STIM_007.jpg	100
1569.341	1.615	1615.2	pointing	Trial2	pointing/STIM_007.jpg	99
1574.251	1.634	1633.6	pointing	Trial2	pointing/STIM_007.jpg	99
1579.705	1.954	1953.6	pointing	Trial2	pointing/STIM_007.jpg	99
1585.499	1.825	1825.2	pointing	Trial2	pointing/STIM_007.jpg	100
1590.951	1.588	1587.6	pointing	Trial2	pointing/STIM_008.jpg	100
1595.601	1.337	1336.8	pointing	Trial2	pointing/STIM_008.jpg	99
1600.338	1.748	1747.9	pointing	Trial2	pointing/STIM_008.jpg	99
1605.314	1.834	1834.5	pointing	Trial2	pointing/STIM_008.jpg	99
1610.617	1.226	1225.6	pointing	Trial2	pointing/STIM_008.jpg	99
1614.168	1.352	1351.5	pointing	Trial2	pointing/STIM_008.jpg	99
1618.811	2.064	2063.8	pointing	Trial2	pointing/STIM_009.jpg	100
1623.202	1.804	1803.7	pointing	Trial2	pointing/STIM_009.jpg	99
1628.433	1.888	1887.5	pointing	Trial2	pointing/STIM_009.jpg	99
1633.08	1.34	1340.1	pointing	Trial2	pointing/STIM_009.jpg	99
1637.146	1.938	1937.5	pointing	Trial2	pointing/STIM_009.jpg	99
1641.087	2.076	2075.9	pointing	Trial2	pointing/STIM_009.jpg	100
1646.666	1.998	1998.5	pointing	Trial2	pointing/STIM_010.jpg	100
1651.133	2.098	2097.5	pointing	Trial2	pointing/STIM_010.jpg	99
1656.342	2.137	2137.2	pointing	Trial2	pointing/STIM_010.jpg	100
1661.998	1.507	1506.7	pointing	Trial2	pointing/STIM_010.jpg	100
1666.13	1.289	1289.1	pointing	Trial2	pointing/STIM_010.jpg	100
1670.403	2.167	2166.9	pointing	Trial2	pointing/STIM_010.jpg	100
1675.819	1.527	1527.0	pointing	Trial2	pointing/STIM_011.jpg	100
1679.862	1.91	1910.5	pointing	Trial2	pointing/STIM_011.jpg	100
1684.553	1.696	1696.1	pointing	Trial2	pointing/STIM_011.jpg	100
1688.93	1.941	1941.1	pointing	Trial2	pointing/STIM_011.jpg	99
1693.793	1.613	1613.1	pointing	Trial2	pointing/STIM_011.jpg	99
1697.763	1.703	1703.3	pointing	Trial2	pointing/STIM_011.jpg	100
1702.49	3.101	3101.0	navigation	Trial3	navigation/STIM_000.jpg	99
1708.022	4.926	4926.0	navigation	Trial3	navigation/STIM_000.jpg	100
1716.478	3.749	3748.8	navigation	Trial3	navigation/STIM_000.jpg	100
1722.495	4.462	4461.6	navigation	Trial3	navigation/STIM_000.jpg	99
1729.88	2.383	2382.6	navigation	Trial3	navigation/STIM_000.jpg	100
1734.673	2.077	2076.8	navigation	Trial3	navigation/STIM_000.jpg	99
1740.052	4.939	4939.4	navigation	Trial3	navigation/STIM_001.jpg	99
1748.547	4.535	4534.9	navigation	Trial3	navigation/STIM_001.jpg	99
1757.024	3.594	3594.2	navigation	Trial3	navigation/STIM_001.jpg	99
1764.171	2.245	2245.1	navigation	Trial3	navigation/STIM_001.jpg	99
1768.655	3.585	3585.1	navigation	Trial3	navigation/STIM_001.jpg	100
1774.667	3.086	3086.0	navigation	Trial3	navigation/STIM_001.jpg	100
1781.171	2.277	2277.0	navigation	Trial3	navigation/STIM_002.jpg	100
1785.965	4.656	4655.9	navigation	Trial3	navigation/STIM_002.jpg	100
1793.316	2.917	2916.6	navigation	Trial3	navigation/STIM_002.jpg	99
1799.188	4.775	4775.0	navigation	Trial3	navigation/STIM_002.jpg	100
1807.554	4.788	4787.9	navigation	Trial3	navigation/STIM_002.jpg	99
1814.84	2.94	2940.0	navigation	Trial3	navigation/STIM_002.jpg	100
1821.689	2.395	2395.4	navigation	Trial3	navigation/STIM_003.jpg	100
1826.385	4.361	4360.7	navigation	Trial3	navigation/STIM_003.jpg	100
1833.789	4.104	4103.9	navigation	Trial3	navigation/STIM_003.jpg	99
1840.927	3.218	3217.9	navigation	Trial3	navigation/STIM_003.jpg	100
1846.221	3.039	3039.0	navigation	Trial3	navigation/STIM_003.jpg	100
1851.884	4.744	4743.5	navigation	Trial3	navigation/STIM_003.jpg	100
1860.293	4.624	4624.4	navigation	Trial3	navigation/STIM_004.jpg	100
1867.746	4.457	4457.1	navigation	Trial3	navigation/STIM_004.jpg	100
1874.362	4.728	4727.5	navigation	Trial3	navigation/STIM_004.jpg	99
1881.156	3.173	3172.7	navigation	Trial3	navigation/STIM_004.jpg	99
1886.667	3.924	3924.2	navigation	Trial3	navigation/STIM_004.jpg	99
1892.752	3.556	3556.1	navigation	Trial3	navigation/STIM_004.jpg	100
1900.068	2.647	2646.7	navigation	Trial3	navigation/STIM_005.jpg	100
1905.24	2.652	2651.6	navigation	Trial3	navigation/STIM_005.jpg	100
1911.622	3.034	3034.4	navigation	Trial3	navigation/STIM_005.jpg	99
1918.361	2.777	2776.6	navigation	Trial3	navigation/STIM_005.jpg	100
1923.514	3.78	3779.8	navigation	Trial3	navigation/STIM_005.jpg	100
1929.418	4.503	4503.0	navigation	Trial3	navigation/STIM_005.jpg	100
1937.008	2.331	2331.3	navigation	Trial3	navigation/STIM_006.jpg	99
1942.56	2.667	2667.2	navigation	Trial3	navigation/STIM_006.jpg	99
1948.876	2.797	2797.1	navigation	Trial3	navigation/STIM_006.jpg	100
1953.755	2.119	2119.2	navigation	Trial3	navigation/STIM_006.jpg	99
1958.628	5.003	5003.0	navigation	Trial3	navigation/STIM_006.jpg	100
1966.278	3.598	3597.7	navigation	Trial3	navigation/STIM_006.jpg	99
1973.189	4.879	4878.9	navigation	Trial3	navigation/STIM_007.jpg	99
1980.964	4.542	4541.6	navigation	Trial3	navigation/STIM_007.jpg	99
1988.44	4.302	4302.4	navigation	Trial3	navigation/STIM_007.jpg	100
1996.705	4.997	4997.2	navigation	Trial3	navigation/STIM_007.jpg	100
2005.312	4.675	4674.7	navigation	Trial3	navigation/STIM_007.jpg	100
2012.356	2.51	2510.0	navigation	Trial3	navigation/STIM_007.jpg	99
2016.88	3.768	3768.1	navigation	Trial3	navigation/STIM_008.jpg	99
2023.07	4.093	4093.5	navigation	Trial3	navigation/STIM_008.jpg	100
2030.454	3.158	3157.5	navigation	Trial3	navigation/STIM_008.jpg	100
2037.307	3.73	3729.7	navigation	Trial3	navigation/STIM_008.jpg	100
2044.671	2.169	2168.8	navigation	Trial3	navigation/STIM_008.jpg	99
2048.965	3.601	3601.1	navigation	Trial3	navigation/STIM_008.jpg	100
2055.713	3.606	3605.5	navigation	Trial3	navigation/STIM_009.jpg	100
2061.587	3.262	3262.0	navigation	Trial3	navigation/STIM_009.jpg	100
2068.395	3.2	3199.9	navigation	Trial3	navigation/STIM_009.jpg	100
2074.703	2.492	2491.5	navigation	Trial3	navigation/STIM_009.jpg	99
2080.335	4.091	4090.7	navigation	Trial3	navigation/STIM_009.jpg	99
2088.338	2.473	2472.9	navigation	Trial3	navigation/STIM_009.jpg	99
2094.233	2.524	2523.5	navigation	Trial3	navigation/STIM_010.jpg	99
2099.623	4.955	4954.6	navigation	Trial3	navigation/STIM_010.jpg	100
2107.803	3.227	3227.1	navigation	Trial3	navigation/STIM_010.jpg	100
2113.055	2.163	2162.6	navigation	Trial3	navigation/STIM_010.jpg	100
2118.266	3.423	3422.8	navigation	Trial3	navigation/STIM_010.jpg	100
2125.518	2.623	2623.4	navigation	Trial3	navigation/STIM_010.jpg	100
2130.802	2.828	2827.9	navigation	Trial3	navigation/STIM_011.jpg	100
2135.816	3.863	3862.6	navigation	Trial3	navigation/STIM_011.jpg	99
2142.422	2.13	2130.2	navigation	Trial3	navigation/STIM_011.jpg	100
2147.401	3.672	3672.5	navigation	Trial3	navigation/STIM_011.jpg	100
2153.091	2.8	2800.1	navigation	Trial3	navigation/STIM_011.jpg	100
2159.414	3.591	3591.0	navigation	Trial3	navigation/STIM_011.jpg	99
2165.493	1.918	1917.8	pointing	Trial3	pointing/STIM_000.jpg	99
2169.491	2.173	2173.1	pointing	Trial3	pointing/STIM_000.jpg	100
2174.223	1.57	1569.5	pointing	Trial3	pointing/STIM_000.jpg	100
2179.589	1.571	1571.1	pointing	Trial3	pointing/STIM_000.jpg	99
2183.341	2.04	2039.9	pointing	Trial3	pointing/STIM_000.jpg	99
2188.25	1.898	1898.3	pointing	Trial3	pointing/STIM_000.jpg	100
2193.639	1.999	1999.3	pointing	Trial3	pointing/STIM_001.jpg	100
2199.289	1.504	1503.8	pointing	Trial3	pointing/STIM_001.jpg	100
2203.633	1.786	1786.0	pointing	Trial3	pointing/STIM_001.jpg	99
2208.08	1.462	1462.2	pointing	Trial3	pointing/STIM_001.jpg	99
2212.692	1.302	1302.5	pointing	Trial3	pointing/STIM_001.jpg	100
2217.654	1.707	1707.3	pointing	Trial3	pointing/STIM_001.jpg	99
2222.072	1.659	1659.0	pointing	Trial3	pointing/STIM_002.jpg	100
2225.883	1.786	1786.2	pointing	Trial3	pointing/STIM_002.jpg	100
2230.104	1.584	1583.8	pointing	Trial3	pointing/STIM_002.jpg	100
2234.376	1.784	1784.1	pointing	Trial3	pointing/STIM_002.jpg	100
2239.46	1.269	1269.4	pointing	Trial3	pointing/STIM_002.jpg	99
2244.063	1.806	1806.0	pointing	Trial3	pointing/STIM_002.jpg	100
2249.563	1.18	1179.5	pointing	Trial3	pointing/STIM_003.jpg	99
2253.067	2.181	2180.7	pointing	Trial3	pointing/STIM_003.jpg	100
2258.306	1.928	1927.7	pointing	Trial3	pointing/STIM_003.jpg	99
2262.884	2.144	2143.5	pointing	Trial3	pointing/STIM_003.jpg	100
2267.862	1.638	1638.3	pointing	Trial3	pointing/STIM_003.jpg	99
2271.911	2.054	2054.3	pointing	Trial3	pointing/STIM_003.jpg	99
2276.449	2.184	2184.3	pointing	Trial3	pointing/STIM_004.jpg	99
2281.462	1.726	1726.3	pointing	Trial3	pointing/STIM_004.jpg	100
2286.635	1.301	1300.7	pointing	Trial3	pointing/STIM_004.jpg	99
2290.735	2.132	2131.6	pointing	Trial3	pointing/STIM_004.jpg	100
2296.14	1.781	1781.2	pointing	Trial3	pointing/STIM_004.jpg	100
2301.723	1.84	1840.1	pointing	Trial3	pointing/STIM_004.jpg	99
2305.812	1.91	1910.3	pointing	Trial3	pointing/STIM_005.jpg	100
2310.382	2.103	2103.3	pointing	Trial3	pointing/STIM_005.jpg	100
2315.56	1.412	1412.2	pointing	Trial3	pointing/STIM_005.jpg	100
2319.477	1.571	1570.9	pointing	Trial3	pointing/STIM_005.jpg	100
2324.33	1.8	1799.8	pointing	Trial3	pointing/STIM_005.jpg	99
2329.097	1.17	1169.9	pointing	Trial3	pointing/STIM_005.jpg	99
2333.573	1.703	1702.7	pointing	Trial3	pointing/STIM_006.jpg	99
2337.488	1.935	1934.7	pointing	Trial3	pointing/STIM_006.jpg	100
2342.431	2.165	2165.3	pointing	Trial3	pointing/STIM_006.jpg	99
2347.083	1.313	1313.4	pointing	Trial3	pointing/STIM_006.jpg	100
2351.839	2.189	2188.7	pointing	Trial3	pointing/STIM_006.jpg	100
2356.032	2.171	2170.7	pointing	Trial3	pointing/STIM_006.jpg	99
2361.091	1.96	1959.5	pointing	Trial3	pointing/STIM_007.jpg	99
2365.733	1.183	1183.4	pointing	Trial3	pointing/STIM_007.jpg	100
2369.146	1.454	1453.8	pointing	Trial3	pointing/STIM_007.jpg	99
2374.406	1.223	1222.7	pointing	Trial3	pointing/STIM_007.jpg	100
2377.652	1.356	1355.7	pointing	Trial3	pointing/STIM_007.jpg	100
2381.156	1.561	1560.7	pointing	Trial3	pointing/STIM_007.jpg	99
2385.039	1.597	1597.1	pointing	Trial3	pointing/STIM_008.jpg	99
2389.125	1.46	1459.7	pointing	Trial3	pointing/STIM_008.jpg	99
2393.921	1.38	1380.5	pointing	Trial3	pointing/STIM_008.jpg	99
2399.102	2.162	2162.5	pointing	Trial3	pointing/STIM_008.jpg	100
2404.004	1.526	1526.5	pointing	Trial3	pointing/STIM_008.jpg	100
2408.251	1.865	1865.0	pointing	Trial3	pointing/STIM_008.jpg	99
2412.454	1.924	1924.0	pointing	Trial3	pointing/STIM_009.jpg	100
2417.74	1.825	1825.3	pointing	Trial3	pointing/STIM_009.jpg	100
2423.547	1.94	1939.6	pointing	Trial3	pointing/STIM_009.jpg	99
2428.939	1.767	1766.7	pointing	Trial3	pointing/STIM_009.jpg	100
2433.124	1.558	1558.3	pointing	Trial3	pointing/STIM_009.jpg	99
2436.911	1.808	1808.3	pointing	Trial3	pointing/STIM_009.jpg	100
2440.742	1.738	1738.3	pointing	Trial3	pointing/STIM_010.jpg	100
2444.936	1.203	1203.2	pointing	Trial3	pointing/STIM_010.jpg	100
2448.25	1.591	1591.4	pointing	Trial3	pointing/STIM_010.jpg	100
2453.827	1.74	1739.7	pointing	Trial3	pointing/STIM_010.jpg	99
2457.702	1.2	1199.9	pointing	Trial3	pointing/STIM_010.jpg	99
2461.656	1.642	1642.5	pointing	Trial3	pointing/STIM_010.jpg	99
2467.028	1.791	1791.2	pointing	Trial3	pointing/STIM_011.jpg	100
2471.241	1.276	1275.7	pointing	Trial3	pointing/STIM_011.jpg	100
2476.201	1.586	1585.7	pointing	Trial3	pointing/STIM_011.jpg	99
2481.646	1.795	1795.3	pointing	Trial3	pointing/STIM_011.jpg	100
2486.202	1.359	1358.8	pointing	Trial3	pointing/STIM_011.jpg	99
2490.748	1.972	1971.8	pointing	Trial3	pointing/STIM_011.jpg	100
