onset	duration	accuracy	trial_type	learning_stage	stimulus
0.0	0.986	correct	2back	Block1	2back/STIM_000.jpg
3.921	1.284	correct	2back	Block1	2back/STIM_000.jpg
7.519	1.129	correct	2back	Block1	2back/STIM_000.jpg
11.898	1.38	correct	2back	Block1	2back/STIM_001.jpg
15.452	0.858	correct	2back	Block1	2back/STIM_001.jpg
19.58	1.349	correct	2back	Block1	2back/STIM_001.jpg
23.295	0.905	correct	2back	Block1	2back/STIM_002.jpg
26.218	0.778	correct	2back	Block1	2back/STIM_002.jpg
29.747	0.901	correct	2back	Block1	2back/STIM_002.jpg
34.354	1.419	correct	2back	Block1	2back/STIM_003.jpg
39.262	0.75	correct	2back	Block1	2back/STIM_003.jpg
43.135	1.314	correct	2back	Block1	2back/STIM_003.jpg
47.216	1.082	incorrect	2back	Block1	2back/STIM_004.jpg
50.341	0.773	correct	2back	Block1	2back/STIM_004.jpg
53.058	0.982	correct	2back	Block1	2back/STIM_004.jpg
56.339	0.932	correct	2back	Block1	2back/STIM_005.jpg
59.666	1.133	correct	2back	Block1	2back/STIM_005.jpg
63.508	0.606	incorrect	2back	Block1	2back/STIM_005.jpg
67.277	1.014	correct	2back	Block1	2back/STIM_006.jpg
71.061	0.648	correct	2back	Block1	2back/STIM_006.jpg
74.659	1.205	correct	2back	Block1	2back/STIM_006.jpg
78.602	0.978	correct	2back	Block1	2back/STIM_007.jpg
83.221	1.03	incorrect	2back	Block1	2back/STIM_007.jpg
86.702	0.777	correct	2back	Block1	2back/STIM_007.jpg
90.579	1.129	correct	2back	Block1	2back/STIM_008.jpg
94.994	0.874	correct	2back	Block1	2back/STIM_008.jpg
97.882	1.212	correct	2back	Block1	2back/STIM_008.jpg
102.162	1.154	correct	2back	Block1	2back/STIM_009.jpg
105.348	1.138	correct	2back	Block1	2back/STIM_009.jpg
108.939	0.81	correct	2back	Block1	2back/STIM_009.jpg
111.906	1.118	correct	2back	Block1	2back/STIM_010.jpg
116.678	0.786	correct	2back	Block1	2back/STIM_010.jpg
120.375	1.248	correct	2back	Block1	2back/STIM_010.jpg
123.921	1.486	correct	2back	Block1	2back/STIM_011.jpg
128.872	0.988	correct	2back	Block1	2back/STIM_011.jpg
133.235	0.935	correct	2back	Block1	2back/STIM_011.jpg
137.552	0.898	correct	2back	Block1	2back/STIM_012.jpg
142.018	1.39	correct	2back	Block1	2back/STIM_012.jpg
146.257	0.926	correct	2back	Block1	2back/STIM_012.jpg
150.391	1.084	incorrect	2back	Block1	2back/STIM_013.jpg
154.983	1.116	correct	2back	Block1	2back/STIM_013.jpg
158.023	1.013	correct	2back	Block1	2back/STIM_013.jpg
162.122	1.194	correct	2back	Block1	2back/STIM_014.jpg
166.266	0.966	incorrect	2back	Block1	2back/STIM_014.jpg
169.346	1.384	correct	2back	Block1	2back/STIM_014.jpg
173.399	0.857	correct	2back	Block1	2back/STIM_015.jpg
177.77	1.051	correct	2back	Block1	2back/STIM_015.jpg
182.507	0.696	correct	2back	Block1	2back/STIM_015.jpg
186.757	0.943	correct	2back	Block1	2back/STIM_016.jpg
190.278	1.1	incorrect	2back	Block1	2back/STIM_016.jpg
194.727	0.649	correct	2back	Block1	2back/STIM_016.jpg
198.304	1.382	incorrect	2back	Block1	2back/STIM_017.jpg
202.248	1.196	correct	2back	Block1	2back/STIM_017.jpg
206.048	1.234	correct	2back	Block1	2back/STIM_017.jpg
209.496	1.227	correct	2back	Block1	2back/STIM_018.jpg
214.441	0.716	correct	2back	Block1	2back/STIM_018.jpg
218.834	0.651	correct	2back	Block1	2back/STIM_018.jpg
221.988	0.845	correct	2back	Block1	2back/STIM_019.jpg
226.254	1.42	correct	2back	Block1	2back/STIM_019.jpg
229.941	0.601	correct	2back	Block1	2back/STIM_019.jpg
233.403	0.704	incorrect	2back	Block1	2back/STIM_020.jpg
237.928	1.451	incorrect	2back	Block1	2back/STIM_020.jpg
243.15	1.085	incorrect	2back	Block1	2back/STIM_020.jpg
247.172	0.829	incorrect	2back	Block1	2back/STIM_021.jpg
250.071	1.409	correct	2back	Block1	2back/STIM_021.jpg
254.324	1.111	correct	2back	Block1	2back/STIM_021.jpg
258.625	0.959	incorrect	2back	Block1	2back/STIM_022.jpg
262.937	1.073	correct	2back	Block1	2back/STIM_022.jpg
266.377	1.26	correct	2back	Block1	2back/STIM_022.jpg
270.31	0.704	correct	2back	Block1	2back/STIM_023.jpg
274.756	1.096	correct	2back	Block1	2back/STIM_023.jpg
278.563	1.271	correct	2back	Block1	2back/STIM_023.jpg
282.913	1.224	correct	2back	Block1	2back/STIM_024.jpg
286.602	0.786	correct	2back	Block1	2back/STIM_024.jpg
289.317	0.976	correct	2back	Block1	2back/STIM_024.jpg
292.631	1.349	correct	2back	Block1	2back/STIM_025.jpg
296.971	1.038	correct	2back	Block1	2back/STIM_025.jpg
301.198	0.7	correct	2back	Block1	2back/STIM_025.jpg
305.063	1.517	correct	2back	Block1	2back/STIM_026.jpg
308.602	0.67	correct	2back	Block1	2back/STIM_026.jpg
312.933	0.679	correct	2back	Block1	2back/STIM_026.jpg
317.547	1.47	correct	2back	Block1	2back/STIM_027.jpg
322.864	0.684	correct	2back	Block1	2back/STIM_027.jpg
326.25	0.952	correct	2back	Block1	2back/STIM_027.jpg
330.235	1.3	correct	2back	Block1	2back/STIM_028.jpg
334.321	1.389	correct	2back	Block1	2back/STIM_028.jpg
339.293	0.692	incorrect	2back	Block1	2back/STIM_028.jpg
343.366	1.352	correct	2back	Block1	2back/STIM_029.jpg
348.117	0.964	correct	2back	Block1	2back/STIM_029.jpg
352.812	0.678	correct	2back	Block1	2back/STIM_029.jpg
355.642	1.243	correct	2back	Block1	2back/STIM_030.jpg
359.316	1.35	incorrect	2back	Block1	2back/STIM_030.jpg
362.958	0.729	incorrect	2back	Block1	2back/STIM_030.jpg
366.438	0.888	correct	2back	Block1	2back/STIM_031.jpg
370.951	0.872	correct	2back	Block1	2back/STIM_031.jpg
373.956	1.33	correct	2back	Block1	2back/STIM_031.jpg
378.644	0.801	correct	2back	Block1	2back/STIM_032.jpg
382.114	1.343	correct	2back	Block1	2back/STIM_032.jpg
385.977	1.047	incorrect	2back	Block1	2back/STIM_032.jpg
390.655	1.519	correct	2back	Block1	2back/STIM_033.jpg
395.805	0.645	correct	2back	Block1	2back/STIM_033.jpg
399.417	0.733	correct	2back	Block1	2back/STIM_033.jpg
403.472	1.26	correct	2back	Block1	2back/STIM_034.jpg
406.979	0.982	correct	2back	Block1	2back/STIM_034.jpg
411.356	1.388	correct	2back	Block1	2back/STIM_034.jpg
415.822	1.52	correct	2back	Block1	2back/STIM_035.jpg
420.387	1.228	correct	2back	Block1	2back/STIM_035.jpg
423.907	0.625	correct	2back	Block1	2back/STIM_035.jpg
428.259	0.77	correct	2back	Block1	2back/STIM_036.jpg
431.577	1.413	correct	2back	Block1	2back/STIM_036.jpg
436.857	1.165	incorrect	2back	Block1	2back/STIM_036.jpg
441.105	1.169	correct	2back	Block1	2back/STIM_037.jpg
445.892	1.122	incorrect	2back	Block1	2back/STIM_037.jpg
450.768	1.085	correct	2back	Block1	2back/STIM_037.jpg
454.482	0.758	incorrect	2back	Block1	2back/STIM_038.jpg
458.883	0.774	incorrect	2back	Block1	2back/STIM_038.jpg
463.084	0.657	incorrect	2back	Block1	2back/STIM_038.jpg
466.262	1.536	correct	2back	Block1	2back/STIM_039.jpg
471.221	1.428	correct	2back	Block1	2back/STIM_039.jpg
476.336	0.609	incorrect	2back	Block1	2back/STIM_039.jpg
479.683	0.528	correct	0back	Block1	0back/STIM_000.jpg
482.402	0.601	correct	0back	Block1	0back/STIM_000.jpg
486.656	0.766	correct	0back	Block1	0back/STIM_000.jpg
489.721	0.62	correct	0back	Block1	0back/STIM_001.jpg
493.55	0.474	correct	0back	Block1	0back/STIM_001.jpg
496.26	0.748	correct	0back	Block1	0back/STIM_001.jpg
499.179	0.692	correct	0back	Block1	0back/STIM_002.jpg
502.777	0.812	incorrect	0back	Block1	0back/STIM_002.jpg
506.868	0.651	correct	0back	Block1	0back/STIM_002.jpg
510.087	0.811	correct	0back	Block1	0back/STIM_003.jpg
513.188	0.666	correct	0back	Block1	0back/STIM_003.jpg
515.977	0.533	correct	0back	Block1	0back/STIM_003.jpg
519.821	0.567	incorrect	0back	Block1	0back/STIM_004.jpg
524.074	0.713	correct	0back	Block1	0back/STIM_004.jpg
528.177	0.493	correct	0back	Block1	0back/STIM_004.jpg
531.601	0.494	correct	0back	Block1	0back/STIM_005.jpg
535.46	0.871	correct	0back	Block1	0back/STIM_005.jpg
539.149	0.666	correct	0back	Block1	0back/STIM_005.jpg
542.567	0.568	correct	0back	Block1	0back/STIM_006.jpg
545.858	0.871	correct	0back	Block1	0back/STIM_006.jpg
550.099	0.462	correct	0back	Block1	0back/STIM_006.jpg
553.758	0.818	correct	0back	Block1	0back/STIM_007.jpg
557.902	0.588	correct	0back	Block1	0back/STIM_007.jpg
560.801	0.652	incorrect	0back	Block1	0back/STIM_007.jpg
565.088	0.815	correct	0back	Block1	0back/STIM_008.jpg
568.96	0.59	correct	0back	Block1	0back/STIM_008.jpg
572.34	0.594	correct	0back	Block1	0back/STIM_008.jpg
575.189	0.725	correct	0back	Block1	0back/STIM_009.jpg
578.832	0.474	correct	0back	Block1	0back/STIM_009.jpg
581.957	0.781	correct	0back	Block1	0back/STIM_009.jpg
585.026	0.675	correct	0back	Block1	0back/STIM_010.jpg
588.777	0.707	correct	0back	Block1	0back/STIM_010.jpg
591.919	0.489	incorrect	0back	Block1	0back/STIM_010.jpg
594.464	0.676	correct	0back	Block1	0back/STIM_011.jpg
598.113	0.745	correct	0back	Block1	0back/STIM_011.jpg
601.623	0.718	correct	0back	Block1	0back/STIM_011.jpg
605.669	0.666	correct	0back	Block1	0back/STIM_012.jpg
608.752	0.65	correct	0back	Block1	0back/STIM_012.jpg
611.899	0.803	correct	0back	Block1	0back/STIM_012.jpg
615.235	0.505	correct	0back	Block1	0back/STIM_013.jpg
618.575	0.851	correct	0back	Block1	0back/STIM_013.jpg
622.337	0.48	correct	0back	Block1	0back/STIM_013.jpg
626.215	0.54	correct	0back	Block1	0back/STIM_014.jpg
629.909	0.797	correct	0back	Block1	0back/STIM_014.jpg
633.931	0.855	correct	0back	Block1	0back/STIM_014.jpg
637.692	0.659	correct	0back	Block1	0back/STIM_015.jpg
640.476	0.704	correct	0back	Block1	0back/STIM_015.jpg
643.305	0.501	correct	0back	Block1	0back/STIM_015.jpg
647.349	0.788	correct	0back	Block1	0back/STIM_016.jpg
650.785	0.737	correct	0back	Block1	0back/STIM_016.jpg
655.35	0.605	correct	0back	Block1	0back/STIM_016.jpg
658.265	0.712	correct	0back	Block1	0back/STIM_017.jpg
661.964	0.468	correct	0back	Block1	0back/STIM_017.jpg
665.529	0.537	correct	0back	Block1	0back/STIM_017.jpg
669.162	0.609	correct	0back	Block1	0back/STIM_018.jpg
672.121	0.594	correct	0back	Block1	0back/STIM_018.jpg
675.513	0.572	correct	0back	Block1	0back/STIM_018.jpg
678.987	0.446	correct	0back	Block1	0back/STIM_019.jpg
682.234	0.555	correct	0back	Block1	0back/STIM_019.jpg
685.993	0.867	incorrect	0back	Block1	0back/STIM_019.jpg
689.809	0.937	correct	2back	Block2	2back/STIM_000.jpg
694.644	0.659	correct	2back	Block2	2back/STIM_000.jpg
697.608	0.792	correct	2back	Block2	2back/STIM_000.jpg
700.907	1.181	correct	2back	Block2	2back/STIM_001.jpg
704.518	1.118	correct	2back	Block2	2back/STIM_001.jpg
709.455	0.682	correct	2back	Block2	2back/STIM_001.jpg
712.993	0.785	correct	2back	Block2	2back/STIM_002.jpg
716.593	0.792	correct	2back	Block2	2back/STIM_002.jpg
720.695	0.877	correct	2back	Block2	2back/STIM_002.jpg
724.049	1.058	correct	2back	Block2	2back/STIM_003.jpg
728.72	0.591	correct	2back	Block2	2back/STIM_003.jpg
731.883	0.571	correct	2back	Block2	2back/STIM_003.jpg
734.558	0.598	correct	2back	Block2	2back/STIM_004.jpg
738.74	0.772	correct	2back	Block2	2back/STIM_004.jpg
742.459	0.884	correct	2back	Block2	2back/STIM_004.jpg
745.467	1.199	incorrect	2back	Block2	2back/STIM_005.jpg
749.854	0.884	correct	2back	Block2	2back/STIM_005.jpg
753.38	0.642	correct	2back	Block2	2back/STIM_005.jpg
756.079	0.632	correct	2back	Block2	2back/STIM_006.jpg
760.538	0.591	correct	2back	Block2	2back/STIM_006.jpg
764.96	0.92	correct	2back	Block2	2back/STIM_006.jpg
769.028	0.907	correct	2back	Block2	2back/STIM_007.jpg
773.794	0.727	correct	2back	Block2	2back/STIM_007.jpg
776.636	0.748	correct	2back	Block2	2back/STIM_007.jpg
780.472	1.234	correct	2back	Block2	2back/STIM_008.jpg
784.112	0.777	correct	2back	Block2	2back/STIM_008.jpg
787.93	0.884	correct	2back	Block2	2back/STIM_008.jpg
791.504	0.578	correct	2back	Block2	2back/STIM_009.jpg
795.143	1.102	correct	2back	Block2	2back/STIM_009.jpg
799.254	0.976	correct	2back	Block2	2back/STIM_009.jpg
804.044	1.068	correct	2back	Block2	2back/STIM_010.jpg
807.068	0.729	correct	2back	Block2	2back/STIM_010.jpg
811.339	0.762	correct	2back	Block2	2back/STIM_010.jpg
814.402	1.008	correct	2back	Block2	2back/STIM_011.jpg
818.372	0.69	correct	2back	Block2	2back/STIM_011.jpg
821.902	0.889	correct	2back	Block2	2back/STIM_011.jpg
824.764	0.59	correct	2back	Block2	2back/STIM_012.jpg
828.988	1.219	correct	2back	Block2	2back/STIM_012.jpg
832.886	0.992	correct	2back	Block2	2back/STIM_012.jpg
836.828	0.842	correct	2back	Block2	2back/STIM_013.jpg
840.624	0.618	correct	2back	Block2	2back/STIM_013.jpg
844.374	0.777	correct	2back	Block2	2back/STIM_013.jpg
848.221	1.189	correct	2back	Block2	2back/STIM_014.jpg
852.517	0.949	correct	2back	Block2	2back/STIM_014.jpg
857.327	0.534	correct	2back	Block2	2back/STIM_014.jpg
861.681	1.234	correct	2back	Block2	2back/STIM_015.jpg
865.331	0.645	incorrect	2back	Block2	2back/STIM_015.jpg
868.717	0.703	correct	2back	Block2	2back/STIM_015.jpg
873.085	0.63	correct	2back	Block2	2back/STIM_016.jpg
875.803	0.892	correct	2back	Block2	2back/STIM_016.jpg
880.458	0.719	correct	2back	Block2	2back/STIM_016.jpg
884.288	0.631	correct	2back	Block2	2back/STIM_017.jpg
887.402	1.029	correct	2back	Block2	2back/STIM_017.jpg
890.362	1.151	correct	2back	Block2	2back/STIM_017.jpg
894.816	0.616	correct	2back	Block2	2back/STIM_018.jpg
899.07	0.915	correct	2back	Block2	2back/STIM_018.jpg
902.929	1.119	correct	2back	Block2	2back/STIM_018.jpg
907.459	1.159	incorrect	2back	Block2	2back/STIM_019.jpg
910.552	0.718	correct	2back	Block2	2back/STIM_019.jpg
914.7	1.158	correct	2back	Block2	2back/STIM_019.jpg
919.685	0.663	correct	2back	Block2	2back/STIM_020.jpg
923.339	1.197	correct	2back	Block2	2back/STIM_020.jpg
926.968	0.806	correct	2back	Block2	2back/STIM_020.jpg
930.974	0.956	correct	2back	Block2	2back/STIM_021.jpg
934.365	1.205	correct	2back	Block2	2back/STIM_021.jpg
938.309	0.956	correct	2back	Block2	2back/STIM_021.jpg
941.473	0.608	correct	2back	Block2	2back/STIM_022.jpg
945.615	0.882	correct	2back	Block2	2back/STIM_022.jpg
949.258	1.023	correct	2back	Block2	2back/STIM_022.jpg
952.189	0.951	correct	2back	Block2	2back/STIM_023.jpg
956.738	0.752	correct	2back	Block2	2back/STIM_023.jpg
960.547	0.682	correct	2back	Block2	2back/STIM_023.jpg
964.797	0.777	correct	2back	Block2	2back/STIM_024.jpg
967.54	0.868	correct	2back	Block2	2back/STIM_024.jpg
970.381	0.53	correct	2back	Block2	2back/STIM_024.jpg
974.388	0.887	correct	2back	Block2	2back/STIM_025.jpg
978.109	0.729	correct	2back	Block2	2back/STIM_025.jpg
981.161	0.986	correct	2back	Block2	2back/STIM_025.jpg
985.714	0.778	correct	2back	Block2	2back/STIM_026.jpg
989.817	0.746	correct	2back	Block2	2back/STIM_026.jpg
993.493	1.076	correct	2back	Block2	2back/STIM_026.jpg
997.998	0.856	incorrect	2back	Block2	2back/STIM_027.jpg
1000.963	0.995	correct	2back	Block2	2back/STIM_027.jpg
1005.577	0.614	correct	2back	Block2	2back/STIM_027.jpg
1009.059	0.938	incorrect	2back	Block2	2back/STIM_028.jpg
1012.102	0.908	correct	2back	Block2	2back/STIM_028.jpg
1016.599	0.611	correct	2back	Block2	2back/STIM_028.jpg
1020.222	0.944	correct	2back	Block2	2back/STIM_029.jpg
1024.194	0.812	correct	2back	Block2	2back/STIM_029.jpg
1028.566	0.83	correct	2back	Block2	2back/STIM_029.jpg
1032.285	0.99	correct	2back	Block2	2back/STIM_030.jpg
1036.92	1.145	correct	2back	Block2	2back/STIM_030.jpg
1040.872	0.983	correct	2back	Block2	2back/STIM_030.jpg
1044.668	1.309	correct	2back	Block2	2back/STIM_031.jpg
1049.85	0.683	incorrect	2back	Block2	2back/STIM_031.jpg
1053.918	1.055	correct	2back	Block2	2back/STIM_031.jpg
1058.079	1.157	correct	2back	Block2	2back/STIM_032.jpg
1061.267	0.785	correct	2back	Block2	2back/STIM_032.jpg
1065.394	0.75	correct	2back	Block2	2back/STIM_032.jpg
1068.239	0.579	correct	2back	Block2	2back/STIM_033.jpg
1071.136	0.638	correct	2back	Block2	2back/STIM_033.jpg
1075.41	0.859	correct	2back	Block2	2back/STIM_033.jpg
1078.2	1.004	correct	2back	Block2	2back/STIM_034.jpg
1081.201	1.058	correct	2back	Block2	2back/STIM_034.jpg
1085.161	0.785	correct	2back	Block2	2back/STIM_034.jpg
1089.418	0.856	incorrect	2back	Block2	2back/STIM_035.jpg
1093.246	1.194	correct	2back	Block2	2back/STIM_035.jpg
1098.164	0.605	correct	2back	Block2	2back/STIM_035.jpg
1102.133	1.218	correct	2back	Block2	2back/STIM_036.jpg
1106.333	0.686	correct	2back	Block2	2back/STIM_036.jpg
1109.419	0.823	correct	2back	Block2	2back/STIM_036.jpg
1112.777	1.154	incorrect	2back	Block2	2back/STIM_037.jpg
1116.245	0.928	correct	2back	Block2	2back/STIM_037.jpg
1119.624	0.831	correct	2back	Block2	2back/STIM_037.jpg
1123.866	0.802	correct	2back	Block2	2back/STIM_038.jpg
1127.869	0.675	correct	2back	Block2	2back/STIM_038.jpg
1131.013	0.806	correct	2back	Block2	2back/STIM_038.jpg
1134.746	1.046	correct	2back	Block2	2back/STIM_039.jpg
1138.006	0.551	incorrect	2back	Block2	2back/STIM_039.jpg
1141.539	0.766	correct	2back	Block2	2back/STIM_039.jpg
1145.698	0.871	correct	0back	Block2	0back/STIM_000.jpg
1148.693	0.739	correct	0back	Block2	0back/STIM_000.jpg
1152.068	0.589	correct	0back	Block2	0back/STIM_000.jpg
1154.71	0.753	correct	0back	Block2	0back/STIM_001.jpg
1158.703	0.469	correct	0back	Block2	0back/STIM_001.jpg
1162.707	0.679	correct	0back	Block2	0back/STIM_001.jpg
1166.646	0.65	correct	0back	Block2	0back/STIM_002.jpg
1169.657	0.77	correct	0back	Block2	0back/STIM_002.jpg
1173.899	0.677	correct	0back	Block2	0back/STIM_002.jpg
1177.502	0.449	correct	0back	Block2	0back/STIM_003.jpg
1180.562	0.773	correct	0back	Block2	0back/STIM_003.jpg
1183.485	0.75	correct	0back	Block2	0back/STIM_003.jpg
1186.845	0.5	correct	0back	Block2	0back/STIM_004.jpg
1189.818	0.673	correct	0back	Block2	0back/STIM_004.jpg
1193.558	0.734	correct	0back	Block2	0back/STIM_004.jpg
1197.025	0.81	correct	0back	Block2	0back/STIM_005.jpg
1200.076	0.626	correct	0back	Block2	0back/STIM_005.jpg
1203.896	0.449	correct	0back	Block2	0back/STIM_005.jpg
1207.996	0.487	correct	0back	Block2	0back/STIM_006.jpg
1210.669	0.863	correct	0back	Block2	0back/STIM_006.jpg
1213.786	0.844	correct	0back	Block2	0back/STIM_006.jpg
1217.293	0.464	correct	0back	Block2	0back/STIM_007.jpg
1221.538	0.869	correct	0back	Block2	0back/STIM_007.jpg
1225.333	0.77	correct	0back	Block2	0back/STIM_007.jpg
1228.547	0.835	correct	0back	Block2	0back/STIM_008.jpg
1232.016	0.544	correct	0back	Block2	0back/STIM_008.jpg
1234.561	0.748	correct	0back	Block2	0back/STIM_008.jpg
1237.733	0.488	correct	0back	Block2	0back/STIM_009.jpg
1241.013	0.525	correct	0back	Block2	0back/STIM_009.jpg
1243.813	0.571	correct	0back	Block2	0back/STIM_009.jpg
1246.381	0.474	correct	0back	Block2	0back/STIM_010.jpg
1249.583	0.443	correct	0back	Block2	0back/STIM_010.jpg
1252.275	0.493	correct	0back	Block2	0back/STIM_010.jpg
1255.652	0.46	correct	0back	Block2	0back/STIM_011.jpg
1259.332	0.78	correct	0back	Block2	0back/STIM_011.jpg
1263.694	0.626	correct	0back	Block2	0back/STIM_011.jpg
1267.87	0.725	correct	0back	Block2	0back/STIM_012.jpg
1270.993	0.597	correct	0back	Block2	0back/STIM_012.jpg
1274.467	0.844	correct	0back	Block2	0back/STIM_012.jpg
1278.302	0.719	correct	0back	Block2	0back/STIM_013.jpg
1281.026	0.546	correct	0back	Block2	0back/STIM_013.jpg
1284.948	0.818	correct	0back	Block2	0back/STIM_013.jpg
1289.621	0.769	correct	0back	Block2	0back/STIM_014.jpg
1294.279	0.665	correct	0back	Block2	0back/STIM_014.jpg
1298.103	0.571	correct	0back	Block2	0back/STIM_014.jpg
1302.377	0.733	correct	0back	Block2	0back/STIM_015.jpg
1306.954	0.5	correct	0back	Block2	0back/STIM_015.jpg
1311.386	0.636	correct	0back	Block2	0back/STIM_015.jpg
1315.17	0.48	correct	0back	Block2	0back/STIM_016.jpg
1318.521	0.597	correct	0back	Block2	0back/STIM_016.jpg
1321.134	0.871	correct	0back	Block2	0back/STIM_016.jpg
1324.099	0.72	correct	0back	Block2	0back/STIM_017.jpg
1327.275	0.759	correct	0back	Block2	0back/STIM_017.jpg
1331.683	0.545	correct	0back	Block2	0back/STIM_017.jpg
1334.605	0.8	correct	0back	Block2	0back/STIM_018.jpg
1337.419	0.468	correct	0back	Block2	0back/STIM_018.jpg
1340.185	0.832	correct	0back	Block2	0back/STIM_018.jpg
1344.115	0.84	correct	0back	Block2	0back/STIM_019.jpg
1348.73	0.683	correct	0back	Block2	0back/STIM_019.jpg
1351.856	0.804	correct	0back	Block2	0back/STIM_019.jpg
1356.145	0.72	correct	2back	Block3	2back/STIM_000.jpg
1359.486	0.619	correct	2back	Block3	2back/STIM_000.jpg
1362.608	0.766	correct	2back	Block3	2back/STIM_000.jpg
1366.3	0.748	correct	2back	Block3	2back/STIM_001.jpg
1370.771	0.926	correct	2back	Block3	2back/STIM_001.jpg
1374.655	0.82	correct	2back	Block3	2back/STIM_001.jpg
1378.253	0.75	incorrect	2back	Block3	2back/STIM_002.jpg
1381.408	0.692	correct	2back	Block3	2back/STIM_002.jpg
1384.741	0.792	correct	2back	Block3	2back/STIM_002.jpg
1388.908	0.834	correct	2back	Block3	2back/STIM_003.jpg
1392.817	0.951	correct	2back	Block3	2back/STIM_003.jpg
1396.923	0.877	correct	2back	Block3	2back/STIM_003.jpg
1401.408	0.793	correct	2back	Block3	2back/STIM_004.jpg
1404.234	1.062	correct	2back	Block3	2back/STIM_004.jpg
1407.988	0.983	correct	2back	Block3	2back/STIM_004.jpg
1412.346	0.755	correct	2back	Block3	2back/STIM_005.jpg
1415.262	0.514	correct	2back	Block3	2back/STIM_005.jpg
1419.125	0.652	correct	2back	Block3	2back/STIM_005.jpg
1421.751	0.889	correct	2back	Block3	2back/STIM_006.jpg
1425.699	0.837	correct	2back	Block3	2back/STIM_006.jpg
1428.887	0.469	correct	2back	Block3	2back/STIM_006.jpg
1431.807	0.658	correct	2back	Block3	2back/STIM_007.jpg
1434.907	0.553	correct	2back	Block3	2back/STIM_007.jpg
1437.416	0.86	correct	2back	Block3	2back/STIM_007.jpg
1440.439	0.569	correct	2back	Block3	2back/STIM_008.jpg
1444.299	0.503	correct	2back	Block3	2back/STIM_008.jpg
1447.24	1.046	correct	2back	Block3	2back/STIM_008.jpg
1451.683	1.007	correct	2back	Block3	2back/STIM_009.jpg
1455.349	0.9	correct	2back	Block3	2back/STIM_009.jpg
1458.306	1.055	correct	2back	Block3	2back/STIM_009.jpg
1462.621	0.84	correct	2back	Block3	2back/STIM_010.jpg
1466.281	0.705	correct	2back	Block3	2back/STIM_010.jpg
1469.586	0.627	correct	2back	Block3	2back/STIM_010.jpg
1473.616	0.71	correct	2back	Block3	2back/STIM_011.jpg
1476.395	0.763	correct	2back	Block3	2back/STIM_011.jpg
1480.475	0.795	correct	2back	Block3	2back/STIM_011.jpg
1485.159	0.87	correct	2back	Block3	2back/STIM_012.jpg
1489.161	0.729	correct	2back	Block3	2back/STIM_012.jpg
1492.914	0.474	correct	2back	Block3	2back/STIM_012.jpg
1496.784	0.532	correct	2back	Block3	2back/STIM_013.jpg
1499.283	0.92	correct	2back	Block3	2back/STIM_013.jpg
1502.236	0.993	correct	2back	Block3	2back/STIM_013.jpg
1506.498	0.944	correct	2back	Block3	2back/STIM_014.jpg
1511.071	0.532	correct	2back	Block3	2back/STIM_014.jpg
1515.069	0.615	correct	2back	Block3	2back/STIM_014.jpg
1518.532	0.837	correct	2back	Block3	2back/STIM_015.jpg
1523.188	0.744	correct	2back	Block3	2back/STIM_015.jpg
1526.665	0.751	correct	2back	Block3	2back/STIM_015.jpg
1530.41	1.043	correct	2back	Block3	2back/STIM_016.jpg
1535.218	0.544	correct	2back	Block3	2back/STIM_016.jpg
1539.644	0.937	correct	2back	Block3	2back/STIM_016.jpg
1542.597	0.861	incorrect	2back	Block3	2back/STIM_017.jpg
1547.03	0.812	correct	2back	Block3	2back/STIM_017.jpg
1549.926	0.958	correct	2back	Block3	2back/STIM_017.jpg
1553.342	0.474	correct	2back	Block3	2back/STIM_018.jpg
1556.992	0.532	correct	2back	Block3	2back/STIM_018.jpg
1561.156	0.876	correct	2back	Block3	2back/STIM_018.jpg
1565.601	1.059	correct	2back	Block3	2back/STIM_019.jpg
1568.702	0.713	correct	2back	Block3	2back/STIM_019.jpg
1571.538	0.753	correct	2back	Block3	2back/STIM_019.jpg
1576.155	0.544	correct	2back	Block3	2back/STIM_020.jpg
1578.814	0.696	correct	2back	Block3	2back/STIM_020.jpg
1582.583	1.054	correct	2back	Block3	2back/STIM_020.jpg
1587.083	0.64	correct	2back	Block3	2back/STIM_021.jpg
1591.647	0.717	correct	2back	Block3	2back/STIM_021.jpg
1594.904	0.484	correct	2back	Block3	2back/STIM_021.jpg
1598.877	0.586	correct	2back	Block3	2back/STIM_022.jpg
1603.201	0.907	correct	2back	Block3	2back/STIM_022.jpg
1606.754	0.828	correct	2back	Block3	2back/STIM_022.jpg
1610.984	0.912	correct	2back	Block3	2back/STIM_023.jpg
1615.518	0.61	correct	2back	Block3	2back/STIM_023.jpg
1618.236	0.561	correct	2back	Block3	2back/STIM_023.jpg
1621.549	0.55	correct	2back	Block3	2back/STIM_024.jpg
1624.509	0.879	correct	2back	Block3	2back/STIM_024.jpg
1628.802	0.985	correct	2back	Block3	2back/STIM_024.jpg
1631.981	0.626	correct	2back	Block3	2back/STIM_025.jpg
1635.021	1.012	correct	2back	Block3	2back/STIM_025.jpg
1639.172	1.076	correct	2back	Block3	2back/STIM_025.jpg
1643.641	0.514	correct	2back	Block3	2back/STIM_026.jpg
1646.2	0.859	correct	2back	Block3	2back/STIM_026.jpg
1649.244	0.924	correct	2back	Block3	2back/STIM_026.jpg
1653.15	0.725	correct	2back	Block3	2back/STIM_027.jpg
1657.521	1.029	correct	2back	Block3	2back/STIM_027.jpg
1660.485	0.97	correct	2back	Block3	2back/STIM_027.jpg
1663.964	0.61	correct	2back	Block3	2back/STIM_028.jpg
1667.941	0.834	correct	2back	Block3	2back/STIM_028.jpg
1670.952	1.046	correct	2back	Block3	2back/STIM_028.jpg
1675.303	0.547	correct	2back	Block3	2back/STIM_029.jpg
1678.743	0.961	correct	2back	Block3	2back/STIM_029.jpg
1683.547	0.563	correct	2back	Block3	2back/STIM_029.jpg
1687.446	0.476	correct	2back	Block3	2back/STIM_030.jpg
1690.224	0.807	correct	2back	Block3	2back/STIM_030.jpg
1694.577	1.021	correct	2back	Block3	2back/STIM_030.jpg
1698.403	0.885	incorrect	2back	Block3	2back/STIM_031.jpg
1701.751	0.812	correct	2back	Block3	2back/STIM_031.jpg
1705.596	0.514	correct	2back	Block3	2back/STIM_031.jpg
1708.203	1.08	incorrect	2back	Block3	2back/STIM_032.jpg
1712.361	0.535	correct	2back	Block3	2back/STIM_032.jpg
1715.645	0.747	correct	2back	Block3	2back/STIM_032.jpg
1719.252	0.584	correct	2back	Block3	2back/STIM_033.jpg
1722.278	0.608	correct	2back	Block3	2back/STIM_033.jpg
1725.878	0.92	correct	2back	Block3	2back/STIM_033.jpg
1729.547	0.708	correct	2back	Block3	2back/STIM_034.jpg
1732.699	0.472	correct	2back	Block3	2back/STIM_034.jpg
1735.841	0.964	correct	2back	Block3	2back/STIM_034.jpg
1739.098	0.61	incorrect	2back	Block3	2back/STIM_035.jpg
1742.162	0.776	correct	2back	Block3	2back/STIM_035.jpg
1746.354	0.848	correct	2back	Block3	2back/STIM_035.jpg
1749.33	0.735	correct	2back	Block3	2back/STIM_036.jpg
1752.285	0.627	correct	2back	Block3	2back/STIM_036.jpg
1755.759	0.803	correct	2back	Block3	2back/STIM_036.jpg
1759.148	0.636	correct	2back	Block3	2back/STIM_037.jpg
1762.986	0.867	correct	2back	Block3	2back/STIM_037.jpg
1766.175	0.897	correct	2back	Block3	2back/STIM_037.jpg
1769.76	0.469	correct	2back	Block3	2back/STIM_038.jpg
1772.752	0.776	correct	2back	Block3	2back/STIM_038.jpg
1776.654	0.542	correct	2back	Block3	2back/STIM_038.jpg
1780.396	1.078	correct	2back	Block3	2back/STIM_039.jpg
1783.406	0.734	correct	2back	Block3	2back/STIM_039.jpg
1787.029	0.854	correct	2back	Block3	2back/STIM_039.jpg
1790.737	0.682	correct	0back	Block3	0back/STIM_000.jpg
1793.591	0.61	correct	0back	Block3	0back/STIM_000.jpg
1797.245	0.627	correct	0back	Block3	0back/STIM_000.jpg
1801.532	0.781	correct	0back	Block3	0back/STIM_001.jpg
1804.538	0.673	correct	0back	Block3	0back/STIM_001.jpg
1808.342	0.49	correct	0back	Block3	0back/STIM_001.jpg
1811.141	0.758	correct	0back	Block3	0back/STIM_002.jpg
1815.422	0.555	correct	0back	Block3	0back/STIM_002.jpg
1818.304	0.683	correct	0back	Block3	0back/STIM_002.jpg
1822.7	0.536	correct	0back	Block3	0back/STIM_003.jpg
1826.032	0.616	correct	0back	Block3	0back/STIM_003.jpg
1830.202	0.741	correct	0back	Block3	0back/STIM_003.jpg
1833.826	0.516	incorrect	0back	Block3	0back/STIM_004.jpg
1837.814	0.883	correct	0back	Block3	0back/STIM_004.jpg
1842.235	0.594	correct	0back	Block3	0back/STIM_004.jpg
1846.765	0.819	correct	0back	Block3	0back/STIM_005.jpg
1850.629	0.548	correct	0back	Block3	0back/STIM_005.jpg
1854.121	0.771	correct	0back	Block3	0back/STIM_005.jpg
1856.869	0.587	correct	0back	Block3	0back/STIM_006.jpg
1860.586	0.562	correct	0back	Block3	0back/STIM_006.jpg
1863.177	0.701	correct	0back	Block3	0back/STIM_006.jpg
1867.807	0.747	correct	0back	Block3	0back/STIM_007.jpg
1870.755	0.734	correct	0back	Block3	0back/STIM_007.jpg
1875.006	0.564	correct	0back	Block3	0back/STIM_007.jpg
1879.309	0.571	correct	0back	Block3	0back/STIM_008.jpg
1882.348	0.59	correct	0back	Block3	0back/STIM_008.jpg
1885.432	0.656	correct	0back	Block3	0back/STIM_008.jpg
1888.137	0.696	incorrect	0back	Block3	0back/STIM_009.jpg
1892.347	0.74	correct	0back	Block3	0back/STIM_009.jpg
1895.279	0.498	correct	0back	Block3	0back/STIM_009.jpg
1898.999	0.522	correct	0back	Block3	0back/STIM_010.jpg
1902.147	0.616	correct	0back	Block3	0back/STIM_010.jpg
1905.229	0.556	correct	0back	Block3	0back/STIM_010.jpg
1909.133	0.826	correct	0back	Block3	0back/STIM_011.jpg
1913.273	0.551	correct	0back	Block3	0back/STIM_011.jpg
1916.745	0.472	correct	0back	Block3	0back/STIM_011.jpg
1920.549	0.768	correct	0back	Block3	0back/STIM_012.jpg
1924.165	0.843	correct	0back	Block3	0back/STIM_012.jpg
1927.254	0.867	incorrect	0back	Block3	0back/STIM_012.jpg
1930.27	0.847	correct	0back	Block3	0back/STIM_013.jpg
1933.835	0.525	correct	0back	Block3	0back/STIM_013.jpg
1937.547	0.769	correct	0back	Block3	0back/STIM_013.jpg
1941.7	0.454	correct	0back	Block3	0back/STIM_014.jpg
1945.908	0.485	correct	0back	Block3	0back/STIM_014.jpg
1949.875	0.693	correct	0back	Block3	0back/STIM_014.jpg
1953.509	0.713	correct	0back	Block3	0back/STIM_015.jpg
1957.818	0.461	correct	0back	Block3	0back/STIM_015.jpg
1962.001	0.709	correct	0back	Block3	0back/STIM_015.jpg
1965.737	0.801	correct	0back	Block3	0back/STIM_016.jpg
1969.047	0.834	incorrect	0back	Block3	0back/STIM_016.jpg
1972.463	0.868	correct	0back	Block3	0back/STIM_016.jpg
1976.811	0.518	correct	0back	Block3	0back/STIM_017.jpg
1981.141	0.848	correct	0back	Block3	0back/STIM_017.jpg
1985.818	0.641	correct	0back	Block3	0back/STIM_017.jpg
1990.119	0.725	correct	0back	Block3	0back/STIM_018.jpg
1994.661	0.507	correct	0back	Block3	0back/STIM_018.jpg
1998.425	0.731	incorrect	0back	Block3	0back/STIM_018.jpg
2001.14	0.732	correct	0back	Block3	0back/STIM_019.jpg
2004.642	0.577	correct	0back	Block3	0back/STIM_019.jpg
2007.748	0.444	correct	0back	Block3	0back/STIM_019.jpg
2010.754	0.914	correct	2back	Block4	2back/STIM_000.jpg
2014.872	0.813	correct	2back	Block4	2back/STIM_000.jpg
2017.682	0.682	correct	2back	Block4	2back/STIM_000.jpg
2021.05	0.577	correct	2back	Block4	2back/STIM_001.jpg
2023.71	0.984	correct	2back	Block4	2back/STIM_001.jpg
2027.443	0.906	correct	2back	Block4	2back/STIM_001.jpg
2031.885	0.621	correct	2back	Block4	2back/STIM_002.jpg
2035.778	0.622	correct	2back	Block4	2back/STIM_002.jpg
2038.51	0.672	correct	2back	Block4	2back/STIM_002.jpg
2041.634	0.686	correct	2back	Block4	2back/STIM_003.jpg
2044.659	0.807	correct	2back	Block4	2back/STIM_003.jpg
2048.747	0.626	correct	2back	Block4	2back/STIM_003.jpg
2051.98	0.948	correct	2back	Block4	2back/STIM_004.jpg
2054.842	0.645	correct	2back	Block4	2back/STIM_004.jpg
2059.425	0.969	correct	2back	Block4	2back/STIM_004.jpg
2063.087	1.025	correct	2back	Block4	2back/STIM_005.jpg
2067.73	0.659	correct	2back	Block4	2back/STIM_005.jpg
2071.359	0.593	correct	2back	Block4	2back/STIM_005.jpg
2074.974	0.796	correct	2back	Block4	2back/STIM_006.jpg
2078.939	0.848	correct	2back	Block4	2back/STIM_006.jpg
2082.112	0.726	correct	2back	Block4	2back/STIM_006.jpg
2084.925	0.574	correct	2back	Block4	2back/STIM_007.jpg
2088.565	0.944	correct	2back	Block4	2back/STIM_007.jpg
2092.656	0.48	correct	2back	Block4	2back/STIM_007.jpg
2095.41	0.481	correct	2back	Block4	2back/STIM_008.jpg
2099.247	0.489	correct	2back	Block4	2back/STIM_008.jpg
2103.173	0.701	incorrect	2back	Block4	2back/STIM_008.jpg
2106.187	0.757	correct	2back	Block4	2back/STIM_009.jpg
2110.271	0.732	correct	2back	Block4	2back/STIM_009.jpg
2113.905	0.924	correct	2back	Block4	2back/STIM_009.jpg
2117.351	0.871	correct	2back	Block4	2back/STIM_010.jpg
2121.259	0.66	correct	2back	Block4	2back/STIM_010.jpg
2124.766	0.836	correct	2back	Block4	2back/STIM_010.jpg
2129.368	0.935	correct	2back	Block4	2back/STIM_011.jpg
2133.185	0.925	correct	2back	Block4	2back/STIM_011.jpg
2137.916	0.736	correct	2back	Block4	2back/STIM_011.jpg
2140.964	0.678	correct	2back	Block4	2back/STIM_012.jpg
2144.659	0.691	correct	2back	Block4	2back/STIM_012.jpg
2149.146	0.957	correct	2back	Block4	2back/STIM_012.jpg
2153.025	0.567	correct	2back	Block4	2back/STIM_013.jpg
2156.977	0.533	correct	2back	Block4	2back/STIM_013.jpg
2159.654	1.077	incorrect	2back	Block4	2back/STIM_013.jpg
2163.751	0.932	correct	2back	Block4	2back/STIM_014.jpg
2167.633	0.829	correct	2back	Block4	2back/STIM_014.jpg
2170.908	1.048	correct	2back	Block4	2back/STIM_014.jpg
2174.112	0.466	correct	2back	Block4	2back/STIM_015.jpg
2177.272	0.717	correct	2back	Block4	2back/STIM_015.jpg
2181.188	0.672	correct	2back	Block4	2back/STIM_015.jpg
2185.278	0.869	correct	2back	Block4	2back/STIM_016.jpg
2189.96	0.958	correct	2back	Block4	2back/STIM_016.jpg
2193.769	0.644	correct	2back	Block4	2back/STIM_016.jpg
2197.055	0.477	correct	2back	Block4	2back/STIM_017.jpg
2199.533	0.929	correct	2back	Block4	2back/STIM_017.jpg
2203.035	0.882	correct	2back	Block4	2back/STIM_017.jpg
2206.825	0.998	correct	2back	Block4	2back/STIM_018.jpg
2211.639	1.025	correct	2back	Block4	2back/STIM_018.jpg
2215.87	0.89	correct	2back	Block4	2back/STIM_018.jpg
2220.299	0.479	incorrect	2back	Block4	2back/STIM_019.jpg
2223.618	0.7	correct	2back	Block4	2back/STIM_019.jpg
2227.307	0.71	correct	2back	Block4	2back/STIM_019.jpg
2231.845	1.015	correct	2back	Block4	2back/STIM_020.jpg
2235.314	0.883	correct	2back	Block4	2back/STIM_020.jpg
2238.87	1.056	correct	2back	Block4	2back/STIM_020.jpg
2243.1	1.022	correct	2back	Block4	2back/STIM_021.jpg
2246.82	0.778	correct	2back	Block4	2back/STIM_021.jpg
2251.019	0.527	correct	2back	Block4	2back/STIM_021.jpg
2254.199	0.618	correct	2back	Block4	2back/STIM_022.jpg
2256.898	0.568	correct	2back	Block4	2back/STIM_022.jpg
2260.639	0.692	correct	2back	Block4	2back/STIM_022.jpg
2264.352	0.48	correct	2back	Block4	2back/STIM_023.jpg
2267.801	0.888	correct	2back	Block4	2back/STIM_023.jpg
2271.167	0.795	correct	2back	Block4	2back/STIM_023.jpg
2275.175	1.078	correct	2back	Block4	2back/STIM_024.jpg
2278.424	0.917	correct	2back	Block4	2back/STIM_024.jpg
2281.662	0.953	correct	2back	Block4	2back/STIM_024.jpg
2286.182	0.632	correct	2back	Block4	2back/STIM_025.jpg
2288.762	1.045	correct	2back	Block4	2back/STIM_025.jpg
2292.757	0.978	correct	2back	Block4	2back/STIM_025.jpg
2296.396	0.597	correct	2back	Block4	2back/STIM_026.jpg
2298.998	0.553	correct	2back	Block4	2back/STIM_026.jpg
2303.336	0.612	correct	2back	Block4	2back/STIM_026.jpg
2307.072	0.68	correct	2back	Block4	2back/STIM_027.jpg
2310.502	0.857	correct	2back	Block4	2back/STIM_027.jpg
2314.627	0.682	correct	2back	Block4	2back/STIM_027.jpg
2318.367	0.611	correct	2back	Block4	2back/STIM_028.jpg
2321.605	1.036	correct	2back	Block4	2back/STIM_028.jpg
2325.667	0.806	correct	2back	Block4	2back/STIM_028.jpg
2329.06	0.584	correct	2back	Block4	2back/STIM_029.jpg
2332.162	0.471	correct	2back	Block4	2back/STIM_029.jpg
2335.074	1.022	correct	2back	Block4	2back/STIM_029.jpg
2338.489	0.979	correct	2back	Block4	2back/STIM_030.jpg
2342.494	0.864	correct	2back	Block4	2back/STIM_030.jpg
2347.163	0.7	incorrect	2back	Block4	2back/STIM_030.jpg
2351.381	0.964	correct	2back	Block4	2back/STIM_031.jpg
2354.535	0.812	correct	2back	Block4	2back/STIM_031.jpg
2358.651	0.862	correct	2back	Block4	2back/STIM_031.jpg
2362.528	0.599	correct	2back	Block4	2back/STIM_032.jpg
2365.516	0.863	correct	2back	Block4	2back/STIM_032.jpg
2369.318	0.816	correct	2back	Block4	2back/STIM_032.jpg
2373.918	0.761	correct	2back	Block4	2back/STIM_033.jpg
2376.7	0.866	correct	2back	Block4	2back/STIM_033.jpg
2380.074	0.521	correct	2back	Block4	2back/STIM_033.jpg
2382.873	0.871	correct	2back	Block4	2back/STIM_034.jpg
2385.78	0.594	correct	2back	Block4	2back/STIM_034.jpg
2389.429	0.505	correct	2back	Block4	2back/STIM_034.jpg
2392.878	0.682	correct	2back	Block4	2back/STIM_035.jpg
2395.577	0.921	correct	2back	Block4	2back/STIM_035.jpg
2400.291	0.852	correct	2back	Block4	2back/STIM_035.jpg
2403.121	0.576	correct	2back	Block4	2back/STIM_036.jpg
2405.854	0.539	correct	2back	Block4	2back/STIM_036.jpg
2410.163	0.604	correct	2back	Block4	2back/STIM_036.jpg
2414.495	0.751	correct	2back	Block4	2back/STIM_037.jpg
2418.052	0.85	correct	2back	Block4	2back/STIM_037.jpg
2422.57	0.526	correct	2back	Block4	2back/STIM_037.jpg
2425.938	0.509	correct	2back	Block4	2back/STIM_038.jpg
2429.105	0.824	incorrect	2back	Block4	2back/STIM_038.jpg
2433.109	0.853	correct	2back	Block4	2back/STIM_038.jpg
2437.473	0.943	correct	2back	Block4	2back/STIM_039.jpg
2441.408	0.754	correct	2back	Block4	2back/STIM_039.jpg
2444.305	0.803	correct	2back	Block4	2back/STIM_039.jpg
2447.887	0.578	correct	0back	Block4	0back/STIM_000.jpg
2451.142	0.469	correct	0back	Block4	0back/STIM_000.jpg
2453.878	0.498	correct	0back	Block4	0back/STIM_000.jpg
2458.243	0.475	correct	0back	Block4	0back/STIM_001.jpg
2461.37	0.795	correct	0back	Block4	0back/STIM_001.jpg
2466.018	0.642	correct	0back	Block4	0back/STIM_001.jpg
2469.525	0.713	correct	0back	Block4	0back/STIM_002.jpg
2473.055	0.496	correct	0back	Block4	0back/STIM_002.jpg
2476.116	0.851	correct	0back	Block4	0back/STIM_002.jpg
2479.842	0.455	correct	0back	Block4	0back/STIM_003.jpg
2482.983	0.471	correct	0back	Block4	0back/STIM_003.jpg
2486.958	0.565	correct	0back	Block4	0back/STIM_003.jpg
2491.015	0.634	correct	0back	Block4	0back/STIM_004.jpg
2493.936	0.595	correct	0back	Block4	0back/STIM_004.jpg
2497.782	0.794	correct	0back	Block4	0back/STIM_004.jpg
2500.536	0.793	correct	0back	Block4	0back/STIM_005.jpg
2504.441	0.511	correct	0back	Block4	0back/STIM_005.jpg
2508.321	0.83	correct	0back	Block4	0back/STIM_005.jpg
2511.224	0.679	correct	0back	Block4	0back/STIM_006.jpg
2513.991	0.448	correct	0back	Block4	0back/STIM_006.jpg
2517.075	0.518	correct	0back	Block4	0back/STIM_006.jpg
2521.468	0.786	correct	0back	Block4	0back/STIM_007.jpg
2525.882	0.834	correct	0back	Block4	0back/STIM_007.jpg
2529.359	0.751	correct	0back	Block4	0back/STIM_007.jpg
2532.352	0.698	correct	0back	Block4	0back/STIM_008.jpg
2534.988	0.543	correct	0back	Block4	0back/STIM_008.jpg
2538.446	0.467	correct	0back	Block4	0back/STIM_008.jpg
2542.726	0.852	correct	0back	Block4	0back/STIM_009.jpg
2545.99	0.684	correct	0back	Block4	0back/STIM_009.jpg
2549.799	0.72	correct	0back	Block4	0back/STIM_009.jpg
2554.177	0.622	correct	0back	Block4	0back/STIM_010.jpg
2557.991	0.68	incorrect	0back	Block4	0back/STIM_010.jpg
2561.187	0.494	correct	0back	Block4	0back/STIM_010.jpg
2565.544	0.774	correct	0back	Block4	0back/STIM_011.jpg
2570.207	0.718	correct	0back	Block4	0back/STIM_011.jpg
2573.096	0.773	correct	0back	Block4	0back/STIM_011.jpg
2575.938	0.528	correct	0back	Block4	0back/STIM_012.jpg
2579.149	0.517	correct	0back	Block4	0back/STIM_012.jpg
2583.091	0.722	correct	0back	Block4	0back/STIM_012.jpg
2586.05	0.484	correct	0back	Block4	0back/STIM_013.jpg
2590.443	0.825	correct	0back	Block4	0back/STIM_013.jpg
2595.126	0.66	correct	0back	Block4	0back/STIM_013.jpg
2598.564	0.525	correct	0back	Block4	0back/STIM_014.jpg
2602.76	0.568	correct	0back	Block4	0back/STIM_014.jpg
2605.607	0.753	correct	0back	Block4	0back/STIM_014.jpg
2609.053	0.685	correct	0back	Block4	0back/STIM_015.jpg
2612.153	0.727	correct	0back	Block4	0back/STIM_015.jpg
2614.925	0.707	correct	0back	Block4	0back/STIM_015.jpg
2618.297	0.654	correct	0back	Block4	0back/STIM_016.jpg
2622.238	0.518	incorrect	0back	Block4	0back/STIM_016.jpg
2626.302	0.613	correct	0back	Block4	0back/STIM_016.jpg
2630.34	0.622	correct	0back	Block4	0back/STIM_017.jpg
2634.443	0.572	correct	0back	Block4	0back/STIM_017.jpg
2637.569	0.548	correct	0back	Block4	0back/STIM_017.jpg
2641.562	0.639	incorrect	0back	Block4	0back/STIM_018.jpg
2644.816	0.821	correct	0back	Block4	0back/STIM_018.jpg
2648.629	0.536	correct	0back	Block4	0back/STIM_018.jpg
2652.569	0.874	incorrect	0back	Block4	0back/STIM_019.jpg
2657.054	0.86	correct	0back	Block4	0back/STIM_019.jpg
2660.704	0.848	correct	0back	Block4	0back/STIM_019.jpg
