onset	duration	accuracy_binary	trial_type	learning_stage	stimulus
0.0	1.171	1	2back	Block1	2back/STIM_000.jpg
4.823	1.336	1	2back	Block1	2back/STIM_000.jpg
10.061	0.838	1	2back	Block1	2back/STIM_000.jpg
13.984	0.705	1	2back	Block1	2back/STIM_001.jpg
17.602	0.826	1	2back	Block1	2back/STIM_001.jpg
21.748	1.315	1	2back	Block1	2back/STIM_001.jpg
25.265	0.84	0	2back	Block1	2back/STIM_002.jpg
29.872	1.01	1	2back	Block1	2back/STIM_002.jpg
34.698	0.965	1	2back	Block1	2back/STIM_002.jpg
39.027	0.724	1	2back	Block1	2back/STIM_003.jpg
42.475	1.277	1	2back	Block1	2back/STIM_003.jpg
47.327	0.586	1	2back	Block1	2back/STIM_003.jpg
50.937	0.961	0	2back	Block1	2back/STIM_004.jpg
54.6	0.728	1	2back	Block1	2back/STIM_004.jpg
57.917	1.114	1	2back	Block1	2back/STIM_004.jpg
61.56	1.02	1	2back	Block1	2back/STIM_005.jpg
64.888	1.125	1	2back	Block1	2back/STIM_005.jpg
69.403	1.076	0	2back	Block1	2back/STIM_005.jpg
73.42	1.376	1	2back	Block1	2back/STIM_006.jpg
78.143	1.305	0	2back	Block1	2back/STIM_006.jpg
82.105	0.644	1	2back	Block1	2back/STIM_006.jpg
84.935	1.44	1	2back	Block1	2back/STIM_007.jpg
89.991	0.692	0	2back	Block1	2back/STIM_007.jpg
92.91	0.96	1	2back	Block1	2back/STIM_007.jpg
97.593	1.452	1	2back	Block1	2back/STIM_008.jpg
101.162	1.022	1	2back	Block1	2back/STIM_008.jpg
105.393	0.917	1	2back	Block1	2back/STIM_008.jpg
108.596	1.342	1	2back	Block1	2back/STIM_009.jpg
112.016	1.129	1	2back	Block1	2back/STIM_009.jpg
116.136	0.967	1	2back	Block1	2back/STIM_009.jpg
119.777	0.741	1	2back	Block1	2back/STIM_010.jpg
123.836	1.105	1	2back	Block1	2back/STIM_010.jpg
128.374	0.611	0	2back	Block1	2back/STIM_010.jpg
132.314	0.636	1	2back	Block1	2back/STIM_011.jpg
136.337	0.958	1	2back	Block1	2back/STIM_011.jpg
141.173	0.566	1	2back	Block1	2back/STIM_011.jpg
145.069	1.076	1	2back	Block1	2back/STIM_012.jpg
149.19	0.652	1	2back	Block1	2back/STIM_012.jpg
153.35	0.595	1	2back	Block1	2back/STIM_012.jpg
157.559	1.218	0	2back	Block1	2back/STIM_013.jpg
160.861	1.005	1	2back	Block1	2back/STIM_013.jpg
165.841	0.577	1	2back	Block1	2back/STIM_013.jpg
170.003	0.87	1	2back	Block1	2back/STIM_014.jpg
173.789	0.927	0	2back	Block1	2back/STIM_014.jpg
177.06	0.79	1	2back	Block1	2back/STIM_014.jpg
180.168	1.354	1	2back	Block1	2back/STIM_015.jpg
185.124	1.023	1	2back	Block1	2back/STIM_015.jpg
189.802	1.146	1	2back	Block1	2back/STIM_015.jpg
194.472	1.292	1	2back	Block1	2back/STIM_016.jpg
198.81	0.715	0	2back	Block1	2back/STIM_016.jpg
202.148	0.974	1	2back	Block1	2back/STIM_016.jpg
206.76	0.998	1	2back	Block1	2back/STIM_017.jpg
211.69	0.697	1	2back	Block1	2back/STIM_017.jpg
214.968	1.024	1	2back	Block1	2back/STIM_017.jpg
219.137	1.298	1	2back	Block1	2back/STIM_018.jpg
223.305	1.304	1	2back	Block1	2back/STIM_018.jpg
226.644	0.95	1	2back	Block1	2back/STIM_018.jpg
231.492	1.137	1	2back	Block1	2back/STIM_019.jpg
236.201	1.122	1	2back	Block1	2back/STIM_019.jpg
240.662	0.615	1	2back	Block1	2back/STIM_019.jpg
243.772	1.395	0	2back	Block1	2back/STIM_020.jpg
248.35	1.055	1	2back	Block1	2back/STIM_020.jpg
251.9	1.235	1	2back	Block1	2back/STIM_020.jpg
256.597	1.308	0	2back	Block1	2back/STIM_021.jpg
260.367	0.831	1	2back	Block1	2back/STIM_021.jpg
264.561	0.854	1	2back	Block1	2back/STIM_021.jpg
268.352	0.84	1	2back	Block1	2back/STIM_022.jpg
273.124	1.235	1	2back	Block1	2back/STIM_022.jpg
277.062	0.899	1	2back	Block1	2back/STIM_022.jpg
280.524	1.004	1	2back	Block1	2back/STIM_023.jpg
285.279	1.266	1	2back	Block1	2back/STIM_023.jpg
290.426	0.865	1	2back	Block1	2back/STIM_023.jpg
294.101	0.991	1	2back	Block1	2back/STIM_024.jpg
297.604	0.936	1	2back	Block1	2back/STIM_024.jpg
300.747	0.62	1	2back	Block1	2back/STIM_024.jpg
304.219	1.189	1	2back	Block1	2back/STIM_025.jpg
307.932	1.286	1	2back	Block1	2back/STIM_025.jpg
313.177	1.128	1	2back	Block1	2back/STIM_025.jpg
317.576	0.968	1	2back	Block1	2back/STIM_026.jpg
321.062	0.849	1	2back	Block1	2back/STIM_026.jpg
325.741	1.288	1	2back	Block1	2back/STIM_026.jpg
331.02	1.133	1	2back	Block1	2back/STIM_027.jpg
334.256	0.907	0	2back	Block1	2back/STIM_027.jpg
337.885	0.599	1	2back	Block1	2back/STIM_027.jpg
341.405	0.85	1	2back	Block1	2back/STIM_028.jpg
345.327	1.277	1	2back	Block1	2back/STIM_028.jpg
348.832	1.063	0	2back	Block1	2back/STIM_028.jpg
353.52	1.315	1	2back	Block1	2back/STIM_029.jpg
358.139	1.282	1	2back	Block1	2back/STIM_029.jpg
362.352	0.804	1	2back	Block1	2back/STIM_029.jpg
365.405	1.056	1	2back	Block1	2back/STIM_030.jpg
369.795	0.83	1	2back	Block1	2back/STIM_030.jpg
374.201	0.988	1	2back	Block1	2back/STIM_030.jpg
377.679	1.277	1	2back	Block1	2back/STIM_031.jpg
382.745	0.939	1	2back	Block1	2back/STIM_031.jpg
386.934	1.047	1	2back	Block1	2back/STIM_031.jpg
391.241	1.19	1	2back	Block1	2back/STIM_032.jpg
395.168	1.179	1	2back	Block1	2back/STIM_032.jpg
399.763	0.784	1	2back	Block1	2back/STIM_032.jpg
404.402	0.953	1	2back	Block1	2back/STIM_033.jpg
407.784	0.81	1	2back	Block1	2back/STIM_033.jpg
411.597	0.938	1	2back	Block1	2back/STIM_033.jpg
416.505	0.713	1	2back	Block1	2back/STIM_034.jpg
420.288	1.25	1	2back	Block1	2back/STIM_034.jpg
424.857	1.036	1	2back	Block1	2back/STIM_034.jpg
429.242	0.995	1	2back	Block1	2back/STIM_035.jpg
433.275	0.793	1	2back	Block1	2back/STIM_035.jpg
437.926	0.746	1	2back	Block1	2back/STIM_035.jpg
440.952	1.297	1	2back	Block1	2back/STIM_036.jpg
445.411	1.089	1	2back	Block1	2back/STIM_036.jpg
448.522	1.249	0	2back	Block1	2back/STIM_036.jpg
452.961	1.259	1	2back	Block1	2back/STIM_037.jpg
457.472	0.912	0	2back	Block1	2back/STIM_037.jpg
461.135	0.728	1	2back	Block1	2back/STIM_037.jpg
464.877	1.077	0	2back	Block1	2back/STIM_038.jpg
468.046	0.773	0	2back	Block1	2back/STIM_038.jpg
471.676	1.066	0	2back	Block1	2back/STIM_038.jpg
474.885	1.081	1	2back	Block1	2back/STIM_039.jpg
479.393	0.675	1	2back	Block1	2back/STIM_039.jpg
482.113	1.201	0	2back	Block1	2back/STIM_039.jpg
486.678	0.456	1	0back	Block1	0back/STIM_000.jpg
490.398	0.761	1	0back	Block1	0back/STIM_000.jpg
493.778	0.777	1	0back	Block1	0back/STIM_000.jpg
498.178	0.589	1	0back	Block1	0back/STIM_001.jpg
501.863	0.62	1	0back	Block1	0back/STIM_001.jpg
505.504	0.645	1	0back	Block1	0back/STIM_001.jpg
509.085	0.798	1	0back	Block1	0back/STIM_002.jpg
512.785	0.566	1	0back	Block1	0back/STIM_002.jpg
517.259	0.626	1	0back	Block1	0back/STIM_002.jpg
521.52	0.786	1	0back	Block1	0back/STIM_003.jpg
525.101	0.585	1	0back	Block1	0back/STIM_003.jpg
529.315	0.602	1	0back	Block1	0back/STIM_003.jpg
533.741	0.789	0	0back	Block1	0back/STIM_004.jpg
537.278	0.548	1	0back	Block1	0back/STIM_004.jpg
540.623	0.552	1	0back	Block1	0back/STIM_004.jpg
543.996	0.492	1	0back	Block1	0back/STIM_005.jpg
546.618	0.574	1	0back	Block1	0back/STIM_005.jpg
550.093	0.424	1	0back	Block1	0back/STIM_005.jpg
552.589	0.461	1	0back	Block1	0back/STIM_006.jpg
555.648	0.45	1	0back	Block1	0back/STIM_006.jpg
559.153	0.607	1	0back	Block1	0back/STIM_006.jpg
563.11	0.775	1	0back	Block1	0back/STIM_007.jpg
567.393	0.485	1	0back	Block1	0back/STIM_007.jpg
571.82	0.503	0	0back	Block1	0back/STIM_007.jpg
574.579	0.683	1	0back	Block1	0back/STIM_008.jpg
577.579	0.59	1	0back	Block1	0back/STIM_008.jpg
581.37	0.481	1	0back	Block1	0back/STIM_008.jpg
584.775	0.714	1	0back	Block1	0back/STIM_009.jpg
587.619	0.606	1	0back	Block1	0back/STIM_009.jpg
591.54	0.542	1	0back	Block1	0back/STIM_009.jpg
595.473	0.446	1	0back	Block1	0back/STIM_010.jpg
598.358	0.511	1	0back	Block1	0back/STIM_010.jpg
602.029	0.582	1	0back	Block1	0back/STIM_010.jpg
605.55	0.511	1	0back	Block1	0back/STIM_011.jpg
609.52	0.738	1	0back	Block1	0back/STIM_011.jpg
612.553	0.801	1	0back	Block1	0back/STIM_011.jpg
616.609	0.739	1	0back	Block1	0back/STIM_012.jpg
620.964	0.554	1	0back	Block1	0back/STIM_012.jpg
623.521	0.691	1	0back	Block1	0back/STIM_012.jpg
626.658	0.545	1	0back	Block1	0back/STIM_013.jpg
630.997	0.567	1	0back	Block1	0back/STIM_013.jpg
635.292	0.466	1	0back	Block1	0back/STIM_013.jpg
638.563	0.671	1	0back	Block1	0back/STIM_014.jpg
642.806	0.534	1	0back	Block1	0back/STIM_014.jpg
645.478	0.631	1	0back	Block1	0back/STIM_014.jpg
648.21	0.829	1	0back	Block1	0back/STIM_015.jpg
652.452	0.725	1	0back	Block1	0back/STIM_015.jpg
655.254	0.602	1	0back	Block1	0back/STIM_015.jpg
659.239	0.576	1	0back	Block1	0back/STIM_016.jpg
663.089	0.676	1	0back	Block1	0back/STIM_016.jpg
667.236	0.45	1	0back	Block1	0back/STIM_016.jpg
670.757	0.572	1	0back	Block1	0back/STIM_017.jpg
674.405	0.81	1	0back	Block1	0back/STIM_017.jpg
677.96	0.817	1	0back	Block1	0back/STIM_017.jpg
681.618	0.518	1	0back	Block1	0back/STIM_018.jpg
685.218	0.752	1	0back	Block1	0back/STIM_018.jpg
688.762	0.43	1	0back	Block1	0back/STIM_018.jpg
692.338	0.647	1	0back	Block1	0back/STIM_019.jpg
695.085	0.762	1	0back	Block1	0back/STIM_019.jpg
699.674	0.577	0	0back	Block1	0back/STIM_019.jpg
702.681	1.189	1	2back	Block2	2back/STIM_000.jpg
707.64	0.883	1	2back	Block2	2back/STIM_000.jpg
711.792	0.597	1	2back	Block2	2back/STIM_000.jpg
715.439	1.144	1	2back	Block2	2back/STIM_001.jpg
719.852	1.096	1	2back	Block2	2back/STIM_001.jpg
723.253	0.729	1	2back	Block2	2back/STIM_001.jpg
727.967	0.717	1	2back	Block2	2back/STIM_002.jpg
731.566	1.166	1	2back	Block2	2back/STIM_002.jpg
734.963	0.666	1	2back	Block2	2back/STIM_002.jpg
739.481	1.094	1	2back	Block2	2back/STIM_003.jpg
742.642	0.85	1	2back	Block2	2back/STIM_003.jpg
747.113	0.731	1	2back	Block2	2back/STIM_003.jpg
751.388	0.991	1	2back	Block2	2back/STIM_004.jpg
755.876	0.715	1	2back	Block2	2back/STIM_004.jpg
760.417	0.633	1	2back	Block2	2back/STIM_004.jpg
763.988	1.084	0	2back	Block2	2back/STIM_005.jpg
768.123	1.075	1	2back	Block2	2back/STIM_005.jpg
772.177	0.93	1	2back	Block2	2back/STIM_005.jpg
775.477	1.098	1	2back	Block2	2back/STIM_006.jpg
779.423	0.518	1	2back	Block2	2back/STIM_006.jpg
783.033	0.762	1	2back	Block2	2back/STIM_006.jpg
786.23	0.886	1	2back	Block2	2back/STIM_007.jpg
790.588	1.066	1	2back	Block2	2back/STIM_007.jpg
794.797	0.784	1	2back	Block2	2back/STIM_007.jpg
798.821	0.564	1	2back	Block2	2back/STIM_008.jpg
801.878	0.742	1	2back	Block2	2back/STIM_008.jpg
805.205	0.732	1	2back	Block2	2back/STIM_008.jpg
809.524	0.766	1	2back	Block2	2back/STIM_009.jpg
813.364	0.986	1	2back	Block2	2back/STIM_009.jpg
817.117	0.77	1	2back	Block2	2back/STIM_009.jpg
820.469	1.041	1	2back	Block2	2back/STIM_010.jpg
825.375	0.751	1	2back	Block2	2back/STIM_010.jpg
828.242	1.036	1	2back	Block2	2back/STIM_010.jpg
832.399	0.823	1	2back	Block2	2back/STIM_011.jpg
836.472	0.869	1	2back	Block2	2back/STIM_011.jpg
840.473	1.057	1	2back	Block2	2back/STIM_011.jpg
845.041	0.554	1	2back	Block2	2back/STIM_012.jpg
847.652	0.872	1	2back	Block2	2back/STIM_012.jpg
851.608	0.618	1	2back	Block2	2back/STIM_012.jpg
856.194	0.944	1	2back	Block2	2back/STIM_013.jpg
859.194	0.622	1	2back	Block2	2back/STIM_013.jpg
863.507	0.942	1	2back	Block2	2back/STIM_013.jpg
867.328	1.014	1	2back	Block2	2back/STIM_014.jpg
871.748	0.528	1	2back	Block2	2back/STIM_014.jpg
876.152	0.762	1	2back	Block2	2back/STIM_014.jpg
880.868	0.547	1	2back	Block2	2back/STIM_015.jpg
884.185	0.536	0	2back	Block2	2back/STIM_015.jpg
888.52	0.655	1	2back	Block2	2back/STIM_015.jpg
891.417	0.763	1	2back	Block2	2back/STIM_016.jpg
895.778	0.605	1	2back	Block2	2back/STIM_016.jpg
899.405	0.529	1	2back	Block2	2back/STIM_016.jpg
902.511	1.001	1	2back	Block2	2back/STIM_017.jpg
906.942	0.848	1	2back	Block2	2back/STIM_017.jpg
910.728	0.513	1	2back	Block2	2back/STIM_017.jpg
915.075	0.951	1	2back	Block2	2back/STIM_018.jpg
918.174	0.794	1	2back	Block2	2back/STIM_018.jpg
921.927	0.965	1	2back	Block2	2back/STIM_018.jpg
926.398	1.217	1	2back	Block2	2back/STIM_019.jpg
930.22	0.698	1	2back	Block2	2back/STIM_019.jpg
934.298	0.662	1	2back	Block2	2back/STIM_019.jpg
937.909	0.996	1	2back	Block2	2back/STIM_020.jpg
942.902	1.016	1	2back	Block2	2back/STIM_020.jpg
946.62	0.97	1	2back	Block2	2back/STIM_020.jpg
949.926	0.885	1	2back	Block2	2back/STIM_021.jpg
954.039	0.535	1	2back	Block2	2back/STIM_021.jpg
957.475	0.946	1	2back	Block2	2back/STIM_021.jpg
961.217	0.907	1	2back	Block2	2back/STIM_022.jpg
964.626	0.707	1	2back	Block2	2back/STIM_022.jpg
967.675	0.838	1	2back	Block2	2back/STIM_022.jpg
972.336	1.096	0	2back	Block2	2back/STIM_023.jpg
976.146	0.678	1	2back	Block2	2back/STIM_023.jpg
979.787	0.823	1	2back	Block2	2back/STIM_023.jpg
983.248	1.002	1	2back	Block2	2back/STIM_024.jpg
988.017	0.657	1	2back	Block2	2back/STIM_024.jpg
992.022	0.745	1	2back	Block2	2back/STIM_024.jpg
996.632	0.984	1	2back	Block2	2back/STIM_025.jpg
1000.443	0.941	1	2back	Block2	2back/STIM_025.jpg
1004.118	0.834	1	2back	Block2	2back/STIM_025.jpg
1008.036	0.849	1	2back	Block2	2back/STIM_026.jpg
1011.271	0.854	1	2back	Block2	2back/STIM_026.jpg
1015.498	0.687	0	2back	Block2	2back/STIM_026.jpg
1019.68	0.941	0	2back	Block2	2back/STIM_027.jpg
1022.976	1.141	1	2back	Block2	2back/STIM_027.jpg
1027.661	0.593	1	2back	Block2	2back/STIM_027.jpg
1031.656	1.084	0	2back	Block2	2back/STIM_028.jpg
1036.036	0.907	1	2back	Block2	2back/STIM_028.jpg
1039.089	1.088	1	2back	Block2	2back/STIM_028.jpg
1042.746	1.073	1	2back	Block2	2back/STIM_029.jpg
1047.423	1.165	1	2back	Block2	2back/STIM_029.jpg
1051.74	0.958	1	2back	Block2	2back/STIM_029.jpg
1056.447	0.777	1	2back	Block2	2back/STIM_030.jpg
1060.082	0.975	1	2back	Block2	2back/STIM_030.jpg
1064.878	0.852	1	2back	Block2	2back/STIM_030.jpg
1068.378	0.693	1	2back	Block2	2back/STIM_031.jpg
1071.958	1.132	1	2back	Block2	2back/STIM_031.jpg
1076.67	1.054	1	2back	Block2	2back/STIM_031.jpg
1081.567	0.984	0	2back	Block2	2back/STIM_032.jpg
1084.583	1.093	1	2back	Block2	2back/STIM_032.jpg
1088.051	0.717	1	2back	Block2	2back/STIM_032.jpg
1091.701	0.974	1	2back	Block2	2back/STIM_033.jpg
1095.14	0.976	1	2back	Block2	2back/STIM_033.jpg
1099.647	0.48	1	2back	Block2	2back/STIM_033.jpg
1102.289	0.9	1	2back	Block2	2back/STIM_034.jpg
1105.924	0.812	1	2back	Block2	2back/STIM_034.jpg
1110.326	0.728	1	2back	Block2	2back/STIM_034.jpg
1113.353	0.819	0	2back	Block2	2back/STIM_035.jpg
1117.888	0.7	1	2back	Block2	2back/STIM_035.jpg
1122.585	0.68	1	2back	Block2	2back/STIM_035.jpg
1126.526	0.897	1	2back	Block2	2back/STIM_036.jpg
1129.483	1.146	1	2back	Block2	2back/STIM_036.jpg
1133.267	0.594	1	2back	Block2	2back/STIM_036.jpg
1136.035	0.906	0	2back	Block2	2back/STIM_037.jpg
1139.002	0.581	1	2back	Block2	2back/STIM_037.jpg
1143.228	0.71	1	2back	Block2	2back/STIM_037.jpg
1146.504	1.162	1	2back	Block2	2back/STIM_038.jpg
1150.499	0.53	1	2back	Block2	2back/STIM_038.jpg
1154.012	0.885	1	2back	Block2	2back/STIM_038.jpg
1158.846	0.68	1	2back	Block2	2back/STIM_039.jpg
1163.287	0.871	0	2back	Block2	2back/STIM_039.jpg
1167.35	0.874	1	2back	Block2	2back/STIM_039.jpg
1170.427	0.794	1	0back	Block2	0back/STIM_000.jpg
1173.567	0.469	1	0back	Block2	0back/STIM_000.jpg
1176.966	0.575	1	0back	Block2	0back/STIM_000.jpg
1179.568	0.57	1	0back	Block2	0back/STIM_001.jpg
1182.672	0.804	1	0back	Block2	0back/STIM_001.jpg
1187.3	0.8	1	0back	Block2	0back/STIM_001.jpg
1191.472	0.522	1	0back	Block2	0back/STIM_002.jpg
1195.861	0.544	1	0back	Block2	0back/STIM_002.jpg
1199.378	0.59	1	0back	Block2	0back/STIM_002.jpg
1203.459	0.797	1	0back	Block2	0back/STIM_003.jpg
1206.829	0.726	1	0back	Block2	0back/STIM_003.jpg
1210.651	0.486	1	0back	Block2	0back/STIM_003.jpg
1214.904	0.63	1	0back	Block2	0back/STIM_004.jpg
1218.375	0.682	1	0back	Block2	0back/STIM_004.jpg
1221.855	0.439	1	0back	Block2	0back/STIM_004.jpg
1225.85	0.557	1	0back	Block2	0back/STIM_005.jpg
1230.149	0.721	1	0back	Block2	0back/STIM_005.jpg
1234.672	0.519	1	0back	Block2	0back/STIM_005.jpg
1238.014	0.826	1	0back	Block2	0back/STIM_006.jpg
1242.117	0.54	1	0back	Block2	0back/STIM_006.jpg
1244.697	0.566	1	0back	Block2	0back/STIM_006.jpg
1247.377	0.487	1	0back	Block2	0back/STIM_007.jpg
1250.271	0.521	1	0back	Block2	0back/STIM_007.jpg
1253.4	0.651	1	0back	Block2	0back/STIM_007.jpg
1256.755	0.715	1	0back	Block2	0back/STIM_008.jpg
1260.985	0.452	1	0back	Block2	0back/STIM_008.jpg
1264.946	0.802	1	0back	Block2	0back/STIM_008.jpg
1268.89	0.816	1	0back	Block2	0back/STIM_009.jpg
1273.541	0.746	1	0back	Block2	0back/STIM_009.jpg
1277.139	0.563	1	0back	Block2	0back/STIM_009.jpg
1280.673	0.509	1	0back	Block2	0back/STIM_010.jpg
1283.788	0.65	1	0back	Block2	0back/STIM_010.jpg
1288.047	0.454	1	0back	Block2	0back/STIM_010.jpg
1292.337	0.704	1	0back	Block2	0back/STIM_011.jpg
1296.963	0.83	1	0back	Block2	0back/STIM_011.jpg
1300.438	0.509	1	0back	Block2	0back/STIM_011.jpg
1304.303	0.767	1	0back	Block2	0back/STIM_012.jpg
1307.461	0.506	1	0back	Block2	0back/STIM_012.jpg
1310.868	0.652	1	0back	Block2	0back/STIM_012.jpg
1313.789	0.659	1	0back	Block2	0back/STIM_013.jpg
1318.231	0.691	1	0back	Block2	0back/STIM_013.jpg
1322.144	0.544	1	0back	Block2	0back/STIM_013.jpg
1325.89	0.429	1	0back	Block2	0back/STIM_014.jpg
1329.772	0.763	1	0back	Block2	0back/STIM_014.jpg
1334.248	0.811	1	0back	Block2	0back/STIM_014.jpg
1337.498	0.684	1	0back	Block2	0back/STIM_015.jpg
1341.734	0.432	1	0back	Block2	0back/STIM_015.jpg
1346.081	0.505	1	0back	Block2	0back/STIM_015.jpg
1350.166	0.659	1	0back	Block2	0back/STIM_016.jpg
1353.637	0.47	1	0back	Block2	0back/STIM_016.jpg
1357.912	0.77	1	0back	Block2	0back/STIM_016.jpg
1360.89	0.73	1	0back	Block2	0back/STIM_017.jpg
1364.251	0.64	1	0back	Block2	0back/STIM_017.jpg
1368.169	0.808	1	0back	Block2	0back/STIM_017.jpg
1371.406	0.474	1	0back	Block2	0back/STIM_018.jpg
1375.522	0.713	1	0back	Block2	0back/STIM_018.jpg
1379.417	0.42	1	0back	Block2	0back/STIM_018.jpg
1382.674	0.616	1	0back	Block2	0back/STIM_019.jpg
1385.68	0.433	1	0back	Block2	0back/STIM_019.jpg
1389.711	0.433	1	0back	Block2	0back/STIM_019.jpg
1392.236	0.646	1	2back	Block3	2back/STIM_000.jpg
1395.196	0.702	1	2back	Block3	2back/STIM_000.jpg
1398.156	0.976	1	2back	Block3	2back/STIM_000.jpg
1402.732	0.933	1	2back	Block3	2back/STIM_001.jpg
1406.633	0.678	1	2back	Block3	2back/STIM_001.jpg
1411.089	0.813	1	2back	Block3	2back/STIM_001.jpg
1413.937	0.516	0	2back	Block3	2back/STIM_002.jpg
1418.079	0.764	1	2back	Block3	2back/STIM_002.jpg
1421.025	1.003	1	2back	Block3	2back/STIM_002.jpg
1425.041	0.993	1	2back	Block3	2back/STIM_003.jpg
1428.166	0.695	1	2back	Block3	2back/STIM_003.jpg
1431.539	0.94	1	2back	Block3	2back/STIM_003.jpg
1435.138	0.552	1	2back	Block3	2back/STIM_004.jpg
1439.215	0.684	1	2back	Block3	2back/STIM_004.jpg
1442.06	1.007	1	2back	Block3	2back/STIM_004.jpg
1446.737	0.59	1	2back	Block3	2back/STIM_005.jpg
1450.204	0.578	1	2back	Block3	2back/STIM_005.jpg
1452.808	0.728	1	2back	Block3	2back/STIM_005.jpg
1456.052	0.93	1	2back	Block3	2back/STIM_006.jpg
1460.185	0.636	1	2back	Block3	2back/STIM_006.jpg
1464.44	0.798	1	2back	Block3	2back/STIM_006.jpg
1467.92	0.601	1	2back	Block3	2back/STIM_007.jpg
1471.771	0.452	1	2back	Block3	2back/STIM_007.jpg
1475.381	0.72	1	2back	Block3	2back/STIM_007.jpg
1478.663	0.659	1	2back	Block3	2back/STIM_008.jpg
1481.605	0.502	1	2back	Block3	2back/STIM_008.jpg
1484.281	0.523	1	2back	Block3	2back/STIM_008.jpg
1487.992	0.439	1	2back	Block3	2back/STIM_009.jpg
1491.723	1.002	1	2back	Block3	2back/STIM_009.jpg
1496.49	0.477	1	2back	Block3	2back/STIM_009.jpg
1499.798	0.545	1	2back	Block3	2back/STIM_010.jpg
1503.143	0.751	1	2back	Block3	2back/STIM_010.jpg
1507.08	0.798	1	2back	Block3	2back/STIM_010.jpg
1510.844	0.964	1	2back	Block3	2back/STIM_011.jpg
1515.28	0.5	1	2back	Block3	2back/STIM_011.jpg
1517.928	0.834	1	2back	Block3	2back/STIM_011.jpg
1522.699	0.53	1	2back	Block3	2back/STIM_012.jpg
1525.83	0.733	1	2back	Block3	2back/STIM_012.jpg
1528.594	0.74	1	2back	Block3	2back/STIM_012.jpg
1533.171	0.885	1	2back	Block3	2back/STIM_013.jpg
1537.545	0.99	1	2back	Block3	2back/STIM_013.jpg
1541.821	0.694	1	2back	Block3	2back/STIM_013.jpg
1545.749	0.844	1	2back	Block3	2back/STIM_014.jpg
1549.636	0.6	1	2back	Block3	2back/STIM_014.jpg
1553.344	0.668	1	2back	Block3	2back/STIM_014.jpg
1556.707	0.765	1	2back	Block3	2back/STIM_015.jpg
1561.151	0.546	1	2back	Block3	2back/STIM_015.jpg
1564.099	0.775	1	2back	Block3	2back/STIM_015.jpg
1567.567	0.781	1	2back	Block3	2back/STIM_016.jpg
1571.712	0.977	1	2back	Block3	2back/STIM_016.jpg
1576.046	0.855	1	2back	Block3	2back/STIM_016.jpg
1580.603	0.835	0	2back	Block3	2back/STIM_017.jpg
1584.841	0.633	1	2back	Block3	2back/STIM_017.jpg
1589.154	0.915	1	2back	Block3	2back/STIM_017.jpg
1592.834	0.541	1	2back	Block3	2back/STIM_018.jpg
1595.926	0.557	1	2back	Block3	2back/STIM_018.jpg
1598.595	0.533	1	2back	Block3	2back/STIM_018.jpg
1602.564	0.731	1	2back	Block3	2back/STIM_019.jpg
1605.82	0.974	1	2back	Block3	2back/STIM_019.jpg
1609.546	0.528	1	2back	Block3	2back/STIM_019.jpg
1612.572	0.593	1	2back	Block3	2back/STIM_020.jpg
1616.393	1.006	1	2back	Block3	2back/STIM_020.jpg
1619.972	0.464	1	2back	Block3	2back/STIM_020.jpg
1622.728	0.673	1	2back	Block3	2back/STIM_021.jpg
1626.729	0.66	1	2back	Block3	2back/STIM_021.jpg
1631.014	0.895	1	2back	Block3	2back/STIM_021.jpg
1634.076	0.989	1	2back	Block3	2back/STIM_022.jpg
1637.156	0.861	1	2back	Block3	2back/STIM_022.jpg
1640.844	0.705	1	2back	Block3	2back/STIM_022.jpg
1644.924	0.915	1	2back	Block3	2back/STIM_023.jpg
1648.673	0.553	1	2back	Block3	2back/STIM_023.jpg
1652.079	0.656	1	2back	Block3	2back/STIM_023.jpg
1656.19	0.51	1	2back	Block3	2back/STIM_024.jpg
1659.079	0.525	1	2back	Block3	2back/STIM_024.jpg
1663.348	0.547	1	2back	Block3	2back/STIM_024.jpg
1667.049	0.754	1	2back	Block3	2back/STIM_025.jpg
1670.501	0.999	1	2back	Block3	2back/STIM_025.jpg
1675.288	0.866	1	2back	Block3	2back/STIM_025.jpg
1678.219	0.983	1	2back	Block3	2back/STIM_026.jpg
1681.839	0.662	1	2back	Block3	2back/STIM_026.jpg
1685.98	0.568	1	2back	Block3	2back/STIM_026.jpg
1689.743	0.698	1	2back	Block3	2back/STIM_027.jpg
1693.218	0.988	1	2back	Block3	2back/STIM_027.jpg
1697.028	0.645	1	2back	Block3	2back/STIM_027.jpg
1700.749	0.631	1	2back	Block3	2back/STIM_028.jpg
1703.445	0.487	1	2back	Block3	2back/STIM_028.jpg
1707.577	0.925	1	2back	Block3	2back/STIM_028.jpg
1712.066	0.96	1	2back	Block3	2back/STIM_029.jpg
1716.368	0.93	1	2back	Block3	2back/STIM_029.jpg
1721.058	0.495	1	2back	Block3	2back/STIM_029.jpg
1724.034	0.725	1	2back	Block3	2back/STIM_030.jpg
1727.477	0.721	1	2back	Block3	2back/STIM_030.jpg
1731.241	0.95	1	2back	Block3	2back/STIM_030.jpg
1735.505	0.716	0	2back	Block3	2back/STIM_031.jpg
1738.396	0.988	1	2back	Block3	2back/STIM_031.jpg
1742.765	0.555	1	2back	Block3	2back/STIM_031.jpg
1747.238	0.938	1	2back	Block3	2back/STIM_032.jpg
1751.771	0.622	1	2back	Block3	2back/STIM_032.jpg
1755.181	0.835	1	2back	Block3	2back/STIM_032.jpg
1759.783	0.456	1	2back	Block3	2back/STIM_033.jpg
1763.163	0.997	1	2back	Block3	2back/STIM_033.jpg
1766.301	0.919	1	2back	Block3	2back/STIM_033.jpg
1769.7	0.532	1	2back	Block3	2back/STIM_034.jpg
1773.208	0.503	1	2back	Block3	2back/STIM_034.jpg
1777.655	0.68	1	2back	Block3	2back/STIM_034.jpg
1780.42	0.625	0	2back	Block3	2back/STIM_035.jpg
1785.033	0.635	1	2back	Block3	2back/STIM_035.jpg
1789.037	0.834	1	2back	Block3	2back/STIM_035.jpg
1793.596	0.67	1	2back	Block3	2back/STIM_036.jpg
1797.365	0.887	1	2back	Block3	2back/STIM_036.jpg
1800.328	0.974	1	2back	Block3	2back/STIM_036.jpg
1805.301	0.703	1	2back	Block3	2back/STIM_037.jpg
1809.065	0.471	1	2back	Block3	2back/STIM_037.jpg
1811.854	0.878	1	2back	Block3	2back/STIM_037.jpg
1815.327	0.918	1	2back	Block3	2back/STIM_038.jpg
1820.004	0.804	1	2back	Block3	2back/STIM_038.jpg
1823.302	0.915	1	2back	Block3	2back/STIM_038.jpg
1827.737	0.777	1	2back	Block3	2back/STIM_039.jpg
1830.598	0.982	1	2back	Block3	2back/STIM_039.jpg
1833.906	0.678	1	2back	Block3	2back/STIM_039.jpg
1836.681	0.6	1	0back	Block3	0back/STIM_000.jpg
1839.76	0.766	1	0back	Block3	0back/STIM_000.jpg
1843.277	0.83	1	0back	Block3	0back/STIM_000.jpg
1846.402	0.827	1	0back	Block3	0back/STIM_001.jpg
1851.065	0.698	1	0back	Block3	0back/STIM_001.jpg
1853.827	0.5	1	0back	Block3	0back/STIM_001.jpg
1856.364	0.596	1	0back	Block3	0back/STIM_002.jpg
1859.466	0.751	1	0back	Block3	0back/STIM_002.jpg
1862.842	0.66	1	0back	Block3	0back/STIM_002.jpg
1867.2	0.709	1	0back	Block3	0back/STIM_003.jpg
1870.832	0.606	1	0back	Block3	0back/STIM_003.jpg
1873.784	0.796	1	0back	Block3	0back/STIM_003.jpg
1877.406	0.587	0	0back	Block3	0back/STIM_004.jpg
1880.53	0.73	1	0back	Block3	0back/STIM_004.jpg
1884.212	0.684	1	0back	Block3	0back/STIM_004.jpg
1888.268	0.472	1	0back	Block3	0back/STIM_005.jpg
1891.495	0.539	1	0back	Block3	0back/STIM_005.jpg
1894.546	0.603	1	0back	Block3	0back/STIM_005.jpg
1899.037	0.822	1	0back	Block3	0back/STIM_006.jpg
1903.551	0.605	1	0back	Block3	0back/STIM_006.jpg
1908.01	0.438	1	0back	Block3	0back/STIM_006.jpg
1911.251	0.607	1	0back	Block3	0back/STIM_007.jpg
1915.105	0.604	1	0back	Block3	0back/STIM_007.jpg
1919.03	0.445	1	0back	Block3	0back/STIM_007.jpg
1922.455	0.57	1	0back	Block3	0back/STIM_008.jpg
1926.829	0.48	1	0back	Block3	0back/STIM_008.jpg
1930.472	0.574	1	0back	Block3	0back/STIM_008.jpg
1933.148	0.655	1	0back	Block3	0back/STIM_009.jpg
1935.955	0.808	1	0back	Block3	0back/STIM_009.jpg
1940.153	0.631	1	0back	Block3	0back/STIM_009.jpg
1943.037	0.511	1	0back	Block3	0back/STIM_010.jpg
1947.003	0.577	1	0back	Block3	0back/STIM_010.jpg
1950.478	0.76	1	0back	Block3	0back/STIM_010.jpg
1954.825	0.756	1	0back	Block3	0back/STIM_011.jpg
1958.014	0.596	1	0back	Block3	0back/STIM_011.jpg
1961.521	0.76	1	0back	Block3	0back/STIM_011.jpg
1965.143	0.54	1	0back	Block3	0back/STIM_012.jpg
1968.485	0.581	1	0back	Block3	0back/STIM_012.jpg
1971.084	0.728	1	0back	Block3	0back/STIM_012.jpg
1975.123	0.796	1	0back	Block3	0back/STIM_013.jpg
1977.989	0.669	1	0back	Block3	0back/STIM_013.jpg
1980.777	0.804	1	0back	Block3	0back/STIM_013.jpg
1984.279	0.76	1	0back	Block3	0back/STIM_014.jpg
1987.077	0.74	1	0back	Block3	0back/STIM_014.jpg
1991.07	0.498	1	0back	Block3	0back/STIM_014.jpg
1995.535	0.612	1	0back	Block3	0back/STIM_015.jpg
2000.087	0.498	1	0back	Block3	0back/STIM_015.jpg
2003.666	0.751	1	0back	Block3	0back/STIM_015.jpg
2007.606	0.469	1	0back	Block3	0back/STIM_016.jpg
2011.655	0.754	1	0back	Block3	0back/STIM_016.jpg
2014.471	0.453	1	0back	Block3	0back/STIM_016.jpg
2018.291	0.825	1	0back	Block3	0back/STIM_017.jpg
2021.778	0.774	1	0back	Block3	0back/STIM_017.jpg
2024.696	0.82	1	0back	Block3	0back/STIM_017.jpg
2027.859	0.803	1	0back	Block3	0back/STIM_018.jpg
2032.486	0.479	1	0back	Block3	0back/STIM_018.jpg
2035.239	0.633	0	0back	Block3	0back/STIM_018.jpg
2038.396	0.695	1	0back	Block3	0back/STIM_019.jpg
2041.96	0.686	1	0back	Block3	0back/STIM_019.jpg
2045.763	0.564	1	0back	Block3	0back/STIM_019.jpg
2048.628	0.699	1	2back	Block4	2back/STIM_000.jpg
2051.779	0.982	1	2back	Block4	2back/STIM_000.jpg
2055.857	0.983	1	2back	Block4	2back/STIM_000.jpg
2058.94	1.021	1	2back	Block4	2back/STIM_001.jpg
2063.758	0.487	1	2back	Block4	2back/STIM_001.jpg
2068.043	0.669	1	2back	Block4	2back/STIM_001.jpg
2071.208	0.909	1	2back	Block4	2back/STIM_002.jpg
2076.046	0.488	1	2back	Block4	2back/STIM_002.jpg
2079.13	0.616	1	2back	Block4	2back/STIM_002.jpg
2082.357	0.583	1	2back	Block4	2back/STIM_003.jpg
2086.667	0.532	1	2back	Block4	2back/STIM_003.jpg
2089.558	0.701	1	2back	Block4	2back/STIM_003.jpg
2093.434	0.669	1	2back	Block4	2back/STIM_004.jpg
2097.331	0.684	1	2back	Block4	2back/STIM_004.jpg
2100.994	0.662	1	2back	Block4	2back/STIM_004.jpg
2104.525	0.866	1	2back	Block4	2back/STIM_005.jpg
2108.187	1.009	1	2back	Block4	2back/STIM_005.jpg
2111.334	0.494	1	2back	Block4	2back/STIM_005.jpg
2114.897	1.009	1	2back	Block4	2back/STIM_006.jpg
2119.364	0.878	1	2back	Block4	2back/STIM_006.jpg
2122.306	0.73	1	2back	Block4	2back/STIM_006.jpg
2126.067	0.532	1	2back	Block4	2back/STIM_007.jpg
2130.072	0.678	1	2back	Block4	2back/STIM_007.jpg
2133.966	1.003	1	2back	Block4	2back/STIM_007.jpg
2138.763	0.944	1	2back	Block4	2back/STIM_008.jpg
2143.673	0.454	1	2back	Block4	2back/STIM_008.jpg
2147.978	0.83	0	2back	Block4	2back/STIM_008.jpg
2151.655	0.654	1	2back	Block4	2back/STIM_009.jpg
2156.079	0.554	1	2back	Block4	2back/STIM_009.jpg
2159.736	0.587	1	2back	Block4	2back/STIM_009.jpg
2163.004	0.707	1	2back	Block4	2back/STIM_010.jpg
2165.954	1.009	1	2back	Block4	2back/STIM_010.jpg
2169.829	0.539	1	2back	Block4	2back/STIM_010.jpg
2173.289	0.532	1	2back	Block4	2back/STIM_011.jpg
2177.241	0.781	1	2back	Block4	2back/STIM_011.jpg
2181.657	0.867	1	2back	Block4	2back/STIM_011.jpg
2184.589	0.498	1	2back	Block4	2back/STIM_012.jpg
2187.405	0.992	1	2back	Block4	2back/STIM_012.jpg
2191.271	0.525	1	2back	Block4	2back/STIM_012.jpg
2193.943	0.656	1	2back	Block4	2back/STIM_013.jpg
2197.669	0.59	1	2back	Block4	2back/STIM_013.jpg
2201.215	0.751	0	2back	Block4	2back/STIM_013.jpg
2205.653	0.932	1	2back	Block4	2back/STIM_014.jpg
2209.305	0.536	1	2back	Block4	2back/STIM_014.jpg
2211.987	0.688	1	2back	Block4	2back/STIM_014.jpg
2214.725	0.927	1	2back	Block4	2back/STIM_015.jpg
2218.576	1.003	1	2back	Block4	2back/STIM_015.jpg
2222.396	0.641	1	2back	Block4	2back/STIM_015.jpg
2226.392	0.625	1	2back	Block4	2back/STIM_016.jpg
2229.389	0.669	1	2back	Block4	2back/STIM_016.jpg
2233.708	0.729	1	2back	Block4	2back/STIM_016.jpg
2236.775	0.993	1	2back	Block4	2back/STIM_017.jpg
2240.828	0.87	1	2back	Block4	2back/STIM_017.jpg
2244.108	0.926	1	2back	Block4	2back/STIM_017.jpg
2247.902	0.446	1	2back	Block4	2back/STIM_018.jpg
2252.311	1.004	1	2back	Block4	2back/STIM_018.jpg
2255.78	0.621	1	2back	Block4	2back/STIM_018.jpg
2258.578	0.808	0	2back	Block4	2back/STIM_019.jpg
2262.63	0.892	1	2back	Block4	2back/STIM_019.jpg
2266.924	0.702	1	2back	Block4	2back/STIM_019.jpg
2270.914	0.447	1	2back	Block4	2back/STIM_020.jpg
2273.691	0.71	1	2back	Block4	2back/STIM_020.jpg
2278.267	0.815	1	2back	Block4	2back/STIM_020.jpg
2282.589	0.815	1	2back	Block4	2back/STIM_021.jpg
2285.66	0.95	1	2back	Block4	2back/STIM_021.jpg
2288.929	0.751	1	2back	Block4	2back/STIM_021.jpg
2292.023	0.654	1	2back	Block4	2back/STIM_022.jpg
2296.266	0.524	1	2back	Block4	2back/STIM_022.jpg
2299.874	0.774	1	2back	Block4	2back/STIM_022.jpg
2304.435	0.686	1	2back	Block4	2back/STIM_023.jpg
2307.622	0.728	1	2back	Block4	2back/STIM_023.jpg
2310.95	0.615	1	2back	Block4	2back/STIM_023.jpg
2315.197	0.986	1	2back	Block4	2back/STIM_024.jpg
2318.998	0.747	1	2back	Block4	2back/STIM_024.jpg
2321.955	0.612	1	2back	Block4	2back/STIM_024.jpg
2324.905	0.498	1	2back	Block4	2back/STIM_025.jpg
2329.173	0.608	1	2back	Block4	2back/STIM_025.jpg
2332.987	0.826	1	2back	Block4	2back/STIM_025.jpg
2336.894	0.556	1	2back	Block4	2back/STIM_026.jpg
2340.633	0.526	1	2back	Block4	2back/STIM_026.jpg
2343.97	0.499	1	2back	Block4	2back/STIM_026.jpg
2347.384	0.614	1	2back	Block4	2back/STIM_027.jpg
2351.002	0.764	1	2back	Block4	2back/STIM_027.jpg
2355.489	0.64	1	2back	Block4	2back/STIM_027.jpg
2358.276	0.925	1	2back	Block4	2back/STIM_028.jpg
2363.156	0.728	1	2back	Block4	2back/STIM_028.jpg
2366.088	0.725	1	2back	Block4	2back/STIM_028.jpg
2370.333	0.991	1	2back	Block4	2back/STIM_029.jpg
2375.093	0.807	1	2back	Block4	2back/STIM_029.jpg
2379.802	0.912	1	2back	Block4	2back/STIM_029.jpg
2383.188	0.599	1	2back	Block4	2back/STIM_030.jpg
2387.563	0.732	1	2back	Block4	2back/STIM_030.jpg
2392.267	1.007	0	2back	Block4	2back/STIM_030.jpg
2395.961	0.558	1	2back	Block4	2back/STIM_031.jpg
2398.988	0.681	1	2back	Block4	2back/STIM_031.jpg
2403.591	0.618	1	2back	Block4	2back/STIM_031.jpg
2407.802	0.644	1	2back	Block4	2back/STIM_032.jpg
2411.703	0.865	1	2back	Block4	2back/STIM_032.jpg
2415.083	0.781	1	2back	Block4	2back/STIM_032.jpg
2417.993	0.536	1	2back	Block4	2back/STIM_033.jpg
2422.147	0.672	1	2back	Block4	2back/STIM_033.jpg
2426.25	0.925	1	2back	Block4	2back/STIM_033.jpg
2429.904	1.005	1	2back	Block4	2back/STIM_034.jpg
2433.585	0.71	1	2back	Block4	2back/STIM_034.jpg
2437.118	0.92	1	2back	Block4	2back/STIM_034.jpg
2440.062	0.522	1	2back	Block4	2back/STIM_035.jpg
2444.077	0.567	1	2back	Block4	2back/STIM_035.jpg
2447.227	0.498	1	2back	Block4	2back/STIM_035.jpg
2450.805	0.978	1	2back	Block4	2back/STIM_036.jpg
2455.036	0.558	1	2back	Block4	2back/STIM_036.jpg
2459.4	0.48	1	2back	Block4	2back/STIM_036.jpg
2462.979	0.541	1	2back	Block4	2back/STIM_037.jpg
2467.343	0.988	1	2back	Block4	2back/STIM_037.jpg
2471.729	0.551	1	2back	Block4	2back/STIM_037.jpg
2474.468	0.834	1	2back	Block4	2back/STIM_038.jpg
2478.513	0.605	0	2back	Block4	2back/STIM_038.jpg
2483.078	0.607	1	2back	Block4	2back/STIM_038.jpg
2486.232	0.847	1	2back	Block4	2back/STIM_039.jpg
2490.051	0.646	1	2back	Block4	2back/STIM_039.jpg
2493.547	0.808	1	2back	Block4	2back/STIM_039.jpg
2496.528	0.555	1	0back	Block4	0back/STIM_000.jpg
2501.03	0.74	1	0back	Block4	0back/STIM_000.jpg
2504.618	0.452	1	0back	Block4	0back/STIM_000.jpg
2508.28	0.588	1	0back	Block4	0back/STIM_001.jpg
2511.601	0.796	1	0back	Block4	0back/STIM_001.jpg
2515.361	0.519	1	0back	Block4	0back/STIM_001.jpg
2518.099	0.815	1	0back	Block4	0back/STIM_002.jpg
2522.551	0.792	1	0back	Block4	0back/STIM_002.jpg
2525.346	0.643	1	0back	Block4	0back/STIM_002.jpg
2529.08	0.8	1	0back	Block4	0back/STIM_003.jpg
2532.546	0.588	1	0back	Block4	0back/STIM_003.jpg
2535.696	0.71	1	0back	Block4	0back/STIM_003.jpg
2538.663	0.587	1	0back	Block4	0back/STIM_004.jpg
2541.948	0.624	1	0back	Block4	0back/STIM_004.jpg
2545.39	0.535	1	0back	Block4	0back/STIM_004.jpg
2548.854	0.58	1	0back	Block4	0back/STIM_005.jpg
2552.52	0.812	1	0back	Block4	0back/STIM_005.jpg
2556.767	0.572	1	0back	Block4	0back/STIM_005.jpg
2560.769	0.59	1	0back	Block4	0back/STIM_006.jpg
2565.158	0.67	1	0back	Block4	0back/STIM_006.jpg
2568.649	0.731	1	0back	Block4	0back/STIM_006.jpg
2572.102	0.665	1	0back	Block4	0back/STIM_007.jpg
2575.161	0.576	1	0back	Block4	0back/STIM_007.jpg
2578.712	0.791	1	0back	Block4	0back/STIM_007.jpg
2583.448	0.536	1	0back	Block4	0back/STIM_008.jpg
2586.055	0.569	1	0back	Block4	0back/STIM_008.jpg
2590.094	0.77	1	0back	Block4	0back/STIM_008.jpg
2594.231	0.513	1	0back	Block4	0back/STIM_009.jpg
2597.991	0.832	1	0back	Block4	0back/STIM_009.jpg
2601.069	0.565	1	0back	Block4	0back/STIM_009.jpg
2604.045	0.451	1	0back	Block4	0back/STIM_010.jpg
2608.299	0.664	0	0back	Block4	0back/STIM_010.jpg
2611.297	0.442	1	0back	Block4	0back/STIM_010.jpg
2615.511	0.683	1	0back	Block4	0back/STIM_011.jpg
2618.565	0.739	1	0back	Block4	0back/STIM_011.jpg
2622.858	0.776	1	0back	Block4	0back/STIM_011.jpg
2627.137	0.644	1	0back	Block4	0back/STIM_012.jpg
2630.036	0.449	1	0back	Block4	0back/STIM_012.jpg
2632.952	0.574	1	0back	Block4	0back/STIM_012.jpg
2635.651	0.564	1	0back	Block4	0back/STIM_013.jpg
2638.524	0.778	1	0back	Block4	0back/STIM_013.jpg
2642.771	0.603	1	0back	Block4	0back/STIM_013.jpg
2646.429	0.634	1	0back	Block4	0back/STIM_014.jpg
2650.462	0.435	1	0back	Block4	0back/STIM_014.jpg
2654.08	0.608	1	0back	Block4	0back/STIM_014.jpg
2657.832	0.814	1	0back	Block4	0back/STIM_015.jpg
2661.395	0.625	1	0back	Block4	0back/STIM_015.jpg
2664.043	0.765	1	0back	Block4	0back/STIM_015.jpg
2667.998	0.577	1	0back	Block4	0back/STIM_016.jpg
2671.82	0.56	1	0back	Block4	0back/STIM_016.jpg
2675.4	0.509	1	0back	Block4	0back/STIM_016.jpg
2678.976	0.508	1	0back	Block4	0back/STIM_017.jpg
2681.67	0.481	1	0back	Block4	0back/STIM_017.jpg
2685.055	0.691	1	0back	Block4	0back/STIM_017.jpg
2688.966	0.824	1	0back	Block4	0back/STIM_018.jpg
2692.038	0.566	1	0back	Block4	0back/STIM_018.jpg
2695.28	0.822	1	0back	Block4	0back/STIM_018.jpg
2698.237	0.566	0	0back	Block4	0back/STIM_019.jpg
2701.182	0.827	1	0back	Block4	0back/STIM_019.jpg
2704.437	0.695	1	0back	Block4	0back/STIM_019.jpg
