onset	duration	response_time_ms	trial_type	learning_stage	stimulus	response_port
0.0	1.171	1171.3	2back	Block1	2back/STIM_000.jpg	99
4.823	1.336	1335.9	2back	Block1	2back/STIM_000.jpg	99
10.061	0.838	837.5	2back	Block1	2back/STIM_000.jpg	99
13.984	0.705	704.9	2back	Block1	2back/STIM_001.jpg	99
17.602	0.826	826.5	2back	Block1	2back/STIM_001.jpg	99
21.748	1.315	1314.9	2back	Block1	2back/STIM_001.jpg	99
25.265	0.84	840.4	2back	Block1	2back/STIM_002.jpg	99
29.872	1.01	1009.7	2back	Block1	2back/STIM_002.jpg	100
34.698	0.965	964.7	2back	Block1	2back/STIM_002.jpg	99
39.027	0.724	724.0	2back	Block1	2back/STIM_003.jpg	100
42.475	1.277	1277.3	2back	Block1	2back/STIM_003.jpg	100
47.327	0.586	585.7	2back	Block1	2back/STIM_003.jpg	100
50.937	0.961	960.7	2back	Block1	2back/STIM_004.jpg	100
54.6	0.728	727.5	2back	Block1	2back/STIM_004.jpg	99
57.917	1.114	1114.5	2back	Block1	2back/STIM_004.jpg	100
61.56	1.02	1019.5	2back	Block1	2back/STIM_005.jpg	100
64.888	1.125	1124.7	2back	Block1	2back/STIM_005.jpg	100
69.403	1.076	1076.0	2back	Block1	2back/STIM_005.jpg	100
73.42	1.376	1376.3	2back	Block1	2back/STIM_006.jpg	100
78.143	1.305	1304.7	2back	Block1	2back/STIM_006.jpg	99
82.105	0.644	643.9	2back	Block1	2back/STIM_006.jpg	100
84.935	1.44	1439.9	2back	Block1	2back/STIM_007.jpg	99
89.991	0.692	691.6	2back	Block1	2back/STIM_007.jpg	100
92.91	0.96	960.4	2back	Block1	2back/STIM_007.jpg	99
97.593	1.452	1452.1	2back	Block1	2back/STIM_008.jpg	100
101.162	1.022	1022.4	2back	Block1	2back/STIM_008.jpg	99
105.393	0.917	917.0	2back	Block1	2back/STIM_008.jpg	99
108.596	1.342	1342.0	2back	Block1	2back/STIM_009.jpg	100
112.016	1.129	1128.7	2back	Block1	2back/STIM_009.jpg	99
116.136	0.967	966.8	2back	Block1	2back/STIM_009.jpg	99
119.777	0.741	741.0	2back	Block1	2back/STIM_010.jpg	100
123.836	1.105	1104.8	2back	Block1	2back/STIM_010.jpg	99
128.374	0.611	611.2	2back	Block1	2back/STIM_010.jpg	99
132.314	0.636	635.8	2back	Block1	2back/STIM_011.jpg	99
136.337	0.958	958.1	2back	Block1	2back/STIM_011.jpg	99
141.173	0.566	566.5	2back	Block1	2back/STIM_011.jpg	100
145.069	1.076	1076.1	2back	Block1	2back/STIM_012.jpg	99
149.19	0.652	652.0	2back	Block1	2back/STIM_012.jpg	100
153.35	0.595	595.0	2back	Block1	2back/STIM_012.jpg	99
157.559	1.218	1217.8	2back	Block1	2back/STIM_013.jpg	100
160.861	1.005	1005.1	2back	Block1	2back/STIM_013.jpg	99
165.841	0.577	576.6	2back	Block1	2back/STIM_013.jpg	99
170.003	0.87	869.8	2back	Block1	2back/STIM_014.jpg	99
173.789	0.927	926.6	2back	Block1	2back/STIM_014.jpg	100
177.06	0.79	790.4	2back	Block1	2back/STIM_014.jpg	100
180.168	1.354	1353.7	2back	Block1	2back/STIM_015.jpg	100
185.124	1.023	1023.0	2back	Block1	2back/STIM_015.jpg	99
189.802	1.146	1145.8	2back	Block1	2back/STIM_015.jpg	99
194.472	1.292	1291.9	2back	Block1	2back/STIM_016.jpg	99
198.81	0.715	714.6	2back	Block1	2back/STIM_016.jpg	100
202.148	0.974	973.5	2back	Block1	2back/STIM_016.jpg	99
206.76	0.998	997.5	2back	Block1	2back/STIM_017.jpg	99
211.69	0.697	696.8	2back	Block1	2back/STIM_017.jpg	100
214.968	1.024	1023.5	2back	Block1	2back/STIM_017.jpg	100
219.137	1.298	1298.5	2back	Block1	2back/STIM_018.jpg	99
223.305	1.304	1304.2	2back	Block1	2back/STIM_018.jpg	100
226.644	0.95	949.9	2back	Block1	2back/STIM_018.jpg	100
231.492	1.137	1137.2	2back	Block1	2back/STIM_019.jpg	99
236.201	1.122	1121.5	2back	Block1	2back/STIM_019.jpg	100
240.662	0.615	615.2	2back	Block1	2back/STIM_019.jpg	100
243.772	1.395	1395.2	2back	Block1	2back/STIM_020.jpg	100
248.35	1.055	1055.4	2back	Block1	2back/STIM_020.jpg	99
251.9	1.235	1235.2	2back	Block1	2back/STIM_020.jpg	99
256.597	1.308	1308.4	2back	Block1	2back/STIM_021.jpg	100
260.367	0.831	830.6	2back	Block1	2back/STIM_021.jpg	99
264.561	0.854	854.0	2back	Block1	2back/STIM_021.jpg	100
268.352	0.84	839.7	2back	Block1	2back/STIM_022.jpg	100
273.124	1.235	1234.6	2back	Block1	2back/STIM_022.jpg	100
277.062	0.899	898.9	2back	Block1	2back/STIM_022.jpg	99
280.524	1.004	1003.9	2back	Block1	2back/STIM_023.jpg	100
285.279	1.266	1265.7	2back	Block1	2back/STIM_023.jpg	99
290.426	0.865	864.9	2back	Block1	2back/STIM_023.jpg	100
294.101	0.991	991.4	2back	Block1	2back/STIM_024.jpg	99
297.604	0.936	935.9	2back	Block1	2back/STIM_024.jpg	100
300.747	0.62	619.9	2back	Block1	2back/STIM_024.jpg	100
304.219	1.189	1188.8	2back	Block1	2back/STIM_025.jpg	100
307.932	1.286	1285.5	2back	Block1	2back/STIM_025.jpg	99
313.177	1.128	1127.7	2back	Block1	2back/STIM_025.jpg	100
317.576	0.968	968.2	2back	Block1	2back/STIM_026.jpg	100
321.062	0.849	848.7	2back	Block1	2back/STIM_026.jpg	100
325.741	1.288	1288.4	2back	Block1	2back/STIM_026.jpg	100
331.02	1.133	1133.0	2back	Block1	2back/STIM_027.jpg	100
334.256	0.907	906.8	2back	Block1	2back/STIM_027.jpg	99
337.885	0.599	598.9	2back	Block1	2back/STIM_027.jpg	99
341.405	0.85	849.6	2back	Block1	2back/STIM_028.jpg	99
345.327	1.277	1277.1	2back	Block1	2back/STIM_028.jpg	100
348.832	1.063	1063.1	2back	Block1	2back/STIM_028.jpg	99
353.52	1.315	1315.1	2back	Block1	2back/STIM_029.jpg	100
358.139	1.282	1282.3	2back	Block1	2back/STIM_029.jpg	100
362.352	0.804	803.5	2back	Block1	2back/STIM_029.jpg	100
365.405	1.056	1056.2	2back	Block1	2back/STIM_030.jpg	99
369.795	0.83	830.2	2back	Block1	2back/STIM_030.jpg	99
374.201	0.988	987.8	2back	Block1	2back/STIM_030.jpg	99
377.679	1.277	1276.8	2back	Block1	2back/STIM_031.jpg	100
382.745	0.939	939.1	2back	Block1	2back/STIM_031.jpg	99
386.934	1.047	1047.2	2back	Block1	2back/STIM_031.jpg	99
391.241	1.19	1189.8	2back	Block1	2back/STIM_032.jpg	100
395.168	1.179	1178.8	2back	Block1	2back/STIM_032.jpg	99
399.763	0.784	784.0	2back	Block1	2back/STIM_032.jpg	99
404.402	0.953	952.9	2back	Block1	2back/STIM_033.jpg	100
407.784	0.81	809.8	2back	Block1	2back/STIM_033.jpg	100
411.597	0.938	938.4	2back	Block1	2back/STIM_033.jpg	99
416.505	0.713	712.9	2back	Block1	2back/STIM_034.jpg	99
420.288	1.25	1250.4	2back	Block1	2back/STIM_034.jpg	99
424.857	1.036	1036.4	2back	Block1	2back/STIM_034.jpg	99
429.242	0.995	994.9	2back	Block1	2back/STIM_035.jpg	99
433.275	0.793	792.7	2back	Block1	2back/STIM_035.jpg	99
437.926	0.746	746.1	2back	Block1	2back/STIM_035.jpg	99
440.952	1.297	1297.0	2back	Block1	2back/STIM_036.jpg	99
445.411	1.089	1089.1	2back	Block1	2back/STIM_036.jpg	100
448.522	1.249	1248.9	2back	Block1	2back/STIM_036.jpg	99
452.961	1.259	1259.3	2back	Block1	2back/STIM_037.jpg	99
457.472	0.912	911.6	2back	Block1	2back/STIM_037.jpg	99
461.135	0.728	728.5	2back	Block1	2back/STIM_037.jpg	100
464.877	1.077	1076.8	2back	Block1	2back/STIM_038.jpg	100
468.046	0.773	773.3	2back	Block1	2back/STIM_038.jpg	100
471.676	1.066	1066.1	2back	Block1	2back/STIM_038.jpg	99
474.885	1.081	1081.0	2back	Block1	2back/STIM_039.jpg	100
479.393	0.675	675.1	2back	Block1	2back/STIM_039.jpg	100
482.113	1.201	1200.7	2back	Block1	2back/STIM_039.jpg	100
486.678	0.456	455.7	0back	Block1	0back/STIM_000.jpg	100
490.398	0.761	760.9	0back	Block1	0back/STIM_000.jpg	99
493.778	0.777	777.3	0back	Block1	0back/STIM_000.jpg	99
498.178	0.589	588.6	0back	Block1	0back/STIM_001.jpg	99
501.863	0.62	620.5	0back	Block1	0back/STIM_001.jpg	100
505.504	0.645	645.3	0back	Block1	0back/STIM_001.jpg	99
509.085	0.798	797.5	0back	Block1	0back/STIM_002.jpg	99
512.785	0.566	565.7	0back	Block1	0back/STIM_002.jpg	100
517.259	0.626	626.3	0back	Block1	0back/STIM_002.jpg	100
521.52	0.786	785.9	0back	Block1	0back/STIM_003.jpg	99
525.101	0.585	585.4	0back	Block1	0back/STIM_003.jpg	100
529.315	0.602	602.3	0back	Block1	0back/STIM_003.jpg	100
533.741	0.789	789.3	0back	Block1	0back/STIM_004.jpg	99
537.278	0.548	548.2	0back	Block1	0back/STIM_004.jpg	100
540.623	0.552	552.4	0back	Block1	0back/STIM_004.jpg	100
543.996	0.492	491.5	0back	Block1	0back/STIM_005.jpg	99
546.618	0.574	573.9	0back	Block1	0back/STIM_005.jpg	100
550.093	0.424	424.0	0back	Block1	0back/STIM_005.jpg	99
552.589	0.461	461.2	0back	Block1	0back/STIM_006.jpg	100
555.648	0.45	450.1	0back	Block1	0back/STIM_006.jpg	100
559.153	0.607	607.4	0back	Block1	0back/STIM_006.jpg	100
563.11	0.775	775.0	0back	Block1	0back/STIM_007.jpg	99
567.393	0.485	484.9	0back	Block1	0back/STIM_007.jpg	100
571.82	0.503	503.4	0back	Block1	0back/STIM_007.jpg	99
574.579	0.683	683.1	0back	Block1	0back/STIM_008.jpg	99
577.579	0.59	590.3	0back	Block1	0back/STIM_008.jpg	99
581.37	0.481	480.8	0back	Block1	0back/STIM_008.jpg	99
584.775	0.714	714.4	0back	Block1	0back/STIM_009.jpg	99
587.619	0.606	605.8	0back	Block1	0back/STIM_009.jpg	99
591.54	0.542	541.6	0back	Block1	0back/STIM_009.jpg	99
595.473	0.446	446.5	0back	Block1	0back/STIM_010.jpg	99
598.358	0.511	511.5	0back	Block1	0back/STIM_010.jpg	100
602.029	0.582	582.5	0back	Block1	0back/STIM_010.jpg	100
605.55	0.511	511.0	0back	Block1	0back/STIM_011.jpg	100
609.52	0.738	737.5	0back	Block1	0back/STIM_011.jpg	99
612.553	0.801	801.4	0back	Block1	0back/STIM_011.jpg	99
616.609	0.739	738.9	0back	Block1	0back/STIM_012.jpg	100
620.964	0.554	554.5	0back	Block1	0back/STIM_012.jpg	100
623.521	0.691	690.6	0back	Block1	0back/STIM_012.jpg	100
626.658	0.545	545.4	0back	Block1	0back/STIM_013.jpg	100
630.997	0.567	567.0	0back	Block1	0back/STIM_013.jpg	100
635.292	0.466	466.5	0back	Block1	0back/STIM_013.jpg	99
638.563	0.671	671.4	0back	Block1	0back/STIM_014.jpg	100
642.806	0.534	533.5	0back	Block1	0back/STIM_014.jpg	100
645.478	0.631	631.1	0back	Block1	0back/STIM_014.jpg	100
648.21	0.829	829.2	0back	Block1	0back/STIM_015.jpg	100
652.452	0.725	724.6	0back	Block1	0back/STIM_015.jpg	100
655.254	0.602	602.5	0back	Block1	0back/STIM_015.jpg	99
659.239	0.576	575.7	0back	Block1	0back/STIM_016.jpg	99
663.089	0.676	675.6	0back	Block1	0back/STIM_016.jpg	100
667.236	0.45	449.5	0back	Block1	0back/STIM_016.jpg	99
670.757	0.572	571.5	0back	Block1	0back/STIM_017.jpg	99
674.405	0.81	810.4	0back	Block1	0back/STIM_017.jpg	99
677.96	0.817	816.9	0back	Block1	0back/STIM_017.jpg	100
681.618	0.518	517.9	0back	Block1	0back/STIM_018.jpg	99
685.218	0.752	751.8	0back	Block1	0back/STIM_018.jpg	100
688.762	0.43	430.5	0back	Block1	0back/STIM_018.jpg	100
692.338	0.647	646.6	0back	Block1	0back/STIM_019.jpg	99
695.085	0.762	761.6	0back	Block1	0back/STIM_019.jpg	99
699.674	0.577	577.3	0back	Block1	0back/STIM_019.jpg	99
702.681	1.189	1188.8	2back	Block2	2back/STIM_000.jpg	99
707.64	0.883	882.8	2back	Block2	2back/STIM_000.jpg	100
711.792	0.597	596.6	2back	Block2	2back/STIM_000.jpg	100
715.439	1.144	1143.9	2back	Block2	2back/STIM_001.jpg	100
719.852	1.096	1096.1	2back	Block2	2back/STIM_001.jpg	99
723.253	0.729	729.4	2back	Block2	2back/STIM_001.jpg	99
727.967	0.717	716.9	2back	Block2	2back/STIM_002.jpg	100
731.566	1.166	1165.7	2back	Block2	2back/STIM_002.jpg	100
734.963	0.666	665.5	2back	Block2	2back/STIM_002.jpg	99
739.481	1.094	1093.6	2back	Block2	2back/STIM_003.jpg	99
742.642	0.85	849.8	2back	Block2	2back/STIM_003.jpg	99
747.113	0.731	730.6	2back	Block2	2back/STIM_003.jpg	99
751.388	0.991	990.7	2back	Block2	2back/STIM_004.jpg	99
755.876	0.715	715.1	2back	Block2	2back/STIM_004.jpg	100
760.417	0.633	633.0	2back	Block2	2back/STIM_004.jpg	100
763.988	1.084	1083.7	2back	Block2	2back/STIM_005.jpg	99
768.123	1.075	1074.6	2back	Block2	2back/STIM_005.jpg	100
772.177	0.93	930.2	2back	Block2	2back/STIM_005.jpg	99
775.477	1.098	1098.1	2back	Block2	2back/STIM_006.jpg	99
779.423	0.518	518.1	2back	Block2	2back/STIM_006.jpg	99
783.033	0.762	762.0	2back	Block2	2back/STIM_006.jpg	100
786.23	0.886	885.7	2back	Block2	2back/STIM_007.jpg	100
790.588	1.066	1065.7	2back	Block2	2back/STIM_007.jpg	100
794.797	0.784	783.9	2back	Block2	2back/STIM_007.jpg	100
798.821	0.564	563.7	2back	Block2	2back/STIM_008.jpg	100
801.878	0.742	741.5	2back	Block2	2back/STIM_008.jpg	99
805.205	0.732	732.2	2back	Block2	2back/STIM_008.jpg	100
809.524	0.766	765.7	2back	Block2	2back/STIM_009.jpg	99
813.364	0.986	986.1	2back	Block2	2back/STIM_009.jpg	99
817.117	0.77	770.0	2back	Block2	2back/STIM_009.jpg	99
820.469	1.041	1041.1	2back	Block2	2back/STIM_010.jpg	99
825.375	0.751	750.8	2back	Block2	2back/STIM_010.jpg	99
828.242	1.036	1035.9	2back	Block2	2back/STIM_010.jpg	100
832.399	0.823	823.1	2back	Block2	2back/STIM_011.jpg	100
836.472	0.869	868.6	2back	Block2	2back/STIM_011.jpg	100
840.473	1.057	1056.6	2back	Block2	2back/STIM_011.jpg	99
845.041	0.554	554.2	2back	Block2	2back/STIM_012.jpg	100
847.652	0.872	871.8	2back	Block2	2back/STIM_012.jpg	99
851.608	0.618	618.5	2back	Block2	2back/STIM_012.jpg	99
856.194	0.944	944.2	2back	Block2	2back/STIM_013.jpg	100
859.194	0.622	621.8	2back	Block2	2back/STIM_013.jpg	100
863.507	0.942	942.0	2back	Block2	2back/STIM_013.jpg	100
867.328	1.014	1013.6	2back	Block2	2back/STIM_014.jpg	100
871.748	0.528	528.4	2back	Block2	2back/STIM_014.jpg	100
876.152	0.762	761.5	2back	Block2	2back/STIM_014.jpg	100
880.868	0.547	546.6	2back	Block2	2back/STIM_015.jpg	99
884.185	0.536	536.5	2back	Block2	2back/STIM_015.jpg	99
888.52	0.655	654.9	2back	Block2	2back/STIM_015.jpg	99
891.417	0.763	762.9	2back	Block2	2back/STIM_016.jpg	100
895.778	0.605	605.1	2back	Block2	2back/STIM_016.jpg	99
899.405	0.529	529.4	2back	Block2	2back/STIM_016.jpg	100
902.511	1.001	1001.0	2back	Block2	2back/STIM_017.jpg	99
906.942	0.848	848.0	2back	Block2	2back/STIM_017.jpg	99
910.728	0.513	512.6	2back	Block2	2back/STIM_017.jpg	100
915.075	0.951	950.8	2back	Block2	2back/STIM_018.jpg	100
918.174	0.794	794.5	2back	Block2	2back/STIM_018.jpg	99
921.927	0.965	965.3	2back	Block2	2back/STIM_018.jpg	99
926.398	1.217	1217.4	2back	Block2	2back/STIM_019.jpg	100
930.22	0.698	698.1	2back	Block2	2back/STIM_019.jpg	100
934.298	0.662	662.2	2back	Block2	2back/STIM_019.jpg	100
937.909	0.996	995.5	2back	Block2	2back/STIM_020.jpg	100
942.902	1.016	1016.2	2back	Block2	2back/STIM_020.jpg	99
946.62	0.97	969.5	2back	Block2	2back/STIM_020.jpg	99
949.926	0.885	885.1	2back	Block2	2back/STIM_021.jpg	99
954.039	0.535	535.0	2back	Block2	2back/STIM_021.jpg	100
957.475	0.946	946.0	2back	Block2	2back/STIM_021.jpg	99
961.217	0.907	906.7	2back	Block2	2back/STIM_022.jpg	100
964.626	0.707	706.8	2back	Block2	2back/STIM_022.jpg	99
967.675	0.838	838.0	2back	Block2	2back/STIM_022.jpg	100
972.336	1.096	1095.8	2back	Block2	2back/STIM_023.jpg	99
976.146	0.678	678.3	2back	Block2	2back/STIM_023.jpg	99
979.787	0.823	823.0	2back	Block2	2back/STIM_023.jpg	100
983.248	1.002	1001.8	2back	Block2	2back/STIM_024.jpg	99
988.017	0.657	656.7	2back	Block2	2back/STIM_024.jpg	99
992.022	0.745	745.1	2back	Block2	2back/STIM_024.jpg	100
996.632	0.984	984.4	2back	Block2	2back/STIM_025.jpg	99
1000.443	0.941	941.4	2back	Block2	2back/STIM_025.jpg	99
1004.118	0.834	834.3	2back	Block2	2back/STIM_025.jpg	99
1008.036	0.849	849.3	2back	Block2	2back/STIM_026.jpg	100
1011.271	0.854	853.9	2back	Block2	2back/STIM_026.jpg	100
1015.498	0.687	686.9	2back	Block2	2back/STIM_026.jpg	99
1019.68	0.941	941.0	2back	Block2	2back/STIM_027.jpg	99
1022.976	1.141	1140.7	2back	Block2	2back/STIM_027.jpg	100
1027.661	0.593	593.1	2back	Block2	2back/STIM_027.jpg	100
1031.656	1.084	1084.3	2back	Block2	2back/STIM_028.jpg	99
1036.036	0.907	906.8	2back	Block2	2back/STIM_028.jpg	99
1039.089	1.088	1088.3	2back	Block2	2back/STIM_028.jpg	100
1042.746	1.073	1072.9	2back	Block2	2back/STIM_029.jpg	99
1047.423	1.165	1164.8	2back	Block2	2back/STIM_029.jpg	99
1051.74	0.958	958.5	2back	Block2	2back/STIM_029.jpg	100
1056.447	0.777	777.2	2back	Block2	2back/STIM_030.jpg	99
1060.082	0.975	975.1	2back	Block2	2back/STIM_030.jpg	100
1064.878	0.852	851.5	2back	Block2	2back/STIM_030.jpg	100
1068.378	0.693	693.2	2back	Block2	2back/STIM_031.jpg	100
1071.958	1.132	1132.0	2back	Block2	2back/STIM_031.jpg	99
1076.67	1.054	1054.3	2back	Block2	2back/STIM_031.jpg	99
1081.567	0.984	984.0	2back	Block2	2back/STIM_032.jpg	99
1084.583	1.093	1093.3	2back	Block2	2back/STIM_032.jpg	99
1088.051	0.717	717.3	2back	Block2	2back/STIM_032.jpg	100
1091.701	0.974	974.0	2back	Block2	2back/STIM_033.jpg	99
1095.14	0.976	976.1	2back	Block2	2back/STIM_033.jpg	100
1099.647	0.48	480.5	2back	Block2	2back/STIM_033.jpg	99
1102.289	0.9	899.5	2back	Block2	2back/STIM_034.jpg	99
1105.924	0.812	811.9	2back	Block2	2back/STIM_034.jpg	100
1110.326	0.728	728.4	2back	Block2	2back/STIM_034.jpg	100
1113.353	0.819	818.9	2back	Block2	2back/STIM_035.jpg	100
1117.888	0.7	699.8	2back	Block2	2back/STIM_035.jpg	99
1122.585	0.68	680.4	2back	Block2	2back/STIM_035.jpg	100
1126.526	0.897	897.2	2back	Block2	2back/STIM_036.jpg	99
1129.483	1.146	1146.1	2back	Block2	2back/STIM_036.jpg	99
1133.267	0.594	593.9	2back	Block2	2back/STIM_036.jpg	100
1136.035	0.906	905.9	2back	Block2	2back/STIM_037.jpg	99
1139.002	0.581	581.0	2back	Block2	2back/STIM_037.jpg	100
1143.228	0.71	709.9	2back	Block2	2back/STIM_037.jpg	99
1146.504	1.162	1161.7	2back	Block2	2back/STIM_038.jpg	100
1150.499	0.53	530.4	2back	Block2	2back/STIM_038.jpg	99
1154.012	0.885	885.1	2back	Block2	2back/STIM_038.jpg	99
1158.846	0.68	680.4	2back	Block2	2back/STIM_039.jpg	99
1163.287	0.871	871.3	2back	Block2	2back/STIM_039.jpg	100
1167.35	0.874	874.0	2back	Block2	2back/STIM_039.jpg	100
1170.427	0.794	793.7	0back	Block2	0back/STIM_000.jpg	99
1173.567	0.469	468.6	0back	Block2	0back/STIM_000.jpg	100
1176.966	0.575	574.8	0back	Block2	0back/STIM_000.jpg	99
1179.568	0.57	570.2	0back	Block2	0back/STIM_001.jpg	100
1182.672	0.804	803.7	0back	Block2	0back/STIM_001.jpg	100
1187.3	0.8	800.4	0back	Block2	0back/STIM_001.jpg	99
1191.472	0.522	521.5	0back	Block2	0back/STIM_002.jpg	100
1195.861	0.544	543.8	0back	Block2	0back/STIM_002.jpg	100
1199.378	0.59	589.7	0back	Block2	0back/STIM_002.jpg	100
1203.459	0.797	796.7	0back	Block2	0back/STIM_003.jpg	100
1206.829	0.726	725.7	0back	Block2	0back/STIM_003.jpg	100
1210.651	0.486	485.7	0back	Block2	0back/STIM_003.jpg	100
1214.904	0.63	629.9	0back	Block2	0back/STIM_004.jpg	100
1218.375	0.682	682.0	0back	Block2	0back/STIM_004.jpg	99
1221.855	0.439	439.4	0back	Block2	0back/STIM_004.jpg	100
1225.85	0.557	557.0	0back	Block2	0back/STIM_005.jpg	100
1230.149	0.721	720.7	0back	Block2	0back/STIM_005.jpg	99
1234.672	0.519	519.3	0back	Block2	0back/STIM_005.jpg	99
1238.014	0.826	826.4	0back	Block2	0back/STIM_006.jpg	100
1242.117	0.54	540.1	0back	Block2	0back/STIM_006.jpg	99
1244.697	0.566	566.4	0back	Block2	0back/STIM_006.jpg	100
1247.377	0.487	487.4	0back	Block2	0back/STIM_007.jpg	99
1250.271	0.521	521.3	0back	Block2	0back/STIM_007.jpg	99
1253.4	0.651	651.4	0back	Block2	0back/STIM_007.jpg	99
1256.755	0.715	714.6	0back	Block2	0back/STIM_008.jpg	100
1260.985	0.452	452.5	0back	Block2	0back/STIM_008.jpg	99
1264.946	0.802	802.2	0back	Block2	0back/STIM_008.jpg	100
1268.89	0.816	815.8	0back	Block2	0back/STIM_009.jpg	99
1273.541	0.746	746.4	0back	Block2	0back/STIM_009.jpg	99
1277.139	0.563	562.9	0back	Block2	0back/STIM_009.jpg	99
1280.673	0.509	509.3	0back	Block2	0back/STIM_010.jpg	99
1283.788	0.65	650.2	0back	Block2	0back/STIM_010.jpg	100
1288.047	0.454	453.6	0back	Block2	0back/STIM_010.jpg	100
1292.337	0.704	703.7	0back	Block2	0back/STIM_011.jpg	99
1296.963	0.83	829.5	0back	Block2	0back/STIM_011.jpg	100
1300.438	0.509	509.5	0back	Block2	0back/STIM_011.jpg	100
1304.303	0.767	767.1	0back	Block2	0back/STIM_012.jpg	99
1307.461	0.506	506.1	0back	Block2	0back/STIM_012.jpg	100
1310.868	0.652	651.6	0back	Block2	0back/STIM_012.jpg	99
1313.789	0.659	658.6	0back	Block2	0back/STIM_013.jpg	99
1318.231	0.691	690.9	0back	Block2	0back/STIM_013.jpg	99
1322.144	0.544	543.7	0back	Block2	0back/STIM_013.jpg	100
1325.89	0.429	429.4	0back	Block2	0back/STIM_014.jpg	100
1329.772	0.763	762.9	0back	Block2	0back/STIM_014.jpg	100
1334.248	0.811	810.8	0back	Block2	0back/STIM_014.jpg	99
1337.498	0.684	684.5	0back	Block2	0back/STIM_015.jpg	100
1341.734	0.432	432.2	0back	Block2	0back/STIM_015.jpg	100
1346.081	0.505	505.3	0back	Block2	0back/STIM_015.jpg	100
1350.166	0.659	659.4	0back	Block2	0back/STIM_016.jpg	99
1353.637	0.47	469.8	0back	Block2	0back/STIM_016.jpg	99
1357.912	0.77	770.0	0back	Block2	0back/STIM_016.jpg	100
1360.89	0.73	730.1	0back	Block2	0back/STIM_017.jpg	100
1364.251	0.64	640.3	0back	Block2	0back/STIM_017.jpg	100
1368.169	0.808	807.7	0back	Block2	0back/STIM_017.jpg	100
1371.406	0.474	473.7	0back	Block2	0back/STIM_018.jpg	99
1375.522	0.713	713.0	0back	Block2	0back/STIM_018.jpg	99
1379.417	0.42	419.7	0back	Block2	0back/STIM_018.jpg	100
1382.674	0.616	615.8	0back	Block2	0back/STIM_019.jpg	99
1385.68	0.433	433.4	0back	Block2	0back/STIM_019.jpg	99
1389.711	0.433	433.3	0back	Block2	0back/STIM_019.jpg	100
1392.236	0.646	646.4	2back	Block3	2back/STIM_000.jpg	100
1395.196	0.702	701.5	2back	Block3	2back/STIM_000.jpg	100
1398.156	0.976	976.2	2back	Block3	2back/STIM_000.jpg	100
1402.732	0.933	933.3	2back	Block3	2back/STIM_001.jpg	100
1406.633	0.678	677.8	2back	Block3	2back/STIM_001.jpg	100
1411.089	0.813	813.4	2back	Block3	2back/STIM_001.jpg	99
1413.937	0.516	516.0	2back	Block3	2back/STIM_002.jpg	99
1418.079	0.764	764.0	2back	Block3	2back/STIM_002.jpg	100
1421.025	1.003	1003.2	2back	Block3	2back/STIM_002.jpg	100
1425.041	0.993	993.1	2back	Block3	2back/STIM_003.jpg	99
1428.166	0.695	694.8	2back	Block3	2back/STIM_003.jpg	99
1431.539	0.94	940.3	2back	Block3	2back/STIM_003.jpg	99
1435.138	0.552	551.7	2back	Block3	2back/STIM_004.jpg	100
1439.215	0.684	683.5	2back	Block3	2back/STIM_004.jpg	100
1442.06	1.007	1006.7	2back	Block3	2back/STIM_004.jpg	100
1446.737	0.59	590.0	2back	Block3	2back/STIM_005.jpg	99
1450.204	0.578	577.5	2back	Block3	2back/STIM_005.jpg	99
1452.808	0.728	728.5	2back	Block3	2back/STIM_005.jpg	100
1456.052	0.93	930.5	2back	Block3	2back/STIM_006.jpg	99
1460.185	0.636	636.0	2back	Block3	2back/STIM_006.jpg	99
1464.44	0.798	797.8	2back	Block3	2back/STIM_006.jpg	99
1467.92	0.601	601.3	2back	Block3	2back/STIM_007.jpg	100
1471.771	0.452	451.9	2back	Block3	2back/STIM_007.jpg	100
1475.381	0.72	719.5	2back	Block3	2back/STIM_007.jpg	100
1478.663	0.659	658.6	2back	Block3	2back/STIM_008.jpg	100
1481.605	0.502	501.6	2back	Block3	2back/STIM_008.jpg	99
1484.281	0.523	522.6	2back	Block3	2back/STIM_008.jpg	100
1487.992	0.439	439.4	2back	Block3	2back/STIM_009.jpg	99
1491.723	1.002	1002.4	2back	Block3	2back/STIM_009.jpg	100
1496.49	0.477	477.0	2back	Block3	2back/STIM_009.jpg	99
1499.798	0.545	544.9	2back	Block3	2back/STIM_010.jpg	100
1503.143	0.751	751.0	2back	Block3	2back/STIM_010.jpg	99
1507.08	0.798	797.8	2back	Block3	2back/STIM_010.jpg	100
1510.844	0.964	963.7	2back	Block3	2back/STIM_011.jpg	99
1515.28	0.5	500.4	2back	Block3	2back/STIM_011.jpg	99
1517.928	0.834	834.2	2back	Block3	2back/STIM_011.jpg	99
1522.699	0.53	529.5	2back	Block3	2back/STIM_012.jpg	99
1525.83	0.733	732.6	2back	Block3	2back/STIM_012.jpg	100
1528.594	0.74	740.0	2back	Block3	2back/STIM_012.jpg	99
1533.171	0.885	885.1	2back	Block3	2back/STIM_013.jpg	100
1537.545	0.99	989.5	2back	Block3	2back/STIM_013.jpg	100
1541.821	0.694	694.3	2back	Block3	2back/STIM_013.jpg	100
1545.749	0.844	843.9	2back	Block3	2back/STIM_014.jpg	100
1549.636	0.6	599.8	2back	Block3	2back/STIM_014.jpg	100
1553.344	0.668	668.5	2back	Block3	2back/STIM_014.jpg	99
1556.707	0.765	765.0	2back	Block3	2back/STIM_015.jpg	99
1561.151	0.546	546.1	2back	Block3	2back/STIM_015.jpg	99
1564.099	0.775	775.1	2back	Block3	2back/STIM_015.jpg	100
1567.567	0.781	781.2	2back	Block3	2back/STIM_016.jpg	99
1571.712	0.977	977.3	2back	Block3	2back/STIM_016.jpg	99
1576.046	0.855	854.6	2back	Block3	2back/STIM_016.jpg	100
1580.603	0.835	834.7	2back	Block3	2back/STIM_017.jpg	100
1584.841	0.633	633.4	2back	Block3	2back/STIM_017.jpg	100
1589.154	0.915	914.8	2back	Block3	2back/STIM_017.jpg	100
1592.834	0.541	541.4	2back	Block3	2back/STIM_018.jpg	99
1595.926	0.557	557.1	2back	Block3	2back/STIM_018.jpg	99
1598.595	0.533	533.4	2back	Block3	2back/STIM_018.jpg	99
1602.564	0.731	731.0	2back	Block3	2back/STIM_019.jpg	99
1605.82	0.974	974.0	2back	Block3	2back/STIM_019.jpg	100
1609.546	0.528	528.5	2back	Block3	2back/STIM_019.jpg	100
1612.572	0.593	593.2	2back	Block3	2back/STIM_020.jpg	100
1616.393	1.006	1005.5	2back	Block3	2back/STIM_020.jpg	100
1619.972	0.464	463.7	2back	Block3	2back/STIM_020.jpg	100
1622.728	0.673	673.3	2back	Block3	2back/STIM_021.jpg	99
1626.729	0.66	660.1	2back	Block3	2back/STIM_021.jpg	100
1631.014	0.895	894.8	2back	Block3	2back/STIM_021.jpg	100
1634.076	0.989	989.2	2back	Block3	2back/STIM_022.jpg	100
1637.156	0.861	861.0	2back	Block3	2back/STIM_022.jpg	99
1640.844	0.705	704.8	2back	Block3	2back/STIM_022.jpg	99
1644.924	0.915	914.7	2back	Block3	2back/STIM_023.jpg	100
1648.673	0.553	552.6	2back	Block3	2back/STIM_023.jpg	100
1652.079	0.656	655.7	2back	Block3	2back/STIM_023.jpg	100
1656.19	0.51	510.3	2back	Block3	2back/STIM_024.jpg	100
1659.079	0.525	524.6	2back	Block3	2back/STIM_024.jpg	100
1663.348	0.547	546.7	2back	Block3	2back/STIM_024.jpg	100
1667.049	0.754	754.4	2back	Block3	2back/STIM_025.jpg	99
1670.501	0.999	998.6	2back	Block3	2back/STIM_025.jpg	100
1675.288	0.866	866.5	2back	Block3	2back/STIM_025.jpg	100
1678.219	0.983	983.1	2back	Block3	2back/STIM_026.jpg	99
1681.839	0.662	662.3	2back	Block3	2back/STIM_026.jpg	100
1685.98	0.568	568.5	2back	Block3	2back/STIM_026.jpg	99
1689.743	0.698	698.0	2back	Block3	2back/STIM_027.jpg	99
1693.218	0.988	988.0	2back	Block3	2back/STIM_027.jpg	99
1697.028	0.645	645.4	2back	Block3	2back/STIM_027.jpg	99
1700.749	0.631	630.9	2back	Block3	2back/STIM_028.jpg	99
1703.445	0.487	486.9	2back	Block3	2back/STIM_028.jpg	99
1707.577	0.925	924.6	2back	Block3	2back/STIM_028.jpg	99
1712.066	0.96	959.7	2back	Block3	2back/STIM_029.jpg	99
1716.368	0.93	930.2	2back	Block3	2back/STIM_029.jpg	100
1721.058	0.495	495.4	2back	Block3	2back/STIM_029.jpg	99
1724.034	0.725	724.6	2back	Block3	2back/STIM_030.jpg	99
1727.477	0.721	721.3	2back	Block3	2back/STIM_030.jpg	100
1731.241	0.95	950.3	2back	Block3	2back/STIM_030.jpg	100
1735.505	0.716	716.0	2back	Block3	2back/STIM_031.jpg	99
1738.396	0.988	988.5	2back	Block3	2back/STIM_031.jpg	99
1742.765	0.555	555.2	2back	Block3	2back/STIM_031.jpg	99
1747.238	0.938	938.3	2back	Block3	2back/STIM_032.jpg	99
1751.771	0.622	622.2	2back	Block3	2back/STIM_032.jpg	100
1755.181	0.835	834.7	2back	Block3	2back/STIM_032.jpg	99
1759.783	0.456	456.4	2back	Block3	2back/STIM_033.jpg	100
1763.163	0.997	997.4	2back	Block3	2back/STIM_033.jpg	99
1766.301	0.919	919.0	2back	Block3	2back/STIM_033.jpg	100
1769.7	0.532	531.8	2back	Block3	2back/STIM_034.jpg	100
1773.208	0.503	503.3	2back	Block3	2back/STIM_034.jpg	100
1777.655	0.68	679.9	2back	Block3	2back/STIM_034.jpg	100
1780.42	0.625	624.7	2back	Block3	2back/STIM_035.jpg	99
1785.033	0.635	634.7	2back	Block3	2back/STIM_035.jpg	99
1789.037	0.834	834.2	2back	Block3	2back/STIM_035.jpg	99
1793.596	0.67	669.9	2back	Block3	2back/STIM_036.jpg	99
1797.365	0.887	886.8	2back	Block3	2back/STIM_036.jpg	100
1800.328	0.974	974.4	2back	Block3	2back/STIM_036.jpg	99
1805.301	0.703	702.7	2back	Block3	2back/STIM_037.jpg	100
1809.065	0.471	471.4	2back	Block3	2back/STIM_037.jpg	100
1811.854	0.878	877.7	2back	Block3	2back/STIM_037.jpg	99
1815.327	0.918	918.2	2back	Block3	2back/STIM_038.jpg	99
1820.004	0.804	803.7	2back	Block3	2back/STIM_038.jpg	100
1823.302	0.915	915.4	2back	Block3	2back/STIM_038.jpg	99
1827.737	0.777	776.6	2back	Block3	2back/STIM_039.jpg	99
1830.598	0.982	981.6	2back	Block3	2back/STIM_039.jpg	100
1833.906	0.678	677.8	2back	Block3	2back/STIM_039.jpg	100
1836.681	0.6	600.0	0back	Block3	0back/STIM_000.jpg	100
1839.76	0.766	765.7	0back	Block3	0back/STIM_000.jpg	100
1843.277	0.83	830.0	0back	Block3	0back/STIM_000.jpg	100
1846.402	0.827	827.4	0back	Block3	0back/STIM_001.jpg	99
1851.065	0.698	698.5	0back	Block3	0back/STIM_001.jpg	100
1853.827	0.5	499.9	0back	Block3	0back/STIM_001.jpg	100
1856.364	0.596	595.8	0back	Block3	0back/STIM_002.jpg	99
1859.466	0.751	751.1	0back	Block3	0back/STIM_002.jpg	99
1862.842	0.66	660.5	0back	Block3	0back/STIM_002.jpg	100
1867.2	0.709	708.9	0back	Block3	0back/STIM_003.jpg	100
1870.832	0.606	605.8	0back	Block3	0back/STIM_003.jpg	99
1873.784	0.796	795.6	0back	Block3	0back/STIM_003.jpg	100
1877.406	0.587	587.0	0back	Block3	0back/STIM_004.jpg	99
1880.53	0.73	730.5	0back	Block3	0back/STIM_004.jpg	100
1884.212	0.684	684.3	0back	Block3	0back/STIM_004.jpg	100
1888.268	0.472	471.6	0back	Block3	0back/STIM_005.jpg	99
1891.495	0.539	538.8	0back	Block3	0back/STIM_005.jpg	100
1894.546	0.603	603.3	0back	Block3	0back/STIM_005.jpg	100
1899.037	0.822	822.2	0back	Block3	0back/STIM_006.jpg	99
1903.551	0.605	605.4	0back	Block3	0back/STIM_006.jpg	100
1908.01	0.438	438.3	0back	Block3	0back/STIM_006.jpg	100
1911.251	0.607	606.7	0back	Block3	0back/STIM_007.jpg	99
1915.105	0.604	603.7	0back	Block3	0back/STIM_007.jpg	99
1919.03	0.445	445.1	0back	Block3	0back/STIM_007.jpg	100
1922.455	0.57	569.9	0back	Block3	0back/STIM_008.jpg	100
1926.829	0.48	479.9	0back	Block3	0back/STIM_008.jpg	100
1930.472	0.574	573.9	0back	Block3	0back/STIM_008.jpg	99
1933.148	0.655	654.9	0back	Block3	0back/STIM_009.jpg	99
1935.955	0.808	808.1	0back	Block3	0back/STIM_009.jpg	100
1940.153	0.631	631.3	0back	Block3	0back/STIM_009.jpg	99
1943.037	0.511	511.4	0back	Block3	0back/STIM_010.jpg	99
1947.003	0.577	576.9	0back	Block3	0back/STIM_010.jpg	100
1950.478	0.76	759.6	0back	Block3	0back/STIM_010.jpg	100
1954.825	0.756	756.4	0back	Block3	0back/STIM_011.jpg	99
1958.014	0.596	596.3	0back	Block3	0back/STIM_011.jpg	100
1961.521	0.76	759.7	0back	Block3	0back/STIM_011.jpg	100
1965.143	0.54	539.9	0back	Block3	0back/STIM_012.jpg	99
1968.485	0.581	581.4	0back	Block3	0back/STIM_012.jpg	99
1971.084	0.728	728.2	0back	Block3	0back/STIM_012.jpg	100
1975.123	0.796	796.2	0back	Block3	0back/STIM_013.jpg	100
1977.989	0.669	669.4	0back	Block3	0back/STIM_013.jpg	99
1980.777	0.804	803.9	0back	Block3	0back/STIM_013.jpg	99
1984.279	0.76	760.0	0back	Block3	0back/STIM_014.jpg	100
1987.077	0.74	740.0	0back	Block3	0back/STIM_014.jpg	99
1991.07	0.498	497.7	0back	Block3	0back/STIM_014.jpg	100
1995.535	0.612	612.3	0back	Block3	0back/STIM_015.jpg	100
2000.087	0.498	497.7	0back	Block3	0back/STIM_015.jpg	100
2003.666	0.751	751.2	0back	Block3	0back/STIM_015.jpg	100
2007.606	0.469	469.1	0back	Block3	0back/STIM_016.jpg	100
2011.655	0.754	754.3	0back	Block3	0back/STIM_016.jpg	100
2014.471	0.453	453.1	0back	Block3	0back/STIM_016.jpg	100
2018.291	0.825	825.4	0back	Block3	0back/STIM_017.jpg	100
2021.778	0.774	774.0	0back	Block3	0back/STIM_017.jpg	100
2024.696	0.82	820.5	0back	Block3	0back/STIM_017.jpg	99
2027.859	0.803	803.0	0back	Block3	0back/STIM_018.jpg	100
2032.486	0.479	478.7	0back	Block3	0back/STIM_018.jpg	99
2035.239	0.633	632.6	0back	Block3	0back/STIM_018.jpg	99
2038.396	0.695	695.4	0back	Block3	0back/STIM_019.jpg	100
2041.96	0.686	685.9	0back	Block3	0back/STIM_019.jpg	100
2045.763	0.564	563.8	0back	Block3	0back/STIM_019.jpg	99
2048.628	0.699	699.3	2back	Block4	2back/STIM_000.jpg	99
2051.779	0.982	982.2	2back	Block4	2back/STIM_000.jpg	100
2055.857	0.983	983.2	2back	Block4	2back/STIM_000.jpg	99
2058.94	1.021	1020.7	2back	Block4	2back/STIM_001.jpg	100
2063.758	0.487	487.2	2back	Block4	2back/STIM_001.jpg	99
2068.043	0.669	669.2	2back	Block4	2back/STIM_001.jpg	99
2071.208	0.909	909.1	2back	Block4	2back/STIM_002.jpg	99
2076.046	0.488	487.6	2back	Block4	2back/STIM_002.jpg	99
2079.13	0.616	616.4	2back	Block4	2back/STIM_002.jpg	99
2082.357	0.583	583.3	2back	Block4	2back/STIM_003.jpg	99
2086.667	0.532	531.9	2back	Block4	2back/STIM_003.jpg	100
2089.558	0.701	701.1	2back	Block4	2back/STIM_003.jpg	100
2093.434	0.669	669.1	2back	Block4	2back/STIM_004.jpg	100
2097.331	0.684	684.5	2back	Block4	2back/STIM_004.jpg	100
2100.994	0.662	662.1	2back	Block4	2back/STIM_004.jpg	100
2104.525	0.866	866.0	2back	Block4	2back/STIM_005.jpg	99
2108.187	1.009	1008.6	2back	Block4	2back/STIM_005.jpg	99
2111.334	0.494	494.5	2back	Block4	2back/STIM_005.jpg	99
2114.897	1.009	1008.8	2back	Block4	2back/STIM_006.jpg	99
2119.364	0.878	877.7	2back	Block4	2back/STIM_006.jpg	100
2122.306	0.73	730.4	2back	Block4	2back/STIM_006.jpg	99
2126.067	0.532	532.5	2back	Block4	2back/STIM_007.jpg	99
2130.072	0.678	678.2	2back	Block4	2back/STIM_007.jpg	99
2133.966	1.003	1002.7	2back	Block4	2back/STIM_007.jpg	100
2138.763	0.944	943.7	2back	Block4	2back/STIM_008.jpg	99
2143.673	0.454	454.3	2back	Block4	2back/STIM_008.jpg	100
2147.978	0.83	829.7	2back	Block4	2back/STIM_008.jpg	100
2151.655	0.654	654.3	2back	Block4	2back/STIM_009.jpg	99
2156.079	0.554	553.8	2back	Block4	2back/STIM_009.jpg	99
2159.736	0.587	587.0	2back	Block4	2back/STIM_009.jpg	99
2163.004	0.707	707.4	2back	Block4	2back/STIM_010.jpg	99
2165.954	1.009	1008.6	2back	Block4	2back/STIM_010.jpg	100
2169.829	0.539	538.9	2back	Block4	2back/STIM_010.jpg	99
2173.289	0.532	532.0	2back	Block4	2back/STIM_011.jpg	99
2177.241	0.781	780.7	2back	Block4	2back/STIM_011.jpg	100
2181.657	0.867	867.2	2back	Block4	2back/STIM_011.jpg	100
2184.589	0.498	497.5	2back	Block4	2back/STIM_012.jpg	100
2187.405	0.992	992.2	2back	Block4	2back/STIM_012.jpg	100
2191.271	0.525	524.6	2back	Block4	2back/STIM_012.jpg	100
2193.943	0.656	655.7	2back	Block4	2back/STIM_013.jpg	100
2197.669	0.59	589.8	2back	Block4	2back/STIM_013.jpg	100
2201.215	0.751	751.3	2back	Block4	2back/STIM_013.jpg	100
2205.653	0.932	931.7	2back	Block4	2back/STIM_014.jpg	100
2209.305	0.536	536.2	2back	Block4	2back/STIM_014.jpg	100
2211.987	0.688	688.4	2back	Block4	2back/STIM_014.jpg	100
2214.725	0.927	927.2	2back	Block4	2back/STIM_015.jpg	100
2218.576	1.003	1002.9	2back	Block4	2back/STIM_015.jpg	99
2222.396	0.641	641.2	2back	Block4	2back/STIM_015.jpg	100
2226.392	0.625	625.1	2back	Block4	2back/STIM_016.jpg	99
2229.389	0.669	668.6	2back	Block4	2back/STIM_016.jpg	100
2233.708	0.729	729.4	2back	Block4	2back/STIM_016.jpg	99
2236.775	0.993	993.4	2back	Block4	2back/STIM_017.jpg	100
2240.828	0.87	869.9	2back	Block4	2back/STIM_017.jpg	99
2244.108	0.926	926.0	2back	Block4	2back/STIM_017.jpg	100
2247.902	0.446	445.7	2back	Block4	2back/STIM_018.jpg	100
2252.311	1.004	1004.5	2back	Block4	2back/STIM_018.jpg	99
2255.78	0.621	620.8	2back	Block4	2back/STIM_018.jpg	99
2258.578	0.808	807.7	2back	Block4	2back/STIM_019.jpg	99
2262.63	0.892	892.2	2back	Block4	2back/STIM_019.jpg	100
2266.924	0.702	701.7	2back	Block4	2back/STIM_019.jpg	100
2270.914	0.447	447.2	2back	Block4	2back/STIM_020.jpg	99
2273.691	0.71	710.5	2back	Block4	2back/STIM_020.jpg	100
2278.267	0.815	815.2	2back	Block4	2back/STIM_020.jpg	100
2282.589	0.815	815.1	2back	Block4	2back/STIM_021.jpg	99
2285.66	0.95	950.4	2back	Block4	2back/STIM_021.jpg	99
2288.929	0.751	750.6	2back	Block4	2back/STIM_021.jpg	99
2292.023	0.654	653.6	2back	Block4	2back/STIM_022.jpg	100
2296.266	0.524	524.2	2back	Block4	2back/STIM_022.jpg	99
2299.874	0.774	774.5	2back	Block4	2back/STIM_022.jpg	99
2304.435	0.686	686.1	2back	Block4	2back/STIM_023.jpg	99
2307.622	0.728	728.2	2back	Block4	2back/STIM_023.jpg	100
2310.95	0.615	614.9	2back	Block4	2back/STIM_023.jpg	100
2315.197	0.986	986.4	2back	Block4	2back/STIM_024.jpg	100
2318.998	0.747	747.2	2back	Block4	2back/STIM_024.jpg	99
2321.955	0.612	611.9	2back	Block4	2back/STIM_024.jpg	100
2324.905	0.498	497.8	2back	Block4	2back/STIM_025.jpg	99
2329.173	0.608	608.4	2back	Block4	2back/STIM_025.jpg	99
2332.987	0.826	825.8	2back	Block4	2back/STIM_025.jpg	99
2336.894	0.556	556.1	2back	Block4	2back/STIM_026.jpg	100
2340.633	0.526	526.4	2back	Block4	2back/STIM_026.jpg	100
2343.97	0.499	499.1	2back	Block4	2back/STIM_026.jpg	99
2347.384	0.614	613.6	2back	Block4	2back/STIM_027.jpg	100
2351.002	0.764	763.6	2back	Block4	2back/STIM_027.jpg	100
2355.489	0.64	640.3	2back	Block4	2back/STIM_027.jpg	100
2358.276	0.925	924.7	2back	Block4	2back/STIM_028.jpg	99
2363.156	0.728	728.1	2back	Block4	2back/STIM_028.jpg	100
2366.088	0.725	724.8	2back	Block4	2back/STIM_028.jpg	100
2370.333	0.991	990.7	2back	Block4	2back/STIM_029.jpg	100
2375.093	0.807	806.6	2back	Block4	2back/STIM_029.jpg	100
2379.802	0.912	912.3	2back	Block4	2back/STIM_029.jpg	99
2383.188	0.599	599.0	2back	Block4	2back/STIM_030.jpg	100
2387.563	0.732	732.5	2back	Block4	2back/STIM_030.jpg	99
2392.267	1.007	1006.7	2back	Block4	2back/STIM_030.jpg	100
2395.961	0.558	557.9	2back	Block4	2back/STIM_031.jpg	99
2398.988	0.681	680.8	2back	Block4	2back/STIM_031.jpg	100
2403.591	0.618	617.5	2back	Block4	2back/STIM_031.jpg	99
2407.802	0.644	644.4	2back	Block4	2back/STIM_032.jpg	100
2411.703	0.865	865.2	2back	Block4	2back/STIM_032.jpg	100
2415.083	0.781	780.7	2back	Block4	2back/STIM_032.jpg	100
2417.993	0.536	535.5	2back	Block4	2back/STIM_033.jpg	100
2422.147	0.672	671.6	2back	Block4	2back/STIM_033.jpg	99
2426.25	0.925	924.9	2back	Block4	2back/STIM_033.jpg	99
2429.904	1.005	1005.3	2back	Block4	2back/STIM_034.jpg	100
2433.585	0.71	710.5	2back	Block4	2back/STIM_034.jpg	100
2437.118	0.92	920.5	2back	Block4	2back/STIM_034.jpg	99
2440.062	0.522	521.6	2back	Block4	2back/STIM_035.jpg	99
2444.077	0.567	566.7	2back	Block4	2back/STIM_035.jpg	99
2447.227	0.498	498.1	2back	Block4	2back/STIM_035.jpg	99
2450.805	0.978	978.3	2back	Block4	2back/STIM_036.jpg	99
2455.036	0.558	557.5	2back	Block4	2back/STIM_036.jpg	100
2459.4	0.48	479.9	2back	Block4	2back/STIM_036.jpg	100
2462.979	0.541	541.0	2back	Block4	2back/STIM_037.jpg	99
2467.343	0.988	987.8	2back	Block4	2back/STIM_037.jpg	99
2471.729	0.551	551.4	2back	Block4	2back/STIM_037.jpg	100
2474.468	0.834	834.5	2back	Block4	2back/STIM_038.jpg	100
2478.513	0.605	604.9	2back	Block4	2back/STIM_038.jpg	100
2483.078	0.607	606.9	2back	Block4	2back/STIM_038.jpg	100
2486.232	0.847	846.9	2back	Block4	2back/STIM_039.jpg	100
2490.051	0.646	646.3	2back	Block4	2back/STIM_039.jpg	99
2493.547	0.808	808.0	2back	Block4	2back/STIM_039.jpg	99
2496.528	0.555	555.4	0back	Block4	0back/STIM_000.jpg	100
2501.03	0.74	740.3	0back	Block4	0back/STIM_000.jpg	100
2504.618	0.452	452.4	0back	Block4	0back/STIM_000.jpg	99
2508.28	0.588	587.8	0back	Block4	0back/STIM_001.jpg	100
2511.601	0.796	795.6	0back	Block4	0back/STIM_001.jpg	100
2515.361	0.519	519.0	0back	Block4	0back/STIM_001.jpg	99
2518.099	0.815	815.2	0back	Block4	0back/STIM_002.jpg	100
2522.551	0.792	791.6	0back	Block4	0back/STIM_002.jpg	100
2525.346	0.643	642.9	0back	Block4	0back/STIM_002.jpg	100
2529.08	0.8	800.3	0back	Block4	0back/STIM_003.jpg	100
2532.546	0.588	587.5	0back	Block4	0back/STIM_003.jpg	99
2535.696	0.71	709.6	0back	Block4	0back/STIM_003.jpg	100
2538.663	0.587	586.7	0back	Block4	0back/STIM_004.jpg	100
2541.948	0.624	624.5	0back	Block4	0back/STIM_004.jpg	99
2545.39	0.535	534.8	0back	Block4	0back/STIM_004.jpg	99
2548.854	0.58	579.5	0back	Block4	0back/STIM_005.jpg	99
2552.52	0.812	812.5	0back	Block4	0back/STIM_005.jpg	100
2556.767	0.572	571.5	0back	Block4	0back/STIM_005.jpg	99
2560.769	0.59	590.3	0back	Block4	0back/STIM_006.jpg	99
2565.158	0.67	669.8	0back	Block4	0back/STIM_006.jpg	100
2568.649	0.731	731.3	0back	Block4	0back/STIM_006.jpg	100
2572.102	0.665	665.1	0back	Block4	0back/STIM_007.jpg	99
2575.161	0.576	576.5	0back	Block4	0back/STIM_007.jpg	100
2578.712	0.791	790.9	0back	Block4	0back/STIM_007.jpg	99
2583.448	0.536	535.7	0back	Block4	0back/STIM_008.jpg	100
2586.055	0.569	568.6	0back	Block4	0back/STIM_008.jpg	100
2590.094	0.77	769.7	0back	Block4	0back/STIM_008.jpg	99
2594.231	0.513	512.8	0back	Block4	0back/STIM_009.jpg	100
2597.991	0.832	831.5	0back	Block4	0back/STIM_009.jpg	99
2601.069	0.565	564.9	0back	Block4	0back/STIM_009.jpg	99
2604.045	0.451	451.2	0back	Block4	0back/STIM_010.jpg	100
2608.299	0.664	663.9	0back	Block4	0back/STIM_010.jpg	100
2611.297	0.442	442.4	0back	Block4	0back/STIM_010.jpg	100
2615.511	0.683	683.2	0back	Block4	0back/STIM_011.jpg	99
2618.565	0.739	738.6	0back	Block4	0back/STIM_011.jpg	100
2622.858	0.776	775.9	0back	Block4	0back/STIM_011.jpg	99
2627.137	0.644	644.1	0back	Block4	0back/STIM_012.jpg	100
2630.036	0.449	448.7	0back	Block4	0back/STIM_012.jpg	99
2632.952	0.574	574.2	0back	Block4	0back/STIM_012.jpg	99
2635.651	0.564	564.2	0back	Block4	0back/STIM_013.jpg	100
2638.524	0.778	778.0	0back	Block4	0back/STIM_013.jpg	99
2642.771	0.603	603.1	0back	Block4	0back/STIM_013.jpg	100
2646.429	0.634	634.1	0back	Block4	0back/STIM_014.jpg	99
2650.462	0.435	435.2	0back	Block4	0back/STIM_014.jpg	100
2654.08	0.608	607.5	0back	Block4	0back/STIM_014.jpg	100
2657.832	0.814	814.2	0back	Block4	0back/STIM_015.jpg	100
2661.395	0.625	625.0	0back	Block4	0back/STIM_015.jpg	100
2664.043	0.765	765.4	0back	Block4	0back/STIM_015.jpg	99
2667.998	0.577	577.2	0back	Block4	0back/STIM_016.jpg	99
2671.82	0.56	559.5	0back	Block4	0back/STIM_016.jpg	100
2675.4	0.509	508.6	0back	Block4	0back/STIM_016.jpg	100
2678.976	0.508	508.5	0back	Block4	0back/STIM_017.jpg	100
2681.67	0.481	481.0	0back	Block4	0back/STIM_017.jpg	99
2685.055	0.691	691.4	0back	Block4	0back/STIM_017.jpg	99
2688.966	0.824	823.5	0back	Block4	0back/STIM_018.jpg	99
2692.038	0.566	566.0	0back	Block4	0back/STIM_018.jpg	99
2695.28	0.822	822.0	0back	Block4	0back/STIM_018.jpg	99
2698.237	0.566	566.0	0back	Block4	0back/STIM_019.jpg	99
2701.182	0.827	826.8	0back	Block4	0back/STIM_019.jpg	100
2704.437	0.695	694.6	0back	Block4	0back/STIM_019.jpg	99
