onset	duration	accuracy	trial_type	learning_stage	stimulus
0.0	1.738	correct	generate	Run1	generate/STIM_000.jpg
4.75	1.834	correct	generate	Run1	generate/STIM_000.jpg
10.193	2.103	incorrect	generate	Run1	generate/STIM_000.jpg
15.446	2.009	correct	generate	Run1	generate/STIM_000.jpg
20.534	1.257	incorrect	generate	Run1	generate/STIM_000.jpg
24.164	2.198	correct	generate	Run1	generate/STIM_001.jpg
29.996	1.578	correct	generate	Run1	generate/STIM_001.jpg
34.839	1.714	correct	generate	Run1	generate/STIM_001.jpg
39.655	1.298	correct	generate	Run1	generate/STIM_001.jpg
43.695	1.716	correct	generate	Run1	generate/STIM_001.jpg
49.042	1.96	incorrect	generate	Run1	generate/STIM_002.jpg
54.374	1.068	incorrect	generate	Run1	generate/STIM_002.jpg
57.913	2.39	correct	generate	Run1	generate/STIM_002.jpg
63.476	1.592	correct	generate	Run1	generate/STIM_002.jpg
68.543	1.518	correct	generate	Run1	generate/STIM_002.jpg
72.405	1.674	correct	generate	Run1	generate/STIM_003.jpg
76.57	1.516	correct	generate	Run1	generate/STIM_003.jpg
80.545	1.101	correct	generate	Run1	generate/STIM_003.jpg
84.152	1.375	correct	generate	Run1	generate/STIM_003.jpg
88.333	1.703	correct	generate	Run1	generate/STIM_003.jpg
93.365	1.872	incorrect	generate	Run1	generate/STIM_004.jpg
98.89	1.322	correct	generate	Run1	generate/STIM_004.jpg
102.632	0.98	correct	generate	Run1	generate/STIM_004.jpg
107.765	1.266	correct	generate	Run1	generate/STIM_004.jpg
112.147	2.132	correct	generate	Run1	generate/STIM_004.jpg
117.753	1.293	incorrect	generate	Run1	generate/STIM_005.jpg
122.454	2.328	incorrect	generate	Run1	generate/STIM_005.jpg
127.463	1.282	incorrect	generate	Run1	generate/STIM_005.jpg
132.034	1.854	correct	generate	Run1	generate/STIM_005.jpg
137.732	1.094	incorrect	generate	Run1	generate/STIM_005.jpg
141.915	1.927	incorrect	generate	Run1	generate/STIM_006.jpg
147.549	2.121	incorrect	generate	Run1	generate/STIM_006.jpg
152.861	2.144	correct	generate	Run1	generate/STIM_006.jpg
157.835	1.115	correct	generate	Run1	generate/STIM_006.jpg
161.844	2.098	incorrect	generate	Run1	generate/STIM_006.jpg
166.261	1.757	incorrect	generate	Run1	generate/STIM_007.jpg
171.748	1.31	correct	generate	Run1	generate/STIM_007.jpg
175.616	1.954	correct	generate	Run1	generate/STIM_007.jpg
180.821	1.053	correct	generate	Run1	generate/STIM_007.jpg
184.381	1.235	correct	generate	Run1	generate/STIM_007.jpg
189.26	2.442	correct	generate	Run1	generate/STIM_008.jpg
194.648	1.522	incorrect	generate	Run1	generate/STIM_008.jpg
199.88	2.101	correct	generate	Run1	generate/STIM_008.jpg
204.724	1.79	correct	generate	Run1	generate/STIM_008.jpg
210.401	0.948	correct	generate	Run1	generate/STIM_008.jpg
214.86	2.498	correct	generate	Run1	generate/STIM_009.jpg
220.959	1.878	incorrect	generate	Run1	generate/STIM_009.jpg
226.985	1.055	incorrect	generate	Run1	generate/STIM_009.jpg
230.119	1.328	correct	generate	Run1	generate/STIM_009.jpg
233.572	1.518	incorrect	generate	Run1	generate/STIM_009.jpg
237.723	1.218	incorrect	generate	Run1	generate/STIM_010.jpg
241.681	1.778	correct	generate	Run1	generate/STIM_010.jpg
246.7	1.926	correct	generate	Run1	generate/STIM_010.jpg
252.359	1.306	correct	generate	Run1	generate/STIM_010.jpg
257.092	2.094	incorrect	generate	Run1	generate/STIM_010.jpg
262.542	2.505	correct	generate	Run1	generate/STIM_011.jpg
268.015	1.327	incorrect	generate	Run1	generate/STIM_011.jpg
272.452	2.19	correct	generate	Run1	generate/STIM_011.jpg
278.481	1.009	incorrect	generate	Run1	generate/STIM_011.jpg
282.65	0.972	incorrect	generate	Run1	generate/STIM_011.jpg
287.488	2.422	correct	generate	Run1	generate/STIM_012.jpg
292.688	1.271	incorrect	generate	Run1	generate/STIM_012.jpg
297.486	1.023	correct	generate	Run1	generate/STIM_012.jpg
301.783	1.273	incorrect	generate	Run1	generate/STIM_012.jpg
306.092	1.712	correct	generate	Run1	generate/STIM_012.jpg
310.562	2.439	correct	generate	Run1	generate/STIM_013.jpg
315.646	2.182	correct	generate	Run1	generate/STIM_013.jpg
321.766	1.178	correct	generate	Run1	generate/STIM_013.jpg
326.676	1.456	correct	generate	Run1	generate/STIM_013.jpg
331.789	0.788	correct	generate	Run1	generate/STIM_013.jpg
334.984	1.487	correct	generate	Run1	generate/STIM_014.jpg
339.203	1.416	incorrect	generate	Run1	generate/STIM_014.jpg
343.053	1.476	incorrect	generate	Run1	generate/STIM_014.jpg
347.157	1.273	incorrect	generate	Run1	generate/STIM_014.jpg
351.303	1.102	incorrect	generate	Run1	generate/STIM_014.jpg
355.344	2.217	correct	generate	Run1	generate/STIM_015.jpg
361.7	1.465	incorrect	generate	Run1	generate/STIM_015.jpg
366.794	1.578	correct	generate	Run1	generate/STIM_015.jpg
372.338	1.578	correct	generate	Run1	generate/STIM_015.jpg
376.161	1.18	correct	generate	Run1	generate/STIM_015.jpg
381.386	1.537	correct	generate	Run1	generate/STIM_016.jpg
386.576	2.239	correct	generate	Run1	generate/STIM_016.jpg
392.713	1.905	correct	generate	Run1	generate/STIM_016.jpg
396.925	1.522	correct	generate	Run1	generate/STIM_016.jpg
402.568	1.372	correct	generate	Run1	generate/STIM_016.jpg
406.171	1.776	incorrect	generate	Run1	generate/STIM_017.jpg
411.903	1.849	correct	generate	Run1	generate/STIM_017.jpg
417.018	1.488	correct	generate	Run1	generate/STIM_017.jpg
421.681	1.591	correct	generate	Run1	generate/STIM_017.jpg
425.456	1.301	incorrect	generate	Run1	generate/STIM_017.jpg
430.151	1.262	correct	generate	Run1	generate/STIM_018.jpg
434.781	1.639	incorrect	generate	Run1	generate/STIM_018.jpg
439.456	2.237	correct	generate	Run1	generate/STIM_018.jpg
445.124	2.196	correct	generate	Run1	generate/STIM_018.jpg
451.44	1.985	correct	generate	Run1	generate/STIM_018.jpg
457.017	2.541	correct	generate	Run1	generate/STIM_019.jpg
462.456	1.61	correct	generate	Run1	generate/STIM_019.jpg
467.792	1.966	incorrect	generate	Run1	generate/STIM_019.jpg
473.834	2.141	correct	generate	Run1	generate/STIM_019.jpg
479.567	1.149	correct	generate	Run1	generate/STIM_019.jpg
483.615	2.426	correct	generate	Run1	generate/STIM_020.jpg
490.36	2.06	correct	generate	Run1	generate/STIM_020.jpg
496.541	0.938	correct	generate	Run1	generate/STIM_020.jpg
499.767	1.33	correct	generate	Run1	generate/STIM_020.jpg
503.865	1.098	incorrect	generate	Run1	generate/STIM_020.jpg
507.385	1.07	incorrect	generate	Run1	generate/STIM_021.jpg
512.267	2.549	incorrect	generate	Run1	generate/STIM_021.jpg
518.114	1.006	correct	generate	Run1	generate/STIM_021.jpg
521.291	1.156	correct	generate	Run1	generate/STIM_021.jpg
525.694	0.967	correct	generate	Run1	generate/STIM_021.jpg
529.702	1.861	correct	generate	Run1	generate/STIM_022.jpg
534.47	2.287	correct	generate	Run1	generate/STIM_022.jpg
539.191	1.489	correct	generate	Run1	generate/STIM_022.jpg
544.023	0.99	correct	generate	Run1	generate/STIM_022.jpg
547.487	1.911	correct	generate	Run1	generate/STIM_022.jpg
551.927	2.332	correct	generate	Run1	generate/STIM_023.jpg
556.668	2.44	correct	generate	Run1	generate/STIM_023.jpg
562.694	1.874	correct	generate	Run1	generate/STIM_023.jpg
568.549	1.904	correct	generate	Run1	generate/STIM_023.jpg
572.821	1.701	correct	generate	Run1	generate/STIM_023.jpg
578.367	1.114	correct	generate	Run1	generate/STIM_024.jpg
581.844	1.587	correct	generate	Run1	generate/STIM_024.jpg
586.094	1.866	correct	generate	Run1	generate/STIM_024.jpg
591.498	2.171	incorrect	generate	Run1	generate/STIM_024.jpg
597.419	0.998	correct	generate	Run1	generate/STIM_024.jpg
601.826	0.894	correct	repeat	Run1	repeat/STIM_000.jpg
605.282	0.585	correct	repeat	Run1	repeat/STIM_000.jpg
608.599	0.599	correct	repeat	Run1	repeat/STIM_000.jpg
612.836	0.672	correct	repeat	Run1	repeat/STIM_000.jpg
615.817	0.805	correct	repeat	Run1	repeat/STIM_000.jpg
619.475	0.513	correct	repeat	Run1	repeat/STIM_001.jpg
622.387	0.76	correct	repeat	Run1	repeat/STIM_001.jpg
627.101	0.622	correct	repeat	Run1	repeat/STIM_001.jpg
630.279	0.799	correct	repeat	Run1	repeat/STIM_001.jpg
634.422	0.55	correct	repeat	Run1	repeat/STIM_001.jpg
638.319	0.621	correct	repeat	Run1	repeat/STIM_002.jpg
641.449	0.795	correct	repeat	Run1	repeat/STIM_002.jpg
645.948	0.746	correct	repeat	Run1	repeat/STIM_002.jpg
649.44	0.44	correct	repeat	Run1	repeat/STIM_002.jpg
653.195	0.545	correct	repeat	Run1	repeat/STIM_002.jpg
657.713	0.545	correct	repeat	Run1	repeat/STIM_003.jpg
661.118	0.61	correct	repeat	Run1	repeat/STIM_003.jpg
664.416	0.736	correct	repeat	Run1	repeat/STIM_003.jpg
667.961	0.858	correct	repeat	Run1	repeat/STIM_003.jpg
671.003	0.622	correct	repeat	Run1	repeat/STIM_003.jpg
675.521	0.398	correct	repeat	Run1	repeat/STIM_004.jpg
679.9	0.858	correct	repeat	Run1	repeat/STIM_004.jpg
683.744	0.455	correct	repeat	Run1	repeat/STIM_004.jpg
688.185	0.703	correct	repeat	Run1	repeat/STIM_004.jpg
691.9	0.708	correct	repeat	Run1	repeat/STIM_004.jpg
695.093	0.525	correct	repeat	Run1	repeat/STIM_005.jpg
699.038	0.64	correct	repeat	Run1	repeat/STIM_005.jpg
703.387	0.818	correct	repeat	Run1	repeat/STIM_005.jpg
706.817	0.534	correct	repeat	Run1	repeat/STIM_005.jpg
710.364	0.524	correct	repeat	Run1	repeat/STIM_005.jpg
714.62	0.615	correct	repeat	Run1	repeat/STIM_006.jpg
717.432	0.455	correct	repeat	Run1	repeat/STIM_006.jpg
720.467	0.578	correct	repeat	Run1	repeat/STIM_006.jpg
723.264	0.889	correct	repeat	Run1	repeat/STIM_006.jpg
726.631	0.53	correct	repeat	Run1	repeat/STIM_006.jpg
730.926	0.741	correct	repeat	Run1	repeat/STIM_007.jpg
734.62	0.921	correct	repeat	Run1	repeat/STIM_007.jpg
737.895	0.86	incorrect	repeat	Run1	repeat/STIM_007.jpg
741.217	0.739	correct	repeat	Run1	repeat/STIM_007.jpg
745.111	0.636	correct	repeat	Run1	repeat/STIM_007.jpg
747.802	0.512	correct	repeat	Run1	repeat/STIM_008.jpg
750.544	0.532	correct	repeat	Run1	repeat/STIM_008.jpg
753.636	0.732	correct	repeat	Run1	repeat/STIM_008.jpg
756.937	0.444	correct	repeat	Run1	repeat/STIM_008.jpg
760.625	0.698	correct	repeat	Run1	repeat/STIM_008.jpg
764.216	0.814	correct	repeat	Run1	repeat/STIM_009.jpg
767.88	0.772	correct	repeat	Run1	repeat/STIM_009.jpg
771.212	0.64	correct	repeat	Run1	repeat/STIM_009.jpg
774.48	0.524	correct	repeat	Run1	repeat/STIM_009.jpg
778.574	0.652	correct	repeat	Run1	repeat/STIM_009.jpg
782.441	0.712	correct	repeat	Run1	repeat/STIM_010.jpg
785.667	0.582	correct	repeat	Run1	repeat/STIM_010.jpg
788.715	0.793	correct	repeat	Run1	repeat/STIM_010.jpg
793.084	0.632	correct	repeat	Run1	repeat/STIM_010.jpg
796.425	0.763	correct	repeat	Run1	repeat/STIM_010.jpg
800.197	0.636	correct	repeat	Run1	repeat/STIM_011.jpg
803.866	0.827	correct	repeat	Run1	repeat/STIM_011.jpg
806.862	0.646	correct	repeat	Run1	repeat/STIM_011.jpg
811.177	0.549	correct	repeat	Run1	repeat/STIM_011.jpg
814.469	0.757	correct	repeat	Run1	repeat/STIM_011.jpg
817.957	0.66	incorrect	repeat	Run1	repeat/STIM_012.jpg
820.857	0.621	correct	repeat	Run1	repeat/STIM_012.jpg
824.104	0.702	correct	repeat	Run1	repeat/STIM_012.jpg
827.63	0.476	correct	repeat	Run1	repeat/STIM_012.jpg
832.245	0.65	correct	repeat	Run1	repeat/STIM_012.jpg
836.239	0.741	correct	repeat	Run1	repeat/STIM_013.jpg
839.346	0.473	correct	repeat	Run1	repeat/STIM_013.jpg
842.082	0.472	correct	repeat	Run1	repeat/STIM_013.jpg
844.998	0.418	correct	repeat	Run1	repeat/STIM_013.jpg
848.902	0.661	correct	repeat	Run1	repeat/STIM_013.jpg
853.165	0.725	correct	repeat	Run1	repeat/STIM_014.jpg
856.123	0.788	correct	repeat	Run1	repeat/STIM_014.jpg
859.748	0.573	correct	repeat	Run1	repeat/STIM_014.jpg
863.904	0.897	correct	repeat	Run1	repeat/STIM_014.jpg
868.74	0.74	correct	repeat	Run1	repeat/STIM_014.jpg
872.613	1.844	correct	generate	Run2	generate/STIM_000.jpg
878.182	2.09	correct	generate	Run2	generate/STIM_000.jpg
884.523	1.571	incorrect	generate	Run2	generate/STIM_000.jpg
888.839	1.662	correct	generate	Run2	generate/STIM_000.jpg
893.559	1.607	correct	generate	Run2	generate/STIM_000.jpg
899.307	1.925	correct	generate	Run2	generate/STIM_001.jpg
903.701	1.769	correct	generate	Run2	generate/STIM_001.jpg
907.595	0.912	correct	generate	Run2	generate/STIM_001.jpg
910.948	1.262	correct	generate	Run2	generate/STIM_001.jpg
914.42	1.155	correct	generate	Run2	generate/STIM_001.jpg
917.943	1.825	correct	generate	Run2	generate/STIM_002.jpg
922.253	1.196	incorrect	generate	Run2	generate/STIM_002.jpg
926.854	1.259	correct	generate	Run2	generate/STIM_002.jpg
932.096	1.73	correct	generate	Run2	generate/STIM_002.jpg
937.126	0.732	correct	generate	Run2	generate/STIM_002.jpg
941.52	1.335	correct	generate	Run2	generate/STIM_003.jpg
946.996	1.843	incorrect	generate	Run2	generate/STIM_003.jpg
952.162	1.5	correct	generate	Run2	generate/STIM_003.jpg
956.902	1.466	correct	generate	Run2	generate/STIM_003.jpg
961.954	0.966	correct	generate	Run2	generate/STIM_003.jpg
966.183	1.757	correct	generate	Run2	generate/STIM_004.jpg
972.15	1.402	correct	generate	Run2	generate/STIM_004.jpg
977.66	1.532	incorrect	generate	Run2	generate/STIM_004.jpg
981.483	1.255	correct	generate	Run2	generate/STIM_004.jpg
985.887	1.669	incorrect	generate	Run2	generate/STIM_004.jpg
989.844	1.657	correct	generate	Run2	generate/STIM_005.jpg
994.117	1.186	correct	generate	Run2	generate/STIM_005.jpg
997.788	1.944	correct	generate	Run2	generate/STIM_005.jpg
1003.364	1.516	correct	generate	Run2	generate/STIM_005.jpg
1007.595	1.54	correct	generate	Run2	generate/STIM_005.jpg
1011.497	1.609	correct	generate	Run2	generate/STIM_006.jpg
1016.232	1.738	correct	generate	Run2	generate/STIM_006.jpg
1022.16	1.035	correct	generate	Run2	generate/STIM_006.jpg
1026.609	0.986	correct	generate	Run2	generate/STIM_006.jpg
1031.121	0.892	incorrect	generate	Run2	generate/STIM_006.jpg
1035.081	1.644	correct	generate	Run2	generate/STIM_007.jpg
1039.669	1.354	correct	generate	Run2	generate/STIM_007.jpg
1043.923	1.664	correct	generate	Run2	generate/STIM_007.jpg
1048.422	1.193	correct	generate	Run2	generate/STIM_007.jpg
1052.077	1.321	correct	generate	Run2	generate/STIM_007.jpg
1057.268	1.696	correct	generate	Run2	generate/STIM_008.jpg
1062.551	0.946	correct	generate	Run2	generate/STIM_008.jpg
1067.01	1.748	correct	generate	Run2	generate/STIM_008.jpg
1072.715	0.884	incorrect	generate	Run2	generate/STIM_008.jpg
1076.909	0.833	correct	generate	Run2	generate/STIM_008.jpg
1080.217	1.571	correct	generate	Run2	generate/STIM_009.jpg
1084.955	0.91	correct	generate	Run2	generate/STIM_009.jpg
1089.79	1.511	correct	generate	Run2	generate/STIM_009.jpg
1094.414	1.755	correct	generate	Run2	generate/STIM_009.jpg
1099.407	0.828	correct	generate	Run2	generate/STIM_009.jpg
1103.176	1.036	correct	generate	Run2	generate/STIM_010.jpg
1107.128	1.954	correct	generate	Run2	generate/STIM_010.jpg
1111.705	1.258	correct	generate	Run2	generate/STIM_010.jpg
1116.273	1.496	correct	generate	Run2	generate/STIM_010.jpg
1120.365	1.02	correct	generate	Run2	generate/STIM_010.jpg
1124.855	2.042	correct	generate	Run2	generate/STIM_011.jpg
1130.451	1.81	correct	generate	Run2	generate/STIM_011.jpg
1135.731	1.013	correct	generate	Run2	generate/STIM_011.jpg
1139.966	1.321	correct	generate	Run2	generate/STIM_011.jpg
1144.904	0.962	correct	generate	Run2	generate/STIM_011.jpg
1148.333	1.999	incorrect	generate	Run2	generate/STIM_012.jpg
1154.475	1.687	correct	generate	Run2	generate/STIM_012.jpg
1159.133	1.962	correct	generate	Run2	generate/STIM_012.jpg
1163.581	1.627	incorrect	generate	Run2	generate/STIM_012.jpg
1168.644	1.779	correct	generate	Run2	generate/STIM_012.jpg
1173.912	1.915	correct	generate	Run2	generate/STIM_013.jpg
1179.638	1.066	correct	generate	Run2	generate/STIM_013.jpg
1183.379	1.556	correct	generate	Run2	generate/STIM_013.jpg
1187.354	1.13	correct	generate	Run2	generate/STIM_013.jpg
1190.784	1.158	correct	generate	Run2	generate/STIM_013.jpg
1195.543	1.258	correct	generate	Run2	generate/STIM_014.jpg
1200.23	2.034	correct	generate	Run2	generate/STIM_014.jpg
1205.392	1.896	incorrect	generate	Run2	generate/STIM_014.jpg
1211.462	1.02	correct	generate	Run2	generate/STIM_014.jpg
1216.492	1.458	correct	generate	Run2	generate/STIM_014.jpg
1222.183	1.968	correct	generate	Run2	generate/STIM_015.jpg
1226.571	1.08	correct	generate	Run2	generate/STIM_015.jpg
1231.484	1.839	correct	generate	Run2	generate/STIM_015.jpg
1237.279	0.848	correct	generate	Run2	generate/STIM_015.jpg
1241.936	1.236	correct	generate	Run2	generate/STIM_015.jpg
1246.972	1.467	correct	generate	Run2	generate/STIM_016.jpg
1251.198	1.517	correct	generate	Run2	generate/STIM_016.jpg
1255.967	1.294	correct	generate	Run2	generate/STIM_016.jpg
1260.868	1.24	correct	generate	Run2	generate/STIM_016.jpg
1264.668	1.679	correct	generate	Run2	generate/STIM_016.jpg
1269.281	1.496	correct	generate	Run2	generate/STIM_017.jpg
1274.944	1.637	correct	generate	Run2	generate/STIM_017.jpg
1280.109	0.86	correct	generate	Run2	generate/STIM_017.jpg
1284.574	1.408	incorrect	generate	Run2	generate/STIM_017.jpg
1288.543	0.916	correct	generate	Run2	generate/STIM_017.jpg
1292.841	1.458	correct	generate	Run2	generate/STIM_018.jpg
1296.776	1.747	correct	generate	Run2	generate/STIM_018.jpg
1301.204	1.412	incorrect	generate	Run2	generate/STIM_018.jpg
1305.512	0.975	correct	generate	Run2	generate/STIM_018.jpg
1308.643	1.681	correct	generate	Run2	generate/STIM_018.jpg
1313.136	1.43	correct	generate	Run2	generate/STIM_019.jpg
1318.603	1.632	correct	generate	Run2	generate/STIM_019.jpg
1324.016	1.005	correct	generate	Run2	generate/STIM_019.jpg
1328.847	1.353	incorrect	generate	Run2	generate/STIM_019.jpg
1333.495	1.517	correct	generate	Run2	generate/STIM_019.jpg
1339.058	1.231	correct	generate	Run2	generate/STIM_020.jpg
1344.142	1.717	correct	generate	Run2	generate/STIM_020.jpg
1349.592	0.927	correct	generate	Run2	generate/STIM_020.jpg
1354.687	1.743	incorrect	generate	Run2	generate/STIM_020.jpg
1359.96	1.911	correct	generate	Run2	generate/STIM_020.jpg
1364.849	2.143	incorrect	generate	Run2	generate/STIM_021.jpg
1370.382	1.114	incorrect	generate	Run2	generate/STIM_021.jpg
1373.99	1.504	incorrect	generate	Run2	generate/STIM_021.jpg
1379.598	1.516	incorrect	generate	Run2	generate/STIM_021.jpg
1384.218	1.25	correct	generate	Run2	generate/STIM_021.jpg
1388.974	1.902	correct	generate	Run2	generate/STIM_022.jpg
1394.429	0.909	correct	generate	Run2	generate/STIM_022.jpg
1397.921	1.954	correct	generate	Run2	generate/STIM_022.jpg
1402.521	1.268	correct	generate	Run2	generate/STIM_022.jpg
1406.418	1.698	incorrect	generate	Run2	generate/STIM_022.jpg
1411.593	2.181	correct	generate	Run2	generate/STIM_023.jpg
1416.541	1.593	incorrect	generate	Run2	generate/STIM_023.jpg
1421.514	1.417	incorrect	generate	Run2	generate/STIM_023.jpg
1425.812	1.667	correct	generate	Run2	generate/STIM_023.jpg
1431.054	1.081	correct	generate	Run2	generate/STIM_023.jpg
1434.798	0.998	correct	generate	Run2	generate/STIM_024.jpg
1439.519	1.913	correct	generate	Run2	generate/STIM_024.jpg
1444.576	1.469	correct	generate	Run2	generate/STIM_024.jpg
1448.491	1.669	correct	generate	Run2	generate/STIM_024.jpg
1453.075	1.606	correct	generate	Run2	generate/STIM_024.jpg
1456.932	0.754	correct	repeat	Run2	repeat/STIM_000.jpg
1460.931	0.784	correct	repeat	Run2	repeat/STIM_000.jpg
1464.357	0.763	correct	repeat	Run2	repeat/STIM_000.jpg
1468.937	0.807	correct	repeat	Run2	repeat/STIM_000.jpg
1473.768	0.475	correct	repeat	Run2	repeat/STIM_000.jpg
1476.991	0.497	correct	repeat	Run2	repeat/STIM_001.jpg
1481.147	0.559	correct	repeat	Run2	repeat/STIM_001.jpg
1485.334	0.411	correct	repeat	Run2	repeat/STIM_001.jpg
1488.355	0.567	incorrect	repeat	Run2	repeat/STIM_001.jpg
1491.398	0.634	correct	repeat	Run2	repeat/STIM_001.jpg
1494.757	0.887	correct	repeat	Run2	repeat/STIM_002.jpg
1497.871	0.685	correct	repeat	Run2	repeat/STIM_002.jpg
1502.226	0.783	correct	repeat	Run2	repeat/STIM_002.jpg
1505.621	0.618	correct	repeat	Run2	repeat/STIM_002.jpg
1509.272	0.598	correct	repeat	Run2	repeat/STIM_002.jpg
1512.202	0.809	correct	repeat	Run2	repeat/STIM_003.jpg
1515.735	0.678	correct	repeat	Run2	repeat/STIM_003.jpg
1518.784	0.494	correct	repeat	Run2	repeat/STIM_003.jpg
1522.714	0.782	correct	repeat	Run2	repeat/STIM_003.jpg
1525.85	0.894	correct	repeat	Run2	repeat/STIM_003.jpg
1529.535	0.845	incorrect	repeat	Run2	repeat/STIM_004.jpg
1534.096	0.591	correct	repeat	Run2	repeat/STIM_004.jpg
1537.754	0.418	correct	repeat	Run2	repeat/STIM_004.jpg
1541.798	0.657	correct	repeat	Run2	repeat/STIM_004.jpg
1545.572	0.762	correct	repeat	Run2	repeat/STIM_004.jpg
1549.831	0.745	correct	repeat	Run2	repeat/STIM_005.jpg
1554.317	0.91	correct	repeat	Run2	repeat/STIM_005.jpg
1557.894	0.521	correct	repeat	Run2	repeat/STIM_005.jpg
1561.129	0.474	correct	repeat	Run2	repeat/STIM_005.jpg
1564.402	0.746	correct	repeat	Run2	repeat/STIM_005.jpg
1569.215	0.771	correct	repeat	Run2	repeat/STIM_006.jpg
1573.433	0.938	correct	repeat	Run2	repeat/STIM_006.jpg
1578.29	0.815	correct	repeat	Run2	repeat/STIM_006.jpg
1582.54	0.762	correct	repeat	Run2	repeat/STIM_006.jpg
1585.883	0.6	correct	repeat	Run2	repeat/STIM_006.jpg
1589.767	0.644	correct	repeat	Run2	repeat/STIM_007.jpg
1593.023	0.769	correct	repeat	Run2	repeat/STIM_007.jpg
1596.42	0.558	correct	repeat	Run2	repeat/STIM_007.jpg
1600.879	0.832	correct	repeat	Run2	repeat/STIM_007.jpg
1603.918	0.725	correct	repeat	Run2	repeat/STIM_007.jpg
1608.687	0.857	correct	repeat	Run2	repeat/STIM_008.jpg
1612.597	0.548	incorrect	repeat	Run2	repeat/STIM_008.jpg
1616.116	0.49	correct	repeat	Run2	repeat/STIM_008.jpg
1619.119	0.5	correct	repeat	Run2	repeat/STIM_008.jpg
1622.902	0.92	correct	repeat	Run2	repeat/STIM_008.jpg
1626.309	0.712	correct	repeat	Run2	repeat/STIM_009.jpg
1630.413	0.59	correct	repeat	Run2	repeat/STIM_009.jpg
1634.758	0.593	correct	repeat	Run2	repeat/STIM_009.jpg
1638.259	0.692	correct	repeat	Run2	repeat/STIM_009.jpg
1641.982	0.806	correct	repeat	Run2	repeat/STIM_009.jpg
1645.205	0.835	correct	repeat	Run2	repeat/STIM_010.jpg
1649.764	0.911	correct	repeat	Run2	repeat/STIM_010.jpg
1653.62	0.477	correct	repeat	Run2	repeat/STIM_010.jpg
1656.373	0.521	correct	repeat	Run2	repeat/STIM_010.jpg
1659.861	0.494	correct	repeat	Run2	repeat/STIM_010.jpg
1663.368	0.536	correct	repeat	Run2	repeat/STIM_011.jpg
1666.561	0.552	correct	repeat	Run2	repeat/STIM_011.jpg
1669.826	0.745	correct	repeat	Run2	repeat/STIM_011.jpg
1672.982	0.609	correct	repeat	Run2	repeat/STIM_011.jpg
1676.987	0.706	correct	repeat	Run2	repeat/STIM_011.jpg
1680.61	0.68	correct	repeat	Run2	repeat/STIM_012.jpg
1684.835	0.65	correct	repeat	Run2	repeat/STIM_012.jpg
1687.917	0.672	correct	repeat	Run2	repeat/STIM_012.jpg
1691.646	0.597	correct	repeat	Run2	repeat/STIM_012.jpg
1696.296	0.782	correct	repeat	Run2	repeat/STIM_012.jpg
1700.809	0.794	correct	repeat	Run2	repeat/STIM_013.jpg
1704.047	0.769	correct	repeat	Run2	repeat/STIM_013.jpg
1707.062	0.609	correct	repeat	Run2	repeat/STIM_013.jpg
1711.184	0.785	incorrect	repeat	Run2	repeat/STIM_013.jpg
1715.931	0.559	correct	repeat	Run2	repeat/STIM_013.jpg
1719.003	0.507	correct	repeat	Run2	repeat/STIM_014.jpg
1722.09	0.576	correct	repeat	Run2	repeat/STIM_014.jpg
1726.014	0.548	correct	repeat	Run2	repeat/STIM_014.jpg
1730.504	0.792	correct	repeat	Run2	repeat/STIM_014.jpg
1734.484	0.49	correct	repeat	Run2	repeat/STIM_014.jpg
1737.348	1.164	correct	generate	Run3	generate/STIM_000.jpg
1742.35	1.156	correct	generate	Run3	generate/STIM_000.jpg
1747.599	0.838	correct	generate	Run3	generate/STIM_000.jpg
1752.372	1.5	correct	generate	Run3	generate/STIM_000.jpg
1757.04	1.758	correct	generate	Run3	generate/STIM_000.jpg
1761.745	1.795	correct	generate	Run3	generate/STIM_001.jpg
1767.697	1.772	correct	generate	Run3	generate/STIM_001.jpg
1772.882	1.722	correct	generate	Run3	generate/STIM_001.jpg
1778.099	0.871	correct	generate	Run3	generate/STIM_001.jpg
1782.828	1.603	correct	generate	Run3	generate/STIM_001.jpg
1787.267	1.409	correct	generate	Run3	generate/STIM_002.jpg
1792.073	1.428	correct	generate	Run3	generate/STIM_002.jpg
1795.694	0.875	correct	generate	Run3	generate/STIM_002.jpg
1798.813	1.741	correct	generate	Run3	generate/STIM_002.jpg
1802.748	1.59	correct	generate	Run3	generate/STIM_002.jpg
1806.692	1.113	correct	generate	Run3	generate/STIM_003.jpg
1811.178	1.863	incorrect	generate	Run3	generate/STIM_003.jpg
1816.809	1.621	correct	generate	Run3	generate/STIM_003.jpg
1822.547	1.588	correct	generate	Run3	generate/STIM_003.jpg
1827.883	1.442	correct	generate	Run3	generate/STIM_003.jpg
1832.969	1.168	correct	generate	Run3	generate/STIM_004.jpg
1836.942	1.343	correct	generate	Run3	generate/STIM_004.jpg
1842.005	1.089	correct	generate	Run3	generate/STIM_004.jpg
1847.176	0.92	correct	generate	Run3	generate/STIM_004.jpg
1851.979	1.809	correct	generate	Run3	generate/STIM_004.jpg
1857.158	1.811	correct	generate	Run3	generate/STIM_005.jpg
1861.668	0.827	correct	generate	Run3	generate/STIM_005.jpg
1865.916	1.924	correct	generate	Run3	generate/STIM_005.jpg
1871.827	1.533	correct	generate	Run3	generate/STIM_005.jpg
1876.298	1.005	correct	generate	Run3	generate/STIM_005.jpg
1879.909	0.866	correct	generate	Run3	generate/STIM_006.jpg
1883.267	0.83	correct	generate	Run3	generate/STIM_006.jpg
1887.832	1.431	correct	generate	Run3	generate/STIM_006.jpg
1892.982	1.768	correct	generate	Run3	generate/STIM_006.jpg
1898.229	1.093	correct	generate	Run3	generate/STIM_006.jpg
1902.724	1.574	correct	generate	Run3	generate/STIM_007.jpg
1906.527	1.433	correct	generate	Run3	generate/STIM_007.jpg
1911.401	1.867	correct	generate	Run3	generate/STIM_007.jpg
1916.012	1.316	correct	generate	Run3	generate/STIM_007.jpg
1920.818	1.474	correct	generate	Run3	generate/STIM_007.jpg
1926.202	0.8	correct	generate	Run3	generate/STIM_008.jpg
1930.805	0.714	correct	generate	Run3	generate/STIM_008.jpg
1934.602	1.512	correct	generate	Run3	generate/STIM_008.jpg
1939.494	0.836	correct	generate	Run3	generate/STIM_008.jpg
1942.639	1.29	correct	generate	Run3	generate/STIM_008.jpg
1946.167	0.838	incorrect	generate	Run3	generate/STIM_009.jpg
1949.82	1.686	correct	generate	Run3	generate/STIM_009.jpg
1955.318	0.841	correct	generate	Run3	generate/STIM_009.jpg
1959.712	1.529	correct	generate	Run3	generate/STIM_009.jpg
1964.681	1.053	correct	generate	Run3	generate/STIM_009.jpg
1968.851	0.854	correct	generate	Run3	generate/STIM_010.jpg
1973.373	0.746	correct	generate	Run3	generate/STIM_010.jpg
1977.842	1.831	correct	generate	Run3	generate/STIM_010.jpg
1981.914	0.945	correct	generate	Run3	generate/STIM_010.jpg
1985.343	1.053	correct	generate	Run3	generate/STIM_010.jpg
1990.451	0.996	correct	generate	Run3	generate/STIM_011.jpg
1994.442	1.058	correct	generate	Run3	generate/STIM_011.jpg
1998.365	0.949	correct	generate	Run3	generate/STIM_011.jpg
2001.628	1.015	correct	generate	Run3	generate/STIM_011.jpg
2006.541	1.436	correct	generate	Run3	generate/STIM_011.jpg
2011.547	0.899	correct	generate	Run3	generate/STIM_012.jpg
2015.917	1.631	correct	generate	Run3	generate/STIM_012.jpg
2021.468	1.161	correct	generate	Run3	generate/STIM_012.jpg
2025.559	1.49	correct	generate	Run3	generate/STIM_012.jpg
2030.071	1.248	correct	generate	Run3	generate/STIM_012.jpg
2034.024	0.974	correct	generate	Run3	generate/STIM_013.jpg
2039.103	1.234	correct	generate	Run3	generate/STIM_013.jpg
2042.567	1.647	correct	generate	Run3	generate/STIM_013.jpg
2047.462	1.279	correct	generate	Run3	generate/STIM_013.jpg
2052.921	1.476	correct	generate	Run3	generate/STIM_013.jpg
2057.398	1.637	correct	generate	Run3	generate/STIM_014.jpg
2061.794	1.376	correct	generate	Run3	generate/STIM_014.jpg
2065.696	1.678	correct	generate	Run3	generate/STIM_014.jpg
2070.639	1.517	correct	generate	Run3	generate/STIM_014.jpg
2075.876	0.965	correct	generate	Run3	generate/STIM_014.jpg
2079.594	1.016	correct	generate	Run3	generate/STIM_015.jpg
2082.827	1.396	correct	generate	Run3	generate/STIM_015.jpg
2087.367	1.347	correct	generate	Run3	generate/STIM_015.jpg
2092.418	0.963	correct	generate	Run3	generate/STIM_015.jpg
2096.041	0.851	correct	generate	Run3	generate/STIM_015.jpg
2100.396	1.493	correct	generate	Run3	generate/STIM_016.jpg
2105.656	1.156	correct	generate	Run3	generate/STIM_016.jpg
2110.415	1.243	correct	generate	Run3	generate/STIM_016.jpg
2114.018	1.663	correct	generate	Run3	generate/STIM_016.jpg
2119.373	0.833	correct	generate	Run3	generate/STIM_016.jpg
2123.365	1.484	correct	generate	Run3	generate/STIM_017.jpg
2127.218	0.822	correct	generate	Run3	generate/STIM_017.jpg
2130.857	1.798	correct	generate	Run3	generate/STIM_017.jpg
2135.641	1.275	correct	generate	Run3	generate/STIM_017.jpg
2139.181	1.226	correct	generate	Run3	generate/STIM_017.jpg
2142.96	1.353	correct	generate	Run3	generate/STIM_018.jpg
2147.128	1.115	correct	generate	Run3	generate/STIM_018.jpg
2151.57	1.728	correct	generate	Run3	generate/STIM_018.jpg
2157.038	1.515	correct	generate	Run3	generate/STIM_018.jpg
2161.766	1.328	incorrect	generate	Run3	generate/STIM_018.jpg
2165.725	1.649	correct	generate	Run3	generate/STIM_019.jpg
2170.037	1.204	incorrect	generate	Run3	generate/STIM_019.jpg
2175.162	1.603	correct	generate	Run3	generate/STIM_019.jpg
2178.986	1.806	correct	generate	Run3	generate/STIM_019.jpg
2184.627	1.236	correct	generate	Run3	generate/STIM_019.jpg
2188.369	0.961	correct	generate	Run3	generate/STIM_020.jpg
2192.04	0.897	correct	generate	Run3	generate/STIM_020.jpg
2195.891	1.177	correct	generate	Run3	generate/STIM_020.jpg
2200.155	1.043	correct	generate	Run3	generate/STIM_020.jpg
2204.13	1.541	correct	generate	Run3	generate/STIM_020.jpg
2208.49	1.396	correct	generate	Run3	generate/STIM_021.jpg
2212.393	1.645	correct	generate	Run3	generate/STIM_021.jpg
2216.39	1.734	correct	generate	Run3	generate/STIM_021.jpg
2220.76	1.659	correct	generate	Run3	generate/STIM_021.jpg
2225.595	1.29	correct	generate	Run3	generate/STIM_021.jpg
2230.293	1.459	correct	generate	Run3	generate/STIM_022.jpg
2235.336	1.923	correct	generate	Run3	generate/STIM_022.jpg
2240.72	1.283	incorrect	generate	Run3	generate/STIM_022.jpg
2245.958	1.615	correct	generate	Run3	generate/STIM_022.jpg
2251.792	1.795	correct	generate	Run3	generate/STIM_022.jpg
2257.576	1.454	correct	generate	Run3	generate/STIM_023.jpg
2262.307	1.35	correct	generate	Run3	generate/STIM_023.jpg
2266.432	0.862	correct	generate	Run3	generate/STIM_023.jpg
2270.412	1.267	correct	generate	Run3	generate/STIM_023.jpg
2275.768	0.983	correct	generate	Run3	generate/STIM_023.jpg
2280.388	1.402	incorrect	generate	Run3	generate/STIM_024.jpg
2285.981	0.793	correct	generate	Run3	generate/STIM_024.jpg
2290.89	0.933	incorrect	generate	Run3	generate/STIM_024.jpg
2295.323	1.421	correct	generate	Run3	generate/STIM_024.jpg
2300.404	1.063	correct	generate	Run3	generate/STIM_024.jpg
2303.711	0.58	correct	repeat	Run3	repeat/STIM_000.jpg
2308.092	0.684	correct	repeat	Run3	repeat/STIM_000.jpg
2312.398	0.789	correct	repeat	Run3	repeat/STIM_000.jpg
2315.618	0.52	correct	repeat	Run3	repeat/STIM_000.jpg
2319.171	0.696	correct	repeat	Run3	repeat/STIM_000.jpg
2323.728	0.58	correct	repeat	Run3	repeat/STIM_001.jpg
2326.873	0.635	correct	repeat	Run3	repeat/STIM_001.jpg
2330.88	0.53	correct	repeat	Run3	repeat/STIM_001.jpg
2334.205	0.749	incorrect	repeat	Run3	repeat/STIM_001.jpg
2338.169	0.715	incorrect	repeat	Run3	repeat/STIM_001.jpg
2342.695	0.531	correct	repeat	Run3	repeat/STIM_002.jpg
2345.385	0.554	correct	repeat	Run3	repeat/STIM_002.jpg
2349.972	0.404	correct	repeat	Run3	repeat/STIM_002.jpg
2352.665	0.654	correct	repeat	Run3	repeat/STIM_002.jpg
2356.17	0.787	correct	repeat	Run3	repeat/STIM_002.jpg
2360.297	0.432	correct	repeat	Run3	repeat/STIM_003.jpg
2363.345	0.739	correct	repeat	Run3	repeat/STIM_003.jpg
2367.855	0.629	correct	repeat	Run3	repeat/STIM_003.jpg
2372.111	0.482	correct	repeat	Run3	repeat/STIM_003.jpg
2375.94	0.665	correct	repeat	Run3	repeat/STIM_003.jpg
2378.763	0.558	correct	repeat	Run3	repeat/STIM_004.jpg
2382.634	0.57	correct	repeat	Run3	repeat/STIM_004.jpg
2385.84	0.806	correct	repeat	Run3	repeat/STIM_004.jpg
2389.209	0.77	correct	repeat	Run3	repeat/STIM_004.jpg
2393.96	0.716	correct	repeat	Run3	repeat/STIM_004.jpg
2398.318	0.673	correct	repeat	Run3	repeat/STIM_005.jpg
2402.926	0.637	correct	repeat	Run3	repeat/STIM_005.jpg
2406.605	0.396	correct	repeat	Run3	repeat/STIM_005.jpg
2410.211	0.693	correct	repeat	Run3	repeat/STIM_005.jpg
2413.2	0.815	correct	repeat	Run3	repeat/STIM_005.jpg
2416.799	0.469	correct	repeat	Run3	repeat/STIM_006.jpg
2419.544	0.79	correct	repeat	Run3	repeat/STIM_006.jpg
2424.131	0.876	correct	repeat	Run3	repeat/STIM_006.jpg
2427.132	0.49	correct	repeat	Run3	repeat/STIM_006.jpg
2431.671	0.727	correct	repeat	Run3	repeat/STIM_006.jpg
2435.517	0.64	correct	repeat	Run3	repeat/STIM_007.jpg
2438.415	0.828	incorrect	repeat	Run3	repeat/STIM_007.jpg
2443.135	0.865	correct	repeat	Run3	repeat/STIM_007.jpg
2446.323	0.469	correct	repeat	Run3	repeat/STIM_007.jpg
2448.924	0.646	correct	repeat	Run3	repeat/STIM_007.jpg
2453.15	0.648	correct	repeat	Run3	repeat/STIM_008.jpg
2456.418	0.6	correct	repeat	Run3	repeat/STIM_008.jpg
2460.568	0.491	correct	repeat	Run3	repeat/STIM_008.jpg
2464.557	0.614	correct	repeat	Run3	repeat/STIM_008.jpg
2467.423	0.602	correct	repeat	Run3	repeat/STIM_008.jpg
2471.427	0.421	correct	repeat	Run3	repeat/STIM_009.jpg
2475.354	0.516	incorrect	repeat	Run3	repeat/STIM_009.jpg
2479.738	0.812	correct	repeat	Run3	repeat/STIM_009.jpg
2483.514	0.722	correct	repeat	Run3	repeat/STIM_009.jpg
2488.08	0.802	correct	repeat	Run3	repeat/STIM_009.jpg
2492.55	0.813	correct	repeat	Run3	repeat/STIM_010.jpg
2495.537	0.85	correct	repeat	Run3	repeat/STIM_010.jpg
2499.299	0.44	correct	repeat	Run3	repeat/STIM_010.jpg
2501.927	0.728	incorrect	repeat	Run3	repeat/STIM_010.jpg
2506.041	0.74	correct	repeat	Run3	repeat/STIM_010.jpg
2509.563	0.863	correct	repeat	Run3	repeat/STIM_011.jpg
2512.795	0.636	correct	repeat	Run3	repeat/STIM_011.jpg
2517.362	0.483	correct	repeat	Run3	repeat/STIM_011.jpg
2520.816	0.819	correct	repeat	Run3	repeat/STIM_011.jpg
2525.689	0.868	incorrect	repeat	Run3	repeat/STIM_011.jpg
2530.191	0.575	incorrect	repeat	Run3	repeat/STIM_012.jpg
2533.801	0.847	correct	repeat	Run3	repeat/STIM_012.jpg
2537.817	0.686	correct	repeat	Run3	repeat/STIM_012.jpg
2541.646	0.913	correct	repeat	Run3	repeat/STIM_012.jpg
2545.457	0.648	correct	repeat	Run3	repeat/STIM_012.jpg
2549.447	0.934	correct	repeat	Run3	repeat/STIM_013.jpg
2553.859	0.663	correct	repeat	Run3	repeat/STIM_013.jpg
2556.697	0.489	correct	repeat	Run3	repeat/STIM_013.jpg
2559.582	0.593	correct	repeat	Run3	repeat/STIM_013.jpg
2563.967	0.581	correct	repeat	Run3	repeat/STIM_013.jpg
2567.852	0.616	correct	repeat	Run3	repeat/STIM_014.jpg
2570.653	0.541	correct	repeat	Run3	repeat/STIM_014.jpg
2574.541	0.597	correct	repeat	Run3	repeat/STIM_014.jpg
2577.341	0.713	correct	repeat	Run3	repeat/STIM_014.jpg
2580.59	0.82	correct	repeat	Run3	repeat/STIM_014.jpg
2584.951	1.714	correct	generate	Run4	generate/STIM_000.jpg
2589.185	1.571	correct	generate	Run4	generate/STIM_000.jpg
2594.452	1.325	correct	generate	Run4	generate/STIM_000.jpg
2599.796	1.559	correct	generate	Run4	generate/STIM_000.jpg
2605.284	1.832	correct	generate	Run4	generate/STIM_000.jpg
2610.302	1.578	correct	generate	Run4	generate/STIM_001.jpg
2615.847	0.83	correct	generate	Run4	generate/STIM_001.jpg
2619.415	1.759	correct	generate	Run4	generate/STIM_001.jpg
2625.038	1.693	correct	generate	Run4	generate/STIM_001.jpg
2630.836	1.696	correct	generate	Run4	generate/STIM_001.jpg
2636.625	1.379	correct	generate	Run4	generate/STIM_002.jpg
2640.392	1.46	correct	generate	Run4	generate/STIM_002.jpg
2645.421	1.117	correct	generate	Run4	generate/STIM_002.jpg
2649.152	1.435	correct	generate	Run4	generate/STIM_002.jpg
2653.743	0.754	correct	generate	Run4	generate/STIM_002.jpg
2656.659	1.417	correct	generate	Run4	generate/STIM_003.jpg
2661.293	1.048	correct	generate	Run4	generate/STIM_003.jpg
2664.501	1.762	correct	generate	Run4	generate/STIM_003.jpg
2669.353	1.488	correct	generate	Run4	generate/STIM_003.jpg
2674.059	0.81	correct	generate	Run4	generate/STIM_003.jpg
2678.326	1.665	correct	generate	Run4	generate/STIM_004.jpg
2684.219	1.572	correct	generate	Run4	generate/STIM_004.jpg
2688.575	1.399	correct	generate	Run4	generate/STIM_004.jpg
2693.47	0.78	correct	generate	Run4	generate/STIM_004.jpg
2696.859	1.446	correct	generate	Run4	generate/STIM_004.jpg
2702.26	0.697	correct	generate	Run4	generate/STIM_005.jpg
2706.296	1.11	correct	generate	Run4	generate/STIM_005.jpg
2710.991	1.1	correct	generate	Run4	generate/STIM_005.jpg
2714.24	1.638	correct	generate	Run4	generate/STIM_005.jpg
2719.988	1.457	correct	generate	Run4	generate/STIM_005.jpg
2725.58	1.224	correct	generate	Run4	generate/STIM_006.jpg
2729.196	0.79	correct	generate	Run4	generate/STIM_006.jpg
2732.436	1.159	correct	generate	Run4	generate/STIM_006.jpg
2737.625	0.754	correct	generate	Run4	generate/STIM_006.jpg
2740.803	1.013	correct	generate	Run4	generate/STIM_006.jpg
2745.206	1.131	correct	generate	Run4	generate/STIM_007.jpg
2749.331	1.818	correct	generate	Run4	generate/STIM_007.jpg
2754.947	1.007	correct	generate	Run4	generate/STIM_007.jpg
2759.176	1.653	correct	generate	Run4	generate/STIM_007.jpg
2764.314	1.108	correct	generate	Run4	generate/STIM_007.jpg
2769.312	1.453	correct	generate	Run4	generate/STIM_008.jpg
2774.535	1.767	correct	generate	Run4	generate/STIM_008.jpg
2779.265	1.94	correct	generate	Run4	generate/STIM_008.jpg
2784.541	1.646	correct	generate	Run4	generate/STIM_008.jpg
2788.449	0.99	correct	generate	Run4	generate/STIM_008.jpg
2791.913	0.773	correct	generate	Run4	generate/STIM_009.jpg
2795.758	1.647	correct	generate	Run4	generate/STIM_009.jpg
2800.041	1.403	correct	generate	Run4	generate/STIM_009.jpg
2804.3	1.714	correct	generate	Run4	generate/STIM_009.jpg
2809.776	1.631	correct	generate	Run4	generate/STIM_009.jpg
2813.737	1.588	correct	generate	Run4	generate/STIM_010.jpg
2819.059	1.773	correct	generate	Run4	generate/STIM_010.jpg
2824.402	0.859	correct	generate	Run4	generate/STIM_010.jpg
2827.863	1.506	correct	generate	Run4	generate/STIM_010.jpg
2831.701	1.359	correct	generate	Run4	generate/STIM_010.jpg
2835.489	1.721	correct	generate	Run4	generate/STIM_011.jpg
2839.96	1.334	correct	generate	Run4	generate/STIM_011.jpg
2844.975	1.517	correct	generate	Run4	generate/STIM_011.jpg
2849.355	1.537	correct	generate	Run4	generate/STIM_011.jpg
2853.65	0.88	correct	generate	Run4	generate/STIM_011.jpg
2858.457	1.744	correct	generate	Run4	generate/STIM_012.jpg
2862.514	0.984	correct	generate	Run4	generate/STIM_012.jpg
2865.9	1.225	correct	generate	Run4	generate/STIM_012.jpg
2870.732	0.806	correct	generate	Run4	generate/STIM_012.jpg
2874.693	1.283	correct	generate	Run4	generate/STIM_012.jpg
2878.591	0.64	correct	generate	Run4	generate/STIM_013.jpg
2882.643	1.338	correct	generate	Run4	generate/STIM_013.jpg
2887.571	1.478	correct	generate	Run4	generate/STIM_013.jpg
2891.43	1.274	correct	generate	Run4	generate/STIM_013.jpg
2894.923	1.059	correct	generate	Run4	generate/STIM_013.jpg
2899.888	1.328	correct	generate	Run4	generate/STIM_014.jpg
2904.257	1.844	correct	generate	Run4	generate/STIM_014.jpg
2910.062	0.858	correct	generate	Run4	generate/STIM_014.jpg
2914.649	1.417	correct	generate	Run4	generate/STIM_014.jpg
2919.917	0.868	correct	generate	Run4	generate/STIM_014.jpg
2924.616	0.988	correct	generate	Run4	generate/STIM_015.jpg
2929.552	1.768	correct	generate	Run4	generate/STIM_015.jpg
2934.167	1.215	correct	generate	Run4	generate/STIM_015.jpg
2938.139	1.066	correct	generate	Run4	generate/STIM_015.jpg
2943.131	1.027	correct	generate	Run4	generate/STIM_015.jpg
2947.976	1.538	incorrect	generate	Run4	generate/STIM_016.jpg
2952.878	1.286	correct	generate	Run4	generate/STIM_016.jpg
2956.558	1.832	correct	generate	Run4	generate/STIM_016.jpg
2960.921	1.037	correct	generate	Run4	generate/STIM_016.jpg
2965.19	1.793	correct	generate	Run4	generate/STIM_016.jpg
2970.46	1.164	correct	generate	Run4	generate/STIM_017.jpg
2974.268	1.039	correct	generate	Run4	generate/STIM_017.jpg
2979.067	1.347	correct	generate	Run4	generate/STIM_017.jpg
2983.825	1.518	correct	generate	Run4	generate/STIM_017.jpg
2988.576	1.496	correct	generate	Run4	generate/STIM_017.jpg
2993.735	1.116	correct	generate	Run4	generate/STIM_018.jpg
2997.922	1.228	correct	generate	Run4	generate/STIM_018.jpg
3002.118	0.865	correct	generate	Run4	generate/STIM_018.jpg
3005.364	0.784	correct	generate	Run4	generate/STIM_018.jpg
3009.22	1.226	correct	generate	Run4	generate/STIM_018.jpg
3012.86	1.534	correct	generate	Run4	generate/STIM_019.jpg
3017.331	1.093	correct	generate	Run4	generate/STIM_019.jpg
3021.935	1.471	correct	generate	Run4	generate/STIM_019.jpg
3027.389	1.606	correct	generate	Run4	generate/STIM_019.jpg
3031.671	0.956	correct	generate	Run4	generate/STIM_019.jpg
3034.818	0.99	correct	generate	Run4	generate/STIM_020.jpg
3039.475	0.846	correct	generate	Run4	generate/STIM_020.jpg
3043.908	1.272	correct	generate	Run4	generate/STIM_020.jpg
3048.32	1.189	correct	generate	Run4	generate/STIM_020.jpg
3053.584	1.882	correct	generate	Run4	generate/STIM_020.jpg
3059.015	1.212	correct	generate	Run4	generate/STIM_021.jpg
3062.682	1.335	correct	generate	Run4	generate/STIM_021.jpg
3066.477	1.065	correct	generate	Run4	generate/STIM_021.jpg
3070.043	0.888	correct	generate	Run4	generate/STIM_021.jpg
3073.494	0.894	correct	generate	Run4	generate/STIM_021.jpg
3076.902	1.058	correct	generate	Run4	generate/STIM_022.jpg
3081.192	0.826	correct	generate	Run4	generate/STIM_022.jpg
3085.73	1.826	incorrect	generate	Run4	generate/STIM_022.jpg
3091.59	1.777	correct	generate	Run4	generate/STIM_022.jpg
3096.32	0.85	correct	generate	Run4	generate/STIM_022.jpg
3100.137	1.077	correct	generate	Run4	generate/STIM_023.jpg
3104.424	1.828	correct	generate	Run4	generate/STIM_023.jpg
3108.926	1.68	correct	generate	Run4	generate/STIM_023.jpg
3112.948	1.796	correct	generate	Run4	generate/STIM_023.jpg
3118.599	0.889	correct	generate	Run4	generate/STIM_023.jpg
3122.951	0.964	correct	generate	Run4	generate/STIM_024.jpg
3127.121	0.728	correct	generate	Run4	generate/STIM_024.jpg
3130.072	0.843	correct	generate	Run4	generate/STIM_024.jpg
3134.211	1.296	correct	generate	Run4	generate/STIM_024.jpg
3139.638	1.8	correct	generate	Run4	generate/STIM_024.jpg
3144.558	0.67	incorrect	repeat	Run4	repeat/STIM_000.jpg
3148.251	0.478	correct	repeat	Run4	repeat/STIM_000.jpg
3152.39	0.886	correct	repeat	Run4	repeat/STIM_000.jpg
3156.059	0.636	correct	repeat	Run4	repeat/STIM_000.jpg
3160.704	0.634	correct	repeat	Run4	repeat/STIM_000.jpg
3164.175	0.427	correct	repeat	Run4	repeat/STIM_001.jpg
3167.248	0.782	correct	repeat	Run4	repeat/STIM_001.jpg
3170.291	0.789	correct	repeat	Run4	repeat/STIM_001.jpg
3174.61	0.725	correct	repeat	Run4	repeat/STIM_001.jpg
3177.776	0.573	correct	repeat	Run4	repeat/STIM_001.jpg
3182.157	0.56	correct	repeat	Run4	repeat/STIM_002.jpg
3185.797	0.462	correct	repeat	Run4	repeat/STIM_002.jpg
3190.067	0.601	correct	repeat	Run4	repeat/STIM_002.jpg
3194.7	0.504	correct	repeat	Run4	repeat/STIM_002.jpg
3198.244	0.413	correct	repeat	Run4	repeat/STIM_002.jpg
3200.956	0.829	correct	repeat	Run4	repeat/STIM_003.jpg
3205.645	0.599	correct	repeat	Run4	repeat/STIM_003.jpg
3209.6	0.771	correct	repeat	Run4	repeat/STIM_003.jpg
3213.455	0.538	correct	repeat	Run4	repeat/STIM_003.jpg
3216.124	0.719	correct	repeat	Run4	repeat/STIM_003.jpg
3219.94	0.704	correct	repeat	Run4	repeat/STIM_004.jpg
3223.846	0.697	correct	repeat	Run4	repeat/STIM_004.jpg
3226.852	0.796	correct	repeat	Run4	repeat/STIM_004.jpg
3230.921	0.602	correct	repeat	Run4	repeat/STIM_004.jpg
3234.791	0.666	incorrect	repeat	Run4	repeat/STIM_004.jpg
3239.148	0.504	correct	repeat	Run4	repeat/STIM_005.jpg
3242.748	0.625	correct	repeat	Run4	repeat/STIM_005.jpg
3246.211	0.689	incorrect	repeat	Run4	repeat/STIM_005.jpg
3249.874	0.742	correct	repeat	Run4	repeat/STIM_005.jpg
3253.942	0.48	correct	repeat	Run4	repeat/STIM_005.jpg
3256.854	0.73	correct	repeat	Run4	repeat/STIM_006.jpg
3260.071	0.856	correct	repeat	Run4	repeat/STIM_006.jpg
3263.921	0.643	correct	repeat	Run4	repeat/STIM_006.jpg
3268.485	0.546	correct	repeat	Run4	repeat/STIM_006.jpg
3272.585	0.633	correct	repeat	Run4	repeat/STIM_006.jpg
3277.037	0.75	correct	repeat	Run4	repeat/STIM_007.jpg
3281.273	0.528	correct	repeat	Run4	repeat/STIM_007.jpg
3285.778	0.792	correct	repeat	Run4	repeat/STIM_007.jpg
3290.324	0.656	correct	repeat	Run4	repeat/STIM_007.jpg
3293.569	0.57	correct	repeat	Run4	repeat/STIM_007.jpg
3297.373	0.623	correct	repeat	Run4	repeat/STIM_008.jpg
3301.468	0.56	correct	repeat	Run4	repeat/STIM_008.jpg
3305.538	0.839	correct	repeat	Run4	repeat/STIM_008.jpg
3309.455	0.817	correct	repeat	Run4	repeat/STIM_008.jpg
3313.193	0.896	correct	repeat	Run4	repeat/STIM_008.jpg
3317.057	0.83	correct	repeat	Run4	repeat/STIM_009.jpg
3321.042	0.895	correct	repeat	Run4	repeat/STIM_009.jpg
3324.117	0.666	correct	repeat	Run4	repeat/STIM_009.jpg
3327.295	0.585	correct	repeat	Run4	repeat/STIM_009.jpg
3331.253	0.809	correct	repeat	Run4	repeat/STIM_009.jpg
3335.342	0.576	correct	repeat	Run4	repeat/STIM_010.jpg
3338.772	0.554	correct	repeat	Run4	repeat/STIM_010.jpg
3342.558	0.493	correct	repeat	Run4	repeat/STIM_010.jpg
3345.411	0.624	correct	repeat	Run4	repeat/STIM_010.jpg
3348.667	0.863	correct	repeat	Run4	repeat/STIM_010.jpg
3351.786	0.613	correct	repeat	Run4	repeat/STIM_011.jpg
3355.068	0.946	correct	repeat	Run4	repeat/STIM_011.jpg
3358.642	0.475	correct	repeat	Run4	repeat/STIM_011.jpg
3361.182	0.759	correct	repeat	Run4	repeat/STIM_011.jpg
3364.256	0.808	correct	repeat	Run4	repeat/STIM_011.jpg
3368.788	0.85	correct	repeat	Run4	repeat/STIM_012.jpg
3372.973	0.538	correct	repeat	Run4	repeat/STIM_012.jpg
3376.361	0.466	correct	repeat	Run4	repeat/STIM_012.jpg
3379.15	0.756	correct	repeat	Run4	repeat/STIM_012.jpg
3382.757	0.627	correct	repeat	Run4	repeat/STIM_012.jpg
3385.557	0.742	correct	repeat	Run4	repeat/STIM_013.jpg
3389.427	0.571	correct	repeat	Run4	repeat/STIM_013.jpg
3392.938	0.672	correct	repeat	Run4	repeat/STIM_013.jpg
3396.425	0.705	correct	repeat	Run4	repeat/STIM_013.jpg
3400.59	0.808	correct	repeat	Run4	repeat/STIM_013.jpg
3405.024	0.82	correct	repeat	Run4	repeat/STIM_014.jpg
3409.607	0.555	correct	repeat	Run4	repeat/STIM_014.jpg
3413.951	0.668	correct	repeat	Run4	repeat/STIM_014.jpg
3417.172	0.889	correct	repeat	Run4	repeat/STIM_014.jpg
3421.325	0.856	correct	repeat	Run4	repeat/STIM_014.jpg
