onset	duration	accuracy	trial_type	learning_stage	stimulus
0.0	2.281	correct	generate	Run1	generate/STIM_000.jpg
4.285	2.02	correct	generate	Run1	generate/STIM_000.jpg
9.972	1.913	correct	generate	Run1	generate/STIM_000.jpg
15.427	1.821	correct	generate	Run1	generate/STIM_000.jpg
19.252	1.405	incorrect	generate	Run1	generate/STIM_000.jpg
24.645	2.374	correct	generate	Run1	generate/STIM_001.jpg
29.471	2.51	correct	generate	Run1	generate/STIM_001.jpg
34.27	2.588	correct	generate	Run1	generate/STIM_001.jpg
39.691	1.022	correct	generate	Run1	generate/STIM_001.jpg
44.24	1.637	correct	generate	Run1	generate/STIM_001.jpg
48.061	1.401	incorrect	generate	Run1	generate/STIM_002.jpg
52.809	2.148	incorrect	generate	Run1	generate/STIM_002.jpg
58.063	1.273	correct	generate	Run1	generate/STIM_002.jpg
61.659	1.058	correct	generate	Run1	generate/STIM_002.jpg
65.637	1.509	correct	generate	Run1	generate/STIM_002.jpg
70.084	1.415	correct	generate	Run1	generate/STIM_003.jpg
74.368	1.845	correct	generate	Run1	generate/STIM_003.jpg
79.781	2.47	correct	generate	Run1	generate/STIM_003.jpg
85.464	1.59	correct	generate	Run1	generate/STIM_003.jpg
89.091	1.797	correct	generate	Run1	generate/STIM_003.jpg
94.678	1.487	incorrect	generate	Run1	generate/STIM_004.jpg
100.104	1.227	correct	generate	Run1	generate/STIM_004.jpg
103.807	1.223	correct	generate	Run1	generate/STIM_004.jpg
107.598	1.901	correct	generate	Run1	generate/STIM_004.jpg
112.893	1.198	correct	generate	Run1	generate/STIM_004.jpg
116.74	2.712	incorrect	generate	Run1	generate/STIM_005.jpg
122.876	2.329	correct	generate	Run1	generate/STIM_005.jpg
128.641	1.21	correct	generate	Run1	generate/STIM_005.jpg
132.182	1.118	correct	generate	Run1	generate/STIM_005.jpg
136.671	1.155	correct	generate	Run1	generate/STIM_005.jpg
141.784	2.0	correct	generate	Run1	generate/STIM_006.jpg
146.804	1.618	correct	generate	Run1	generate/STIM_006.jpg
152.342	1.511	correct	generate	Run1	generate/STIM_006.jpg
155.978	1.854	correct	generate	Run1	generate/STIM_006.jpg
160.4	0.971	correct	generate	Run1	generate/STIM_006.jpg
164.061	1.801	correct	generate	Run1	generate/STIM_007.jpg
167.998	1.273	correct	generate	Run1	generate/STIM_007.jpg
171.72	1.328	correct	generate	Run1	generate/STIM_007.jpg
175.214	1.898	correct	generate	Run1	generate/STIM_007.jpg
179.888	0.944	correct	generate	Run1	generate/STIM_007.jpg
183.797	1.92	correct	generate	Run1	generate/STIM_008.jpg
188.504	1.121	correct	generate	Run1	generate/STIM_008.jpg
192.516	1.78	correct	generate	Run1	generate/STIM_008.jpg
198.197	2.208	incorrect	generate	Run1	generate/STIM_008.jpg
202.59	1.693	correct	generate	Run1	generate/STIM_008.jpg
206.882	1.251	correct	generate	Run1	generate/STIM_009.jpg
210.418	2.671	incorrect	generate	Run1	generate/STIM_009.jpg
216.473	1.499	incorrect	generate	Run1	generate/STIM_009.jpg
221.14	2.338	correct	generate	Run1	generate/STIM_009.jpg
227.416	1.352	correct	generate	Run1	generate/STIM_009.jpg
231.051	2.171	correct	generate	Run1	generate/STIM_010.jpg
237.18	2.679	correct	generate	Run1	generate/STIM_010.jpg
243.296	1.33	correct	generate	Run1	generate/STIM_010.jpg
248.46	1.364	incorrect	generate	Run1	generate/STIM_010.jpg
252.122	1.46	correct	generate	Run1	generate/STIM_010.jpg
255.639	1.812	correct	generate	Run1	generate/STIM_011.jpg
260.325	2.292	correct	generate	Run1	generate/STIM_011.jpg
264.69	2.448	correct	generate	Run1	generate/STIM_011.jpg
269.157	2.28	incorrect	generate	Run1	generate/STIM_011.jpg
274.975	1.28	correct	generate	Run1	generate/STIM_011.jpg
279.129	1.632	correct	generate	Run1	generate/STIM_012.jpg
282.782	2.586	incorrect	generate	Run1	generate/STIM_012.jpg
289.2	1.985	correct	generate	Run1	generate/STIM_012.jpg
293.322	2.186	incorrect	generate	Run1	generate/STIM_012.jpg
298.891	1.517	correct	generate	Run1	generate/STIM_012.jpg
303.68	2.043	correct	generate	Run1	generate/STIM_013.jpg
308.012	1.833	correct	generate	Run1	generate/STIM_013.jpg
312.712	2.614	correct	generate	Run1	generate/STIM_013.jpg
317.483	1.664	correct	generate	Run1	generate/STIM_013.jpg
322.843	1.269	correct	generate	Run1	generate/STIM_013.jpg
327.668	1.934	correct	generate	Run1	generate/STIM_014.jpg
333.334	1.161	correct	generate	Run1	generate/STIM_014.jpg
337.356	2.009	incorrect	generate	Run1	generate/STIM_014.jpg
341.808	1.559	correct	generate	Run1	generate/STIM_014.jpg
345.951	1.504	correct	generate	Run1	generate/STIM_014.jpg
351.207	1.685	correct	generate	Run1	generate/STIM_015.jpg
355.174	1.706	correct	generate	Run1	generate/STIM_015.jpg
359.197	2.413	correct	generate	Run1	generate/STIM_015.jpg
364.905	1.53	correct	generate	Run1	generate/STIM_015.jpg
368.947	0.984	correct	generate	Run1	generate/STIM_015.jpg
373.085	1.594	correct	generate	Run1	generate/STIM_016.jpg
377.456	1.909	correct	generate	Run1	generate/STIM_016.jpg
382.308	2.367	correct	generate	Run1	generate/STIM_016.jpg
387.765	1.784	correct	generate	Run1	generate/STIM_016.jpg
392.846	1.711	correct	generate	Run1	generate/STIM_016.jpg
396.752	2.191	correct	generate	Run1	generate/STIM_017.jpg
402.516	1.493	correct	generate	Run1	generate/STIM_017.jpg
407.367	2.185	correct	generate	Run1	generate/STIM_017.jpg
412.19	2.016	correct	generate	Run1	generate/STIM_017.jpg
417.219	1.212	correct	generate	Run1	generate/STIM_017.jpg
421.834	2.904	correct	generate	Run1	generate/STIM_018.jpg
427.453	2.662	correct	generate	Run1	generate/STIM_018.jpg
433.441	2.28	correct	generate	Run1	generate/STIM_018.jpg
439.538	1.402	correct	generate	Run1	generate/STIM_018.jpg
443.04	1.666	correct	generate	Run1	generate/STIM_018.jpg
447.037	2.895	correct	generate	Run1	generate/STIM_019.jpg
453.787	2.733	correct	generate	Run1	generate/STIM_019.jpg
459.741	1.386	incorrect	generate	Run1	generate/STIM_019.jpg
463.539	2.349	correct	generate	Run1	generate/STIM_019.jpg
469.217	1.659	correct	generate	Run1	generate/STIM_019.jpg
473.022	1.597	correct	generate	Run1	generate/STIM_020.jpg
478.17	1.17	correct	generate	Run1	generate/STIM_020.jpg
482.377	1.269	correct	generate	Run1	generate/STIM_020.jpg
486.002	1.886	correct	generate	Run1	generate/STIM_020.jpg
490.54	1.21	incorrect	generate	Run1	generate/STIM_020.jpg
495.075	1.421	correct	generate	Run1	generate/STIM_021.jpg
499.148	2.169	incorrect	generate	Run1	generate/STIM_021.jpg
504.145	1.07	correct	generate	Run1	generate/STIM_021.jpg
508.755	2.198	correct	generate	Run1	generate/STIM_021.jpg
514.189	2.268	correct	generate	Run1	generate/STIM_021.jpg
519.683	2.438	correct	generate	Run1	generate/STIM_022.jpg
525.562	2.18	correct	generate	Run1	generate/STIM_022.jpg
530.005	1.191	correct	generate	Run1	generate/STIM_022.jpg
535.112	1.503	correct	generate	Run1	generate/STIM_022.jpg
540.258	1.856	correct	generate	Run1	generate/STIM_022.jpg
545.611	1.556	correct	generate	Run1	generate/STIM_023.jpg
550.002	1.667	correct	generate	Run1	generate/STIM_023.jpg
555.668	2.437	correct	generate	Run1	generate/STIM_023.jpg
561.431	1.285	correct	generate	Run1	generate/STIM_023.jpg
566.696	2.175	correct	generate	Run1	generate/STIM_023.jpg
571.831	2.242	correct	generate	Run1	generate/STIM_024.jpg
576.639	2.568	correct	generate	Run1	generate/STIM_024.jpg
582.664	1.444	correct	generate	Run1	generate/STIM_024.jpg
587.988	1.553	correct	generate	Run1	generate/STIM_024.jpg
592.295	1.982	correct	generate	Run1	generate/STIM_024.jpg
597.363	0.834	correct	repeat	Run1	repeat/STIM_000.jpg
600.844	0.514	correct	repeat	Run1	repeat/STIM_000.jpg
603.45	0.51	correct	repeat	Run1	repeat/STIM_000.jpg
607.083	0.731	correct	repeat	Run1	repeat/STIM_000.jpg
610.228	0.55	correct	repeat	Run1	repeat/STIM_000.jpg
614.698	0.903	correct	repeat	Run1	repeat/STIM_001.jpg
619.507	0.72	correct	repeat	Run1	repeat/STIM_001.jpg
622.517	0.767	correct	repeat	Run1	repeat/STIM_001.jpg
625.812	0.77	correct	repeat	Run1	repeat/STIM_001.jpg
628.587	0.594	correct	repeat	Run1	repeat/STIM_001.jpg
632.91	0.788	correct	repeat	Run1	repeat/STIM_002.jpg
636.595	0.628	correct	repeat	Run1	repeat/STIM_002.jpg
641.039	0.927	correct	repeat	Run1	repeat/STIM_002.jpg
644.206	0.714	correct	repeat	Run1	repeat/STIM_002.jpg
648.609	0.769	correct	repeat	Run1	repeat/STIM_002.jpg
651.694	0.952	correct	repeat	Run1	repeat/STIM_003.jpg
655.228	0.69	correct	repeat	Run1	repeat/STIM_003.jpg
658.0	0.579	correct	repeat	Run1	repeat/STIM_003.jpg
661.85	0.784	correct	repeat	Run1	repeat/STIM_003.jpg
666.628	0.916	correct	repeat	Run1	repeat/STIM_003.jpg
670.409	0.585	correct	repeat	Run1	repeat/STIM_004.jpg
674.758	0.95	correct	repeat	Run1	repeat/STIM_004.jpg
678.413	0.794	correct	repeat	Run1	repeat/STIM_004.jpg
682.671	0.512	correct	repeat	Run1	repeat/STIM_004.jpg
685.194	0.663	correct	repeat	Run1	repeat/STIM_004.jpg
689.693	0.742	correct	repeat	Run1	repeat/STIM_005.jpg
693.515	0.582	correct	repeat	Run1	repeat/STIM_005.jpg
697.652	0.646	correct	repeat	Run1	repeat/STIM_005.jpg
701.796	0.929	correct	repeat	Run1	repeat/STIM_005.jpg
705.912	0.822	correct	repeat	Run1	repeat/STIM_005.jpg
710.611	0.538	correct	repeat	Run1	repeat/STIM_006.jpg
714.412	0.87	correct	repeat	Run1	repeat/STIM_006.jpg
717.613	0.737	correct	repeat	Run1	repeat/STIM_006.jpg
720.547	0.627	correct	repeat	Run1	repeat/STIM_006.jpg
724.374	0.771	correct	repeat	Run1	repeat/STIM_006.jpg
729.099	0.833	correct	repeat	Run1	repeat/STIM_007.jpg
733.922	0.87	correct	repeat	Run1	repeat/STIM_007.jpg
738.208	0.785	correct	repeat	Run1	repeat/STIM_007.jpg
741.101	0.76	correct	repeat	Run1	repeat/STIM_007.jpg
744.818	0.55	correct	repeat	Run1	repeat/STIM_007.jpg
747.845	0.556	correct	repeat	Run1	repeat/STIM_008.jpg
750.852	0.961	correct	repeat	Run1	repeat/STIM_008.jpg
755.265	0.788	correct	repeat	Run1	repeat/STIM_008.jpg
758.592	0.65	correct	repeat	Run1	repeat/STIM_008.jpg
763.198	0.554	correct	repeat	Run1	repeat/STIM_008.jpg
766.312	0.599	correct	repeat	Run1	repeat/STIM_009.jpg
769.099	0.878	correct	repeat	Run1	repeat/STIM_009.jpg
773.354	0.642	correct	repeat	Run1	repeat/STIM_009.jpg
777.357	0.757	correct	repeat	Run1	repeat/STIM_009.jpg
780.575	0.742	correct	repeat	Run1	repeat/STIM_009.jpg
783.599	0.684	correct	repeat	Run1	repeat/STIM_010.jpg
787.298	0.68	correct	repeat	Run1	repeat/STIM_010.jpg
791.002	0.794	correct	repeat	Run1	repeat/STIM_010.jpg
795.468	0.729	correct	repeat	Run1	repeat/STIM_010.jpg
799.976	0.573	correct	repeat	Run1	repeat/STIM_010.jpg
803.033	0.849	correct	repeat	Run1	repeat/STIM_011.jpg
807.736	0.72	correct	repeat	Run1	repeat/STIM_011.jpg
810.528	0.855	correct	repeat	Run1	repeat/STIM_011.jpg
815.334	0.931	correct	repeat	Run1	repeat/STIM_011.jpg
818.484	0.527	correct	repeat	Run1	repeat/STIM_011.jpg
821.316	0.958	correct	repeat	Run1	repeat/STIM_012.jpg
824.726	0.53	correct	repeat	Run1	repeat/STIM_012.jpg
827.852	0.917	correct	repeat	Run1	repeat/STIM_012.jpg
832.031	0.69	correct	repeat	Run1	repeat/STIM_012.jpg
836.373	0.691	correct	repeat	Run1	repeat/STIM_012.jpg
841.015	0.754	correct	repeat	Run1	repeat/STIM_013.jpg
844.516	0.567	correct	repeat	Run1	repeat/STIM_013.jpg
848.608	0.729	correct	repeat	Run1	repeat/STIM_013.jpg
851.359	0.65	correct	repeat	Run1	repeat/STIM_013.jpg
855.664	0.833	correct	repeat	Run1	repeat/STIM_013.jpg
859.432	0.603	correct	repeat	Run1	repeat/STIM_014.jpg
863.546	0.799	correct	repeat	Run1	repeat/STIM_014.jpg
868.297	0.678	correct	repeat	Run1	repeat/STIM_014.jpg
872.97	0.926	correct	repeat	Run1	repeat/STIM_014.jpg
877.867	0.829	correct	repeat	Run1	repeat/STIM_014.jpg
881.202	1.916	correct	generate	Run2	generate/STIM_000.jpg
885.891	2.013	correct	generate	Run2	generate/STIM_000.jpg
890.697	2.088	correct	generate	Run2	generate/STIM_000.jpg
895.189	1.711	correct	generate	Run2	generate/STIM_000.jpg
899.316	0.994	correct	generate	Run2	generate/STIM_000.jpg
904.281	1.312	correct	generate	Run2	generate/STIM_001.jpg
908.407	1.016	correct	generate	Run2	generate/STIM_001.jpg
913.106	1.728	correct	generate	Run2	generate/STIM_001.jpg
918.193	1.248	correct	generate	Run2	generate/STIM_001.jpg
922.756	1.052	correct	generate	Run2	generate/STIM_001.jpg
927.359	1.012	correct	generate	Run2	generate/STIM_002.jpg
930.783	1.091	correct	generate	Run2	generate/STIM_002.jpg
934.289	2.09	correct	generate	Run2	generate/STIM_002.jpg
939.045	1.696	correct	generate	Run2	generate/STIM_002.jpg
944.233	1.278	correct	generate	Run2	generate/STIM_002.jpg
948.694	1.376	correct	generate	Run2	generate/STIM_003.jpg
953.921	1.037	correct	generate	Run2	generate/STIM_003.jpg
958.647	1.612	correct	generate	Run2	generate/STIM_003.jpg
962.327	0.892	correct	generate	Run2	generate/STIM_003.jpg
965.591	1.338	correct	generate	Run2	generate/STIM_003.jpg
970.662	2.307	correct	generate	Run2	generate/STIM_004.jpg
975.222	1.077	correct	generate	Run2	generate/STIM_004.jpg
980.074	1.714	incorrect	generate	Run2	generate/STIM_004.jpg
985.587	1.769	correct	generate	Run2	generate/STIM_004.jpg
991.076	1.035	correct	generate	Run2	generate/STIM_004.jpg
995.801	1.775	correct	generate	Run2	generate/STIM_005.jpg
1000.876	1.919	correct	generate	Run2	generate/STIM_005.jpg
1006.477	0.93	correct	generate	Run2	generate/STIM_005.jpg
1009.574	1.894	correct	generate	Run2	generate/STIM_005.jpg
1015.381	1.99	correct	generate	Run2	generate/STIM_005.jpg
1020.674	2.025	correct	generate	Run2	generate/STIM_006.jpg
1025.57	1.426	correct	generate	Run2	generate/STIM_006.jpg
1029.324	2.055	correct	generate	Run2	generate/STIM_006.jpg
1035.287	1.343	correct	generate	Run2	generate/STIM_006.jpg
1038.858	1.045	incorrect	generate	Run2	generate/STIM_006.jpg
1043.283	2.032	correct	generate	Run2	generate/STIM_007.jpg
1048.836	2.254	correct	generate	Run2	generate/STIM_007.jpg
1053.306	2.049	correct	generate	Run2	generate/STIM_007.jpg
1058.917	1.972	correct	generate	Run2	generate/STIM_007.jpg
1063.86	1.09	correct	generate	Run2	generate/STIM_007.jpg
1067.245	1.007	correct	generate	Run2	generate/STIM_008.jpg
1070.806	1.173	correct	generate	Run2	generate/STIM_008.jpg
1075.102	1.331	correct	generate	Run2	generate/STIM_008.jpg
1078.702	1.874	incorrect	generate	Run2	generate/STIM_008.jpg
1083.81	1.656	correct	generate	Run2	generate/STIM_008.jpg
1087.48	1.833	correct	generate	Run2	generate/STIM_009.jpg
1093.291	1.755	correct	generate	Run2	generate/STIM_009.jpg
1097.988	1.685	correct	generate	Run2	generate/STIM_009.jpg
1102.222	1.135	correct	generate	Run2	generate/STIM_009.jpg
1106.704	1.648	correct	generate	Run2	generate/STIM_009.jpg
1111.055	1.736	correct	generate	Run2	generate/STIM_010.jpg
1115.309	1.77	correct	generate	Run2	generate/STIM_010.jpg
1119.901	2.11	correct	generate	Run2	generate/STIM_010.jpg
1125.16	1.835	correct	generate	Run2	generate/STIM_010.jpg
1130.729	1.353	correct	generate	Run2	generate/STIM_010.jpg
1134.189	1.534	correct	generate	Run2	generate/STIM_011.jpg
1138.324	1.124	correct	generate	Run2	generate/STIM_011.jpg
1142.577	1.614	correct	generate	Run2	generate/STIM_011.jpg
1146.581	1.364	correct	generate	Run2	generate/STIM_011.jpg
1150.033	1.761	correct	generate	Run2	generate/STIM_011.jpg
1155.786	1.916	correct	generate	Run2	generate/STIM_012.jpg
1160.756	2.22	correct	generate	Run2	generate/STIM_012.jpg
1165.548	1.104	correct	generate	Run2	generate/STIM_012.jpg
1169.021	1.546	correct	generate	Run2	generate/STIM_012.jpg
1174.287	1.035	correct	generate	Run2	generate/STIM_012.jpg
1177.65	2.475	correct	generate	Run2	generate/STIM_013.jpg
1182.482	1.946	correct	generate	Run2	generate/STIM_013.jpg
1186.614	1.766	correct	generate	Run2	generate/STIM_013.jpg
1191.66	1.52	correct	generate	Run2	generate/STIM_013.jpg
1196.195	1.932	correct	generate	Run2	generate/STIM_013.jpg
1200.935	1.674	correct	generate	Run2	generate/STIM_014.jpg
1206.367	1.375	correct	generate	Run2	generate/STIM_014.jpg
1210.491	1.712	correct	generate	Run2	generate/STIM_014.jpg
1214.906	2.011	correct	generate	Run2	generate/STIM_014.jpg
1219.237	1.63	correct	generate	Run2	generate/STIM_014.jpg
1223.56	1.87	correct	generate	Run2	generate/STIM_015.jpg
1229.045	2.027	correct	generate	Run2	generate/STIM_015.jpg
1234.508	1.423	correct	generate	Run2	generate/STIM_015.jpg
1239.141	1.251	correct	generate	Run2	generate/STIM_015.jpg
1244.235	0.966	correct	generate	Run2	generate/STIM_015.jpg
1249.16	1.647	correct	generate	Run2	generate/STIM_016.jpg
1253.377	1.208	correct	generate	Run2	generate/STIM_016.jpg
1258.252	1.336	correct	generate	Run2	generate/STIM_016.jpg
1262.178	1.343	correct	generate	Run2	generate/STIM_016.jpg
1266.057	1.635	correct	generate	Run2	generate/STIM_016.jpg
1271.249	1.666	correct	generate	Run2	generate/STIM_017.jpg
1276.331	1.681	correct	generate	Run2	generate/STIM_017.jpg
1280.536	1.439	correct	generate	Run2	generate/STIM_017.jpg
1284.122	1.508	incorrect	generate	Run2	generate/STIM_017.jpg
1288.372	1.502	correct	generate	Run2	generate/STIM_017.jpg
1292.849	2.197	correct	generate	Run2	generate/STIM_018.jpg
1297.374	1.418	correct	generate	Run2	generate/STIM_018.jpg
1300.951	1.662	incorrect	generate	Run2	generate/STIM_018.jpg
1306.497	1.496	correct	generate	Run2	generate/STIM_018.jpg
1311.382	1.749	correct	generate	Run2	generate/STIM_018.jpg
1316.211	2.196	correct	generate	Run2	generate/STIM_019.jpg
1321.77	1.719	correct	generate	Run2	generate/STIM_019.jpg
1326.314	1.155	correct	generate	Run2	generate/STIM_019.jpg
1330.994	1.026	incorrect	generate	Run2	generate/STIM_019.jpg
1334.601	1.06	correct	generate	Run2	generate/STIM_019.jpg
1337.9	1.122	correct	generate	Run2	generate/STIM_020.jpg
1342.268	1.277	correct	generate	Run2	generate/STIM_020.jpg
1346.289	1.08	correct	generate	Run2	generate/STIM_020.jpg
1349.894	1.777	correct	generate	Run2	generate/STIM_020.jpg
1355.255	1.632	correct	generate	Run2	generate/STIM_020.jpg
1360.114	2.174	incorrect	generate	Run2	generate/STIM_021.jpg
1365.618	1.678	incorrect	generate	Run2	generate/STIM_021.jpg
1370.908	1.343	correct	generate	Run2	generate/STIM_021.jpg
1374.879	1.285	correct	generate	Run2	generate/STIM_021.jpg
1378.596	1.541	correct	generate	Run2	generate/STIM_021.jpg
1382.806	1.236	correct	generate	Run2	generate/STIM_022.jpg
1387.185	1.462	correct	generate	Run2	generate/STIM_022.jpg
1391.506	1.542	correct	generate	Run2	generate/STIM_022.jpg
1396.451	1.526	correct	generate	Run2	generate/STIM_022.jpg
1400.059	1.409	correct	generate	Run2	generate/STIM_022.jpg
1405.251	1.766	correct	generate	Run2	generate/STIM_023.jpg
1409.263	2.164	correct	generate	Run2	generate/STIM_023.jpg
1413.612	0.89	correct	generate	Run2	generate/STIM_023.jpg
1417.48	1.467	correct	generate	Run2	generate/STIM_023.jpg
1422.221	1.109	correct	generate	Run2	generate/STIM_023.jpg
1426.181	1.685	correct	generate	Run2	generate/STIM_024.jpg
1430.242	1.724	correct	generate	Run2	generate/STIM_024.jpg
1435.726	2.027	correct	generate	Run2	generate/STIM_024.jpg
1439.961	1.985	correct	generate	Run2	generate/STIM_024.jpg
1445.855	1.429	correct	generate	Run2	generate/STIM_024.jpg
1450.289	0.501	correct	repeat	Run2	repeat/STIM_000.jpg
1453.735	0.858	correct	repeat	Run2	repeat/STIM_000.jpg
1457.617	0.794	correct	repeat	Run2	repeat/STIM_000.jpg
1461.328	0.739	correct	repeat	Run2	repeat/STIM_000.jpg
1465.864	0.547	correct	repeat	Run2	repeat/STIM_000.jpg
1468.496	0.658	correct	repeat	Run2	repeat/STIM_001.jpg
1471.414	0.551	correct	repeat	Run2	repeat/STIM_001.jpg
1475.773	0.912	correct	repeat	Run2	repeat/STIM_001.jpg
1478.887	0.911	correct	repeat	Run2	repeat/STIM_001.jpg
1483.076	0.865	correct	repeat	Run2	repeat/STIM_001.jpg
1486.498	0.677	correct	repeat	Run2	repeat/STIM_002.jpg
1490.109	0.652	correct	repeat	Run2	repeat/STIM_002.jpg
1493.726	0.523	correct	repeat	Run2	repeat/STIM_002.jpg
1497.75	0.656	incorrect	repeat	Run2	repeat/STIM_002.jpg
1501.314	0.716	correct	repeat	Run2	repeat/STIM_002.jpg
1504.824	0.688	correct	repeat	Run2	repeat/STIM_003.jpg
1507.672	0.724	correct	repeat	Run2	repeat/STIM_003.jpg
1510.828	0.784	correct	repeat	Run2	repeat/STIM_003.jpg
1513.76	0.93	correct	repeat	Run2	repeat/STIM_003.jpg
1517.057	0.596	correct	repeat	Run2	repeat/STIM_003.jpg
1520.653	0.966	correct	repeat	Run2	repeat/STIM_004.jpg
1523.718	0.606	correct	repeat	Run2	repeat/STIM_004.jpg
1528.167	0.865	correct	repeat	Run2	repeat/STIM_004.jpg
1532.154	0.698	correct	repeat	Run2	repeat/STIM_004.jpg
1536.604	0.692	correct	repeat	Run2	repeat/STIM_004.jpg
1539.412	0.728	correct	repeat	Run2	repeat/STIM_005.jpg
1543.5	0.669	correct	repeat	Run2	repeat/STIM_005.jpg
1547.388	0.506	correct	repeat	Run2	repeat/STIM_005.jpg
1550.768	0.831	correct	repeat	Run2	repeat/STIM_005.jpg
1554.904	0.63	correct	repeat	Run2	repeat/STIM_005.jpg
1558.757	0.893	correct	repeat	Run2	repeat/STIM_006.jpg
1562.434	0.698	correct	repeat	Run2	repeat/STIM_006.jpg
1566.864	0.948	correct	repeat	Run2	repeat/STIM_006.jpg
1571.397	0.802	correct	repeat	Run2	repeat/STIM_006.jpg
1576.03	0.551	correct	repeat	Run2	repeat/STIM_006.jpg
1578.913	0.898	correct	repeat	Run2	repeat/STIM_007.jpg
1582.116	0.954	correct	repeat	Run2	repeat/STIM_007.jpg
1586.22	0.808	correct	repeat	Run2	repeat/STIM_007.jpg
1589.781	0.796	correct	repeat	Run2	repeat/STIM_007.jpg
1593.266	0.794	correct	repeat	Run2	repeat/STIM_007.jpg
1596.837	0.605	correct	repeat	Run2	repeat/STIM_008.jpg
1600.905	0.609	correct	repeat	Run2	repeat/STIM_008.jpg
1605.43	0.591	correct	repeat	Run2	repeat/STIM_008.jpg
1608.703	0.646	correct	repeat	Run2	repeat/STIM_008.jpg
1613.073	0.788	correct	repeat	Run2	repeat/STIM_008.jpg
1615.863	0.675	correct	repeat	Run2	repeat/STIM_009.jpg
1619.792	0.949	correct	repeat	Run2	repeat/STIM_009.jpg
1624.368	0.884	correct	repeat	Run2	repeat/STIM_009.jpg
1627.771	0.953	correct	repeat	Run2	repeat/STIM_009.jpg
1630.736	0.713	correct	repeat	Run2	repeat/STIM_009.jpg
1635.161	0.505	correct	repeat	Run2	repeat/STIM_010.jpg
1639.088	0.841	correct	repeat	Run2	repeat/STIM_010.jpg
1642.388	0.902	correct	repeat	Run2	repeat/STIM_010.jpg
1646.317	0.907	correct	repeat	Run2	repeat/STIM_010.jpg
1650.738	0.767	correct	repeat	Run2	repeat/STIM_010.jpg
1654.027	0.912	correct	repeat	Run2	repeat/STIM_011.jpg
1657.12	0.562	correct	repeat	Run2	repeat/STIM_011.jpg
1660.568	0.97	correct	repeat	Run2	repeat/STIM_011.jpg
1665.118	0.934	correct	repeat	Run2	repeat/STIM_011.jpg
1669.73	0.954	correct	repeat	Run2	repeat/STIM_011.jpg
1673.151	0.865	correct	repeat	Run2	repeat/STIM_012.jpg
1676.262	0.525	correct	repeat	Run2	repeat/STIM_012.jpg
1680.084	0.629	correct	repeat	Run2	repeat/STIM_012.jpg
1684.68	0.773	correct	repeat	Run2	repeat/STIM_012.jpg
1687.844	0.66	correct	repeat	Run2	repeat/STIM_012.jpg
1691.667	0.623	correct	repeat	Run2	repeat/STIM_013.jpg
1694.514	0.592	correct	repeat	Run2	repeat/STIM_013.jpg
1697.338	0.778	correct	repeat	Run2	repeat/STIM_013.jpg
1701.531	0.781	incorrect	repeat	Run2	repeat/STIM_013.jpg
1706.024	0.852	correct	repeat	Run2	repeat/STIM_013.jpg
1709.405	0.824	correct	repeat	Run2	repeat/STIM_014.jpg
1713.118	0.618	correct	repeat	Run2	repeat/STIM_014.jpg
1717.274	0.626	correct	repeat	Run2	repeat/STIM_014.jpg
1720.831	0.809	correct	repeat	Run2	repeat/STIM_014.jpg
1724.992	0.723	correct	repeat	Run2	repeat/STIM_014.jpg
1727.818	1.112	correct	generate	Run3	generate/STIM_000.jpg
1731.161	1.774	correct	generate	Run3	generate/STIM_000.jpg
1735.801	1.772	correct	generate	Run3	generate/STIM_000.jpg
1740.824	1.224	correct	generate	Run3	generate/STIM_000.jpg
1744.542	0.888	correct	generate	Run3	generate/STIM_000.jpg
1748.511	0.908	correct	generate	Run3	generate/STIM_001.jpg
1753.323	1.007	correct	generate	Run3	generate/STIM_001.jpg
1756.592	1.962	correct	generate	Run3	generate/STIM_001.jpg
1760.81	1.183	correct	generate	Run3	generate/STIM_001.jpg
1765.427	1.926	correct	generate	Run3	generate/STIM_001.jpg
1769.959	1.051	correct	generate	Run3	generate/STIM_002.jpg
1773.508	1.797	correct	generate	Run3	generate/STIM_002.jpg
1777.335	1.247	correct	generate	Run3	generate/STIM_002.jpg
1781.253	0.869	correct	generate	Run3	generate/STIM_002.jpg
1785.316	1.633	correct	generate	Run3	generate/STIM_002.jpg
1789.693	1.82	correct	generate	Run3	generate/STIM_003.jpg
1795.023	1.479	incorrect	generate	Run3	generate/STIM_003.jpg
1798.649	1.082	correct	generate	Run3	generate/STIM_003.jpg
1801.76	2.027	correct	generate	Run3	generate/STIM_003.jpg
1806.076	1.459	correct	generate	Run3	generate/STIM_003.jpg
1811.159	1.286	correct	generate	Run3	generate/STIM_004.jpg
1815.233	1.122	correct	generate	Run3	generate/STIM_004.jpg
1819.13	1.892	correct	generate	Run3	generate/STIM_004.jpg
1823.783	1.669	correct	generate	Run3	generate/STIM_004.jpg
1828.889	1.169	correct	generate	Run3	generate/STIM_004.jpg
1833.856	1.455	correct	generate	Run3	generate/STIM_005.jpg
1837.536	1.174	correct	generate	Run3	generate/STIM_005.jpg
1841.614	1.915	correct	generate	Run3	generate/STIM_005.jpg
1847.436	0.822	correct	generate	Run3	generate/STIM_005.jpg
1850.557	1.924	correct	generate	Run3	generate/STIM_005.jpg
1855.126	0.888	correct	generate	Run3	generate/STIM_006.jpg
1859.572	1.37	correct	generate	Run3	generate/STIM_006.jpg
1864.645	1.138	correct	generate	Run3	generate/STIM_006.jpg
1869.765	0.995	correct	generate	Run3	generate/STIM_006.jpg
1873.669	1.85	correct	generate	Run3	generate/STIM_006.jpg
1879.431	1.775	correct	generate	Run3	generate/STIM_007.jpg
1884.4	1.902	correct	generate	Run3	generate/STIM_007.jpg
1888.906	1.208	correct	generate	Run3	generate/STIM_007.jpg
1894.042	1.441	correct	generate	Run3	generate/STIM_007.jpg
1898.588	1.613	correct	generate	Run3	generate/STIM_007.jpg
1903.52	1.28	correct	generate	Run3	generate/STIM_008.jpg
1906.81	1.627	correct	generate	Run3	generate/STIM_008.jpg
1910.859	0.988	correct	generate	Run3	generate/STIM_008.jpg
1914.77	1.35	correct	generate	Run3	generate/STIM_008.jpg
1919.89	1.128	correct	generate	Run3	generate/STIM_008.jpg
1923.716	1.319	correct	generate	Run3	generate/STIM_009.jpg
1928.56	1.958	correct	generate	Run3	generate/STIM_009.jpg
1932.992	1.294	correct	generate	Run3	generate/STIM_009.jpg
1937.273	1.167	correct	generate	Run3	generate/STIM_009.jpg
1941.618	1.765	correct	generate	Run3	generate/STIM_009.jpg
1946.351	0.848	correct	generate	Run3	generate/STIM_010.jpg
1950.132	1.688	correct	generate	Run3	generate/STIM_010.jpg
1955.735	0.957	correct	generate	Run3	generate/STIM_010.jpg
1959.339	1.296	correct	generate	Run3	generate/STIM_010.jpg
1963.95	1.357	correct	generate	Run3	generate/STIM_010.jpg
1968.983	1.11	correct	generate	Run3	generate/STIM_011.jpg
1974.082	0.861	correct	generate	Run3	generate/STIM_011.jpg
1978.853	1.532	correct	generate	Run3	generate/STIM_011.jpg
1983.28	1.529	correct	generate	Run3	generate/STIM_011.jpg
1988.005	0.922	correct	generate	Run3	generate/STIM_011.jpg
1992.829	1.353	correct	generate	Run3	generate/STIM_012.jpg
1997.061	0.841	correct	generate	Run3	generate/STIM_012.jpg
2000.415	1.554	correct	generate	Run3	generate/STIM_012.jpg
2005.762	1.456	correct	generate	Run3	generate/STIM_012.jpg
2010.181	1.682	correct	generate	Run3	generate/STIM_012.jpg
2015.324	2.029	correct	generate	Run3	generate/STIM_013.jpg
2019.754	0.818	correct	generate	Run3	generate/STIM_013.jpg
2024.187	1.27	correct	generate	Run3	generate/STIM_013.jpg
2027.754	0.841	correct	generate	Run3	generate/STIM_013.jpg
2031.492	1.134	correct	generate	Run3	generate/STIM_013.jpg
2036.306	1.872	correct	generate	Run3	generate/STIM_014.jpg
2041.572	1.759	correct	generate	Run3	generate/STIM_014.jpg
2046.996	0.852	correct	generate	Run3	generate/STIM_014.jpg
2051.183	0.94	correct	generate	Run3	generate/STIM_014.jpg
2054.489	1.496	correct	generate	Run3	generate/STIM_014.jpg
2059.802	1.938	correct	generate	Run3	generate/STIM_015.jpg
2065.716	1.046	correct	generate	Run3	generate/STIM_015.jpg
2069.87	1.498	correct	generate	Run3	generate/STIM_015.jpg
2073.764	1.962	correct	generate	Run3	generate/STIM_015.jpg
2079.688	1.57	correct	generate	Run3	generate/STIM_015.jpg
2084.23	0.912	correct	generate	Run3	generate/STIM_016.jpg
2088.429	0.968	correct	generate	Run3	generate/STIM_016.jpg
2092.605	1.684	correct	generate	Run3	generate/STIM_016.jpg
2098.126	1.059	correct	generate	Run3	generate/STIM_016.jpg
2102.549	1.606	correct	generate	Run3	generate/STIM_016.jpg
2107.741	1.111	correct	generate	Run3	generate/STIM_017.jpg
2112.555	1.248	correct	generate	Run3	generate/STIM_017.jpg
2116.962	0.992	correct	generate	Run3	generate/STIM_017.jpg
2121.246	1.328	correct	generate	Run3	generate/STIM_017.jpg
2126.506	1.028	correct	generate	Run3	generate/STIM_017.jpg
2129.984	1.552	correct	generate	Run3	generate/STIM_018.jpg
2133.647	1.16	correct	generate	Run3	generate/STIM_018.jpg
2138.221	2.015	correct	generate	Run3	generate/STIM_018.jpg
2143.75	1.931	correct	generate	Run3	generate/STIM_018.jpg
2147.815	1.009	correct	generate	Run3	generate/STIM_018.jpg
2150.898	1.364	correct	generate	Run3	generate/STIM_019.jpg
2154.404	2.013	correct	generate	Run3	generate/STIM_019.jpg
2158.653	0.936	correct	generate	Run3	generate/STIM_019.jpg
2162.865	1.638	correct	generate	Run3	generate/STIM_019.jpg
2167.627	1.995	correct	generate	Run3	generate/STIM_019.jpg
2172.772	1.225	correct	generate	Run3	generate/STIM_020.jpg
2177.553	1.882	correct	generate	Run3	generate/STIM_020.jpg
2181.633	1.633	correct	generate	Run3	generate/STIM_020.jpg
2186.405	1.486	correct	generate	Run3	generate/STIM_020.jpg
2191.818	1.61	correct	generate	Run3	generate/STIM_020.jpg
2197.068	1.885	correct	generate	Run3	generate/STIM_021.jpg
2201.116	0.924	correct	generate	Run3	generate/STIM_021.jpg
2204.665	1.574	correct	generate	Run3	generate/STIM_021.jpg
2209.885	1.642	correct	generate	Run3	generate/STIM_021.jpg
2214.453	1.958	correct	generate	Run3	generate/STIM_021.jpg
2219.685	1.609	correct	generate	Run3	generate/STIM_022.jpg
2224.446	1.625	correct	generate	Run3	generate/STIM_022.jpg
2228.928	1.518	correct	generate	Run3	generate/STIM_022.jpg
2234.21	0.964	correct	generate	Run3	generate/STIM_022.jpg
2237.248	0.843	correct	generate	Run3	generate/STIM_022.jpg
2240.888	1.096	correct	generate	Run3	generate/STIM_023.jpg
2244.083	1.619	correct	generate	Run3	generate/STIM_023.jpg
2248.501	1.428	correct	generate	Run3	generate/STIM_023.jpg
2253.561	0.862	correct	generate	Run3	generate/STIM_023.jpg
2258.267	1.921	correct	generate	Run3	generate/STIM_023.jpg
2263.298	1.78	incorrect	generate	Run3	generate/STIM_024.jpg
2267.275	1.971	correct	generate	Run3	generate/STIM_024.jpg
2272.21	1.896	incorrect	generate	Run3	generate/STIM_024.jpg
2276.417	0.929	correct	generate	Run3	generate/STIM_024.jpg
2280.166	1.133	correct	generate	Run3	generate/STIM_024.jpg
2285.238	0.509	correct	repeat	Run3	repeat/STIM_000.jpg
2289.685	0.551	correct	repeat	Run3	repeat/STIM_000.jpg
2292.681	0.711	correct	repeat	Run3	repeat/STIM_000.jpg
2296.204	0.849	correct	repeat	Run3	repeat/STIM_000.jpg
2300.381	0.699	correct	repeat	Run3	repeat/STIM_000.jpg
2303.761	0.957	correct	repeat	Run3	repeat/STIM_001.jpg
2307.704	0.547	correct	repeat	Run3	repeat/STIM_001.jpg
2310.579	0.955	correct	repeat	Run3	repeat/STIM_001.jpg
2314.555	0.624	correct	repeat	Run3	repeat/STIM_001.jpg
2317.614	0.797	incorrect	repeat	Run3	repeat/STIM_001.jpg
2320.579	0.781	correct	repeat	Run3	repeat/STIM_002.jpg
2324.066	0.681	correct	repeat	Run3	repeat/STIM_002.jpg
2326.95	0.885	correct	repeat	Run3	repeat/STIM_002.jpg
2331.397	0.566	correct	repeat	Run3	repeat/STIM_002.jpg
2334.307	0.957	correct	repeat	Run3	repeat/STIM_002.jpg
2337.65	0.937	correct	repeat	Run3	repeat/STIM_003.jpg
2340.821	0.568	correct	repeat	Run3	repeat/STIM_003.jpg
2343.472	0.928	correct	repeat	Run3	repeat/STIM_003.jpg
2347.273	0.818	correct	repeat	Run3	repeat/STIM_003.jpg
2351.88	0.748	correct	repeat	Run3	repeat/STIM_003.jpg
2355.233	0.913	correct	repeat	Run3	repeat/STIM_004.jpg
2359.997	0.644	correct	repeat	Run3	repeat/STIM_004.jpg
2364.53	0.783	correct	repeat	Run3	repeat/STIM_004.jpg
2368.591	0.934	correct	repeat	Run3	repeat/STIM_004.jpg
2372.919	0.832	correct	repeat	Run3	repeat/STIM_004.jpg
2376.562	0.676	correct	repeat	Run3	repeat/STIM_005.jpg
2380.557	0.962	correct	repeat	Run3	repeat/STIM_005.jpg
2384.956	0.583	correct	repeat	Run3	repeat/STIM_005.jpg
2387.792	0.486	correct	repeat	Run3	repeat/STIM_005.jpg
2391.65	0.69	correct	repeat	Run3	repeat/STIM_005.jpg
2395.686	0.519	correct	repeat	Run3	repeat/STIM_006.jpg
2400.08	0.649	correct	repeat	Run3	repeat/STIM_006.jpg
2404.071	0.925	correct	repeat	Run3	repeat/STIM_006.jpg
2407.47	0.81	correct	repeat	Run3	repeat/STIM_006.jpg
2411.582	0.73	correct	repeat	Run3	repeat/STIM_006.jpg
2415.973	0.754	correct	repeat	Run3	repeat/STIM_007.jpg
2419.638	0.962	correct	repeat	Run3	repeat/STIM_007.jpg
2424.075	0.705	correct	repeat	Run3	repeat/STIM_007.jpg
2428.692	0.859	correct	repeat	Run3	repeat/STIM_007.jpg
2432.737	0.95	correct	repeat	Run3	repeat/STIM_007.jpg
2435.748	0.636	correct	repeat	Run3	repeat/STIM_008.jpg
2439.787	0.742	correct	repeat	Run3	repeat/STIM_008.jpg
2444.331	0.512	correct	repeat	Run3	repeat/STIM_008.jpg
2448.427	0.502	correct	repeat	Run3	repeat/STIM_008.jpg
2450.955	0.84	correct	repeat	Run3	repeat/STIM_008.jpg
2455.296	0.809	correct	repeat	Run3	repeat/STIM_009.jpg
2459.98	0.57	correct	repeat	Run3	repeat/STIM_009.jpg
2464.42	0.891	correct	repeat	Run3	repeat/STIM_009.jpg
2467.646	0.75	correct	repeat	Run3	repeat/STIM_009.jpg
2471.63	0.54	correct	repeat	Run3	repeat/STIM_009.jpg
2475.098	0.517	correct	repeat	Run3	repeat/STIM_010.jpg
2478.365	0.857	correct	repeat	Run3	repeat/STIM_010.jpg
2483.041	0.823	correct	repeat	Run3	repeat/STIM_010.jpg
2486.344	0.909	correct	repeat	Run3	repeat/STIM_010.jpg
2489.347	0.574	correct	repeat	Run3	repeat/STIM_010.jpg
2492.909	0.938	correct	repeat	Run3	repeat/STIM_011.jpg
2495.887	0.572	correct	repeat	Run3	repeat/STIM_011.jpg
2500.342	0.96	correct	repeat	Run3	repeat/STIM_011.jpg
2503.741	0.569	correct	repeat	Run3	repeat/STIM_011.jpg
2507.528	0.727	correct	repeat	Run3	repeat/STIM_011.jpg
2510.362	0.579	correct	repeat	Run3	repeat/STIM_012.jpg
2513.112	0.523	correct	repeat	Run3	repeat/STIM_012.jpg
2516.137	0.925	correct	repeat	Run3	repeat/STIM_012.jpg
2520.516	0.566	correct	repeat	Run3	repeat/STIM_012.jpg
2524.52	0.676	correct	repeat	Run3	repeat/STIM_012.jpg
2529.081	0.833	correct	repeat	Run3	repeat/STIM_013.jpg
2533.881	0.542	correct	repeat	Run3	repeat/STIM_013.jpg
2536.564	0.769	correct	repeat	Run3	repeat/STIM_013.jpg
2540.732	0.538	correct	repeat	Run3	repeat/STIM_013.jpg
2543.928	0.643	correct	repeat	Run3	repeat/STIM_013.jpg
2548.546	0.711	correct	repeat	Run3	repeat/STIM_014.jpg
2552.067	0.528	correct	repeat	Run3	repeat/STIM_014.jpg
2556.536	0.566	correct	repeat	Run3	repeat/STIM_014.jpg
2560.6	0.807	correct	repeat	Run3	repeat/STIM_014.jpg
2565.397	0.686	correct	repeat	Run3	repeat/STIM_014.jpg
2568.777	1.796	correct	generate	Run4	generate/STIM_000.jpg
2574.119	1.969	correct	generate	Run4	generate/STIM_000.jpg
2579.56	1.467	correct	generate	Run4	generate/STIM_000.jpg
2583.126	0.901	correct	generate	Run4	generate/STIM_000.jpg
2587.531	1.735	correct	generate	Run4	generate/STIM_000.jpg
2593.083	1.371	correct	generate	Run4	generate/STIM_001.jpg
2598.428	0.981	correct	generate	Run4	generate/STIM_001.jpg
2603.234	1.774	correct	generate	Run4	generate/STIM_001.jpg
2608.532	1.004	correct	generate	Run4	generate/STIM_001.jpg
2613.416	1.566	correct	generate	Run4	generate/STIM_001.jpg
2617.371	1.303	correct	generate	Run4	generate/STIM_002.jpg
2622.409	1.159	correct	generate	Run4	generate/STIM_002.jpg
2627.15	1.722	correct	generate	Run4	generate/STIM_002.jpg
2631.664	1.618	correct	generate	Run4	generate/STIM_002.jpg
2636.651	0.975	correct	generate	Run4	generate/STIM_002.jpg
2640.945	0.852	correct	generate	Run4	generate/STIM_003.jpg
2644.238	1.019	correct	generate	Run4	generate/STIM_003.jpg
2647.305	1.011	correct	generate	Run4	generate/STIM_003.jpg
2651.267	1.058	correct	generate	Run4	generate/STIM_003.jpg
2655.738	1.939	correct	generate	Run4	generate/STIM_003.jpg
2660.338	1.332	correct	generate	Run4	generate/STIM_004.jpg
2664.149	1.278	correct	generate	Run4	generate/STIM_004.jpg
2669.304	1.971	correct	generate	Run4	generate/STIM_004.jpg
2674.658	1.72	correct	generate	Run4	generate/STIM_004.jpg
2680.316	1.078	correct	generate	Run4	generate/STIM_004.jpg
2684.456	1.034	correct	generate	Run4	generate/STIM_005.jpg
2688.803	1.953	correct	generate	Run4	generate/STIM_005.jpg
2693.022	0.83	correct	generate	Run4	generate/STIM_005.jpg
2697.118	1.156	correct	generate	Run4	generate/STIM_005.jpg
2701.537	1.252	correct	generate	Run4	generate/STIM_005.jpg
2704.833	0.949	correct	generate	Run4	generate/STIM_006.jpg
2709.513	0.902	correct	generate	Run4	generate/STIM_006.jpg
2714.063	0.946	correct	generate	Run4	generate/STIM_006.jpg
2717.48	0.894	correct	generate	Run4	generate/STIM_006.jpg
2721.747	1.935	correct	generate	Run4	generate/STIM_006.jpg
2727.619	1.294	correct	generate	Run4	generate/STIM_007.jpg
2731.711	1.043	correct	generate	Run4	generate/STIM_007.jpg
2735.355	1.919	correct	generate	Run4	generate/STIM_007.jpg
2739.523	0.961	correct	generate	Run4	generate/STIM_007.jpg
2743.123	1.304	correct	generate	Run4	generate/STIM_007.jpg
2747.962	1.384	correct	generate	Run4	generate/STIM_008.jpg
2752.422	1.604	correct	generate	Run4	generate/STIM_008.jpg
2756.884	1.469	correct	generate	Run4	generate/STIM_008.jpg
2761.886	0.866	correct	generate	Run4	generate/STIM_008.jpg
2766.46	1.708	correct	generate	Run4	generate/STIM_008.jpg
2771.692	1.248	correct	generate	Run4	generate/STIM_009.jpg
2776.114	1.973	correct	generate	Run4	generate/STIM_009.jpg
2781.138	1.816	correct	generate	Run4	generate/STIM_009.jpg
2786.948	1.024	correct	generate	Run4	generate/STIM_009.jpg
2791.128	1.565	correct	generate	Run4	generate/STIM_009.jpg
2796.322	1.474	correct	generate	Run4	generate/STIM_010.jpg
2801.093	1.379	correct	generate	Run4	generate/STIM_010.jpg
2806.054	1.174	correct	generate	Run4	generate/STIM_010.jpg
2809.436	1.685	correct	generate	Run4	generate/STIM_010.jpg
2814.026	2.01	correct	generate	Run4	generate/STIM_010.jpg
2818.296	0.943	correct	generate	Run4	generate/STIM_011.jpg
2821.502	1.283	correct	generate	Run4	generate/STIM_011.jpg
2825.044	1.122	correct	generate	Run4	generate/STIM_011.jpg
2828.229	1.689	correct	generate	Run4	generate/STIM_011.jpg
2832.444	1.144	correct	generate	Run4	generate/STIM_011.jpg
2836.509	1.045	correct	generate	Run4	generate/STIM_012.jpg
2840.539	0.923	correct	generate	Run4	generate/STIM_012.jpg
2843.599	1.724	correct	generate	Run4	generate/STIM_012.jpg
2847.333	1.04	correct	generate	Run4	generate/STIM_012.jpg
2851.235	1.848	correct	generate	Run4	generate/STIM_012.jpg
2856.253	1.096	correct	generate	Run4	generate/STIM_013.jpg
2859.552	1.562	correct	generate	Run4	generate/STIM_013.jpg
2863.56	1.54	correct	generate	Run4	generate/STIM_013.jpg
2867.775	1.573	correct	generate	Run4	generate/STIM_013.jpg
2872.075	0.923	correct	generate	Run4	generate/STIM_013.jpg
2876.136	1.534	correct	generate	Run4	generate/STIM_014.jpg
2881.51	1.504	correct	generate	Run4	generate/STIM_014.jpg
2885.807	1.822	correct	generate	Run4	generate/STIM_014.jpg
2891.053	1.808	correct	generate	Run4	generate/STIM_014.jpg
2895.093	0.83	correct	generate	Run4	generate/STIM_014.jpg
2899.606	1.517	correct	generate	Run4	generate/STIM_015.jpg
2903.821	1.843	correct	generate	Run4	generate/STIM_015.jpg
2907.697	1.524	correct	generate	Run4	generate/STIM_015.jpg
2912.365	0.867	correct	generate	Run4	generate/STIM_015.jpg
2916.507	1.876	correct	generate	Run4	generate/STIM_015.jpg
2920.489	1.836	correct	generate	Run4	generate/STIM_016.jpg
2924.423	1.282	correct	generate	Run4	generate/STIM_016.jpg
2929.571	1.657	correct	generate	Run4	generate/STIM_016.jpg
2934.573	1.678	correct	generate	Run4	generate/STIM_016.jpg
2939.792	1.341	correct	generate	Run4	generate/STIM_016.jpg
2943.675	1.671	correct	generate	Run4	generate/STIM_017.jpg
2947.492	1.042	correct	generate	Run4	generate/STIM_017.jpg
2951.406	1.908	correct	generate	Run4	generate/STIM_017.jpg
2956.73	0.899	correct	generate	Run4	generate/STIM_017.jpg
2960.103	1.656	correct	generate	Run4	generate/STIM_017.jpg
2965.553	1.624	correct	generate	Run4	generate/STIM_018.jpg
2969.611	1.277	correct	generate	Run4	generate/STIM_018.jpg
2973.833	1.059	correct	generate	Run4	generate/STIM_018.jpg
2977.518	1.228	correct	generate	Run4	generate/STIM_018.jpg
2982.27	1.612	correct	generate	Run4	generate/STIM_018.jpg
2987.184	0.861	correct	generate	Run4	generate/STIM_019.jpg
2990.503	1.037	correct	generate	Run4	generate/STIM_019.jpg
2994.09	1.172	correct	generate	Run4	generate/STIM_019.jpg
2998.33	1.636	correct	generate	Run4	generate/STIM_019.jpg
3002.193	0.955	correct	generate	Run4	generate/STIM_019.jpg
3005.51	0.848	correct	generate	Run4	generate/STIM_020.jpg
3010.21	0.885	correct	generate	Run4	generate/STIM_020.jpg
3013.738	1.541	correct	generate	Run4	generate/STIM_020.jpg
3018.755	1.816	correct	generate	Run4	generate/STIM_020.jpg
3022.978	1.418	correct	generate	Run4	generate/STIM_020.jpg
3027.54	0.909	correct	generate	Run4	generate/STIM_021.jpg
3030.534	1.999	correct	generate	Run4	generate/STIM_021.jpg
3035.997	1.996	correct	generate	Run4	generate/STIM_021.jpg
3040.569	1.91	correct	generate	Run4	generate/STIM_021.jpg
3046.124	0.987	correct	generate	Run4	generate/STIM_021.jpg
3049.213	0.881	correct	generate	Run4	generate/STIM_022.jpg
3053.139	1.39	correct	generate	Run4	generate/STIM_022.jpg
3056.891	1.812	correct	generate	Run4	generate/STIM_022.jpg
3061.24	1.042	correct	generate	Run4	generate/STIM_022.jpg
3065.956	1.53	correct	generate	Run4	generate/STIM_022.jpg
3071.434	1.766	correct	generate	Run4	generate/STIM_023.jpg
3076.471	1.665	correct	generate	Run4	generate/STIM_023.jpg
3081.145	1.507	correct	generate	Run4	generate/STIM_023.jpg
3085.394	1.682	correct	generate	Run4	generate/STIM_023.jpg
3089.199	0.941	correct	generate	Run4	generate/STIM_023.jpg
3092.268	1.09	correct	generate	Run4	generate/STIM_024.jpg
3096.412	1.71	correct	generate	Run4	generate/STIM_024.jpg
3102.04	1.77	correct	generate	Run4	generate/STIM_024.jpg
3106.918	1.774	correct	generate	Run4	generate/STIM_024.jpg
3112.617	1.348	correct	generate	Run4	generate/STIM_024.jpg
3117.382	0.566	correct	repeat	Run4	repeat/STIM_000.jpg
3121.002	0.569	correct	repeat	Run4	repeat/STIM_000.jpg
3124.194	0.552	correct	repeat	Run4	repeat/STIM_000.jpg
3126.792	0.665	correct	repeat	Run4	repeat/STIM_000.jpg
3131.004	0.817	correct	repeat	Run4	repeat/STIM_000.jpg
3134.996	0.6	correct	repeat	Run4	repeat/STIM_001.jpg
3138.389	0.786	correct	repeat	Run4	repeat/STIM_001.jpg
3141.324	0.84	correct	repeat	Run4	repeat/STIM_001.jpg
3144.373	0.597	correct	repeat	Run4	repeat/STIM_001.jpg
3147.454	0.879	correct	repeat	Run4	repeat/STIM_001.jpg
3151.043	0.652	correct	repeat	Run4	repeat/STIM_002.jpg
3154.105	0.732	correct	repeat	Run4	repeat/STIM_002.jpg
3157.685	0.644	correct	repeat	Run4	repeat/STIM_002.jpg
3161.022	0.601	correct	repeat	Run4	repeat/STIM_002.jpg
3165.58	0.898	correct	repeat	Run4	repeat/STIM_002.jpg
3168.514	0.67	correct	repeat	Run4	repeat/STIM_003.jpg
3173.149	0.68	correct	repeat	Run4	repeat/STIM_003.jpg
3177.715	0.955	correct	repeat	Run4	repeat/STIM_003.jpg
3180.883	0.754	correct	repeat	Run4	repeat/STIM_003.jpg
3184.041	0.89	correct	repeat	Run4	repeat/STIM_003.jpg
3188.61	0.49	correct	repeat	Run4	repeat/STIM_004.jpg
3192.505	0.518	correct	repeat	Run4	repeat/STIM_004.jpg
3196.589	0.578	correct	repeat	Run4	repeat/STIM_004.jpg
3200.21	0.914	correct	repeat	Run4	repeat/STIM_004.jpg
3204.326	0.688	correct	repeat	Run4	repeat/STIM_004.jpg
3208.972	0.921	correct	repeat	Run4	repeat/STIM_005.jpg
3213.356	0.59	correct	repeat	Run4	repeat/STIM_005.jpg
3217.067	0.509	correct	repeat	Run4	repeat/STIM_005.jpg
3220.358	0.583	correct	repeat	Run4	repeat/STIM_005.jpg
3224.776	0.686	correct	repeat	Run4	repeat/STIM_005.jpg
3229.462	0.742	correct	repeat	Run4	repeat/STIM_006.jpg
3232.377	0.513	correct	repeat	Run4	repeat/STIM_006.jpg
3235.459	0.967	correct	repeat	Run4	repeat/STIM_006.jpg
3239.159	0.784	correct	repeat	Run4	repeat/STIM_006.jpg
3242.286	0.93	correct	repeat	Run4	repeat/STIM_006.jpg
3245.379	0.533	correct	repeat	Run4	repeat/STIM_007.jpg
3249.863	0.869	correct	repeat	Run4	repeat/STIM_007.jpg
3253.765	0.941	correct	repeat	Run4	repeat/STIM_007.jpg
3257.308	0.88	correct	repeat	Run4	repeat/STIM_007.jpg
3260.754	0.531	correct	repeat	Run4	repeat/STIM_007.jpg
3264.867	0.494	correct	repeat	Run4	repeat/STIM_008.jpg
3268.11	0.753	correct	repeat	Run4	repeat/STIM_008.jpg
3272.754	0.622	correct	repeat	Run4	repeat/STIM_008.jpg
3277.311	0.72	correct	repeat	Run4	repeat/STIM_008.jpg
3280.882	0.509	correct	repeat	Run4	repeat/STIM_008.jpg
3284.697	0.759	correct	repeat	Run4	repeat/STIM_009.jpg
3287.973	0.945	correct	repeat	Run4	repeat/STIM_009.jpg
3291.989	0.753	correct	repeat	Run4	repeat/STIM_009.jpg
3296.389	0.685	correct	repeat	Run4	repeat/STIM_009.jpg
3299.183	0.796	correct	repeat	Run4	repeat/STIM_009.jpg
3303.515	0.75	correct	repeat	Run4	repeat/STIM_010.jpg
3307.883	0.494	correct	repeat	Run4	repeat/STIM_010.jpg
3311.623	0.515	correct	repeat	Run4	repeat/STIM_010.jpg
3315.716	0.57	correct	repeat	Run4	repeat/STIM_010.jpg
3319.392	0.702	correct	repeat	Run4	repeat/STIM_010.jpg
3323.038	0.963	correct	repeat	Run4	repeat/STIM_011.jpg
3327.388	0.694	correct	repeat	Run4	repeat/STIM_011.jpg
3330.83	0.617	correct	repeat	Run4	repeat/STIM_011.jpg
3334.318	0.74	correct	repeat	Run4	repeat/STIM_011.jpg
3338.025	0.599	correct	repeat	Run4	repeat/STIM_011.jpg
3341.552	0.512	correct	repeat	Run4	repeat/STIM_012.jpg
3345.132	0.967	correct	repeat	Run4	repeat/STIM_012.jpg
3349.671	0.652	correct	repeat	Run4	repeat/STIM_012.jpg
3352.827	0.94	correct	repeat	Run4	repeat/STIM_012.jpg
3356.553	0.735	correct	repeat	Run4	repeat/STIM_012.jpg
3360.757	0.902	correct	repeat	Run4	repeat/STIM_013.jpg
3365.323	0.54	correct	repeat	Run4	repeat/STIM_013.jpg
3369.578	0.925	correct	repeat	Run4	repeat/STIM_013.jpg
3372.646	0.516	correct	repeat	Run4	repeat/STIM_013.jpg
3376.211	0.901	correct	repeat	Run4	repeat/STIM_013.jpg
3379.832	0.922	correct	repeat	Run4	repeat/STIM_014.jpg
3384.594	0.715	correct	repeat	Run4	repeat/STIM_014.jpg
3387.337	0.949	correct	repeat	Run4	repeat/STIM_014.jpg
3391.668	0.492	correct	repeat	Run4	repeat/STIM_014.jpg
3395.877	0.572	correct	repeat	Run4	repeat/STIM_014.jpg
