onset	duration	response_time_ms	trial_type	learning_stage	stimulus	response_port
0.0	2.281	2280.9	generate	Run1	generate/STIM_000.jpg	99
4.285	2.02	2019.7	generate	Run1	generate/STIM_000.jpg	99
9.972	1.913	1913.3	generate	Run1	generate/STIM_000.jpg	99
15.427	1.821	1821.4	generate	Run1	generate/STIM_000.jpg	99
19.252	1.405	1405.3	generate	Run1	generate/STIM_000.jpg	100
24.645	2.374	2374.0	generate	Run1	generate/STIM_001.jpg	99
29.471	2.51	2510.2	generate	Run1	generate/STIM_001.jpg	100
34.27	2.588	2587.9	generate	Run1	generate/STIM_001.jpg	100
39.691	1.022	1021.6	generate	Run1	generate/STIM_001.jpg	100
44.24	1.637	1637.2	generate	Run1	generate/STIM_001.jpg	99
48.061	1.401	1401.1	generate	Run1	generate/STIM_002.jpg	100
52.809	2.148	2148.5	generate	Run1	generate/STIM_002.jpg	100
58.063	1.273	1272.8	generate	Run1	generate/STIM_002.jpg	99
61.659	1.058	1058.5	generate	Run1	generate/STIM_002.jpg	99
65.637	1.509	1509.3	generate	Run1	generate/STIM_002.jpg	99
70.084	1.415	1415.4	generate	Run1	generate/STIM_003.jpg	99
74.368	1.845	1844.8	generate	Run1	generate/STIM_003.jpg	100
79.781	2.47	2469.9	generate	Run1	generate/STIM_003.jpg	100
85.464	1.59	1589.7	generate	Run1	generate/STIM_003.jpg	99
89.091	1.797	1796.7	generate	Run1	generate/STIM_003.jpg	100
94.678	1.487	1487.2	generate	Run1	generate/STIM_004.jpg	100
100.104	1.227	1226.8	generate	Run1	generate/STIM_004.jpg	100
103.807	1.223	1222.7	generate	Run1	generate/STIM_004.jpg	99
107.598	1.901	1901.4	generate	Run1	generate/STIM_004.jpg	99
112.893	1.198	1197.9	generate	Run1	generate/STIM_004.jpg	99
116.74	2.712	2712.3	generate	Run1	generate/STIM_005.jpg	99
122.876	2.329	2329.2	generate	Run1	generate/STIM_005.jpg	99
128.641	1.21	1209.5	generate	Run1	generate/STIM_005.jpg	100
132.182	1.118	1118.3	generate	Run1	generate/STIM_005.jpg	99
136.671	1.155	1154.6	generate	Run1	generate/STIM_005.jpg	100
141.784	2.0	2000.1	generate	Run1	generate/STIM_006.jpg	99
146.804	1.618	1618.5	generate	Run1	generate/STIM_006.jpg	99
152.342	1.511	1510.6	generate	Run1	generate/STIM_006.jpg	99
155.978	1.854	1854.2	generate	Run1	generate/STIM_006.jpg	100
160.4	0.971	970.9	generate	Run1	generate/STIM_006.jpg	99
164.061	1.801	1800.9	generate	Run1	generate/STIM_007.jpg	99
167.998	1.273	1273.0	generate	Run1	generate/STIM_007.jpg	99
171.72	1.328	1327.9	generate	Run1	generate/STIM_007.jpg	100
175.214	1.898	1897.7	generate	Run1	generate/STIM_007.jpg	100
179.888	0.944	943.8	generate	Run1	generate/STIM_007.jpg	99
183.797	1.92	1920.3	generate	Run1	generate/STIM_008.jpg	100
188.504	1.121	1120.6	generate	Run1	generate/STIM_008.jpg	100
192.516	1.78	1780.5	generate	Run1	generate/STIM_008.jpg	100
198.197	2.208	2207.6	generate	Run1	generate/STIM_008.jpg	100
202.59	1.693	1693.3	generate	Run1	generate/STIM_008.jpg	99
206.882	1.251	1250.7	generate	Run1	generate/STIM_009.jpg	100
210.418	2.671	2671.4	generate	Run1	generate/STIM_009.jpg	99
216.473	1.499	1499.0	generate	Run1	generate/STIM_009.jpg	99
221.14	2.338	2338.4	generate	Run1	generate/STIM_009.jpg	100
227.416	1.352	1352.2	generate	Run1	generate/STIM_009.jpg	99
231.051	2.171	2170.9	generate	Run1	generate/STIM_010.jpg	100
237.18	2.679	2679.4	generate	Run1	generate/STIM_010.jpg	99
243.296	1.33	1330.4	generate	Run1	generate/STIM_010.jpg	99
248.46	1.364	1363.9	generate	Run1	generate/STIM_010.jpg	100
252.122	1.46	1459.5	generate	Run1	generate/STIM_010.jpg	100
255.639	1.812	1811.5	generate	Run1	generate/STIM_011.jpg	99
260.325	2.292	2291.6	generate	Run1	generate/STIM_011.jpg	99
264.69	2.448	2448.4	generate	Run1	generate/STIM_011.jpg	100
269.157	2.28	2279.5	generate	Run1	generate/STIM_011.jpg	100
274.975	1.28	1280.0	generate	Run1	generate/STIM_011.jpg	99
279.129	1.632	1631.5	generate	Run1	generate/STIM_012.jpg	100
282.782	2.586	2586.0	generate	Run1	generate/STIM_012.jpg	100
289.2	1.985	1985.4	generate	Run1	generate/STIM_012.jpg	99
293.322	2.186	2185.6	generate	Run1	generate/STIM_012.jpg	99
298.891	1.517	1517.0	generate	Run1	generate/STIM_012.jpg	100
303.68	2.043	2042.8	generate	Run1	generate/STIM_013.jpg	100
308.012	1.833	1833.4	generate	Run1	generate/STIM_013.jpg	100
312.712	2.614	2613.6	generate	Run1	generate/STIM_013.jpg	100
317.483	1.664	1664.5	generate	Run1	generate/STIM_013.jpg	99
322.843	1.269	1268.8	generate	Run1	generate/STIM_013.jpg	99
327.668	1.934	1934.1	generate	Run1	generate/STIM_014.jpg	100
333.334	1.161	1161.4	generate	Run1	generate/STIM_014.jpg	100
337.356	2.009	2008.8	generate	Run1	generate/STIM_014.jpg	100
341.808	1.559	1558.6	generate	Run1	generate/STIM_014.jpg	100
345.951	1.504	1503.8	generate	Run1	generate/STIM_014.jpg	99
351.207	1.685	1684.9	generate	Run1	generate/STIM_015.jpg	99
355.174	1.706	1705.6	generate	Run1	generate/STIM_015.jpg	100
359.197	2.413	2412.7	generate	Run1	generate/STIM_015.jpg	99
364.905	1.53	1530.3	generate	Run1	generate/STIM_015.jpg	99
368.947	0.984	983.5	generate	Run1	generate/STIM_015.jpg	99
373.085	1.594	1594.4	generate	Run1	generate/STIM_016.jpg	100
377.456	1.909	1908.9	generate	Run1	generate/STIM_016.jpg	99
382.308	2.367	2366.8	generate	Run1	generate/STIM_016.jpg	100
387.765	1.784	1783.7	generate	Run1	generate/STIM_016.jpg	99
392.846	1.711	1710.7	generate	Run1	generate/STIM_016.jpg	100
396.752	2.191	2191.2	generate	Run1	generate/STIM_017.jpg	100
402.516	1.493	1493.0	generate	Run1	generate/STIM_017.jpg	100
407.367	2.185	2184.6	generate	Run1	generate/STIM_017.jpg	100
412.19	2.016	2015.9	generate	Run1	generate/STIM_017.jpg	99
417.219	1.212	1211.5	generate	Run1	generate/STIM_017.jpg	99
421.834	2.904	2903.7	generate	Run1	generate/STIM_018.jpg	99
427.453	2.662	2662.0	generate	Run1	generate/STIM_018.jpg	100
433.441	2.28	2279.9	generate	Run1	generate/STIM_018.jpg	100
439.538	1.402	1401.8	generate	Run1	generate/STIM_018.jpg	100
443.04	1.666	1666.3	generate	Run1	generate/STIM_018.jpg	100
447.037	2.895	2895.2	generate	Run1	generate/STIM_019.jpg	99
453.787	2.733	2733.4	generate	Run1	generate/STIM_019.jpg	100
459.741	1.386	1386.1	generate	Run1	generate/STIM_019.jpg	100
463.539	2.349	2349.1	generate	Run1	generate/STIM_019.jpg	100
469.217	1.659	1658.8	generate	Run1	generate/STIM_019.jpg	100
473.022	1.597	1597.2	generate	Run1	generate/STIM_020.jpg	100
478.17	1.17	1170.1	generate	Run1	generate/STIM_020.jpg	99
482.377	1.269	1268.9	generate	Run1	generate/STIM_020.jpg	100
486.002	1.886	1886.3	generate	Run1	generate/STIM_020.jpg	99
490.54	1.21	1210.2	generate	Run1	generate/STIM_020.jpg	100
495.075	1.421	1420.9	generate	Run1	generate/STIM_021.jpg	99
499.148	2.169	2169.2	generate	Run1	generate/STIM_021.jpg	99
504.145	1.07	1070.3	generate	Run1	generate/STIM_021.jpg	99
508.755	2.198	2197.8	generate	Run1	generate/STIM_021.jpg	99
514.189	2.268	2268.4	generate	Run1	generate/STIM_021.jpg	100
519.683	2.438	2438.5	generate	Run1	generate/STIM_022.jpg	99
525.562	2.18	2179.7	generate	Run1	generate/STIM_022.jpg	100
530.005	1.191	1191.4	generate	Run1	generate/STIM_022.jpg	99
535.112	1.503	1502.8	generate	Run1	generate/STIM_022.jpg	100
540.258	1.856	1856.5	generate	Run1	generate/STIM_022.jpg	100
545.611	1.556	1556.5	generate	Run1	generate/STIM_023.jpg	99
550.002	1.667	1667.4	generate	Run1	generate/STIM_023.jpg	100
555.668	2.437	2436.7	generate	Run1	generate/STIM_023.jpg	99
561.431	1.285	1285.4	generate	Run1	generate/STIM_023.jpg	99
566.696	2.175	2175.1	generate	Run1	generate/STIM_023.jpg	100
571.831	2.242	2242.5	generate	Run1	generate/STIM_024.jpg	100
576.639	2.568	2568.4	generate	Run1	generate/STIM_024.jpg	100
582.664	1.444	1443.5	generate	Run1	generate/STIM_024.jpg	99
587.988	1.553	1552.6	generate	Run1	generate/STIM_024.jpg	100
592.295	1.982	1982.2	generate	Run1	generate/STIM_024.jpg	99
597.363	0.834	833.5	repeat	Run1	repeat/STIM_000.jpg	99
600.844	0.514	513.9	repeat	Run1	repeat/STIM_000.jpg	100
603.45	0.51	509.6	repeat	Run1	repeat/STIM_000.jpg	100
607.083	0.731	731.2	repeat	Run1	repeat/STIM_000.jpg	100
610.228	0.55	549.8	repeat	Run1	repeat/STIM_000.jpg	100
614.698	0.903	903.0	repeat	Run1	repeat/STIM_001.jpg	99
619.507	0.72	719.5	repeat	Run1	repeat/STIM_001.jpg	99
622.517	0.767	767.1	repeat	Run1	repeat/STIM_001.jpg	100
625.812	0.77	770.2	repeat	Run1	repeat/STIM_001.jpg	100
628.587	0.594	594.5	repeat	Run1	repeat/STIM_001.jpg	99
632.91	0.788	788.2	repeat	Run1	repeat/STIM_002.jpg	100
636.595	0.628	627.6	repeat	Run1	repeat/STIM_002.jpg	99
641.039	0.927	927.0	repeat	Run1	repeat/STIM_002.jpg	99
644.206	0.714	713.7	repeat	Run1	repeat/STIM_002.jpg	99
648.609	0.769	769.0	repeat	Run1	repeat/STIM_002.jpg	100
651.694	0.952	952.3	repeat	Run1	repeat/STIM_003.jpg	99
655.228	0.69	690.0	repeat	Run1	repeat/STIM_003.jpg	99
658.0	0.579	578.9	repeat	Run1	repeat/STIM_003.jpg	99
661.85	0.784	784.1	repeat	Run1	repeat/STIM_003.jpg	99
666.628	0.916	916.3	repeat	Run1	repeat/STIM_003.jpg	99
670.409	0.585	585.1	repeat	Run1	repeat/STIM_004.jpg	99
674.758	0.95	950.1	repeat	Run1	repeat/STIM_004.jpg	99
678.413	0.794	794.4	repeat	Run1	repeat/STIM_004.jpg	99
682.671	0.512	512.0	repeat	Run1	repeat/STIM_004.jpg	100
685.194	0.663	662.6	repeat	Run1	repeat/STIM_004.jpg	99
689.693	0.742	742.0	repeat	Run1	repeat/STIM_005.jpg	99
693.515	0.582	581.7	repeat	Run1	repeat/STIM_005.jpg	99
697.652	0.646	645.6	repeat	Run1	repeat/STIM_005.jpg	100
701.796	0.929	929.0	repeat	Run1	repeat/STIM_005.jpg	99
705.912	0.822	821.9	repeat	Run1	repeat/STIM_005.jpg	100
710.611	0.538	538.2	repeat	Run1	repeat/STIM_006.jpg	99
714.412	0.87	869.8	repeat	Run1	repeat/STIM_006.jpg	100
717.613	0.737	737.1	repeat	Run1	repeat/STIM_006.jpg	100
720.547	0.627	626.6	repeat	Run1	repeat/STIM_006.jpg	100
724.374	0.771	771.1	repeat	Run1	repeat/STIM_006.jpg	99
729.099	0.833	833.2	repeat	Run1	repeat/STIM_007.jpg	100
733.922	0.87	870.4	repeat	Run1	repeat/STIM_007.jpg	100
738.208	0.785	785.1	repeat	Run1	repeat/STIM_007.jpg	100
741.101	0.76	760.3	repeat	Run1	repeat/STIM_007.jpg	100
744.818	0.55	550.1	repeat	Run1	repeat/STIM_007.jpg	100
747.845	0.556	556.5	repeat	Run1	repeat/STIM_008.jpg	99
750.852	0.961	961.2	repeat	Run1	repeat/STIM_008.jpg	100
755.265	0.788	788.3	repeat	Run1	repeat/STIM_008.jpg	99
758.592	0.65	650.2	repeat	Run1	repeat/STIM_008.jpg	99
763.198	0.554	553.7	repeat	Run1	repeat/STIM_008.jpg	99
766.312	0.599	598.9	repeat	Run1	repeat/STIM_009.jpg	100
769.099	0.878	877.5	repeat	Run1	repeat/STIM_009.jpg	100
773.354	0.642	641.9	repeat	Run1	repeat/STIM_009.jpg	99
777.357	0.757	756.8	repeat	Run1	repeat/STIM_009.jpg	100
780.575	0.742	741.8	repeat	Run1	repeat/STIM_009.jpg	99
783.599	0.684	684.5	repeat	Run1	repeat/STIM_010.jpg	99
787.298	0.68	680.2	repeat	Run1	repeat/STIM_010.jpg	99
791.002	0.794	794.1	repeat	Run1	repeat/STIM_010.jpg	100
795.468	0.729	729.2	repeat	Run1	repeat/STIM_010.jpg	99
799.976	0.573	573.4	repeat	Run1	repeat/STIM_010.jpg	100
803.033	0.849	848.6	repeat	Run1	repeat/STIM_011.jpg	100
807.736	0.72	720.4	repeat	Run1	repeat/STIM_011.jpg	100
810.528	0.855	855.1	repeat	Run1	repeat/STIM_011.jpg	100
815.334	0.931	931.3	repeat	Run1	repeat/STIM_011.jpg	100
818.484	0.527	527.0	repeat	Run1	repeat/STIM_011.jpg	100
821.316	0.958	958.1	repeat	Run1	repeat/STIM_012.jpg	99
824.726	0.53	530.4	repeat	Run1	repeat/STIM_012.jpg	99
827.852	0.917	917.2	repeat	Run1	repeat/STIM_012.jpg	100
832.031	0.69	690.0	repeat	Run1	repeat/STIM_012.jpg	99
836.373	0.691	690.7	repeat	Run1	repeat/STIM_012.jpg	100
841.015	0.754	753.7	repeat	Run1	repeat/STIM_013.jpg	100
844.516	0.567	566.7	repeat	Run1	repeat/STIM_013.jpg	100
848.608	0.729	728.8	repeat	Run1	repeat/STIM_013.jpg	100
851.359	0.65	650.0	repeat	Run1	repeat/STIM_013.jpg	100
855.664	0.833	832.7	repeat	Run1	repeat/STIM_013.jpg	100
859.432	0.603	602.7	repeat	Run1	repeat/STIM_014.jpg	100
863.546	0.799	799.0	repeat	Run1	repeat/STIM_014.jpg	99
868.297	0.678	678.0	repeat	Run1	repeat/STIM_014.jpg	100
872.97	0.926	926.2	repeat	Run1	repeat/STIM_014.jpg	99
877.867	0.829	829.0	repeat	Run1	repeat/STIM_014.jpg	100
881.202	1.916	1915.8	generate	Run2	generate/STIM_000.jpg	99
885.891	2.013	2012.7	generate	Run2	generate/STIM_000.jpg	99
890.697	2.088	2088.5	generate	Run2	generate/STIM_000.jpg	99
895.189	1.711	1710.7	generate	Run2	generate/STIM_000.jpg	100
899.316	0.994	994.5	generate	Run2	generate/STIM_000.jpg	100
904.281	1.312	1311.6	generate	Run2	generate/STIM_001.jpg	100
908.407	1.016	1016.1	generate	Run2	generate/STIM_001.jpg	100
913.106	1.728	1728.4	generate	Run2	generate/STIM_001.jpg	99
918.193	1.248	1247.8	generate	Run2	generate/STIM_001.jpg	99
922.756	1.052	1051.7	generate	Run2	generate/STIM_001.jpg	99
927.359	1.012	1011.5	generate	Run2	generate/STIM_002.jpg	100
930.783	1.091	1090.6	generate	Run2	generate/STIM_002.jpg	100
934.289	2.09	2090.3	generate	Run2	generate/STIM_002.jpg	99
939.045	1.696	1696.2	generate	Run2	generate/STIM_002.jpg	99
944.233	1.278	1278.4	generate	Run2	generate/STIM_002.jpg	100
948.694	1.376	1376.2	generate	Run2	generate/STIM_003.jpg	100
953.921	1.037	1036.8	generate	Run2	generate/STIM_003.jpg	99
958.647	1.612	1612.0	generate	Run2	generate/STIM_003.jpg	99
962.327	0.892	892.1	generate	Run2	generate/STIM_003.jpg	100
965.591	1.338	1337.8	generate	Run2	generate/STIM_003.jpg	100
970.662	2.307	2306.6	generate	Run2	generate/STIM_004.jpg	100
975.222	1.077	1076.6	generate	Run2	generate/STIM_004.jpg	100
980.074	1.714	1714.2	generate	Run2	generate/STIM_004.jpg	100
985.587	1.769	1769.3	generate	Run2	generate/STIM_004.jpg	99
991.076	1.035	1035.4	generate	Run2	generate/STIM_004.jpg	99
995.801	1.775	1774.7	generate	Run2	generate/STIM_005.jpg	100
1000.876	1.919	1918.7	generate	Run2	generate/STIM_005.jpg	100
1006.477	0.93	929.7	generate	Run2	generate/STIM_005.jpg	99
1009.574	1.894	1893.7	generate	Run2	generate/STIM_005.jpg	100
1015.381	1.99	1989.9	generate	Run2	generate/STIM_005.jpg	99
1020.674	2.025	2024.9	generate	Run2	generate/STIM_006.jpg	99
1025.57	1.426	1426.5	generate	Run2	generate/STIM_006.jpg	99
1029.324	2.055	2055.4	generate	Run2	generate/STIM_006.jpg	100
1035.287	1.343	1343.2	generate	Run2	generate/STIM_006.jpg	100
1038.858	1.045	1045.4	generate	Run2	generate/STIM_006.jpg	100
1043.283	2.032	2031.6	generate	Run2	generate/STIM_007.jpg	99
1048.836	2.254	2254.3	generate	Run2	generate/STIM_007.jpg	99
1053.306	2.049	2049.0	generate	Run2	generate/STIM_007.jpg	100
1058.917	1.972	1972.1	generate	Run2	generate/STIM_007.jpg	99
1063.86	1.09	1089.7	generate	Run2	generate/STIM_007.jpg	99
1067.245	1.007	1007.3	generate	Run2	generate/STIM_008.jpg	100
1070.806	1.173	1173.3	generate	Run2	generate/STIM_008.jpg	99
1075.102	1.331	1331.4	generate	Run2	generate/STIM_008.jpg	100
1078.702	1.874	1873.5	generate	Run2	generate/STIM_008.jpg	100
1083.81	1.656	1655.5	generate	Run2	generate/STIM_008.jpg	100
1087.48	1.833	1832.9	generate	Run2	generate/STIM_009.jpg	100
1093.291	1.755	1754.8	generate	Run2	generate/STIM_009.jpg	99
1097.988	1.685	1684.8	generate	Run2	generate/STIM_009.jpg	100
1102.222	1.135	1135.1	generate	Run2	generate/STIM_009.jpg	99
1106.704	1.648	1647.9	generate	Run2	generate/STIM_009.jpg	99
1111.055	1.736	1736.1	generate	Run2	generate/STIM_010.jpg	100
1115.309	1.77	1770.1	generate	Run2	generate/STIM_010.jpg	100
1119.901	2.11	2110.0	generate	Run2	generate/STIM_010.jpg	99
1125.16	1.835	1834.8	generate	Run2	generate/STIM_010.jpg	99
1130.729	1.353	1353.4	generate	Run2	generate/STIM_010.jpg	100
1134.189	1.534	1534.2	generate	Run2	generate/STIM_011.jpg	99
1138.324	1.124	1124.3	generate	Run2	generate/STIM_011.jpg	99
1142.577	1.614	1613.6	generate	Run2	generate/STIM_011.jpg	99
1146.581	1.364	1364.5	generate	Run2	generate/STIM_011.jpg	100
1150.033	1.761	1761.3	generate	Run2	generate/STIM_011.jpg	100
1155.786	1.916	1916.2	generate	Run2	generate/STIM_012.jpg	99
1160.756	2.22	2220.4	generate	Run2	generate/STIM_012.jpg	100
1165.548	1.104	1103.8	generate	Run2	generate/STIM_012.jpg	100
1169.021	1.546	1546.2	generate	Run2	generate/STIM_012.jpg	100
1174.287	1.035	1034.9	generate	Run2	generate/STIM_012.jpg	100
1177.65	2.475	2474.7	generate	Run2	generate/STIM_013.jpg	100
1182.482	1.946	1946.5	generate	Run2	generate/STIM_013.jpg	100
1186.614	1.766	1765.5	generate	Run2	generate/STIM_013.jpg	99
1191.66	1.52	1519.8	generate	Run2	generate/STIM_013.jpg	99
1196.195	1.932	1931.5	generate	Run2	generate/STIM_013.jpg	100
1200.935	1.674	1674.5	generate	Run2	generate/STIM_014.jpg	99
1206.367	1.375	1375.3	generate	Run2	generate/STIM_014.jpg	100
1210.491	1.712	1712.1	generate	Run2	generate/STIM_014.jpg	99
1214.906	2.011	2010.6	generate	Run2	generate/STIM_014.jpg	99
1219.237	1.63	1629.6	generate	Run2	generate/STIM_014.jpg	100
1223.56	1.87	1870.4	generate	Run2	generate/STIM_015.jpg	99
1229.045	2.027	2027.1	generate	Run2	generate/STIM_015.jpg	100
1234.508	1.423	1423.4	generate	Run2	generate/STIM_015.jpg	100
1239.141	1.251	1251.1	generate	Run2	generate/STIM_015.jpg	99
1244.235	0.966	966.1	generate	Run2	generate/STIM_015.jpg	100
1249.16	1.647	1647.3	generate	Run2	generate/STIM_016.jpg	100
1253.377	1.208	1208.1	generate	Run2	generate/STIM_016.jpg	99
1258.252	1.336	1336.4	generate	Run2	generate/STIM_016.jpg	100
1262.178	1.343	1342.7	generate	Run2	generate/STIM_016.jpg	99
1266.057	1.635	1635.3	generate	Run2	generate/STIM_016.jpg	99
1271.249	1.666	1666.3	generate	Run2	generate/STIM_017.jpg	100
1276.331	1.681	1681.0	generate	Run2	generate/STIM_017.jpg	99
1280.536	1.439	1438.8	generate	Run2	generate/STIM_017.jpg	100
1284.122	1.508	1507.5	generate	Run2	generate/STIM_017.jpg	99
1288.372	1.502	1501.9	generate	Run2	generate/STIM_017.jpg	100
1292.849	2.197	2197.0	generate	Run2	generate/STIM_018.jpg	100
1297.374	1.418	1417.5	generate	Run2	generate/STIM_018.jpg	99
1300.951	1.662	1662.4	generate	Run2	generate/STIM_018.jpg	99
1306.497	1.496	1495.8	generate	Run2	generate/STIM_018.jpg	99
1311.382	1.749	1748.8	generate	Run2	generate/STIM_018.jpg	99
1316.211	2.196	2196.2	generate	Run2	generate/STIM_019.jpg	99
1321.77	1.719	1719.0	generate	Run2	generate/STIM_019.jpg	100
1326.314	1.155	1154.9	generate	Run2	generate/STIM_019.jpg	99
1330.994	1.026	1026.5	generate	Run2	generate/STIM_019.jpg	100
1334.601	1.06	1060.4	generate	Run2	generate/STIM_019.jpg	99
1337.9	1.122	1122.5	generate	Run2	generate/STIM_020.jpg	99
1342.268	1.277	1276.6	generate	Run2	generate/STIM_020.jpg	100
1346.289	1.08	1080.0	generate	Run2	generate/STIM_020.jpg	100
1349.894	1.777	1777.4	generate	Run2	generate/STIM_020.jpg	99
1355.255	1.632	1631.9	generate	Run2	generate/STIM_020.jpg	99
1360.114	2.174	2173.7	generate	Run2	generate/STIM_021.jpg	99
1365.618	1.678	1677.5	generate	Run2	generate/STIM_021.jpg	100
1370.908	1.343	1342.8	generate	Run2	generate/STIM_021.jpg	99
1374.879	1.285	1285.2	generate	Run2	generate/STIM_021.jpg	99
1378.596	1.541	1540.7	generate	Run2	generate/STIM_021.jpg	99
1382.806	1.236	1236.1	generate	Run2	generate/STIM_022.jpg	99
1387.185	1.462	1461.6	generate	Run2	generate/STIM_022.jpg	100
1391.506	1.542	1542.4	generate	Run2	generate/STIM_022.jpg	100
1396.451	1.526	1525.5	generate	Run2	generate/STIM_022.jpg	99
1400.059	1.409	1408.6	generate	Run2	generate/STIM_022.jpg	99
1405.251	1.766	1765.9	generate	Run2	generate/STIM_023.jpg	99
1409.263	2.164	2163.5	generate	Run2	generate/STIM_023.jpg	100
1413.612	0.89	890.4	generate	Run2	generate/STIM_023.jpg	99
1417.48	1.467	1467.3	generate	Run2	generate/STIM_023.jpg	100
1422.221	1.109	1108.9	generate	Run2	generate/STIM_023.jpg	99
1426.181	1.685	1685.3	generate	Run2	generate/STIM_024.jpg	100
1430.242	1.724	1723.7	generate	Run2	generate/STIM_024.jpg	99
1435.726	2.027	2027.0	generate	Run2	generate/STIM_024.jpg	99
1439.961	1.985	1985.3	generate	Run2	generate/STIM_024.jpg	100
1445.855	1.429	1429.2	generate	Run2	generate/STIM_024.jpg	99
1450.289	0.501	500.9	repeat	Run2	repeat/STIM_000.jpg	99
1453.735	0.858	858.1	repeat	Run2	repeat/STIM_000.jpg	99
1457.617	0.794	794.4	repeat	Run2	repeat/STIM_000.jpg	100
1461.328	0.739	739.3	repeat	Run2	repeat/STIM_000.jpg	100
1465.864	0.547	546.6	repeat	Run2	repeat/STIM_000.jpg	100
1468.496	0.658	658.1	repeat	Run2	repeat/STIM_001.jpg	99
1471.414	0.551	551.1	repeat	Run2	repeat/STIM_001.jpg	100
1475.773	0.912	911.8	repeat	Run2	repeat/STIM_001.jpg	100
1478.887	0.911	911.1	repeat	Run2	repeat/STIM_001.jpg	100
1483.076	0.865	864.8	repeat	Run2	repeat/STIM_001.jpg	99
1486.498	0.677	677.4	repeat	Run2	repeat/STIM_002.jpg	100
1490.109	0.652	651.5	repeat	Run2	repeat/STIM_002.jpg	99
1493.726	0.523	522.7	repeat	Run2	repeat/STIM_002.jpg	99
1497.75	0.656	655.5	repeat	Run2	repeat/STIM_002.jpg	99
1501.314	0.716	715.9	repeat	Run2	repeat/STIM_002.jpg	99
1504.824	0.688	687.8	repeat	Run2	repeat/STIM_003.jpg	99
1507.672	0.724	723.8	repeat	Run2	repeat/STIM_003.jpg	100
1510.828	0.784	783.7	repeat	Run2	repeat/STIM_003.jpg	99
1513.76	0.93	930.3	repeat	Run2	repeat/STIM_003.jpg	100
1517.057	0.596	595.6	repeat	Run2	repeat/STIM_003.jpg	100
1520.653	0.966	965.8	repeat	Run2	repeat/STIM_004.jpg	99
1523.718	0.606	606.4	repeat	Run2	repeat/STIM_004.jpg	100
1528.167	0.865	864.7	repeat	Run2	repeat/STIM_004.jpg	99
1532.154	0.698	698.2	repeat	Run2	repeat/STIM_004.jpg	99
1536.604	0.692	691.9	repeat	Run2	repeat/STIM_004.jpg	99
1539.412	0.728	728.0	repeat	Run2	repeat/STIM_005.jpg	100
1543.5	0.669	669.3	repeat	Run2	repeat/STIM_005.jpg	99
1547.388	0.506	506.5	repeat	Run2	repeat/STIM_005.jpg	100
1550.768	0.831	830.9	repeat	Run2	repeat/STIM_005.jpg	100
1554.904	0.63	629.6	repeat	Run2	repeat/STIM_005.jpg	99
1558.757	0.893	892.9	repeat	Run2	repeat/STIM_006.jpg	100
1562.434	0.698	698.1	repeat	Run2	repeat/STIM_006.jpg	100
1566.864	0.948	947.7	repeat	Run2	repeat/STIM_006.jpg	100
1571.397	0.802	802.2	repeat	Run2	repeat/STIM_006.jpg	100
1576.03	0.551	551.2	repeat	Run2	repeat/STIM_006.jpg	100
1578.913	0.898	898.0	repeat	Run2	repeat/STIM_007.jpg	100
1582.116	0.954	953.8	repeat	Run2	repeat/STIM_007.jpg	100
1586.22	0.808	807.8	repeat	Run2	repeat/STIM_007.jpg	99
1589.781	0.796	795.7	repeat	Run2	repeat/STIM_007.jpg	100
1593.266	0.794	794.3	repeat	Run2	repeat/STIM_007.jpg	99
1596.837	0.605	605.1	repeat	Run2	repeat/STIM_008.jpg	99
1600.905	0.609	609.0	repeat	Run2	repeat/STIM_008.jpg	99
1605.43	0.591	591.4	repeat	Run2	repeat/STIM_008.jpg	99
1608.703	0.646	646.4	repeat	Run2	repeat/STIM_008.jpg	99
1613.073	0.788	787.7	repeat	Run2	repeat/STIM_008.jpg	100
1615.863	0.675	674.7	repeat	Run2	repeat/STIM_009.jpg	99
1619.792	0.949	948.7	repeat	Run2	repeat/STIM_009.jpg	100
1624.368	0.884	883.6	repeat	Run2	repeat/STIM_009.jpg	100
1627.771	0.953	952.8	repeat	Run2	repeat/STIM_009.jpg	99
1630.736	0.713	713.1	repeat	Run2	repeat/STIM_009.jpg	100
1635.161	0.505	504.9	repeat	Run2	repeat/STIM_010.jpg	100
1639.088	0.841	841.3	repeat	Run2	repeat/STIM_010.jpg	99
1642.388	0.902	901.5	repeat	Run2	repeat/STIM_010.jpg	99
1646.317	0.907	907.1	repeat	Run2	repeat/STIM_010.jpg	100
1650.738	0.767	767.4	repeat	Run2	repeat/STIM_010.jpg	99
1654.027	0.912	911.6	repeat	Run2	repeat/STIM_011.jpg	100
1657.12	0.562	561.5	repeat	Run2	repeat/STIM_011.jpg	100
1660.568	0.97	970.5	repeat	Run2	repeat/STIM_011.jpg	100
1665.118	0.934	934.5	repeat	Run2	repeat/STIM_011.jpg	100
1669.73	0.954	954.5	repeat	Run2	repeat/STIM_011.jpg	100
1673.151	0.865	864.7	repeat	Run2	repeat/STIM_012.jpg	100
1676.262	0.525	525.4	repeat	Run2	repeat/STIM_012.jpg	100
1680.084	0.629	629.1	repeat	Run2	repeat/STIM_012.jpg	99
1684.68	0.773	773.1	repeat	Run2	repeat/STIM_012.jpg	99
1687.844	0.66	659.9	repeat	Run2	repeat/STIM_012.jpg	100
1691.667	0.623	623.4	repeat	Run2	repeat/STIM_013.jpg	100
1694.514	0.592	591.6	repeat	Run2	repeat/STIM_013.jpg	99
1697.338	0.778	777.8	repeat	Run2	repeat/STIM_013.jpg	100
1701.531	0.781	781.1	repeat	Run2	repeat/STIM_013.jpg	100
1706.024	0.852	852.1	repeat	Run2	repeat/STIM_013.jpg	100
1709.405	0.824	823.5	repeat	Run2	repeat/STIM_014.jpg	100
1713.118	0.618	617.5	repeat	Run2	repeat/STIM_014.jpg	100
1717.274	0.626	625.9	repeat	Run2	repeat/STIM_014.jpg	100
1720.831	0.809	809.3	repeat	Run2	repeat/STIM_014.jpg	100
1724.992	0.723	722.7	repeat	Run2	repeat/STIM_014.jpg	100
1727.818	1.112	1112.4	generate	Run3	generate/STIM_000.jpg	99
1731.161	1.774	1774.5	generate	Run3	generate/STIM_000.jpg	99
1735.801	1.772	1771.5	generate	Run3	generate/STIM_000.jpg	99
1740.824	1.224	1224.4	generate	Run3	generate/STIM_000.jpg	99
1744.542	0.888	888.4	generate	Run3	generate/STIM_000.jpg	100
1748.511	0.908	908.5	generate	Run3	generate/STIM_001.jpg	100
1753.323	1.007	1006.6	generate	Run3	generate/STIM_001.jpg	100
1756.592	1.962	1962.1	generate	Run3	generate/STIM_001.jpg	99
1760.81	1.183	1183.4	generate	Run3	generate/STIM_001.jpg	100
1765.427	1.926	1926.4	generate	Run3	generate/STIM_001.jpg	99
1769.959	1.051	1051.2	generate	Run3	generate/STIM_002.jpg	100
1773.508	1.797	1797.3	generate	Run3	generate/STIM_002.jpg	100
1777.335	1.247	1247.2	generate	Run3	generate/STIM_002.jpg	99
1781.253	0.869	868.7	generate	Run3	generate/STIM_002.jpg	100
1785.316	1.633	1633.0	generate	Run3	generate/STIM_002.jpg	100
1789.693	1.82	1819.5	generate	Run3	generate/STIM_003.jpg	99
1795.023	1.479	1479.0	generate	Run3	generate/STIM_003.jpg	100
1798.649	1.082	1081.8	generate	Run3	generate/STIM_003.jpg	100
1801.76	2.027	2027.5	generate	Run3	generate/STIM_003.jpg	99
1806.076	1.459	1458.6	generate	Run3	generate/STIM_003.jpg	100
1811.159	1.286	1285.7	generate	Run3	generate/STIM_004.jpg	100
1815.233	1.122	1121.9	generate	Run3	generate/STIM_004.jpg	99
1819.13	1.892	1891.6	generate	Run3	generate/STIM_004.jpg	99
1823.783	1.669	1669.3	generate	Run3	generate/STIM_004.jpg	100
1828.889	1.169	1168.8	generate	Run3	generate/STIM_004.jpg	100
1833.856	1.455	1454.7	generate	Run3	generate/STIM_005.jpg	99
1837.536	1.174	1174.0	generate	Run3	generate/STIM_005.jpg	100
1841.614	1.915	1915.0	generate	Run3	generate/STIM_005.jpg	100
1847.436	0.822	822.1	generate	Run3	generate/STIM_005.jpg	100
1850.557	1.924	1923.6	generate	Run3	generate/STIM_005.jpg	99
1855.126	0.888	888.4	generate	Run3	generate/STIM_006.jpg	100
1859.572	1.37	1370.1	generate	Run3	generate/STIM_006.jpg	99
1864.645	1.138	1138.1	generate	Run3	generate/STIM_006.jpg	100
1869.765	0.995	994.6	generate	Run3	generate/STIM_006.jpg	99
1873.669	1.85	1849.8	generate	Run3	generate/STIM_006.jpg	99
1879.431	1.775	1775.4	generate	Run3	generate/STIM_007.jpg	100
1884.4	1.902	1901.6	generate	Run3	generate/STIM_007.jpg	100
1888.906	1.208	1208.2	generate	Run3	generate/STIM_007.jpg	100
1894.042	1.441	1440.9	generate	Run3	generate/STIM_007.jpg	99
1898.588	1.613	1613.0	generate	Run3	generate/STIM_007.jpg	99
1903.52	1.28	1280.0	generate	Run3	generate/STIM_008.jpg	100
1906.81	1.627	1627.0	generate	Run3	generate/STIM_008.jpg	99
1910.859	0.988	988.3	generate	Run3	generate/STIM_008.jpg	99
1914.77	1.35	1349.6	generate	Run3	generate/STIM_008.jpg	99
1919.89	1.128	1128.0	generate	Run3	generate/STIM_008.jpg	99
1923.716	1.319	1319.0	generate	Run3	generate/STIM_009.jpg	99
1928.56	1.958	1957.5	generate	Run3	generate/STIM_009.jpg	99
1932.992	1.294	1293.6	generate	Run3	generate/STIM_009.jpg	99
1937.273	1.167	1167.0	generate	Run3	generate/STIM_009.jpg	100
1941.618	1.765	1764.7	generate	Run3	generate/STIM_009.jpg	99
1946.351	0.848	848.5	generate	Run3	generate/STIM_010.jpg	99
1950.132	1.688	1687.6	generate	Run3	generate/STIM_010.jpg	99
1955.735	0.957	957.2	generate	Run3	generate/STIM_010.jpg	99
1959.339	1.296	1296.5	generate	Run3	generate/STIM_010.jpg	99
1963.95	1.357	1357.2	generate	Run3	generate/STIM_010.jpg	100
1968.983	1.11	1109.6	generate	Run3	generate/STIM_011.jpg	100
1974.082	0.861	861.1	generate	Run3	generate/STIM_011.jpg	99
1978.853	1.532	1531.9	generate	Run3	generate/STIM_011.jpg	100
1983.28	1.529	1529.1	generate	Run3	generate/STIM_011.jpg	100
1988.005	0.922	921.7	generate	Run3	generate/STIM_011.jpg	100
1992.829	1.353	1352.7	generate	Run3	generate/STIM_012.jpg	100
1997.061	0.841	840.9	generate	Run3	generate/STIM_012.jpg	99
2000.415	1.554	1554.5	generate	Run3	generate/STIM_012.jpg	99
2005.762	1.456	1456.5	generate	Run3	generate/STIM_012.jpg	100
2010.181	1.682	1681.9	generate	Run3	generate/STIM_012.jpg	100
2015.324	2.029	2029.2	generate	Run3	generate/STIM_013.jpg	99
2019.754	0.818	818.4	generate	Run3	generate/STIM_013.jpg	100
2024.187	1.27	1269.9	generate	Run3	generate/STIM_013.jpg	100
2027.754	0.841	841.2	generate	Run3	generate/STIM_013.jpg	99
2031.492	1.134	1133.7	generate	Run3	generate/STIM_013.jpg	100
2036.306	1.872	1871.5	generate	Run3	generate/STIM_014.jpg	100
2041.572	1.759	1759.1	generate	Run3	generate/STIM_014.jpg	100
2046.996	0.852	851.8	generate	Run3	generate/STIM_014.jpg	99
2051.183	0.94	939.8	generate	Run3	generate/STIM_014.jpg	99
2054.489	1.496	1495.8	generate	Run3	generate/STIM_014.jpg	99
2059.802	1.938	1937.6	generate	Run3	generate/STIM_015.jpg	100
2065.716	1.046	1046.3	generate	Run3	generate/STIM_015.jpg	99
2069.87	1.498	1498.4	generate	Run3	generate/STIM_015.jpg	100
2073.764	1.962	1962.4	generate	Run3	generate/STIM_015.jpg	99
2079.688	1.57	1570.2	generate	Run3	generate/STIM_015.jpg	99
2084.23	0.912	912.3	generate	Run3	generate/STIM_016.jpg	99
2088.429	0.968	968.2	generate	Run3	generate/STIM_016.jpg	99
2092.605	1.684	1684.4	generate	Run3	generate/STIM_016.jpg	99
2098.126	1.059	1059.2	generate	Run3	generate/STIM_016.jpg	99
2102.549	1.606	1605.7	generate	Run3	generate/STIM_016.jpg	99
2107.741	1.111	1111.1	generate	Run3	generate/STIM_017.jpg	99
2112.555	1.248	1248.5	generate	Run3	generate/STIM_017.jpg	99
2116.962	0.992	992.0	generate	Run3	generate/STIM_017.jpg	100
2121.246	1.328	1328.3	generate	Run3	generate/STIM_017.jpg	99
2126.506	1.028	1027.5	generate	Run3	generate/STIM_017.jpg	100
2129.984	1.552	1552.4	generate	Run3	generate/STIM_018.jpg	100
2133.647	1.16	1160.0	generate	Run3	generate/STIM_018.jpg	100
2138.221	2.015	2015.0	generate	Run3	generate/STIM_018.jpg	100
2143.75	1.931	1931.1	generate	Run3	generate/STIM_018.jpg	100
2147.815	1.009	1009.2	generate	Run3	generate/STIM_018.jpg	100
2150.898	1.364	1364.5	generate	Run3	generate/STIM_019.jpg	100
2154.404	2.013	2012.9	generate	Run3	generate/STIM_019.jpg	100
2158.653	0.936	935.7	generate	Run3	generate/STIM_019.jpg	100
2162.865	1.638	1637.7	generate	Run3	generate/STIM_019.jpg	100
2167.627	1.995	1995.2	generate	Run3	generate/STIM_019.jpg	99
2172.772	1.225	1224.9	generate	Run3	generate/STIM_020.jpg	100
2177.553	1.882	1882.0	generate	Run3	generate/STIM_020.jpg	99
2181.633	1.633	1632.7	generate	Run3	generate/STIM_020.jpg	100
2186.405	1.486	1486.4	generate	Run3	generate/STIM_020.jpg	99
2191.818	1.61	1610.1	generate	Run3	generate/STIM_020.jpg	100
2197.068	1.885	1884.9	generate	Run3	generate/STIM_021.jpg	100
2201.116	0.924	924.1	generate	Run3	generate/STIM_021.jpg	99
2204.665	1.574	1574.3	generate	Run3	generate/STIM_021.jpg	100
2209.885	1.642	1642.2	generate	Run3	generate/STIM_021.jpg	100
2214.453	1.958	1957.5	generate	Run3	generate/STIM_021.jpg	99
2219.685	1.609	1609.4	generate	Run3	generate/STIM_022.jpg	99
2224.446	1.625	1625.2	generate	Run3	generate/STIM_022.jpg	100
2228.928	1.518	1518.1	generate	Run3	generate/STIM_022.jpg	100
2234.21	0.964	963.8	generate	Run3	generate/STIM_022.jpg	100
2237.248	0.843	843.4	generate	Run3	generate/STIM_022.jpg	100
2240.888	1.096	1096.4	generate	Run3	generate/STIM_023.jpg	99
2244.083	1.619	1618.8	generate	Run3	generate/STIM_023.jpg	100
2248.501	1.428	1427.7	generate	Run3	generate/STIM_023.jpg	99
2253.561	0.862	861.8	generate	Run3	generate/STIM_023.jpg	99
2258.267	1.921	1920.9	generate	Run3	generate/STIM_023.jpg	100
2263.298	1.78	1779.5	generate	Run3	generate/STIM_024.jpg	100
2267.275	1.971	1970.7	generate	Run3	generate/STIM_024.jpg	100
2272.21	1.896	1896.1	generate	Run3	generate/STIM_024.jpg	100
2276.417	0.929	929.4	generate	Run3	generate/STIM_024.jpg	99
2280.166	1.133	1132.9	generate	Run3	generate/STIM_024.jpg	99
2285.238	0.509	508.9	repeat	Run3	repeat/STIM_000.jpg	100
2289.685	0.551	550.8	repeat	Run3	repeat/STIM_000.jpg	99
2292.681	0.711	711.1	repeat	Run3	repeat/STIM_000.jpg	100
2296.204	0.849	848.7	repeat	Run3	repeat/STIM_000.jpg	99
2300.381	0.699	699.0	repeat	Run3	repeat/STIM_000.jpg	100
2303.761	0.957	957.2	repeat	Run3	repeat/STIM_001.jpg	100
2307.704	0.547	547.1	repeat	Run3	repeat/STIM_001.jpg	99
2310.579	0.955	955.4	repeat	Run3	repeat/STIM_001.jpg	100
2314.555	0.624	624.5	repeat	Run3	repeat/STIM_001.jpg	100
2317.614	0.797	797.0	repeat	Run3	repeat/STIM_001.jpg	99
2320.579	0.781	781.1	repeat	Run3	repeat/STIM_002.jpg	99
2324.066	0.681	681.0	repeat	Run3	repeat/STIM_002.jpg	99
2326.95	0.885	884.9	repeat	Run3	repeat/STIM_002.jpg	100
2331.397	0.566	565.9	repeat	Run3	repeat/STIM_002.jpg	99
2334.307	0.957	957.3	repeat	Run3	repeat/STIM_002.jpg	100
2337.65	0.937	937.3	repeat	Run3	repeat/STIM_003.jpg	100
2340.821	0.568	568.2	repeat	Run3	repeat/STIM_003.jpg	100
2343.472	0.928	928.3	repeat	Run3	repeat/STIM_003.jpg	99
2347.273	0.818	818.5	repeat	Run3	repeat/STIM_003.jpg	100
2351.88	0.748	748.4	repeat	Run3	repeat/STIM_003.jpg	99
2355.233	0.913	912.8	repeat	Run3	repeat/STIM_004.jpg	99
2359.997	0.644	643.6	repeat	Run3	repeat/STIM_004.jpg	99
2364.53	0.783	783.4	repeat	Run3	repeat/STIM_004.jpg	100
2368.591	0.934	933.7	repeat	Run3	repeat/STIM_004.jpg	100
2372.919	0.832	831.7	repeat	Run3	repeat/STIM_004.jpg	99
2376.562	0.676	675.9	repeat	Run3	repeat/STIM_005.jpg	99
2380.557	0.962	961.5	repeat	Run3	repeat/STIM_005.jpg	100
2384.956	0.583	583.4	repeat	Run3	repeat/STIM_005.jpg	99
2387.792	0.486	486.1	repeat	Run3	repeat/STIM_005.jpg	100
2391.65	0.69	690.5	repeat	Run3	repeat/STIM_005.jpg	100
2395.686	0.519	519.1	repeat	Run3	repeat/STIM_006.jpg	100
2400.08	0.649	649.3	repeat	Run3	repeat/STIM_006.jpg	100
2404.071	0.925	924.8	repeat	Run3	repeat/STIM_006.jpg	100
2407.47	0.81	810.4	repeat	Run3	repeat/STIM_006.jpg	100
2411.582	0.73	730.0	repeat	Run3	repeat/STIM_006.jpg	99
2415.973	0.754	754.2	repeat	Run3	repeat/STIM_007.jpg	99
2419.638	0.962	962.4	repeat	Run3	repeat/STIM_007.jpg	99
2424.075	0.705	705.1	repeat	Run3	repeat/STIM_007.jpg	99
2428.692	0.859	858.6	repeat	Run3	repeat/STIM_007.jpg	100
2432.737	0.95	949.8	repeat	Run3	repeat/STIM_007.jpg	99
2435.748	0.636	636.0	repeat	Run3	repeat/STIM_008.jpg	100
2439.787	0.742	742.2	repeat	Run3	repeat/STIM_008.jpg	99
2444.331	0.512	511.6	repeat	Run3	repeat/STIM_008.jpg	99
2448.427	0.502	502.4	repeat	Run3	repeat/STIM_008.jpg	100
2450.955	0.84	840.3	repeat	Run3	repeat/STIM_008.jpg	100
2455.296	0.809	808.7	repeat	Run3	repeat/STIM_009.jpg	100
2459.98	0.57	570.5	repeat	Run3	repeat/STIM_009.jpg	100
2464.42	0.891	890.8	repeat	Run3	repeat/STIM_009.jpg	100
2467.646	0.75	750.1	repeat	Run3	repeat/STIM_009.jpg	99
2471.63	0.54	539.8	repeat	Run3	repeat/STIM_009.jpg	99
2475.098	0.517	516.6	repeat	Run3	repeat/STIM_010.jpg	100
2478.365	0.857	857.0	repeat	Run3	repeat/STIM_010.jpg	99
2483.041	0.823	823.1	repeat	Run3	repeat/STIM_010.jpg	100
2486.344	0.909	908.6	repeat	Run3	repeat/STIM_010.jpg	100
2489.347	0.574	573.7	repeat	Run3	repeat/STIM_010.jpg	99
2492.909	0.938	938.0	repeat	Run3	repeat/STIM_011.jpg	99
2495.887	0.572	571.8	repeat	Run3	repeat/STIM_011.jpg	100
2500.342	0.96	959.6	repeat	Run3	repeat/STIM_011.jpg	100
2503.741	0.569	568.9	repeat	Run3	repeat/STIM_011.jpg	100
2507.528	0.727	727.2	repeat	Run3	repeat/STIM_011.jpg	100
2510.362	0.579	579.1	repeat	Run3	repeat/STIM_012.jpg	99
2513.112	0.523	523.2	repeat	Run3	repeat/STIM_012.jpg	99
2516.137	0.925	924.7	repeat	Run3	repeat/STIM_012.jpg	99
2520.516	0.566	565.9	repeat	Run3	repeat/STIM_012.jpg	100
2524.52	0.676	676.4	repeat	Run3	repeat/STIM_012.jpg	99
2529.081	0.833	832.6	repeat	Run3	repeat/STIM_013.jpg	100
2533.881	0.542	541.5	repeat	Run3	repeat/STIM_013.jpg	99
2536.564	0.769	768.9	repeat	Run3	repeat/STIM_013.jpg	100
2540.732	0.538	537.7	repeat	Run3	repeat/STIM_013.jpg	100
2543.928	0.643	643.2	repeat	Run3	repeat/STIM_013.jpg	99
2548.546	0.711	710.9	repeat	Run3	repeat/STIM_014.jpg	100
2552.067	0.528	527.7	repeat	Run3	repeat/STIM_014.jpg	99
2556.536	0.566	566.1	repeat	Run3	repeat/STIM_014.jpg	99
2560.6	0.807	807.1	repeat	Run3	repeat/STIM_014.jpg	99
2565.397	0.686	686.3	repeat	Run3	repeat/STIM_014.jpg	99
2568.777	1.796	1795.7	generate	Run4	generate/STIM_000.jpg	99
2574.119	1.969	1968.7	generate	Run4	generate/STIM_000.jpg	100
2579.56	1.467	1467.3	generate	Run4	generate/STIM_000.jpg	99
2583.126	0.901	900.8	generate	Run4	generate/STIM_000.jpg	100
2587.531	1.735	1735.2	generate	Run4	generate/STIM_000.jpg	99
2593.083	1.371	1370.9	generate	Run4	generate/STIM_001.jpg	100
2598.428	0.981	981.1	generate	Run4	generate/STIM_001.jpg	100
2603.234	1.774	1773.7	generate	Run4	generate/STIM_001.jpg	99
2608.532	1.004	1003.8	generate	Run4	generate/STIM_001.jpg	99
2613.416	1.566	1565.5	generate	Run4	generate/STIM_001.jpg	100
2617.371	1.303	1302.9	generate	Run4	generate/STIM_002.jpg	99
2622.409	1.159	1158.7	generate	Run4	generate/STIM_002.jpg	99
2627.15	1.722	1722.3	generate	Run4	generate/STIM_002.jpg	99
2631.664	1.618	1618.1	generate	Run4	generate/STIM_002.jpg	100
2636.651	0.975	974.8	generate	Run4	generate/STIM_002.jpg	100
2640.945	0.852	851.8	generate	Run4	generate/STIM_003.jpg	99
2644.238	1.019	1019.2	generate	Run4	generate/STIM_003.jpg	99
2647.305	1.011	1011.1	generate	Run4	generate/STIM_003.jpg	99
2651.267	1.058	1058.2	generate	Run4	generate/STIM_003.jpg	100
2655.738	1.939	1938.9	generate	Run4	generate/STIM_003.jpg	99
2660.338	1.332	1332.1	generate	Run4	generate/STIM_004.jpg	100
2664.149	1.278	1278.0	generate	Run4	generate/STIM_004.jpg	99
2669.304	1.971	1970.8	generate	Run4	generate/STIM_004.jpg	100
2674.658	1.72	1720.2	generate	Run4	generate/STIM_004.jpg	100
2680.316	1.078	1077.5	generate	Run4	generate/STIM_004.jpg	100
2684.456	1.034	1033.7	generate	Run4	generate/STIM_005.jpg	100
2688.803	1.953	1952.8	generate	Run4	generate/STIM_005.jpg	99
2693.022	0.83	830.0	generate	Run4	generate/STIM_005.jpg	100
2697.118	1.156	1155.6	generate	Run4	generate/STIM_005.jpg	99
2701.537	1.252	1252.1	generate	Run4	generate/STIM_005.jpg	99
2704.833	0.949	948.9	generate	Run4	generate/STIM_006.jpg	100
2709.513	0.902	901.8	generate	Run4	generate/STIM_006.jpg	100
2714.063	0.946	946.0	generate	Run4	generate/STIM_006.jpg	100
2717.48	0.894	894.2	generate	Run4	generate/STIM_006.jpg	99
2721.747	1.935	1935.4	generate	Run4	generate/STIM_006.jpg	99
2727.619	1.294	1294.5	generate	Run4	generate/STIM_007.jpg	99
2731.711	1.043	1043.4	generate	Run4	generate/STIM_007.jpg	100
2735.355	1.919	1918.7	generate	Run4	generate/STIM_007.jpg	100
2739.523	0.961	960.6	generate	Run4	generate/STIM_007.jpg	99
2743.123	1.304	1304.5	generate	Run4	generate/STIM_007.jpg	99
2747.962	1.384	1384.5	generate	Run4	generate/STIM_008.jpg	100
2752.422	1.604	1604.2	generate	Run4	generate/STIM_008.jpg	99
2756.884	1.469	1469.3	generate	Run4	generate/STIM_008.jpg	100
2761.886	0.866	866.1	generate	Run4	generate/STIM_008.jpg	99
2766.46	1.708	1707.8	generate	Run4	generate/STIM_008.jpg	100
2771.692	1.248	1248.2	generate	Run4	generate/STIM_009.jpg	99
2776.114	1.973	1973.2	generate	Run4	generate/STIM_009.jpg	100
2781.138	1.816	1816.1	generate	Run4	generate/STIM_009.jpg	99
2786.948	1.024	1024.5	generate	Run4	generate/STIM_009.jpg	99
2791.128	1.565	1565.0	generate	Run4	generate/STIM_009.jpg	99
2796.322	1.474	1474.4	generate	Run4	generate/STIM_010.jpg	100
2801.093	1.379	1379.1	generate	Run4	generate/STIM_010.jpg	100
2806.054	1.174	1173.7	generate	Run4	generate/STIM_010.jpg	100
2809.436	1.685	1684.8	generate	Run4	generate/STIM_010.jpg	100
2814.026	2.01	2010.1	generate	Run4	generate/STIM_010.jpg	100
2818.296	0.943	943.1	generate	Run4	generate/STIM_011.jpg	99
2821.502	1.283	1283.1	generate	Run4	generate/STIM_011.jpg	100
2825.044	1.122	1122.4	generate	Run4	generate/STIM_011.jpg	99
2828.229	1.689	1689.3	generate	Run4	generate/STIM_011.jpg	99
2832.444	1.144	1143.5	generate	Run4	generate/STIM_011.jpg	100
2836.509	1.045	1044.6	generate	Run4	generate/STIM_012.jpg	99
2840.539	0.923	922.6	generate	Run4	generate/STIM_012.jpg	99
2843.599	1.724	1724.5	generate	Run4	generate/STIM_012.jpg	100
2847.333	1.04	1040.2	generate	Run4	generate/STIM_012.jpg	99
2851.235	1.848	1847.9	generate	Run4	generate/STIM_012.jpg	99
2856.253	1.096	1096.0	generate	Run4	generate/STIM_013.jpg	100
2859.552	1.562	1561.5	generate	Run4	generate/STIM_013.jpg	100
2863.56	1.54	1540.0	generate	Run4	generate/STIM_013.jpg	99
2867.775	1.573	1573.0	generate	Run4	generate/STIM_013.jpg	99
2872.075	0.923	923.1	generate	Run4	generate/STIM_013.jpg	100
2876.136	1.534	1534.1	generate	Run4	generate/STIM_014.jpg	100
2881.51	1.504	1503.6	generate	Run4	generate/STIM_014.jpg	99
2885.807	1.822	1821.7	generate	Run4	generate/STIM_014.jpg	99
2891.053	1.808	1808.0	generate	Run4	generate/STIM_014.jpg	99
2895.093	0.83	830.2	generate	Run4	generate/STIM_014.jpg	99
2899.606	1.517	1517.0	generate	Run4	generate/STIM_015.jpg	99
2903.821	1.843	1842.6	generate	Run4	generate/STIM_015.jpg	100
2907.697	1.524	1523.6	generate	Run4	generate/STIM_015.jpg	100
2912.365	0.867	867.1	generate	Run4	generate/STIM_015.jpg	100
2916.507	1.876	1875.7	generate	Run4	generate/STIM_015.jpg	100
2920.489	1.836	1836.3	generate	Run4	generate/STIM_016.jpg	99
2924.423	1.282	1281.7	generate	Run4	generate/STIM_016.jpg	99
2929.571	1.657	1657.2	generate	Run4	generate/STIM_016.jpg	99
2934.573	1.678	1677.7	generate	Run4	generate/STIM_016.jpg	99
2939.792	1.341	1341.4	generate	Run4	generate/STIM_016.jpg	99
2943.675	1.671	1671.3	generate	Run4	generate/STIM_017.jpg	99
2947.492	1.042	1041.7	generate	Run4	generate/STIM_017.jpg	100
2951.406	1.908	1907.5	generate	Run4	generate/STIM_017.jpg	99
2956.73	0.899	898.7	generate	Run4	generate/STIM_017.jpg	99
2960.103	1.656	1656.2	generate	Run4	generate/STIM_017.jpg	100
2965.553	1.624	1624.4	generate	Run4	generate/STIM_018.jpg	99
2969.611	1.277	1277.0	generate	Run4	generate/STIM_018.jpg	100
2973.833	1.059	1059.2	generate	Run4	generate/STIM_018.jpg	100
2977.518	1.228	1227.6	generate	Run4	generate/STIM_018.jpg	100
2982.27	1.612	1611.9	generate	Run4	generate/STIM_018.jpg	99
2987.184	0.861	861.0	generate	Run4	generate/STIM_019.jpg	99
2990.503	1.037	1036.6	generate	Run4	generate/STIM_019.jpg	99
2994.09	1.172	1172.5	generate	Run4	generate/STIM_019.jpg	100
2998.33	1.636	1635.8	generate	Run4	generate/STIM_019.jpg	99
3002.193	0.955	955.1	generate	Run4	generate/STIM_019.jpg	100
3005.51	0.848	848.1	generate	Run4	generate/STIM_020.jpg	100
3010.21	0.885	885.2	generate	Run4	generate/STIM_020.jpg	99
3013.738	1.541	1541.2	generate	Run4	generate/STIM_020.jpg	99
3018.755	1.816	1815.7	generate	Run4	generate/STIM_020.jpg	99
3022.978	1.418	1418.1	generate	Run4	generate/STIM_020.jpg	100
3027.54	0.909	909.2	generate	Run4	generate/STIM_021.jpg	100
3030.534	1.999	1999.3	generate	Run4	generate/STIM_021.jpg	99
3035.997	1.996	1996.3	generate	Run4	generate/STIM_021.jpg	100
3040.569	1.91	1909.8	generate	Run4	generate/STIM_021.jpg	100
3046.124	0.987	986.8	generate	Run4	generate/STIM_021.jpg	99
3049.213	0.881	881.1	generate	Run4	generate/STIM_022.jpg	99
3053.139	1.39	1390.4	generate	Run4	generate/STIM_022.jpg	99
3056.891	1.812	1812.0	generate	Run4	generate/STIM_022.jpg	100
3061.24	1.042	1042.3	generate	Run4	generate/STIM_022.jpg	99
3065.956	1.53	1530.5	generate	Run4	generate/STIM_022.jpg	100
3071.434	1.766	1766.5	generate	Run4	generate/STIM_023.jpg	99
3076.471	1.665	1664.6	generate	Run4	generate/STIM_023.jpg	100
3081.145	1.507	1506.6	generate	Run4	generate/STIM_023.jpg	99
3085.394	1.682	1681.9	generate	Run4	generate/STIM_023.jpg	99
3089.199	0.941	941.4	generate	Run4	generate/STIM_023.jpg	99
3092.268	1.09	1090.1	generate	Run4	generate/STIM_024.jpg	100
3096.412	1.71	1709.7	generate	Run4	generate/STIM_024.jpg	100
3102.04	1.77	1769.5	generate	Run4	generate/STIM_024.jpg	99
3106.918	1.774	1774.3	generate	Run4	generate/STIM_024.jpg	100
3112.617	1.348	1347.9	generate	Run4	generate/STIM_024.jpg	99
3117.382	0.566	566.3	repeat	Run4	repeat/STIM_000.jpg	99
3121.002	0.569	569.0	repeat	Run4	repeat/STIM_000.jpg	99
3124.194	0.552	551.6	repeat	Run4	repeat/STIM_000.jpg	100
3126.792	0.665	665.0	repeat	Run4	repeat/STIM_000.jpg	100
3131.004	0.817	817.1	repeat	Run4	repeat/STIM_000.jpg	99
3134.996	0.6	600.4	repeat	Run4	repeat/STIM_001.jpg	99
3138.389	0.786	785.5	repeat	Run4	repeat/STIM_001.jpg	100
3141.324	0.84	840.3	repeat	Run4	repeat/STIM_001.jpg	100
3144.373	0.597	596.6	repeat	Run4	repeat/STIM_001.jpg	99
3147.454	0.879	879.0	repeat	Run4	repeat/STIM_001.jpg	99
3151.043	0.652	652.5	repeat	Run4	repeat/STIM_002.jpg	99
3154.105	0.732	732.0	repeat	Run4	repeat/STIM_002.jpg	99
3157.685	0.644	644.1	repeat	Run4	repeat/STIM_002.jpg	100
3161.022	0.601	601.0	repeat	Run4	repeat/STIM_002.jpg	100
3165.58	0.898	897.5	repeat	Run4	repeat/STIM_002.jpg	99
3168.514	0.67	669.6	repeat	Run4	repeat/STIM_003.jpg	99
3173.149	0.68	679.9	repeat	Run4	repeat/STIM_003.jpg	100
3177.715	0.955	955.4	repeat	Run4	repeat/STIM_003.jpg	100
3180.883	0.754	754.3	repeat	Run4	repeat/STIM_003.jpg	100
3184.041	0.89	889.7	repeat	Run4	repeat/STIM_003.jpg	99
3188.61	0.49	490.1	repeat	Run4	repeat/STIM_004.jpg	99
3192.505	0.518	517.8	repeat	Run4	repeat/STIM_004.jpg	100
3196.589	0.578	578.3	repeat	Run4	repeat/STIM_004.jpg	99
3200.21	0.914	914.5	repeat	Run4	repeat/STIM_004.jpg	99
3204.326	0.688	687.6	repeat	Run4	repeat/STIM_004.jpg	100
3208.972	0.921	920.8	repeat	Run4	repeat/STIM_005.jpg	100
3213.356	0.59	590.5	repeat	Run4	repeat/STIM_005.jpg	99
3217.067	0.509	509.1	repeat	Run4	repeat/STIM_005.jpg	100
3220.358	0.583	582.9	repeat	Run4	repeat/STIM_005.jpg	99
3224.776	0.686	686.0	repeat	Run4	repeat/STIM_005.jpg	100
3229.462	0.742	742.1	repeat	Run4	repeat/STIM_006.jpg	100
3232.377	0.513	512.6	repeat	Run4	repeat/STIM_006.jpg	99
3235.459	0.967	966.6	repeat	Run4	repeat/STIM_006.jpg	99
3239.159	0.784	783.9	repeat	Run4	repeat/STIM_006.jpg	99
3242.286	0.93	929.6	repeat	Run4	repeat/STIM_006.jpg	100
3245.379	0.533	533.4	repeat	Run4	repeat/STIM_007.jpg	99
3249.863	0.869	869.0	repeat	Run4	repeat/STIM_007.jpg	100
3253.765	0.941	941.2	repeat	Run4	repeat/STIM_007.jpg	100
3257.308	0.88	880.5	repeat	Run4	repeat/STIM_007.jpg	99
3260.754	0.531	531.0	repeat	Run4	repeat/STIM_007.jpg	99
3264.867	0.494	493.8	repeat	Run4	repeat/STIM_008.jpg	99
3268.11	0.753	753.0	repeat	Run4	repeat/STIM_008.jpg	99
3272.754	0.622	621.6	repeat	Run4	repeat/STIM_008.jpg	99
3277.311	0.72	719.9	repeat	Run4	repeat/STIM_008.jpg	99
3280.882	0.509	509.3	repeat	Run4	repeat/STIM_008.jpg	100
3284.697	0.759	759.3	repeat	Run4	repeat/STIM_009.jpg	100
3287.973	0.945	944.6	repeat	Run4	repeat/STIM_009.jpg	100
3291.989	0.753	752.7	repeat	Run4	repeat/STIM_009.jpg	99
3296.389	0.685	685.2	repeat	Run4	repeat/STIM_009.jpg	100
3299.183	0.796	796.3	repeat	Run4	repeat/STIM_009.jpg	100
3303.515	0.75	749.9	repeat	Run4	repeat/STIM_010.jpg	100
3307.883	0.494	493.8	repeat	Run4	repeat/STIM_010.jpg	99
3311.623	0.515	515.4	repeat	Run4	repeat/STIM_010.jpg	99
3315.716	0.57	569.7	repeat	Run4	repeat/STIM_010.jpg	99
3319.392	0.702	701.8	repeat	Run4	repeat/STIM_010.jpg	99
3323.038	0.963	962.9	repeat	Run4	repeat/STIM_011.jpg	99
3327.388	0.694	694.1	repeat	Run4	repeat/STIM_011.jpg	100
3330.83	0.617	617.1	repeat	Run4	repeat/STIM_011.jpg	99
3334.318	0.74	740.5	repeat	Run4	repeat/STIM_011.jpg	99
3338.025	0.599	598.9	repeat	Run4	repeat/STIM_011.jpg	100
3341.552	0.512	511.9	repeat	Run4	repeat/STIM_012.jpg	99
3345.132	0.967	966.6	repeat	Run4	repeat/STIM_012.jpg	99
3349.671	0.652	652.1	repeat	Run4	repeat/STIM_012.jpg	100
3352.827	0.94	940.2	repeat	Run4	repeat/STIM_012.jpg	99
3356.553	0.735	735.0	repeat	Run4	repeat/STIM_012.jpg	99
3360.757	0.902	902.3	repeat	Run4	repeat/STIM_013.jpg	100
3365.323	0.54	539.7	repeat	Run4	repeat/STIM_013.jpg	100
3369.578	0.925	925.2	repeat	Run4	repeat/STIM_013.jpg	100
3372.646	0.516	516.2	repeat	Run4	repeat/STIM_013.jpg	99
3376.211	0.901	901.1	repeat	Run4	repeat/STIM_013.jpg	100
3379.832	0.922	922.5	repeat	Run4	repeat/STIM_014.jpg	99
3384.594	0.715	715.0	repeat	Run4	repeat/STIM_014.jpg	100
3387.337	0.949	949.3	repeat	Run4	repeat/STIM_014.jpg	100
3391.668	0.492	492.0	repeat	Run4	repeat/STIM_014.jpg	100
3395.877	0.572	572.2	repeat	Run4	repeat/STIM_014.jpg	100
