onset	duration	response_time_ms	trial_type	learning_stage	stimulus	response_port
0.0	1.738	1737.7	generate	Run1	generate/STIM_000.jpg	99
4.75	1.834	1834.4	generate	Run1	generate/STIM_000.jpg	99
10.193	2.103	2103.3	generate	Run1	generate/STIM_000.jpg	99
15.446	2.009	2008.9	generate	Run1	generate/STIM_000.jpg	99
20.534	1.257	1257.4	generate	Run1	generate/STIM_000.jpg	100
24.164	2.198	2198.4	generate	Run1	generate/STIM_001.jpg	99
29.996	1.578	1578.3	generate	Run1	generate/STIM_001.jpg	100
34.839	1.714	1714.0	generate	Run1	generate/STIM_001.jpg	100
39.655	1.298	1297.7	generate	Run1	generate/STIM_001.jpg	100
43.695	1.716	1715.7	generate	Run1	generate/STIM_001.jpg	99
49.042	1.96	1960.2	generate	Run1	generate/STIM_002.jpg	100
54.374	1.068	1067.7	generate	Run1	generate/STIM_002.jpg	100
57.913	2.39	2390.3	generate	Run1	generate/STIM_002.jpg	99
63.476	1.592	1591.9	generate	Run1	generate/STIM_002.jpg	99
68.543	1.518	1518.3	generate	Run1	generate/STIM_002.jpg	99
72.405	1.674	1674.4	generate	Run1	generate/STIM_003.jpg	99
76.57	1.516	1515.9	generate	Run1	generate/STIM_003.jpg	100
80.545	1.101	1101.2	generate	Run1	generate/STIM_003.jpg	100
84.152	1.375	1374.9	generate	Run1	generate/STIM_003.jpg	99
88.333	1.703	1702.6	generate	Run1	generate/STIM_003.jpg	100
93.365	1.872	1871.8	generate	Run1	generate/STIM_004.jpg	100
98.89	1.322	1321.5	generate	Run1	generate/STIM_004.jpg	100
102.632	0.98	979.5	generate	Run1	generate/STIM_004.jpg	99
107.765	1.266	1266.3	generate	Run1	generate/STIM_004.jpg	99
112.147	2.132	2131.7	generate	Run1	generate/STIM_004.jpg	99
117.753	1.293	1293.3	generate	Run1	generate/STIM_005.jpg	99
122.454	2.328	2327.9	generate	Run1	generate/STIM_005.jpg	99
127.463	1.282	1282.4	generate	Run1	generate/STIM_005.jpg	100
132.034	1.854	1853.5	generate	Run1	generate/STIM_005.jpg	99
137.732	1.094	1093.7	generate	Run1	generate/STIM_005.jpg	100
141.915	1.927	1927.4	generate	Run1	generate/STIM_006.jpg	99
147.549	2.121	2120.7	generate	Run1	generate/STIM_006.jpg	99
152.861	2.144	2144.5	generate	Run1	generate/STIM_006.jpg	99
157.835	1.115	1115.3	generate	Run1	generate/STIM_006.jpg	100
161.844	2.098	2097.7	generate	Run1	generate/STIM_006.jpg	99
166.261	1.757	1757.3	generate	Run1	generate/STIM_007.jpg	99
171.748	1.31	1309.5	generate	Run1	generate/STIM_007.jpg	99
175.616	1.954	1954.2	generate	Run1	generate/STIM_007.jpg	100
180.821	1.053	1052.9	generate	Run1	generate/STIM_007.jpg	100
184.381	1.235	1235.4	generate	Run1	generate/STIM_007.jpg	99
189.26	2.442	2442.4	generate	Run1	generate/STIM_008.jpg	100
194.648	1.522	1522.5	generate	Run1	generate/STIM_008.jpg	100
199.88	2.101	2101.3	generate	Run1	generate/STIM_008.jpg	100
204.724	1.79	1789.9	generate	Run1	generate/STIM_008.jpg	100
210.401	0.948	947.5	generate	Run1	generate/STIM_008.jpg	99
214.86	2.498	2497.5	generate	Run1	generate/STIM_009.jpg	100
220.959	1.878	1877.7	generate	Run1	generate/STIM_009.jpg	99
226.985	1.055	1054.7	generate	Run1	generate/STIM_009.jpg	99
230.119	1.328	1327.8	generate	Run1	generate/STIM_009.jpg	100
233.572	1.518	1518.0	generate	Run1	generate/STIM_009.jpg	99
237.723	1.218	1217.8	generate	Run1	generate/STIM_010.jpg	100
241.681	1.778	1777.9	generate	Run1	generate/STIM_010.jpg	99
246.7	1.926	1925.8	generate	Run1	generate/STIM_010.jpg	99
252.359	1.306	1306.5	generate	Run1	generate/STIM_010.jpg	100
257.092	2.094	2094.1	generate	Run1	generate/STIM_010.jpg	100
262.542	2.505	2505.1	generate	Run1	generate/STIM_011.jpg	99
268.015	1.327	1326.9	generate	Run1	generate/STIM_011.jpg	99
272.452	2.19	2189.7	generate	Run1	generate/STIM_011.jpg	100
278.481	1.009	1009.1	generate	Run1	generate/STIM_011.jpg	100
282.65	0.972	972.4	generate	Run1	generate/STIM_011.jpg	99
287.488	2.422	2422.4	generate	Run1	generate/STIM_012.jpg	100
292.688	1.271	1270.9	generate	Run1	generate/STIM_012.jpg	100
297.486	1.023	1023.0	generate	Run1	generate/STIM_012.jpg	99
301.783	1.273	1272.8	generate	Run1	generate/STIM_012.jpg	99
306.092	1.712	1712.5	generate	Run1	generate/STIM_012.jpg	100
310.562	2.439	2439.1	generate	Run1	generate/STIM_013.jpg	100
315.646	2.182	2182.2	generate	Run1	generate/STIM_013.jpg	100
321.766	1.178	1178.0	generate	Run1	generate/STIM_013.jpg	100
326.676	1.456	1455.5	generate	Run1	generate/STIM_013.jpg	99
331.789	0.788	787.8	generate	Run1	generate/STIM_013.jpg	99
334.984	1.487	1486.8	generate	Run1	generate/STIM_014.jpg	100
339.203	1.416	1416.5	generate	Run1	generate/STIM_014.jpg	100
343.053	1.476	1476.4	generate	Run1	generate/STIM_014.jpg	100
347.157	1.273	1273.0	generate	Run1	generate/STIM_014.jpg	100
351.303	1.102	1102.4	generate	Run1	generate/STIM_014.jpg	99
355.344	2.217	2217.2	generate	Run1	generate/STIM_015.jpg	99
361.7	1.465	1464.9	generate	Run1	generate/STIM_015.jpg	100
366.794	1.578	1577.9	generate	Run1	generate/STIM_015.jpg	99
372.338	1.578	1578.2	generate	Run1	generate/STIM_015.jpg	99
376.161	1.18	1179.8	generate	Run1	generate/STIM_015.jpg	99
381.386	1.537	1536.9	generate	Run1	generate/STIM_016.jpg	100
386.576	2.239	2238.9	generate	Run1	generate/STIM_016.jpg	99
392.713	1.905	1905.2	generate	Run1	generate/STIM_016.jpg	100
396.925	1.522	1522.4	generate	Run1	generate/STIM_016.jpg	99
402.568	1.372	1372.5	generate	Run1	generate/STIM_016.jpg	100
406.171	1.776	1776.5	generate	Run1	generate/STIM_017.jpg	100
411.903	1.849	1849.1	generate	Run1	generate/STIM_017.jpg	100
417.018	1.488	1487.7	generate	Run1	generate/STIM_017.jpg	100
421.681	1.591	1590.6	generate	Run1	generate/STIM_017.jpg	99
425.456	1.301	1301.1	generate	Run1	generate/STIM_017.jpg	99
430.151	1.262	1262.0	generate	Run1	generate/STIM_018.jpg	99
434.781	1.639	1639.4	generate	Run1	generate/STIM_018.jpg	100
439.456	2.237	2237.0	generate	Run1	generate/STIM_018.jpg	100
445.124	2.196	2196.1	generate	Run1	generate/STIM_018.jpg	100
451.44	1.985	1984.7	generate	Run1	generate/STIM_018.jpg	100
457.017	2.541	2541.0	generate	Run1	generate/STIM_019.jpg	99
462.456	1.61	1610.0	generate	Run1	generate/STIM_019.jpg	100
467.792	1.966	1965.9	generate	Run1	generate/STIM_019.jpg	100
473.834	2.141	2140.6	generate	Run1	generate/STIM_019.jpg	100
479.567	1.149	1148.7	generate	Run1	generate/STIM_019.jpg	100
483.615	2.426	2425.9	generate	Run1	generate/STIM_020.jpg	100
490.36	2.06	2059.8	generate	Run1	generate/STIM_020.jpg	99
496.541	0.938	938.2	generate	Run1	generate/STIM_020.jpg	100
499.767	1.33	1330.0	generate	Run1	generate/STIM_020.jpg	99
503.865	1.098	1097.9	generate	Run1	generate/STIM_020.jpg	100
507.385	1.07	1070.3	generate	Run1	generate/STIM_021.jpg	99
512.267	2.549	2548.6	generate	Run1	generate/STIM_021.jpg	99
518.114	1.006	1005.9	generate	Run1	generate/STIM_021.jpg	99
521.291	1.156	1156.0	generate	Run1	generate/STIM_021.jpg	99
525.694	0.967	967.2	generate	Run1	generate/STIM_021.jpg	100
529.702	1.861	1861.3	generate	Run1	generate/STIM_022.jpg	99
534.47	2.287	2287.1	generate	Run1	generate/STIM_022.jpg	100
539.191	1.489	1489.3	generate	Run1	generate/STIM_022.jpg	99
544.023	0.99	989.9	generate	Run1	generate/STIM_022.jpg	100
547.487	1.911	1911.4	generate	Run1	generate/STIM_022.jpg	100
551.927	2.332	2332.0	generate	Run1	generate/STIM_023.jpg	99
556.668	2.44	2440.5	generate	Run1	generate/STIM_023.jpg	100
562.694	1.874	1874.1	generate	Run1	generate/STIM_023.jpg	99
568.549	1.904	1903.8	generate	Run1	generate/STIM_023.jpg	99
572.821	1.701	1701.2	generate	Run1	generate/STIM_023.jpg	100
578.367	1.114	1114.1	generate	Run1	generate/STIM_024.jpg	100
581.844	1.587	1587.0	generate	Run1	generate/STIM_024.jpg	100
586.094	1.866	1866.0	generate	Run1	generate/STIM_024.jpg	99
591.498	2.171	2171.2	generate	Run1	generate/STIM_024.jpg	100
597.419	0.998	997.6	generate	Run1	generate/STIM_024.jpg	99
601.826	0.894	894.3	repeat	Run1	repeat/STIM_000.jpg	99
605.282	0.585	584.9	repeat	Run1	repeat/STIM_000.jpg	100
608.599	0.599	598.9	repeat	Run1	repeat/STIM_000.jpg	100
612.836	0.672	671.7	repeat	Run1	repeat/STIM_000.jpg	100
615.817	0.805	805.2	repeat	Run1	repeat/STIM_000.jpg	100
619.475	0.513	513.2	repeat	Run1	repeat/STIM_001.jpg	99
622.387	0.76	759.5	repeat	Run1	repeat/STIM_001.jpg	99
627.101	0.622	622.2	repeat	Run1	repeat/STIM_001.jpg	100
630.279	0.799	798.8	repeat	Run1	repeat/STIM_001.jpg	100
634.422	0.55	549.7	repeat	Run1	repeat/STIM_001.jpg	99
638.319	0.621	620.7	repeat	Run1	repeat/STIM_002.jpg	100
641.449	0.795	794.9	repeat	Run1	repeat/STIM_002.jpg	99
645.948	0.746	745.8	repeat	Run1	repeat/STIM_002.jpg	99
649.44	0.44	439.8	repeat	Run1	repeat/STIM_002.jpg	99
653.195	0.545	545.0	repeat	Run1	repeat/STIM_002.jpg	100
657.713	0.545	545.2	repeat	Run1	repeat/STIM_003.jpg	99
661.118	0.61	610.3	repeat	Run1	repeat/STIM_003.jpg	99
664.416	0.736	736.0	repeat	Run1	repeat/STIM_003.jpg	99
667.961	0.858	857.5	repeat	Run1	repeat/STIM_003.jpg	99
671.003	0.622	621.8	repeat	Run1	repeat/STIM_003.jpg	99
675.521	0.398	398.5	repeat	Run1	repeat/STIM_004.jpg	99
679.9	0.858	857.6	repeat	Run1	repeat/STIM_004.jpg	99
683.744	0.455	455.2	repeat	Run1	repeat/STIM_004.jpg	99
688.185	0.703	703.1	repeat	Run1	repeat/STIM_004.jpg	100
691.9	0.708	708.5	repeat	Run1	repeat/STIM_004.jpg	99
695.093	0.525	524.8	repeat	Run1	repeat/STIM_005.jpg	99
699.038	0.64	639.6	repeat	Run1	repeat/STIM_005.jpg	99
703.387	0.818	818.4	repeat	Run1	repeat/STIM_005.jpg	100
706.817	0.534	534.5	repeat	Run1	repeat/STIM_005.jpg	99
710.364	0.524	524.1	repeat	Run1	repeat/STIM_005.jpg	100
714.62	0.615	614.7	repeat	Run1	repeat/STIM_006.jpg	99
717.432	0.455	454.6	repeat	Run1	repeat/STIM_006.jpg	100
720.467	0.578	578.4	repeat	Run1	repeat/STIM_006.jpg	100
723.264	0.889	889.3	repeat	Run1	repeat/STIM_006.jpg	100
726.631	0.53	530.5	repeat	Run1	repeat/STIM_006.jpg	99
730.926	0.741	741.3	repeat	Run1	repeat/STIM_007.jpg	100
734.62	0.921	921.4	repeat	Run1	repeat/STIM_007.jpg	100
737.895	0.86	859.7	repeat	Run1	repeat/STIM_007.jpg	100
741.217	0.739	739.0	repeat	Run1	repeat/STIM_007.jpg	100
745.111	0.636	636.0	repeat	Run1	repeat/STIM_007.jpg	100
747.802	0.512	512.3	repeat	Run1	repeat/STIM_008.jpg	99
750.544	0.532	531.5	repeat	Run1	repeat/STIM_008.jpg	100
753.636	0.732	731.9	repeat	Run1	repeat/STIM_008.jpg	99
756.937	0.444	443.8	repeat	Run1	repeat/STIM_008.jpg	99
760.625	0.698	698.5	repeat	Run1	repeat/STIM_008.jpg	99
764.216	0.814	814.3	repeat	Run1	repeat/STIM_009.jpg	100
767.88	0.772	772.2	repeat	Run1	repeat/STIM_009.jpg	100
771.212	0.64	640.1	repeat	Run1	repeat/STIM_009.jpg	99
774.48	0.524	523.6	repeat	Run1	repeat/STIM_009.jpg	100
778.574	0.652	652.3	repeat	Run1	repeat/STIM_009.jpg	99
782.441	0.712	711.5	repeat	Run1	repeat/STIM_010.jpg	99
785.667	0.582	581.8	repeat	Run1	repeat/STIM_010.jpg	99
788.715	0.793	793.4	repeat	Run1	repeat/STIM_010.jpg	100
793.084	0.632	632.2	repeat	Run1	repeat/STIM_010.jpg	99
796.425	0.763	762.8	repeat	Run1	repeat/STIM_010.jpg	100
800.197	0.636	636.2	repeat	Run1	repeat/STIM_011.jpg	100
803.866	0.827	826.6	repeat	Run1	repeat/STIM_011.jpg	100
806.862	0.646	646.4	repeat	Run1	repeat/STIM_011.jpg	100
811.177	0.549	548.7	repeat	Run1	repeat/STIM_011.jpg	100
814.469	0.757	757.2	repeat	Run1	repeat/STIM_011.jpg	100
817.957	0.66	659.5	repeat	Run1	repeat/STIM_012.jpg	99
820.857	0.621	620.6	repeat	Run1	repeat/STIM_012.jpg	99
824.104	0.702	702.3	repeat	Run1	repeat/STIM_012.jpg	100
827.63	0.476	476.0	repeat	Run1	repeat/STIM_012.jpg	99
832.245	0.65	650.3	repeat	Run1	repeat/STIM_012.jpg	100
836.239	0.741	741.3	repeat	Run1	repeat/STIM_013.jpg	100
839.346	0.473	473.2	repeat	Run1	repeat/STIM_013.jpg	100
842.082	0.472	471.8	repeat	Run1	repeat/STIM_013.jpg	100
844.998	0.418	418.5	repeat	Run1	repeat/STIM_013.jpg	100
848.902	0.661	661.2	repeat	Run1	repeat/STIM_013.jpg	100
853.165	0.725	725.0	repeat	Run1	repeat/STIM_014.jpg	100
856.123	0.788	788.3	repeat	Run1	repeat/STIM_014.jpg	99
859.748	0.573	572.8	repeat	Run1	repeat/STIM_014.jpg	100
863.904	0.897	897.3	repeat	Run1	repeat/STIM_014.jpg	99
868.74	0.74	740.4	repeat	Run1	repeat/STIM_014.jpg	100
872.613	1.844	1843.8	generate	Run2	generate/STIM_000.jpg	99
878.182	2.09	2089.9	generate	Run2	generate/STIM_000.jpg	99
884.523	1.571	1570.9	generate	Run2	generate/STIM_000.jpg	99
888.839	1.662	1662.2	generate	Run2	generate/STIM_000.jpg	100
893.559	1.607	1606.7	generate	Run2	generate/STIM_000.jpg	100
899.307	1.925	1925.1	generate	Run2	generate/STIM_001.jpg	100
903.701	1.769	1768.8	generate	Run2	generate/STIM_001.jpg	100
907.595	0.912	911.9	generate	Run2	generate/STIM_001.jpg	99
910.948	1.262	1262.2	generate	Run2	generate/STIM_001.jpg	99
914.42	1.155	1155.0	generate	Run2	generate/STIM_001.jpg	99
917.943	1.825	1824.7	generate	Run2	generate/STIM_002.jpg	100
922.253	1.196	1196.4	generate	Run2	generate/STIM_002.jpg	100
926.854	1.259	1259.1	generate	Run2	generate/STIM_002.jpg	99
932.096	1.73	1729.7	generate	Run2	generate/STIM_002.jpg	99
937.126	0.732	732.5	generate	Run2	generate/STIM_002.jpg	100
941.52	1.335	1335.2	generate	Run2	generate/STIM_003.jpg	100
946.996	1.843	1843.3	generate	Run2	generate/STIM_003.jpg	99
952.162	1.5	1500.0	generate	Run2	generate/STIM_003.jpg	99
956.902	1.466	1466.5	generate	Run2	generate/STIM_003.jpg	100
961.954	0.966	966.0	generate	Run2	generate/STIM_003.jpg	100
966.183	1.757	1756.6	generate	Run2	generate/STIM_004.jpg	100
972.15	1.402	1401.8	generate	Run2	generate/STIM_004.jpg	100
977.66	1.532	1532.3	generate	Run2	generate/STIM_004.jpg	100
981.483	1.255	1255.4	generate	Run2	generate/STIM_004.jpg	99
985.887	1.669	1669.2	generate	Run2	generate/STIM_004.jpg	99
989.844	1.657	1657.0	generate	Run2	generate/STIM_005.jpg	100
994.117	1.186	1185.6	generate	Run2	generate/STIM_005.jpg	100
997.788	1.944	1943.9	generate	Run2	generate/STIM_005.jpg	99
1003.364	1.516	1516.3	generate	Run2	generate/STIM_005.jpg	100
1007.595	1.54	1540.0	generate	Run2	generate/STIM_005.jpg	99
1011.497	1.609	1609.0	generate	Run2	generate/STIM_006.jpg	99
1016.232	1.738	1737.8	generate	Run2	generate/STIM_006.jpg	99
1022.16	1.035	1034.8	generate	Run2	generate/STIM_006.jpg	100
1026.609	0.986	986.5	generate	Run2	generate/STIM_006.jpg	100
1031.121	0.892	892.5	generate	Run2	generate/STIM_006.jpg	100
1035.081	1.644	1643.5	generate	Run2	generate/STIM_007.jpg	99
1039.669	1.354	1353.7	generate	Run2	generate/STIM_007.jpg	99
1043.923	1.664	1664.5	generate	Run2	generate/STIM_007.jpg	100
1048.422	1.193	1192.6	generate	Run2	generate/STIM_007.jpg	99
1052.077	1.321	1320.8	generate	Run2	generate/STIM_007.jpg	99
1057.268	1.696	1696.4	generate	Run2	generate/STIM_008.jpg	100
1062.551	0.946	946.5	generate	Run2	generate/STIM_008.jpg	99
1067.01	1.748	1748.4	generate	Run2	generate/STIM_008.jpg	100
1072.715	0.884	884.5	generate	Run2	generate/STIM_008.jpg	100
1076.909	0.833	832.9	generate	Run2	generate/STIM_008.jpg	100
1080.217	1.571	1570.8	generate	Run2	generate/STIM_009.jpg	100
1084.955	0.91	910.5	generate	Run2	generate/STIM_009.jpg	99
1089.79	1.511	1510.6	generate	Run2	generate/STIM_009.jpg	100
1094.414	1.755	1755.3	generate	Run2	generate/STIM_009.jpg	99
1099.407	0.828	828.4	generate	Run2	generate/STIM_009.jpg	99
1103.176	1.036	1035.5	generate	Run2	generate/STIM_010.jpg	100
1107.128	1.954	1954.0	generate	Run2	generate/STIM_010.jpg	100
1111.705	1.258	1258.2	generate	Run2	generate/STIM_010.jpg	99
1116.273	1.496	1496.0	generate	Run2	generate/STIM_010.jpg	99
1120.365	1.02	1020.0	generate	Run2	generate/STIM_010.jpg	100
1124.855	2.042	2041.7	generate	Run2	generate/STIM_011.jpg	99
1130.451	1.81	1809.7	generate	Run2	generate/STIM_011.jpg	99
1135.731	1.013	1013.2	generate	Run2	generate/STIM_011.jpg	99
1139.966	1.321	1321.0	generate	Run2	generate/STIM_011.jpg	100
1144.904	0.962	961.8	generate	Run2	generate/STIM_011.jpg	100
1148.333	1.999	1999.4	generate	Run2	generate/STIM_012.jpg	99
1154.475	1.687	1687.4	generate	Run2	generate/STIM_012.jpg	100
1159.133	1.962	1962.0	generate	Run2	generate/STIM_012.jpg	100
1163.581	1.627	1627.3	generate	Run2	generate/STIM_012.jpg	100
1168.644	1.779	1779.3	generate	Run2	generate/STIM_012.jpg	100
1173.912	1.915	1915.1	generate	Run2	generate/STIM_013.jpg	100
1179.638	1.066	1065.5	generate	Run2	generate/STIM_013.jpg	100
1183.379	1.556	1556.4	generate	Run2	generate/STIM_013.jpg	99
1187.354	1.13	1130.0	generate	Run2	generate/STIM_013.jpg	99
1190.784	1.158	1158.5	generate	Run2	generate/STIM_013.jpg	100
1195.543	1.258	1257.5	generate	Run2	generate/STIM_014.jpg	99
1200.23	2.034	2034.0	generate	Run2	generate/STIM_014.jpg	100
1205.392	1.896	1896.2	generate	Run2	generate/STIM_014.jpg	99
1211.462	1.02	1020.3	generate	Run2	generate/STIM_014.jpg	99
1216.492	1.458	1457.6	generate	Run2	generate/STIM_014.jpg	100
1222.183	1.968	1968.0	generate	Run2	generate/STIM_015.jpg	99
1226.571	1.08	1080.4	generate	Run2	generate/STIM_015.jpg	100
1231.484	1.839	1839.3	generate	Run2	generate/STIM_015.jpg	100
1237.279	0.848	848.0	generate	Run2	generate/STIM_015.jpg	99
1241.936	1.236	1236.1	generate	Run2	generate/STIM_015.jpg	100
1246.972	1.467	1466.6	generate	Run2	generate/STIM_016.jpg	100
1251.198	1.517	1517.2	generate	Run2	generate/STIM_016.jpg	99
1255.967	1.294	1294.2	generate	Run2	generate/STIM_016.jpg	100
1260.868	1.24	1240.1	generate	Run2	generate/STIM_016.jpg	99
1264.668	1.679	1678.9	generate	Run2	generate/STIM_016.jpg	99
1269.281	1.496	1496.0	generate	Run2	generate/STIM_017.jpg	100
1274.944	1.637	1636.9	generate	Run2	generate/STIM_017.jpg	99
1280.109	0.86	860.4	generate	Run2	generate/STIM_017.jpg	100
1284.574	1.408	1407.8	generate	Run2	generate/STIM_017.jpg	99
1288.543	0.916	915.9	generate	Run2	generate/STIM_017.jpg	100
1292.841	1.458	1457.8	generate	Run2	generate/STIM_018.jpg	100
1296.776	1.747	1747.3	generate	Run2	generate/STIM_018.jpg	99
1301.204	1.412	1411.5	generate	Run2	generate/STIM_018.jpg	99
1305.512	0.975	975.0	generate	Run2	generate/STIM_018.jpg	99
1308.643	1.681	1681.3	generate	Run2	generate/STIM_018.jpg	99
1313.136	1.43	1429.9	generate	Run2	generate/STIM_019.jpg	99
1318.603	1.632	1631.5	generate	Run2	generate/STIM_019.jpg	100
1324.016	1.005	1005.3	generate	Run2	generate/STIM_019.jpg	99
1328.847	1.353	1352.9	generate	Run2	generate/STIM_019.jpg	100
1333.495	1.517	1516.7	generate	Run2	generate/STIM_019.jpg	99
1339.058	1.231	1231.1	generate	Run2	generate/STIM_020.jpg	99
1344.142	1.717	1716.7	generate	Run2	generate/STIM_020.jpg	100
1349.592	0.927	926.9	generate	Run2	generate/STIM_020.jpg	100
1354.687	1.743	1742.8	generate	Run2	generate/STIM_020.jpg	99
1359.96	1.911	1911.1	generate	Run2	generate/STIM_020.jpg	99
1364.849	2.143	2143.2	generate	Run2	generate/STIM_021.jpg	99
1370.382	1.114	1114.5	generate	Run2	generate/STIM_021.jpg	100
1373.99	1.504	1503.7	generate	Run2	generate/STIM_021.jpg	99
1379.598	1.516	1516.5	generate	Run2	generate/STIM_021.jpg	99
1384.218	1.25	1249.5	generate	Run2	generate/STIM_021.jpg	99
1388.974	1.902	1902.1	generate	Run2	generate/STIM_022.jpg	99
1394.429	0.909	909.2	generate	Run2	generate/STIM_022.jpg	100
1397.921	1.954	1954.0	generate	Run2	generate/STIM_022.jpg	100
1402.521	1.268	1268.0	generate	Run2	generate/STIM_022.jpg	99
1406.418	1.698	1697.8	generate	Run2	generate/STIM_022.jpg	99
1411.593	2.181	2181.3	generate	Run2	generate/STIM_023.jpg	99
1416.541	1.593	1593.4	generate	Run2	generate/STIM_023.jpg	100
1421.514	1.417	1416.7	generate	Run2	generate/STIM_023.jpg	99
1425.812	1.667	1667.0	generate	Run2	generate/STIM_023.jpg	100
1431.054	1.081	1081.3	generate	Run2	generate/STIM_023.jpg	99
1434.798	0.998	997.5	generate	Run2	generate/STIM_024.jpg	100
1439.519	1.913	1913.2	generate	Run2	generate/STIM_024.jpg	99
1444.576	1.469	1468.6	generate	Run2	generate/STIM_024.jpg	99
1448.491	1.669	1669.0	generate	Run2	generate/STIM_024.jpg	100
1453.075	1.606	1605.9	generate	Run2	generate/STIM_024.jpg	99
1456.932	0.754	754.3	repeat	Run2	repeat/STIM_000.jpg	99
1460.931	0.784	784.1	repeat	Run2	repeat/STIM_000.jpg	99
1464.357	0.763	762.9	repeat	Run2	repeat/STIM_000.jpg	100
1468.937	0.807	807.1	repeat	Run2	repeat/STIM_000.jpg	100
1473.768	0.475	475.4	repeat	Run2	repeat/STIM_000.jpg	100
1476.991	0.497	496.9	repeat	Run2	repeat/STIM_001.jpg	99
1481.147	0.559	558.8	repeat	Run2	repeat/STIM_001.jpg	100
1485.334	0.411	411.4	repeat	Run2	repeat/STIM_001.jpg	100
1488.355	0.567	567.0	repeat	Run2	repeat/STIM_001.jpg	100
1491.398	0.634	633.6	repeat	Run2	repeat/STIM_001.jpg	99
1494.757	0.887	886.8	repeat	Run2	repeat/STIM_002.jpg	100
1497.871	0.685	685.1	repeat	Run2	repeat/STIM_002.jpg	99
1502.226	0.783	782.7	repeat	Run2	repeat/STIM_002.jpg	99
1505.621	0.618	617.5	repeat	Run2	repeat/STIM_002.jpg	99
1509.272	0.598	597.9	repeat	Run2	repeat/STIM_002.jpg	99
1512.202	0.809	808.7	repeat	Run2	repeat/STIM_003.jpg	99
1515.735	0.678	677.8	repeat	Run2	repeat/STIM_003.jpg	100
1518.784	0.494	493.7	repeat	Run2	repeat/STIM_003.jpg	99
1522.714	0.782	782.5	repeat	Run2	repeat/STIM_003.jpg	100
1525.85	0.894	894.0	repeat	Run2	repeat/STIM_003.jpg	100
1529.535	0.845	845.1	repeat	Run2	repeat/STIM_004.jpg	99
1534.096	0.591	591.4	repeat	Run2	repeat/STIM_004.jpg	100
1537.754	0.418	417.6	repeat	Run2	repeat/STIM_004.jpg	99
1541.798	0.657	657.3	repeat	Run2	repeat/STIM_004.jpg	99
1545.572	0.762	762.3	repeat	Run2	repeat/STIM_004.jpg	99
1549.831	0.745	744.6	repeat	Run2	repeat/STIM_005.jpg	100
1554.317	0.91	910.5	repeat	Run2	repeat/STIM_005.jpg	99
1557.894	0.521	521.1	repeat	Run2	repeat/STIM_005.jpg	100
1561.129	0.474	473.5	repeat	Run2	repeat/STIM_005.jpg	100
1564.402	0.746	745.7	repeat	Run2	repeat/STIM_005.jpg	99
1569.215	0.771	770.8	repeat	Run2	repeat/STIM_006.jpg	100
1573.433	0.938	938.3	repeat	Run2	repeat/STIM_006.jpg	100
1578.29	0.815	814.9	repeat	Run2	repeat/STIM_006.jpg	100
1582.54	0.762	761.8	repeat	Run2	repeat/STIM_006.jpg	100
1585.883	0.6	599.7	repeat	Run2	repeat/STIM_006.jpg	100
1589.767	0.644	644.2	repeat	Run2	repeat/STIM_007.jpg	100
1593.023	0.769	769.4	repeat	Run2	repeat/STIM_007.jpg	100
1596.42	0.558	557.8	repeat	Run2	repeat/STIM_007.jpg	99
1600.879	0.832	831.8	repeat	Run2	repeat/STIM_007.jpg	100
1603.918	0.725	725.3	repeat	Run2	repeat/STIM_007.jpg	99
1608.687	0.857	857.1	repeat	Run2	repeat/STIM_008.jpg	99
1612.597	0.548	547.7	repeat	Run2	repeat/STIM_008.jpg	99
1616.116	0.49	490.5	repeat	Run2	repeat/STIM_008.jpg	99
1619.119	0.5	499.5	repeat	Run2	repeat/STIM_008.jpg	99
1622.902	0.92	919.8	repeat	Run2	repeat/STIM_008.jpg	100
1626.309	0.712	712.1	repeat	Run2	repeat/STIM_009.jpg	99
1630.413	0.59	589.8	repeat	Run2	repeat/STIM_009.jpg	100
1634.758	0.593	593.3	repeat	Run2	repeat/STIM_009.jpg	100
1638.259	0.692	692.4	repeat	Run2	repeat/STIM_009.jpg	99
1641.982	0.806	806.0	repeat	Run2	repeat/STIM_009.jpg	100
1645.205	0.835	835.4	repeat	Run2	repeat/STIM_010.jpg	100
1649.764	0.911	910.6	repeat	Run2	repeat/STIM_010.jpg	99
1653.62	0.477	476.6	repeat	Run2	repeat/STIM_010.jpg	99
1656.373	0.521	520.8	repeat	Run2	repeat/STIM_010.jpg	100
1659.861	0.494	493.7	repeat	Run2	repeat/STIM_010.jpg	99
1663.368	0.536	536.3	repeat	Run2	repeat/STIM_011.jpg	100
1666.561	0.552	551.6	repeat	Run2	repeat/STIM_011.jpg	100
1669.826	0.745	744.8	repeat	Run2	repeat/STIM_011.jpg	100
1672.982	0.609	608.7	repeat	Run2	repeat/STIM_011.jpg	100
1676.987	0.706	706.1	repeat	Run2	repeat/STIM_011.jpg	100
1680.61	0.68	679.8	repeat	Run2	repeat/STIM_012.jpg	100
1684.835	0.65	650.3	repeat	Run2	repeat/STIM_012.jpg	100
1687.917	0.672	672.0	repeat	Run2	repeat/STIM_012.jpg	99
1691.646	0.597	597.0	repeat	Run2	repeat/STIM_012.jpg	99
1696.296	0.782	781.9	repeat	Run2	repeat/STIM_012.jpg	100
1700.809	0.794	794.2	repeat	Run2	repeat/STIM_013.jpg	100
1704.047	0.769	769.1	repeat	Run2	repeat/STIM_013.jpg	99
1707.062	0.609	608.7	repeat	Run2	repeat/STIM_013.jpg	100
1711.184	0.785	785.3	repeat	Run2	repeat/STIM_013.jpg	100
1715.931	0.559	559.4	repeat	Run2	repeat/STIM_013.jpg	100
1719.003	0.507	507.0	repeat	Run2	repeat/STIM_014.jpg	100
1722.09	0.576	575.8	repeat	Run2	repeat/STIM_014.jpg	100
1726.014	0.548	548.2	repeat	Run2	repeat/STIM_014.jpg	100
1730.504	0.792	791.6	repeat	Run2	repeat/STIM_014.jpg	100
1734.484	0.49	489.6	repeat	Run2	repeat/STIM_014.jpg	100
1737.348	1.164	1164.2	generate	Run3	generate/STIM_000.jpg	99
1742.35	1.156	1155.7	generate	Run3	generate/STIM_000.jpg	99
1747.599	0.838	837.9	generate	Run3	generate/STIM_000.jpg	99
1752.372	1.5	1500.2	generate	Run3	generate/STIM_000.jpg	99
1757.04	1.758	1758.5	generate	Run3	generate/STIM_000.jpg	100
1761.745	1.795	1795.4	generate	Run3	generate/STIM_001.jpg	100
1767.697	1.772	1771.9	generate	Run3	generate/STIM_001.jpg	100
1772.882	1.722	1722.1	generate	Run3	generate/STIM_001.jpg	99
1778.099	0.871	871.4	generate	Run3	generate/STIM_001.jpg	100
1782.828	1.603	1603.0	generate	Run3	generate/STIM_001.jpg	99
1787.267	1.409	1409.2	generate	Run3	generate/STIM_002.jpg	100
1792.073	1.428	1427.7	generate	Run3	generate/STIM_002.jpg	100
1795.694	0.875	875.4	generate	Run3	generate/STIM_002.jpg	99
1798.813	1.741	1740.9	generate	Run3	generate/STIM_002.jpg	100
1802.748	1.59	1590.0	generate	Run3	generate/STIM_002.jpg	100
1806.692	1.113	1113.2	generate	Run3	generate/STIM_003.jpg	99
1811.178	1.863	1863.2	generate	Run3	generate/STIM_003.jpg	100
1816.809	1.621	1621.1	generate	Run3	generate/STIM_003.jpg	100
1822.547	1.588	1587.6	generate	Run3	generate/STIM_003.jpg	99
1827.883	1.442	1441.5	generate	Run3	generate/STIM_003.jpg	100
1832.969	1.168	1167.9	generate	Run3	generate/STIM_004.jpg	100
1836.942	1.343	1343.3	generate	Run3	generate/STIM_004.jpg	99
1842.005	1.089	1089.1	generate	Run3	generate/STIM_004.jpg	99
1847.176	0.92	919.8	generate	Run3	generate/STIM_004.jpg	100
1851.979	1.809	1809.4	generate	Run3	generate/STIM_004.jpg	100
1857.158	1.811	1811.2	generate	Run3	generate/STIM_005.jpg	99
1861.668	0.827	827.2	generate	Run3	generate/STIM_005.jpg	100
1865.916	1.924	1923.6	generate	Run3	generate/STIM_005.jpg	100
1871.827	1.533	1532.6	generate	Run3	generate/STIM_005.jpg	100
1876.298	1.005	1004.8	generate	Run3	generate/STIM_005.jpg	99
1879.909	0.866	865.7	generate	Run3	generate/STIM_006.jpg	100
1883.267	0.83	830.1	generate	Run3	generate/STIM_006.jpg	99
1887.832	1.431	1431.1	generate	Run3	generate/STIM_006.jpg	100
1892.982	1.768	1768.2	generate	Run3	generate/STIM_006.jpg	99
1898.229	1.093	1093.0	generate	Run3	generate/STIM_006.jpg	99
1902.724	1.574	1573.8	generate	Run3	generate/STIM_007.jpg	100
1906.527	1.433	1433.0	generate	Run3	generate/STIM_007.jpg	100
1911.401	1.867	1866.6	generate	Run3	generate/STIM_007.jpg	100
1916.012	1.316	1315.7	generate	Run3	generate/STIM_007.jpg	99
1920.818	1.474	1473.9	generate	Run3	generate/STIM_007.jpg	99
1926.202	0.8	799.9	generate	Run3	generate/STIM_008.jpg	100
1930.805	0.714	713.5	generate	Run3	generate/STIM_008.jpg	99
1934.602	1.512	1512.2	generate	Run3	generate/STIM_008.jpg	99
1939.494	0.836	836.0	generate	Run3	generate/STIM_008.jpg	99
1942.639	1.29	1290.4	generate	Run3	generate/STIM_008.jpg	99
1946.167	0.838	837.5	generate	Run3	generate/STIM_009.jpg	99
1949.82	1.686	1686.1	generate	Run3	generate/STIM_009.jpg	99
1955.318	0.841	841.3	generate	Run3	generate/STIM_009.jpg	99
1959.712	1.529	1528.9	generate	Run3	generate/STIM_009.jpg	100
1964.681	1.053	1053.1	generate	Run3	generate/STIM_009.jpg	99
1968.851	0.854	854.3	generate	Run3	generate/STIM_010.jpg	99
1973.373	0.746	746.0	generate	Run3	generate/STIM_010.jpg	99
1977.842	1.831	1831.4	generate	Run3	generate/STIM_010.jpg	99
1981.914	0.945	945.3	generate	Run3	generate/STIM_010.jpg	99
1985.343	1.053	1053.0	generate	Run3	generate/STIM_010.jpg	100
1990.451	0.996	996.1	generate	Run3	generate/STIM_011.jpg	100
1994.442	1.058	1058.5	generate	Run3	generate/STIM_011.jpg	99
1998.365	0.949	948.9	generate	Run3	generate/STIM_011.jpg	100
2001.628	1.015	1015.2	generate	Run3	generate/STIM_011.jpg	100
2006.541	1.436	1436.3	generate	Run3	generate/STIM_011.jpg	100
2011.547	0.899	899.0	generate	Run3	generate/STIM_012.jpg	100
2015.917	1.631	1631.2	generate	Run3	generate/STIM_012.jpg	99
2021.468	1.161	1161.1	generate	Run3	generate/STIM_012.jpg	99
2025.559	1.49	1489.9	generate	Run3	generate/STIM_012.jpg	100
2030.071	1.248	1248.2	generate	Run3	generate/STIM_012.jpg	100
2034.024	0.974	973.5	generate	Run3	generate/STIM_013.jpg	99
2039.103	1.234	1233.9	generate	Run3	generate/STIM_013.jpg	100
2042.567	1.647	1646.8	generate	Run3	generate/STIM_013.jpg	100
2047.462	1.279	1279.4	generate	Run3	generate/STIM_013.jpg	99
2052.921	1.476	1475.6	generate	Run3	generate/STIM_013.jpg	100
2057.398	1.637	1637.3	generate	Run3	generate/STIM_014.jpg	100
2061.794	1.376	1375.8	generate	Run3	generate/STIM_014.jpg	100
2065.696	1.678	1677.5	generate	Run3	generate/STIM_014.jpg	99
2070.639	1.517	1516.7	generate	Run3	generate/STIM_014.jpg	99
2075.876	0.965	964.6	generate	Run3	generate/STIM_014.jpg	99
2079.594	1.016	1016.2	generate	Run3	generate/STIM_015.jpg	100
2082.827	1.396	1395.5	generate	Run3	generate/STIM_015.jpg	99
2087.367	1.347	1347.1	generate	Run3	generate/STIM_015.jpg	100
2092.418	0.963	962.9	generate	Run3	generate/STIM_015.jpg	99
2096.041	0.851	850.9	generate	Run3	generate/STIM_015.jpg	99
2100.396	1.493	1493.0	generate	Run3	generate/STIM_016.jpg	99
2105.656	1.156	1155.8	generate	Run3	generate/STIM_016.jpg	99
2110.415	1.243	1243.4	generate	Run3	generate/STIM_016.jpg	99
2114.018	1.663	1663.2	generate	Run3	generate/STIM_016.jpg	99
2119.373	0.833	832.8	generate	Run3	generate/STIM_016.jpg	99
2123.365	1.484	1484.3	generate	Run3	generate/STIM_017.jpg	99
2127.218	0.822	822.0	generate	Run3	generate/STIM_017.jpg	99
2130.857	1.798	1797.6	generate	Run3	generate/STIM_017.jpg	100
2135.641	1.275	1274.9	generate	Run3	generate/STIM_017.jpg	99
2139.181	1.226	1225.6	generate	Run3	generate/STIM_017.jpg	100
2142.96	1.353	1353.3	generate	Run3	generate/STIM_018.jpg	100
2147.128	1.115	1115.4	generate	Run3	generate/STIM_018.jpg	100
2151.57	1.728	1728.2	generate	Run3	generate/STIM_018.jpg	100
2157.038	1.515	1514.8	generate	Run3	generate/STIM_018.jpg	100
2161.766	1.328	1328.3	generate	Run3	generate/STIM_018.jpg	100
2165.725	1.649	1649.3	generate	Run3	generate/STIM_019.jpg	100
2170.037	1.204	1204.2	generate	Run3	generate/STIM_019.jpg	100
2175.162	1.603	1603.0	generate	Run3	generate/STIM_019.jpg	100
2178.986	1.806	1806.2	generate	Run3	generate/STIM_019.jpg	100
2184.627	1.236	1235.9	generate	Run3	generate/STIM_019.jpg	99
2188.369	0.961	961.0	generate	Run3	generate/STIM_020.jpg	100
2192.04	0.897	897.1	generate	Run3	generate/STIM_020.jpg	99
2195.891	1.177	1177.0	generate	Run3	generate/STIM_020.jpg	100
2200.155	1.043	1043.1	generate	Run3	generate/STIM_020.jpg	99
2204.13	1.541	1541.3	generate	Run3	generate/STIM_020.jpg	100
2208.49	1.396	1396.2	generate	Run3	generate/STIM_021.jpg	100
2212.393	1.645	1645.1	generate	Run3	generate/STIM_021.jpg	99
2216.39	1.734	1733.7	generate	Run3	generate/STIM_021.jpg	100
2220.76	1.659	1658.6	generate	Run3	generate/STIM_021.jpg	100
2225.595	1.29	1289.7	generate	Run3	generate/STIM_021.jpg	99
2230.293	1.459	1459.3	generate	Run3	generate/STIM_022.jpg	99
2235.336	1.923	1923.4	generate	Run3	generate/STIM_022.jpg	100
2240.72	1.283	1283.1	generate	Run3	generate/STIM_022.jpg	100
2245.958	1.615	1614.9	generate	Run3	generate/STIM_022.jpg	100
2251.792	1.795	1795.1	generate	Run3	generate/STIM_022.jpg	100
2257.576	1.454	1454.5	generate	Run3	generate/STIM_023.jpg	99
2262.307	1.35	1349.5	generate	Run3	generate/STIM_023.jpg	100
2266.432	0.862	861.9	generate	Run3	generate/STIM_023.jpg	99
2270.412	1.267	1267.3	generate	Run3	generate/STIM_023.jpg	99
2275.768	0.983	982.6	generate	Run3	generate/STIM_023.jpg	100
2280.388	1.402	1401.6	generate	Run3	generate/STIM_024.jpg	100
2285.981	0.793	793.0	generate	Run3	generate/STIM_024.jpg	100
2290.89	0.933	933.3	generate	Run3	generate/STIM_024.jpg	100
2295.323	1.421	1421.1	generate	Run3	generate/STIM_024.jpg	99
2300.404	1.063	1063.1	generate	Run3	generate/STIM_024.jpg	99
2303.711	0.58	579.7	repeat	Run3	repeat/STIM_000.jpg	100
2308.092	0.684	683.5	repeat	Run3	repeat/STIM_000.jpg	99
2312.398	0.789	788.7	repeat	Run3	repeat/STIM_000.jpg	100
2315.618	0.52	520.4	repeat	Run3	repeat/STIM_000.jpg	99
2319.171	0.696	696.3	repeat	Run3	repeat/STIM_000.jpg	100
2323.728	0.58	580.1	repeat	Run3	repeat/STIM_001.jpg	100
2326.873	0.635	635.4	repeat	Run3	repeat/STIM_001.jpg	99
2330.88	0.53	530.4	repeat	Run3	repeat/STIM_001.jpg	100
2334.205	0.749	749.4	repeat	Run3	repeat/STIM_001.jpg	100
2338.169	0.715	714.8	repeat	Run3	repeat/STIM_001.jpg	99
2342.695	0.531	530.8	repeat	Run3	repeat/STIM_002.jpg	99
2345.385	0.554	553.5	repeat	Run3	repeat/STIM_002.jpg	99
2349.972	0.404	403.7	repeat	Run3	repeat/STIM_002.jpg	100
2352.665	0.654	653.7	repeat	Run3	repeat/STIM_002.jpg	99
2356.17	0.787	786.9	repeat	Run3	repeat/STIM_002.jpg	100
2360.297	0.432	432.1	repeat	Run3	repeat/STIM_003.jpg	100
2363.345	0.739	738.7	repeat	Run3	repeat/STIM_003.jpg	100
2367.855	0.629	629.2	repeat	Run3	repeat/STIM_003.jpg	99
2372.111	0.482	482.5	repeat	Run3	repeat/STIM_003.jpg	100
2375.94	0.665	665.2	repeat	Run3	repeat/STIM_003.jpg	99
2378.763	0.558	558.1	repeat	Run3	repeat/STIM_004.jpg	99
2382.634	0.57	569.6	repeat	Run3	repeat/STIM_004.jpg	99
2385.84	0.806	805.6	repeat	Run3	repeat/STIM_004.jpg	100
2389.209	0.77	770.0	repeat	Run3	repeat/STIM_004.jpg	100
2393.96	0.716	715.8	repeat	Run3	repeat/STIM_004.jpg	99
2398.318	0.673	673.2	repeat	Run3	repeat/STIM_005.jpg	99
2402.926	0.637	636.7	repeat	Run3	repeat/STIM_005.jpg	100
2406.605	0.396	396.0	repeat	Run3	repeat/STIM_005.jpg	99
2410.211	0.693	693.3	repeat	Run3	repeat/STIM_005.jpg	100
2413.2	0.815	814.7	repeat	Run3	repeat/STIM_005.jpg	100
2416.799	0.469	468.8	repeat	Run3	repeat/STIM_006.jpg	100
2419.544	0.79	790.3	repeat	Run3	repeat/STIM_006.jpg	100
2424.131	0.876	876.5	repeat	Run3	repeat/STIM_006.jpg	100
2427.132	0.49	489.8	repeat	Run3	repeat/STIM_006.jpg	100
2431.671	0.727	727.4	repeat	Run3	repeat/STIM_006.jpg	99
2435.517	0.64	640.1	repeat	Run3	repeat/STIM_007.jpg	99
2438.415	0.828	828.2	repeat	Run3	repeat/STIM_007.jpg	99
2443.135	0.865	865.2	repeat	Run3	repeat/STIM_007.jpg	99
2446.323	0.469	469.0	repeat	Run3	repeat/STIM_007.jpg	100
2448.924	0.646	646.2	repeat	Run3	repeat/STIM_007.jpg	99
2453.15	0.648	648.5	repeat	Run3	repeat/STIM_008.jpg	100
2456.418	0.6	600.5	repeat	Run3	repeat/STIM_008.jpg	99
2460.568	0.491	490.8	repeat	Run3	repeat/STIM_008.jpg	99
2464.557	0.614	614.4	repeat	Run3	repeat/STIM_008.jpg	100
2467.423	0.602	602.4	repeat	Run3	repeat/STIM_008.jpg	100
2471.427	0.421	421.0	repeat	Run3	repeat/STIM_009.jpg	100
2475.354	0.516	516.4	repeat	Run3	repeat/STIM_009.jpg	100
2479.738	0.812	812.0	repeat	Run3	repeat/STIM_009.jpg	100
2483.514	0.722	722.1	repeat	Run3	repeat/STIM_009.jpg	99
2488.08	0.802	802.4	repeat	Run3	repeat/STIM_009.jpg	99
2492.55	0.813	812.9	repeat	Run3	repeat/STIM_010.jpg	100
2495.537	0.85	849.7	repeat	Run3	repeat/STIM_010.jpg	99
2499.299	0.44	440.4	repeat	Run3	repeat/STIM_010.jpg	100
2501.927	0.728	727.6	repeat	Run3	repeat/STIM_010.jpg	100
2506.041	0.74	740.5	repeat	Run3	repeat/STIM_010.jpg	99
2509.563	0.863	862.8	repeat	Run3	repeat/STIM_011.jpg	99
2512.795	0.636	636.5	repeat	Run3	repeat/STIM_011.jpg	100
2517.362	0.483	483.1	repeat	Run3	repeat/STIM_011.jpg	100
2520.816	0.819	819.0	repeat	Run3	repeat/STIM_011.jpg	100
2525.689	0.868	867.8	repeat	Run3	repeat/STIM_011.jpg	100
2530.191	0.575	574.8	repeat	Run3	repeat/STIM_012.jpg	99
2533.801	0.847	847.3	repeat	Run3	repeat/STIM_012.jpg	99
2537.817	0.686	686.0	repeat	Run3	repeat/STIM_012.jpg	99
2541.646	0.913	913.1	repeat	Run3	repeat/STIM_012.jpg	100
2545.457	0.648	648.1	repeat	Run3	repeat/STIM_012.jpg	99
2549.447	0.934	933.9	repeat	Run3	repeat/STIM_013.jpg	100
2553.859	0.663	662.8	repeat	Run3	repeat/STIM_013.jpg	99
2556.697	0.489	488.6	repeat	Run3	repeat/STIM_013.jpg	100
2559.582	0.593	592.7	repeat	Run3	repeat/STIM_013.jpg	100
2563.967	0.581	581.0	repeat	Run3	repeat/STIM_013.jpg	99
2567.852	0.616	616.0	repeat	Run3	repeat/STIM_014.jpg	100
2570.653	0.541	541.4	repeat	Run3	repeat/STIM_014.jpg	99
2574.541	0.597	596.6	repeat	Run3	repeat/STIM_014.jpg	99
2577.341	0.713	713.3	repeat	Run3	repeat/STIM_014.jpg	99
2580.59	0.82	819.7	repeat	Run3	repeat/STIM_014.jpg	99
2584.951	1.714	1714.5	generate	Run4	generate/STIM_000.jpg	99
2589.185	1.571	1570.9	generate	Run4	generate/STIM_000.jpg	100
2594.452	1.325	1325.0	generate	Run4	generate/STIM_000.jpg	99
2599.796	1.559	1559.3	generate	Run4	generate/STIM_000.jpg	100
2605.284	1.832	1831.9	generate	Run4	generate/STIM_000.jpg	99
2610.302	1.578	1578.0	generate	Run4	generate/STIM_001.jpg	100
2615.847	0.83	829.8	generate	Run4	generate/STIM_001.jpg	100
2619.415	1.759	1758.7	generate	Run4	generate/STIM_001.jpg	99
2625.038	1.693	1693.4	generate	Run4	generate/STIM_001.jpg	99
2630.836	1.696	1696.3	generate	Run4	generate/STIM_001.jpg	100
2636.625	1.379	1378.8	generate	Run4	generate/STIM_002.jpg	99
2640.392	1.46	1460.3	generate	Run4	generate/STIM_002.jpg	99
2645.421	1.117	1116.6	generate	Run4	generate/STIM_002.jpg	99
2649.152	1.435	1434.8	generate	Run4	generate/STIM_002.jpg	100
2653.743	0.754	753.8	generate	Run4	generate/STIM_002.jpg	100
2656.659	1.417	1417.1	generate	Run4	generate/STIM_003.jpg	99
2661.293	1.048	1047.6	generate	Run4	generate/STIM_003.jpg	99
2664.501	1.762	1762.1	generate	Run4	generate/STIM_003.jpg	99
2669.353	1.488	1488.1	generate	Run4	generate/STIM_003.jpg	100
2674.059	0.81	810.3	generate	Run4	generate/STIM_003.jpg	99
2678.326	1.665	1665.2	generate	Run4	generate/STIM_004.jpg	100
2684.219	1.572	1572.1	generate	Run4	generate/STIM_004.jpg	99
2688.575	1.399	1399.2	generate	Run4	generate/STIM_004.jpg	100
2693.47	0.78	780.5	generate	Run4	generate/STIM_004.jpg	100
2696.859	1.446	1445.7	generate	Run4	generate/STIM_004.jpg	100
2702.26	0.697	696.7	generate	Run4	generate/STIM_005.jpg	100
2706.296	1.11	1109.9	generate	Run4	generate/STIM_005.jpg	99
2710.991	1.1	1100.0	generate	Run4	generate/STIM_005.jpg	100
2714.24	1.638	1638.2	generate	Run4	generate/STIM_005.jpg	99
2719.988	1.457	1457.2	generate	Run4	generate/STIM_005.jpg	99
2725.58	1.224	1224.2	generate	Run4	generate/STIM_006.jpg	100
2729.196	0.79	789.6	generate	Run4	generate/STIM_006.jpg	100
2732.436	1.159	1159.3	generate	Run4	generate/STIM_006.jpg	100
2737.625	0.754	753.5	generate	Run4	generate/STIM_006.jpg	99
2740.803	1.013	1013.0	generate	Run4	generate/STIM_006.jpg	99
2745.206	1.131	1131.4	generate	Run4	generate/STIM_007.jpg	99
2749.331	1.818	1817.6	generate	Run4	generate/STIM_007.jpg	100
2754.947	1.007	1007.1	generate	Run4	generate/STIM_007.jpg	100
2759.176	1.653	1653.0	generate	Run4	generate/STIM_007.jpg	99
2764.314	1.108	1107.6	generate	Run4	generate/STIM_007.jpg	99
2769.312	1.453	1453.2	generate	Run4	generate/STIM_008.jpg	100
2774.535	1.767	1766.8	generate	Run4	generate/STIM_008.jpg	99
2779.265	1.94	1940.0	generate	Run4	generate/STIM_008.jpg	100
2784.541	1.646	1646.4	generate	Run4	generate/STIM_008.jpg	99
2788.449	0.99	989.9	generate	Run4	generate/STIM_008.jpg	100
2791.913	0.773	773.4	generate	Run4	generate/STIM_009.jpg	99
2795.758	1.647	1646.9	generate	Run4	generate/STIM_009.jpg	100
2800.041	1.403	1403.1	generate	Run4	generate/STIM_009.jpg	99
2804.3	1.714	1713.5	generate	Run4	generate/STIM_009.jpg	99
2809.776	1.631	1630.6	generate	Run4	generate/STIM_009.jpg	99
2813.737	1.588	1588.0	generate	Run4	generate/STIM_010.jpg	100
2819.059	1.773	1773.0	generate	Run4	generate/STIM_010.jpg	100
2824.402	0.859	858.7	generate	Run4	generate/STIM_010.jpg	100
2827.863	1.506	1506.2	generate	Run4	generate/STIM_010.jpg	100
2831.701	1.359	1358.8	generate	Run4	generate/STIM_010.jpg	100
2835.489	1.721	1721.0	generate	Run4	generate/STIM_011.jpg	99
2839.96	1.334	1334.5	generate	Run4	generate/STIM_011.jpg	100
2844.975	1.517	1517.1	generate	Run4	generate/STIM_011.jpg	99
2849.355	1.537	1536.6	generate	Run4	generate/STIM_011.jpg	99
2853.65	0.88	880.2	generate	Run4	generate/STIM_011.jpg	100
2858.457	1.744	1744.2	generate	Run4	generate/STIM_012.jpg	99
2862.514	0.984	984.2	generate	Run4	generate/STIM_012.jpg	99
2865.9	1.225	1225.2	generate	Run4	generate/STIM_012.jpg	100
2870.732	0.806	805.5	generate	Run4	generate/STIM_012.jpg	99
2874.693	1.283	1283.3	generate	Run4	generate/STIM_012.jpg	99
2878.591	0.64	640.1	generate	Run4	generate/STIM_013.jpg	100
2882.643	1.338	1337.6	generate	Run4	generate/STIM_013.jpg	100
2887.571	1.478	1478.1	generate	Run4	generate/STIM_013.jpg	99
2891.43	1.274	1274.5	generate	Run4	generate/STIM_013.jpg	99
2894.923	1.059	1059.4	generate	Run4	generate/STIM_013.jpg	100
2899.888	1.328	1328.3	generate	Run4	generate/STIM_014.jpg	100
2904.257	1.844	1844.5	generate	Run4	generate/STIM_014.jpg	99
2910.062	0.858	858.2	generate	Run4	generate/STIM_014.jpg	99
2914.649	1.417	1416.9	generate	Run4	generate/STIM_014.jpg	99
2919.917	0.868	867.5	generate	Run4	generate/STIM_014.jpg	99
2924.616	0.988	987.5	generate	Run4	generate/STIM_015.jpg	99
2929.552	1.768	1767.6	generate	Run4	generate/STIM_015.jpg	100
2934.167	1.215	1214.9	generate	Run4	generate/STIM_015.jpg	100
2938.139	1.066	1066.0	generate	Run4	generate/STIM_015.jpg	100
2943.131	1.027	1027.4	generate	Run4	generate/STIM_015.jpg	100
2947.976	1.538	1537.8	generate	Run4	generate/STIM_016.jpg	99
2952.878	1.286	1285.8	generate	Run4	generate/STIM_016.jpg	99
2956.558	1.832	1832.0	generate	Run4	generate/STIM_016.jpg	99
2960.921	1.037	1037.1	generate	Run4	generate/STIM_016.jpg	99
2965.19	1.793	1792.8	generate	Run4	generate/STIM_016.jpg	99
2970.46	1.164	1164.4	generate	Run4	generate/STIM_017.jpg	99
2974.268	1.039	1039.2	generate	Run4	generate/STIM_017.jpg	100
2979.067	1.347	1347.3	generate	Run4	generate/STIM_017.jpg	99
2983.825	1.518	1517.9	generate	Run4	generate/STIM_017.jpg	99
2988.576	1.496	1496.1	generate	Run4	generate/STIM_017.jpg	100
2993.735	1.116	1115.6	generate	Run4	generate/STIM_018.jpg	99
2997.922	1.228	1227.7	generate	Run4	generate/STIM_018.jpg	100
3002.118	0.865	865.4	generate	Run4	generate/STIM_018.jpg	100
3005.364	0.784	784.3	generate	Run4	generate/STIM_018.jpg	100
3009.22	1.226	1226.4	generate	Run4	generate/STIM_018.jpg	99
3012.86	1.534	1534.4	generate	Run4	generate/STIM_019.jpg	99
3017.331	1.093	1093.2	generate	Run4	generate/STIM_019.jpg	99
3021.935	1.471	1471.4	generate	Run4	generate/STIM_019.jpg	100
3027.389	1.606	1606.3	generate	Run4	generate/STIM_019.jpg	99
3031.671	0.956	956.5	generate	Run4	generate/STIM_019.jpg	100
3034.818	0.99	990.4	generate	Run4	generate/STIM_020.jpg	100
3039.475	0.846	845.6	generate	Run4	generate/STIM_020.jpg	99
3043.908	1.272	1271.5	generate	Run4	generate/STIM_020.jpg	99
3048.32	1.189	1188.9	generate	Run4	generate/STIM_020.jpg	99
3053.584	1.882	1882.2	generate	Run4	generate/STIM_020.jpg	100
3059.015	1.212	1211.8	generate	Run4	generate/STIM_021.jpg	100
3062.682	1.335	1334.8	generate	Run4	generate/STIM_021.jpg	99
3066.477	1.065	1065.1	generate	Run4	generate/STIM_021.jpg	100
3070.043	0.888	887.8	generate	Run4	generate/STIM_021.jpg	100
3073.494	0.894	894.4	generate	Run4	generate/STIM_021.jpg	99
3076.902	1.058	1058.4	generate	Run4	generate/STIM_022.jpg	99
3081.192	0.826	825.5	generate	Run4	generate/STIM_022.jpg	99
3085.73	1.826	1825.8	generate	Run4	generate/STIM_022.jpg	100
3091.59	1.777	1776.8	generate	Run4	generate/STIM_022.jpg	99
3096.32	0.85	849.7	generate	Run4	generate/STIM_022.jpg	100
3100.137	1.077	1077.1	generate	Run4	generate/STIM_023.jpg	99
3104.424	1.828	1828.4	generate	Run4	generate/STIM_023.jpg	100
3108.926	1.68	1679.5	generate	Run4	generate/STIM_023.jpg	99
3112.948	1.796	1796.1	generate	Run4	generate/STIM_023.jpg	99
3118.599	0.889	888.9	generate	Run4	generate/STIM_023.jpg	99
3122.951	0.964	963.7	generate	Run4	generate/STIM_024.jpg	100
3127.121	0.728	728.2	generate	Run4	generate/STIM_024.jpg	100
3130.072	0.843	843.4	generate	Run4	generate/STIM_024.jpg	99
3134.211	1.296	1295.6	generate	Run4	generate/STIM_024.jpg	100
3139.638	1.8	1800.5	generate	Run4	generate/STIM_024.jpg	99
3144.558	0.67	669.7	repeat	Run4	repeat/STIM_000.jpg	99
3148.251	0.478	478.4	repeat	Run4	repeat/STIM_000.jpg	99
3152.39	0.886	886.2	repeat	Run4	repeat/STIM_000.jpg	100
3156.059	0.636	636.4	repeat	Run4	repeat/STIM_000.jpg	100
3160.704	0.634	633.9	repeat	Run4	repeat/STIM_000.jpg	99
3164.175	0.427	427.3	repeat	Run4	repeat/STIM_001.jpg	99
3167.248	0.782	781.5	repeat	Run4	repeat/STIM_001.jpg	100
3170.291	0.789	788.6	repeat	Run4	repeat/STIM_001.jpg	100
3174.61	0.725	725.0	repeat	Run4	repeat/STIM_001.jpg	99
3177.776	0.573	573.0	repeat	Run4	repeat/STIM_001.jpg	99
3182.157	0.56	559.5	repeat	Run4	repeat/STIM_002.jpg	99
3185.797	0.462	462.4	repeat	Run4	repeat/STIM_002.jpg	99
3190.067	0.601	600.9	repeat	Run4	repeat/STIM_002.jpg	100
3194.7	0.504	504.4	repeat	Run4	repeat/STIM_002.jpg	100
3198.244	0.413	412.7	repeat	Run4	repeat/STIM_002.jpg	99
3200.956	0.829	828.6	repeat	Run4	repeat/STIM_003.jpg	99
3205.645	0.599	599.2	repeat	Run4	repeat/STIM_003.jpg	100
3209.6	0.771	770.6	repeat	Run4	repeat/STIM_003.jpg	100
3213.455	0.538	537.6	repeat	Run4	repeat/STIM_003.jpg	100
3216.124	0.719	718.9	repeat	Run4	repeat/STIM_003.jpg	99
3219.94	0.704	703.8	repeat	Run4	repeat/STIM_004.jpg	99
3223.846	0.697	696.7	repeat	Run4	repeat/STIM_004.jpg	100
3226.852	0.796	795.8	repeat	Run4	repeat/STIM_004.jpg	99
3230.921	0.602	601.9	repeat	Run4	repeat/STIM_004.jpg	99
3234.791	0.666	666.5	repeat	Run4	repeat/STIM_004.jpg	100
3239.148	0.504	504.1	repeat	Run4	repeat/STIM_005.jpg	100
3242.748	0.625	625.1	repeat	Run4	repeat/STIM_005.jpg	99
3246.211	0.689	688.9	repeat	Run4	repeat/STIM_005.jpg	100
3249.874	0.742	741.9	repeat	Run4	repeat/STIM_005.jpg	99
3253.942	0.48	480.3	repeat	Run4	repeat/STIM_005.jpg	100
3256.854	0.73	730.3	repeat	Run4	repeat/STIM_006.jpg	100
3260.071	0.856	856.2	repeat	Run4	repeat/STIM_006.jpg	99
3263.921	0.643	642.8	repeat	Run4	repeat/STIM_006.jpg	99
3268.485	0.546	546.0	repeat	Run4	repeat/STIM_006.jpg	99
3272.585	0.633	633.2	repeat	Run4	repeat/STIM_006.jpg	100
3277.037	0.75	749.7	repeat	Run4	repeat/STIM_007.jpg	99
3281.273	0.528	528.0	repeat	Run4	repeat/STIM_007.jpg	100
3285.778	0.792	792.5	repeat	Run4	repeat/STIM_007.jpg	100
3290.324	0.656	656.2	repeat	Run4	repeat/STIM_007.jpg	99
3293.569	0.57	569.7	repeat	Run4	repeat/STIM_007.jpg	99
3297.373	0.623	622.6	repeat	Run4	repeat/STIM_008.jpg	99
3301.468	0.56	559.8	repeat	Run4	repeat/STIM_008.jpg	99
3305.538	0.839	838.8	repeat	Run4	repeat/STIM_008.jpg	99
3309.455	0.817	816.9	repeat	Run4	repeat/STIM_008.jpg	99
3313.193	0.896	896.5	repeat	Run4	repeat/STIM_008.jpg	100
3317.057	0.83	829.9	repeat	Run4	repeat/STIM_009.jpg	100
3321.042	0.895	894.8	repeat	Run4	repeat/STIM_009.jpg	100
3324.117	0.666	665.5	repeat	Run4	repeat/STIM_009.jpg	99
3327.295	0.585	584.9	repeat	Run4	repeat/STIM_009.jpg	100
3331.253	0.809	808.6	repeat	Run4	repeat/STIM_009.jpg	100
3335.342	0.576	576.2	repeat	Run4	repeat/STIM_010.jpg	100
3338.772	0.554	554.4	repeat	Run4	repeat/STIM_010.jpg	99
3342.558	0.493	492.9	repeat	Run4	repeat/STIM_010.jpg	99
3345.411	0.624	624.4	repeat	Run4	repeat/STIM_010.jpg	99
3348.667	0.863	862.6	repeat	Run4	repeat/STIM_010.jpg	99
3351.786	0.613	613.4	repeat	Run4	repeat/STIM_011.jpg	99
3355.068	0.946	945.6	repeat	Run4	repeat/STIM_011.jpg	100
3358.642	0.475	475.2	repeat	Run4	repeat/STIM_011.jpg	99
3361.182	0.759	758.9	repeat	Run4	repeat/STIM_011.jpg	99
3364.256	0.808	807.5	repeat	Run4	repeat/STIM_011.jpg	100
3368.788	0.85	850.5	repeat	Run4	repeat/STIM_012.jpg	99
3372.973	0.538	537.9	repeat	Run4	repeat/STIM_012.jpg	99
3376.361	0.466	466.1	repeat	Run4	repeat/STIM_012.jpg	100
3379.15	0.756	756.2	repeat	Run4	repeat/STIM_012.jpg	99
3382.757	0.627	627.0	repeat	Run4	repeat/STIM_012.jpg	99
3385.557	0.742	742.3	repeat	Run4	repeat/STIM_013.jpg	100
3389.427	0.571	571.2	repeat	Run4	repeat/STIM_013.jpg	100
3392.938	0.672	671.5	repeat	Run4	repeat/STIM_013.jpg	100
3396.425	0.705	705.4	repeat	Run4	repeat/STIM_013.jpg	99
3400.59	0.808	807.6	repeat	Run4	repeat/STIM_013.jpg	100
3405.024	0.82	819.7	repeat	Run4	repeat/STIM_014.jpg	99
3409.607	0.555	554.9	repeat	Run4	repeat/STIM_014.jpg	100
3413.951	0.668	667.9	repeat	Run4	repeat/STIM_014.jpg	100
3417.172	0.889	889.0	repeat	Run4	repeat/STIM_014.jpg	100
3421.325	0.856	855.5	repeat	Run4	repeat/STIM_014.jpg	100
