onset	duration	response_time_ms	trial_type	learning_stage	stimulus	response_port
0.0	2.953	2953.1	navigation	Trial1	navigation/STIM_000.jpg	100
6.369	4.612	4611.9	navigation	Trial1	navigation/STIM_000.jpg	99
13.646	4.44	4440.4	navigation	Trial1	navigation/STIM_000.jpg	100
20.937	3.732	3731.6	navigation	Trial1	navigation/STIM_000.jpg	99
26.93	2.704	2703.5	navigation	Trial1	navigation/STIM_000.jpg	99
33.197	3.126	3125.9	navigation	Trial1	navigation/STIM_000.jpg	100
38.684	4.814	4813.6	navigation	Trial1	navigation/STIM_001.jpg	100
45.583	3.458	3458.4	navigation	Trial1	navigation/STIM_001.jpg	100
52.545	3.688	3688.4	navigation	Trial1	navigation/STIM_001.jpg	99
59.456	2.152	2151.5	navigation	Trial1	navigation/STIM_001.jpg	100
65.389	3.408	3408.4	navigation	Trial1	navigation/STIM_001.jpg	99
71.799	2.198	2197.9	navigation	Trial1	navigation/STIM_001.jpg	100
77.314	4.956	4956.5	navigation	Trial1	navigation/STIM_002.jpg	99
85.265	3.596	3595.8	navigation	Trial1	navigation/STIM_002.jpg	100
91.933	2.974	2973.6	navigation	Trial1	navigation/STIM_002.jpg	100
98.597	2.772	2772.1	navigation	Trial1	navigation/STIM_002.jpg	99
104.21	1.883	1882.7	navigation	Trial1	navigation/STIM_002.jpg	100
108.046	2.75	2749.9	navigation	Trial1	navigation/STIM_002.jpg	99
113.073	5.135	5135.3	navigation	Trial1	navigation/STIM_003.jpg	99
120.193	3.33	3329.7	navigation	Trial1	navigation/STIM_003.jpg	100
125.515	4.575	4574.6	navigation	Trial1	navigation/STIM_003.jpg	99
133.648	1.87	1869.6	navigation	Trial1	navigation/STIM_003.jpg	99
138.507	4.126	4125.9	navigation	Trial1	navigation/STIM_003.jpg	100
146.323	3.583	3583.4	navigation	Trial1	navigation/STIM_003.jpg	100
152.055	3.746	3746.1	navigation	Trial1	navigation/STIM_004.jpg	99
159.264	2.326	2325.7	navigation	Trial1	navigation/STIM_004.jpg	99
164.523	3.212	3211.8	navigation	Trial1	navigation/STIM_004.jpg	100
170.688	3.316	3315.9	navigation	Trial1	navigation/STIM_004.jpg	99
176.525	3.667	3666.8	navigation	Trial1	navigation/STIM_004.jpg	100
183.372	2.905	2905.4	navigation	Trial1	navigation/STIM_004.jpg	99
189.804	4.413	4413.1	navigation	Trial1	navigation/STIM_005.jpg	99
197.368	3.175	3174.9	navigation	Trial1	navigation/STIM_005.jpg	99
202.793	3.551	3551.3	navigation	Trial1	navigation/STIM_005.jpg	100
209.891	3.143	3143.2	navigation	Trial1	navigation/STIM_005.jpg	99
216.755	2.265	2265.3	navigation	Trial1	navigation/STIM_005.jpg	100
221.734	3.198	3197.7	navigation	Trial1	navigation/STIM_005.jpg	99
228.359	2.616	2615.8	navigation	Trial1	navigation/STIM_006.jpg	99
232.906	4.769	4769.3	navigation	Trial1	navigation/STIM_006.jpg	100
240.846	2.244	2244.4	navigation	Trial1	navigation/STIM_006.jpg	100
246.236	4.404	4403.7	navigation	Trial1	navigation/STIM_006.jpg	100
252.626	3.444	3444.1	navigation	Trial1	navigation/STIM_006.jpg	100
259.591	3.117	3116.6	navigation	Trial1	navigation/STIM_006.jpg	100
265.711	4.858	4858.1	navigation	Trial1	navigation/STIM_007.jpg	100
273.581	2.141	2141.4	navigation	Trial1	navigation/STIM_007.jpg	100
279.305	2.632	2631.8	navigation	Trial1	navigation/STIM_007.jpg	100
284.285	2.782	2782.4	navigation	Trial1	navigation/STIM_007.jpg	100
289.346	3.498	3498.5	navigation	Trial1	navigation/STIM_007.jpg	100
295.812	2.895	2895.0	navigation	Trial1	navigation/STIM_007.jpg	99
300.842	4.499	4499.3	navigation	Trial1	navigation/STIM_008.jpg	100
308.868	4.084	4084.1	navigation	Trial1	navigation/STIM_008.jpg	99
315.441	2.973	2973.2	navigation	Trial1	navigation/STIM_008.jpg	100
321.885	2.19	2190.2	navigation	Trial1	navigation/STIM_008.jpg	99
327.719	3.832	3832.2	navigation	Trial1	navigation/STIM_008.jpg	100
334.15	2.933	2933.1	navigation	Trial1	navigation/STIM_008.jpg	100
338.978	4.381	4380.7	navigation	Trial1	navigation/STIM_009.jpg	99
346.692	2.915	2914.8	navigation	Trial1	navigation/STIM_009.jpg	99
351.96	2.932	2932.0	navigation	Trial1	navigation/STIM_009.jpg	100
358.249	3.187	3186.6	navigation	Trial1	navigation/STIM_009.jpg	99
365.195	4.22	4220.1	navigation	Trial1	navigation/STIM_009.jpg	99
372.972	2.342	2341.9	navigation	Trial1	navigation/STIM_009.jpg	100
378.37	4.108	4107.5	navigation	Trial1	navigation/STIM_010.jpg	99
385.639	4.384	4384.1	navigation	Trial1	navigation/STIM_010.jpg	100
392.741	3.31	3310.4	navigation	Trial1	navigation/STIM_010.jpg	100
398.448	3.448	3447.7	navigation	Trial1	navigation/STIM_010.jpg	100
405.02	3.552	3552.2	navigation	Trial1	navigation/STIM_010.jpg	100
410.947	3.395	3395.2	navigation	Trial1	navigation/STIM_010.jpg	99
416.256	2.291	2290.7	navigation	Trial1	navigation/STIM_011.jpg	99
421.748	2.253	2252.7	navigation	Trial1	navigation/STIM_011.jpg	99
426.708	3.734	3734.0	navigation	Trial1	navigation/STIM_011.jpg	99
433.295	4.492	4492.1	navigation	Trial1	navigation/STIM_011.jpg	100
440.958	3.0	2999.8	navigation	Trial1	navigation/STIM_011.jpg	99
446.322	3.899	3899.0	navigation	Trial1	navigation/STIM_011.jpg	99
452.746	1.423	1423.0	pointing	Trial1	pointing/STIM_000.jpg	99
456.274	1.45	1449.6	pointing	Trial1	pointing/STIM_000.jpg	100
461.324	1.557	1557.4	pointing	Trial1	pointing/STIM_000.jpg	100
465.091	1.445	1445.0	pointing	Trial1	pointing/STIM_000.jpg	99
470.0	1.381	1381.3	pointing	Trial1	pointing/STIM_000.jpg	100
474.854	1.498	1498.1	pointing	Trial1	pointing/STIM_000.jpg	100
479.339	1.668	1667.5	pointing	Trial1	pointing/STIM_001.jpg	99
483.057	1.245	1245.4	pointing	Trial1	pointing/STIM_001.jpg	99
486.657	1.648	1647.7	pointing	Trial1	pointing/STIM_001.jpg	100
490.898	0.958	958.0	pointing	Trial1	pointing/STIM_001.jpg	99
494.726	0.973	973.4	pointing	Trial1	pointing/STIM_001.jpg	100
499.311	1.597	1597.1	pointing	Trial1	pointing/STIM_001.jpg	100
503.103	1.551	1551.0	pointing	Trial1	pointing/STIM_002.jpg	100
507.378	0.818	818.3	pointing	Trial1	pointing/STIM_002.jpg	99
511.446	1.342	1341.7	pointing	Trial1	pointing/STIM_002.jpg	99
516.402	1.12	1120.0	pointing	Trial1	pointing/STIM_002.jpg	100
520.786	1.105	1105.1	pointing	Trial1	pointing/STIM_002.jpg	99
524.1	0.946	946.2	pointing	Trial1	pointing/STIM_002.jpg	99
528.634	1.36	1359.7	pointing	Trial1	pointing/STIM_003.jpg	99
532.073	1.485	1485.2	pointing	Trial1	pointing/STIM_003.jpg	100
537.06	0.962	961.9	pointing	Trial1	pointing/STIM_003.jpg	100
540.949	1.338	1338.0	pointing	Trial1	pointing/STIM_003.jpg	100
545.222	1.468	1467.6	pointing	Trial1	pointing/STIM_003.jpg	99
550.456	1.013	1013.0	pointing	Trial1	pointing/STIM_003.jpg	100
553.704	1.216	1215.9	pointing	Trial1	pointing/STIM_004.jpg	100
558.558	1.101	1101.4	pointing	Trial1	pointing/STIM_004.jpg	100
562.994	1.254	1254.0	pointing	Trial1	pointing/STIM_004.jpg	99
567.603	1.33	1330.1	pointing	Trial1	pointing/STIM_004.jpg	100
570.93	1.382	1382.1	pointing	Trial1	pointing/STIM_004.jpg	100
576.064	1.076	1076.2	pointing	Trial1	pointing/STIM_004.jpg	100
579.605	1.044	1043.6	pointing	Trial1	pointing/STIM_005.jpg	100
582.555	1.272	1272.0	pointing	Trial1	pointing/STIM_005.jpg	100
587.608	0.862	862.3	pointing	Trial1	pointing/STIM_005.jpg	99
592.386	1.588	1588.1	pointing	Trial1	pointing/STIM_005.jpg	100
596.781	1.54	1540.0	pointing	Trial1	pointing/STIM_005.jpg	100
601.211	1.52	1520.3	pointing	Trial1	pointing/STIM_005.jpg	100
606.136	1.365	1365.2	pointing	Trial1	pointing/STIM_006.jpg	99
609.688	0.933	933.2	pointing	Trial1	pointing/STIM_006.jpg	100
612.642	1.533	1532.8	pointing	Trial1	pointing/STIM_006.jpg	100
617.166	0.848	848.4	pointing	Trial1	pointing/STIM_006.jpg	99
620.319	1.328	1328.0	pointing	Trial1	pointing/STIM_006.jpg	99
625.257	1.058	1058.1	pointing	Trial1	pointing/STIM_006.jpg	99
629.448	0.971	971.2	pointing	Trial1	pointing/STIM_007.jpg	100
632.656	1.432	1431.8	pointing	Trial1	pointing/STIM_007.jpg	99
636.345	1.364	1364.5	pointing	Trial1	pointing/STIM_007.jpg	100
640.221	0.934	933.9	pointing	Trial1	pointing/STIM_007.jpg	99
643.389	1.578	1578.5	pointing	Trial1	pointing/STIM_007.jpg	100
648.246	1.161	1161.4	pointing	Trial1	pointing/STIM_007.jpg	100
652.666	1.353	1353.0	pointing	Trial1	pointing/STIM_008.jpg	99
656.536	1.22	1220.1	pointing	Trial1	pointing/STIM_008.jpg	99
661.485	0.857	857.0	pointing	Trial1	pointing/STIM_008.jpg	100
665.481	1.247	1247.1	pointing	Trial1	pointing/STIM_008.jpg	99
670.123	0.904	903.7	pointing	Trial1	pointing/STIM_008.jpg	100
673.82	0.889	888.8	pointing	Trial1	pointing/STIM_008.jpg	100
677.076	1.478	1477.6	pointing	Trial1	pointing/STIM_009.jpg	100
681.165	0.988	988.0	pointing	Trial1	pointing/STIM_009.jpg	99
685.312	1.216	1216.1	pointing	Trial1	pointing/STIM_009.jpg	100
690.216	1.069	1068.7	pointing	Trial1	pointing/STIM_009.jpg	100
693.453	1.08	1079.7	pointing	Trial1	pointing/STIM_009.jpg	99
698.184	0.844	844.0	pointing	Trial1	pointing/STIM_009.jpg	100
701.385	1.562	1561.9	pointing	Trial1	pointing/STIM_010.jpg	99
705.302	1.424	1424.2	pointing	Trial1	pointing/STIM_010.jpg	100
709.24	1.56	1560.2	pointing	Trial1	pointing/STIM_010.jpg	99
714.544	1.272	1272.1	pointing	Trial1	pointing/STIM_010.jpg	100
718.735	1.092	1092.4	pointing	Trial1	pointing/STIM_010.jpg	99
723.517	1.191	1190.6	pointing	Trial1	pointing/STIM_010.jpg	99
728.146	1.546	1545.8	pointing	Trial1	pointing/STIM_011.jpg	99
732.22	1.362	1361.7	pointing	Trial1	pointing/STIM_011.jpg	100
735.79	0.964	963.6	pointing	Trial1	pointing/STIM_011.jpg	99
740.532	1.536	1535.8	pointing	Trial1	pointing/STIM_011.jpg	100
745.549	1.306	1306.5	pointing	Trial1	pointing/STIM_011.jpg	100
750.235	1.241	1241.4	pointing	Trial1	pointing/STIM_011.jpg	100
753.739	4.231	4231.3	navigation	Trial2	navigation/STIM_000.jpg	99
759.889	3.845	3845.2	navigation	Trial2	navigation/STIM_000.jpg	100
766.052	2.237	2237.1	navigation	Trial2	navigation/STIM_000.jpg	99
771.545	2.762	2762.4	navigation	Trial2	navigation/STIM_000.jpg	100
777.98	2.711	2711.2	navigation	Trial2	navigation/STIM_000.jpg	100
783.248	2.047	2046.7	navigation	Trial2	navigation/STIM_000.jpg	100
787.613	3.416	3415.6	navigation	Trial2	navigation/STIM_001.jpg	99
793.457	2.958	2958.2	navigation	Trial2	navigation/STIM_001.jpg	100
799.755	1.688	1688.1	navigation	Trial2	navigation/STIM_001.jpg	99
805.218	1.947	1947.2	navigation	Trial2	navigation/STIM_001.jpg	99
809.702	2.002	2001.5	navigation	Trial2	navigation/STIM_001.jpg	100
814.327	2.86	2859.5	navigation	Trial2	navigation/STIM_001.jpg	99
819.771	2.736	2735.6	navigation	Trial2	navigation/STIM_002.jpg	100
825.32	1.885	1884.6	navigation	Trial2	navigation/STIM_002.jpg	99
830.465	1.713	1713.4	navigation	Trial2	navigation/STIM_002.jpg	100
835.884	2.111	2111.3	navigation	Trial2	navigation/STIM_002.jpg	99
841.07	2.002	2001.5	navigation	Trial2	navigation/STIM_002.jpg	99
846.353	2.318	2318.1	navigation	Trial2	navigation/STIM_002.jpg	100
851.31	3.257	3257.3	navigation	Trial2	navigation/STIM_003.jpg	100
856.627	3.494	3494.3	navigation	Trial2	navigation/STIM_003.jpg	100
862.732	2.155	2154.9	navigation	Trial2	navigation/STIM_003.jpg	100
868.778	1.766	1765.5	navigation	Trial2	navigation/STIM_003.jpg	100
873.811	2.34	2339.7	navigation	Trial2	navigation/STIM_003.jpg	100
879.935	2.975	2975.2	navigation	Trial2	navigation/STIM_003.jpg	100
885.084	3.197	3196.8	navigation	Trial2	navigation/STIM_004.jpg	99
890.723	3.994	3993.7	navigation	Trial2	navigation/STIM_004.jpg	99
898.101	3.071	3070.8	navigation	Trial2	navigation/STIM_004.jpg	100
903.171	2.018	2018.5	navigation	Trial2	navigation/STIM_004.jpg	99
907.867	1.723	1723.3	navigation	Trial2	navigation/STIM_004.jpg	99
912.232	2.092	2091.9	navigation	Trial2	navigation/STIM_004.jpg	99
917.695	3.953	3953.3	navigation	Trial2	navigation/STIM_005.jpg	99
923.724	3.872	3872.3	navigation	Trial2	navigation/STIM_005.jpg	100
931.173	3.023	3023.3	navigation	Trial2	navigation/STIM_005.jpg	99
937.728	2.353	2352.7	navigation	Trial2	navigation/STIM_005.jpg	100
942.913	3.475	3475.1	navigation	Trial2	navigation/STIM_005.jpg	99
949.476	2.389	2389.1	navigation	Trial2	navigation/STIM_005.jpg	99
954.578	2.132	2132.5	navigation	Trial2	navigation/STIM_006.jpg	100
959.393	3.732	3731.8	navigation	Trial2	navigation/STIM_006.jpg	100
966.581	2.978	2977.5	navigation	Trial2	navigation/STIM_006.jpg	100
972.163	1.876	1875.7	navigation	Trial2	navigation/STIM_006.jpg	100
977.064	2.144	2143.7	navigation	Trial2	navigation/STIM_006.jpg	99
983.005	2.089	2089.1	navigation	Trial2	navigation/STIM_006.jpg	99
988.18	2.493	2492.6	navigation	Trial2	navigation/STIM_007.jpg	99
992.488	4.28	4279.6	navigation	Trial2	navigation/STIM_007.jpg	100
999.13	2.072	2071.6	navigation	Trial2	navigation/STIM_007.jpg	100
1003.339	1.623	1623.0	navigation	Trial2	navigation/STIM_007.jpg	99
1007.353	3.275	3275.3	navigation	Trial2	navigation/STIM_007.jpg	99
1014.415	2.806	2805.5	navigation	Trial2	navigation/STIM_007.jpg	100
1020.806	2.282	2281.9	navigation	Trial2	navigation/STIM_008.jpg	99
1025.556	2.706	2706.3	navigation	Trial2	navigation/STIM_008.jpg	100
1031.302	3.76	3760.2	navigation	Trial2	navigation/STIM_008.jpg	100
1037.518	3.288	3287.8	navigation	Trial2	navigation/STIM_008.jpg	99
1042.95	2.562	2562.5	navigation	Trial2	navigation/STIM_008.jpg	99
1047.55	3.206	3206.1	navigation	Trial2	navigation/STIM_008.jpg	99
1052.629	3.561	3561.3	navigation	Trial2	navigation/STIM_009.jpg	100
1059.309	2.054	2053.6	navigation	Trial2	navigation/STIM_009.jpg	100
1064.478	2.175	2175.0	navigation	Trial2	navigation/STIM_009.jpg	100
1069.29	1.846	1845.9	navigation	Trial2	navigation/STIM_009.jpg	99
1074.061	1.556	1556.2	navigation	Trial2	navigation/STIM_009.jpg	100
1078.049	2.372	2372.5	navigation	Trial2	navigation/STIM_009.jpg	99
1082.913	2.141	2140.8	navigation	Trial2	navigation/STIM_010.jpg	99
1087.485	2.083	2082.7	navigation	Trial2	navigation/STIM_010.jpg	99
1092.151	2.008	2007.9	navigation	Trial2	navigation/STIM_010.jpg	100
1097.781	3.461	3461.2	navigation	Trial2	navigation/STIM_010.jpg	100
1103.176	2.821	2820.7	navigation	Trial2	navigation/STIM_010.jpg	99
1108.756	3.228	3227.9	navigation	Trial2	navigation/STIM_010.jpg	100
1114.931	2.564	2564.1	navigation	Trial2	navigation/STIM_011.jpg	99
1119.43	3.317	3317.1	navigation	Trial2	navigation/STIM_011.jpg	99
1125.034	1.604	1603.6	navigation	Trial2	navigation/STIM_011.jpg	100
1128.862	2.445	2445.3	navigation	Trial2	navigation/STIM_011.jpg	100
1134.957	3.204	3203.8	navigation	Trial2	navigation/STIM_011.jpg	100
1140.926	1.762	1761.6	navigation	Trial2	navigation/STIM_011.jpg	100
1145.823	1.567	1566.9	pointing	Trial2	pointing/STIM_000.jpg	100
1150.481	1.285	1285.2	pointing	Trial2	pointing/STIM_000.jpg	100
1154.527	1.534	1533.9	pointing	Trial2	pointing/STIM_000.jpg	100
1159.426	1.302	1301.7	pointing	Trial2	pointing/STIM_000.jpg	99
1162.653	0.911	910.7	pointing	Trial2	pointing/STIM_000.jpg	99
1166.237	1.019	1019.3	pointing	Trial2	pointing/STIM_000.jpg	99
1170.993	0.992	992.1	pointing	Trial2	pointing/STIM_001.jpg	100
1174.725	1.114	1113.6	pointing	Trial2	pointing/STIM_001.jpg	99
1178.464	1.347	1346.8	pointing	Trial2	pointing/STIM_001.jpg	100
1182.802	0.796	795.5	pointing	Trial2	pointing/STIM_001.jpg	100
1187.169	1.444	1444.4	pointing	Trial2	pointing/STIM_001.jpg	100
1191.589	1.476	1476.0	pointing	Trial2	pointing/STIM_001.jpg	100
1195.831	1.668	1668.2	pointing	Trial2	pointing/STIM_002.jpg	100
1201.24	1.156	1155.8	pointing	Trial2	pointing/STIM_002.jpg	99
1204.501	1.433	1433.2	pointing	Trial2	pointing/STIM_002.jpg	99
1208.019	1.525	1525.0	pointing	Trial2	pointing/STIM_002.jpg	100
1211.65	1.115	1115.3	pointing	Trial2	pointing/STIM_002.jpg	100
1215.146	1.186	1186.2	pointing	Trial2	pointing/STIM_002.jpg	100
1218.604	0.924	924.2	pointing	Trial2	pointing/STIM_003.jpg	99
1222.599	1.018	1018.0	pointing	Trial2	pointing/STIM_003.jpg	99
1226.665	1.402	1401.7	pointing	Trial2	pointing/STIM_003.jpg	100
1230.58	1.291	1290.7	pointing	Trial2	pointing/STIM_003.jpg	99
1235.01	0.979	979.0	pointing	Trial2	pointing/STIM_003.jpg	100
1239.537	1.184	1183.7	pointing	Trial2	pointing/STIM_003.jpg	100
1243.648	1.585	1584.9	pointing	Trial2	pointing/STIM_004.jpg	100
1248.892	0.895	895.3	pointing	Trial2	pointing/STIM_004.jpg	100
1252.526	1.008	1007.5	pointing	Trial2	pointing/STIM_004.jpg	99
1256.357	1.321	1320.9	pointing	Trial2	pointing/STIM_004.jpg	99
1261.016	1.59	1589.5	pointing	Trial2	pointing/STIM_004.jpg	100
1265.938	1.251	1250.9	pointing	Trial2	pointing/STIM_004.jpg	99
1270.047	1.6	1599.7	pointing	Trial2	pointing/STIM_005.jpg	100
1275.372	0.955	955.4	pointing	Trial2	pointing/STIM_005.jpg	100
1278.777	1.238	1237.9	pointing	Trial2	pointing/STIM_005.jpg	100
1283.725	0.906	906.5	pointing	Trial2	pointing/STIM_005.jpg	99
1287.669	0.989	989.2	pointing	Trial2	pointing/STIM_005.jpg	99
1291.544	1.211	1211.1	pointing	Trial2	pointing/STIM_005.jpg	100
1294.927	1.551	1551.4	pointing	Trial2	pointing/STIM_006.jpg	99
1298.415	1.531	1530.7	pointing	Trial2	pointing/STIM_006.jpg	99
1303.292	1.618	1617.8	pointing	Trial2	pointing/STIM_006.jpg	99
1308.738	1.557	1557.1	pointing	Trial2	pointing/STIM_006.jpg	100
1313.022	1.055	1055.0	pointing	Trial2	pointing/STIM_006.jpg	100
1316.606	1.35	1349.7	pointing	Trial2	pointing/STIM_006.jpg	99
1320.026	1.033	1032.8	pointing	Trial2	pointing/STIM_007.jpg	99
1323.405	1.035	1035.3	pointing	Trial2	pointing/STIM_007.jpg	100
1326.982	1.078	1077.8	pointing	Trial2	pointing/STIM_007.jpg	99
1330.558	1.47	1470.1	pointing	Trial2	pointing/STIM_007.jpg	99
1334.452	1.586	1586.4	pointing	Trial2	pointing/STIM_007.jpg	99
1339.082	1.575	1575.1	pointing	Trial2	pointing/STIM_007.jpg	99
1344.422	1.497	1497.3	pointing	Trial2	pointing/STIM_008.jpg	100
1348.049	1.165	1164.9	pointing	Trial2	pointing/STIM_008.jpg	100
1352.372	1.09	1090.2	pointing	Trial2	pointing/STIM_008.jpg	100
1356.799	1.613	1612.7	pointing	Trial2	pointing/STIM_008.jpg	100
1361.698	0.978	977.6	pointing	Trial2	pointing/STIM_008.jpg	100
1365.399	1.154	1153.8	pointing	Trial2	pointing/STIM_008.jpg	99
1369.712	1.284	1283.9	pointing	Trial2	pointing/STIM_009.jpg	99
1373.054	1.038	1037.6	pointing	Trial2	pointing/STIM_009.jpg	100
1377.418	1.389	1389.0	pointing	Trial2	pointing/STIM_009.jpg	100
1381.92	1.005	1005.4	pointing	Trial2	pointing/STIM_009.jpg	99
1385.267	1.35	1350.3	pointing	Trial2	pointing/STIM_009.jpg	99
1389.543	1.104	1104.4	pointing	Trial2	pointing/STIM_009.jpg	100
1393.865	1.162	1162.5	pointing	Trial2	pointing/STIM_010.jpg	100
1397.059	1.09	1090.5	pointing	Trial2	pointing/STIM_010.jpg	100
1402.005	1.061	1061.4	pointing	Trial2	pointing/STIM_010.jpg	99
1406.682	1.192	1191.8	pointing	Trial2	pointing/STIM_010.jpg	100
1410.706	1.326	1325.6	pointing	Trial2	pointing/STIM_010.jpg	100
1415.443	1.506	1505.8	pointing	Trial2	pointing/STIM_010.jpg	100
1420.709	0.968	967.8	pointing	Trial2	pointing/STIM_011.jpg	100
1424.116	1.597	1597.2	pointing	Trial2	pointing/STIM_011.jpg	99
1427.93	1.245	1245.3	pointing	Trial2	pointing/STIM_011.jpg	99
1431.548	1.21	1210.1	pointing	Trial2	pointing/STIM_011.jpg	100
1436.591	1.104	1104.2	pointing	Trial2	pointing/STIM_011.jpg	100
1440.422	0.966	966.2	pointing	Trial2	pointing/STIM_011.jpg	99
1443.443	3.671	3671.1	navigation	Trial3	navigation/STIM_000.jpg	99
1450.128	3.404	3404.4	navigation	Trial3	navigation/STIM_000.jpg	100
1455.464	2.867	2866.8	navigation	Trial3	navigation/STIM_000.jpg	100
1460.635	2.029	2028.5	navigation	Trial3	navigation/STIM_000.jpg	100
1464.66	2.798	2798.4	navigation	Trial3	navigation/STIM_000.jpg	100
1471.244	3.135	3135.1	navigation	Trial3	navigation/STIM_000.jpg	100
1477.93	2.712	2712.3	navigation	Trial3	navigation/STIM_001.jpg	99
1483.291	2.116	2116.5	navigation	Trial3	navigation/STIM_001.jpg	100
1488.16	2.061	2060.8	navigation	Trial3	navigation/STIM_001.jpg	99
1493.663	2.149	2148.8	navigation	Trial3	navigation/STIM_001.jpg	99
1499.404	3.579	3578.8	navigation	Trial3	navigation/STIM_001.jpg	99
1506.179	2.904	2904.3	navigation	Trial3	navigation/STIM_001.jpg	99
1511.472	3.662	3661.9	navigation	Trial3	navigation/STIM_002.jpg	99
1517.379	1.845	1845.3	navigation	Trial3	navigation/STIM_002.jpg	99
1521.733	1.642	1642.2	navigation	Trial3	navigation/STIM_002.jpg	99
1526.171	2.91	2910.2	navigation	Trial3	navigation/STIM_002.jpg	100
1532.363	2.636	2636.4	navigation	Trial3	navigation/STIM_002.jpg	99
1537.073	2.388	2388.5	navigation	Trial3	navigation/STIM_002.jpg	100
1542.607	3.59	3589.9	navigation	Trial3	navigation/STIM_003.jpg	100
1547.98	2.799	2799.4	navigation	Trial3	navigation/STIM_003.jpg	100
1554.225	3.413	3413.4	navigation	Trial3	navigation/STIM_003.jpg	99
1561.409	2.569	2569.1	navigation	Trial3	navigation/STIM_003.jpg	99
1567.091	3.056	3055.5	navigation	Trial3	navigation/STIM_003.jpg	100
1573.321	2.648	2647.9	navigation	Trial3	navigation/STIM_003.jpg	100
1577.926	2.594	2594.0	navigation	Trial3	navigation/STIM_004.jpg	99
1583.213	2.464	2463.6	navigation	Trial3	navigation/STIM_004.jpg	100
1587.914	3.636	3636.4	navigation	Trial3	navigation/STIM_004.jpg	99
1593.943	2.76	2759.6	navigation	Trial3	navigation/STIM_004.jpg	99
1599.63	1.874	1873.7	navigation	Trial3	navigation/STIM_004.jpg	99
1604.265	3.147	3147.4	navigation	Trial3	navigation/STIM_004.jpg	99
1609.981	3.167	3166.8	navigation	Trial3	navigation/STIM_005.jpg	100
1616.346	1.687	1686.7	navigation	Trial3	navigation/STIM_005.jpg	100
1621.692	3.621	3620.6	navigation	Trial3	navigation/STIM_005.jpg	100
1627.333	2.328	2327.8	navigation	Trial3	navigation/STIM_005.jpg	99
1632.57	2.832	2832.3	navigation	Trial3	navigation/STIM_005.jpg	99
1638.102	1.974	1974.2	navigation	Trial3	navigation/STIM_005.jpg	99
1642.417	3.134	3133.9	navigation	Trial3	navigation/STIM_006.jpg	99
1648.179	3.192	3192.2	navigation	Trial3	navigation/STIM_006.jpg	100
1653.374	3.68	3679.8	navigation	Trial3	navigation/STIM_006.jpg	100
1659.023	2.459	2459.3	navigation	Trial3	navigation/STIM_006.jpg	100
1664.083	2.003	2003.4	navigation	Trial3	navigation/STIM_006.jpg	100
1668.618	2.051	2050.6	navigation	Trial3	navigation/STIM_006.jpg	99
1673.252	2.68	2680.3	navigation	Trial3	navigation/STIM_007.jpg	99
1678.86	1.942	1942.5	navigation	Trial3	navigation/STIM_007.jpg	100
1683.576	2.133	2132.7	navigation	Trial3	navigation/STIM_007.jpg	100
1688.394	2.65	2650.5	navigation	Trial3	navigation/STIM_007.jpg	100
1694.541	1.821	1821.4	navigation	Trial3	navigation/STIM_007.jpg	100
1699.802	2.298	2298.4	navigation	Trial3	navigation/STIM_007.jpg	100
1705.822	2.69	2690.2	navigation	Trial3	navigation/STIM_008.jpg	99
1710.97	2.324	2324.1	navigation	Trial3	navigation/STIM_008.jpg	99
1715.279	2.338	2337.9	navigation	Trial3	navigation/STIM_008.jpg	99
1721.33	2.648	2648.3	navigation	Trial3	navigation/STIM_008.jpg	100
1725.832	2.609	2608.6	navigation	Trial3	navigation/STIM_008.jpg	99
1731.664	3.207	3207.4	navigation	Trial3	navigation/STIM_008.jpg	99
1737.775	3.18	3180.3	navigation	Trial3	navigation/STIM_009.jpg	100
1743.445	2.457	2457.4	navigation	Trial3	navigation/STIM_009.jpg	100
1748.702	1.889	1888.8	navigation	Trial3	navigation/STIM_009.jpg	99
1753.346	2.21	2209.5	navigation	Trial3	navigation/STIM_009.jpg	100
1759.056	3.447	3447.1	navigation	Trial3	navigation/STIM_009.jpg	100
1764.375	2.411	2411.1	navigation	Trial3	navigation/STIM_009.jpg	100
1769.344	2.376	2376.2	navigation	Trial3	navigation/STIM_010.jpg	100
1774.896	2.307	2307.3	navigation	Trial3	navigation/STIM_010.jpg	100
1780.784	2.165	2165.4	navigation	Trial3	navigation/STIM_010.jpg	99
1786.496	2.219	2218.9	navigation	Trial3	navigation/STIM_010.jpg	100
1792.423	1.696	1696.3	navigation	Trial3	navigation/STIM_010.jpg	100
1797.269	2.48	2479.6	navigation	Trial3	navigation/STIM_010.jpg	99
1802.065	2.456	2456.3	navigation	Trial3	navigation/STIM_011.jpg	99
1806.532	1.866	1866.2	navigation	Trial3	navigation/STIM_011.jpg	100
1810.882	3.48	3480.0	navigation	Trial3	navigation/STIM_011.jpg	100
1817.833	1.561	1561.4	navigation	Trial3	navigation/STIM_011.jpg	99
1821.502	2.022	2022.3	navigation	Trial3	navigation/STIM_011.jpg	99
1826.391	1.936	1936.0	navigation	Trial3	navigation/STIM_011.jpg	99
1830.913	1.125	1124.9	pointing	Trial3	pointing/STIM_000.jpg	99
1835.966	1.428	1428.0	pointing	Trial3	pointing/STIM_000.jpg	100
1839.436	0.872	872.4	pointing	Trial3	pointing/STIM_000.jpg	100
1842.952	1.285	1284.9	pointing	Trial3	pointing/STIM_000.jpg	100
1846.539	1.34	1340.5	pointing	Trial3	pointing/STIM_000.jpg	100
1850.027	1.232	1231.9	pointing	Trial3	pointing/STIM_000.jpg	100
1854.271	0.968	967.6	pointing	Trial3	pointing/STIM_001.jpg	100
1857.855	1.369	1369.1	pointing	Trial3	pointing/STIM_001.jpg	99
1862.583	1.142	1142.3	pointing	Trial3	pointing/STIM_001.jpg	100
1865.818	1.402	1401.9	pointing	Trial3	pointing/STIM_001.jpg	99
1869.678	1.239	1239.3	pointing	Trial3	pointing/STIM_001.jpg	100
1873.347	1.204	1204.1	pointing	Trial3	pointing/STIM_001.jpg	100
1878.114	1.092	1092.4	pointing	Trial3	pointing/STIM_002.jpg	100
1882.129	0.946	945.7	pointing	Trial3	pointing/STIM_002.jpg	99
1885.024	1.369	1369.0	pointing	Trial3	pointing/STIM_002.jpg	99
1888.834	0.938	937.5	pointing	Trial3	pointing/STIM_002.jpg	99
1891.962	0.875	874.7	pointing	Trial3	pointing/STIM_002.jpg	100
1895.909	1.631	1630.7	pointing	Trial3	pointing/STIM_002.jpg	100
1901.113	1.122	1122.2	pointing	Trial3	pointing/STIM_003.jpg	99
1904.933	1.489	1488.8	pointing	Trial3	pointing/STIM_003.jpg	99
1909.714	1.402	1401.8	pointing	Trial3	pointing/STIM_003.jpg	99
1913.254	1.47	1469.9	pointing	Trial3	pointing/STIM_003.jpg	100
1917.932	1.533	1533.4	pointing	Trial3	pointing/STIM_003.jpg	99
1922.933	1.388	1388.3	pointing	Trial3	pointing/STIM_003.jpg	100
1927.093	1.08	1080.2	pointing	Trial3	pointing/STIM_004.jpg	99
1931.677	0.907	907.1	pointing	Trial3	pointing/STIM_004.jpg	100
1934.78	1.617	1617.1	pointing	Trial3	pointing/STIM_004.jpg	100
1938.53	1.59	1589.9	pointing	Trial3	pointing/STIM_004.jpg	100
1942.612	1.146	1145.7	pointing	Trial3	pointing/STIM_004.jpg	99
1947.49	1.515	1514.8	pointing	Trial3	pointing/STIM_004.jpg	99
1952.86	1.318	1317.5	pointing	Trial3	pointing/STIM_005.jpg	100
1956.673	1.37	1370.4	pointing	Trial3	pointing/STIM_005.jpg	100
1960.936	1.253	1252.9	pointing	Trial3	pointing/STIM_005.jpg	99
1966.03	1.399	1398.6	pointing	Trial3	pointing/STIM_005.jpg	99
1970.931	1.235	1234.8	pointing	Trial3	pointing/STIM_005.jpg	100
1975.33	1.539	1539.4	pointing	Trial3	pointing/STIM_005.jpg	100
1980.388	1.435	1434.6	pointing	Trial3	pointing/STIM_006.jpg	99
1984.035	1.527	1526.6	pointing	Trial3	pointing/STIM_006.jpg	100
1989.317	1.219	1219.4	pointing	Trial3	pointing/STIM_006.jpg	100
1994.156	1.169	1169.1	pointing	Trial3	pointing/STIM_006.jpg	99
1998.315	0.932	932.2	pointing	Trial3	pointing/STIM_006.jpg	99
2002.753	1.252	1252.3	pointing	Trial3	pointing/STIM_006.jpg	100
2007.806	1.019	1018.9	pointing	Trial3	pointing/STIM_007.jpg	99
2012.292	1.48	1480.1	pointing	Trial3	pointing/STIM_007.jpg	100
2017.542	1.411	1411.3	pointing	Trial3	pointing/STIM_007.jpg	100
2022.538	1.238	1237.6	pointing	Trial3	pointing/STIM_007.jpg	99
2026.232	1.186	1185.5	pointing	Trial3	pointing/STIM_007.jpg	99
2030.509	1.533	1532.9	pointing	Trial3	pointing/STIM_007.jpg	100
2035.485	0.96	960.4	pointing	Trial3	pointing/STIM_008.jpg	100
2039.518	1.254	1253.9	pointing	Trial3	pointing/STIM_008.jpg	100
2044.06	1.166	1166.4	pointing	Trial3	pointing/STIM_008.jpg	99
2047.377	1.367	1367.1	pointing	Trial3	pointing/STIM_008.jpg	99
2051.064	1.16	1159.9	pointing	Trial3	pointing/STIM_008.jpg	99
2055.484	1.167	1167.2	pointing	Trial3	pointing/STIM_008.jpg	99
2059.52	1.309	1309.0	pointing	Trial3	pointing/STIM_009.jpg	99
2062.774	1.28	1279.5	pointing	Trial3	pointing/STIM_009.jpg	99
2067.096	1.535	1534.9	pointing	Trial3	pointing/STIM_009.jpg	100
2072.413	1.489	1488.8	pointing	Trial3	pointing/STIM_009.jpg	100
2077.855	0.948	948.5	pointing	Trial3	pointing/STIM_009.jpg	100
2081.13	0.987	987.1	pointing	Trial3	pointing/STIM_009.jpg	100
2085.188	1.325	1325.1	pointing	Trial3	pointing/STIM_010.jpg	99
2088.838	1.403	1403.2	pointing	Trial3	pointing/STIM_010.jpg	100
2093.501	1.499	1498.9	pointing	Trial3	pointing/STIM_010.jpg	100
2097.576	1.365	1364.7	pointing	Trial3	pointing/STIM_010.jpg	99
2102.718	1.232	1232.2	pointing	Trial3	pointing/STIM_010.jpg	99
2106.696	1.265	1265.4	pointing	Trial3	pointing/STIM_010.jpg	99
2110.42	1.576	1576.4	pointing	Trial3	pointing/STIM_011.jpg	99
2115.714	1.47	1470.5	pointing	Trial3	pointing/STIM_011.jpg	100
2120.353	1.239	1238.6	pointing	Trial3	pointing/STIM_011.jpg	99
2123.823	1.011	1011.1	pointing	Trial3	pointing/STIM_011.jpg	99
2126.984	1.05	1050.4	pointing	Trial3	pointing/STIM_011.jpg	99
2131.489	1.513	1513.3	pointing	Trial3	pointing/STIM_011.jpg	100
