onset	duration	accuracy_binary	trial_type	learning_stage	stimulus
0.0	4.826	1	navigation	Trial1	navigation/STIM_000.jpg
8.275	5.148	1	navigation	Trial1	navigation/STIM_000.jpg
16.611	2.943	0	navigation	Trial1	navigation/STIM_000.jpg
21.577	3.667	0	navigation	Trial1	navigation/STIM_000.jpg
28.186	2.738	1	navigation	Trial1	navigation/STIM_000.jpg
34.64	4.007	1	navigation	Trial1	navigation/STIM_000.jpg
42.496	2.433	1	navigation	Trial1	navigation/STIM_001.jpg
48.564	5.473	1	navigation	Trial1	navigation/STIM_001.jpg
56.834	3.729	1	navigation	Trial1	navigation/STIM_001.jpg
63.349	4.062	1	navigation	Trial1	navigation/STIM_001.jpg
70.383	3.067	0	navigation	Trial1	navigation/STIM_001.jpg
76.14	2.896	1	navigation	Trial1	navigation/STIM_001.jpg
81.062	2.86	0	navigation	Trial1	navigation/STIM_002.jpg
86.758	4.887	1	navigation	Trial1	navigation/STIM_002.jpg
93.908	4.173	0	navigation	Trial1	navigation/STIM_002.jpg
100.571	2.244	1	navigation	Trial1	navigation/STIM_002.jpg
106.357	3.014	0	navigation	Trial1	navigation/STIM_002.jpg
112.577	2.1	1	navigation	Trial1	navigation/STIM_002.jpg
117.126	3.869	0	navigation	Trial1	navigation/STIM_003.jpg
124.806	2.877	1	navigation	Trial1	navigation/STIM_003.jpg
130.683	4.349	0	navigation	Trial1	navigation/STIM_003.jpg
138.791	4.572	0	navigation	Trial1	navigation/STIM_003.jpg
147.058	4.148	1	navigation	Trial1	navigation/STIM_003.jpg
153.323	3.391	1	navigation	Trial1	navigation/STIM_003.jpg
158.942	2.51	1	navigation	Trial1	navigation/STIM_004.jpg
163.859	4.665	1	navigation	Trial1	navigation/STIM_004.jpg
172.501	4.513	0	navigation	Trial1	navigation/STIM_004.jpg
179.59	2.733	1	navigation	Trial1	navigation/STIM_004.jpg
184.53	3.982	1	navigation	Trial1	navigation/STIM_004.jpg
192.42	3.568	1	navigation	Trial1	navigation/STIM_004.jpg
199.749	4.578	0	navigation	Trial1	navigation/STIM_005.jpg
207.67	2.488	1	navigation	Trial1	navigation/STIM_005.jpg
212.641	3.347	1	navigation	Trial1	navigation/STIM_005.jpg
218.113	2.534	1	navigation	Trial1	navigation/STIM_005.jpg
224.569	3.284	0	navigation	Trial1	navigation/STIM_005.jpg
230.049	3.311	0	navigation	Trial1	navigation/STIM_005.jpg
237.042	2.694	1	navigation	Trial1	navigation/STIM_006.jpg
242.629	4.136	0	navigation	Trial1	navigation/STIM_006.jpg
249.074	4.46	1	navigation	Trial1	navigation/STIM_006.jpg
257.372	3.727	0	navigation	Trial1	navigation/STIM_006.jpg
264.566	4.237	0	navigation	Trial1	navigation/STIM_006.jpg
271.592	4.062	1	navigation	Trial1	navigation/STIM_006.jpg
277.754	4.998	0	navigation	Trial1	navigation/STIM_007.jpg
285.667	5.067	1	navigation	Trial1	navigation/STIM_007.jpg
293.585	3.432	0	navigation	Trial1	navigation/STIM_007.jpg
300.488	3.244	1	navigation	Trial1	navigation/STIM_007.jpg
307.441	3.848	1	navigation	Trial1	navigation/STIM_007.jpg
314.671	3.534	1	navigation	Trial1	navigation/STIM_007.jpg
320.981	5.373	1	navigation	Trial1	navigation/STIM_008.jpg
329.589	3.833	1	navigation	Trial1	navigation/STIM_008.jpg
336.081	3.251	1	navigation	Trial1	navigation/STIM_008.jpg
342.456	4.955	1	navigation	Trial1	navigation/STIM_008.jpg
350.985	2.479	0	navigation	Trial1	navigation/STIM_008.jpg
356.117	3.435	0	navigation	Trial1	navigation/STIM_008.jpg
362.171	3.729	1	navigation	Trial1	navigation/STIM_009.jpg
368.019	5.503	1	navigation	Trial1	navigation/STIM_009.jpg
376.929	4.788	1	navigation	Trial1	navigation/STIM_009.jpg
385.148	2.897	1	navigation	Trial1	navigation/STIM_009.jpg
391.601	4.641	1	navigation	Trial1	navigation/STIM_009.jpg
398.972	2.953	1	navigation	Trial1	navigation/STIM_009.jpg
404.756	3.257	1	navigation	Trial1	navigation/STIM_010.jpg
411.305	4.724	1	navigation	Trial1	navigation/STIM_010.jpg
418.428	2.838	0	navigation	Trial1	navigation/STIM_010.jpg
424.535	3.572	1	navigation	Trial1	navigation/STIM_010.jpg
431.835	4.479	1	navigation	Trial1	navigation/STIM_010.jpg
438.426	2.606	1	navigation	Trial1	navigation/STIM_010.jpg
444.129	3.116	1	navigation	Trial1	navigation/STIM_011.jpg
450.016	5.43	1	navigation	Trial1	navigation/STIM_011.jpg
458.171	3.683	1	navigation	Trial1	navigation/STIM_011.jpg
464.233	4.485	1	navigation	Trial1	navigation/STIM_011.jpg
471.972	3.424	1	navigation	Trial1	navigation/STIM_011.jpg
478.242	3.373	1	navigation	Trial1	navigation/STIM_011.jpg
485.302	1.544	1	pointing	Trial1	pointing/STIM_000.jpg
490.665	1.724	1	pointing	Trial1	pointing/STIM_000.jpg
495.104	1.074	1	pointing	Trial1	pointing/STIM_000.jpg
499.062	1.338	1	pointing	Trial1	pointing/STIM_000.jpg
503.604	1.659	0	pointing	Trial1	pointing/STIM_000.jpg
508.771	1.118	1	pointing	Trial1	pointing/STIM_000.jpg
512.142	1.228	1	pointing	Trial1	pointing/STIM_001.jpg
515.979	1.744	1	pointing	Trial1	pointing/STIM_001.jpg
521.385	1.188	0	pointing	Trial1	pointing/STIM_001.jpg
526.306	1.081	1	pointing	Trial1	pointing/STIM_001.jpg
529.412	1.1	1	pointing	Trial1	pointing/STIM_001.jpg
534.417	1.654	1	pointing	Trial1	pointing/STIM_001.jpg
538.169	1.323	1	pointing	Trial1	pointing/STIM_002.jpg
543.132	1.085	1	pointing	Trial1	pointing/STIM_002.jpg
547.967	1.169	0	pointing	Trial1	pointing/STIM_002.jpg
552.857	1.702	1	pointing	Trial1	pointing/STIM_002.jpg
557.641	1.668	1	pointing	Trial1	pointing/STIM_002.jpg
563.145	0.973	0	pointing	Trial1	pointing/STIM_002.jpg
567.013	1.099	1	pointing	Trial1	pointing/STIM_003.jpg
570.797	1.08	1	pointing	Trial1	pointing/STIM_003.jpg
574.761	1.68	0	pointing	Trial1	pointing/STIM_003.jpg
579.691	1.37	1	pointing	Trial1	pointing/STIM_003.jpg
584.33	1.327	0	pointing	Trial1	pointing/STIM_003.jpg
589.469	1.597	1	pointing	Trial1	pointing/STIM_003.jpg
594.228	1.34	1	pointing	Trial1	pointing/STIM_004.jpg
598.833	1.289	1	pointing	Trial1	pointing/STIM_004.jpg
603.115	1.238	1	pointing	Trial1	pointing/STIM_004.jpg
606.513	1.26	1	pointing	Trial1	pointing/STIM_004.jpg
609.881	1.607	1	pointing	Trial1	pointing/STIM_004.jpg
613.735	1.312	1	pointing	Trial1	pointing/STIM_004.jpg
617.931	1.648	1	pointing	Trial1	pointing/STIM_005.jpg
621.703	1.475	1	pointing	Trial1	pointing/STIM_005.jpg
626.325	1.027	1	pointing	Trial1	pointing/STIM_005.jpg
630.594	1.524	1	pointing	Trial1	pointing/STIM_005.jpg
635.549	1.201	1	pointing	Trial1	pointing/STIM_005.jpg
639.507	1.708	1	pointing	Trial1	pointing/STIM_005.jpg
643.326	1.161	1	pointing	Trial1	pointing/STIM_006.jpg
647.479	1.024	1	pointing	Trial1	pointing/STIM_006.jpg
651.256	0.997	1	pointing	Trial1	pointing/STIM_006.jpg
655.696	1.053	1	pointing	Trial1	pointing/STIM_006.jpg
660.298	1.479	1	pointing	Trial1	pointing/STIM_006.jpg
665.491	1.292	1	pointing	Trial1	pointing/STIM_006.jpg
668.921	1.133	1	pointing	Trial1	pointing/STIM_007.jpg
673.961	1.658	1	pointing	Trial1	pointing/STIM_007.jpg
679.089	1.327	1	pointing	Trial1	pointing/STIM_007.jpg
682.511	1.481	1	pointing	Trial1	pointing/STIM_007.jpg
687.21	1.35	1	pointing	Trial1	pointing/STIM_007.jpg
691.467	1.554	0	pointing	Trial1	pointing/STIM_007.jpg
696.026	1.234	1	pointing	Trial1	pointing/STIM_008.jpg
699.669	1.062	1	pointing	Trial1	pointing/STIM_008.jpg
704.259	1.585	1	pointing	Trial1	pointing/STIM_008.jpg
709.068	1.587	1	pointing	Trial1	pointing/STIM_008.jpg
713.883	1.526	0	pointing	Trial1	pointing/STIM_008.jpg
719.046	1.557	1	pointing	Trial1	pointing/STIM_008.jpg
723.597	0.968	1	pointing	Trial1	pointing/STIM_009.jpg
726.913	1.097	1	pointing	Trial1	pointing/STIM_009.jpg
730.656	1.476	1	pointing	Trial1	pointing/STIM_009.jpg
735.735	1.403	1	pointing	Trial1	pointing/STIM_009.jpg
739.609	0.948	0	pointing	Trial1	pointing/STIM_009.jpg
742.784	1.115	1	pointing	Trial1	pointing/STIM_009.jpg
747.47	1.381	0	pointing	Trial1	pointing/STIM_010.jpg
751.683	1.233	1	pointing	Trial1	pointing/STIM_010.jpg
755.648	1.053	1	pointing	Trial1	pointing/STIM_010.jpg
759.537	1.53	1	pointing	Trial1	pointing/STIM_010.jpg
764.651	1.124	1	pointing	Trial1	pointing/STIM_010.jpg
769.081	1.192	1	pointing	Trial1	pointing/STIM_010.jpg
773.41	1.026	1	pointing	Trial1	pointing/STIM_011.jpg
776.701	1.25	1	pointing	Trial1	pointing/STIM_011.jpg
780.378	1.726	1	pointing	Trial1	pointing/STIM_011.jpg
785.53	1.309	1	pointing	Trial1	pointing/STIM_011.jpg
788.951	1.345	1	pointing	Trial1	pointing/STIM_011.jpg
794.222	1.438	0	pointing	Trial1	pointing/STIM_011.jpg
799.593	3.956	1	navigation	Trial2	navigation/STIM_000.jpg
807.058	2.987	1	navigation	Trial2	navigation/STIM_000.jpg
813.724	3.287	0	navigation	Trial2	navigation/STIM_000.jpg
819.43	4.107	1	navigation	Trial2	navigation/STIM_000.jpg
826.278	2.631	1	navigation	Trial2	navigation/STIM_000.jpg
830.968	3.446	1	navigation	Trial2	navigation/STIM_000.jpg
838.076	2.552	1	navigation	Trial2	navigation/STIM_001.jpg
843.012	3.266	1	navigation	Trial2	navigation/STIM_001.jpg
848.624	2.536	1	navigation	Trial2	navigation/STIM_001.jpg
854.733	3.832	1	navigation	Trial2	navigation/STIM_001.jpg
860.994	1.99	1	navigation	Trial2	navigation/STIM_001.jpg
865.595	3.784	1	navigation	Trial2	navigation/STIM_001.jpg
873.342	4.708	1	navigation	Trial2	navigation/STIM_002.jpg
880.81	3.261	1	navigation	Trial2	navigation/STIM_002.jpg
887.444	3.108	1	navigation	Trial2	navigation/STIM_002.jpg
892.577	3.843	1	navigation	Trial2	navigation/STIM_002.jpg
899.987	3.498	1	navigation	Trial2	navigation/STIM_002.jpg
905.823	4.095	1	navigation	Trial2	navigation/STIM_002.jpg
912.003	3.064	1	navigation	Trial2	navigation/STIM_003.jpg
917.491	4.266	1	navigation	Trial2	navigation/STIM_003.jpg
924.621	2.569	1	navigation	Trial2	navigation/STIM_003.jpg
929.759	3.1	1	navigation	Trial2	navigation/STIM_003.jpg
935.516	2.501	1	navigation	Trial2	navigation/STIM_003.jpg
941.25	3.614	1	navigation	Trial2	navigation/STIM_003.jpg
948.271	4.668	1	navigation	Trial2	navigation/STIM_004.jpg
956.426	3.507	1	navigation	Trial2	navigation/STIM_004.jpg
962.25	4.187	1	navigation	Trial2	navigation/STIM_004.jpg
969.525	1.694	1	navigation	Trial2	navigation/STIM_004.jpg
973.443	2.636	0	navigation	Trial2	navigation/STIM_004.jpg
978.341	2.271	1	navigation	Trial2	navigation/STIM_004.jpg
984.199	2.71	1	navigation	Trial2	navigation/STIM_005.jpg
990.121	3.155	0	navigation	Trial2	navigation/STIM_005.jpg
996.113	2.126	1	navigation	Trial2	navigation/STIM_005.jpg
1001.019	2.783	1	navigation	Trial2	navigation/STIM_005.jpg
1006.036	1.845	1	navigation	Trial2	navigation/STIM_005.jpg
1010.885	1.796	1	navigation	Trial2	navigation/STIM_005.jpg
1015.702	2.925	1	navigation	Trial2	navigation/STIM_006.jpg
1021.425	4.24	1	navigation	Trial2	navigation/STIM_006.jpg
1028.719	4.354	0	navigation	Trial2	navigation/STIM_006.jpg
1035.367	2.972	1	navigation	Trial2	navigation/STIM_006.jpg
1041.209	3.825	0	navigation	Trial2	navigation/STIM_006.jpg
1048.509	3.367	1	navigation	Trial2	navigation/STIM_006.jpg
1055.683	3.692	1	navigation	Trial2	navigation/STIM_007.jpg
1061.914	4.261	0	navigation	Trial2	navigation/STIM_007.jpg
1068.494	2.751	1	navigation	Trial2	navigation/STIM_007.jpg
1074.516	3.659	1	navigation	Trial2	navigation/STIM_007.jpg
1080.299	3.106	0	navigation	Trial2	navigation/STIM_007.jpg
1086.547	1.94	0	navigation	Trial2	navigation/STIM_007.jpg
1091.507	2.025	1	navigation	Trial2	navigation/STIM_008.jpg
1095.963	2.061	1	navigation	Trial2	navigation/STIM_008.jpg
1101.107	4.283	1	navigation	Trial2	navigation/STIM_008.jpg
1109.042	3.158	1	navigation	Trial2	navigation/STIM_008.jpg
1115.69	2.259	1	navigation	Trial2	navigation/STIM_008.jpg
1120.268	2.389	1	navigation	Trial2	navigation/STIM_008.jpg
1126.136	3.434	1	navigation	Trial2	navigation/STIM_009.jpg
1133.06	2.394	1	navigation	Trial2	navigation/STIM_009.jpg
1138.575	1.842	0	navigation	Trial2	navigation/STIM_009.jpg
1143.249	3.572	1	navigation	Trial2	navigation/STIM_009.jpg
1149.428	2.479	0	navigation	Trial2	navigation/STIM_009.jpg
1155.834	3.876	1	navigation	Trial2	navigation/STIM_009.jpg
1162.768	4.985	1	navigation	Trial2	navigation/STIM_010.jpg
1169.81	2.435	1	navigation	Trial2	navigation/STIM_010.jpg
1174.656	3.078	1	navigation	Trial2	navigation/STIM_010.jpg
1180.069	3.288	1	navigation	Trial2	navigation/STIM_010.jpg
1186.483	2.969	1	navigation	Trial2	navigation/STIM_010.jpg
1192.029	2.81	1	navigation	Trial2	navigation/STIM_010.jpg
1198.472	2.841	0	navigation	Trial2	navigation/STIM_011.jpg
1203.485	2.2	1	navigation	Trial2	navigation/STIM_011.jpg
1207.692	4.426	1	navigation	Trial2	navigation/STIM_011.jpg
1216.099	2.165	1	navigation	Trial2	navigation/STIM_011.jpg
1221.213	3.5	1	navigation	Trial2	navigation/STIM_011.jpg
1227.075	2.099	1	navigation	Trial2	navigation/STIM_011.jpg
1232.082	1.213	1	pointing	Trial2	pointing/STIM_000.jpg
1236.611	1.243	1	pointing	Trial2	pointing/STIM_000.jpg
1241.242	0.965	1	pointing	Trial2	pointing/STIM_000.jpg
1245.921	1.624	1	pointing	Trial2	pointing/STIM_000.jpg
1251.418	1.622	1	pointing	Trial2	pointing/STIM_000.jpg
1256.928	1.102	1	pointing	Trial2	pointing/STIM_000.jpg
1261.479	1.384	1	pointing	Trial2	pointing/STIM_001.jpg
1266.739	1.4	1	pointing	Trial2	pointing/STIM_001.jpg
1272.0	1.089	1	pointing	Trial2	pointing/STIM_001.jpg
1276.893	1.028	0	pointing	Trial2	pointing/STIM_001.jpg
1280.44	1.743	1	pointing	Trial2	pointing/STIM_001.jpg
1285.69	1.143	1	pointing	Trial2	pointing/STIM_001.jpg
1290.028	1.389	1	pointing	Trial2	pointing/STIM_002.jpg
1294.282	1.347	1	pointing	Trial2	pointing/STIM_002.jpg
1299.003	1.46	0	pointing	Trial2	pointing/STIM_002.jpg
1303.831	1.098	1	pointing	Trial2	pointing/STIM_002.jpg
1307.795	1.553	1	pointing	Trial2	pointing/STIM_002.jpg
1312.112	1.638	1	pointing	Trial2	pointing/STIM_002.jpg
1317.36	1.206	1	pointing	Trial2	pointing/STIM_003.jpg
1321.349	1.374	1	pointing	Trial2	pointing/STIM_003.jpg
1325.053	1.635	1	pointing	Trial2	pointing/STIM_003.jpg
1330.032	1.447	1	pointing	Trial2	pointing/STIM_003.jpg
1333.538	1.164	1	pointing	Trial2	pointing/STIM_003.jpg
1338.46	1.474	1	pointing	Trial2	pointing/STIM_003.jpg
1342.416	1.152	1	pointing	Trial2	pointing/STIM_004.jpg
1346.107	1.452	1	pointing	Trial2	pointing/STIM_004.jpg
1350.611	1.533	1	pointing	Trial2	pointing/STIM_004.jpg
1355.326	1.092	1	pointing	Trial2	pointing/STIM_004.jpg
1358.987	1.653	1	pointing	Trial2	pointing/STIM_004.jpg
1363.977	1.32	1	pointing	Trial2	pointing/STIM_004.jpg
1368.824	1.512	1	pointing	Trial2	pointing/STIM_005.jpg
1372.96	1.021	1	pointing	Trial2	pointing/STIM_005.jpg
1377.27	1.084	1	pointing	Trial2	pointing/STIM_005.jpg
1380.663	1.26	1	pointing	Trial2	pointing/STIM_005.jpg
1385.729	1.608	1	pointing	Trial2	pointing/STIM_005.jpg
1391.256	1.168	1	pointing	Trial2	pointing/STIM_005.jpg
1394.795	1.244	1	pointing	Trial2	pointing/STIM_006.jpg
1398.295	1.732	0	pointing	Trial2	pointing/STIM_006.jpg
1402.306	1.27	1	pointing	Trial2	pointing/STIM_006.jpg
1406.96	1.496	0	pointing	Trial2	pointing/STIM_006.jpg
1412.098	1.36	1	pointing	Trial2	pointing/STIM_006.jpg
1415.632	1.642	1	pointing	Trial2	pointing/STIM_006.jpg
1420.501	1.447	1	pointing	Trial2	pointing/STIM_007.jpg
1424.831	1.12	1	pointing	Trial2	pointing/STIM_007.jpg
1428.895	1.687	1	pointing	Trial2	pointing/STIM_007.jpg
1433.592	1.27	1	pointing	Trial2	pointing/STIM_007.jpg
1437.148	1.077	1	pointing	Trial2	pointing/STIM_007.jpg
1441.696	1.121	1	pointing	Trial2	pointing/STIM_007.jpg
1445.245	1.645	1	pointing	Trial2	pointing/STIM_008.jpg
1450.561	1.122	0	pointing	Trial2	pointing/STIM_008.jpg
1454.272	1.727	0	pointing	Trial2	pointing/STIM_008.jpg
1459.204	0.96	1	pointing	Trial2	pointing/STIM_008.jpg
1463.929	1.139	1	pointing	Trial2	pointing/STIM_008.jpg
1468.383	0.967	1	pointing	Trial2	pointing/STIM_008.jpg
1471.62	1.206	0	pointing	Trial2	pointing/STIM_009.jpg
1475.767	1.603	1	pointing	Trial2	pointing/STIM_009.jpg
1480.816	1.032	1	pointing	Trial2	pointing/STIM_009.jpg
1485.684	1.159	0	pointing	Trial2	pointing/STIM_009.jpg
1489.707	1.53	0	pointing	Trial2	pointing/STIM_009.jpg
1494.837	1.493	1	pointing	Trial2	pointing/STIM_009.jpg
1499.613	1.298	1	pointing	Trial2	pointing/STIM_010.jpg
1503.883	1.165	1	pointing	Trial2	pointing/STIM_010.jpg
1507.935	0.997	1	pointing	Trial2	pointing/STIM_010.jpg
1512.235	1.392	1	pointing	Trial2	pointing/STIM_010.jpg
1516.205	1.038	0	pointing	Trial2	pointing/STIM_010.jpg
1520.696	1.574	1	pointing	Trial2	pointing/STIM_010.jpg
1524.411	1.405	1	pointing	Trial2	pointing/STIM_011.jpg
1528.832	1.516	0	pointing	Trial2	pointing/STIM_011.jpg
1533.123	1.64	1	pointing	Trial2	pointing/STIM_011.jpg
1538.523	1.686	1	pointing	Trial2	pointing/STIM_011.jpg
1542.999	1.422	0	pointing	Trial2	pointing/STIM_011.jpg
1546.955	1.211	0	pointing	Trial2	pointing/STIM_011.jpg
1551.115	3.971	0	navigation	Trial3	navigation/STIM_000.jpg
1557.342	2.238	1	navigation	Trial3	navigation/STIM_000.jpg
1562.874	3.975	0	navigation	Trial3	navigation/STIM_000.jpg
1570.41	2.026	1	navigation	Trial3	navigation/STIM_000.jpg
1574.455	2.888	1	navigation	Trial3	navigation/STIM_000.jpg
1580.98	4.016	1	navigation	Trial3	navigation/STIM_000.jpg
1588.61	3.182	1	navigation	Trial3	navigation/STIM_001.jpg
1593.942	2.152	1	navigation	Trial3	navigation/STIM_001.jpg
1599.513	2.861	1	navigation	Trial3	navigation/STIM_001.jpg
1605.262	2.683	0	navigation	Trial3	navigation/STIM_001.jpg
1611.048	3.326	1	navigation	Trial3	navigation/STIM_001.jpg
1617.776	2.806	0	navigation	Trial3	navigation/STIM_001.jpg
1623.962	3.931	1	navigation	Trial3	navigation/STIM_002.jpg
1630.432	3.113	1	navigation	Trial3	navigation/STIM_002.jpg
1635.779	3.638	1	navigation	Trial3	navigation/STIM_002.jpg
1642.863	2.042	0	navigation	Trial3	navigation/STIM_002.jpg
1647.852	2.3	1	navigation	Trial3	navigation/STIM_002.jpg
1654.058	1.865	1	navigation	Trial3	navigation/STIM_002.jpg
1658.126	2.042	1	navigation	Trial3	navigation/STIM_003.jpg
1662.722	3.994	0	navigation	Trial3	navigation/STIM_003.jpg
1668.922	3.606	1	navigation	Trial3	navigation/STIM_003.jpg
1675.678	2.173	1	navigation	Trial3	navigation/STIM_003.jpg
1680.729	2.801	0	navigation	Trial3	navigation/STIM_003.jpg
1685.983	2.045	1	navigation	Trial3	navigation/STIM_003.jpg
1690.068	3.281	1	navigation	Trial3	navigation/STIM_004.jpg
1695.878	1.879	1	navigation	Trial3	navigation/STIM_004.jpg
1700.307	3.233	1	navigation	Trial3	navigation/STIM_004.jpg
1707.53	2.986	1	navigation	Trial3	navigation/STIM_004.jpg
1714.053	3.212	1	navigation	Trial3	navigation/STIM_004.jpg
1720.423	1.863	1	navigation	Trial3	navigation/STIM_004.jpg
1724.546	3.341	1	navigation	Trial3	navigation/STIM_005.jpg
1731.838	2.735	1	navigation	Trial3	navigation/STIM_005.jpg
1738.504	3.197	0	navigation	Trial3	navigation/STIM_005.jpg
1745.394	3.66	1	navigation	Trial3	navigation/STIM_005.jpg
1751.908	2.661	1	navigation	Trial3	navigation/STIM_005.jpg
1757.647	2.885	1	navigation	Trial3	navigation/STIM_005.jpg
1762.981	4.033	1	navigation	Trial3	navigation/STIM_006.jpg
1769.063	3.883	0	navigation	Trial3	navigation/STIM_006.jpg
1775.05	3.501	0	navigation	Trial3	navigation/STIM_006.jpg
1780.985	3.703	1	navigation	Trial3	navigation/STIM_006.jpg
1788.256	3.669	1	navigation	Trial3	navigation/STIM_006.jpg
1794.632	2.922	1	navigation	Trial3	navigation/STIM_006.jpg
1800.792	2.521	0	navigation	Trial3	navigation/STIM_007.jpg
1805.478	1.685	1	navigation	Trial3	navigation/STIM_007.jpg
1810.047	3.1	1	navigation	Trial3	navigation/STIM_007.jpg
1815.916	2.78	0	navigation	Trial3	navigation/STIM_007.jpg
1821.136	2.662	1	navigation	Trial3	navigation/STIM_007.jpg
1826.571	3.024	1	navigation	Trial3	navigation/STIM_007.jpg
1833.007	2.227	1	navigation	Trial3	navigation/STIM_008.jpg
1838.824	3.859	0	navigation	Trial3	navigation/STIM_008.jpg
1845.97	2.008	1	navigation	Trial3	navigation/STIM_008.jpg
1851.611	2.986	0	navigation	Trial3	navigation/STIM_008.jpg
1857.597	3.009	1	navigation	Trial3	navigation/STIM_008.jpg
1864.304	2.513	1	navigation	Trial3	navigation/STIM_008.jpg
1870.193	2.391	1	navigation	Trial3	navigation/STIM_009.jpg
1875.94	3.152	1	navigation	Trial3	navigation/STIM_009.jpg
1882.352	2.478	1	navigation	Trial3	navigation/STIM_009.jpg
1888.786	2.908	1	navigation	Trial3	navigation/STIM_009.jpg
1894.312	1.898	1	navigation	Trial3	navigation/STIM_009.jpg
1899.27	2.254	1	navigation	Trial3	navigation/STIM_009.jpg
1904.83	3.934	0	navigation	Trial3	navigation/STIM_010.jpg
1911.806	4.141	0	navigation	Trial3	navigation/STIM_010.jpg
1918.815	2.99	1	navigation	Trial3	navigation/STIM_010.jpg
1924.989	3.831	1	navigation	Trial3	navigation/STIM_010.jpg
1931.67	2.492	1	navigation	Trial3	navigation/STIM_010.jpg
1938.016	4.081	0	navigation	Trial3	navigation/STIM_010.jpg
1944.849	2.807	1	navigation	Trial3	navigation/STIM_011.jpg
1950.338	2.701	1	navigation	Trial3	navigation/STIM_011.jpg
1955.985	3.034	0	navigation	Trial3	navigation/STIM_011.jpg
1961.914	3.828	1	navigation	Trial3	navigation/STIM_011.jpg
1968.445	1.956	1	navigation	Trial3	navigation/STIM_011.jpg
1973.576	2.176	1	navigation	Trial3	navigation/STIM_011.jpg
1978.545	1.71	0	pointing	Trial3	pointing/STIM_000.jpg
1984.02	1.4	1	pointing	Trial3	pointing/STIM_000.jpg
1989.214	1.565	1	pointing	Trial3	pointing/STIM_000.jpg
1993.297	1.73	1	pointing	Trial3	pointing/STIM_000.jpg
1998.788	1.774	1	pointing	Trial3	pointing/STIM_000.jpg
2002.586	1.348	1	pointing	Trial3	pointing/STIM_000.jpg
2007.44	1.569	1	pointing	Trial3	pointing/STIM_001.jpg
2012.465	1.272	1	pointing	Trial3	pointing/STIM_001.jpg
2015.969	0.959	1	pointing	Trial3	pointing/STIM_001.jpg
2019.701	1.358	1	pointing	Trial3	pointing/STIM_001.jpg
2024.32	1.04	1	pointing	Trial3	pointing/STIM_001.jpg
2028.408	1.487	1	pointing	Trial3	pointing/STIM_001.jpg
2032.326	1.588	1	pointing	Trial3	pointing/STIM_002.jpg
2037.05	1.64	1	pointing	Trial3	pointing/STIM_002.jpg
2040.901	1.367	1	pointing	Trial3	pointing/STIM_002.jpg
2045.858	1.504	1	pointing	Trial3	pointing/STIM_002.jpg
2050.803	1.634	1	pointing	Trial3	pointing/STIM_002.jpg
2056.352	0.977	1	pointing	Trial3	pointing/STIM_002.jpg
2060.229	1.05	1	pointing	Trial3	pointing/STIM_003.jpg
2063.889	1.721	1	pointing	Trial3	pointing/STIM_003.jpg
2069.572	1.523	1	pointing	Trial3	pointing/STIM_003.jpg
2073.152	1.435	0	pointing	Trial3	pointing/STIM_003.jpg
2078.453	1.257	0	pointing	Trial3	pointing/STIM_003.jpg
2082.034	1.237	1	pointing	Trial3	pointing/STIM_003.jpg
2086.736	1.392	1	pointing	Trial3	pointing/STIM_004.jpg
2091.769	1.55	0	pointing	Trial3	pointing/STIM_004.jpg
2096.823	1.106	1	pointing	Trial3	pointing/STIM_004.jpg
2100.865	1.733	1	pointing	Trial3	pointing/STIM_004.jpg
2105.654	1.009	1	pointing	Trial3	pointing/STIM_004.jpg
2109.839	1.151	1	pointing	Trial3	pointing/STIM_004.jpg
2114.609	1.344	0	pointing	Trial3	pointing/STIM_005.jpg
2119.431	1.046	1	pointing	Trial3	pointing/STIM_005.jpg
2123.111	1.041	1	pointing	Trial3	pointing/STIM_005.jpg
2126.8	1.424	1	pointing	Trial3	pointing/STIM_005.jpg
2131.592	1.625	1	pointing	Trial3	pointing/STIM_005.jpg
2136.15	1.302	1	pointing	Trial3	pointing/STIM_005.jpg
2140.885	1.772	1	pointing	Trial3	pointing/STIM_006.jpg
2146.295	1.674	1	pointing	Trial3	pointing/STIM_006.jpg
2151.09	1.434	1	pointing	Trial3	pointing/STIM_006.jpg
2155.157	1.057	1	pointing	Trial3	pointing/STIM_006.jpg
2159.176	1.757	1	pointing	Trial3	pointing/STIM_006.jpg
2163.052	1.31	1	pointing	Trial3	pointing/STIM_006.jpg
2166.811	1.237	1	pointing	Trial3	pointing/STIM_007.jpg
2171.57	1.285	1	pointing	Trial3	pointing/STIM_007.jpg
2176.468	1.291	1	pointing	Trial3	pointing/STIM_007.jpg
2181.139	1.698	1	pointing	Trial3	pointing/STIM_007.jpg
2186.268	1.305	1	pointing	Trial3	pointing/STIM_007.jpg
2191.412	1.616	1	pointing	Trial3	pointing/STIM_007.jpg
2196.685	1.144	1	pointing	Trial3	pointing/STIM_008.jpg
2200.933	1.601	1	pointing	Trial3	pointing/STIM_008.jpg
2206.371	1.429	0	pointing	Trial3	pointing/STIM_008.jpg
2211.555	1.075	1	pointing	Trial3	pointing/STIM_008.jpg
2215.334	0.994	1	pointing	Trial3	pointing/STIM_008.jpg
2219.856	1.482	1	pointing	Trial3	pointing/STIM_008.jpg
2223.645	1.744	1	pointing	Trial3	pointing/STIM_009.jpg
2228.547	1.026	1	pointing	Trial3	pointing/STIM_009.jpg
2231.743	1.693	1	pointing	Trial3	pointing/STIM_009.jpg
2236.591	1.234	1	pointing	Trial3	pointing/STIM_009.jpg
2239.852	1.49	1	pointing	Trial3	pointing/STIM_009.jpg
2243.706	1.562	0	pointing	Trial3	pointing/STIM_009.jpg
2248.901	1.023	1	pointing	Trial3	pointing/STIM_010.jpg
2253.86	1.247	1	pointing	Trial3	pointing/STIM_010.jpg
2257.137	1.701	1	pointing	Trial3	pointing/STIM_010.jpg
2262.214	1.546	1	pointing	Trial3	pointing/STIM_010.jpg
2266.738	1.096	1	pointing	Trial3	pointing/STIM_010.jpg
2270.925	1.083	1	pointing	Trial3	pointing/STIM_010.jpg
2275.807	1.056	1	pointing	Trial3	pointing/STIM_011.jpg
2278.959	1.361	0	pointing	Trial3	pointing/STIM_011.jpg
2283.909	0.972	1	pointing	Trial3	pointing/STIM_011.jpg
2287.24	1.656	1	pointing	Trial3	pointing/STIM_011.jpg
2291.689	1.249	1	pointing	Trial3	pointing/STIM_011.jpg
2295.806	1.771	1	pointing	Trial3	pointing/STIM_011.jpg
