onset	duration	accuracy	trial_type	learning_stage	stimulus
0.0	1.869	correct	study	Phase1	study/STIM_000.jpg
4.56	1.029	correct	study	Phase1	study/STIM_000.jpg
9.159	1.001	correct	study	Phase1	study/STIM_000.jpg
12.463	1.561	correct	study	Phase1	study/STIM_001.jpg
17.016	1.518	correct	study	Phase1	study/STIM_001.jpg
22.393	1.297	correct	study	Phase1	study/STIM_001.jpg
27.15	0.891	correct	study	Phase1	study/STIM_002.jpg
31.972	1.487	correct	study	Phase1	study/STIM_002.jpg
36.244	1.116	correct	study	Phase1	study/STIM_002.jpg
40.082	0.978	correct	study	Phase1	study/STIM_003.jpg
43.064	1.223	correct	study	Phase1	study/STIM_003.jpg
47.812	0.974	correct	study	Phase1	study/STIM_003.jpg
51.404	0.928	correct	study	Phase1	study/STIM_004.jpg
55.668	1.519	correct	study	Phase1	study/STIM_004.jpg
60.118	1.512	incorrect	study	Phase1	study/STIM_004.jpg
64.406	1.17	correct	study	Phase1	study/STIM_005.jpg
67.655	0.864	correct	study	Phase1	study/STIM_005.jpg
71.895	1.344	correct	study	Phase1	study/STIM_005.jpg
77.072	1.763	correct	study	Phase1	study/STIM_006.jpg
82.513	0.909	correct	study	Phase1	study/STIM_006.jpg
86.404	1.479	correct	study	Phase1	study/STIM_006.jpg
90.612	1.616	correct	study	Phase1	study/STIM_007.jpg
95.071	1.504	correct	study	Phase1	study/STIM_007.jpg
100.299	1.606	correct	study	Phase1	study/STIM_007.jpg
103.907	1.667	correct	study	Phase1	study/STIM_008.jpg
109.542	0.823	correct	study	Phase1	study/STIM_008.jpg
114.129	1.432	correct	study	Phase1	study/STIM_008.jpg
118.958	0.857	correct	study	Phase1	study/STIM_009.jpg
123.05	1.034	correct	study	Phase1	study/STIM_009.jpg
127.114	1.42	correct	study	Phase1	study/STIM_009.jpg
130.738	1.78	correct	study	Phase1	study/STIM_010.jpg
135.946	1.548	incorrect	study	Phase1	study/STIM_010.jpg
140.922	0.947	correct	study	Phase1	study/STIM_010.jpg
145.252	1.668	correct	study	Phase1	study/STIM_011.jpg
150.642	0.831	correct	study	Phase1	study/STIM_011.jpg
154.832	0.825	correct	study	Phase1	study/STIM_011.jpg
158.599	1.545	incorrect	study	Phase1	study/STIM_012.jpg
163.006	1.027	incorrect	study	Phase1	study/STIM_012.jpg
167.378	1.662	correct	study	Phase1	study/STIM_012.jpg
172.897	0.835	correct	study	Phase1	study/STIM_013.jpg
176.793	1.155	correct	study	Phase1	study/STIM_013.jpg
181.15	1.271	correct	study	Phase1	study/STIM_013.jpg
186.386	1.631	correct	study	Phase1	study/STIM_014.jpg
191.852	1.276	correct	study	Phase1	study/STIM_014.jpg
196.7	1.079	correct	study	Phase1	study/STIM_014.jpg
200.866	1.113	correct	study	Phase1	study/STIM_015.jpg
204.535	0.814	correct	study	Phase1	study/STIM_015.jpg
208.664	0.949	correct	study	Phase1	study/STIM_015.jpg
211.911	1.098	correct	study	Phase1	study/STIM_016.jpg
216.037	1.003	correct	study	Phase1	study/STIM_016.jpg
219.797	1.681	correct	study	Phase1	study/STIM_016.jpg
225.083	1.732	correct	study	Phase1	study/STIM_017.jpg
230.024	0.889	correct	study	Phase1	study/STIM_017.jpg
233.799	1.077	correct	study	Phase1	study/STIM_017.jpg
238.07	1.708	correct	study	Phase1	study/STIM_018.jpg
242.233	0.987	correct	study	Phase1	study/STIM_018.jpg
245.279	1.214	correct	study	Phase1	study/STIM_018.jpg
248.584	1.325	correct	study	Phase1	study/STIM_019.jpg
252.11	1.391	correct	study	Phase1	study/STIM_019.jpg
256.255	1.667	correct	study	Phase1	study/STIM_019.jpg
259.941	1.814	correct	study	Phase1	study/STIM_020.jpg
264.956	1.392	correct	study	Phase1	study/STIM_020.jpg
269.236	1.234	correct	study	Phase1	study/STIM_020.jpg
272.907	1.782	correct	study	Phase1	study/STIM_021.jpg
277.539	1.034	correct	study	Phase1	study/STIM_021.jpg
280.777	1.517	correct	study	Phase1	study/STIM_021.jpg
284.902	1.532	correct	study	Phase1	study/STIM_022.jpg
289.606	1.269	correct	study	Phase1	study/STIM_022.jpg
293.506	1.013	correct	study	Phase1	study/STIM_022.jpg
297.325	1.359	correct	study	Phase1	study/STIM_023.jpg
302.136	0.962	correct	study	Phase1	study/STIM_023.jpg
307.046	1.25	correct	study	Phase1	study/STIM_023.jpg
311.229	0.884	correct	study	Phase1	study/STIM_024.jpg
315.244	0.931	correct	study	Phase1	study/STIM_024.jpg
318.643	1.347	correct	study	Phase1	study/STIM_024.jpg
322.583	0.93	correct	study	Phase1	study/STIM_025.jpg
326.786	1.387	correct	study	Phase1	study/STIM_025.jpg
331.611	0.962	correct	study	Phase1	study/STIM_025.jpg
335.016	0.906	correct	study	Phase1	study/STIM_026.jpg
338.015	0.836	correct	study	Phase1	study/STIM_026.jpg
341.488	0.786	correct	study	Phase1	study/STIM_026.jpg
344.509	0.924	correct	study	Phase1	study/STIM_027.jpg
348.721	0.957	correct	study	Phase1	study/STIM_027.jpg
352.08	1.531	correct	study	Phase1	study/STIM_027.jpg
356.471	1.406	correct	study	Phase1	study/STIM_028.jpg
360.307	1.403	correct	study	Phase1	study/STIM_028.jpg
365.26	1.242	correct	study	Phase1	study/STIM_028.jpg
370.053	1.248	correct	study	Phase1	study/STIM_029.jpg
373.314	1.618	correct	study	Phase1	study/STIM_029.jpg
378.069	1.1	correct	study	Phase1	study/STIM_029.jpg
382.389	0.762	correct	test	Phase1	test/STIM_000.jpg
386.363	1.117	correct	test	Phase1	test/STIM_000.jpg
391.159	0.99	correct	test	Phase1	test/STIM_000.jpg
395.28	1.261	correct	test	Phase1	test/STIM_001.jpg
398.984	1.034	correct	test	Phase1	test/STIM_001.jpg
402.377	0.796	correct	test	Phase1	test/STIM_001.jpg
406.221	1.084	correct	test	Phase1	test/STIM_002.jpg
410.079	0.949	correct	test	Phase1	test/STIM_002.jpg
413.417	0.671	correct	test	Phase1	test/STIM_002.jpg
416.512	1.126	correct	test	Phase1	test/STIM_003.jpg
420.984	0.932	correct	test	Phase1	test/STIM_003.jpg
424.317	0.673	correct	test	Phase1	test/STIM_003.jpg
428.824	0.772	correct	test	Phase1	test/STIM_004.jpg
432.275	0.696	correct	test	Phase1	test/STIM_004.jpg
436.015	1.234	correct	test	Phase1	test/STIM_004.jpg
440.539	1.075	correct	test	Phase1	test/STIM_005.jpg
444.27	0.656	correct	test	Phase1	test/STIM_005.jpg
447.855	0.892	correct	test	Phase1	test/STIM_005.jpg
451.279	0.757	correct	test	Phase1	test/STIM_006.jpg
455.49	1.272	correct	test	Phase1	test/STIM_006.jpg
459.518	1.167	correct	test	Phase1	test/STIM_006.jpg
464.189	0.974	correct	test	Phase1	test/STIM_007.jpg
468.547	0.927	correct	test	Phase1	test/STIM_007.jpg
472.801	0.91	correct	test	Phase1	test/STIM_007.jpg
476.625	1.34	correct	test	Phase1	test/STIM_008.jpg
480.299	1.083	correct	test	Phase1	test/STIM_008.jpg
484.462	1.348	correct	test	Phase1	test/STIM_008.jpg
488.717	0.847	correct	test	Phase1	test/STIM_009.jpg
493.441	1.212	correct	test	Phase1	test/STIM_009.jpg
498.061	1.046	correct	test	Phase1	test/STIM_009.jpg
501.791	1.059	correct	test	Phase1	test/STIM_010.jpg
505.949	1.186	correct	test	Phase1	test/STIM_010.jpg
509.957	0.934	correct	test	Phase1	test/STIM_010.jpg
513.151	1.206	correct	test	Phase1	test/STIM_011.jpg
517.188	0.84	correct	test	Phase1	test/STIM_011.jpg
521.518	1.278	correct	test	Phase1	test/STIM_011.jpg
525.18	0.849	correct	test	Phase1	test/STIM_012.jpg
529.69	1.003	correct	test	Phase1	test/STIM_012.jpg
534.238	1.152	correct	test	Phase1	test/STIM_012.jpg
538.088	0.825	correct	test	Phase1	test/STIM_013.jpg
541.374	0.73	correct	test	Phase1	test/STIM_013.jpg
545.14	0.753	correct	test	Phase1	test/STIM_013.jpg
548.478	1.163	correct	test	Phase1	test/STIM_014.jpg
553.196	0.691	correct	test	Phase1	test/STIM_014.jpg
556.483	0.957	correct	test	Phase1	test/STIM_014.jpg
559.963	1.219	correct	test	Phase1	test/STIM_015.jpg
564.732	1.134	correct	test	Phase1	test/STIM_015.jpg
568.537	1.292	correct	test	Phase1	test/STIM_015.jpg
573.608	0.953	correct	test	Phase1	test/STIM_016.jpg
576.715	0.869	correct	test	Phase1	test/STIM_016.jpg
580.573	0.97	correct	test	Phase1	test/STIM_016.jpg
584.557	1.239	correct	test	Phase1	test/STIM_017.jpg
588.94	1.015	correct	test	Phase1	test/STIM_017.jpg
592.446	0.988	correct	test	Phase1	test/STIM_017.jpg
597.234	0.744	correct	test	Phase1	test/STIM_018.jpg
600.457	1.193	correct	test	Phase1	test/STIM_018.jpg
605.448	1.301	correct	test	Phase1	test/STIM_018.jpg
609.183	0.903	correct	test	Phase1	test/STIM_019.jpg
612.33	0.874	correct	test	Phase1	test/STIM_019.jpg
616.651	0.883	correct	test	Phase1	test/STIM_019.jpg
620.239	1.07	correct	test	Phase1	test/STIM_020.jpg
624.91	0.883	correct	test	Phase1	test/STIM_020.jpg
628.63	0.666	correct	test	Phase1	test/STIM_020.jpg
632.833	1.221	correct	test	Phase1	test/STIM_021.jpg
637.239	1.034	correct	test	Phase1	test/STIM_021.jpg
640.29	0.95	correct	test	Phase1	test/STIM_021.jpg
644.216	0.732	correct	test	Phase1	test/STIM_022.jpg
648.409	1.136	correct	test	Phase1	test/STIM_022.jpg
651.677	1.333	correct	test	Phase1	test/STIM_022.jpg
655.987	0.822	correct	test	Phase1	test/STIM_023.jpg
659.834	0.766	correct	test	Phase1	test/STIM_023.jpg
663.813	0.905	correct	test	Phase1	test/STIM_023.jpg
667.183	1.13	correct	test	Phase1	test/STIM_024.jpg
671.699	0.871	correct	test	Phase1	test/STIM_024.jpg
675.818	0.716	correct	test	Phase1	test/STIM_024.jpg
679.672	1.132	correct	test	Phase1	test/STIM_025.jpg
683.689	1.157	correct	test	Phase1	test/STIM_025.jpg
688.766	1.344	correct	test	Phase1	test/STIM_025.jpg
692.285	1.045	correct	test	Phase1	test/STIM_026.jpg
696.627	0.868	correct	test	Phase1	test/STIM_026.jpg
700.817	1.285	correct	test	Phase1	test/STIM_026.jpg
704.144	0.735	correct	test	Phase1	test/STIM_027.jpg
708.365	0.731	correct	test	Phase1	test/STIM_027.jpg
712.272	1.188	correct	test	Phase1	test/STIM_027.jpg
716.807	1.143	correct	test	Phase1	test/STIM_028.jpg
720.252	1.122	correct	test	Phase1	test/STIM_028.jpg
725.33	1.14	correct	test	Phase1	test/STIM_028.jpg
730.289	0.791	correct	test	Phase1	test/STIM_029.jpg
733.208	1.081	correct	test	Phase1	test/STIM_029.jpg
737.298	0.774	correct	test	Phase1	test/STIM_029.jpg
740.991	0.726	correct	study	Phase2	study/STIM_000.jpg
745.521	1.322	correct	study	Phase2	study/STIM_000.jpg
750.788	0.987	correct	study	Phase2	study/STIM_000.jpg
754.858	1.382	correct	study	Phase2	study/STIM_001.jpg
758.37	1.425	correct	study	Phase2	study/STIM_001.jpg
762.239	0.8	correct	study	Phase2	study/STIM_001.jpg
766.441	0.784	correct	study	Phase2	study/STIM_002.jpg
770.719	1.484	correct	study	Phase2	study/STIM_002.jpg
774.375	1.33	correct	study	Phase2	study/STIM_002.jpg
777.705	1.175	correct	study	Phase2	study/STIM_003.jpg
781.583	1.388	correct	study	Phase2	study/STIM_003.jpg
786.673	1.058	correct	study	Phase2	study/STIM_003.jpg
790.704	1.151	correct	study	Phase2	study/STIM_004.jpg
794.136	1.2	correct	study	Phase2	study/STIM_004.jpg
797.656	0.918	correct	study	Phase2	study/STIM_004.jpg
801.196	1.48	correct	study	Phase2	study/STIM_005.jpg
806.363	0.784	correct	study	Phase2	study/STIM_005.jpg
809.207	0.931	correct	study	Phase2	study/STIM_005.jpg
813.42	1.383	correct	study	Phase2	study/STIM_006.jpg
818.477	1.124	correct	study	Phase2	study/STIM_006.jpg
823.052	0.732	correct	study	Phase2	study/STIM_006.jpg
827.436	0.738	correct	study	Phase2	study/STIM_007.jpg
831.215	0.714	correct	study	Phase2	study/STIM_007.jpg
835.608	0.702	correct	study	Phase2	study/STIM_007.jpg
838.549	1.188	correct	study	Phase2	study/STIM_008.jpg
843.37	1.15	correct	study	Phase2	study/STIM_008.jpg
847.134	1.007	correct	study	Phase2	study/STIM_008.jpg
851.136	1.315	correct	study	Phase2	study/STIM_009.jpg
854.585	0.974	correct	study	Phase2	study/STIM_009.jpg
859.205	1.273	correct	study	Phase2	study/STIM_009.jpg
862.637	1.426	correct	study	Phase2	study/STIM_010.jpg
867.079	1.237	correct	study	Phase2	study/STIM_010.jpg
870.574	0.756	correct	study	Phase2	study/STIM_010.jpg
874.744	1.276	correct	study	Phase2	study/STIM_011.jpg
879.264	1.131	correct	study	Phase2	study/STIM_011.jpg
883.64	0.976	correct	study	Phase2	study/STIM_011.jpg
887.926	1.19	correct	study	Phase2	study/STIM_012.jpg
892.443	0.874	correct	study	Phase2	study/STIM_012.jpg
896.662	1.264	correct	study	Phase2	study/STIM_012.jpg
901.379	1.31	correct	study	Phase2	study/STIM_013.jpg
904.995	1.083	correct	study	Phase2	study/STIM_013.jpg
908.345	0.692	correct	study	Phase2	study/STIM_013.jpg
911.42	1.032	correct	study	Phase2	study/STIM_014.jpg
914.618	0.78	correct	study	Phase2	study/STIM_014.jpg
918.797	1.282	correct	study	Phase2	study/STIM_014.jpg
923.169	0.96	correct	study	Phase2	study/STIM_015.jpg
927.375	0.904	correct	study	Phase2	study/STIM_015.jpg
930.628	0.854	correct	study	Phase2	study/STIM_015.jpg
934.502	0.84	correct	study	Phase2	study/STIM_016.jpg
937.801	0.694	correct	study	Phase2	study/STIM_016.jpg
941.365	1.23	correct	study	Phase2	study/STIM_016.jpg
945.741	0.793	correct	study	Phase2	study/STIM_017.jpg
949.04	1.168	correct	study	Phase2	study/STIM_017.jpg
953.032	1.134	correct	study	Phase2	study/STIM_017.jpg
956.431	1.492	correct	study	Phase2	study/STIM_018.jpg
961.805	0.84	correct	study	Phase2	study/STIM_018.jpg
964.869	1.123	correct	study	Phase2	study/STIM_018.jpg
969.227	1.234	correct	study	Phase2	study/STIM_019.jpg
972.638	1.283	correct	study	Phase2	study/STIM_019.jpg
977.212	1.157	correct	study	Phase2	study/STIM_019.jpg
982.017	1.058	correct	study	Phase2	study/STIM_020.jpg
985.615	0.761	incorrect	study	Phase2	study/STIM_020.jpg
988.573	0.98	correct	study	Phase2	study/STIM_020.jpg
992.824	1.206	correct	study	Phase2	study/STIM_021.jpg
997.761	0.841	correct	study	Phase2	study/STIM_021.jpg
1002.03	0.901	correct	study	Phase2	study/STIM_021.jpg
1006.558	1.578	correct	study	Phase2	study/STIM_022.jpg
1011.513	0.727	correct	study	Phase2	study/STIM_022.jpg
1015.142	0.638	correct	study	Phase2	study/STIM_022.jpg
1018.553	1.044	correct	study	Phase2	study/STIM_023.jpg
1022.194	0.743	correct	study	Phase2	study/STIM_023.jpg
1025.444	0.894	correct	study	Phase2	study/STIM_023.jpg
1029.018	1.484	correct	study	Phase2	study/STIM_024.jpg
1033.521	1.317	correct	study	Phase2	study/STIM_024.jpg
1038.36	0.764	correct	study	Phase2	study/STIM_024.jpg
1041.412	1.316	correct	study	Phase2	study/STIM_025.jpg
1044.858	1.165	correct	study	Phase2	study/STIM_025.jpg
1048.428	1.353	correct	study	Phase2	study/STIM_025.jpg
1052.403	1.357	correct	study	Phase2	study/STIM_026.jpg
1057.603	1.198	correct	study	Phase2	study/STIM_026.jpg
1061.04	1.264	correct	study	Phase2	study/STIM_026.jpg
1065.843	0.77	correct	study	Phase2	study/STIM_027.jpg
1069.993	1.077	correct	study	Phase2	study/STIM_027.jpg
1074.949	0.798	correct	study	Phase2	study/STIM_027.jpg
1079.292	1.132	correct	study	Phase2	study/STIM_028.jpg
1082.602	0.855	correct	study	Phase2	study/STIM_028.jpg
1086.397	0.912	correct	study	Phase2	study/STIM_028.jpg
1089.792	1.361	correct	study	Phase2	study/STIM_029.jpg
1093.161	0.754	correct	study	Phase2	study/STIM_029.jpg
1097.212	1.158	correct	study	Phase2	study/STIM_029.jpg
1101.378	0.993	correct	test	Phase2	test/STIM_000.jpg
1105.751	1.04	correct	test	Phase2	test/STIM_000.jpg
1108.805	1.268	correct	test	Phase2	test/STIM_000.jpg
1112.368	0.785	correct	test	Phase2	test/STIM_001.jpg
1115.623	1.089	correct	test	Phase2	test/STIM_001.jpg
1120.416	1.289	correct	test	Phase2	test/STIM_001.jpg
1124.719	0.635	correct	test	Phase2	test/STIM_002.jpg
1128.049	1.239	correct	test	Phase2	test/STIM_002.jpg
1132.286	1.317	correct	test	Phase2	test/STIM_002.jpg
1135.796	0.883	correct	test	Phase2	test/STIM_003.jpg
1139.286	1.204	correct	test	Phase2	test/STIM_003.jpg
1143.249	0.686	correct	test	Phase2	test/STIM_003.jpg
1146.169	1.256	correct	test	Phase2	test/STIM_004.jpg
1150.03	0.627	correct	test	Phase2	test/STIM_004.jpg
1153.093	0.986	correct	test	Phase2	test/STIM_004.jpg
1156.277	1.139	correct	test	Phase2	test/STIM_005.jpg
1160.655	1.299	correct	test	Phase2	test/STIM_005.jpg
1165.429	1.128	correct	test	Phase2	test/STIM_005.jpg
1169.903	0.631	correct	test	Phase2	test/STIM_006.jpg
1173.808	0.979	correct	test	Phase2	test/STIM_006.jpg
1177.256	0.971	correct	test	Phase2	test/STIM_006.jpg
1180.735	1.239	correct	test	Phase2	test/STIM_007.jpg
1185.691	1.049	correct	test	Phase2	test/STIM_007.jpg
1189.573	0.858	correct	test	Phase2	test/STIM_007.jpg
1193.157	1.317	correct	test	Phase2	test/STIM_008.jpg
1197.333	0.75	correct	test	Phase2	test/STIM_008.jpg
1201.274	1.329	correct	test	Phase2	test/STIM_008.jpg
1205.11	0.814	correct	test	Phase2	test/STIM_009.jpg
1208.163	1.13	correct	test	Phase2	test/STIM_009.jpg
1212.44	1.339	correct	test	Phase2	test/STIM_009.jpg
1217.467	1.17	correct	test	Phase2	test/STIM_010.jpg
1222.497	0.742	correct	test	Phase2	test/STIM_010.jpg
1227.087	0.824	correct	test	Phase2	test/STIM_010.jpg
1229.994	1.278	correct	test	Phase2	test/STIM_011.jpg
1234.331	0.784	correct	test	Phase2	test/STIM_011.jpg
1237.695	1.107	correct	test	Phase2	test/STIM_011.jpg
1242.504	1.127	correct	test	Phase2	test/STIM_012.jpg
1246.439	1.212	correct	test	Phase2	test/STIM_012.jpg
1250.909	1.119	correct	test	Phase2	test/STIM_012.jpg
1254.938	1.138	correct	test	Phase2	test/STIM_013.jpg
1259.466	1.266	correct	test	Phase2	test/STIM_013.jpg
1262.987	1.302	correct	test	Phase2	test/STIM_013.jpg
1267.802	0.831	correct	test	Phase2	test/STIM_014.jpg
1270.663	0.784	correct	test	Phase2	test/STIM_014.jpg
1274.953	0.765	correct	test	Phase2	test/STIM_014.jpg
1278.54	1.147	correct	test	Phase2	test/STIM_015.jpg
1283.593	0.96	correct	test	Phase2	test/STIM_015.jpg
1287.281	0.83	correct	test	Phase2	test/STIM_015.jpg
1290.92	1.04	correct	test	Phase2	test/STIM_016.jpg
1295.39	1.329	correct	test	Phase2	test/STIM_016.jpg
1299.759	1.245	correct	test	Phase2	test/STIM_016.jpg
1303.791	0.75	correct	test	Phase2	test/STIM_017.jpg
1307.774	1.289	correct	test	Phase2	test/STIM_017.jpg
1312.356	1.188	correct	test	Phase2	test/STIM_017.jpg
1316.685	0.658	correct	test	Phase2	test/STIM_018.jpg
1321.048	0.829	correct	test	Phase2	test/STIM_018.jpg
1324.776	0.655	correct	test	Phase2	test/STIM_018.jpg
1327.637	1.328	correct	test	Phase2	test/STIM_019.jpg
1332.851	0.662	correct	test	Phase2	test/STIM_019.jpg
1337.418	1.094	correct	test	Phase2	test/STIM_019.jpg
1341.856	0.759	correct	test	Phase2	test/STIM_020.jpg
1345.166	0.829	correct	test	Phase2	test/STIM_020.jpg
1348.037	0.663	correct	test	Phase2	test/STIM_020.jpg
1352.234	0.643	correct	test	Phase2	test/STIM_021.jpg
1356.091	0.969	correct	test	Phase2	test/STIM_021.jpg
1359.771	1.249	correct	test	Phase2	test/STIM_021.jpg
1364.873	0.795	correct	test	Phase2	test/STIM_022.jpg
1369.582	1.089	correct	test	Phase2	test/STIM_022.jpg
1374.635	1.216	correct	test	Phase2	test/STIM_022.jpg
1379.05	1.028	correct	test	Phase2	test/STIM_023.jpg
1382.324	1.094	correct	test	Phase2	test/STIM_023.jpg
1386.056	1.021	correct	test	Phase2	test/STIM_023.jpg
1390.861	0.928	correct	test	Phase2	test/STIM_024.jpg
1393.91	1.192	correct	test	Phase2	test/STIM_024.jpg
1397.262	1.019	correct	test	Phase2	test/STIM_024.jpg
1402.098	0.659	correct	test	Phase2	test/STIM_025.jpg
1404.995	0.936	correct	test	Phase2	test/STIM_025.jpg
1409.122	1.115	correct	test	Phase2	test/STIM_025.jpg
1412.562	1.205	correct	test	Phase2	test/STIM_026.jpg
1416.898	1.197	correct	test	Phase2	test/STIM_026.jpg
1420.164	0.733	correct	test	Phase2	test/STIM_026.jpg
1424.648	1.321	correct	test	Phase2	test/STIM_027.jpg
1429.282	0.844	correct	test	Phase2	test/STIM_027.jpg
1433.368	1.247	correct	test	Phase2	test/STIM_027.jpg
1438.013	0.805	correct	test	Phase2	test/STIM_028.jpg
1441.256	1.253	correct	test	Phase2	test/STIM_028.jpg
1446.05	1.084	correct	test	Phase2	test/STIM_028.jpg
1450.887	1.01	correct	test	Phase2	test/STIM_029.jpg
1455.759	0.869	correct	test	Phase2	test/STIM_029.jpg
1459.695	0.885	correct	test	Phase2	test/STIM_029.jpg
1463.601	0.621	correct	study	Phase3	study/STIM_000.jpg
1466.668	1.138	correct	study	Phase3	study/STIM_000.jpg
1470.457	1.07	correct	study	Phase3	study/STIM_000.jpg
1474.823	0.989	correct	study	Phase3	study/STIM_001.jpg
1479.161	1.274	correct	study	Phase3	study/STIM_001.jpg
1483.159	0.794	correct	study	Phase3	study/STIM_001.jpg
1486.482	0.601	correct	study	Phase3	study/STIM_002.jpg
1490.308	0.948	correct	study	Phase3	study/STIM_002.jpg
1495.209	1.033	correct	study	Phase3	study/STIM_002.jpg
1498.853	1.132	correct	study	Phase3	study/STIM_003.jpg
1503.339	1.127	correct	study	Phase3	study/STIM_003.jpg
1508.462	0.945	correct	study	Phase3	study/STIM_003.jpg
1511.777	0.695	correct	study	Phase3	study/STIM_004.jpg
1515.544	0.973	correct	study	Phase3	study/STIM_004.jpg
1520.236	0.583	correct	study	Phase3	study/STIM_004.jpg
1524.59	0.655	correct	study	Phase3	study/STIM_005.jpg
1527.899	1.174	correct	study	Phase3	study/STIM_005.jpg
1532.184	1.255	correct	study	Phase3	study/STIM_005.jpg
1537.333	0.68	correct	study	Phase3	study/STIM_006.jpg
1541.657	0.692	correct	study	Phase3	study/STIM_006.jpg
1545.112	1.258	correct	study	Phase3	study/STIM_006.jpg
1550.282	1.071	correct	study	Phase3	study/STIM_007.jpg
1553.388	0.964	correct	study	Phase3	study/STIM_007.jpg
1557.934	0.989	correct	study	Phase3	study/STIM_007.jpg
1561.147	1.248	correct	study	Phase3	study/STIM_008.jpg
1565.41	1.203	correct	study	Phase3	study/STIM_008.jpg
1570.505	1.299	correct	study	Phase3	study/STIM_008.jpg
1574.923	0.766	incorrect	study	Phase3	study/STIM_009.jpg
1578.197	1.153	correct	study	Phase3	study/STIM_009.jpg
1582.822	1.176	correct	study	Phase3	study/STIM_009.jpg
1586.292	1.219	correct	study	Phase3	study/STIM_010.jpg
1591.347	1.258	correct	study	Phase3	study/STIM_010.jpg
1596.033	1.183	correct	study	Phase3	study/STIM_010.jpg
1600.189	0.771	correct	study	Phase3	study/STIM_011.jpg
1604.355	0.999	correct	study	Phase3	study/STIM_011.jpg
1607.779	0.72	correct	study	Phase3	study/STIM_011.jpg
1612.464	1.283	correct	study	Phase3	study/STIM_012.jpg
1615.883	1.188	correct	study	Phase3	study/STIM_012.jpg
1620.948	0.922	correct	study	Phase3	study/STIM_012.jpg
1625.005	0.98	correct	study	Phase3	study/STIM_013.jpg
1628.307	1.1	correct	study	Phase3	study/STIM_013.jpg
1632.74	1.186	correct	study	Phase3	study/STIM_013.jpg
1636.936	1.299	correct	study	Phase3	study/STIM_014.jpg
1641.453	0.852	correct	study	Phase3	study/STIM_014.jpg
1645.649	0.746	correct	study	Phase3	study/STIM_014.jpg
1649.82	0.699	correct	study	Phase3	study/STIM_015.jpg
1652.967	0.645	correct	study	Phase3	study/STIM_015.jpg
1655.821	0.87	correct	study	Phase3	study/STIM_015.jpg
1659.014	1.226	correct	study	Phase3	study/STIM_016.jpg
1663.46	1.254	correct	study	Phase3	study/STIM_016.jpg
1666.925	0.674	correct	study	Phase3	study/STIM_016.jpg
1670.942	0.974	correct	study	Phase3	study/STIM_017.jpg
1675.152	0.907	correct	study	Phase3	study/STIM_017.jpg
1678.824	0.844	correct	study	Phase3	study/STIM_017.jpg
1682.428	0.815	correct	study	Phase3	study/STIM_018.jpg
1685.681	0.735	correct	study	Phase3	study/STIM_018.jpg
1690.36	0.731	correct	study	Phase3	study/STIM_018.jpg
1694.908	0.59	correct	study	Phase3	study/STIM_019.jpg
1699.239	0.704	correct	study	Phase3	study/STIM_019.jpg
1703.235	1.18	correct	study	Phase3	study/STIM_019.jpg
1706.557	0.686	correct	study	Phase3	study/STIM_020.jpg
1711.002	0.999	correct	study	Phase3	study/STIM_020.jpg
1714.511	0.736	correct	study	Phase3	study/STIM_020.jpg
1718.707	1.044	correct	study	Phase3	study/STIM_021.jpg
1723.418	0.625	correct	study	Phase3	study/STIM_021.jpg
1727.685	0.885	correct	study	Phase3	study/STIM_021.jpg
1731.378	0.901	correct	study	Phase3	study/STIM_022.jpg
1735.34	0.608	correct	study	Phase3	study/STIM_022.jpg
1738.222	0.741	correct	study	Phase3	study/STIM_022.jpg
1742.901	0.606	correct	study	Phase3	study/STIM_023.jpg
1747.21	0.958	correct	study	Phase3	study/STIM_023.jpg
1750.942	1.058	correct	study	Phase3	study/STIM_023.jpg
1754.148	1.295	correct	study	Phase3	study/STIM_024.jpg
1758.203	0.63	correct	study	Phase3	study/STIM_024.jpg
1760.936	0.584	correct	study	Phase3	study/STIM_024.jpg
1765.01	1.197	correct	study	Phase3	study/STIM_025.jpg
1769.128	0.593	correct	study	Phase3	study/STIM_025.jpg
1771.889	0.742	correct	study	Phase3	study/STIM_025.jpg
1776.424	1.097	correct	study	Phase3	study/STIM_026.jpg
1781.383	0.734	correct	study	Phase3	study/STIM_026.jpg
1784.266	1.164	correct	study	Phase3	study/STIM_026.jpg
1787.694	1.064	correct	study	Phase3	study/STIM_027.jpg
1792.626	0.783	correct	study	Phase3	study/STIM_027.jpg
1797.252	0.914	correct	study	Phase3	study/STIM_027.jpg
1800.903	1.298	correct	study	Phase3	study/STIM_028.jpg
1806.046	0.909	correct	study	Phase3	study/STIM_028.jpg
1809.881	0.697	correct	study	Phase3	study/STIM_028.jpg
1814.316	0.607	correct	study	Phase3	study/STIM_029.jpg
1818.816	0.779	correct	study	Phase3	study/STIM_029.jpg
1822.251	0.772	correct	study	Phase3	study/STIM_029.jpg
1826.726	0.864	correct	test	Phase3	test/STIM_000.jpg
1830.081	0.756	correct	test	Phase3	test/STIM_000.jpg
1833.093	1.187	correct	test	Phase3	test/STIM_000.jpg
1837.352	0.959	correct	test	Phase3	test/STIM_001.jpg
1840.561	0.803	correct	test	Phase3	test/STIM_001.jpg
1844.762	1.204	correct	test	Phase3	test/STIM_001.jpg
1849.384	1.252	correct	test	Phase3	test/STIM_002.jpg
1853.337	0.798	correct	test	Phase3	test/STIM_002.jpg
1857.061	0.822	correct	test	Phase3	test/STIM_002.jpg
1861.303	0.775	correct	test	Phase3	test/STIM_003.jpg
1864.593	0.92	correct	test	Phase3	test/STIM_003.jpg
1869.155	0.911	correct	test	Phase3	test/STIM_003.jpg
1873.267	0.636	correct	test	Phase3	test/STIM_004.jpg
1877.282	0.81	correct	test	Phase3	test/STIM_004.jpg
1881.076	1.109	correct	test	Phase3	test/STIM_004.jpg
1884.518	0.746	correct	test	Phase3	test/STIM_005.jpg
1887.899	0.789	correct	test	Phase3	test/STIM_005.jpg
1890.809	1.01	correct	test	Phase3	test/STIM_005.jpg
1894.589	0.715	correct	test	Phase3	test/STIM_006.jpg
1898.167	0.741	correct	test	Phase3	test/STIM_006.jpg
1901.585	1.279	correct	test	Phase3	test/STIM_006.jpg
1906.204	1.149	correct	test	Phase3	test/STIM_007.jpg
1910.397	0.708	correct	test	Phase3	test/STIM_007.jpg
1914.237	1.288	correct	test	Phase3	test/STIM_007.jpg
1917.567	1.34	correct	test	Phase3	test/STIM_008.jpg
1922.739	0.732	correct	test	Phase3	test/STIM_008.jpg
1926.388	0.721	correct	test	Phase3	test/STIM_008.jpg
1929.542	0.636	correct	test	Phase3	test/STIM_009.jpg
1932.788	1.318	correct	test	Phase3	test/STIM_009.jpg
1937.633	0.939	correct	test	Phase3	test/STIM_009.jpg
1942.107	0.964	correct	test	Phase3	test/STIM_010.jpg
1946.256	1.239	correct	test	Phase3	test/STIM_010.jpg
1950.349	0.799	correct	test	Phase3	test/STIM_010.jpg
1954.662	1.055	correct	test	Phase3	test/STIM_011.jpg
1958.438	1.263	correct	test	Phase3	test/STIM_011.jpg
1963.029	0.895	correct	test	Phase3	test/STIM_011.jpg
1967.885	1.045	correct	test	Phase3	test/STIM_012.jpg
1972.632	1.113	correct	test	Phase3	test/STIM_012.jpg
1976.591	1.069	correct	test	Phase3	test/STIM_012.jpg
1981.02	0.829	correct	test	Phase3	test/STIM_013.jpg
1983.906	0.652	correct	test	Phase3	test/STIM_013.jpg
1986.601	0.822	correct	test	Phase3	test/STIM_013.jpg
1990.911	1.052	correct	test	Phase3	test/STIM_014.jpg
1994.448	0.635	correct	test	Phase3	test/STIM_014.jpg
1999.047	1.299	correct	test	Phase3	test/STIM_014.jpg
2002.988	1.272	correct	test	Phase3	test/STIM_015.jpg
2006.603	0.71	correct	test	Phase3	test/STIM_015.jpg
2009.326	0.634	correct	test	Phase3	test/STIM_015.jpg
2013.234	1.034	correct	test	Phase3	test/STIM_016.jpg
2017.234	0.964	correct	test	Phase3	test/STIM_016.jpg
2021.502	0.859	correct	test	Phase3	test/STIM_016.jpg
2025.768	0.778	correct	test	Phase3	test/STIM_017.jpg
2029.999	1.323	correct	test	Phase3	test/STIM_017.jpg
2033.733	1.044	correct	test	Phase3	test/STIM_017.jpg
2037.475	0.873	correct	test	Phase3	test/STIM_018.jpg
2040.421	1.244	correct	test	Phase3	test/STIM_018.jpg
2044.799	1.162	correct	test	Phase3	test/STIM_018.jpg
2049.935	1.255	correct	test	Phase3	test/STIM_019.jpg
2054.531	0.97	correct	test	Phase3	test/STIM_019.jpg
2058.204	0.742	correct	test	Phase3	test/STIM_019.jpg
2062.138	1.205	correct	test	Phase3	test/STIM_020.jpg
2066.89	1.027	correct	test	Phase3	test/STIM_020.jpg
2071.491	1.062	correct	test	Phase3	test/STIM_020.jpg
2075.13	1.332	correct	test	Phase3	test/STIM_021.jpg
2079.372	1.26	correct	test	Phase3	test/STIM_021.jpg
2083.556	0.715	correct	test	Phase3	test/STIM_021.jpg
2086.356	1.337	correct	test	Phase3	test/STIM_022.jpg
2091.557	1.093	correct	test	Phase3	test/STIM_022.jpg
2095.366	0.801	correct	test	Phase3	test/STIM_022.jpg
2099.23	0.818	correct	test	Phase3	test/STIM_023.jpg
2102.108	0.685	correct	test	Phase3	test/STIM_023.jpg
2104.958	1.226	correct	test	Phase3	test/STIM_023.jpg
2109.487	0.955	correct	test	Phase3	test/STIM_024.jpg
2113.263	1.093	correct	test	Phase3	test/STIM_024.jpg
2117.084	0.707	correct	test	Phase3	test/STIM_024.jpg
2121.541	1.203	correct	test	Phase3	test/STIM_025.jpg
2126.479	0.943	correct	test	Phase3	test/STIM_025.jpg
2131.15	0.983	correct	test	Phase3	test/STIM_025.jpg
2134.603	1.18	correct	test	Phase3	test/STIM_026.jpg
2138.198	0.812	correct	test	Phase3	test/STIM_026.jpg
2142.079	1.21	correct	test	Phase3	test/STIM_026.jpg
2146.766	1.29	correct	test	Phase3	test/STIM_027.jpg
2150.788	0.971	correct	test	Phase3	test/STIM_027.jpg
2153.944	0.906	correct	test	Phase3	test/STIM_027.jpg
2157.886	1.311	correct	test	Phase3	test/STIM_028.jpg
2161.707	1.132	correct	test	Phase3	test/STIM_028.jpg
2166.033	0.8	correct	test	Phase3	test/STIM_028.jpg
2169.277	1.089	correct	test	Phase3	test/STIM_029.jpg
2174.049	1.072	correct	test	Phase3	test/STIM_029.jpg
2177.298	0.828	correct	test	Phase3	test/STIM_029.jpg
