onset	duration	response_time_ms	trial_type	learning_stage	stimulus	response_port
0.0	1.869	1868.9	study	Phase1	study/STIM_000.jpg	100
4.56	1.029	1029.4	study	Phase1	study/STIM_000.jpg	100
9.159	1.001	1001.3	study	Phase1	study/STIM_000.jpg	99
12.463	1.561	1561.1	study	Phase1	study/STIM_001.jpg	100
17.016	1.518	1518.3	study	Phase1	study/STIM_001.jpg	99
22.393	1.297	1297.3	study	Phase1	study/STIM_001.jpg	99
27.15	0.891	890.7	study	Phase1	study/STIM_002.jpg	100
31.972	1.487	1486.6	study	Phase1	study/STIM_002.jpg	99
36.244	1.116	1116.1	study	Phase1	study/STIM_002.jpg	100
40.082	0.978	978.5	study	Phase1	study/STIM_003.jpg	100
43.064	1.223	1222.9	study	Phase1	study/STIM_003.jpg	100
47.812	0.974	974.2	study	Phase1	study/STIM_003.jpg	99
51.404	0.928	928.0	study	Phase1	study/STIM_004.jpg	100
55.668	1.519	1519.4	study	Phase1	study/STIM_004.jpg	99
60.118	1.512	1512.3	study	Phase1	study/STIM_004.jpg	99
64.406	1.17	1170.4	study	Phase1	study/STIM_005.jpg	99
67.655	0.864	864.5	study	Phase1	study/STIM_005.jpg	99
71.895	1.344	1343.5	study	Phase1	study/STIM_005.jpg	99
77.072	1.763	1763.3	study	Phase1	study/STIM_006.jpg	99
82.513	0.909	909.0	study	Phase1	study/STIM_006.jpg	99
86.404	1.479	1478.8	study	Phase1	study/STIM_006.jpg	99
90.612	1.616	1616.4	study	Phase1	study/STIM_007.jpg	99
95.071	1.504	1504.3	study	Phase1	study/STIM_007.jpg	100
100.299	1.606	1606.5	study	Phase1	study/STIM_007.jpg	99
103.907	1.667	1667.0	study	Phase1	study/STIM_008.jpg	100
109.542	0.823	823.2	study	Phase1	study/STIM_008.jpg	100
114.129	1.432	1432.5	study	Phase1	study/STIM_008.jpg	100
118.958	0.857	856.8	study	Phase1	study/STIM_009.jpg	100
123.05	1.034	1034.5	study	Phase1	study/STIM_009.jpg	99
127.114	1.42	1419.7	study	Phase1	study/STIM_009.jpg	100
130.738	1.78	1779.9	study	Phase1	study/STIM_010.jpg	100
135.946	1.548	1548.2	study	Phase1	study/STIM_010.jpg	100
140.922	0.947	946.6	study	Phase1	study/STIM_010.jpg	100
145.252	1.668	1668.5	study	Phase1	study/STIM_011.jpg	100
150.642	0.831	831.1	study	Phase1	study/STIM_011.jpg	99
154.832	0.825	825.3	study	Phase1	study/STIM_011.jpg	100
158.599	1.545	1545.3	study	Phase1	study/STIM_012.jpg	100
163.006	1.027	1026.7	study	Phase1	study/STIM_012.jpg	99
167.378	1.662	1662.5	study	Phase1	study/STIM_012.jpg	99
172.897	0.835	834.9	study	Phase1	study/STIM_013.jpg	99
176.793	1.155	1154.6	study	Phase1	study/STIM_013.jpg	99
181.15	1.271	1270.6	study	Phase1	study/STIM_013.jpg	99
186.386	1.631	1630.7	study	Phase1	study/STIM_014.jpg	100
191.852	1.276	1276.4	study	Phase1	study/STIM_014.jpg	100
196.7	1.079	1078.6	study	Phase1	study/STIM_014.jpg	100
200.866	1.113	1112.7	study	Phase1	study/STIM_015.jpg	99
204.535	0.814	814.5	study	Phase1	study/STIM_015.jpg	100
208.664	0.949	948.8	study	Phase1	study/STIM_015.jpg	100
211.911	1.098	1098.2	study	Phase1	study/STIM_016.jpg	100
216.037	1.003	1003.4	study	Phase1	study/STIM_016.jpg	99
219.797	1.681	1680.7	study	Phase1	study/STIM_016.jpg	99
225.083	1.732	1731.6	study	Phase1	study/STIM_017.jpg	100
230.024	0.889	889.0	study	Phase1	study/STIM_017.jpg	100
233.799	1.077	1076.7	study	Phase1	study/STIM_017.jpg	100
238.07	1.708	1708.3	study	Phase1	study/STIM_018.jpg	100
242.233	0.987	987.2	study	Phase1	study/STIM_018.jpg	99
245.279	1.214	1213.8	study	Phase1	study/STIM_018.jpg	99
248.584	1.325	1325.1	study	Phase1	study/STIM_019.jpg	99
252.11	1.391	1391.1	study	Phase1	study/STIM_019.jpg	99
256.255	1.667	1667.1	study	Phase1	study/STIM_019.jpg	99
259.941	1.814	1814.3	study	Phase1	study/STIM_020.jpg	100
264.956	1.392	1391.8	study	Phase1	study/STIM_020.jpg	99
269.236	1.234	1233.9	study	Phase1	study/STIM_020.jpg	99
272.907	1.782	1782.5	study	Phase1	study/STIM_021.jpg	99
277.539	1.034	1034.2	study	Phase1	study/STIM_021.jpg	99
280.777	1.517	1517.1	study	Phase1	study/STIM_021.jpg	99
284.902	1.532	1531.7	study	Phase1	study/STIM_022.jpg	99
289.606	1.269	1268.6	study	Phase1	study/STIM_022.jpg	99
293.506	1.013	1013.1	study	Phase1	study/STIM_022.jpg	99
297.325	1.359	1358.7	study	Phase1	study/STIM_023.jpg	100
302.136	0.962	961.8	study	Phase1	study/STIM_023.jpg	100
307.046	1.25	1249.7	study	Phase1	study/STIM_023.jpg	100
311.229	0.884	883.5	study	Phase1	study/STIM_024.jpg	99
315.244	0.931	930.9	study	Phase1	study/STIM_024.jpg	100
318.643	1.347	1347.4	study	Phase1	study/STIM_024.jpg	99
322.583	0.93	929.5	study	Phase1	study/STIM_025.jpg	99
326.786	1.387	1386.8	study	Phase1	study/STIM_025.jpg	99
331.611	0.962	962.2	study	Phase1	study/STIM_025.jpg	99
335.016	0.906	905.6	study	Phase1	study/STIM_026.jpg	100
338.015	0.836	835.6	study	Phase1	study/STIM_026.jpg	99
341.488	0.786	785.7	study	Phase1	study/STIM_026.jpg	99
344.509	0.924	923.6	study	Phase1	study/STIM_027.jpg	99
348.721	0.957	957.2	study	Phase1	study/STIM_027.jpg	99
352.08	1.531	1531.2	study	Phase1	study/STIM_027.jpg	100
356.471	1.406	1406.0	study	Phase1	study/STIM_028.jpg	100
360.307	1.403	1402.9	study	Phase1	study/STIM_028.jpg	100
365.26	1.242	1241.7	study	Phase1	study/STIM_028.jpg	100
370.053	1.248	1248.3	study	Phase1	study/STIM_029.jpg	99
373.314	1.618	1617.8	study	Phase1	study/STIM_029.jpg	99
378.069	1.1	1099.8	study	Phase1	study/STIM_029.jpg	100
382.389	0.762	761.9	test	Phase1	test/STIM_000.jpg	100
386.363	1.117	1117.2	test	Phase1	test/STIM_000.jpg	99
391.159	0.99	990.1	test	Phase1	test/STIM_000.jpg	100
395.28	1.261	1261.4	test	Phase1	test/STIM_001.jpg	100
398.984	1.034	1033.6	test	Phase1	test/STIM_001.jpg	99
402.377	0.796	796.0	test	Phase1	test/STIM_001.jpg	100
406.221	1.084	1083.8	test	Phase1	test/STIM_002.jpg	100
410.079	0.949	949.2	test	Phase1	test/STIM_002.jpg	100
413.417	0.671	671.3	test	Phase1	test/STIM_002.jpg	99
416.512	1.126	1126.5	test	Phase1	test/STIM_003.jpg	100
420.984	0.932	931.8	test	Phase1	test/STIM_003.jpg	99
424.317	0.673	672.6	test	Phase1	test/STIM_003.jpg	99
428.824	0.772	771.9	test	Phase1	test/STIM_004.jpg	99
432.275	0.696	695.8	test	Phase1	test/STIM_004.jpg	99
436.015	1.234	1233.9	test	Phase1	test/STIM_004.jpg	99
440.539	1.075	1075.3	test	Phase1	test/STIM_005.jpg	99
444.27	0.656	656.2	test	Phase1	test/STIM_005.jpg	100
447.855	0.892	892.3	test	Phase1	test/STIM_005.jpg	99
451.279	0.757	757.0	test	Phase1	test/STIM_006.jpg	100
455.49	1.272	1272.5	test	Phase1	test/STIM_006.jpg	100
459.518	1.167	1167.1	test	Phase1	test/STIM_006.jpg	100
464.189	0.974	973.7	test	Phase1	test/STIM_007.jpg	100
468.547	0.927	926.8	test	Phase1	test/STIM_007.jpg	100
472.801	0.91	909.9	test	Phase1	test/STIM_007.jpg	99
476.625	1.34	1339.9	test	Phase1	test/STIM_008.jpg	99
480.299	1.083	1082.8	test	Phase1	test/STIM_008.jpg	100
484.462	1.348	1347.9	test	Phase1	test/STIM_008.jpg	99
488.717	0.847	847.1	test	Phase1	test/STIM_009.jpg	100
493.441	1.212	1212.1	test	Phase1	test/STIM_009.jpg	99
498.061	1.046	1045.6	test	Phase1	test/STIM_009.jpg	100
501.791	1.059	1059.2	test	Phase1	test/STIM_010.jpg	99
505.949	1.186	1186.3	test	Phase1	test/STIM_010.jpg	100
509.957	0.934	934.1	test	Phase1	test/STIM_010.jpg	100
513.151	1.206	1206.5	test	Phase1	test/STIM_011.jpg	100
517.188	0.84	839.6	test	Phase1	test/STIM_011.jpg	100
521.518	1.278	1277.8	test	Phase1	test/STIM_011.jpg	100
525.18	0.849	849.4	test	Phase1	test/STIM_012.jpg	99
529.69	1.003	1002.7	test	Phase1	test/STIM_012.jpg	100
534.238	1.152	1152.2	test	Phase1	test/STIM_012.jpg	100
538.088	0.825	824.6	test	Phase1	test/STIM_013.jpg	100
541.374	0.73	730.5	test	Phase1	test/STIM_013.jpg	99
545.14	0.753	752.9	test	Phase1	test/STIM_013.jpg	99
548.478	1.163	1163.3	test	Phase1	test/STIM_014.jpg	100
553.196	0.691	690.7	test	Phase1	test/STIM_014.jpg	100
556.483	0.957	957.3	test	Phase1	test/STIM_014.jpg	100
559.963	1.219	1219.0	test	Phase1	test/STIM_015.jpg	100
564.732	1.134	1133.5	test	Phase1	test/STIM_015.jpg	99
568.537	1.292	1292.2	test	Phase1	test/STIM_015.jpg	99
573.608	0.953	953.3	test	Phase1	test/STIM_016.jpg	100
576.715	0.869	869.3	test	Phase1	test/STIM_016.jpg	100
580.573	0.97	969.5	test	Phase1	test/STIM_016.jpg	99
584.557	1.239	1238.9	test	Phase1	test/STIM_017.jpg	100
588.94	1.015	1015.2	test	Phase1	test/STIM_017.jpg	100
592.446	0.988	987.9	test	Phase1	test/STIM_017.jpg	99
597.234	0.744	743.5	test	Phase1	test/STIM_018.jpg	99
600.457	1.193	1193.3	test	Phase1	test/STIM_018.jpg	99
605.448	1.301	1300.9	test	Phase1	test/STIM_018.jpg	100
609.183	0.903	903.4	test	Phase1	test/STIM_019.jpg	99
612.33	0.874	874.5	test	Phase1	test/STIM_019.jpg	100
616.651	0.883	883.1	test	Phase1	test/STIM_019.jpg	100
620.239	1.07	1070.2	test	Phase1	test/STIM_020.jpg	100
624.91	0.883	883.4	test	Phase1	test/STIM_020.jpg	100
628.63	0.666	666.5	test	Phase1	test/STIM_020.jpg	100
632.833	1.221	1220.9	test	Phase1	test/STIM_021.jpg	99
637.239	1.034	1034.4	test	Phase1	test/STIM_021.jpg	100
640.29	0.95	949.7	test	Phase1	test/STIM_021.jpg	100
644.216	0.732	732.0	test	Phase1	test/STIM_022.jpg	99
648.409	1.136	1136.5	test	Phase1	test/STIM_022.jpg	99
651.677	1.333	1333.2	test	Phase1	test/STIM_022.jpg	100
655.987	0.822	821.8	test	Phase1	test/STIM_023.jpg	100
659.834	0.766	766.3	test	Phase1	test/STIM_023.jpg	100
663.813	0.905	905.3	test	Phase1	test/STIM_023.jpg	99
667.183	1.13	1130.3	test	Phase1	test/STIM_024.jpg	100
671.699	0.871	871.0	test	Phase1	test/STIM_024.jpg	99
675.818	0.716	716.3	test	Phase1	test/STIM_024.jpg	100
679.672	1.132	1132.0	test	Phase1	test/STIM_025.jpg	99
683.689	1.157	1156.8	test	Phase1	test/STIM_025.jpg	100
688.766	1.344	1344.2	test	Phase1	test/STIM_025.jpg	99
692.285	1.045	1044.7	test	Phase1	test/STIM_026.jpg	100
696.627	0.868	868.0	test	Phase1	test/STIM_026.jpg	100
700.817	1.285	1284.8	test	Phase1	test/STIM_026.jpg	100
704.144	0.735	735.1	test	Phase1	test/STIM_027.jpg	100
708.365	0.731	731.4	test	Phase1	test/STIM_027.jpg	100
712.272	1.188	1187.7	test	Phase1	test/STIM_027.jpg	99
716.807	1.143	1142.8	test	Phase1	test/STIM_028.jpg	100
720.252	1.122	1121.9	test	Phase1	test/STIM_028.jpg	100
725.33	1.14	1139.6	test	Phase1	test/STIM_028.jpg	99
730.289	0.791	791.4	test	Phase1	test/STIM_029.jpg	99
733.208	1.081	1081.3	test	Phase1	test/STIM_029.jpg	99
737.298	0.774	774.2	test	Phase1	test/STIM_029.jpg	99
740.991	0.726	726.2	study	Phase2	study/STIM_000.jpg	99
745.521	1.322	1321.5	study	Phase2	study/STIM_000.jpg	100
750.788	0.987	986.6	study	Phase2	study/STIM_000.jpg	100
754.858	1.382	1382.3	study	Phase2	study/STIM_001.jpg	99
758.37	1.425	1425.1	study	Phase2	study/STIM_001.jpg	99
762.239	0.8	800.3	study	Phase2	study/STIM_001.jpg	100
766.441	0.784	783.9	study	Phase2	study/STIM_002.jpg	100
770.719	1.484	1483.7	study	Phase2	study/STIM_002.jpg	100
774.375	1.33	1329.9	study	Phase2	study/STIM_002.jpg	100
777.705	1.175	1175.3	study	Phase2	study/STIM_003.jpg	99
781.583	1.388	1388.4	study	Phase2	study/STIM_003.jpg	100
786.673	1.058	1058.2	study	Phase2	study/STIM_003.jpg	100
790.704	1.151	1151.2	study	Phase2	study/STIM_004.jpg	99
794.136	1.2	1200.5	study	Phase2	study/STIM_004.jpg	99
797.656	0.918	917.6	study	Phase2	study/STIM_004.jpg	100
801.196	1.48	1480.3	study	Phase2	study/STIM_005.jpg	99
806.363	0.784	784.1	study	Phase2	study/STIM_005.jpg	100
809.207	0.931	931.4	study	Phase2	study/STIM_005.jpg	99
813.42	1.383	1382.6	study	Phase2	study/STIM_006.jpg	100
818.477	1.124	1124.2	study	Phase2	study/STIM_006.jpg	100
823.052	0.732	731.7	study	Phase2	study/STIM_006.jpg	99
827.436	0.738	737.9	study	Phase2	study/STIM_007.jpg	99
831.215	0.714	714.3	study	Phase2	study/STIM_007.jpg	100
835.608	0.702	702.5	study	Phase2	study/STIM_007.jpg	100
838.549	1.188	1188.4	study	Phase2	study/STIM_008.jpg	100
843.37	1.15	1149.5	study	Phase2	study/STIM_008.jpg	99
847.134	1.007	1007.2	study	Phase2	study/STIM_008.jpg	100
851.136	1.315	1315.1	study	Phase2	study/STIM_009.jpg	100
854.585	0.974	973.8	study	Phase2	study/STIM_009.jpg	100
859.205	1.273	1273.2	study	Phase2	study/STIM_009.jpg	100
862.637	1.426	1425.6	study	Phase2	study/STIM_010.jpg	100
867.079	1.237	1236.8	study	Phase2	study/STIM_010.jpg	100
870.574	0.756	755.9	study	Phase2	study/STIM_010.jpg	100
874.744	1.276	1275.6	study	Phase2	study/STIM_011.jpg	100
879.264	1.131	1131.3	study	Phase2	study/STIM_011.jpg	100
883.64	0.976	975.5	study	Phase2	study/STIM_011.jpg	99
887.926	1.19	1190.1	study	Phase2	study/STIM_012.jpg	99
892.443	0.874	873.7	study	Phase2	study/STIM_012.jpg	100
896.662	1.264	1263.7	study	Phase2	study/STIM_012.jpg	99
901.379	1.31	1310.3	study	Phase2	study/STIM_013.jpg	99
904.995	1.083	1082.6	study	Phase2	study/STIM_013.jpg	100
908.345	0.692	692.1	study	Phase2	study/STIM_013.jpg	100
911.42	1.032	1031.7	study	Phase2	study/STIM_014.jpg	100
914.618	0.78	780.3	study	Phase2	study/STIM_014.jpg	99
918.797	1.282	1282.2	study	Phase2	study/STIM_014.jpg	99
923.169	0.96	960.4	study	Phase2	study/STIM_015.jpg	100
927.375	0.904	904.0	study	Phase2	study/STIM_015.jpg	100
930.628	0.854	854.4	study	Phase2	study/STIM_015.jpg	100
934.502	0.84	839.9	study	Phase2	study/STIM_016.jpg	99
937.801	0.694	694.3	study	Phase2	study/STIM_016.jpg	99
941.365	1.23	1229.9	study	Phase2	study/STIM_016.jpg	99
945.741	0.793	792.6	study	Phase2	study/STIM_017.jpg	99
949.04	1.168	1167.8	study	Phase2	study/STIM_017.jpg	100
953.032	1.134	1134.1	study	Phase2	study/STIM_017.jpg	100
956.431	1.492	1492.1	study	Phase2	study/STIM_018.jpg	99
961.805	0.84	839.8	study	Phase2	study/STIM_018.jpg	99
964.869	1.123	1123.1	study	Phase2	study/STIM_018.jpg	100
969.227	1.234	1234.0	study	Phase2	study/STIM_019.jpg	100
972.638	1.283	1282.6	study	Phase2	study/STIM_019.jpg	99
977.212	1.157	1157.1	study	Phase2	study/STIM_019.jpg	99
982.017	1.058	1057.5	study	Phase2	study/STIM_020.jpg	100
985.615	0.761	761.1	study	Phase2	study/STIM_020.jpg	100
988.573	0.98	979.5	study	Phase2	study/STIM_020.jpg	100
992.824	1.206	1205.8	study	Phase2	study/STIM_021.jpg	99
997.761	0.841	840.8	study	Phase2	study/STIM_021.jpg	100
1002.03	0.901	900.7	study	Phase2	study/STIM_021.jpg	100
1006.558	1.578	1577.5	study	Phase2	study/STIM_022.jpg	99
1011.513	0.727	727.2	study	Phase2	study/STIM_022.jpg	100
1015.142	0.638	638.1	study	Phase2	study/STIM_022.jpg	99
1018.553	1.044	1043.8	study	Phase2	study/STIM_023.jpg	99
1022.194	0.743	742.9	study	Phase2	study/STIM_023.jpg	99
1025.444	0.894	894.3	study	Phase2	study/STIM_023.jpg	100
1029.018	1.484	1484.0	study	Phase2	study/STIM_024.jpg	99
1033.521	1.317	1317.4	study	Phase2	study/STIM_024.jpg	99
1038.36	0.764	764.5	study	Phase2	study/STIM_024.jpg	100
1041.412	1.316	1315.7	study	Phase2	study/STIM_025.jpg	100
1044.858	1.165	1165.2	study	Phase2	study/STIM_025.jpg	99
1048.428	1.353	1353.0	study	Phase2	study/STIM_025.jpg	100
1052.403	1.357	1357.3	study	Phase2	study/STIM_026.jpg	99
1057.603	1.198	1198.4	study	Phase2	study/STIM_026.jpg	99
1061.04	1.264	1264.4	study	Phase2	study/STIM_026.jpg	99
1065.843	0.77	770.2	study	Phase2	study/STIM_027.jpg	100
1069.993	1.077	1076.8	study	Phase2	study/STIM_027.jpg	100
1074.949	0.798	797.6	study	Phase2	study/STIM_027.jpg	100
1079.292	1.132	1131.7	study	Phase2	study/STIM_028.jpg	99
1082.602	0.855	854.8	study	Phase2	study/STIM_028.jpg	99
1086.397	0.912	912.5	study	Phase2	study/STIM_028.jpg	99
1089.792	1.361	1360.9	study	Phase2	study/STIM_029.jpg	100
1093.161	0.754	753.8	study	Phase2	study/STIM_029.jpg	100
1097.212	1.158	1157.8	study	Phase2	study/STIM_029.jpg	100
1101.378	0.993	993.3	test	Phase2	test/STIM_000.jpg	100
1105.751	1.04	1040.5	test	Phase2	test/STIM_000.jpg	100
1108.805	1.268	1267.9	test	Phase2	test/STIM_000.jpg	100
1112.368	0.785	785.3	test	Phase2	test/STIM_001.jpg	100
1115.623	1.089	1089.0	test	Phase2	test/STIM_001.jpg	99
1120.416	1.289	1289.3	test	Phase2	test/STIM_001.jpg	100
1124.719	0.635	635.1	test	Phase2	test/STIM_002.jpg	99
1128.049	1.239	1239.3	test	Phase2	test/STIM_002.jpg	100
1132.286	1.317	1317.0	test	Phase2	test/STIM_002.jpg	100
1135.796	0.883	882.9	test	Phase2	test/STIM_003.jpg	99
1139.286	1.204	1204.1	test	Phase2	test/STIM_003.jpg	99
1143.249	0.686	686.2	test	Phase2	test/STIM_003.jpg	100
1146.169	1.256	1256.2	test	Phase2	test/STIM_004.jpg	100
1150.03	0.627	627.1	test	Phase2	test/STIM_004.jpg	99
1153.093	0.986	986.3	test	Phase2	test/STIM_004.jpg	100
1156.277	1.139	1139.2	test	Phase2	test/STIM_005.jpg	100
1160.655	1.299	1298.9	test	Phase2	test/STIM_005.jpg	100
1165.429	1.128	1127.8	test	Phase2	test/STIM_005.jpg	99
1169.903	0.631	631.2	test	Phase2	test/STIM_006.jpg	100
1173.808	0.979	979.4	test	Phase2	test/STIM_006.jpg	99
1177.256	0.971	970.9	test	Phase2	test/STIM_006.jpg	99
1180.735	1.239	1238.9	test	Phase2	test/STIM_007.jpg	99
1185.691	1.049	1048.7	test	Phase2	test/STIM_007.jpg	99
1189.573	0.858	857.6	test	Phase2	test/STIM_007.jpg	99
1193.157	1.317	1317.1	test	Phase2	test/STIM_008.jpg	100
1197.333	0.75	750.0	test	Phase2	test/STIM_008.jpg	100
1201.274	1.329	1328.7	test	Phase2	test/STIM_008.jpg	100
1205.11	0.814	814.4	test	Phase2	test/STIM_009.jpg	100
1208.163	1.13	1129.9	test	Phase2	test/STIM_009.jpg	100
1212.44	1.339	1338.7	test	Phase2	test/STIM_009.jpg	99
1217.467	1.17	1169.5	test	Phase2	test/STIM_010.jpg	99
1222.497	0.742	741.8	test	Phase2	test/STIM_010.jpg	100
1227.087	0.824	823.6	test	Phase2	test/STIM_010.jpg	99
1229.994	1.278	1278.2	test	Phase2	test/STIM_011.jpg	100
1234.331	0.784	783.6	test	Phase2	test/STIM_011.jpg	99
1237.695	1.107	1107.0	test	Phase2	test/STIM_011.jpg	99
1242.504	1.127	1127.2	test	Phase2	test/STIM_012.jpg	100
1246.439	1.212	1212.3	test	Phase2	test/STIM_012.jpg	99
1250.909	1.119	1119.4	test	Phase2	test/STIM_012.jpg	99
1254.938	1.138	1138.5	test	Phase2	test/STIM_013.jpg	99
1259.466	1.266	1265.9	test	Phase2	test/STIM_013.jpg	100
1262.987	1.302	1302.0	test	Phase2	test/STIM_013.jpg	99
1267.802	0.831	831.4	test	Phase2	test/STIM_014.jpg	99
1270.663	0.784	784.3	test	Phase2	test/STIM_014.jpg	100
1274.953	0.765	765.0	test	Phase2	test/STIM_014.jpg	100
1278.54	1.147	1147.2	test	Phase2	test/STIM_015.jpg	99
1283.593	0.96	959.7	test	Phase2	test/STIM_015.jpg	99
1287.281	0.83	830.1	test	Phase2	test/STIM_015.jpg	100
1290.92	1.04	1040.3	test	Phase2	test/STIM_016.jpg	99
1295.39	1.329	1329.2	test	Phase2	test/STIM_016.jpg	99
1299.759	1.245	1245.4	test	Phase2	test/STIM_016.jpg	99
1303.791	0.75	750.2	test	Phase2	test/STIM_017.jpg	100
1307.774	1.289	1288.9	test	Phase2	test/STIM_017.jpg	100
1312.356	1.188	1187.5	test	Phase2	test/STIM_017.jpg	100
1316.685	0.658	658.5	test	Phase2	test/STIM_018.jpg	99
1321.048	0.829	828.9	test	Phase2	test/STIM_018.jpg	99
1324.776	0.655	654.6	test	Phase2	test/STIM_018.jpg	100
1327.637	1.328	1328.3	test	Phase2	test/STIM_019.jpg	99
1332.851	0.662	661.8	test	Phase2	test/STIM_019.jpg	99
1337.418	1.094	1094.2	test	Phase2	test/STIM_019.jpg	100
1341.856	0.759	759.3	test	Phase2	test/STIM_020.jpg	99
1345.166	0.829	828.7	test	Phase2	test/STIM_020.jpg	100
1348.037	0.663	663.1	test	Phase2	test/STIM_020.jpg	100
1352.234	0.643	643.3	test	Phase2	test/STIM_021.jpg	99
1356.091	0.969	969.4	test	Phase2	test/STIM_021.jpg	99
1359.771	1.249	1249.3	test	Phase2	test/STIM_021.jpg	99
1364.873	0.795	795.3	test	Phase2	test/STIM_022.jpg	99
1369.582	1.089	1088.6	test	Phase2	test/STIM_022.jpg	99
1374.635	1.216	1216.5	test	Phase2	test/STIM_022.jpg	100
1379.05	1.028	1028.5	test	Phase2	test/STIM_023.jpg	100
1382.324	1.094	1093.5	test	Phase2	test/STIM_023.jpg	100
1386.056	1.021	1020.7	test	Phase2	test/STIM_023.jpg	99
1390.861	0.928	927.6	test	Phase2	test/STIM_024.jpg	100
1393.91	1.192	1192.4	test	Phase2	test/STIM_024.jpg	99
1397.262	1.019	1018.6	test	Phase2	test/STIM_024.jpg	100
1402.098	0.659	658.9	test	Phase2	test/STIM_025.jpg	100
1404.995	0.936	935.7	test	Phase2	test/STIM_025.jpg	99
1409.122	1.115	1115.1	test	Phase2	test/STIM_025.jpg	99
1412.562	1.205	1205.4	test	Phase2	test/STIM_026.jpg	100
1416.898	1.197	1197.0	test	Phase2	test/STIM_026.jpg	99
1420.164	0.733	733.4	test	Phase2	test/STIM_026.jpg	99
1424.648	1.321	1320.8	test	Phase2	test/STIM_027.jpg	100
1429.282	0.844	844.5	test	Phase2	test/STIM_027.jpg	99
1433.368	1.247	1246.8	test	Phase2	test/STIM_027.jpg	100
1438.013	0.805	804.8	test	Phase2	test/STIM_028.jpg	99
1441.256	1.253	1253.3	test	Phase2	test/STIM_028.jpg	99
1446.05	1.084	1083.6	test	Phase2	test/STIM_028.jpg	100
1450.887	1.01	1010.0	test	Phase2	test/STIM_029.jpg	100
1455.759	0.869	869.3	test	Phase2	test/STIM_029.jpg	100
1459.695	0.885	884.6	test	Phase2	test/STIM_029.jpg	99
1463.601	0.621	621.0	study	Phase3	study/STIM_000.jpg	99
1466.668	1.138	1138.2	study	Phase3	study/STIM_000.jpg	99
1470.457	1.07	1070.3	study	Phase3	study/STIM_000.jpg	99
1474.823	0.989	989.2	study	Phase3	study/STIM_001.jpg	99
1479.161	1.274	1274.2	study	Phase3	study/STIM_001.jpg	100
1483.159	0.794	794.4	study	Phase3	study/STIM_001.jpg	99
1486.482	0.601	600.7	study	Phase3	study/STIM_002.jpg	100
1490.308	0.948	948.5	study	Phase3	study/STIM_002.jpg	99
1495.209	1.033	1032.8	study	Phase3	study/STIM_002.jpg	99
1498.853	1.132	1131.8	study	Phase3	study/STIM_003.jpg	99
1503.339	1.127	1126.6	study	Phase3	study/STIM_003.jpg	99
1508.462	0.945	944.8	study	Phase3	study/STIM_003.jpg	100
1511.777	0.695	695.3	study	Phase3	study/STIM_004.jpg	99
1515.544	0.973	972.6	study	Phase3	study/STIM_004.jpg	99
1520.236	0.583	583.3	study	Phase3	study/STIM_004.jpg	100
1524.59	0.655	654.9	study	Phase3	study/STIM_005.jpg	100
1527.899	1.174	1173.6	study	Phase3	study/STIM_005.jpg	100
1532.184	1.255	1255.3	study	Phase3	study/STIM_005.jpg	99
1537.333	0.68	679.8	study	Phase3	study/STIM_006.jpg	99
1541.657	0.692	691.6	study	Phase3	study/STIM_006.jpg	100
1545.112	1.258	1258.0	study	Phase3	study/STIM_006.jpg	99
1550.282	1.071	1071.2	study	Phase3	study/STIM_007.jpg	99
1553.388	0.964	964.0	study	Phase3	study/STIM_007.jpg	100
1557.934	0.989	989.1	study	Phase3	study/STIM_007.jpg	100
1561.147	1.248	1248.0	study	Phase3	study/STIM_008.jpg	99
1565.41	1.203	1203.1	study	Phase3	study/STIM_008.jpg	100
1570.505	1.299	1298.7	study	Phase3	study/STIM_008.jpg	100
1574.923	0.766	766.3	study	Phase3	study/STIM_009.jpg	100
1578.197	1.153	1153.3	study	Phase3	study/STIM_009.jpg	99
1582.822	1.176	1176.2	study	Phase3	study/STIM_009.jpg	99
1586.292	1.219	1219.0	study	Phase3	study/STIM_010.jpg	99
1591.347	1.258	1258.0	study	Phase3	study/STIM_010.jpg	100
1596.033	1.183	1183.2	study	Phase3	study/STIM_010.jpg	99
1600.189	0.771	770.8	study	Phase3	study/STIM_011.jpg	99
1604.355	0.999	998.6	study	Phase3	study/STIM_011.jpg	100
1607.779	0.72	720.1	study	Phase3	study/STIM_011.jpg	99
1612.464	1.283	1282.7	study	Phase3	study/STIM_012.jpg	99
1615.883	1.188	1187.5	study	Phase3	study/STIM_012.jpg	100
1620.948	0.922	921.9	study	Phase3	study/STIM_012.jpg	99
1625.005	0.98	979.5	study	Phase3	study/STIM_013.jpg	99
1628.307	1.1	1100.1	study	Phase3	study/STIM_013.jpg	99
1632.74	1.186	1185.5	study	Phase3	study/STIM_013.jpg	99
1636.936	1.299	1299.3	study	Phase3	study/STIM_014.jpg	100
1641.453	0.852	852.1	study	Phase3	study/STIM_014.jpg	99
1645.649	0.746	745.5	study	Phase3	study/STIM_014.jpg	99
1649.82	0.699	699.4	study	Phase3	study/STIM_015.jpg	99
1652.967	0.645	644.8	study	Phase3	study/STIM_015.jpg	99
1655.821	0.87	870.5	study	Phase3	study/STIM_015.jpg	100
1659.014	1.226	1225.6	study	Phase3	study/STIM_016.jpg	100
1663.46	1.254	1254.4	study	Phase3	study/STIM_016.jpg	100
1666.925	0.674	673.6	study	Phase3	study/STIM_016.jpg	99
1670.942	0.974	974.1	study	Phase3	study/STIM_017.jpg	99
1675.152	0.907	907.1	study	Phase3	study/STIM_017.jpg	99
1678.824	0.844	843.7	study	Phase3	study/STIM_017.jpg	99
1682.428	0.815	814.7	study	Phase3	study/STIM_018.jpg	99
1685.681	0.735	734.9	study	Phase3	study/STIM_018.jpg	100
1690.36	0.731	730.8	study	Phase3	study/STIM_018.jpg	100
1694.908	0.59	590.5	study	Phase3	study/STIM_019.jpg	99
1699.239	0.704	704.1	study	Phase3	study/STIM_019.jpg	99
1703.235	1.18	1179.8	study	Phase3	study/STIM_019.jpg	99
1706.557	0.686	686.2	study	Phase3	study/STIM_020.jpg	99
1711.002	0.999	998.7	study	Phase3	study/STIM_020.jpg	99
1714.511	0.736	736.4	study	Phase3	study/STIM_020.jpg	99
1718.707	1.044	1043.6	study	Phase3	study/STIM_021.jpg	100
1723.418	0.625	625.3	study	Phase3	study/STIM_021.jpg	100
1727.685	0.885	885.1	study	Phase3	study/STIM_021.jpg	99
1731.378	0.901	901.3	study	Phase3	study/STIM_022.jpg	99
1735.34	0.608	608.0	study	Phase3	study/STIM_022.jpg	100
1738.222	0.741	740.7	study	Phase3	study/STIM_022.jpg	100
1742.901	0.606	606.2	study	Phase3	study/STIM_023.jpg	99
1747.21	0.958	957.8	study	Phase3	study/STIM_023.jpg	99
1750.942	1.058	1057.7	study	Phase3	study/STIM_023.jpg	100
1754.148	1.295	1295.2	study	Phase3	study/STIM_024.jpg	100
1758.203	0.63	629.9	study	Phase3	study/STIM_024.jpg	99
1760.936	0.584	584.1	study	Phase3	study/STIM_024.jpg	99
1765.01	1.197	1197.2	study	Phase3	study/STIM_025.jpg	99
1769.128	0.593	593.0	study	Phase3	study/STIM_025.jpg	99
1771.889	0.742	741.8	study	Phase3	study/STIM_025.jpg	99
1776.424	1.097	1097.4	study	Phase3	study/STIM_026.jpg	99
1781.383	0.734	733.9	study	Phase3	study/STIM_026.jpg	99
1784.266	1.164	1164.1	study	Phase3	study/STIM_026.jpg	99
1787.694	1.064	1063.6	study	Phase3	study/STIM_027.jpg	100
1792.626	0.783	783.1	study	Phase3	study/STIM_027.jpg	100
1797.252	0.914	914.2	study	Phase3	study/STIM_027.jpg	99
1800.903	1.298	1298.1	study	Phase3	study/STIM_028.jpg	100
1806.046	0.909	909.2	study	Phase3	study/STIM_028.jpg	100
1809.881	0.697	696.9	study	Phase3	study/STIM_028.jpg	99
1814.316	0.607	607.1	study	Phase3	study/STIM_029.jpg	99
1818.816	0.779	778.8	study	Phase3	study/STIM_029.jpg	100
1822.251	0.772	771.7	study	Phase3	study/STIM_029.jpg	99
1826.726	0.864	863.9	test	Phase3	test/STIM_000.jpg	100
1830.081	0.756	755.5	test	Phase3	test/STIM_000.jpg	99
1833.093	1.187	1186.6	test	Phase3	test/STIM_000.jpg	100
1837.352	0.959	958.9	test	Phase3	test/STIM_001.jpg	100
1840.561	0.803	803.2	test	Phase3	test/STIM_001.jpg	99
1844.762	1.204	1204.3	test	Phase3	test/STIM_001.jpg	99
1849.384	1.252	1252.1	test	Phase3	test/STIM_002.jpg	99
1853.337	0.798	797.9	test	Phase3	test/STIM_002.jpg	100
1857.061	0.822	822.2	test	Phase3	test/STIM_002.jpg	100
1861.303	0.775	774.6	test	Phase3	test/STIM_003.jpg	100
1864.593	0.92	919.5	test	Phase3	test/STIM_003.jpg	100
1869.155	0.911	910.6	test	Phase3	test/STIM_003.jpg	100
1873.267	0.636	635.9	test	Phase3	test/STIM_004.jpg	99
1877.282	0.81	810.1	test	Phase3	test/STIM_004.jpg	100
1881.076	1.109	1108.7	test	Phase3	test/STIM_004.jpg	100
1884.518	0.746	745.5	test	Phase3	test/STIM_005.jpg	99
1887.899	0.789	789.0	test	Phase3	test/STIM_005.jpg	99
1890.809	1.01	1010.4	test	Phase3	test/STIM_005.jpg	100
1894.589	0.715	715.2	test	Phase3	test/STIM_006.jpg	100
1898.167	0.741	741.0	test	Phase3	test/STIM_006.jpg	100
1901.585	1.279	1278.7	test	Phase3	test/STIM_006.jpg	99
1906.204	1.149	1149.1	test	Phase3	test/STIM_007.jpg	99
1910.397	0.708	707.6	test	Phase3	test/STIM_007.jpg	100
1914.237	1.288	1288.0	test	Phase3	test/STIM_007.jpg	99
1917.567	1.34	1340.3	test	Phase3	test/STIM_008.jpg	99
1922.739	0.732	732.4	test	Phase3	test/STIM_008.jpg	99
1926.388	0.721	721.4	test	Phase3	test/STIM_008.jpg	99
1929.542	0.636	635.9	test	Phase3	test/STIM_009.jpg	99
1932.788	1.318	1317.8	test	Phase3	test/STIM_009.jpg	99
1937.633	0.939	939.4	test	Phase3	test/STIM_009.jpg	100
1942.107	0.964	964.1	test	Phase3	test/STIM_010.jpg	100
1946.256	1.239	1238.8	test	Phase3	test/STIM_010.jpg	99
1950.349	0.799	798.9	test	Phase3	test/STIM_010.jpg	100
1954.662	1.055	1055.1	test	Phase3	test/STIM_011.jpg	100
1958.438	1.263	1262.8	test	Phase3	test/STIM_011.jpg	100
1963.029	0.895	895.2	test	Phase3	test/STIM_011.jpg	100
1967.885	1.045	1045.1	test	Phase3	test/STIM_012.jpg	100
1972.632	1.113	1113.3	test	Phase3	test/STIM_012.jpg	100
1976.591	1.069	1069.2	test	Phase3	test/STIM_012.jpg	100
1981.02	0.829	828.6	test	Phase3	test/STIM_013.jpg	99
1983.906	0.652	652.1	test	Phase3	test/STIM_013.jpg	99
1986.601	0.822	821.5	test	Phase3	test/STIM_013.jpg	99
1990.911	1.052	1052.3	test	Phase3	test/STIM_014.jpg	99
1994.448	0.635	635.2	test	Phase3	test/STIM_014.jpg	100
1999.047	1.299	1298.9	test	Phase3	test/STIM_014.jpg	99
2002.988	1.272	1272.4	test	Phase3	test/STIM_015.jpg	100
2006.603	0.71	709.6	test	Phase3	test/STIM_015.jpg	100
2009.326	0.634	634.3	test	Phase3	test/STIM_015.jpg	99
2013.234	1.034	1033.6	test	Phase3	test/STIM_016.jpg	99
2017.234	0.964	963.5	test	Phase3	test/STIM_016.jpg	99
2021.502	0.859	859.0	test	Phase3	test/STIM_016.jpg	99
2025.768	0.778	777.6	test	Phase3	test/STIM_017.jpg	100
2029.999	1.323	1323.3	test	Phase3	test/STIM_017.jpg	100
2033.733	1.044	1043.9	test	Phase3	test/STIM_017.jpg	99
2037.475	0.873	872.8	test	Phase3	test/STIM_018.jpg	99
2040.421	1.244	1244.2	test	Phase3	test/STIM_018.jpg	100
2044.799	1.162	1161.7	test	Phase3	test/STIM_018.jpg	100
2049.935	1.255	1255.2	test	Phase3	test/STIM_019.jpg	99
2054.531	0.97	969.7	test	Phase3	test/STIM_019.jpg	100
2058.204	0.742	742.2	test	Phase3	test/STIM_019.jpg	100
2062.138	1.205	1204.7	test	Phase3	test/STIM_020.jpg	99
2066.89	1.027	1026.8	test	Phase3	test/STIM_020.jpg	99
2071.491	1.062	1062.5	test	Phase3	test/STIM_020.jpg	99
2075.13	1.332	1331.9	test	Phase3	test/STIM_021.jpg	100
2079.372	1.26	1260.5	test	Phase3	test/STIM_021.jpg	99
2083.556	0.715	715.1	test	Phase3	test/STIM_021.jpg	100
2086.356	1.337	1337.1	test	Phase3	test/STIM_022.jpg	100
2091.557	1.093	1092.6	test	Phase3	test/STIM_022.jpg	99
2095.366	0.801	801.3	test	Phase3	test/STIM_022.jpg	100
2099.23	0.818	817.7	test	Phase3	test/STIM_023.jpg	99
2102.108	0.685	685.3	test	Phase3	test/STIM_023.jpg	100
2104.958	1.226	1226.3	test	Phase3	test/STIM_023.jpg	99
2109.487	0.955	955.2	test	Phase3	test/STIM_024.jpg	100
2113.263	1.093	1093.2	test	Phase3	test/STIM_024.jpg	100
2117.084	0.707	706.9	test	Phase3	test/STIM_024.jpg	100
2121.541	1.203	1203.3	test	Phase3	test/STIM_025.jpg	99
2126.479	0.943	943.0	test	Phase3	test/STIM_025.jpg	100
2131.15	0.983	983.0	test	Phase3	test/STIM_025.jpg	99
2134.603	1.18	1180.2	test	Phase3	test/STIM_026.jpg	100
2138.198	0.812	812.5	test	Phase3	test/STIM_026.jpg	100
2142.079	1.21	1209.7	test	Phase3	test/STIM_026.jpg	99
2146.766	1.29	1290.5	test	Phase3	test/STIM_027.jpg	100
2150.788	0.971	971.4	test	Phase3	test/STIM_027.jpg	100
2153.944	0.906	905.6	test	Phase3	test/STIM_027.jpg	100
2157.886	1.311	1310.8	test	Phase3	test/STIM_028.jpg	99
2161.707	1.132	1132.4	test	Phase3	test/STIM_028.jpg	99
2166.033	0.8	799.7	test	Phase3	test/STIM_028.jpg	99
2169.277	1.089	1088.8	test	Phase3	test/STIM_029.jpg	100
2174.049	1.072	1072.2	test	Phase3	test/STIM_029.jpg	99
2177.298	0.828	828.0	test	Phase3	test/STIM_029.jpg	100
