onset	duration	accuracy_binary	trial_type	learning_stage	stimulus
0.0	0.967	0	study	Phase1	study/STIM_000.jpg
3.661	1.535	1	study	Phase1	study/STIM_000.jpg
8.553	1.102	1	study	Phase1	study/STIM_000.jpg
12.677	0.779	1	study	Phase1	study/STIM_001.jpg
17.394	0.888	0	study	Phase1	study/STIM_001.jpg
21.861	1.419	1	study	Phase1	study/STIM_001.jpg
26.799	1.455	1	study	Phase1	study/STIM_002.jpg
31.207	0.704	1	study	Phase1	study/STIM_002.jpg
35.191	0.883	1	study	Phase1	study/STIM_002.jpg
38.465	1.708	1	study	Phase1	study/STIM_003.jpg
43.521	0.676	1	study	Phase1	study/STIM_003.jpg
47.625	1.394	1	study	Phase1	study/STIM_003.jpg
51.211	1.535	1	study	Phase1	study/STIM_004.jpg
55.449	1.252	1	study	Phase1	study/STIM_004.jpg
60.358	1.049	0	study	Phase1	study/STIM_004.jpg
64.633	0.962	1	study	Phase1	study/STIM_005.jpg
68.024	1.084	1	study	Phase1	study/STIM_005.jpg
72.999	1.391	1	study	Phase1	study/STIM_005.jpg
77.71	1.402	1	study	Phase1	study/STIM_006.jpg
82.302	0.796	1	study	Phase1	study/STIM_006.jpg
85.45	1.408	1	study	Phase1	study/STIM_006.jpg
89.726	0.87	1	study	Phase1	study/STIM_007.jpg
94.069	1.444	1	study	Phase1	study/STIM_007.jpg
98.255	1.123	1	study	Phase1	study/STIM_007.jpg
101.703	0.816	1	study	Phase1	study/STIM_008.jpg
105.941	0.738	1	study	Phase1	study/STIM_008.jpg
108.831	1.224	0	study	Phase1	study/STIM_008.jpg
113.347	1.012	1	study	Phase1	study/STIM_009.jpg
116.882	1.343	1	study	Phase1	study/STIM_009.jpg
121.387	1.027	1	study	Phase1	study/STIM_009.jpg
125.314	0.937	1	study	Phase1	study/STIM_010.jpg
129.193	1.345	0	study	Phase1	study/STIM_010.jpg
133.361	1.161	1	study	Phase1	study/STIM_010.jpg
138.325	1.308	0	study	Phase1	study/STIM_011.jpg
143.046	0.763	1	study	Phase1	study/STIM_011.jpg
146.451	1.128	0	study	Phase1	study/STIM_011.jpg
150.0	0.962	0	study	Phase1	study/STIM_012.jpg
153.793	1.345	0	study	Phase1	study/STIM_012.jpg
157.281	1.465	1	study	Phase1	study/STIM_012.jpg
161.79	1.645	1	study	Phase1	study/STIM_013.jpg
165.924	0.925	1	study	Phase1	study/STIM_013.jpg
170.589	1.423	1	study	Phase1	study/STIM_013.jpg
175.924	0.942	1	study	Phase1	study/STIM_014.jpg
179.85	0.984	1	study	Phase1	study/STIM_014.jpg
184.355	1.228	1	study	Phase1	study/STIM_014.jpg
188.423	1.362	1	study	Phase1	study/STIM_015.jpg
192.392	1.551	1	study	Phase1	study/STIM_015.jpg
197.493	0.972	1	study	Phase1	study/STIM_015.jpg
201.644	1.202	1	study	Phase1	study/STIM_016.jpg
205.408	0.877	1	study	Phase1	study/STIM_016.jpg
208.347	1.257	1	study	Phase1	study/STIM_016.jpg
211.756	1.184	1	study	Phase1	study/STIM_017.jpg
215.905	0.883	1	study	Phase1	study/STIM_017.jpg
219.085	1.226	1	study	Phase1	study/STIM_017.jpg
223.902	0.905	1	study	Phase1	study/STIM_018.jpg
228.202	1.09	1	study	Phase1	study/STIM_018.jpg
232.443	0.712	1	study	Phase1	study/STIM_018.jpg
237.01	0.825	1	study	Phase1	study/STIM_019.jpg
239.915	1.4	1	study	Phase1	study/STIM_019.jpg
243.717	0.891	1	study	Phase1	study/STIM_019.jpg
247.74	1.641	1	study	Phase1	study/STIM_020.jpg
253.416	0.806	1	study	Phase1	study/STIM_020.jpg
256.995	1.246	1	study	Phase1	study/STIM_020.jpg
262.096	1.206	1	study	Phase1	study/STIM_021.jpg
267.023	0.825	1	study	Phase1	study/STIM_021.jpg
271.439	0.78	1	study	Phase1	study/STIM_021.jpg
274.529	1.425	1	study	Phase1	study/STIM_022.jpg
278.206	1.184	1	study	Phase1	study/STIM_022.jpg
281.884	0.922	1	study	Phase1	study/STIM_022.jpg
285.513	0.874	1	study	Phase1	study/STIM_023.jpg
288.65	1.289	1	study	Phase1	study/STIM_023.jpg
293.419	1.119	0	study	Phase1	study/STIM_023.jpg
297.077	1.103	1	study	Phase1	study/STIM_024.jpg
301.958	1.264	1	study	Phase1	study/STIM_024.jpg
306.417	0.853	1	study	Phase1	study/STIM_024.jpg
309.842	0.985	1	study	Phase1	study/STIM_025.jpg
313.96	1.248	1	study	Phase1	study/STIM_025.jpg
318.016	0.674	0	study	Phase1	study/STIM_025.jpg
321.759	1.348	1	study	Phase1	study/STIM_026.jpg
326.959	1.434	1	study	Phase1	study/STIM_026.jpg
331.478	1.505	1	study	Phase1	study/STIM_026.jpg
336.368	1.317	1	study	Phase1	study/STIM_027.jpg
339.977	1.524	1	study	Phase1	study/STIM_027.jpg
343.896	0.847	1	study	Phase1	study/STIM_027.jpg
348.145	1.427	1	study	Phase1	study/STIM_028.jpg
352.999	0.808	1	study	Phase1	study/STIM_028.jpg
356.441	1.131	0	study	Phase1	study/STIM_028.jpg
361.401	1.553	1	study	Phase1	study/STIM_029.jpg
366.341	1.546	1	study	Phase1	study/STIM_029.jpg
370.744	1.301	1	study	Phase1	study/STIM_029.jpg
374.874	0.764	1	test	Phase1	test/STIM_000.jpg
378.471	0.782	1	test	Phase1	test/STIM_000.jpg
381.94	0.835	1	test	Phase1	test/STIM_000.jpg
386.297	0.72	1	test	Phase1	test/STIM_001.jpg
389.282	1.192	1	test	Phase1	test/STIM_001.jpg
394.556	0.546	1	test	Phase1	test/STIM_001.jpg
398.273	1.06	1	test	Phase1	test/STIM_002.jpg
401.657	1.15	1	test	Phase1	test/STIM_002.jpg
405.436	0.53	1	test	Phase1	test/STIM_002.jpg
408.438	0.786	1	test	Phase1	test/STIM_003.jpg
412.62	0.638	1	test	Phase1	test/STIM_003.jpg
415.951	1.02	1	test	Phase1	test/STIM_003.jpg
420.103	0.937	1	test	Phase1	test/STIM_004.jpg
425.029	0.893	1	test	Phase1	test/STIM_004.jpg
429.669	0.62	1	test	Phase1	test/STIM_004.jpg
433.492	0.606	1	test	Phase1	test/STIM_005.jpg
438.01	0.63	0	test	Phase1	test/STIM_005.jpg
441.327	1.058	1	test	Phase1	test/STIM_005.jpg
446.08	0.66	1	test	Phase1	test/STIM_006.jpg
449.008	0.615	1	test	Phase1	test/STIM_006.jpg
452.856	0.75	1	test	Phase1	test/STIM_006.jpg
455.825	0.633	1	test	Phase1	test/STIM_007.jpg
459.925	1.097	1	test	Phase1	test/STIM_007.jpg
463.633	1.031	1	test	Phase1	test/STIM_007.jpg
467.287	1.057	1	test	Phase1	test/STIM_008.jpg
471.121	0.745	1	test	Phase1	test/STIM_008.jpg
474.876	1.036	1	test	Phase1	test/STIM_008.jpg
478.503	0.814	1	test	Phase1	test/STIM_009.jpg
482.905	0.766	1	test	Phase1	test/STIM_009.jpg
487.506	0.676	1	test	Phase1	test/STIM_009.jpg
491.55	0.723	1	test	Phase1	test/STIM_010.jpg
494.398	0.939	0	test	Phase1	test/STIM_010.jpg
498.734	0.722	1	test	Phase1	test/STIM_010.jpg
502.526	0.565	1	test	Phase1	test/STIM_011.jpg
505.209	0.685	1	test	Phase1	test/STIM_011.jpg
509.975	0.648	1	test	Phase1	test/STIM_011.jpg
513.26	0.688	1	test	Phase1	test/STIM_012.jpg
517.768	0.577	1	test	Phase1	test/STIM_012.jpg
521.523	0.815	1	test	Phase1	test/STIM_012.jpg
526.207	0.833	1	test	Phase1	test/STIM_013.jpg
529.291	0.999	1	test	Phase1	test/STIM_013.jpg
533.563	1.236	1	test	Phase1	test/STIM_013.jpg
537.096	1.106	0	test	Phase1	test/STIM_014.jpg
540.443	1.031	1	test	Phase1	test/STIM_014.jpg
544.468	1.04	1	test	Phase1	test/STIM_014.jpg
548.97	0.777	1	test	Phase1	test/STIM_015.jpg
552.384	1.141	1	test	Phase1	test/STIM_015.jpg
556.843	0.684	1	test	Phase1	test/STIM_015.jpg
560.225	0.583	1	test	Phase1	test/STIM_016.jpg
564.1	1.021	1	test	Phase1	test/STIM_016.jpg
567.327	0.789	0	test	Phase1	test/STIM_016.jpg
572.148	0.766	0	test	Phase1	test/STIM_017.jpg
575.442	1.122	1	test	Phase1	test/STIM_017.jpg
578.946	1.035	0	test	Phase1	test/STIM_017.jpg
582.922	1.026	1	test	Phase1	test/STIM_018.jpg
587.555	0.876	1	test	Phase1	test/STIM_018.jpg
590.962	0.783	1	test	Phase1	test/STIM_018.jpg
594.46	1.131	0	test	Phase1	test/STIM_019.jpg
598.94	1.188	1	test	Phase1	test/STIM_019.jpg
603.721	0.643	1	test	Phase1	test/STIM_019.jpg
607.17	0.549	1	test	Phase1	test/STIM_020.jpg
609.974	0.821	0	test	Phase1	test/STIM_020.jpg
614.214	0.874	1	test	Phase1	test/STIM_020.jpg
618.675	0.825	1	test	Phase1	test/STIM_021.jpg
623.37	0.66	1	test	Phase1	test/STIM_021.jpg
627.523	0.646	1	test	Phase1	test/STIM_021.jpg
631.555	0.896	1	test	Phase1	test/STIM_022.jpg
635.167	0.887	1	test	Phase1	test/STIM_022.jpg
640.0	0.9	1	test	Phase1	test/STIM_022.jpg
644.114	0.672	1	test	Phase1	test/STIM_023.jpg
648.756	0.57	1	test	Phase1	test/STIM_023.jpg
653.159	0.572	1	test	Phase1	test/STIM_023.jpg
656.24	0.839	1	test	Phase1	test/STIM_024.jpg
660.241	0.863	1	test	Phase1	test/STIM_024.jpg
663.449	0.949	1	test	Phase1	test/STIM_024.jpg
668.379	0.585	0	test	Phase1	test/STIM_025.jpg
671.594	0.866	1	test	Phase1	test/STIM_025.jpg
675.458	1.1	1	test	Phase1	test/STIM_025.jpg
680.454	0.52	1	test	Phase1	test/STIM_026.jpg
683.933	0.985	1	test	Phase1	test/STIM_026.jpg
688.185	0.799	0	test	Phase1	test/STIM_026.jpg
692.73	0.976	1	test	Phase1	test/STIM_027.jpg
696.079	0.729	1	test	Phase1	test/STIM_027.jpg
698.97	1.048	1	test	Phase1	test/STIM_027.jpg
702.425	0.892	1	test	Phase1	test/STIM_028.jpg
707.071	1.118	1	test	Phase1	test/STIM_028.jpg
712.096	0.854	1	test	Phase1	test/STIM_028.jpg
716.297	0.934	1	test	Phase1	test/STIM_029.jpg
721.026	1.176	0	test	Phase1	test/STIM_029.jpg
724.948	0.475	1	test	Phase1	test/STIM_029.jpg
728.6	1.073	0	study	Phase2	study/STIM_000.jpg
733.27	0.943	1	study	Phase2	study/STIM_000.jpg
738.249	0.744	0	study	Phase2	study/STIM_000.jpg
741.878	0.98	1	study	Phase2	study/STIM_001.jpg
745.467	1.277	1	study	Phase2	study/STIM_001.jpg
750.59	1.148	1	study	Phase2	study/STIM_001.jpg
754.365	0.906	1	study	Phase2	study/STIM_002.jpg
758.239	0.834	1	study	Phase2	study/STIM_002.jpg
763.033	0.873	1	study	Phase2	study/STIM_002.jpg
767.597	0.731	1	study	Phase2	study/STIM_003.jpg
770.733	1.256	0	study	Phase2	study/STIM_003.jpg
775.013	0.906	1	study	Phase2	study/STIM_003.jpg
778.11	1.124	1	study	Phase2	study/STIM_004.jpg
783.085	0.822	1	study	Phase2	study/STIM_004.jpg
787.045	1.022	1	study	Phase2	study/STIM_004.jpg
791.006	1.258	1	study	Phase2	study/STIM_005.jpg
794.892	0.64	1	study	Phase2	study/STIM_005.jpg
798.946	0.787	1	study	Phase2	study/STIM_005.jpg
801.995	0.959	1	study	Phase2	study/STIM_006.jpg
806.931	0.858	1	study	Phase2	study/STIM_006.jpg
811.257	1.172	1	study	Phase2	study/STIM_006.jpg
815.74	0.732	0	study	Phase2	study/STIM_007.jpg
819.824	0.991	1	study	Phase2	study/STIM_007.jpg
824.313	0.735	1	study	Phase2	study/STIM_007.jpg
827.472	1.056	0	study	Phase2	study/STIM_008.jpg
831.607	1.203	1	study	Phase2	study/STIM_008.jpg
835.56	0.698	1	study	Phase2	study/STIM_008.jpg
839.977	0.937	1	study	Phase2	study/STIM_009.jpg
844.767	1.387	1	study	Phase2	study/STIM_009.jpg
849.187	0.948	1	study	Phase2	study/STIM_009.jpg
852.882	1.031	1	study	Phase2	study/STIM_010.jpg
857.925	1.065	1	study	Phase2	study/STIM_010.jpg
861.629	0.82	1	study	Phase2	study/STIM_010.jpg
866.423	0.901	0	study	Phase2	study/STIM_011.jpg
871.093	0.753	1	study	Phase2	study/STIM_011.jpg
874.55	0.674	1	study	Phase2	study/STIM_011.jpg
877.747	0.914	1	study	Phase2	study/STIM_012.jpg
882.181	0.877	1	study	Phase2	study/STIM_012.jpg
886.877	1.014	1	study	Phase2	study/STIM_012.jpg
891.705	1.324	1	study	Phase2	study/STIM_013.jpg
896.819	0.98	1	study	Phase2	study/STIM_013.jpg
901.424	0.635	1	study	Phase2	study/STIM_013.jpg
904.757	1.166	1	study	Phase2	study/STIM_014.jpg
908.575	1.219	1	study	Phase2	study/STIM_014.jpg
913.411	1.055	1	study	Phase2	study/STIM_014.jpg
916.903	0.816	1	study	Phase2	study/STIM_015.jpg
921.461	1.009	1	study	Phase2	study/STIM_015.jpg
925.093	1.092	1	study	Phase2	study/STIM_015.jpg
929.735	0.924	1	study	Phase2	study/STIM_016.jpg
933.578	0.718	1	study	Phase2	study/STIM_016.jpg
937.738	1.159	1	study	Phase2	study/STIM_016.jpg
941.346	1.02	1	study	Phase2	study/STIM_017.jpg
945.941	1.079	1	study	Phase2	study/STIM_017.jpg
949.856	0.983	1	study	Phase2	study/STIM_017.jpg
953.26	1.317	1	study	Phase2	study/STIM_018.jpg
958.245	0.888	1	study	Phase2	study/STIM_018.jpg
963.066	0.739	1	study	Phase2	study/STIM_018.jpg
966.985	0.842	1	study	Phase2	study/STIM_019.jpg
970.592	0.823	1	study	Phase2	study/STIM_019.jpg
974.226	0.832	1	study	Phase2	study/STIM_019.jpg
977.319	1.382	1	study	Phase2	study/STIM_020.jpg
982.052	0.967	0	study	Phase2	study/STIM_020.jpg
985.438	0.959	1	study	Phase2	study/STIM_020.jpg
990.124	1.156	0	study	Phase2	study/STIM_021.jpg
995.247	0.724	1	study	Phase2	study/STIM_021.jpg
999.052	0.828	1	study	Phase2	study/STIM_021.jpg
1002.125	0.971	1	study	Phase2	study/STIM_022.jpg
1006.649	0.725	1	study	Phase2	study/STIM_022.jpg
1010.901	1.138	0	study	Phase2	study/STIM_022.jpg
1015.338	0.978	1	study	Phase2	study/STIM_023.jpg
1019.977	1.038	1	study	Phase2	study/STIM_023.jpg
1023.852	0.776	1	study	Phase2	study/STIM_023.jpg
1028.524	0.526	1	study	Phase2	study/STIM_024.jpg
1032.359	0.844	0	study	Phase2	study/STIM_024.jpg
1035.563	1.134	1	study	Phase2	study/STIM_024.jpg
1039.489	0.655	1	study	Phase2	study/STIM_025.jpg
1043.815	1.004	1	study	Phase2	study/STIM_025.jpg
1047.042	1.152	1	study	Phase2	study/STIM_025.jpg
1051.866	0.953	1	study	Phase2	study/STIM_026.jpg
1055.967	0.684	1	study	Phase2	study/STIM_026.jpg
1058.785	1.049	1	study	Phase2	study/STIM_026.jpg
1063.682	1.332	1	study	Phase2	study/STIM_027.jpg
1068.067	0.816	1	study	Phase2	study/STIM_027.jpg
1072.204	0.769	1	study	Phase2	study/STIM_027.jpg
1075.787	1.205	1	study	Phase2	study/STIM_028.jpg
1080.91	0.67	1	study	Phase2	study/STIM_028.jpg
1083.757	0.903	1	study	Phase2	study/STIM_028.jpg
1088.255	0.861	1	study	Phase2	study/STIM_029.jpg
1091.922	0.754	1	study	Phase2	study/STIM_029.jpg
1096.525	0.855	1	study	Phase2	study/STIM_029.jpg
1100.408	0.617	1	test	Phase2	test/STIM_000.jpg
1103.632	0.99	1	test	Phase2	test/STIM_000.jpg
1108.055	0.9	1	test	Phase2	test/STIM_000.jpg
1112.986	1.147	1	test	Phase2	test/STIM_001.jpg
1116.679	0.922	1	test	Phase2	test/STIM_001.jpg
1121.143	0.66	1	test	Phase2	test/STIM_001.jpg
1124.803	0.746	0	test	Phase2	test/STIM_002.jpg
1129.405	1.158	1	test	Phase2	test/STIM_002.jpg
1134.003	1.094	1	test	Phase2	test/STIM_002.jpg
1138.877	1.142	1	test	Phase2	test/STIM_003.jpg
1143.059	0.891	1	test	Phase2	test/STIM_003.jpg
1146.997	1.022	0	test	Phase2	test/STIM_003.jpg
1150.532	1.013	1	test	Phase2	test/STIM_004.jpg
1155.618	1.097	1	test	Phase2	test/STIM_004.jpg
1160.333	0.992	1	test	Phase2	test/STIM_004.jpg
1164.65	0.572	1	test	Phase2	test/STIM_005.jpg
1168.886	0.865	1	test	Phase2	test/STIM_005.jpg
1172.496	0.834	1	test	Phase2	test/STIM_005.jpg
1176.611	0.741	1	test	Phase2	test/STIM_006.jpg
1180.445	1.064	1	test	Phase2	test/STIM_006.jpg
1185.441	1.029	1	test	Phase2	test/STIM_006.jpg
1189.373	1.262	1	test	Phase2	test/STIM_007.jpg
1193.793	1.018	1	test	Phase2	test/STIM_007.jpg
1197.499	0.767	1	test	Phase2	test/STIM_007.jpg
1201.79	0.635	1	test	Phase2	test/STIM_008.jpg
1205.484	0.956	1	test	Phase2	test/STIM_008.jpg
1209.983	0.74	1	test	Phase2	test/STIM_008.jpg
1213.402	0.762	1	test	Phase2	test/STIM_009.jpg
1217.907	0.59	1	test	Phase2	test/STIM_009.jpg
1221.194	0.534	1	test	Phase2	test/STIM_009.jpg
1223.975	1.174	1	test	Phase2	test/STIM_010.jpg
1229.223	0.853	1	test	Phase2	test/STIM_010.jpg
1232.677	0.846	1	test	Phase2	test/STIM_010.jpg
1236.975	0.691	1	test	Phase2	test/STIM_011.jpg
1241.554	0.82	1	test	Phase2	test/STIM_011.jpg
1245.723	0.869	1	test	Phase2	test/STIM_011.jpg
1249.024	0.839	1	test	Phase2	test/STIM_012.jpg
1252.153	0.75	1	test	Phase2	test/STIM_012.jpg
1256.16	1.119	1	test	Phase2	test/STIM_012.jpg
1260.622	0.673	1	test	Phase2	test/STIM_013.jpg
1264.665	1.164	1	test	Phase2	test/STIM_013.jpg
1269.194	0.936	1	test	Phase2	test/STIM_013.jpg
1273.142	1.128	0	test	Phase2	test/STIM_014.jpg
1277.367	0.971	1	test	Phase2	test/STIM_014.jpg
1281.161	0.792	1	test	Phase2	test/STIM_014.jpg
1284.088	1.266	0	test	Phase2	test/STIM_015.jpg
1287.852	0.601	1	test	Phase2	test/STIM_015.jpg
1292.022	0.632	1	test	Phase2	test/STIM_015.jpg
1295.382	0.953	1	test	Phase2	test/STIM_016.jpg
1300.052	0.882	1	test	Phase2	test/STIM_016.jpg
1304.553	1.09	1	test	Phase2	test/STIM_016.jpg
1309.122	1.018	1	test	Phase2	test/STIM_017.jpg
1314.142	1.076	1	test	Phase2	test/STIM_017.jpg
1318.945	1.197	1	test	Phase2	test/STIM_017.jpg
1323.372	0.574	1	test	Phase2	test/STIM_018.jpg
1327.006	0.801	1	test	Phase2	test/STIM_018.jpg
1330.502	0.812	1	test	Phase2	test/STIM_018.jpg
1334.535	0.722	1	test	Phase2	test/STIM_019.jpg
1339.048	0.929	1	test	Phase2	test/STIM_019.jpg
1343.385	1.122	1	test	Phase2	test/STIM_019.jpg
1348.31	0.592	1	test	Phase2	test/STIM_020.jpg
1351.761	0.969	1	test	Phase2	test/STIM_020.jpg
1355.857	1.102	1	test	Phase2	test/STIM_020.jpg
1359.767	1.219	1	test	Phase2	test/STIM_021.jpg
1364.002	1.017	1	test	Phase2	test/STIM_021.jpg
1367.683	1.087	1	test	Phase2	test/STIM_021.jpg
1372.82	0.698	1	test	Phase2	test/STIM_022.jpg
1375.645	0.583	1	test	Phase2	test/STIM_022.jpg
1378.771	0.563	1	test	Phase2	test/STIM_022.jpg
1383.146	1.147	1	test	Phase2	test/STIM_023.jpg
1387.018	0.885	1	test	Phase2	test/STIM_023.jpg
1390.1	1.096	1	test	Phase2	test/STIM_023.jpg
1394.221	0.582	1	test	Phase2	test/STIM_024.jpg
1398.056	0.906	1	test	Phase2	test/STIM_024.jpg
1401.194	0.686	1	test	Phase2	test/STIM_024.jpg
1405.141	0.792	1	test	Phase2	test/STIM_025.jpg
1408.463	0.692	1	test	Phase2	test/STIM_025.jpg
1412.168	1.047	0	test	Phase2	test/STIM_025.jpg
1415.975	0.684	1	test	Phase2	test/STIM_026.jpg
1420.329	0.852	1	test	Phase2	test/STIM_026.jpg
1423.754	0.686	1	test	Phase2	test/STIM_026.jpg
1426.804	0.842	0	test	Phase2	test/STIM_027.jpg
1430.279	0.788	1	test	Phase2	test/STIM_027.jpg
1433.616	0.597	1	test	Phase2	test/STIM_027.jpg
1438.269	1.038	0	test	Phase2	test/STIM_028.jpg
1442.929	0.647	0	test	Phase2	test/STIM_028.jpg
1446.367	0.602	1	test	Phase2	test/STIM_028.jpg
1449.905	1.165	1	test	Phase2	test/STIM_029.jpg
1455.154	0.975	1	test	Phase2	test/STIM_029.jpg
1459.849	0.883	0	test	Phase2	test/STIM_029.jpg
1463.839	0.808	1	study	Phase3	study/STIM_000.jpg
1468.205	0.587	1	study	Phase3	study/STIM_000.jpg
1471.136	1.097	1	study	Phase3	study/STIM_000.jpg
1476.18	0.832	1	study	Phase3	study/STIM_001.jpg
1480.943	1.087	1	study	Phase3	study/STIM_001.jpg
1484.411	1.082	1	study	Phase3	study/STIM_001.jpg
1488.411	0.788	1	study	Phase3	study/STIM_002.jpg
1492.499	0.645	1	study	Phase3	study/STIM_002.jpg
1495.307	0.952	1	study	Phase3	study/STIM_002.jpg
1499.912	0.695	1	study	Phase3	study/STIM_003.jpg
1504.217	0.549	1	study	Phase3	study/STIM_003.jpg
1507.591	0.541	1	study	Phase3	study/STIM_003.jpg
1511.479	0.942	1	study	Phase3	study/STIM_004.jpg
1516.38	0.704	1	study	Phase3	study/STIM_004.jpg
1519.72	0.953	1	study	Phase3	study/STIM_004.jpg
1522.933	1.1	1	study	Phase3	study/STIM_005.jpg
1527.089	0.712	1	study	Phase3	study/STIM_005.jpg
1530.19	0.89	1	study	Phase3	study/STIM_005.jpg
1534.234	0.613	1	study	Phase3	study/STIM_006.jpg
1538.16	0.551	1	study	Phase3	study/STIM_006.jpg
1542.192	0.657	1	study	Phase3	study/STIM_006.jpg
1545.238	0.786	1	study	Phase3	study/STIM_007.jpg
1548.19	1.184	1	study	Phase3	study/STIM_007.jpg
1551.703	1.022	1	study	Phase3	study/STIM_007.jpg
1555.571	0.586	1	study	Phase3	study/STIM_008.jpg
1558.337	0.946	1	study	Phase3	study/STIM_008.jpg
1561.966	0.868	1	study	Phase3	study/STIM_008.jpg
1566.258	1.01	0	study	Phase3	study/STIM_009.jpg
1571.26	0.924	1	study	Phase3	study/STIM_009.jpg
1576.139	0.677	1	study	Phase3	study/STIM_009.jpg
1580.125	1.134	1	study	Phase3	study/STIM_010.jpg
1584.082	0.548	1	study	Phase3	study/STIM_010.jpg
1587.208	1.182	1	study	Phase3	study/STIM_010.jpg
1591.083	0.999	1	study	Phase3	study/STIM_011.jpg
1594.539	1.002	1	study	Phase3	study/STIM_011.jpg
1598.167	0.966	1	study	Phase3	study/STIM_011.jpg
1601.481	0.896	1	study	Phase3	study/STIM_012.jpg
1605.271	1.052	1	study	Phase3	study/STIM_012.jpg
1609.81	0.54	1	study	Phase3	study/STIM_012.jpg
1613.602	0.93	1	study	Phase3	study/STIM_013.jpg
1618.07	1.115	1	study	Phase3	study/STIM_013.jpg
1621.544	0.954	1	study	Phase3	study/STIM_013.jpg
1626.253	0.927	1	study	Phase3	study/STIM_014.jpg
1630.371	0.967	1	study	Phase3	study/STIM_014.jpg
1634.46	0.717	1	study	Phase3	study/STIM_014.jpg
1638.209	0.654	1	study	Phase3	study/STIM_015.jpg
1642.638	0.978	1	study	Phase3	study/STIM_015.jpg
1645.768	0.824	1	study	Phase3	study/STIM_015.jpg
1650.132	0.529	1	study	Phase3	study/STIM_016.jpg
1653.807	0.652	1	study	Phase3	study/STIM_016.jpg
1658.454	0.721	1	study	Phase3	study/STIM_016.jpg
1661.685	1.104	1	study	Phase3	study/STIM_017.jpg
1665.224	0.713	1	study	Phase3	study/STIM_017.jpg
1668.396	0.926	1	study	Phase3	study/STIM_017.jpg
1672.465	0.966	1	study	Phase3	study/STIM_018.jpg
1675.679	0.715	1	study	Phase3	study/STIM_018.jpg
1678.844	0.828	1	study	Phase3	study/STIM_018.jpg
1682.454	1.063	1	study	Phase3	study/STIM_019.jpg
1685.674	0.767	1	study	Phase3	study/STIM_019.jpg
1689.742	1.098	1	study	Phase3	study/STIM_019.jpg
1694.334	0.786	1	study	Phase3	study/STIM_020.jpg
1699.047	0.672	1	study	Phase3	study/STIM_020.jpg
1702.199	0.54	1	study	Phase3	study/STIM_020.jpg
1706.018	0.993	1	study	Phase3	study/STIM_021.jpg
1710.593	0.715	1	study	Phase3	study/STIM_021.jpg
1715.068	0.907	1	study	Phase3	study/STIM_021.jpg
1719.059	0.604	1	study	Phase3	study/STIM_022.jpg
1721.954	1.085	1	study	Phase3	study/STIM_022.jpg
1725.965	0.685	1	study	Phase3	study/STIM_022.jpg
1730.111	0.62	1	study	Phase3	study/STIM_023.jpg
1734.548	0.976	1	study	Phase3	study/STIM_023.jpg
1738.442	1.065	1	study	Phase3	study/STIM_023.jpg
1743.093	0.986	0	study	Phase3	study/STIM_024.jpg
1747.543	1.102	1	study	Phase3	study/STIM_024.jpg
1751.179	1.23	1	study	Phase3	study/STIM_024.jpg
1754.94	0.997	1	study	Phase3	study/STIM_025.jpg
1759.234	0.572	1	study	Phase3	study/STIM_025.jpg
1763.366	0.784	1	study	Phase3	study/STIM_025.jpg
1768.032	1.05	1	study	Phase3	study/STIM_026.jpg
1771.726	1.127	1	study	Phase3	study/STIM_026.jpg
1774.997	1.089	1	study	Phase3	study/STIM_026.jpg
1779.446	0.681	1	study	Phase3	study/STIM_027.jpg
1782.979	0.82	1	study	Phase3	study/STIM_027.jpg
1785.832	0.613	1	study	Phase3	study/STIM_027.jpg
1788.558	0.497	1	study	Phase3	study/STIM_028.jpg
1792.196	0.618	1	study	Phase3	study/STIM_028.jpg
1795.435	1.136	1	study	Phase3	study/STIM_028.jpg
1800.249	1.124	1	study	Phase3	study/STIM_029.jpg
1804.187	1.059	1	study	Phase3	study/STIM_029.jpg
1808.181	0.842	1	study	Phase3	study/STIM_029.jpg
1812.854	0.744	1	test	Phase3	test/STIM_000.jpg
1816.694	1.136	1	test	Phase3	test/STIM_000.jpg
1820.273	0.592	1	test	Phase3	test/STIM_000.jpg
1824.278	1.043	1	test	Phase3	test/STIM_001.jpg
1828.912	0.68	1	test	Phase3	test/STIM_001.jpg
1831.651	1.003	1	test	Phase3	test/STIM_001.jpg
1835.079	0.641	1	test	Phase3	test/STIM_002.jpg
1838.668	0.864	1	test	Phase3	test/STIM_002.jpg
1841.854	1.205	1	test	Phase3	test/STIM_002.jpg
1845.915	0.849	1	test	Phase3	test/STIM_003.jpg
1849.206	0.543	0	test	Phase3	test/STIM_003.jpg
1852.923	0.651	1	test	Phase3	test/STIM_003.jpg
1857.055	0.738	1	test	Phase3	test/STIM_004.jpg
1861.244	0.964	1	test	Phase3	test/STIM_004.jpg
1865.998	0.631	1	test	Phase3	test/STIM_004.jpg
1870.047	0.718	1	test	Phase3	test/STIM_005.jpg
1873.838	0.69	1	test	Phase3	test/STIM_005.jpg
1878.058	0.827	1	test	Phase3	test/STIM_005.jpg
1881.106	0.856	1	test	Phase3	test/STIM_006.jpg
1884.63	0.578	1	test	Phase3	test/STIM_006.jpg
1888.791	1.122	1	test	Phase3	test/STIM_006.jpg
1892.152	0.583	1	test	Phase3	test/STIM_007.jpg
1896.567	0.946	1	test	Phase3	test/STIM_007.jpg
1899.725	0.69	1	test	Phase3	test/STIM_007.jpg
1904.399	0.97	1	test	Phase3	test/STIM_008.jpg
1908.937	0.63	1	test	Phase3	test/STIM_008.jpg
1913.135	0.686	1	test	Phase3	test/STIM_008.jpg
1916.219	1.045	1	test	Phase3	test/STIM_009.jpg
1919.989	1.011	1	test	Phase3	test/STIM_009.jpg
1924.56	0.686	1	test	Phase3	test/STIM_009.jpg
1928.583	0.755	1	test	Phase3	test/STIM_010.jpg
1931.592	0.598	1	test	Phase3	test/STIM_010.jpg
1934.939	0.664	1	test	Phase3	test/STIM_010.jpg
1939.407	0.733	1	test	Phase3	test/STIM_011.jpg
1944.185	0.836	1	test	Phase3	test/STIM_011.jpg
1947.238	0.824	1	test	Phase3	test/STIM_011.jpg
1951.934	0.931	0	test	Phase3	test/STIM_012.jpg
1956.409	0.525	1	test	Phase3	test/STIM_012.jpg
1959.165	0.645	1	test	Phase3	test/STIM_012.jpg
1962.638	0.608	1	test	Phase3	test/STIM_013.jpg
1967.33	0.946	1	test	Phase3	test/STIM_013.jpg
1972.142	0.624	1	test	Phase3	test/STIM_013.jpg
1975.743	1.011	1	test	Phase3	test/STIM_014.jpg
1980.086	0.955	0	test	Phase3	test/STIM_014.jpg
1983.476	1.184	1	test	Phase3	test/STIM_014.jpg
1988.202	0.937	1	test	Phase3	test/STIM_015.jpg
1992.382	0.68	1	test	Phase3	test/STIM_015.jpg
1995.254	0.885	1	test	Phase3	test/STIM_015.jpg
1998.461	0.695	1	test	Phase3	test/STIM_016.jpg
2001.838	0.768	1	test	Phase3	test/STIM_016.jpg
2006.348	1.089	1	test	Phase3	test/STIM_016.jpg
2010.958	0.942	1	test	Phase3	test/STIM_017.jpg
2014.678	0.621	0	test	Phase3	test/STIM_017.jpg
2018.652	0.668	1	test	Phase3	test/STIM_017.jpg
2023.347	0.878	1	test	Phase3	test/STIM_018.jpg
2027.62	0.737	0	test	Phase3	test/STIM_018.jpg
2032.147	1.172	1	test	Phase3	test/STIM_018.jpg
2036.628	0.811	1	test	Phase3	test/STIM_019.jpg
2040.918	0.71	1	test	Phase3	test/STIM_019.jpg
2044.763	0.801	1	test	Phase3	test/STIM_019.jpg
2049.531	1.081	1	test	Phase3	test/STIM_020.jpg
2052.856	0.652	0	test	Phase3	test/STIM_020.jpg
2055.604	0.846	1	test	Phase3	test/STIM_020.jpg
2058.975	0.533	1	test	Phase3	test/STIM_021.jpg
2062.999	0.814	0	test	Phase3	test/STIM_021.jpg
2066.052	0.882	1	test	Phase3	test/STIM_021.jpg
2070.253	0.798	1	test	Phase3	test/STIM_022.jpg
2073.922	1.044	0	test	Phase3	test/STIM_022.jpg
2077.914	0.737	1	test	Phase3	test/STIM_022.jpg
2082.114	0.987	1	test	Phase3	test/STIM_023.jpg
2085.584	0.548	1	test	Phase3	test/STIM_023.jpg
2088.687	1.101	1	test	Phase3	test/STIM_023.jpg
2093.218	1.061	1	test	Phase3	test/STIM_024.jpg
2097.68	0.728	1	test	Phase3	test/STIM_024.jpg
2101.129	0.932	1	test	Phase3	test/STIM_024.jpg
2104.992	0.647	1	test	Phase3	test/STIM_025.jpg
2109.141	0.853	1	test	Phase3	test/STIM_025.jpg
2112.132	1.05	1	test	Phase3	test/STIM_025.jpg
2115.44	0.928	1	test	Phase3	test/STIM_026.jpg
2119.309	0.865	1	test	Phase3	test/STIM_026.jpg
2124.192	0.656	1	test	Phase3	test/STIM_026.jpg
2128.636	0.946	1	test	Phase3	test/STIM_027.jpg
2131.577	0.885	1	test	Phase3	test/STIM_027.jpg
2134.72	0.489	1	test	Phase3	test/STIM_027.jpg
2139.039	1.13	1	test	Phase3	test/STIM_028.jpg
2143.563	1.003	1	test	Phase3	test/STIM_028.jpg
2148.48	0.852	1	test	Phase3	test/STIM_028.jpg
2151.756	1.029	1	test	Phase3	test/STIM_029.jpg
2156.041	1.285	0	test	Phase3	test/STIM_029.jpg
2159.688	1.235	1	test	Phase3	test/STIM_029.jpg
