onset	duration	accuracy	trial_type	learning_stage	stimulus
0.0	2.342	correct	navigation	Trial1	navigation/STIM_000.jpg
5.694	4.38	incorrect	navigation	Trial1	navigation/STIM_000.jpg
12.38	2.256	incorrect	navigation	Trial1	navigation/STIM_000.jpg
18.272	1.973	correct	navigation	Trial1	navigation/STIM_000.jpg
24.119	2.707	correct	navigation	Trial1	navigation/STIM_000.jpg
29.255	1.666	incorrect	navigation	Trial1	navigation/STIM_000.jpg
34.442	2.746	incorrect	navigation	Trial1	navigation/STIM_001.jpg
39.711	4.471	correct	navigation	Trial1	navigation/STIM_001.jpg
47.801	3.877	correct	navigation	Trial1	navigation/STIM_001.jpg
55.142	3.213	incorrect	navigation	Trial1	navigation/STIM_001.jpg
60.486	2.944	incorrect	navigation	Trial1	navigation/STIM_001.jpg
65.449	3.849	correct	navigation	Trial1	navigation/STIM_001.jpg
72.278	5.173	correct	navigation	Trial1	navigation/STIM_002.jpg
79.374	2.01	correct	navigation	Trial1	navigation/STIM_002.jpg
83.976	4.587	correct	navigation	Trial1	navigation/STIM_002.jpg
91.482	2.265	correct	navigation	Trial1	navigation/STIM_002.jpg
96.186	2.124	correct	navigation	Trial1	navigation/STIM_002.jpg
101.467	2.887	correct	navigation	Trial1	navigation/STIM_002.jpg
107.646	3.562	incorrect	navigation	Trial1	navigation/STIM_003.jpg
114.679	3.812	correct	navigation	Trial1	navigation/STIM_003.jpg
120.984	2.046	correct	navigation	Trial1	navigation/STIM_003.jpg
126.077	4.427	correct	navigation	Trial1	navigation/STIM_003.jpg
134.052	2.738	incorrect	navigation	Trial1	navigation/STIM_003.jpg
139.195	3.499	incorrect	navigation	Trial1	navigation/STIM_003.jpg
144.551	3.886	correct	navigation	Trial1	navigation/STIM_004.jpg
151.636	3.299	correct	navigation	Trial1	navigation/STIM_004.jpg
157.592	4.1	correct	navigation	Trial1	navigation/STIM_004.jpg
165.221	4.184	correct	navigation	Trial1	navigation/STIM_004.jpg
173.17	3.896	correct	navigation	Trial1	navigation/STIM_004.jpg
179.171	3.767	correct	navigation	Trial1	navigation/STIM_004.jpg
186.482	5.11	incorrect	navigation	Trial1	navigation/STIM_005.jpg
193.799	2.427	correct	navigation	Trial1	navigation/STIM_005.jpg
198.919	1.938	correct	navigation	Trial1	navigation/STIM_005.jpg
204.769	4.412	incorrect	navigation	Trial1	navigation/STIM_005.jpg
211.873	2.589	correct	navigation	Trial1	navigation/STIM_005.jpg
216.71	2.734	correct	navigation	Trial1	navigation/STIM_005.jpg
222.971	4.895	correct	navigation	Trial1	navigation/STIM_006.jpg
230.813	4.258	correct	navigation	Trial1	navigation/STIM_006.jpg
238.644	3.908	correct	navigation	Trial1	navigation/STIM_006.jpg
244.776	2.442	correct	navigation	Trial1	navigation/STIM_006.jpg
250.178	2.715	correct	navigation	Trial1	navigation/STIM_006.jpg
255.449	3.39	incorrect	navigation	Trial1	navigation/STIM_006.jpg
262.621	2.966	correct	navigation	Trial1	navigation/STIM_007.jpg
267.954	2.329	correct	navigation	Trial1	navigation/STIM_007.jpg
273.277	4.499	correct	navigation	Trial1	navigation/STIM_007.jpg
280.061	3.003	correct	navigation	Trial1	navigation/STIM_007.jpg
286.029	2.503	correct	navigation	Trial1	navigation/STIM_007.jpg
292.029	3.311	correct	navigation	Trial1	navigation/STIM_007.jpg
298.094	2.698	incorrect	navigation	Trial1	navigation/STIM_008.jpg
303.439	3.816	incorrect	navigation	Trial1	navigation/STIM_008.jpg
310.446	3.966	correct	navigation	Trial1	navigation/STIM_008.jpg
318.094	2.294	incorrect	navigation	Trial1	navigation/STIM_008.jpg
324.044	2.555	correct	navigation	Trial1	navigation/STIM_008.jpg
329.604	2.717	correct	navigation	Trial1	navigation/STIM_008.jpg
336.175	5.036	incorrect	navigation	Trial1	navigation/STIM_009.jpg
343.006	3.326	correct	navigation	Trial1	navigation/STIM_009.jpg
349.186	4.762	correct	navigation	Trial1	navigation/STIM_009.jpg
356.354	3.561	correct	navigation	Trial1	navigation/STIM_009.jpg
363.02	4.101	incorrect	navigation	Trial1	navigation/STIM_009.jpg
369.778	1.745	correct	navigation	Trial1	navigation/STIM_009.jpg
375.123	2.234	incorrect	navigation	Trial1	navigation/STIM_010.jpg
380.496	4.108	correct	navigation	Trial1	navigation/STIM_010.jpg
387.482	2.138	correct	navigation	Trial1	navigation/STIM_010.jpg
393.146	1.934	correct	navigation	Trial1	navigation/STIM_010.jpg
397.568	2.874	correct	navigation	Trial1	navigation/STIM_010.jpg
404.04	3.972	correct	navigation	Trial1	navigation/STIM_010.jpg
410.752	4.525	incorrect	navigation	Trial1	navigation/STIM_011.jpg
417.191	4.695	incorrect	navigation	Trial1	navigation/STIM_011.jpg
423.879	2.236	correct	navigation	Trial1	navigation/STIM_011.jpg
429.176	3.202	correct	navigation	Trial1	navigation/STIM_011.jpg
434.72	3.235	correct	navigation	Trial1	navigation/STIM_011.jpg
440.752	2.632	incorrect	navigation	Trial1	navigation/STIM_011.jpg
447.055	1.259	correct	pointing	Trial1	pointing/STIM_000.jpg
450.323	1.484	correct	pointing	Trial1	pointing/STIM_000.jpg
455.436	1.38	correct	pointing	Trial1	pointing/STIM_000.jpg
459.035	1.224	correct	pointing	Trial1	pointing/STIM_000.jpg
463.41	1.167	correct	pointing	Trial1	pointing/STIM_000.jpg
467.2	1.243	incorrect	pointing	Trial1	pointing/STIM_000.jpg
472.354	0.87	correct	pointing	Trial1	pointing/STIM_001.jpg
476.273	1.144	correct	pointing	Trial1	pointing/STIM_001.jpg
481.313	1.652	correct	pointing	Trial1	pointing/STIM_001.jpg
485.829	1.17	correct	pointing	Trial1	pointing/STIM_001.jpg
490.853	0.926	correct	pointing	Trial1	pointing/STIM_001.jpg
493.87	1.522	correct	pointing	Trial1	pointing/STIM_001.jpg
497.895	1.274	correct	pointing	Trial1	pointing/STIM_002.jpg
503.121	0.939	correct	pointing	Trial1	pointing/STIM_002.jpg
506.668	1.566	correct	pointing	Trial1	pointing/STIM_002.jpg
511.15	1.314	correct	pointing	Trial1	pointing/STIM_002.jpg
514.487	0.982	correct	pointing	Trial1	pointing/STIM_002.jpg
517.843	1.047	correct	pointing	Trial1	pointing/STIM_002.jpg
522.348	1.41	correct	pointing	Trial1	pointing/STIM_003.jpg
525.814	1.466	correct	pointing	Trial1	pointing/STIM_003.jpg
531.202	1.098	correct	pointing	Trial1	pointing/STIM_003.jpg
535.312	1.187	correct	pointing	Trial1	pointing/STIM_003.jpg
538.943	0.85	correct	pointing	Trial1	pointing/STIM_003.jpg
542.948	1.24	correct	pointing	Trial1	pointing/STIM_003.jpg
547.515	1.543	correct	pointing	Trial1	pointing/STIM_004.jpg
551.593	1.002	correct	pointing	Trial1	pointing/STIM_004.jpg
555.602	1.222	correct	pointing	Trial1	pointing/STIM_004.jpg
559.602	0.934	incorrect	pointing	Trial1	pointing/STIM_004.jpg
564.052	0.88	correct	pointing	Trial1	pointing/STIM_004.jpg
568.594	1.273	correct	pointing	Trial1	pointing/STIM_004.jpg
572.541	1.386	correct	pointing	Trial1	pointing/STIM_005.jpg
576.934	1.043	incorrect	pointing	Trial1	pointing/STIM_005.jpg
581.836	1.288	incorrect	pointing	Trial1	pointing/STIM_005.jpg
585.434	1.082	correct	pointing	Trial1	pointing/STIM_005.jpg
590.072	0.919	correct	pointing	Trial1	pointing/STIM_005.jpg
593.047	1.399	correct	pointing	Trial1	pointing/STIM_005.jpg
597.295	1.081	incorrect	pointing	Trial1	pointing/STIM_006.jpg
602.063	1.549	correct	pointing	Trial1	pointing/STIM_006.jpg
606.373	0.907	correct	pointing	Trial1	pointing/STIM_006.jpg
610.425	1.376	correct	pointing	Trial1	pointing/STIM_006.jpg
614.563	0.934	correct	pointing	Trial1	pointing/STIM_006.jpg
617.892	1.28	correct	pointing	Trial1	pointing/STIM_006.jpg
621.386	0.922	correct	pointing	Trial1	pointing/STIM_007.jpg
624.544	1.628	correct	pointing	Trial1	pointing/STIM_007.jpg
628.793	1.07	correct	pointing	Trial1	pointing/STIM_007.jpg
632.142	1.285	incorrect	pointing	Trial1	pointing/STIM_007.jpg
636.967	1.194	correct	pointing	Trial1	pointing/STIM_007.jpg
640.232	1.535	correct	pointing	Trial1	pointing/STIM_007.jpg
645.502	0.88	correct	pointing	Trial1	pointing/STIM_008.jpg
649.763	0.918	correct	pointing	Trial1	pointing/STIM_008.jpg
653.209	1.508	correct	pointing	Trial1	pointing/STIM_008.jpg
657.585	0.969	correct	pointing	Trial1	pointing/STIM_008.jpg
661.171	1.209	correct	pointing	Trial1	pointing/STIM_008.jpg
664.678	0.788	correct	pointing	Trial1	pointing/STIM_008.jpg
668.866	1.133	correct	pointing	Trial1	pointing/STIM_009.jpg
673.669	1.434	correct	pointing	Trial1	pointing/STIM_009.jpg
677.866	1.126	correct	pointing	Trial1	pointing/STIM_009.jpg
682.023	1.072	correct	pointing	Trial1	pointing/STIM_009.jpg
685.226	1.307	correct	pointing	Trial1	pointing/STIM_009.jpg
689.565	1.295	correct	pointing	Trial1	pointing/STIM_009.jpg
693.392	1.554	correct	pointing	Trial1	pointing/STIM_010.jpg
696.912	1.087	correct	pointing	Trial1	pointing/STIM_010.jpg
701.529	1.649	correct	pointing	Trial1	pointing/STIM_010.jpg
706.469	1.299	correct	pointing	Trial1	pointing/STIM_010.jpg
710.161	1.229	correct	pointing	Trial1	pointing/STIM_010.jpg
714.126	1.197	correct	pointing	Trial1	pointing/STIM_010.jpg
718.171	1.506	correct	pointing	Trial1	pointing/STIM_011.jpg
722.599	1.064	correct	pointing	Trial1	pointing/STIM_011.jpg
727.492	1.503	correct	pointing	Trial1	pointing/STIM_011.jpg
732.28	1.372	correct	pointing	Trial1	pointing/STIM_011.jpg
736.252	1.418	correct	pointing	Trial1	pointing/STIM_011.jpg
740.745	0.848	correct	pointing	Trial1	pointing/STIM_011.jpg
743.621	2.336	incorrect	navigation	Trial2	navigation/STIM_000.jpg
748.775	3.381	incorrect	navigation	Trial2	navigation/STIM_000.jpg
754.978	3.934	correct	navigation	Trial2	navigation/STIM_000.jpg
761.367	3.357	incorrect	navigation	Trial2	navigation/STIM_000.jpg
767.869	2.143	correct	navigation	Trial2	navigation/STIM_000.jpg
773.486	1.562	correct	navigation	Trial2	navigation/STIM_000.jpg
777.361	2.966	correct	navigation	Trial2	navigation/STIM_001.jpg
783.867	2.186	incorrect	navigation	Trial2	navigation/STIM_001.jpg
788.139	2.643	correct	navigation	Trial2	navigation/STIM_001.jpg
793.429	2.827	correct	navigation	Trial2	navigation/STIM_001.jpg
798.283	2.451	correct	navigation	Trial2	navigation/STIM_001.jpg
803.403	2.661	correct	navigation	Trial2	navigation/STIM_001.jpg
808.432	2.929	incorrect	navigation	Trial2	navigation/STIM_002.jpg
814.321	3.353	correct	navigation	Trial2	navigation/STIM_002.jpg
820.178	2.775	correct	navigation	Trial2	navigation/STIM_002.jpg
826.629	1.961	correct	navigation	Trial2	navigation/STIM_002.jpg
830.738	2.037	correct	navigation	Trial2	navigation/STIM_002.jpg
835.517	3.091	correct	navigation	Trial2	navigation/STIM_002.jpg
841.236	2.417	correct	navigation	Trial2	navigation/STIM_003.jpg
847.541	2.089	correct	navigation	Trial2	navigation/STIM_003.jpg
853.072	1.538	correct	navigation	Trial2	navigation/STIM_003.jpg
857.865	2.875	incorrect	navigation	Trial2	navigation/STIM_003.jpg
863.777	3.264	correct	navigation	Trial2	navigation/STIM_003.jpg
870.647	1.739	correct	navigation	Trial2	navigation/STIM_003.jpg
875.149	2.045	correct	navigation	Trial2	navigation/STIM_004.jpg
879.78	3.453	correct	navigation	Trial2	navigation/STIM_004.jpg
886.239	2.326	correct	navigation	Trial2	navigation/STIM_004.jpg
891.638	3.477	incorrect	navigation	Trial2	navigation/STIM_004.jpg
897.915	3.405	correct	navigation	Trial2	navigation/STIM_004.jpg
903.542	2.558	correct	navigation	Trial2	navigation/STIM_004.jpg
908.389	4.088	correct	navigation	Trial2	navigation/STIM_005.jpg
916.297	2.433	correct	navigation	Trial2	navigation/STIM_005.jpg
922.024	1.603	correct	navigation	Trial2	navigation/STIM_005.jpg
926.957	1.496	correct	navigation	Trial2	navigation/STIM_005.jpg
930.427	2.127	correct	navigation	Trial2	navigation/STIM_005.jpg
934.769	1.862	correct	navigation	Trial2	navigation/STIM_005.jpg
939.408	1.863	correct	navigation	Trial2	navigation/STIM_006.jpg
943.499	1.854	incorrect	navigation	Trial2	navigation/STIM_006.jpg
947.278	2.069	correct	navigation	Trial2	navigation/STIM_006.jpg
951.991	1.88	correct	navigation	Trial2	navigation/STIM_006.jpg
955.975	1.581	correct	navigation	Trial2	navigation/STIM_006.jpg
959.626	3.39	correct	navigation	Trial2	navigation/STIM_006.jpg
966.225	3.123	incorrect	navigation	Trial2	navigation/STIM_007.jpg
972.211	3.22	correct	navigation	Trial2	navigation/STIM_007.jpg
977.716	3.394	correct	navigation	Trial2	navigation/STIM_007.jpg
983.38	2.89	correct	navigation	Trial2	navigation/STIM_007.jpg
989.945	3.018	correct	navigation	Trial2	navigation/STIM_007.jpg
995.517	1.542	correct	navigation	Trial2	navigation/STIM_007.jpg
1000.556	2.729	correct	navigation	Trial2	navigation/STIM_008.jpg
1005.854	3.964	correct	navigation	Trial2	navigation/STIM_008.jpg
1012.528	2.235	correct	navigation	Trial2	navigation/STIM_008.jpg
1017.011	3.609	correct	navigation	Trial2	navigation/STIM_008.jpg
1024.081	1.505	correct	navigation	Trial2	navigation/STIM_008.jpg
1029.123	2.821	correct	navigation	Trial2	navigation/STIM_008.jpg
1033.902	3.294	correct	navigation	Trial2	navigation/STIM_009.jpg
1040.177	1.989	correct	navigation	Trial2	navigation/STIM_009.jpg
1046.057	3.98	correct	navigation	Trial2	navigation/STIM_009.jpg
1052.045	1.562	correct	navigation	Trial2	navigation/STIM_009.jpg
1056.355	3.471	correct	navigation	Trial2	navigation/STIM_009.jpg
1063.618	1.949	correct	navigation	Trial2	navigation/STIM_009.jpg
1068.601	1.82	correct	navigation	Trial2	navigation/STIM_010.jpg
1072.625	1.843	correct	navigation	Trial2	navigation/STIM_010.jpg
1077.26	3.116	correct	navigation	Trial2	navigation/STIM_010.jpg
1082.898	2.082	correct	navigation	Trial2	navigation/STIM_010.jpg
1088.376	3.178	correct	navigation	Trial2	navigation/STIM_010.jpg
1094.839	1.817	correct	navigation	Trial2	navigation/STIM_010.jpg
1099.153	3.946	correct	navigation	Trial2	navigation/STIM_011.jpg
1106.67	3.49	correct	navigation	Trial2	navigation/STIM_011.jpg
1113.151	2.574	correct	navigation	Trial2	navigation/STIM_011.jpg
1119.633	2.671	incorrect	navigation	Trial2	navigation/STIM_011.jpg
1126.012	2.354	correct	navigation	Trial2	navigation/STIM_011.jpg
1130.938	2.377	correct	navigation	Trial2	navigation/STIM_011.jpg
1135.324	1.135	correct	pointing	Trial2	pointing/STIM_000.jpg
1138.538	0.872	correct	pointing	Trial2	pointing/STIM_000.jpg
1141.759	1.193	correct	pointing	Trial2	pointing/STIM_000.jpg
1145.35	1.343	correct	pointing	Trial2	pointing/STIM_000.jpg
1150.442	1.412	correct	pointing	Trial2	pointing/STIM_000.jpg
1154.436	1.272	incorrect	pointing	Trial2	pointing/STIM_000.jpg
1158.408	0.882	correct	pointing	Trial2	pointing/STIM_001.jpg
1162.101	0.887	correct	pointing	Trial2	pointing/STIM_001.jpg
1165.664	1.092	correct	pointing	Trial2	pointing/STIM_001.jpg
1169.194	1.065	correct	pointing	Trial2	pointing/STIM_001.jpg
1173.961	1.093	correct	pointing	Trial2	pointing/STIM_001.jpg
1177.676	0.989	correct	pointing	Trial2	pointing/STIM_001.jpg
1181.43	1.212	correct	pointing	Trial2	pointing/STIM_002.jpg
1185.377	1.06	correct	pointing	Trial2	pointing/STIM_002.jpg
1189.906	0.878	correct	pointing	Trial2	pointing/STIM_002.jpg
1194.716	0.936	correct	pointing	Trial2	pointing/STIM_002.jpg
1198.128	1.042	correct	pointing	Trial2	pointing/STIM_002.jpg
1202.43	1.308	correct	pointing	Trial2	pointing/STIM_002.jpg
1205.86	0.947	correct	pointing	Trial2	pointing/STIM_003.jpg
1210.391	1.496	correct	pointing	Trial2	pointing/STIM_003.jpg
1215.602	1.015	incorrect	pointing	Trial2	pointing/STIM_003.jpg
1220.407	0.965	incorrect	pointing	Trial2	pointing/STIM_003.jpg
1225.145	1.26	correct	pointing	Trial2	pointing/STIM_003.jpg
1229.525	1.305	correct	pointing	Trial2	pointing/STIM_003.jpg
1234.657	0.964	correct	pointing	Trial2	pointing/STIM_004.jpg
1237.739	1.522	correct	pointing	Trial2	pointing/STIM_004.jpg
1241.645	1.059	correct	pointing	Trial2	pointing/STIM_004.jpg
1246.358	1.375	correct	pointing	Trial2	pointing/STIM_004.jpg
1250.211	1.569	correct	pointing	Trial2	pointing/STIM_004.jpg
1254.23	1.067	incorrect	pointing	Trial2	pointing/STIM_004.jpg
1259.017	1.475	correct	pointing	Trial2	pointing/STIM_005.jpg
1262.503	1.403	correct	pointing	Trial2	pointing/STIM_005.jpg
1266.451	1.285	correct	pointing	Trial2	pointing/STIM_005.jpg
1271.203	1.578	correct	pointing	Trial2	pointing/STIM_005.jpg
1275.738	1.01	correct	pointing	Trial2	pointing/STIM_005.jpg
1278.803	1.415	correct	pointing	Trial2	pointing/STIM_005.jpg
1283.291	1.449	correct	pointing	Trial2	pointing/STIM_006.jpg
1286.909	1.294	correct	pointing	Trial2	pointing/STIM_006.jpg
1290.381	0.871	correct	pointing	Trial2	pointing/STIM_006.jpg
1293.804	0.893	correct	pointing	Trial2	pointing/STIM_006.jpg
1297.06	1.337	correct	pointing	Trial2	pointing/STIM_006.jpg
1300.366	1.38	correct	pointing	Trial2	pointing/STIM_006.jpg
1303.806	1.271	correct	pointing	Trial2	pointing/STIM_007.jpg
1308.538	1.111	correct	pointing	Trial2	pointing/STIM_007.jpg
1311.881	1.332	correct	pointing	Trial2	pointing/STIM_007.jpg
1317.062	1.136	correct	pointing	Trial2	pointing/STIM_007.jpg
1321.375	1.005	correct	pointing	Trial2	pointing/STIM_007.jpg
1325.28	1.208	correct	pointing	Trial2	pointing/STIM_007.jpg
1329.093	1.199	correct	pointing	Trial2	pointing/STIM_008.jpg
1333.487	1.412	correct	pointing	Trial2	pointing/STIM_008.jpg
1337.41	1.065	correct	pointing	Trial2	pointing/STIM_008.jpg
1341.565	0.99	correct	pointing	Trial2	pointing/STIM_008.jpg
1344.874	1.49	correct	pointing	Trial2	pointing/STIM_008.jpg
1348.569	1.338	correct	pointing	Trial2	pointing/STIM_008.jpg
1353.863	1.336	correct	pointing	Trial2	pointing/STIM_009.jpg
1358.831	0.919	correct	pointing	Trial2	pointing/STIM_009.jpg
1362.759	1.319	correct	pointing	Trial2	pointing/STIM_009.jpg
1367.011	1.576	correct	pointing	Trial2	pointing/STIM_009.jpg
1371.218	1.089	incorrect	pointing	Trial2	pointing/STIM_009.jpg
1374.624	1.543	correct	pointing	Trial2	pointing/STIM_009.jpg
1378.532	0.907	correct	pointing	Trial2	pointing/STIM_010.jpg
1383.257	0.974	correct	pointing	Trial2	pointing/STIM_010.jpg
1386.343	1.177	correct	pointing	Trial2	pointing/STIM_010.jpg
1391.069	1.098	correct	pointing	Trial2	pointing/STIM_010.jpg
1394.915	1.034	correct	pointing	Trial2	pointing/STIM_010.jpg
1398.702	0.935	correct	pointing	Trial2	pointing/STIM_010.jpg
1402.734	1.515	incorrect	pointing	Trial2	pointing/STIM_011.jpg
1406.186	1.564	correct	pointing	Trial2	pointing/STIM_011.jpg
1411.063	1.093	correct	pointing	Trial2	pointing/STIM_011.jpg
1415.943	1.228	correct	pointing	Trial2	pointing/STIM_011.jpg
1419.133	1.127	correct	pointing	Trial2	pointing/STIM_011.jpg
1422.703	1.681	incorrect	pointing	Trial2	pointing/STIM_011.jpg
1426.633	3.374	correct	navigation	Trial3	navigation/STIM_000.jpg
1432.77	1.472	correct	navigation	Trial3	navigation/STIM_000.jpg
1436.621	1.954	incorrect	navigation	Trial3	navigation/STIM_000.jpg
1442.28	2.156	correct	navigation	Trial3	navigation/STIM_000.jpg
1446.59	1.804	correct	navigation	Trial3	navigation/STIM_000.jpg
1451.815	3.13	correct	navigation	Trial3	navigation/STIM_000.jpg
1458.496	1.912	correct	navigation	Trial3	navigation/STIM_001.jpg
1462.481	2.208	correct	navigation	Trial3	navigation/STIM_001.jpg
1468.295	1.791	correct	navigation	Trial3	navigation/STIM_001.jpg
1473.107	2.96	correct	navigation	Trial3	navigation/STIM_001.jpg
1479.92	2.762	correct	navigation	Trial3	navigation/STIM_001.jpg
1485.387	2.435	correct	navigation	Trial3	navigation/STIM_001.jpg
1490.384	3.344	correct	navigation	Trial3	navigation/STIM_002.jpg
1497.001	3.618	correct	navigation	Trial3	navigation/STIM_002.jpg
1503.742	1.713	correct	navigation	Trial3	navigation/STIM_002.jpg
1508.655	2.784	correct	navigation	Trial3	navigation/STIM_002.jpg
1514.062	2.88	correct	navigation	Trial3	navigation/STIM_002.jpg
1519.549	2.924	correct	navigation	Trial3	navigation/STIM_002.jpg
1525.346	3.068	correct	navigation	Trial3	navigation/STIM_003.jpg
1531.236	3.115	correct	navigation	Trial3	navigation/STIM_003.jpg
1538.053	1.714	correct	navigation	Trial3	navigation/STIM_003.jpg
1543.341	2.895	incorrect	navigation	Trial3	navigation/STIM_003.jpg
1549.093	2.311	correct	navigation	Trial3	navigation/STIM_003.jpg
1554.436	3.238	correct	navigation	Trial3	navigation/STIM_003.jpg
1560.321	3.243	correct	navigation	Trial3	navigation/STIM_004.jpg
1567.126	3.446	correct	navigation	Trial3	navigation/STIM_004.jpg
1573.185	1.679	correct	navigation	Trial3	navigation/STIM_004.jpg
1578.382	1.801	correct	navigation	Trial3	navigation/STIM_004.jpg
1583.305	1.733	correct	navigation	Trial3	navigation/STIM_004.jpg
1587.936	2.262	correct	navigation	Trial3	navigation/STIM_004.jpg
1592.535	2.63	correct	navigation	Trial3	navigation/STIM_005.jpg
1597.722	2.867	correct	navigation	Trial3	navigation/STIM_005.jpg
1602.653	2.179	correct	navigation	Trial3	navigation/STIM_005.jpg
1607.211	2.177	incorrect	navigation	Trial3	navigation/STIM_005.jpg
1613.079	1.617	correct	navigation	Trial3	navigation/STIM_005.jpg
1618.487	2.655	correct	navigation	Trial3	navigation/STIM_005.jpg
1623.288	1.497	correct	navigation	Trial3	navigation/STIM_006.jpg
1627.874	2.765	correct	navigation	Trial3	navigation/STIM_006.jpg
1633.45	2.671	correct	navigation	Trial3	navigation/STIM_006.jpg
1638.273	3.219	correct	navigation	Trial3	navigation/STIM_006.jpg
1644.731	1.565	correct	navigation	Trial3	navigation/STIM_006.jpg
1649.95	2.456	correct	navigation	Trial3	navigation/STIM_006.jpg
1655.044	3.347	correct	navigation	Trial3	navigation/STIM_007.jpg
1660.222	2.226	correct	navigation	Trial3	navigation/STIM_007.jpg
1665.054	2.021	correct	navigation	Trial3	navigation/STIM_007.jpg
1669.932	2.197	correct	navigation	Trial3	navigation/STIM_007.jpg
1675.898	2.796	correct	navigation	Trial3	navigation/STIM_007.jpg
1682.235	2.171	correct	navigation	Trial3	navigation/STIM_007.jpg
1686.378	1.631	correct	navigation	Trial3	navigation/STIM_008.jpg
1691.799	3.362	correct	navigation	Trial3	navigation/STIM_008.jpg
1697.735	3.401	correct	navigation	Trial3	navigation/STIM_008.jpg
1703.155	2.335	correct	navigation	Trial3	navigation/STIM_008.jpg
1708.047	3.62	correct	navigation	Trial3	navigation/STIM_008.jpg
1715.34	2.025	correct	navigation	Trial3	navigation/STIM_008.jpg
1719.308	2.232	correct	navigation	Trial3	navigation/STIM_009.jpg
1723.852	2.75	correct	navigation	Trial3	navigation/STIM_009.jpg
1728.476	2.118	correct	navigation	Trial3	navigation/STIM_009.jpg
1734.384	1.896	correct	navigation	Trial3	navigation/STIM_009.jpg
1738.622	3.464	correct	navigation	Trial3	navigation/STIM_009.jpg
1744.872	1.64	correct	navigation	Trial3	navigation/STIM_009.jpg
1749.812	3.016	correct	navigation	Trial3	navigation/STIM_010.jpg
1756.474	3.603	incorrect	navigation	Trial3	navigation/STIM_010.jpg
1761.987	3.04	correct	navigation	Trial3	navigation/STIM_010.jpg
1768.13	1.835	correct	navigation	Trial3	navigation/STIM_010.jpg
1772.566	2.115	correct	navigation	Trial3	navigation/STIM_010.jpg
1776.743	3.394	correct	navigation	Trial3	navigation/STIM_010.jpg
1783.127	2.61	correct	navigation	Trial3	navigation/STIM_011.jpg
1787.713	2.245	correct	navigation	Trial3	navigation/STIM_011.jpg
1793.683	2.052	correct	navigation	Trial3	navigation/STIM_011.jpg
1797.901	1.699	correct	navigation	Trial3	navigation/STIM_011.jpg
1803.43	2.904	correct	navigation	Trial3	navigation/STIM_011.jpg
1808.337	2.605	correct	navigation	Trial3	navigation/STIM_011.jpg
1814.369	1.098	correct	pointing	Trial3	pointing/STIM_000.jpg
1817.91	1.239	correct	pointing	Trial3	pointing/STIM_000.jpg
1822.967	1.242	correct	pointing	Trial3	pointing/STIM_000.jpg
1827.252	1.305	correct	pointing	Trial3	pointing/STIM_000.jpg
1831.883	1.139	correct	pointing	Trial3	pointing/STIM_000.jpg
1835.011	1.233	correct	pointing	Trial3	pointing/STIM_000.jpg
1838.44	0.78	correct	pointing	Trial3	pointing/STIM_001.jpg
1842.232	1.225	correct	pointing	Trial3	pointing/STIM_001.jpg
1847.423	1.437	correct	pointing	Trial3	pointing/STIM_001.jpg
1851.889	0.918	correct	pointing	Trial3	pointing/STIM_001.jpg
1856.506	1.237	correct	pointing	Trial3	pointing/STIM_001.jpg
1861.174	1.381	correct	pointing	Trial3	pointing/STIM_001.jpg
1866.226	1.009	correct	pointing	Trial3	pointing/STIM_002.jpg
1870.643	1.018	correct	pointing	Trial3	pointing/STIM_002.jpg
1874.5	1.337	correct	pointing	Trial3	pointing/STIM_002.jpg
1878.91	0.974	correct	pointing	Trial3	pointing/STIM_002.jpg
1883.928	1.162	correct	pointing	Trial3	pointing/STIM_002.jpg
1888.31	1.472	correct	pointing	Trial3	pointing/STIM_002.jpg
1893.672	1.209	correct	pointing	Trial3	pointing/STIM_003.jpg
1898.828	1.067	incorrect	pointing	Trial3	pointing/STIM_003.jpg
1902.709	1.284	correct	pointing	Trial3	pointing/STIM_003.jpg
1906.58	1.544	incorrect	pointing	Trial3	pointing/STIM_003.jpg
1911.444	1.507	incorrect	pointing	Trial3	pointing/STIM_003.jpg
1915.578	1.593	correct	pointing	Trial3	pointing/STIM_003.jpg
1919.665	1.513	incorrect	pointing	Trial3	pointing/STIM_004.jpg
1923.487	1.448	correct	pointing	Trial3	pointing/STIM_004.jpg
1928.228	0.96	correct	pointing	Trial3	pointing/STIM_004.jpg
1933.008	0.905	correct	pointing	Trial3	pointing/STIM_004.jpg
1936.896	1.061	correct	pointing	Trial3	pointing/STIM_004.jpg
1940.053	0.961	correct	pointing	Trial3	pointing/STIM_004.jpg
1944.775	1.191	correct	pointing	Trial3	pointing/STIM_005.jpg
1948.056	1.473	correct	pointing	Trial3	pointing/STIM_005.jpg
1952.141	1.107	correct	pointing	Trial3	pointing/STIM_005.jpg
1955.931	0.922	correct	pointing	Trial3	pointing/STIM_005.jpg
1960.096	1.294	correct	pointing	Trial3	pointing/STIM_005.jpg
1963.466	1.026	correct	pointing	Trial3	pointing/STIM_005.jpg
1966.734	1.13	incorrect	pointing	Trial3	pointing/STIM_006.jpg
1969.79	1.121	correct	pointing	Trial3	pointing/STIM_006.jpg
1974.77	1.217	correct	pointing	Trial3	pointing/STIM_006.jpg
1978.871	0.896	correct	pointing	Trial3	pointing/STIM_006.jpg
1982.579	1.012	correct	pointing	Trial3	pointing/STIM_006.jpg
1986.697	1.26	correct	pointing	Trial3	pointing/STIM_006.jpg
1991.311	1.444	correct	pointing	Trial3	pointing/STIM_007.jpg
1995.532	1.096	correct	pointing	Trial3	pointing/STIM_007.jpg
1999.92	0.859	correct	pointing	Trial3	pointing/STIM_007.jpg
2004.534	0.922	correct	pointing	Trial3	pointing/STIM_007.jpg
2007.809	0.91	correct	pointing	Trial3	pointing/STIM_007.jpg
2012.179	1.249	correct	pointing	Trial3	pointing/STIM_007.jpg
2016.794	1.496	correct	pointing	Trial3	pointing/STIM_008.jpg
2022.121	1.057	correct	pointing	Trial3	pointing/STIM_008.jpg
2027.113	0.902	correct	pointing	Trial3	pointing/STIM_008.jpg
2030.156	1.269	correct	pointing	Trial3	pointing/STIM_008.jpg
2035.223	1.443	incorrect	pointing	Trial3	pointing/STIM_008.jpg
2038.912	1.285	correct	pointing	Trial3	pointing/STIM_008.jpg
2042.731	1.411	correct	pointing	Trial3	pointing/STIM_009.jpg
2047.701	1.452	correct	pointing	Trial3	pointing/STIM_009.jpg
2052.214	1.491	correct	pointing	Trial3	pointing/STIM_009.jpg
2056.043	0.876	correct	pointing	Trial3	pointing/STIM_009.jpg
2058.973	1.245	correct	pointing	Trial3	pointing/STIM_009.jpg
2062.959	1.359	correct	pointing	Trial3	pointing/STIM_009.jpg
2066.916	1.002	correct	pointing	Trial3	pointing/STIM_010.jpg
2070.947	1.303	incorrect	pointing	Trial3	pointing/STIM_010.jpg
2074.848	1.524	correct	pointing	Trial3	pointing/STIM_010.jpg
2079.486	0.863	incorrect	pointing	Trial3	pointing/STIM_010.jpg
2084.013	1.566	correct	pointing	Trial3	pointing/STIM_010.jpg
2089.187	1.44	incorrect	pointing	Trial3	pointing/STIM_010.jpg
2093.756	1.522	correct	pointing	Trial3	pointing/STIM_011.jpg
2097.92	1.25	correct	pointing	Trial3	pointing/STIM_011.jpg
2102.253	1.184	correct	pointing	Trial3	pointing/STIM_011.jpg
2105.58	1.387	correct	pointing	Trial3	pointing/STIM_011.jpg
2110.653	1.533	correct	pointing	Trial3	pointing/STIM_011.jpg
2115.034	1.137	correct	pointing	Trial3	pointing/STIM_011.jpg
