onset	duration	response_time_ms	trial_type	learning_stage	stimulus	response_port
0.0	2.342	2341.8	navigation	Trial1	navigation/STIM_000.jpg	100
5.694	4.38	4380.4	navigation	Trial1	navigation/STIM_000.jpg	100
12.38	2.256	2255.6	navigation	Trial1	navigation/STIM_000.jpg	99
18.272	1.973	1973.2	navigation	Trial1	navigation/STIM_000.jpg	100
24.119	2.707	2706.6	navigation	Trial1	navigation/STIM_000.jpg	99
29.255	1.666	1666.2	navigation	Trial1	navigation/STIM_000.jpg	99
34.442	2.746	2745.8	navigation	Trial1	navigation/STIM_001.jpg	99
39.711	4.471	4470.6	navigation	Trial1	navigation/STIM_001.jpg	100
47.801	3.877	3876.7	navigation	Trial1	navigation/STIM_001.jpg	100
55.142	3.213	3212.6	navigation	Trial1	navigation/STIM_001.jpg	100
60.486	2.944	2943.5	navigation	Trial1	navigation/STIM_001.jpg	100
65.449	3.849	3848.6	navigation	Trial1	navigation/STIM_001.jpg	99
72.278	5.173	5172.7	navigation	Trial1	navigation/STIM_002.jpg	99
79.374	2.01	2010.2	navigation	Trial1	navigation/STIM_002.jpg	100
83.976	4.587	4587.2	navigation	Trial1	navigation/STIM_002.jpg	100
91.482	2.265	2265.3	navigation	Trial1	navigation/STIM_002.jpg	99
96.186	2.124	2123.9	navigation	Trial1	navigation/STIM_002.jpg	99
101.467	2.887	2886.9	navigation	Trial1	navigation/STIM_002.jpg	100
107.646	3.562	3561.6	navigation	Trial1	navigation/STIM_003.jpg	99
114.679	3.812	3812.2	navigation	Trial1	navigation/STIM_003.jpg	100
120.984	2.046	2045.6	navigation	Trial1	navigation/STIM_003.jpg	100
126.077	4.427	4426.9	navigation	Trial1	navigation/STIM_003.jpg	100
134.052	2.738	2738.2	navigation	Trial1	navigation/STIM_003.jpg	100
139.195	3.499	3498.8	navigation	Trial1	navigation/STIM_003.jpg	99
144.551	3.886	3885.5	navigation	Trial1	navigation/STIM_004.jpg	100
151.636	3.299	3299.0	navigation	Trial1	navigation/STIM_004.jpg	99
157.592	4.1	4100.0	navigation	Trial1	navigation/STIM_004.jpg	100
165.221	4.184	4184.0	navigation	Trial1	navigation/STIM_004.jpg	100
173.17	3.896	3895.8	navigation	Trial1	navigation/STIM_004.jpg	100
179.171	3.767	3766.8	navigation	Trial1	navigation/STIM_004.jpg	99
186.482	5.11	5109.5	navigation	Trial1	navigation/STIM_005.jpg	99
193.799	2.427	2426.7	navigation	Trial1	navigation/STIM_005.jpg	99
198.919	1.938	1937.6	navigation	Trial1	navigation/STIM_005.jpg	99
204.769	4.412	4411.7	navigation	Trial1	navigation/STIM_005.jpg	99
211.873	2.589	2589.1	navigation	Trial1	navigation/STIM_005.jpg	99
216.71	2.734	2733.6	navigation	Trial1	navigation/STIM_005.jpg	100
222.971	4.895	4895.4	navigation	Trial1	navigation/STIM_006.jpg	100
230.813	4.258	4258.4	navigation	Trial1	navigation/STIM_006.jpg	99
238.644	3.908	3908.1	navigation	Trial1	navigation/STIM_006.jpg	100
244.776	2.442	2441.8	navigation	Trial1	navigation/STIM_006.jpg	100
250.178	2.715	2715.1	navigation	Trial1	navigation/STIM_006.jpg	99
255.449	3.39	3389.8	navigation	Trial1	navigation/STIM_006.jpg	99
262.621	2.966	2965.9	navigation	Trial1	navigation/STIM_007.jpg	100
267.954	2.329	2329.1	navigation	Trial1	navigation/STIM_007.jpg	99
273.277	4.499	4499.0	navigation	Trial1	navigation/STIM_007.jpg	99
280.061	3.003	3002.7	navigation	Trial1	navigation/STIM_007.jpg	100
286.029	2.503	2502.9	navigation	Trial1	navigation/STIM_007.jpg	100
292.029	3.311	3310.6	navigation	Trial1	navigation/STIM_007.jpg	99
298.094	2.698	2698.5	navigation	Trial1	navigation/STIM_008.jpg	99
303.439	3.816	3816.0	navigation	Trial1	navigation/STIM_008.jpg	99
310.446	3.966	3966.4	navigation	Trial1	navigation/STIM_008.jpg	100
318.094	2.294	2293.5	navigation	Trial1	navigation/STIM_008.jpg	100
324.044	2.555	2555.1	navigation	Trial1	navigation/STIM_008.jpg	99
329.604	2.717	2716.7	navigation	Trial1	navigation/STIM_008.jpg	99
336.175	5.036	5036.0	navigation	Trial1	navigation/STIM_009.jpg	99
343.006	3.326	3326.0	navigation	Trial1	navigation/STIM_009.jpg	99
349.186	4.762	4762.2	navigation	Trial1	navigation/STIM_009.jpg	99
356.354	3.561	3561.4	navigation	Trial1	navigation/STIM_009.jpg	99
363.02	4.101	4100.6	navigation	Trial1	navigation/STIM_009.jpg	100
369.778	1.745	1745.0	navigation	Trial1	navigation/STIM_009.jpg	100
375.123	2.234	2234.3	navigation	Trial1	navigation/STIM_010.jpg	99
380.496	4.108	4107.5	navigation	Trial1	navigation/STIM_010.jpg	99
387.482	2.138	2137.7	navigation	Trial1	navigation/STIM_010.jpg	99
393.146	1.934	1934.0	navigation	Trial1	navigation/STIM_010.jpg	100
397.568	2.874	2873.6	navigation	Trial1	navigation/STIM_010.jpg	99
404.04	3.972	3971.8	navigation	Trial1	navigation/STIM_010.jpg	99
410.752	4.525	4524.8	navigation	Trial1	navigation/STIM_011.jpg	99
417.191	4.695	4694.7	navigation	Trial1	navigation/STIM_011.jpg	100
423.879	2.236	2236.0	navigation	Trial1	navigation/STIM_011.jpg	99
429.176	3.202	3201.5	navigation	Trial1	navigation/STIM_011.jpg	99
434.72	3.235	3234.9	navigation	Trial1	navigation/STIM_011.jpg	99
440.752	2.632	2632.0	navigation	Trial1	navigation/STIM_011.jpg	99
447.055	1.259	1259.0	pointing	Trial1	pointing/STIM_000.jpg	99
450.323	1.484	1483.7	pointing	Trial1	pointing/STIM_000.jpg	100
455.436	1.38	1379.9	pointing	Trial1	pointing/STIM_000.jpg	99
459.035	1.224	1223.8	pointing	Trial1	pointing/STIM_000.jpg	99
463.41	1.167	1166.8	pointing	Trial1	pointing/STIM_000.jpg	99
467.2	1.243	1242.8	pointing	Trial1	pointing/STIM_000.jpg	99
472.354	0.87	870.1	pointing	Trial1	pointing/STIM_001.jpg	99
476.273	1.144	1144.5	pointing	Trial1	pointing/STIM_001.jpg	100
481.313	1.652	1651.5	pointing	Trial1	pointing/STIM_001.jpg	100
485.829	1.17	1170.4	pointing	Trial1	pointing/STIM_001.jpg	99
490.853	0.926	926.0	pointing	Trial1	pointing/STIM_001.jpg	100
493.87	1.522	1521.5	pointing	Trial1	pointing/STIM_001.jpg	100
497.895	1.274	1274.4	pointing	Trial1	pointing/STIM_002.jpg	100
503.121	0.939	939.3	pointing	Trial1	pointing/STIM_002.jpg	100
506.668	1.566	1566.1	pointing	Trial1	pointing/STIM_002.jpg	100
511.15	1.314	1314.5	pointing	Trial1	pointing/STIM_002.jpg	100
514.487	0.982	981.6	pointing	Trial1	pointing/STIM_002.jpg	99
517.843	1.047	1046.8	pointing	Trial1	pointing/STIM_002.jpg	99
522.348	1.41	1409.9	pointing	Trial1	pointing/STIM_003.jpg	99
525.814	1.466	1466.0	pointing	Trial1	pointing/STIM_003.jpg	99
531.202	1.098	1098.3	pointing	Trial1	pointing/STIM_003.jpg	99
535.312	1.187	1186.9	pointing	Trial1	pointing/STIM_003.jpg	100
538.943	0.85	849.7	pointing	Trial1	pointing/STIM_003.jpg	100
542.948	1.24	1239.7	pointing	Trial1	pointing/STIM_003.jpg	99
547.515	1.543	1542.6	pointing	Trial1	pointing/STIM_004.jpg	99
551.593	1.002	1001.7	pointing	Trial1	pointing/STIM_004.jpg	99
555.602	1.222	1221.9	pointing	Trial1	pointing/STIM_004.jpg	99
559.602	0.934	934.5	pointing	Trial1	pointing/STIM_004.jpg	99
564.052	0.88	879.5	pointing	Trial1	pointing/STIM_004.jpg	100
568.594	1.273	1273.1	pointing	Trial1	pointing/STIM_004.jpg	100
572.541	1.386	1386.2	pointing	Trial1	pointing/STIM_005.jpg	100
576.934	1.043	1042.8	pointing	Trial1	pointing/STIM_005.jpg	100
581.836	1.288	1287.9	pointing	Trial1	pointing/STIM_005.jpg	99
585.434	1.082	1082.1	pointing	Trial1	pointing/STIM_005.jpg	100
590.072	0.919	919.0	pointing	Trial1	pointing/STIM_005.jpg	100
593.047	1.399	1398.8	pointing	Trial1	pointing/STIM_005.jpg	100
597.295	1.081	1080.9	pointing	Trial1	pointing/STIM_006.jpg	100
602.063	1.549	1548.9	pointing	Trial1	pointing/STIM_006.jpg	100
606.373	0.907	907.3	pointing	Trial1	pointing/STIM_006.jpg	100
610.425	1.376	1376.3	pointing	Trial1	pointing/STIM_006.jpg	100
614.563	0.934	934.2	pointing	Trial1	pointing/STIM_006.jpg	99
617.892	1.28	1279.8	pointing	Trial1	pointing/STIM_006.jpg	99
621.386	0.922	921.6	pointing	Trial1	pointing/STIM_007.jpg	99
624.544	1.628	1628.0	pointing	Trial1	pointing/STIM_007.jpg	99
628.793	1.07	1069.5	pointing	Trial1	pointing/STIM_007.jpg	100
632.142	1.285	1284.7	pointing	Trial1	pointing/STIM_007.jpg	99
636.967	1.194	1193.8	pointing	Trial1	pointing/STIM_007.jpg	100
640.232	1.535	1535.4	pointing	Trial1	pointing/STIM_007.jpg	100
645.502	0.88	879.9	pointing	Trial1	pointing/STIM_008.jpg	99
649.763	0.918	917.5	pointing	Trial1	pointing/STIM_008.jpg	100
653.209	1.508	1508.4	pointing	Trial1	pointing/STIM_008.jpg	100
657.585	0.969	968.8	pointing	Trial1	pointing/STIM_008.jpg	99
661.171	1.209	1209.1	pointing	Trial1	pointing/STIM_008.jpg	100
664.678	0.788	787.8	pointing	Trial1	pointing/STIM_008.jpg	100
668.866	1.133	1133.4	pointing	Trial1	pointing/STIM_009.jpg	100
673.669	1.434	1434.2	pointing	Trial1	pointing/STIM_009.jpg	99
677.866	1.126	1126.5	pointing	Trial1	pointing/STIM_009.jpg	100
682.023	1.072	1071.5	pointing	Trial1	pointing/STIM_009.jpg	100
685.226	1.307	1306.9	pointing	Trial1	pointing/STIM_009.jpg	99
689.565	1.295	1295.4	pointing	Trial1	pointing/STIM_009.jpg	100
693.392	1.554	1553.6	pointing	Trial1	pointing/STIM_010.jpg	99
696.912	1.087	1087.4	pointing	Trial1	pointing/STIM_010.jpg	99
701.529	1.649	1649.0	pointing	Trial1	pointing/STIM_010.jpg	100
706.469	1.299	1298.8	pointing	Trial1	pointing/STIM_010.jpg	99
710.161	1.229	1228.9	pointing	Trial1	pointing/STIM_010.jpg	99
714.126	1.197	1196.9	pointing	Trial1	pointing/STIM_010.jpg	99
718.171	1.506	1506.3	pointing	Trial1	pointing/STIM_011.jpg	100
722.599	1.064	1063.7	pointing	Trial1	pointing/STIM_011.jpg	99
727.492	1.503	1503.4	pointing	Trial1	pointing/STIM_011.jpg	100
732.28	1.372	1372.2	pointing	Trial1	pointing/STIM_011.jpg	99
736.252	1.418	1418.5	pointing	Trial1	pointing/STIM_011.jpg	99
740.745	0.848	847.6	pointing	Trial1	pointing/STIM_011.jpg	100
743.621	2.336	2335.5	navigation	Trial2	navigation/STIM_000.jpg	99
748.775	3.381	3380.7	navigation	Trial2	navigation/STIM_000.jpg	100
754.978	3.934	3933.8	navigation	Trial2	navigation/STIM_000.jpg	99
761.367	3.357	3356.9	navigation	Trial2	navigation/STIM_000.jpg	99
767.869	2.143	2143.2	navigation	Trial2	navigation/STIM_000.jpg	99
773.486	1.562	1562.4	navigation	Trial2	navigation/STIM_000.jpg	100
777.361	2.966	2966.2	navigation	Trial2	navigation/STIM_001.jpg	100
783.867	2.186	2186.3	navigation	Trial2	navigation/STIM_001.jpg	99
788.139	2.643	2643.0	navigation	Trial2	navigation/STIM_001.jpg	99
793.429	2.827	2826.9	navigation	Trial2	navigation/STIM_001.jpg	100
798.283	2.451	2451.0	navigation	Trial2	navigation/STIM_001.jpg	99
803.403	2.661	2660.6	navigation	Trial2	navigation/STIM_001.jpg	99
808.432	2.929	2929.3	navigation	Trial2	navigation/STIM_002.jpg	99
814.321	3.353	3353.3	navigation	Trial2	navigation/STIM_002.jpg	99
820.178	2.775	2775.2	navigation	Trial2	navigation/STIM_002.jpg	99
826.629	1.961	1961.4	navigation	Trial2	navigation/STIM_002.jpg	99
830.738	2.037	2037.0	navigation	Trial2	navigation/STIM_002.jpg	99
835.517	3.091	3091.0	navigation	Trial2	navigation/STIM_002.jpg	99
841.236	2.417	2417.1	navigation	Trial2	navigation/STIM_003.jpg	100
847.541	2.089	2089.4	navigation	Trial2	navigation/STIM_003.jpg	99
853.072	1.538	1538.3	navigation	Trial2	navigation/STIM_003.jpg	100
857.865	2.875	2875.3	navigation	Trial2	navigation/STIM_003.jpg	99
863.777	3.264	3264.1	navigation	Trial2	navigation/STIM_003.jpg	100
870.647	1.739	1739.0	navigation	Trial2	navigation/STIM_003.jpg	100
875.149	2.045	2045.3	navigation	Trial2	navigation/STIM_004.jpg	99
879.78	3.453	3453.4	navigation	Trial2	navigation/STIM_004.jpg	100
886.239	2.326	2326.5	navigation	Trial2	navigation/STIM_004.jpg	99
891.638	3.477	3476.9	navigation	Trial2	navigation/STIM_004.jpg	100
897.915	3.405	3404.7	navigation	Trial2	navigation/STIM_004.jpg	100
903.542	2.558	2557.8	navigation	Trial2	navigation/STIM_004.jpg	99
908.389	4.088	4088.5	navigation	Trial2	navigation/STIM_005.jpg	100
916.297	2.433	2432.8	navigation	Trial2	navigation/STIM_005.jpg	99
922.024	1.603	1603.3	navigation	Trial2	navigation/STIM_005.jpg	100
926.957	1.496	1496.1	navigation	Trial2	navigation/STIM_005.jpg	100
930.427	2.127	2127.3	navigation	Trial2	navigation/STIM_005.jpg	100
934.769	1.862	1861.5	navigation	Trial2	navigation/STIM_005.jpg	99
939.408	1.863	1863.4	navigation	Trial2	navigation/STIM_006.jpg	99
943.499	1.854	1854.2	navigation	Trial2	navigation/STIM_006.jpg	100
947.278	2.069	2068.7	navigation	Trial2	navigation/STIM_006.jpg	99
951.991	1.88	1879.5	navigation	Trial2	navigation/STIM_006.jpg	100
955.975	1.581	1580.8	navigation	Trial2	navigation/STIM_006.jpg	100
959.626	3.39	3390.3	navigation	Trial2	navigation/STIM_006.jpg	100
966.225	3.123	3123.0	navigation	Trial2	navigation/STIM_007.jpg	100
972.211	3.22	3219.5	navigation	Trial2	navigation/STIM_007.jpg	99
977.716	3.394	3394.3	navigation	Trial2	navigation/STIM_007.jpg	100
983.38	2.89	2889.9	navigation	Trial2	navigation/STIM_007.jpg	99
989.945	3.018	3017.9	navigation	Trial2	navigation/STIM_007.jpg	100
995.517	1.542	1542.0	navigation	Trial2	navigation/STIM_007.jpg	99
1000.556	2.729	2729.0	navigation	Trial2	navigation/STIM_008.jpg	99
1005.854	3.964	3964.2	navigation	Trial2	navigation/STIM_008.jpg	100
1012.528	2.235	2235.0	navigation	Trial2	navigation/STIM_008.jpg	99
1017.011	3.609	3608.6	navigation	Trial2	navigation/STIM_008.jpg	100
1024.081	1.505	1504.9	navigation	Trial2	navigation/STIM_008.jpg	99
1029.123	2.821	2821.2	navigation	Trial2	navigation/STIM_008.jpg	100
1033.902	3.294	3293.7	navigation	Trial2	navigation/STIM_009.jpg	99
1040.177	1.989	1988.8	navigation	Trial2	navigation/STIM_009.jpg	99
1046.057	3.98	3980.2	navigation	Trial2	navigation/STIM_009.jpg	99
1052.045	1.562	1561.8	navigation	Trial2	navigation/STIM_009.jpg	100
1056.355	3.471	3471.2	navigation	Trial2	navigation/STIM_009.jpg	99
1063.618	1.949	1948.7	navigation	Trial2	navigation/STIM_009.jpg	100
1068.601	1.82	1820.0	navigation	Trial2	navigation/STIM_010.jpg	100
1072.625	1.843	1842.8	navigation	Trial2	navigation/STIM_010.jpg	99
1077.26	3.116	3115.9	navigation	Trial2	navigation/STIM_010.jpg	100
1082.898	2.082	2081.7	navigation	Trial2	navigation/STIM_010.jpg	100
1088.376	3.178	3177.9	navigation	Trial2	navigation/STIM_010.jpg	99
1094.839	1.817	1816.9	navigation	Trial2	navigation/STIM_010.jpg	100
1099.153	3.946	3946.0	navigation	Trial2	navigation/STIM_011.jpg	99
1106.67	3.49	3490.2	navigation	Trial2	navigation/STIM_011.jpg	100
1113.151	2.574	2573.5	navigation	Trial2	navigation/STIM_011.jpg	99
1119.633	2.671	2670.7	navigation	Trial2	navigation/STIM_011.jpg	100
1126.012	2.354	2353.5	navigation	Trial2	navigation/STIM_011.jpg	99
1130.938	2.377	2377.0	navigation	Trial2	navigation/STIM_011.jpg	100
1135.324	1.135	1135.0	pointing	Trial2	pointing/STIM_000.jpg	99
1138.538	0.872	872.3	pointing	Trial2	pointing/STIM_000.jpg	100
1141.759	1.193	1193.0	pointing	Trial2	pointing/STIM_000.jpg	99
1145.35	1.343	1343.2	pointing	Trial2	pointing/STIM_000.jpg	99
1150.442	1.412	1412.5	pointing	Trial2	pointing/STIM_000.jpg	100
1154.436	1.272	1271.9	pointing	Trial2	pointing/STIM_000.jpg	99
1158.408	0.882	882.3	pointing	Trial2	pointing/STIM_001.jpg	99
1162.101	0.887	886.7	pointing	Trial2	pointing/STIM_001.jpg	100
1165.664	1.092	1091.8	pointing	Trial2	pointing/STIM_001.jpg	100
1169.194	1.065	1065.1	pointing	Trial2	pointing/STIM_001.jpg	99
1173.961	1.093	1093.2	pointing	Trial2	pointing/STIM_001.jpg	99
1177.676	0.989	988.9	pointing	Trial2	pointing/STIM_001.jpg	99
1181.43	1.212	1212.3	pointing	Trial2	pointing/STIM_002.jpg	99
1185.377	1.06	1059.5	pointing	Trial2	pointing/STIM_002.jpg	100
1189.906	0.878	877.6	pointing	Trial2	pointing/STIM_002.jpg	99
1194.716	0.936	936.5	pointing	Trial2	pointing/STIM_002.jpg	100
1198.128	1.042	1042.4	pointing	Trial2	pointing/STIM_002.jpg	99
1202.43	1.308	1308.3	pointing	Trial2	pointing/STIM_002.jpg	100
1205.86	0.947	947.2	pointing	Trial2	pointing/STIM_003.jpg	99
1210.391	1.496	1495.6	pointing	Trial2	pointing/STIM_003.jpg	100
1215.602	1.015	1015.3	pointing	Trial2	pointing/STIM_003.jpg	99
1220.407	0.965	965.2	pointing	Trial2	pointing/STIM_003.jpg	100
1225.145	1.26	1260.1	pointing	Trial2	pointing/STIM_003.jpg	99
1229.525	1.305	1305.2	pointing	Trial2	pointing/STIM_003.jpg	100
1234.657	0.964	964.3	pointing	Trial2	pointing/STIM_004.jpg	100
1237.739	1.522	1522.2	pointing	Trial2	pointing/STIM_004.jpg	100
1241.645	1.059	1059.3	pointing	Trial2	pointing/STIM_004.jpg	99
1246.358	1.375	1374.9	pointing	Trial2	pointing/STIM_004.jpg	100
1250.211	1.569	1569.1	pointing	Trial2	pointing/STIM_004.jpg	100
1254.23	1.067	1067.0	pointing	Trial2	pointing/STIM_004.jpg	99
1259.017	1.475	1474.9	pointing	Trial2	pointing/STIM_005.jpg	99
1262.503	1.403	1403.3	pointing	Trial2	pointing/STIM_005.jpg	100
1266.451	1.285	1285.0	pointing	Trial2	pointing/STIM_005.jpg	100
1271.203	1.578	1578.2	pointing	Trial2	pointing/STIM_005.jpg	100
1275.738	1.01	1009.6	pointing	Trial2	pointing/STIM_005.jpg	99
1278.803	1.415	1415.4	pointing	Trial2	pointing/STIM_005.jpg	100
1283.291	1.449	1449.4	pointing	Trial2	pointing/STIM_006.jpg	100
1286.909	1.294	1293.6	pointing	Trial2	pointing/STIM_006.jpg	100
1290.381	0.871	870.7	pointing	Trial2	pointing/STIM_006.jpg	100
1293.804	0.893	893.3	pointing	Trial2	pointing/STIM_006.jpg	99
1297.06	1.337	1337.3	pointing	Trial2	pointing/STIM_006.jpg	100
1300.366	1.38	1380.3	pointing	Trial2	pointing/STIM_006.jpg	99
1303.806	1.271	1271.3	pointing	Trial2	pointing/STIM_007.jpg	100
1308.538	1.111	1110.9	pointing	Trial2	pointing/STIM_007.jpg	100
1311.881	1.332	1332.5	pointing	Trial2	pointing/STIM_007.jpg	99
1317.062	1.136	1136.0	pointing	Trial2	pointing/STIM_007.jpg	100
1321.375	1.005	1004.6	pointing	Trial2	pointing/STIM_007.jpg	100
1325.28	1.208	1207.6	pointing	Trial2	pointing/STIM_007.jpg	99
1329.093	1.199	1198.7	pointing	Trial2	pointing/STIM_008.jpg	99
1333.487	1.412	1411.6	pointing	Trial2	pointing/STIM_008.jpg	99
1337.41	1.065	1065.0	pointing	Trial2	pointing/STIM_008.jpg	99
1341.565	0.99	989.5	pointing	Trial2	pointing/STIM_008.jpg	100
1344.874	1.49	1490.5	pointing	Trial2	pointing/STIM_008.jpg	99
1348.569	1.338	1337.5	pointing	Trial2	pointing/STIM_008.jpg	99
1353.863	1.336	1336.1	pointing	Trial2	pointing/STIM_009.jpg	99
1358.831	0.919	919.3	pointing	Trial2	pointing/STIM_009.jpg	99
1362.759	1.319	1319.0	pointing	Trial2	pointing/STIM_009.jpg	100
1367.011	1.576	1575.7	pointing	Trial2	pointing/STIM_009.jpg	100
1371.218	1.089	1088.7	pointing	Trial2	pointing/STIM_009.jpg	99
1374.624	1.543	1543.4	pointing	Trial2	pointing/STIM_009.jpg	100
1378.532	0.907	907.1	pointing	Trial2	pointing/STIM_010.jpg	100
1383.257	0.974	974.2	pointing	Trial2	pointing/STIM_010.jpg	100
1386.343	1.177	1177.2	pointing	Trial2	pointing/STIM_010.jpg	100
1391.069	1.098	1098.4	pointing	Trial2	pointing/STIM_010.jpg	100
1394.915	1.034	1034.0	pointing	Trial2	pointing/STIM_010.jpg	99
1398.702	0.935	935.0	pointing	Trial2	pointing/STIM_010.jpg	99
1402.734	1.515	1515.2	pointing	Trial2	pointing/STIM_011.jpg	99
1406.186	1.564	1564.5	pointing	Trial2	pointing/STIM_011.jpg	100
1411.063	1.093	1093.1	pointing	Trial2	pointing/STIM_011.jpg	100
1415.943	1.228	1227.5	pointing	Trial2	pointing/STIM_011.jpg	100
1419.133	1.127	1127.1	pointing	Trial2	pointing/STIM_011.jpg	100
1422.703	1.681	1680.8	pointing	Trial2	pointing/STIM_011.jpg	100
1426.633	3.374	3373.5	navigation	Trial3	navigation/STIM_000.jpg	99
1432.77	1.472	1472.3	navigation	Trial3	navigation/STIM_000.jpg	100
1436.621	1.954	1953.7	navigation	Trial3	navigation/STIM_000.jpg	99
1442.28	2.156	2155.6	navigation	Trial3	navigation/STIM_000.jpg	100
1446.59	1.804	1804.0	navigation	Trial3	navigation/STIM_000.jpg	99
1451.815	3.13	3130.3	navigation	Trial3	navigation/STIM_000.jpg	100
1458.496	1.912	1911.9	navigation	Trial3	navigation/STIM_001.jpg	100
1462.481	2.208	2208.0	navigation	Trial3	navigation/STIM_001.jpg	99
1468.295	1.791	1791.2	navigation	Trial3	navigation/STIM_001.jpg	99
1473.107	2.96	2959.7	navigation	Trial3	navigation/STIM_001.jpg	100
1479.92	2.762	2761.5	navigation	Trial3	navigation/STIM_001.jpg	100
1485.387	2.435	2434.6	navigation	Trial3	navigation/STIM_001.jpg	99
1490.384	3.344	3344.5	navigation	Trial3	navigation/STIM_002.jpg	99
1497.001	3.618	3618.1	navigation	Trial3	navigation/STIM_002.jpg	100
1503.742	1.713	1712.8	navigation	Trial3	navigation/STIM_002.jpg	99
1508.655	2.784	2783.8	navigation	Trial3	navigation/STIM_002.jpg	100
1514.062	2.88	2879.5	navigation	Trial3	navigation/STIM_002.jpg	100
1519.549	2.924	2923.5	navigation	Trial3	navigation/STIM_002.jpg	100
1525.346	3.068	3068.4	navigation	Trial3	navigation/STIM_003.jpg	99
1531.236	3.115	3115.0	navigation	Trial3	navigation/STIM_003.jpg	99
1538.053	1.714	1714.3	navigation	Trial3	navigation/STIM_003.jpg	100
1543.341	2.895	2894.6	navigation	Trial3	navigation/STIM_003.jpg	100
1549.093	2.311	2311.0	navigation	Trial3	navigation/STIM_003.jpg	100
1554.436	3.238	3237.6	navigation	Trial3	navigation/STIM_003.jpg	99
1560.321	3.243	3243.1	navigation	Trial3	navigation/STIM_004.jpg	99
1567.126	3.446	3446.0	navigation	Trial3	navigation/STIM_004.jpg	100
1573.185	1.679	1678.6	navigation	Trial3	navigation/STIM_004.jpg	100
1578.382	1.801	1800.7	navigation	Trial3	navigation/STIM_004.jpg	100
1583.305	1.733	1732.7	navigation	Trial3	navigation/STIM_004.jpg	100
1587.936	2.262	2261.7	navigation	Trial3	navigation/STIM_004.jpg	100
1592.535	2.63	2630.5	navigation	Trial3	navigation/STIM_005.jpg	99
1597.722	2.867	2866.7	navigation	Trial3	navigation/STIM_005.jpg	100
1602.653	2.179	2179.0	navigation	Trial3	navigation/STIM_005.jpg	100
1607.211	2.177	2176.7	navigation	Trial3	navigation/STIM_005.jpg	100
1613.079	1.617	1616.9	navigation	Trial3	navigation/STIM_005.jpg	100
1618.487	2.655	2655.0	navigation	Trial3	navigation/STIM_005.jpg	100
1623.288	1.497	1496.9	navigation	Trial3	navigation/STIM_006.jpg	99
1627.874	2.765	2764.8	navigation	Trial3	navigation/STIM_006.jpg	100
1633.45	2.671	2671.0	navigation	Trial3	navigation/STIM_006.jpg	100
1638.273	3.219	3219.0	navigation	Trial3	navigation/STIM_006.jpg	99
1644.731	1.565	1565.1	navigation	Trial3	navigation/STIM_006.jpg	100
1649.95	2.456	2455.6	navigation	Trial3	navigation/STIM_006.jpg	100
1655.044	3.347	3347.0	navigation	Trial3	navigation/STIM_007.jpg	100
1660.222	2.226	2226.4	navigation	Trial3	navigation/STIM_007.jpg	100
1665.054	2.021	2021.0	navigation	Trial3	navigation/STIM_007.jpg	100
1669.932	2.197	2196.7	navigation	Trial3	navigation/STIM_007.jpg	100
1675.898	2.796	2796.4	navigation	Trial3	navigation/STIM_007.jpg	100
1682.235	2.171	2171.0	navigation	Trial3	navigation/STIM_007.jpg	99
1686.378	1.631	1630.6	navigation	Trial3	navigation/STIM_008.jpg	99
1691.799	3.362	3362.4	navigation	Trial3	navigation/STIM_008.jpg	100
1697.735	3.401	3401.2	navigation	Trial3	navigation/STIM_008.jpg	100
1703.155	2.335	2335.4	navigation	Trial3	navigation/STIM_008.jpg	100
1708.047	3.62	3619.5	navigation	Trial3	navigation/STIM_008.jpg	99
1715.34	2.025	2025.1	navigation	Trial3	navigation/STIM_008.jpg	99
1719.308	2.232	2231.6	navigation	Trial3	navigation/STIM_009.jpg	100
1723.852	2.75	2749.5	navigation	Trial3	navigation/STIM_009.jpg	99
1728.476	2.118	2118.5	navigation	Trial3	navigation/STIM_009.jpg	99
1734.384	1.896	1895.7	navigation	Trial3	navigation/STIM_009.jpg	100
1738.622	3.464	3463.6	navigation	Trial3	navigation/STIM_009.jpg	99
1744.872	1.64	1639.5	navigation	Trial3	navigation/STIM_009.jpg	100
1749.812	3.016	3016.3	navigation	Trial3	navigation/STIM_010.jpg	100
1756.474	3.603	3602.9	navigation	Trial3	navigation/STIM_010.jpg	100
1761.987	3.04	3039.5	navigation	Trial3	navigation/STIM_010.jpg	100
1768.13	1.835	1834.9	navigation	Trial3	navigation/STIM_010.jpg	99
1772.566	2.115	2115.4	navigation	Trial3	navigation/STIM_010.jpg	100
1776.743	3.394	3393.8	navigation	Trial3	navigation/STIM_010.jpg	99
1783.127	2.61	2609.6	navigation	Trial3	navigation/STIM_011.jpg	99
1787.713	2.245	2245.4	navigation	Trial3	navigation/STIM_011.jpg	99
1793.683	2.052	2051.9	navigation	Trial3	navigation/STIM_011.jpg	99
1797.901	1.699	1699.2	navigation	Trial3	navigation/STIM_011.jpg	100
1803.43	2.904	2903.7	navigation	Trial3	navigation/STIM_011.jpg	100
1808.337	2.605	2605.4	navigation	Trial3	navigation/STIM_011.jpg	99
1814.369	1.098	1098.5	pointing	Trial3	pointing/STIM_000.jpg	100
1817.91	1.239	1239.1	pointing	Trial3	pointing/STIM_000.jpg	100
1822.967	1.242	1242.3	pointing	Trial3	pointing/STIM_000.jpg	100
1827.252	1.305	1305.4	pointing	Trial3	pointing/STIM_000.jpg	99
1831.883	1.139	1139.0	pointing	Trial3	pointing/STIM_000.jpg	99
1835.011	1.233	1232.6	pointing	Trial3	pointing/STIM_000.jpg	100
1838.44	0.78	780.5	pointing	Trial3	pointing/STIM_001.jpg	99
1842.232	1.225	1225.0	pointing	Trial3	pointing/STIM_001.jpg	100
1847.423	1.437	1437.0	pointing	Trial3	pointing/STIM_001.jpg	100
1851.889	0.918	917.5	pointing	Trial3	pointing/STIM_001.jpg	99
1856.506	1.237	1237.4	pointing	Trial3	pointing/STIM_001.jpg	100
1861.174	1.381	1381.1	pointing	Trial3	pointing/STIM_001.jpg	100
1866.226	1.009	1009.4	pointing	Trial3	pointing/STIM_002.jpg	99
1870.643	1.018	1017.6	pointing	Trial3	pointing/STIM_002.jpg	99
1874.5	1.337	1336.8	pointing	Trial3	pointing/STIM_002.jpg	99
1878.91	0.974	974.3	pointing	Trial3	pointing/STIM_002.jpg	100
1883.928	1.162	1161.6	pointing	Trial3	pointing/STIM_002.jpg	99
1888.31	1.472	1472.4	pointing	Trial3	pointing/STIM_002.jpg	100
1893.672	1.209	1209.3	pointing	Trial3	pointing/STIM_003.jpg	100
1898.828	1.067	1067.2	pointing	Trial3	pointing/STIM_003.jpg	100
1902.709	1.284	1284.4	pointing	Trial3	pointing/STIM_003.jpg	100
1906.58	1.544	1544.2	pointing	Trial3	pointing/STIM_003.jpg	99
1911.444	1.507	1506.8	pointing	Trial3	pointing/STIM_003.jpg	99
1915.578	1.593	1593.4	pointing	Trial3	pointing/STIM_003.jpg	100
1919.665	1.513	1512.9	pointing	Trial3	pointing/STIM_004.jpg	99
1923.487	1.448	1448.0	pointing	Trial3	pointing/STIM_004.jpg	100
1928.228	0.96	959.9	pointing	Trial3	pointing/STIM_004.jpg	100
1933.008	0.905	905.2	pointing	Trial3	pointing/STIM_004.jpg	100
1936.896	1.061	1060.8	pointing	Trial3	pointing/STIM_004.jpg	99
1940.053	0.961	961.2	pointing	Trial3	pointing/STIM_004.jpg	99
1944.775	1.191	1191.3	pointing	Trial3	pointing/STIM_005.jpg	99
1948.056	1.473	1472.9	pointing	Trial3	pointing/STIM_005.jpg	99
1952.141	1.107	1106.6	pointing	Trial3	pointing/STIM_005.jpg	99
1955.931	0.922	921.9	pointing	Trial3	pointing/STIM_005.jpg	100
1960.096	1.294	1293.9	pointing	Trial3	pointing/STIM_005.jpg	100
1963.466	1.026	1025.5	pointing	Trial3	pointing/STIM_005.jpg	99
1966.734	1.13	1130.3	pointing	Trial3	pointing/STIM_006.jpg	99
1969.79	1.121	1120.9	pointing	Trial3	pointing/STIM_006.jpg	99
1974.77	1.217	1217.3	pointing	Trial3	pointing/STIM_006.jpg	100
1978.871	0.896	896.1	pointing	Trial3	pointing/STIM_006.jpg	99
1982.579	1.012	1011.7	pointing	Trial3	pointing/STIM_006.jpg	99
1986.697	1.26	1260.3	pointing	Trial3	pointing/STIM_006.jpg	99
1991.311	1.444	1444.1	pointing	Trial3	pointing/STIM_007.jpg	99
1995.532	1.096	1095.7	pointing	Trial3	pointing/STIM_007.jpg	99
1999.92	0.859	859.1	pointing	Trial3	pointing/STIM_007.jpg	99
2004.534	0.922	922.4	pointing	Trial3	pointing/STIM_007.jpg	100
2007.809	0.91	909.9	pointing	Trial3	pointing/STIM_007.jpg	99
2012.179	1.249	1249.3	pointing	Trial3	pointing/STIM_007.jpg	99
2016.794	1.496	1495.9	pointing	Trial3	pointing/STIM_008.jpg	100
2022.121	1.057	1056.6	pointing	Trial3	pointing/STIM_008.jpg	100
2027.113	0.902	902.4	pointing	Trial3	pointing/STIM_008.jpg	100
2030.156	1.269	1269.3	pointing	Trial3	pointing/STIM_008.jpg	100
2035.223	1.443	1443.1	pointing	Trial3	pointing/STIM_008.jpg	100
2038.912	1.285	1284.9	pointing	Trial3	pointing/STIM_008.jpg	99
2042.731	1.411	1411.4	pointing	Trial3	pointing/STIM_009.jpg	99
2047.701	1.452	1451.7	pointing	Trial3	pointing/STIM_009.jpg	99
2052.214	1.491	1490.6	pointing	Trial3	pointing/STIM_009.jpg	100
2056.043	0.876	876.3	pointing	Trial3	pointing/STIM_009.jpg	99
2058.973	1.245	1245.1	pointing	Trial3	pointing/STIM_009.jpg	99
2062.959	1.359	1358.6	pointing	Trial3	pointing/STIM_009.jpg	100
2066.916	1.002	1002.3	pointing	Trial3	pointing/STIM_010.jpg	100
2070.947	1.303	1303.3	pointing	Trial3	pointing/STIM_010.jpg	99
2074.848	1.524	1524.5	pointing	Trial3	pointing/STIM_010.jpg	100
2079.486	0.863	862.8	pointing	Trial3	pointing/STIM_010.jpg	100
2084.013	1.566	1565.8	pointing	Trial3	pointing/STIM_010.jpg	100
2089.187	1.44	1439.9	pointing	Trial3	pointing/STIM_010.jpg	100
2093.756	1.522	1522.5	pointing	Trial3	pointing/STIM_011.jpg	100
2097.92	1.25	1249.8	pointing	Trial3	pointing/STIM_011.jpg	100
2102.253	1.184	1184.5	pointing	Trial3	pointing/STIM_011.jpg	100
2105.58	1.387	1386.7	pointing	Trial3	pointing/STIM_011.jpg	99
2110.653	1.533	1532.6	pointing	Trial3	pointing/STIM_011.jpg	100
2115.034	1.137	1137.0	pointing	Trial3	pointing/STIM_011.jpg	99
