onset	duration	accuracy_binary	trial_type	learning_stage	stimulus
0.0	1.162	1	incongruent	Block1	incongruent/STIM_000.jpg
5.092	0.699	1	incongruent	Block1	incongruent/STIM_000.jpg
8.998	0.993	0	incongruent	Block1	incongruent/STIM_000.jpg
13.02	0.734	1	incongruent	Block1	incongruent/STIM_000.jpg
17.219	0.809	1	incongruent	Block1	incongruent/STIM_000.jpg
20.613	1.321	1	incongruent	Block1	incongruent/STIM_001.jpg
25.766	1.296	1	incongruent	Block1	incongruent/STIM_001.jpg
30.358	1.217	1	incongruent	Block1	incongruent/STIM_001.jpg
34.751	1.127	1	incongruent	Block1	incongruent/STIM_001.jpg
39.499	0.876	0	incongruent	Block1	incongruent/STIM_001.jpg
43.054	1.398	1	incongruent	Block1	incongruent/STIM_002.jpg
47.276	1.082	1	incongruent	Block1	incongruent/STIM_002.jpg
51.867	0.817	1	incongruent	Block1	incongruent/STIM_002.jpg
55.771	0.796	1	incongruent	Block1	incongruent/STIM_002.jpg
60.522	0.963	1	incongruent	Block1	incongruent/STIM_002.jpg
65.109	0.74	1	incongruent	Block1	incongruent/STIM_003.jpg
69.15	0.936	1	incongruent	Block1	incongruent/STIM_003.jpg
72.612	0.752	1	incongruent	Block1	incongruent/STIM_003.jpg
77.126	0.824	1	incongruent	Block1	incongruent/STIM_003.jpg
81.53	0.905	1	incongruent	Block1	incongruent/STIM_003.jpg
85.829	0.81	1	incongruent	Block1	incongruent/STIM_004.jpg
88.736	1.062	1	incongruent	Block1	incongruent/STIM_004.jpg
92.621	0.877	1	incongruent	Block1	incongruent/STIM_004.jpg
97.221	0.721	1	incongruent	Block1	incongruent/STIM_004.jpg
101.834	0.871	1	incongruent	Block1	incongruent/STIM_004.jpg
106.04	1.105	1	incongruent	Block1	incongruent/STIM_005.jpg
109.928	1.206	1	incongruent	Block1	incongruent/STIM_005.jpg
113.804	0.593	1	incongruent	Block1	incongruent/STIM_005.jpg
117.229	0.784	1	incongruent	Block1	incongruent/STIM_005.jpg
121.417	0.871	1	incongruent	Block1	incongruent/STIM_005.jpg
126.314	1.327	1	incongruent	Block1	incongruent/STIM_006.jpg
129.923	0.638	1	incongruent	Block1	incongruent/STIM_006.jpg
133.515	0.956	1	incongruent	Block1	incongruent/STIM_006.jpg
136.53	0.843	1	incongruent	Block1	incongruent/STIM_006.jpg
140.979	0.699	1	incongruent	Block1	incongruent/STIM_006.jpg
144.236	1.138	1	incongruent	Block1	incongruent/STIM_007.jpg
147.921	1.201	1	incongruent	Block1	incongruent/STIM_007.jpg
151.268	0.739	1	incongruent	Block1	incongruent/STIM_007.jpg
155.507	0.762	1	incongruent	Block1	incongruent/STIM_007.jpg
158.757	0.794	1	incongruent	Block1	incongruent/STIM_007.jpg
163.098	0.832	1	incongruent	Block1	incongruent/STIM_008.jpg
167.29	0.857	1	incongruent	Block1	incongruent/STIM_008.jpg
171.321	0.651	1	incongruent	Block1	incongruent/STIM_008.jpg
174.451	0.855	1	incongruent	Block1	incongruent/STIM_008.jpg
178.163	1.017	1	incongruent	Block1	incongruent/STIM_008.jpg
182.686	0.989	1	incongruent	Block1	incongruent/STIM_009.jpg
186.982	0.982	1	incongruent	Block1	incongruent/STIM_009.jpg
191.522	0.727	0	incongruent	Block1	incongruent/STIM_009.jpg
194.666	0.601	1	incongruent	Block1	incongruent/STIM_009.jpg
199.269	0.796	1	incongruent	Block1	incongruent/STIM_009.jpg
203.563	0.73	1	incongruent	Block1	incongruent/STIM_010.jpg
207.325	1.236	1	incongruent	Block1	incongruent/STIM_010.jpg
210.871	0.753	1	incongruent	Block1	incongruent/STIM_010.jpg
215.329	0.568	1	incongruent	Block1	incongruent/STIM_010.jpg
219.085	0.912	1	incongruent	Block1	incongruent/STIM_010.jpg
223.092	1.344	1	incongruent	Block1	incongruent/STIM_011.jpg
226.711	1.068	1	incongruent	Block1	incongruent/STIM_011.jpg
231.581	0.681	1	incongruent	Block1	incongruent/STIM_011.jpg
235.787	0.832	1	incongruent	Block1	incongruent/STIM_011.jpg
240.335	0.593	1	incongruent	Block1	incongruent/STIM_011.jpg
243.585	0.687	1	incongruent	Block1	incongruent/STIM_012.jpg
247.628	0.636	1	incongruent	Block1	incongruent/STIM_012.jpg
251.851	1.159	0	incongruent	Block1	incongruent/STIM_012.jpg
255.517	0.572	1	incongruent	Block1	incongruent/STIM_012.jpg
260.019	0.635	0	incongruent	Block1	incongruent/STIM_012.jpg
264.171	1.128	1	incongruent	Block1	incongruent/STIM_013.jpg
268.455	1.286	1	incongruent	Block1	incongruent/STIM_013.jpg
272.358	1.255	1	incongruent	Block1	incongruent/STIM_013.jpg
277.548	1.067	1	incongruent	Block1	incongruent/STIM_013.jpg
281.908	0.794	1	incongruent	Block1	incongruent/STIM_013.jpg
285.152	1.322	1	incongruent	Block1	incongruent/STIM_014.jpg
290.029	1.181	1	incongruent	Block1	incongruent/STIM_014.jpg
295.132	1.288	1	incongruent	Block1	incongruent/STIM_014.jpg
299.285	0.674	1	incongruent	Block1	incongruent/STIM_014.jpg
303.782	0.896	1	incongruent	Block1	incongruent/STIM_014.jpg
308.081	0.795	1	incongruent	Block1	incongruent/STIM_015.jpg
311.81	0.919	1	incongruent	Block1	incongruent/STIM_015.jpg
315.989	0.679	1	incongruent	Block1	incongruent/STIM_015.jpg
319.389	1.278	1	incongruent	Block1	incongruent/STIM_015.jpg
322.807	1.019	1	incongruent	Block1	incongruent/STIM_015.jpg
326.053	1.399	0	incongruent	Block1	incongruent/STIM_016.jpg
330.937	0.728	1	incongruent	Block1	incongruent/STIM_016.jpg
334.922	1.141	1	incongruent	Block1	incongruent/STIM_016.jpg
339.694	0.725	1	incongruent	Block1	incongruent/STIM_016.jpg
344.117	0.646	1	incongruent	Block1	incongruent/STIM_016.jpg
347.848	1.066	1	incongruent	Block1	incongruent/STIM_017.jpg
351.694	0.791	1	incongruent	Block1	incongruent/STIM_017.jpg
355.762	0.778	1	incongruent	Block1	incongruent/STIM_017.jpg
360.585	0.726	1	incongruent	Block1	incongruent/STIM_017.jpg
364.736	0.668	1	incongruent	Block1	incongruent/STIM_017.jpg
367.916	0.898	1	incongruent	Block1	incongruent/STIM_018.jpg
370.98	1.051	0	incongruent	Block1	incongruent/STIM_018.jpg
375.811	0.928	1	incongruent	Block1	incongruent/STIM_018.jpg
378.914	0.538	1	incongruent	Block1	incongruent/STIM_018.jpg
382.868	0.81	0	incongruent	Block1	incongruent/STIM_018.jpg
387.164	0.978	1	incongruent	Block1	incongruent/STIM_019.jpg
390.286	1.406	1	incongruent	Block1	incongruent/STIM_019.jpg
394.719	0.872	0	incongruent	Block1	incongruent/STIM_019.jpg
398.435	1.027	1	incongruent	Block1	incongruent/STIM_019.jpg
402.616	0.973	1	incongruent	Block1	incongruent/STIM_019.jpg
406.776	0.903	1	incongruent	Block1	incongruent/STIM_020.jpg
410.294	1.286	1	incongruent	Block1	incongruent/STIM_020.jpg
415.419	0.796	1	incongruent	Block1	incongruent/STIM_020.jpg
419.141	0.808	1	incongruent	Block1	incongruent/STIM_020.jpg
423.887	0.851	1	incongruent	Block1	incongruent/STIM_020.jpg
426.951	1.042	1	incongruent	Block1	incongruent/STIM_021.jpg
431.174	1.068	1	incongruent	Block1	incongruent/STIM_021.jpg
436.059	0.625	1	incongruent	Block1	incongruent/STIM_021.jpg
439.915	0.544	1	incongruent	Block1	incongruent/STIM_021.jpg
444.486	0.855	1	incongruent	Block1	incongruent/STIM_021.jpg
448.475	0.729	0	incongruent	Block1	incongruent/STIM_022.jpg
453.157	0.668	1	incongruent	Block1	incongruent/STIM_022.jpg
457.162	0.947	1	incongruent	Block1	incongruent/STIM_022.jpg
461.856	0.651	1	incongruent	Block1	incongruent/STIM_022.jpg
465.016	0.834	1	incongruent	Block1	incongruent/STIM_022.jpg
468.519	1.096	1	incongruent	Block1	incongruent/STIM_023.jpg
473.246	0.748	1	incongruent	Block1	incongruent/STIM_023.jpg
477.562	0.642	1	incongruent	Block1	incongruent/STIM_023.jpg
481.724	0.594	1	incongruent	Block1	incongruent/STIM_023.jpg
484.399	0.967	1	incongruent	Block1	incongruent/STIM_023.jpg
488.114	0.956	1	incongruent	Block1	incongruent/STIM_024.jpg
492.421	1.273	1	incongruent	Block1	incongruent/STIM_024.jpg
496.397	1.19	1	incongruent	Block1	incongruent/STIM_024.jpg
500.281	0.72	1	incongruent	Block1	incongruent/STIM_024.jpg
504.262	0.873	1	incongruent	Block1	incongruent/STIM_024.jpg
507.696	0.696	1	incongruent	Block1	incongruent/STIM_025.jpg
510.727	1.259	1	incongruent	Block1	incongruent/STIM_025.jpg
515.781	0.615	1	incongruent	Block1	incongruent/STIM_025.jpg
518.695	0.817	1	incongruent	Block1	incongruent/STIM_025.jpg
521.915	0.707	1	incongruent	Block1	incongruent/STIM_025.jpg
526.215	1.2	1	incongruent	Block1	incongruent/STIM_026.jpg
530.814	0.846	0	incongruent	Block1	incongruent/STIM_026.jpg
533.992	0.791	1	incongruent	Block1	incongruent/STIM_026.jpg
537.589	0.756	1	incongruent	Block1	incongruent/STIM_026.jpg
541.059	1.111	1	incongruent	Block1	incongruent/STIM_026.jpg
544.227	1.078	1	incongruent	Block1	incongruent/STIM_027.jpg
547.835	1.14	1	incongruent	Block1	incongruent/STIM_027.jpg
551.384	0.818	1	incongruent	Block1	incongruent/STIM_027.jpg
554.758	1.058	1	incongruent	Block1	incongruent/STIM_027.jpg
558.42	0.893	1	incongruent	Block1	incongruent/STIM_027.jpg
561.557	1.028	1	incongruent	Block1	incongruent/STIM_028.jpg
565.517	1.084	1	incongruent	Block1	incongruent/STIM_028.jpg
570.45	0.833	1	incongruent	Block1	incongruent/STIM_028.jpg
574.081	0.655	1	incongruent	Block1	incongruent/STIM_028.jpg
578.386	1.2	1	incongruent	Block1	incongruent/STIM_028.jpg
581.982	0.868	1	incongruent	Block1	incongruent/STIM_029.jpg
585.291	0.626	1	incongruent	Block1	incongruent/STIM_029.jpg
589.09	0.657	1	incongruent	Block1	incongruent/STIM_029.jpg
593.287	0.565	1	incongruent	Block1	incongruent/STIM_029.jpg
596.653	0.956	1	incongruent	Block1	incongruent/STIM_029.jpg
601.18	0.678	1	congruent	Block1	congruent/STIM_000.jpg
604.68	0.571	1	congruent	Block1	congruent/STIM_000.jpg
608.929	0.642	1	congruent	Block1	congruent/STIM_000.jpg
612.089	0.678	1	congruent	Block1	congruent/STIM_000.jpg
616.207	0.836	1	congruent	Block1	congruent/STIM_000.jpg
619.172	0.541	0	congruent	Block1	congruent/STIM_001.jpg
622.678	0.632	1	congruent	Block1	congruent/STIM_001.jpg
625.82	0.579	1	congruent	Block1	congruent/STIM_001.jpg
630.402	0.65	1	congruent	Block1	congruent/STIM_001.jpg
633.953	0.751	1	congruent	Block1	congruent/STIM_001.jpg
637.797	0.693	1	congruent	Block1	congruent/STIM_002.jpg
641.061	0.514	1	congruent	Block1	congruent/STIM_002.jpg
644.078	0.711	1	congruent	Block1	congruent/STIM_002.jpg
647.268	0.713	1	congruent	Block1	congruent/STIM_002.jpg
650.94	0.547	1	congruent	Block1	congruent/STIM_002.jpg
655.129	0.771	1	congruent	Block1	congruent/STIM_003.jpg
659.2	0.775	1	congruent	Block1	congruent/STIM_003.jpg
663.98	0.609	1	congruent	Block1	congruent/STIM_003.jpg
668.157	0.824	1	congruent	Block1	congruent/STIM_003.jpg
671.945	0.744	1	congruent	Block1	congruent/STIM_003.jpg
676.039	0.692	1	congruent	Block1	congruent/STIM_004.jpg
679.158	0.606	1	congruent	Block1	congruent/STIM_004.jpg
682.269	0.558	1	congruent	Block1	congruent/STIM_004.jpg
685.917	0.708	1	congruent	Block1	congruent/STIM_004.jpg
689.697	0.534	1	congruent	Block1	congruent/STIM_004.jpg
694.113	0.773	1	congruent	Block1	congruent/STIM_005.jpg
698.621	0.634	1	congruent	Block1	congruent/STIM_005.jpg
702.282	0.733	1	congruent	Block1	congruent/STIM_005.jpg
707.022	0.749	1	congruent	Block1	congruent/STIM_005.jpg
711.19	0.626	1	congruent	Block1	congruent/STIM_005.jpg
715.141	0.636	1	congruent	Block1	congruent/STIM_006.jpg
719.702	0.777	1	congruent	Block1	congruent/STIM_006.jpg
724.013	0.86	1	congruent	Block1	congruent/STIM_006.jpg
728.748	0.658	1	congruent	Block1	congruent/STIM_006.jpg
732.173	0.61	1	congruent	Block1	congruent/STIM_006.jpg
736.124	0.635	1	congruent	Block1	congruent/STIM_007.jpg
739.666	0.769	1	congruent	Block1	congruent/STIM_007.jpg
744.41	0.614	1	congruent	Block1	congruent/STIM_007.jpg
748.528	0.583	1	congruent	Block1	congruent/STIM_007.jpg
751.354	0.641	1	congruent	Block1	congruent/STIM_007.jpg
754.947	0.698	1	congruent	Block1	congruent/STIM_008.jpg
758.255	0.674	1	congruent	Block1	congruent/STIM_008.jpg
761.088	0.847	1	congruent	Block1	congruent/STIM_008.jpg
765.703	0.574	1	congruent	Block1	congruent/STIM_008.jpg
770.285	0.749	1	congruent	Block1	congruent/STIM_008.jpg
773.715	0.722	0	congruent	Block1	congruent/STIM_009.jpg
777.716	0.641	1	congruent	Block1	congruent/STIM_009.jpg
781.41	0.631	0	congruent	Block1	congruent/STIM_009.jpg
784.055	0.63	1	congruent	Block1	congruent/STIM_009.jpg
787.035	0.708	1	congruent	Block1	congruent/STIM_009.jpg
790.951	0.796	1	congruent	Block1	congruent/STIM_010.jpg
794.476	0.865	1	congruent	Block1	congruent/STIM_010.jpg
798.04	0.588	1	congruent	Block1	congruent/STIM_010.jpg
800.801	0.75	1	congruent	Block1	congruent/STIM_010.jpg
805.243	0.425	1	congruent	Block1	congruent/STIM_010.jpg
809.592	0.409	1	congruent	Block1	congruent/STIM_011.jpg
812.55	0.693	0	congruent	Block1	congruent/STIM_011.jpg
816.934	0.505	1	congruent	Block1	congruent/STIM_011.jpg
819.937	0.526	1	congruent	Block1	congruent/STIM_011.jpg
822.826	0.69	1	congruent	Block1	congruent/STIM_011.jpg
826.476	0.447	1	congruent	Block1	congruent/STIM_012.jpg
830.575	0.6	1	congruent	Block1	congruent/STIM_012.jpg
834.032	0.937	1	congruent	Block1	congruent/STIM_012.jpg
837.348	0.763	1	congruent	Block1	congruent/STIM_012.jpg
841.221	0.596	0	congruent	Block1	congruent/STIM_012.jpg
844.528	0.571	1	congruent	Block1	congruent/STIM_013.jpg
847.976	0.589	1	congruent	Block1	congruent/STIM_013.jpg
851.695	0.577	1	congruent	Block1	congruent/STIM_013.jpg
855.076	0.633	1	congruent	Block1	congruent/STIM_013.jpg
857.943	0.843	1	congruent	Block1	congruent/STIM_013.jpg
862.126	0.806	1	congruent	Block1	congruent/STIM_014.jpg
866.325	0.577	1	congruent	Block1	congruent/STIM_014.jpg
869.832	0.72	1	congruent	Block1	congruent/STIM_014.jpg
872.691	0.539	1	congruent	Block1	congruent/STIM_014.jpg
875.483	0.776	1	congruent	Block1	congruent/STIM_014.jpg
879.808	0.803	1	congruent	Block1	congruent/STIM_015.jpg
882.809	0.793	1	congruent	Block1	congruent/STIM_015.jpg
887.463	0.736	1	congruent	Block1	congruent/STIM_015.jpg
890.775	0.673	1	congruent	Block1	congruent/STIM_015.jpg
894.755	0.76	1	congruent	Block1	congruent/STIM_015.jpg
899.202	0.663	1	congruent	Block1	congruent/STIM_016.jpg
901.935	0.599	1	congruent	Block1	congruent/STIM_016.jpg
905.709	0.654	1	congruent	Block1	congruent/STIM_016.jpg
910.279	0.662	1	congruent	Block1	congruent/STIM_016.jpg
913.687	0.628	1	congruent	Block1	congruent/STIM_016.jpg
916.839	0.77	1	congruent	Block1	congruent/STIM_017.jpg
919.626	0.651	1	congruent	Block1	congruent/STIM_017.jpg
924.115	0.778	1	congruent	Block1	congruent/STIM_017.jpg
927.76	0.525	1	congruent	Block1	congruent/STIM_017.jpg
930.827	0.496	1	congruent	Block1	congruent/STIM_017.jpg
934.724	0.708	1	congruent	Block1	congruent/STIM_018.jpg
939.148	0.72	1	congruent	Block1	congruent/STIM_018.jpg
942.312	0.619	1	congruent	Block1	congruent/STIM_018.jpg
946.274	0.741	1	congruent	Block1	congruent/STIM_018.jpg
949.152	0.351	1	congruent	Block1	congruent/STIM_018.jpg
953.087	0.537	1	congruent	Block1	congruent/STIM_019.jpg
956.823	0.797	1	congruent	Block1	congruent/STIM_019.jpg
960.921	0.6	1	congruent	Block1	congruent/STIM_019.jpg
965.406	0.604	1	congruent	Block1	congruent/STIM_019.jpg
969.643	0.538	1	congruent	Block1	congruent/STIM_019.jpg
973.772	0.68	1	congruent	Block1	congruent/STIM_020.jpg
977.039	0.686	1	congruent	Block1	congruent/STIM_020.jpg
979.94	0.5	0	congruent	Block1	congruent/STIM_020.jpg
982.652	0.699	1	congruent	Block1	congruent/STIM_020.jpg
986.52	0.419	1	congruent	Block1	congruent/STIM_020.jpg
989.403	0.545	1	congruent	Block1	congruent/STIM_021.jpg
993.526	0.758	1	congruent	Block1	congruent/STIM_021.jpg
997.237	0.688	1	congruent	Block1	congruent/STIM_021.jpg
1000.753	0.611	1	congruent	Block1	congruent/STIM_021.jpg
1004.937	0.634	1	congruent	Block1	congruent/STIM_021.jpg
1008.282	0.614	1	congruent	Block1	congruent/STIM_022.jpg
1012.767	0.649	1	congruent	Block1	congruent/STIM_022.jpg
1016.387	0.786	1	congruent	Block1	congruent/STIM_022.jpg
1020.628	0.682	1	congruent	Block1	congruent/STIM_022.jpg
1024.091	0.486	1	congruent	Block1	congruent/STIM_022.jpg
1027.528	0.745	1	congruent	Block1	congruent/STIM_023.jpg
1031.182	0.443	1	congruent	Block1	congruent/STIM_023.jpg
1034.539	0.789	1	congruent	Block1	congruent/STIM_023.jpg
1038.378	0.518	1	congruent	Block1	congruent/STIM_023.jpg
1042.256	0.528	1	congruent	Block1	congruent/STIM_023.jpg
1045.475	0.726	1	congruent	Block1	congruent/STIM_024.jpg
1048.486	0.792	1	congruent	Block1	congruent/STIM_024.jpg
1052.458	0.684	1	congruent	Block1	congruent/STIM_024.jpg
1056.911	0.624	1	congruent	Block1	congruent/STIM_024.jpg
1061.11	0.656	1	congruent	Block1	congruent/STIM_024.jpg
1065.914	0.68	1	congruent	Block1	congruent/STIM_025.jpg
1069.695	0.381	1	congruent	Block1	congruent/STIM_025.jpg
1073.498	0.667	1	congruent	Block1	congruent/STIM_025.jpg
1078.054	0.494	1	congruent	Block1	congruent/STIM_025.jpg
1081.734	0.499	1	congruent	Block1	congruent/STIM_025.jpg
1086.089	0.819	1	congruent	Block1	congruent/STIM_026.jpg
1090.321	0.773	1	congruent	Block1	congruent/STIM_026.jpg
1093.756	0.788	1	congruent	Block1	congruent/STIM_026.jpg
1097.803	0.714	1	congruent	Block1	congruent/STIM_026.jpg
1101.514	0.828	1	congruent	Block1	congruent/STIM_026.jpg
1106.322	0.633	1	congruent	Block1	congruent/STIM_027.jpg
1110.169	0.721	1	congruent	Block1	congruent/STIM_027.jpg
1114.559	0.441	1	congruent	Block1	congruent/STIM_027.jpg
1117.129	0.63	1	congruent	Block1	congruent/STIM_027.jpg
1119.923	0.746	1	congruent	Block1	congruent/STIM_027.jpg
1122.868	0.678	1	congruent	Block1	congruent/STIM_028.jpg
1125.781	0.554	1	congruent	Block1	congruent/STIM_028.jpg
1129.739	0.596	1	congruent	Block1	congruent/STIM_028.jpg
1132.462	0.781	1	congruent	Block1	congruent/STIM_028.jpg
1136.692	0.814	1	congruent	Block1	congruent/STIM_028.jpg
1141.405	0.473	1	congruent	Block1	congruent/STIM_029.jpg
1145.131	0.682	1	congruent	Block1	congruent/STIM_029.jpg
1148.208	0.615	1	congruent	Block1	congruent/STIM_029.jpg
1152.253	0.756	1	congruent	Block1	congruent/STIM_029.jpg
1155.744	0.548	1	congruent	Block1	congruent/STIM_029.jpg
1160.206	1.052	1	incongruent	Block2	incongruent/STIM_000.jpg
1164.482	0.632	1	incongruent	Block2	incongruent/STIM_000.jpg
1168.14	0.917	1	incongruent	Block2	incongruent/STIM_000.jpg
1171.826	0.831	1	incongruent	Block2	incongruent/STIM_000.jpg
1176.418	0.831	1	incongruent	Block2	incongruent/STIM_000.jpg
1179.611	1.126	1	incongruent	Block2	incongruent/STIM_001.jpg
1184.476	0.882	1	incongruent	Block2	incongruent/STIM_001.jpg
1188.373	0.566	1	incongruent	Block2	incongruent/STIM_001.jpg
1191.786	1.086	1	incongruent	Block2	incongruent/STIM_001.jpg
1194.973	0.923	1	incongruent	Block2	incongruent/STIM_001.jpg
1199.648	1.092	1	incongruent	Block2	incongruent/STIM_002.jpg
1203.732	0.677	0	incongruent	Block2	incongruent/STIM_002.jpg
1207.889	1.015	1	incongruent	Block2	incongruent/STIM_002.jpg
1212.427	0.509	1	incongruent	Block2	incongruent/STIM_002.jpg
1216.482	0.789	0	incongruent	Block2	incongruent/STIM_002.jpg
1219.764	0.684	0	incongruent	Block2	incongruent/STIM_003.jpg
1224.355	0.704	1	incongruent	Block2	incongruent/STIM_003.jpg
1227.119	0.543	1	incongruent	Block2	incongruent/STIM_003.jpg
1230.594	0.792	1	incongruent	Block2	incongruent/STIM_003.jpg
1234.078	0.652	1	incongruent	Block2	incongruent/STIM_003.jpg
1238.664	0.851	1	incongruent	Block2	incongruent/STIM_004.jpg
1242.548	0.988	0	incongruent	Block2	incongruent/STIM_004.jpg
1246.247	0.575	1	incongruent	Block2	incongruent/STIM_004.jpg
1249.162	0.712	1	incongruent	Block2	incongruent/STIM_004.jpg
1253.71	0.681	1	incongruent	Block2	incongruent/STIM_004.jpg
1257.207	1.095	1	incongruent	Block2	incongruent/STIM_005.jpg
1261.666	1.041	1	incongruent	Block2	incongruent/STIM_005.jpg
1265.445	0.942	1	incongruent	Block2	incongruent/STIM_005.jpg
1270.159	0.844	1	incongruent	Block2	incongruent/STIM_005.jpg
1273.59	0.648	1	incongruent	Block2	incongruent/STIM_005.jpg
1278.144	1.136	1	incongruent	Block2	incongruent/STIM_006.jpg
1282.142	0.562	0	incongruent	Block2	incongruent/STIM_006.jpg
1285.641	0.504	0	incongruent	Block2	incongruent/STIM_006.jpg
1289.025	0.664	1	incongruent	Block2	incongruent/STIM_006.jpg
1291.915	0.89	1	incongruent	Block2	incongruent/STIM_006.jpg
1296.387	0.749	1	incongruent	Block2	incongruent/STIM_007.jpg
1299.696	0.908	1	incongruent	Block2	incongruent/STIM_007.jpg
1304.268	0.801	1	incongruent	Block2	incongruent/STIM_007.jpg
1309.02	0.475	1	incongruent	Block2	incongruent/STIM_007.jpg
1311.716	0.556	1	incongruent	Block2	incongruent/STIM_007.jpg
1315.376	0.821	1	incongruent	Block2	incongruent/STIM_008.jpg
1319.441	0.978	1	incongruent	Block2	incongruent/STIM_008.jpg
1324.414	0.734	1	incongruent	Block2	incongruent/STIM_008.jpg
1327.88	0.76	0	incongruent	Block2	incongruent/STIM_008.jpg
1331.509	0.98	1	incongruent	Block2	incongruent/STIM_008.jpg
1334.814	1.059	0	incongruent	Block2	incongruent/STIM_009.jpg
1338.963	1.01	1	incongruent	Block2	incongruent/STIM_009.jpg
1342.305	0.567	1	incongruent	Block2	incongruent/STIM_009.jpg
1346.749	0.512	1	incongruent	Block2	incongruent/STIM_009.jpg
1350.452	0.659	1	incongruent	Block2	incongruent/STIM_009.jpg
1353.528	1.112	1	incongruent	Block2	incongruent/STIM_010.jpg
1358.592	1.172	1	incongruent	Block2	incongruent/STIM_010.jpg
1363.192	0.869	1	incongruent	Block2	incongruent/STIM_010.jpg
1366.589	0.706	1	incongruent	Block2	incongruent/STIM_010.jpg
1370.378	0.932	1	incongruent	Block2	incongruent/STIM_010.jpg
1375.03	0.74	1	incongruent	Block2	incongruent/STIM_011.jpg
1378.245	0.954	1	incongruent	Block2	incongruent/STIM_011.jpg
1382.084	0.532	1	incongruent	Block2	incongruent/STIM_011.jpg
1385.406	0.94	1	incongruent	Block2	incongruent/STIM_011.jpg
1389.717	0.664	1	incongruent	Block2	incongruent/STIM_011.jpg
1392.655	0.721	1	incongruent	Block2	incongruent/STIM_012.jpg
1397.101	0.933	1	incongruent	Block2	incongruent/STIM_012.jpg
1401.938	0.689	1	incongruent	Block2	incongruent/STIM_012.jpg
1405.048	0.558	1	incongruent	Block2	incongruent/STIM_012.jpg
1409.355	0.716	1	incongruent	Block2	incongruent/STIM_012.jpg
1412.772	0.626	1	incongruent	Block2	incongruent/STIM_013.jpg
1415.967	0.632	1	incongruent	Block2	incongruent/STIM_013.jpg
1420.001	0.887	1	incongruent	Block2	incongruent/STIM_013.jpg
1423.552	0.902	1	incongruent	Block2	incongruent/STIM_013.jpg
1427.003	0.667	1	incongruent	Block2	incongruent/STIM_013.jpg
1430.665	0.96	1	incongruent	Block2	incongruent/STIM_014.jpg
1434.75	0.969	1	incongruent	Block2	incongruent/STIM_014.jpg
1439.376	1.004	1	incongruent	Block2	incongruent/STIM_014.jpg
1443.263	0.558	1	incongruent	Block2	incongruent/STIM_014.jpg
1445.979	0.654	1	incongruent	Block2	incongruent/STIM_014.jpg
1450.242	1.279	1	incongruent	Block2	incongruent/STIM_015.jpg
1454.726	0.982	1	incongruent	Block2	incongruent/STIM_015.jpg
1459.396	1.008	1	incongruent	Block2	incongruent/STIM_015.jpg
1463.863	0.963	1	incongruent	Block2	incongruent/STIM_015.jpg
1468.729	0.417	1	incongruent	Block2	incongruent/STIM_015.jpg
1472.652	1.123	1	incongruent	Block2	incongruent/STIM_016.jpg
1477.4	0.749	1	incongruent	Block2	incongruent/STIM_016.jpg
1481.251	0.798	1	incongruent	Block2	incongruent/STIM_016.jpg
1484.57	0.629	1	incongruent	Block2	incongruent/STIM_016.jpg
1487.916	0.926	1	incongruent	Block2	incongruent/STIM_016.jpg
1492.621	0.922	1	incongruent	Block2	incongruent/STIM_017.jpg
1497.362	1.106	1	incongruent	Block2	incongruent/STIM_017.jpg
1501.448	0.911	1	incongruent	Block2	incongruent/STIM_017.jpg
1504.913	0.475	1	incongruent	Block2	incongruent/STIM_017.jpg
1507.56	0.872	1	incongruent	Block2	incongruent/STIM_017.jpg
1511.328	1.267	1	incongruent	Block2	incongruent/STIM_018.jpg
1515.439	0.835	1	incongruent	Block2	incongruent/STIM_018.jpg
1518.976	0.676	1	incongruent	Block2	incongruent/STIM_018.jpg
1522.359	0.904	1	incongruent	Block2	incongruent/STIM_018.jpg
1526.671	0.606	1	incongruent	Block2	incongruent/STIM_018.jpg
1531.214	0.805	1	incongruent	Block2	incongruent/STIM_019.jpg
1534.485	0.678	1	incongruent	Block2	incongruent/STIM_019.jpg
1537.203	0.842	1	incongruent	Block2	incongruent/STIM_019.jpg
1541.762	0.852	1	incongruent	Block2	incongruent/STIM_019.jpg
1545.541	0.622	1	incongruent	Block2	incongruent/STIM_019.jpg
1549.64	0.881	1	incongruent	Block2	incongruent/STIM_020.jpg
1552.702	0.576	1	incongruent	Block2	incongruent/STIM_020.jpg
1555.715	0.493	1	incongruent	Block2	incongruent/STIM_020.jpg
1559.783	0.947	1	incongruent	Block2	incongruent/STIM_020.jpg
1563.277	0.925	1	incongruent	Block2	incongruent/STIM_020.jpg
1568.009	1.118	1	incongruent	Block2	incongruent/STIM_021.jpg
1571.546	0.794	1	incongruent	Block2	incongruent/STIM_021.jpg
1576.327	0.638	1	incongruent	Block2	incongruent/STIM_021.jpg
1579.494	0.423	1	incongruent	Block2	incongruent/STIM_021.jpg
1583.193	0.93	1	incongruent	Block2	incongruent/STIM_021.jpg
1587.915	0.558	1	incongruent	Block2	incongruent/STIM_022.jpg
1591.422	0.983	1	incongruent	Block2	incongruent/STIM_022.jpg
1595.652	0.943	1	incongruent	Block2	incongruent/STIM_022.jpg
1598.767	0.757	1	incongruent	Block2	incongruent/STIM_022.jpg
1603.018	0.706	1	incongruent	Block2	incongruent/STIM_022.jpg
1607.415	0.616	1	incongruent	Block2	incongruent/STIM_023.jpg
1611.975	1.068	1	incongruent	Block2	incongruent/STIM_023.jpg
1615.934	0.723	1	incongruent	Block2	incongruent/STIM_023.jpg
1620.54	0.552	1	incongruent	Block2	incongruent/STIM_023.jpg
1625.021	0.628	1	incongruent	Block2	incongruent/STIM_023.jpg
1628.136	0.873	1	incongruent	Block2	incongruent/STIM_024.jpg
1631.561	0.6	1	incongruent	Block2	incongruent/STIM_024.jpg
1635.787	0.978	1	incongruent	Block2	incongruent/STIM_024.jpg
1639.317	0.89	1	incongruent	Block2	incongruent/STIM_024.jpg
1642.296	0.493	1	incongruent	Block2	incongruent/STIM_024.jpg
1646.587	1.058	1	incongruent	Block2	incongruent/STIM_025.jpg
1651.506	0.922	1	incongruent	Block2	incongruent/STIM_025.jpg
1655.706	0.532	1	incongruent	Block2	incongruent/STIM_025.jpg
1659.878	0.748	1	incongruent	Block2	incongruent/STIM_025.jpg
1663.514	0.917	1	incongruent	Block2	incongruent/STIM_025.jpg
1667.821	0.635	1	incongruent	Block2	incongruent/STIM_026.jpg
1671.456	0.729	1	incongruent	Block2	incongruent/STIM_026.jpg
1674.802	0.722	1	incongruent	Block2	incongruent/STIM_026.jpg
1678.349	0.757	1	incongruent	Block2	incongruent/STIM_026.jpg
1681.95	0.944	1	incongruent	Block2	incongruent/STIM_026.jpg
1686.583	1.013	1	incongruent	Block2	incongruent/STIM_027.jpg
1689.754	0.615	0	incongruent	Block2	incongruent/STIM_027.jpg
1693.217	1.059	1	incongruent	Block2	incongruent/STIM_027.jpg
1696.636	0.978	1	incongruent	Block2	incongruent/STIM_027.jpg
1700.534	0.685	1	incongruent	Block2	incongruent/STIM_027.jpg
1704.235	0.97	1	incongruent	Block2	incongruent/STIM_028.jpg
1708.898	0.551	1	incongruent	Block2	incongruent/STIM_028.jpg
1713.21	0.91	1	incongruent	Block2	incongruent/STIM_028.jpg
1717.352	0.454	1	incongruent	Block2	incongruent/STIM_028.jpg
1720.498	0.687	1	incongruent	Block2	incongruent/STIM_028.jpg
1723.819	1.192	1	incongruent	Block2	incongruent/STIM_029.jpg
1727.993	0.98	1	incongruent	Block2	incongruent/STIM_029.jpg
1731.842	0.696	1	incongruent	Block2	incongruent/STIM_029.jpg
1735.562	0.477	1	incongruent	Block2	incongruent/STIM_029.jpg
1739.5	0.554	1	incongruent	Block2	incongruent/STIM_029.jpg
1742.569	0.683	1	congruent	Block2	congruent/STIM_000.jpg
1745.464	0.749	1	congruent	Block2	congruent/STIM_000.jpg
1748.732	0.606	1	congruent	Block2	congruent/STIM_000.jpg
1753.258	0.729	1	congruent	Block2	congruent/STIM_000.jpg
1756.272	0.798	1	congruent	Block2	congruent/STIM_000.jpg
1760.309	0.784	1	congruent	Block2	congruent/STIM_001.jpg
1764.601	0.633	1	congruent	Block2	congruent/STIM_001.jpg
1769.064	0.577	1	congruent	Block2	congruent/STIM_001.jpg
1773.71	0.644	1	congruent	Block2	congruent/STIM_001.jpg
1777.359	0.775	1	congruent	Block2	congruent/STIM_001.jpg
1782.082	0.62	1	congruent	Block2	congruent/STIM_002.jpg
1785.559	0.791	1	congruent	Block2	congruent/STIM_002.jpg
1789.443	0.596	1	congruent	Block2	congruent/STIM_002.jpg
1793.278	0.638	1	congruent	Block2	congruent/STIM_002.jpg
1796.419	0.533	1	congruent	Block2	congruent/STIM_002.jpg
1800.096	0.832	1	congruent	Block2	congruent/STIM_003.jpg
1803.111	0.69	1	congruent	Block2	congruent/STIM_003.jpg
1806.71	0.721	1	congruent	Block2	congruent/STIM_003.jpg
1811.121	0.672	1	congruent	Block2	congruent/STIM_003.jpg
1813.951	0.642	1	congruent	Block2	congruent/STIM_003.jpg
1818.436	0.614	1	congruent	Block2	congruent/STIM_004.jpg
1821.595	0.577	1	congruent	Block2	congruent/STIM_004.jpg
1824.66	0.816	1	congruent	Block2	congruent/STIM_004.jpg
1828.066	0.526	1	congruent	Block2	congruent/STIM_004.jpg
1832.017	0.813	0	congruent	Block2	congruent/STIM_004.jpg
1835.759	0.755	1	congruent	Block2	congruent/STIM_005.jpg
1840.281	0.655	1	congruent	Block2	congruent/STIM_005.jpg
1844.883	0.526	1	congruent	Block2	congruent/STIM_005.jpg
1849.052	0.811	1	congruent	Block2	congruent/STIM_005.jpg
1852.688	0.815	1	congruent	Block2	congruent/STIM_005.jpg
1857.559	0.608	1	congruent	Block2	congruent/STIM_006.jpg
1860.302	0.713	1	congruent	Block2	congruent/STIM_006.jpg
1864.808	0.541	1	congruent	Block2	congruent/STIM_006.jpg
1868.31	0.8	1	congruent	Block2	congruent/STIM_006.jpg
1873.051	0.684	1	congruent	Block2	congruent/STIM_006.jpg
1876.268	0.644	1	congruent	Block2	congruent/STIM_007.jpg
1880.034	0.659	1	congruent	Block2	congruent/STIM_007.jpg
1883.467	0.496	1	congruent	Block2	congruent/STIM_007.jpg
1886.069	0.818	1	congruent	Block2	congruent/STIM_007.jpg
1890.239	0.72	1	congruent	Block2	congruent/STIM_007.jpg
1893.411	0.841	1	congruent	Block2	congruent/STIM_008.jpg
1898.013	0.733	1	congruent	Block2	congruent/STIM_008.jpg
1901.251	0.566	1	congruent	Block2	congruent/STIM_008.jpg
1904.614	0.463	1	congruent	Block2	congruent/STIM_008.jpg
1907.755	0.577	1	congruent	Block2	congruent/STIM_008.jpg
1910.589	0.666	1	congruent	Block2	congruent/STIM_009.jpg
1913.544	0.846	1	congruent	Block2	congruent/STIM_009.jpg
1917.709	0.719	1	congruent	Block2	congruent/STIM_009.jpg
1920.823	0.666	1	congruent	Block2	congruent/STIM_009.jpg
1924.268	0.575	1	congruent	Block2	congruent/STIM_009.jpg
1928.276	0.779	1	congruent	Block2	congruent/STIM_010.jpg
1931.119	0.677	1	congruent	Block2	congruent/STIM_010.jpg
1935.682	0.67	1	congruent	Block2	congruent/STIM_010.jpg
1938.398	0.69	1	congruent	Block2	congruent/STIM_010.jpg
1942.338	0.8	1	congruent	Block2	congruent/STIM_010.jpg
1945.749	0.599	1	congruent	Block2	congruent/STIM_011.jpg
1949.031	0.59	1	congruent	Block2	congruent/STIM_011.jpg
1952.744	0.589	1	congruent	Block2	congruent/STIM_011.jpg
1955.564	0.509	1	congruent	Block2	congruent/STIM_011.jpg
1958.283	0.846	0	congruent	Block2	congruent/STIM_011.jpg
1961.802	0.83	1	congruent	Block2	congruent/STIM_012.jpg
1965.446	0.474	1	congruent	Block2	congruent/STIM_012.jpg
1969.566	0.614	1	congruent	Block2	congruent/STIM_012.jpg
1972.681	0.689	1	congruent	Block2	congruent/STIM_012.jpg
1976.252	0.464	1	congruent	Block2	congruent/STIM_012.jpg
1980.671	0.736	1	congruent	Block2	congruent/STIM_013.jpg
1984.466	0.657	1	congruent	Block2	congruent/STIM_013.jpg
1988.712	0.494	1	congruent	Block2	congruent/STIM_013.jpg
1992.166	0.59	1	congruent	Block2	congruent/STIM_013.jpg
1996.142	0.47	1	congruent	Block2	congruent/STIM_013.jpg
2000.075	0.623	1	congruent	Block2	congruent/STIM_014.jpg
2004.242	0.84	1	congruent	Block2	congruent/STIM_014.jpg
2008.417	0.864	1	congruent	Block2	congruent/STIM_014.jpg
2013.225	0.605	1	congruent	Block2	congruent/STIM_014.jpg
2016.432	0.442	1	congruent	Block2	congruent/STIM_014.jpg
2020.592	0.832	1	congruent	Block2	congruent/STIM_015.jpg
2024.934	0.523	1	congruent	Block2	congruent/STIM_015.jpg
2027.971	0.614	1	congruent	Block2	congruent/STIM_015.jpg
2032.626	0.585	1	congruent	Block2	congruent/STIM_015.jpg
2036.519	0.794	1	congruent	Block2	congruent/STIM_015.jpg
2039.649	0.565	1	congruent	Block2	congruent/STIM_016.jpg
2044.208	0.611	1	congruent	Block2	congruent/STIM_016.jpg
2048.098	0.569	1	congruent	Block2	congruent/STIM_016.jpg
2051.629	0.7	1	congruent	Block2	congruent/STIM_016.jpg
2054.974	0.658	1	congruent	Block2	congruent/STIM_016.jpg
2059.511	0.697	1	congruent	Block2	congruent/STIM_017.jpg
2063.671	0.487	1	congruent	Block2	congruent/STIM_017.jpg
2066.307	0.601	1	congruent	Block2	congruent/STIM_017.jpg
2070.699	0.501	1	congruent	Block2	congruent/STIM_017.jpg
2073.294	0.598	1	congruent	Block2	congruent/STIM_017.jpg
2076.043	0.853	1	congruent	Block2	congruent/STIM_018.jpg
2080.815	0.644	1	congruent	Block2	congruent/STIM_018.jpg
2083.636	0.764	1	congruent	Block2	congruent/STIM_018.jpg
2086.832	0.61	1	congruent	Block2	congruent/STIM_018.jpg
2090.051	0.725	1	congruent	Block2	congruent/STIM_018.jpg
2093.064	0.84	1	congruent	Block2	congruent/STIM_019.jpg
2097.933	0.674	1	congruent	Block2	congruent/STIM_019.jpg
2100.812	0.502	1	congruent	Block2	congruent/STIM_019.jpg
2104.206	0.511	1	congruent	Block2	congruent/STIM_019.jpg
2108.53	0.476	1	congruent	Block2	congruent/STIM_019.jpg
2111.28	0.762	1	congruent	Block2	congruent/STIM_020.jpg
2115.041	0.556	1	congruent	Block2	congruent/STIM_020.jpg
2118.186	0.511	1	congruent	Block2	congruent/STIM_020.jpg
2121.051	0.647	1	congruent	Block2	congruent/STIM_020.jpg
2123.854	0.547	1	congruent	Block2	congruent/STIM_020.jpg
2128.029	0.716	1	congruent	Block2	congruent/STIM_021.jpg
2131.286	0.588	1	congruent	Block2	congruent/STIM_021.jpg
2134.411	0.784	1	congruent	Block2	congruent/STIM_021.jpg
2137.377	0.897	1	congruent	Block2	congruent/STIM_021.jpg
2142.138	0.532	1	congruent	Block2	congruent/STIM_021.jpg
2146.369	0.524	0	congruent	Block2	congruent/STIM_022.jpg
2149.805	0.853	1	congruent	Block2	congruent/STIM_022.jpg
2153.413	0.522	1	congruent	Block2	congruent/STIM_022.jpg
2157.189	0.808	0	congruent	Block2	congruent/STIM_022.jpg
2161.821	0.426	1	congruent	Block2	congruent/STIM_022.jpg
2165.821	0.722	1	congruent	Block2	congruent/STIM_023.jpg
2168.847	0.788	1	congruent	Block2	congruent/STIM_023.jpg
2172.46	0.847	1	congruent	Block2	congruent/STIM_023.jpg
2177.138	0.772	1	congruent	Block2	congruent/STIM_023.jpg
2180.593	0.835	1	congruent	Block2	congruent/STIM_023.jpg
2184.237	0.477	1	congruent	Block2	congruent/STIM_024.jpg
2188.518	0.554	1	congruent	Block2	congruent/STIM_024.jpg
2192.34	0.571	1	congruent	Block2	congruent/STIM_024.jpg
2196.494	0.684	1	congruent	Block2	congruent/STIM_024.jpg
2199.761	0.604	1	congruent	Block2	congruent/STIM_024.jpg
2204.057	0.651	1	congruent	Block2	congruent/STIM_025.jpg
2207.229	0.808	1	congruent	Block2	congruent/STIM_025.jpg
2211.002	0.722	1	congruent	Block2	congruent/STIM_025.jpg
2214.413	0.568	1	congruent	Block2	congruent/STIM_025.jpg
2217.486	0.72	1	congruent	Block2	congruent/STIM_025.jpg
2221.226	0.566	0	congruent	Block2	congruent/STIM_026.jpg
2224.165	0.527	1	congruent	Block2	congruent/STIM_026.jpg
2227.772	0.508	1	congruent	Block2	congruent/STIM_026.jpg
2231.21	0.529	1	congruent	Block2	congruent/STIM_026.jpg
2233.938	0.724	1	congruent	Block2	congruent/STIM_026.jpg
2238.112	0.578	1	congruent	Block2	congruent/STIM_027.jpg
2241.639	0.534	1	congruent	Block2	congruent/STIM_027.jpg
2245.364	0.827	1	congruent	Block2	congruent/STIM_027.jpg
2248.206	0.563	1	congruent	Block2	congruent/STIM_027.jpg
2251.611	0.639	0	congruent	Block2	congruent/STIM_027.jpg
2254.862	0.727	1	congruent	Block2	congruent/STIM_028.jpg
2258.529	0.623	1	congruent	Block2	congruent/STIM_028.jpg
2262.141	0.62	1	congruent	Block2	congruent/STIM_028.jpg
2266.878	0.711	1	congruent	Block2	congruent/STIM_028.jpg
2271.179	0.536	1	congruent	Block2	congruent/STIM_028.jpg
2274.41	0.705	1	congruent	Block2	congruent/STIM_029.jpg
2277.447	0.856	1	congruent	Block2	congruent/STIM_029.jpg
2282.122	0.686	1	congruent	Block2	congruent/STIM_029.jpg
2284.831	0.415	1	congruent	Block2	congruent/STIM_029.jpg
2288.613	0.631	1	congruent	Block2	congruent/STIM_029.jpg
2292.661	0.702	1	incongruent	Block3	incongruent/STIM_000.jpg
2297.121	0.917	1	incongruent	Block3	incongruent/STIM_000.jpg
2300.112	0.601	1	incongruent	Block3	incongruent/STIM_000.jpg
2304.38	0.898	1	incongruent	Block3	incongruent/STIM_000.jpg
2308.538	0.893	1	incongruent	Block3	incongruent/STIM_000.jpg
2313.551	0.484	1	incongruent	Block3	incongruent/STIM_001.jpg
2316.855	0.938	1	incongruent	Block3	incongruent/STIM_001.jpg
2320.954	0.606	0	incongruent	Block3	incongruent/STIM_001.jpg
2324.409	0.856	1	incongruent	Block3	incongruent/STIM_001.jpg
2327.64	0.858	1	incongruent	Block3	incongruent/STIM_001.jpg
2331.628	0.604	1	incongruent	Block3	incongruent/STIM_002.jpg
2335.395	0.655	1	incongruent	Block3	incongruent/STIM_002.jpg
2338.503	0.848	1	incongruent	Block3	incongruent/STIM_002.jpg
2341.97	0.779	1	incongruent	Block3	incongruent/STIM_002.jpg
2345.632	0.774	1	incongruent	Block3	incongruent/STIM_002.jpg
2348.862	0.988	1	incongruent	Block3	incongruent/STIM_003.jpg
2353.081	0.893	1	incongruent	Block3	incongruent/STIM_003.jpg
2357.145	0.905	1	incongruent	Block3	incongruent/STIM_003.jpg
2360.851	0.45	1	incongruent	Block3	incongruent/STIM_003.jpg
2363.402	0.462	1	incongruent	Block3	incongruent/STIM_003.jpg
2365.95	0.665	1	incongruent	Block3	incongruent/STIM_004.jpg
2369.782	0.954	1	incongruent	Block3	incongruent/STIM_004.jpg
2374.029	0.59	1	incongruent	Block3	incongruent/STIM_004.jpg
2378.294	0.48	1	incongruent	Block3	incongruent/STIM_004.jpg
2382.683	0.989	1	incongruent	Block3	incongruent/STIM_004.jpg
2386.102	0.867	1	incongruent	Block3	incongruent/STIM_005.jpg
2389.839	0.902	1	incongruent	Block3	incongruent/STIM_005.jpg
2393.482	0.915	1	incongruent	Block3	incongruent/STIM_005.jpg
2397.391	0.579	1	incongruent	Block3	incongruent/STIM_005.jpg
2400.662	0.769	1	incongruent	Block3	incongruent/STIM_005.jpg
2404.559	0.518	1	incongruent	Block3	incongruent/STIM_006.jpg
2409.057	0.7	1	incongruent	Block3	incongruent/STIM_006.jpg
2413.365	0.925	1	incongruent	Block3	incongruent/STIM_006.jpg
2418.134	0.631	1	incongruent	Block3	incongruent/STIM_006.jpg
2422.805	1.042	1	incongruent	Block3	incongruent/STIM_006.jpg
2426.796	0.746	1	incongruent	Block3	incongruent/STIM_007.jpg
2429.868	0.442	1	incongruent	Block3	incongruent/STIM_007.jpg
2433.472	0.939	1	incongruent	Block3	incongruent/STIM_007.jpg
2437.707	0.548	1	incongruent	Block3	incongruent/STIM_007.jpg
2442.131	0.778	1	incongruent	Block3	incongruent/STIM_007.jpg
2446.124	0.915	1	incongruent	Block3	incongruent/STIM_008.jpg
2449.386	0.46	1	incongruent	Block3	incongruent/STIM_008.jpg
2452.614	0.882	1	incongruent	Block3	incongruent/STIM_008.jpg
2457.291	0.982	1	incongruent	Block3	incongruent/STIM_008.jpg
2461.482	0.808	1	incongruent	Block3	incongruent/STIM_008.jpg
2465.116	0.555	1	incongruent	Block3	incongruent/STIM_009.jpg
2468.324	0.489	1	incongruent	Block3	incongruent/STIM_009.jpg
2471.08	0.776	1	incongruent	Block3	incongruent/STIM_009.jpg
2474.577	0.647	1	incongruent	Block3	incongruent/STIM_009.jpg
2478.896	0.49	1	incongruent	Block3	incongruent/STIM_009.jpg
2482.462	0.788	1	incongruent	Block3	incongruent/STIM_010.jpg
2485.801	0.699	1	incongruent	Block3	incongruent/STIM_010.jpg
2489.776	0.8	1	incongruent	Block3	incongruent/STIM_010.jpg
2492.866	0.682	1	incongruent	Block3	incongruent/STIM_010.jpg
2496.18	0.839	1	incongruent	Block3	incongruent/STIM_010.jpg
2500.436	0.825	1	incongruent	Block3	incongruent/STIM_011.jpg
2503.827	0.712	1	incongruent	Block3	incongruent/STIM_011.jpg
2508.275	0.501	1	incongruent	Block3	incongruent/STIM_011.jpg
2511.2	0.924	1	incongruent	Block3	incongruent/STIM_011.jpg
2516.179	0.548	1	incongruent	Block3	incongruent/STIM_011.jpg
2519.774	0.476	1	incongruent	Block3	incongruent/STIM_012.jpg
2523.915	1.081	1	incongruent	Block3	incongruent/STIM_012.jpg
2527.855	0.798	1	incongruent	Block3	incongruent/STIM_012.jpg
2532.545	0.785	1	incongruent	Block3	incongruent/STIM_012.jpg
2537.007	0.434	1	incongruent	Block3	incongruent/STIM_012.jpg
2539.787	0.792	1	incongruent	Block3	incongruent/STIM_013.jpg
2543.084	0.889	1	incongruent	Block3	incongruent/STIM_013.jpg
2547.525	1.023	0	incongruent	Block3	incongruent/STIM_013.jpg
2551.808	0.532	1	incongruent	Block3	incongruent/STIM_013.jpg
2555.39	0.602	1	incongruent	Block3	incongruent/STIM_013.jpg
2559.035	0.634	1	incongruent	Block3	incongruent/STIM_014.jpg
2561.889	0.831	0	incongruent	Block3	incongruent/STIM_014.jpg
2565.016	0.584	1	incongruent	Block3	incongruent/STIM_014.jpg
2569.239	0.577	1	incongruent	Block3	incongruent/STIM_014.jpg
2572.286	0.544	1	incongruent	Block3	incongruent/STIM_014.jpg
2576.662	0.929	0	incongruent	Block3	incongruent/STIM_015.jpg
2580.158	0.969	1	incongruent	Block3	incongruent/STIM_015.jpg
2583.254	0.547	1	incongruent	Block3	incongruent/STIM_015.jpg
2586.609	0.858	1	incongruent	Block3	incongruent/STIM_015.jpg
2590.663	0.64	1	incongruent	Block3	incongruent/STIM_015.jpg
2593.526	0.764	1	incongruent	Block3	incongruent/STIM_016.jpg
2596.466	0.646	1	incongruent	Block3	incongruent/STIM_016.jpg
2600.12	0.84	1	incongruent	Block3	incongruent/STIM_016.jpg
2604.616	0.819	1	incongruent	Block3	incongruent/STIM_016.jpg
2609.265	0.792	1	incongruent	Block3	incongruent/STIM_016.jpg
2612.47	0.491	1	incongruent	Block3	incongruent/STIM_017.jpg
2615.041	1.011	1	incongruent	Block3	incongruent/STIM_017.jpg
2619.906	0.755	1	incongruent	Block3	incongruent/STIM_017.jpg
2622.807	0.659	1	incongruent	Block3	incongruent/STIM_017.jpg
2625.982	0.918	1	incongruent	Block3	incongruent/STIM_017.jpg
2628.936	0.665	1	incongruent	Block3	incongruent/STIM_018.jpg
2633.401	0.698	1	incongruent	Block3	incongruent/STIM_018.jpg
2637.246	0.733	1	incongruent	Block3	incongruent/STIM_018.jpg
2641.621	0.477	1	incongruent	Block3	incongruent/STIM_018.jpg
2644.632	0.837	1	incongruent	Block3	incongruent/STIM_018.jpg
2648.402	0.632	1	incongruent	Block3	incongruent/STIM_019.jpg
2651.383	1.059	1	incongruent	Block3	incongruent/STIM_019.jpg
2655.383	0.737	1	incongruent	Block3	incongruent/STIM_019.jpg
2658.375	0.898	1	incongruent	Block3	incongruent/STIM_019.jpg
2663.242	0.49	1	incongruent	Block3	incongruent/STIM_019.jpg
2667.714	0.888	1	incongruent	Block3	incongruent/STIM_020.jpg
2670.787	0.755	1	incongruent	Block3	incongruent/STIM_020.jpg
2675.393	0.573	1	incongruent	Block3	incongruent/STIM_020.jpg
2679.369	0.789	1	incongruent	Block3	incongruent/STIM_020.jpg
2682.5	0.576	1	incongruent	Block3	incongruent/STIM_020.jpg
2686.012	0.799	1	incongruent	Block3	incongruent/STIM_021.jpg
2689.517	0.797	1	incongruent	Block3	incongruent/STIM_021.jpg
2693.96	0.74	1	incongruent	Block3	incongruent/STIM_021.jpg
2698.608	0.579	1	incongruent	Block3	incongruent/STIM_021.jpg
2702.513	0.644	1	incongruent	Block3	incongruent/STIM_021.jpg
2705.394	0.574	1	incongruent	Block3	incongruent/STIM_022.jpg
2709.889	0.875	1	incongruent	Block3	incongruent/STIM_022.jpg
2714.359	0.991	1	incongruent	Block3	incongruent/STIM_022.jpg
2718.067	0.694	1	incongruent	Block3	incongruent/STIM_022.jpg
2722.61	0.81	1	incongruent	Block3	incongruent/STIM_022.jpg
2726.04	0.445	1	incongruent	Block3	incongruent/STIM_023.jpg
2728.895	0.671	1	incongruent	Block3	incongruent/STIM_023.jpg
2732.938	0.802	1	incongruent	Block3	incongruent/STIM_023.jpg
2735.935	0.678	1	incongruent	Block3	incongruent/STIM_023.jpg
2739.73	0.881	1	incongruent	Block3	incongruent/STIM_023.jpg
2744.387	0.561	1	incongruent	Block3	incongruent/STIM_024.jpg
2748.729	0.695	1	incongruent	Block3	incongruent/STIM_024.jpg
2752.853	0.598	1	incongruent	Block3	incongruent/STIM_024.jpg
2756.919	0.857	1	incongruent	Block3	incongruent/STIM_024.jpg
2761.503	0.795	1	incongruent	Block3	incongruent/STIM_024.jpg
2764.809	0.908	1	incongruent	Block3	incongruent/STIM_025.jpg
2768.538	0.992	1	incongruent	Block3	incongruent/STIM_025.jpg
2772.666	0.574	1	incongruent	Block3	incongruent/STIM_025.jpg
2776.171	0.632	0	incongruent	Block3	incongruent/STIM_025.jpg
2779.0	0.983	1	incongruent	Block3	incongruent/STIM_025.jpg
2783.961	0.43	1	incongruent	Block3	incongruent/STIM_026.jpg
2786.482	1.036	1	incongruent	Block3	incongruent/STIM_026.jpg
2791.452	0.434	1	incongruent	Block3	incongruent/STIM_026.jpg
2795.243	0.7	1	incongruent	Block3	incongruent/STIM_026.jpg
2798.054	0.599	0	incongruent	Block3	incongruent/STIM_026.jpg
2801.255	0.57	1	incongruent	Block3	incongruent/STIM_027.jpg
2804.747	0.663	1	incongruent	Block3	incongruent/STIM_027.jpg
2808.875	0.909	1	incongruent	Block3	incongruent/STIM_027.jpg
2813.71	0.767	1	incongruent	Block3	incongruent/STIM_027.jpg
2817.586	0.571	1	incongruent	Block3	incongruent/STIM_027.jpg
2821.876	0.45	1	incongruent	Block3	incongruent/STIM_028.jpg
2825.69	0.596	1	incongruent	Block3	incongruent/STIM_028.jpg
2830.236	0.71	1	incongruent	Block3	incongruent/STIM_028.jpg
2833.661	0.679	1	incongruent	Block3	incongruent/STIM_028.jpg
2836.844	0.847	1	incongruent	Block3	incongruent/STIM_028.jpg
2841.436	0.812	1	incongruent	Block3	incongruent/STIM_029.jpg
2844.598	0.888	1	incongruent	Block3	incongruent/STIM_029.jpg
2849.556	0.793	1	incongruent	Block3	incongruent/STIM_029.jpg
2853.706	0.497	1	incongruent	Block3	incongruent/STIM_029.jpg
2857.445	0.907	1	incongruent	Block3	incongruent/STIM_029.jpg
2861.289	0.559	1	congruent	Block3	congruent/STIM_000.jpg
2865.706	0.559	1	congruent	Block3	congruent/STIM_000.jpg
2869.53	0.61	1	congruent	Block3	congruent/STIM_000.jpg
2872.368	0.787	1	congruent	Block3	congruent/STIM_000.jpg
2876.823	0.719	1	congruent	Block3	congruent/STIM_000.jpg
2880.395	0.702	1	congruent	Block3	congruent/STIM_001.jpg
2883.992	0.58	1	congruent	Block3	congruent/STIM_001.jpg
2887.102	0.72	0	congruent	Block3	congruent/STIM_001.jpg
2891.234	0.66	0	congruent	Block3	congruent/STIM_001.jpg
2894.25	0.577	1	congruent	Block3	congruent/STIM_001.jpg
2898.196	0.816	1	congruent	Block3	congruent/STIM_002.jpg
2901.826	0.52	1	congruent	Block3	congruent/STIM_002.jpg
2905.287	0.836	1	congruent	Block3	congruent/STIM_002.jpg
2908.198	0.625	1	congruent	Block3	congruent/STIM_002.jpg
2911.464	0.467	1	congruent	Block3	congruent/STIM_002.jpg
2915.585	0.835	1	congruent	Block3	congruent/STIM_003.jpg
2918.834	0.862	1	congruent	Block3	congruent/STIM_003.jpg
2921.729	0.647	1	congruent	Block3	congruent/STIM_003.jpg
2926.279	0.818	1	congruent	Block3	congruent/STIM_003.jpg
2929.807	0.803	1	congruent	Block3	congruent/STIM_003.jpg
2933.538	0.639	1	congruent	Block3	congruent/STIM_004.jpg
2938.025	0.558	1	congruent	Block3	congruent/STIM_004.jpg
2941.502	0.506	1	congruent	Block3	congruent/STIM_004.jpg
2945.714	0.699	1	congruent	Block3	congruent/STIM_004.jpg
2948.823	0.59	1	congruent	Block3	congruent/STIM_004.jpg
2951.426	0.56	1	congruent	Block3	congruent/STIM_005.jpg
2954.836	0.531	1	congruent	Block3	congruent/STIM_005.jpg
2958.751	0.724	1	congruent	Block3	congruent/STIM_005.jpg
2963.133	0.704	1	congruent	Block3	congruent/STIM_005.jpg
2967.724	0.675	1	congruent	Block3	congruent/STIM_005.jpg
2970.983	0.819	1	congruent	Block3	congruent/STIM_006.jpg
2975.002	0.775	1	congruent	Block3	congruent/STIM_006.jpg
2979.636	0.614	1	congruent	Block3	congruent/STIM_006.jpg
2984.135	0.488	1	congruent	Block3	congruent/STIM_006.jpg
2988.517	0.81	1	congruent	Block3	congruent/STIM_006.jpg
2993.239	0.566	1	congruent	Block3	congruent/STIM_007.jpg
2996.586	0.44	1	congruent	Block3	congruent/STIM_007.jpg
3000.283	0.699	0	congruent	Block3	congruent/STIM_007.jpg
3003.404	0.574	1	congruent	Block3	congruent/STIM_007.jpg
3006.805	0.611	1	congruent	Block3	congruent/STIM_007.jpg
3010.572	0.89	1	congruent	Block3	congruent/STIM_008.jpg
3013.503	0.5	0	congruent	Block3	congruent/STIM_008.jpg
3016.502	0.572	1	congruent	Block3	congruent/STIM_008.jpg
3019.935	0.583	1	congruent	Block3	congruent/STIM_008.jpg
3024.513	0.708	1	congruent	Block3	congruent/STIM_008.jpg
3029.089	0.675	1	congruent	Block3	congruent/STIM_009.jpg
3033.053	0.812	1	congruent	Block3	congruent/STIM_009.jpg
3036.384	0.555	1	congruent	Block3	congruent/STIM_009.jpg
3040.01	0.587	0	congruent	Block3	congruent/STIM_009.jpg
3042.949	0.552	1	congruent	Block3	congruent/STIM_009.jpg
3046.948	0.622	1	congruent	Block3	congruent/STIM_010.jpg
3050.801	0.792	1	congruent	Block3	congruent/STIM_010.jpg
3055.022	0.471	1	congruent	Block3	congruent/STIM_010.jpg
3058.757	0.801	1	congruent	Block3	congruent/STIM_010.jpg
3062.484	0.654	1	congruent	Block3	congruent/STIM_010.jpg
3066.511	0.678	1	congruent	Block3	congruent/STIM_011.jpg
3070.092	0.842	1	congruent	Block3	congruent/STIM_011.jpg
3074.924	0.603	1	congruent	Block3	congruent/STIM_011.jpg
3077.843	0.554	1	congruent	Block3	congruent/STIM_011.jpg
3081.296	0.736	1	congruent	Block3	congruent/STIM_011.jpg
3085.873	0.726	1	congruent	Block3	congruent/STIM_012.jpg
3090.539	0.814	1	congruent	Block3	congruent/STIM_012.jpg
3094.702	0.511	1	congruent	Block3	congruent/STIM_012.jpg
3097.952	0.522	1	congruent	Block3	congruent/STIM_012.jpg
3101.909	0.812	1	congruent	Block3	congruent/STIM_012.jpg
3104.856	0.687	1	congruent	Block3	congruent/STIM_013.jpg
3108.29	0.618	1	congruent	Block3	congruent/STIM_013.jpg
3112.647	0.724	1	congruent	Block3	congruent/STIM_013.jpg
3115.88	0.594	1	congruent	Block3	congruent/STIM_013.jpg
3119.58	0.614	1	congruent	Block3	congruent/STIM_013.jpg
3122.741	0.716	1	congruent	Block3	congruent/STIM_014.jpg
3126.929	0.643	1	congruent	Block3	congruent/STIM_014.jpg
3129.633	0.572	1	congruent	Block3	congruent/STIM_014.jpg
3133.221	0.614	1	congruent	Block3	congruent/STIM_014.jpg
3137.215	0.708	1	congruent	Block3	congruent/STIM_014.jpg
3141.077	0.74	1	congruent	Block3	congruent/STIM_015.jpg
3145.701	0.721	1	congruent	Block3	congruent/STIM_015.jpg
3149.225	0.561	1	congruent	Block3	congruent/STIM_015.jpg
3152.656	0.471	1	congruent	Block3	congruent/STIM_015.jpg
3156.652	0.825	1	congruent	Block3	congruent/STIM_015.jpg
3159.515	0.785	1	congruent	Block3	congruent/STIM_016.jpg
3162.499	0.509	1	congruent	Block3	congruent/STIM_016.jpg
3166.533	0.784	1	congruent	Block3	congruent/STIM_016.jpg
3169.665	0.579	1	congruent	Block3	congruent/STIM_016.jpg
3172.566	0.554	1	congruent	Block3	congruent/STIM_016.jpg
3175.716	0.628	1	congruent	Block3	congruent/STIM_017.jpg
3178.337	0.537	1	congruent	Block3	congruent/STIM_017.jpg
3181.155	0.781	1	congruent	Block3	congruent/STIM_017.jpg
3184.289	0.571	1	congruent	Block3	congruent/STIM_017.jpg
3187.684	0.77	1	congruent	Block3	congruent/STIM_017.jpg
3191.085	0.66	1	congruent	Block3	congruent/STIM_018.jpg
3194.617	0.519	1	congruent	Block3	congruent/STIM_018.jpg
3199.119	0.747	1	congruent	Block3	congruent/STIM_018.jpg
3202.676	0.571	1	congruent	Block3	congruent/STIM_018.jpg
3206.389	0.771	1	congruent	Block3	congruent/STIM_018.jpg
3209.229	0.647	1	congruent	Block3	congruent/STIM_019.jpg
3212.596	0.594	1	congruent	Block3	congruent/STIM_019.jpg
3215.509	0.736	1	congruent	Block3	congruent/STIM_019.jpg
3219.385	0.939	1	congruent	Block3	congruent/STIM_019.jpg
3223.187	0.503	1	congruent	Block3	congruent/STIM_019.jpg
3227.115	0.746	1	congruent	Block3	congruent/STIM_020.jpg
3230.751	0.48	1	congruent	Block3	congruent/STIM_020.jpg
3233.73	0.723	1	congruent	Block3	congruent/STIM_020.jpg
3237.546	0.588	1	congruent	Block3	congruent/STIM_020.jpg
3241.191	0.467	1	congruent	Block3	congruent/STIM_020.jpg
3244.494	0.714	1	congruent	Block3	congruent/STIM_021.jpg
3248.798	0.762	1	congruent	Block3	congruent/STIM_021.jpg
3252.974	0.681	1	congruent	Block3	congruent/STIM_021.jpg
3255.875	0.755	1	congruent	Block3	congruent/STIM_021.jpg
3260.44	0.566	1	congruent	Block3	congruent/STIM_021.jpg
3264.498	0.788	1	congruent	Block3	congruent/STIM_022.jpg
3268.86	0.525	1	congruent	Block3	congruent/STIM_022.jpg
3272.193	0.788	1	congruent	Block3	congruent/STIM_022.jpg
3275.802	0.822	1	congruent	Block3	congruent/STIM_022.jpg
3280.377	0.79	1	congruent	Block3	congruent/STIM_022.jpg
3283.778	0.571	1	congruent	Block3	congruent/STIM_023.jpg
3287.955	0.652	1	congruent	Block3	congruent/STIM_023.jpg
3290.948	0.68	1	congruent	Block3	congruent/STIM_023.jpg
3293.749	0.791	1	congruent	Block3	congruent/STIM_023.jpg
3298.09	0.677	1	congruent	Block3	congruent/STIM_023.jpg
3301.227	0.517	1	congruent	Block3	congruent/STIM_024.jpg
3305.829	0.771	1	congruent	Block3	congruent/STIM_024.jpg
3309.068	0.572	1	congruent	Block3	congruent/STIM_024.jpg
3311.833	0.818	1	congruent	Block3	congruent/STIM_024.jpg
3315.559	0.599	1	congruent	Block3	congruent/STIM_024.jpg
3319.128	0.691	1	congruent	Block3	congruent/STIM_025.jpg
3322.836	0.792	0	congruent	Block3	congruent/STIM_025.jpg
3326.4	0.555	1	congruent	Block3	congruent/STIM_025.jpg
3329.241	0.561	1	congruent	Block3	congruent/STIM_025.jpg
3332.286	0.667	1	congruent	Block3	congruent/STIM_025.jpg
3336.59	0.431	1	congruent	Block3	congruent/STIM_026.jpg
3339.815	0.664	1	congruent	Block3	congruent/STIM_026.jpg
3344.257	0.621	1	congruent	Block3	congruent/STIM_026.jpg
3347.799	0.851	1	congruent	Block3	congruent/STIM_026.jpg
3351.284	0.77	1	congruent	Block3	congruent/STIM_026.jpg
3355.775	0.68	1	congruent	Block3	congruent/STIM_027.jpg
3359.34	0.88	1	congruent	Block3	congruent/STIM_027.jpg
3362.705	0.469	1	congruent	Block3	congruent/STIM_027.jpg
3365.365	0.729	1	congruent	Block3	congruent/STIM_027.jpg
3369.171	0.775	1	congruent	Block3	congruent/STIM_027.jpg
3372.841	0.644	1	congruent	Block3	congruent/STIM_028.jpg
3376.998	0.719	1	congruent	Block3	congruent/STIM_028.jpg
3379.946	0.742	1	congruent	Block3	congruent/STIM_028.jpg
3383.222	0.692	1	congruent	Block3	congruent/STIM_028.jpg
3386.853	0.717	1	congruent	Block3	congruent/STIM_028.jpg
3389.716	0.579	1	congruent	Block3	congruent/STIM_029.jpg
3392.538	0.784	1	congruent	Block3	congruent/STIM_029.jpg
3396.35	0.542	1	congruent	Block3	congruent/STIM_029.jpg
3400.025	0.601	1	congruent	Block3	congruent/STIM_029.jpg
3403.248	0.558	1	congruent	Block3	congruent/STIM_029.jpg
