onset	duration	response_time_ms	trial_type	learning_stage	stimulus	response_port
0.0	1.5	1500.1	incongruent	Block1	incongruent/STIM_000.jpg	100
4.394	0.832	831.5	incongruent	Block1	incongruent/STIM_000.jpg	100
8.465	1.257	1256.6	incongruent	Block1	incongruent/STIM_000.jpg	100
13.43	1.183	1182.8	incongruent	Block1	incongruent/STIM_000.jpg	100
17.613	0.722	721.9	incongruent	Block1	incongruent/STIM_000.jpg	100
21.206	1.047	1047.4	incongruent	Block1	incongruent/STIM_001.jpg	100
24.281	0.975	975.0	incongruent	Block1	incongruent/STIM_001.jpg	99
27.77	0.697	696.7	incongruent	Block1	incongruent/STIM_001.jpg	99
31.308	0.722	722.2	incongruent	Block1	incongruent/STIM_001.jpg	100
35.892	1.121	1121.4	incongruent	Block1	incongruent/STIM_001.jpg	100
40.597	1.248	1248.1	incongruent	Block1	incongruent/STIM_002.jpg	100
45.44	0.997	996.8	incongruent	Block1	incongruent/STIM_002.jpg	99
49.148	1.071	1070.7	incongruent	Block1	incongruent/STIM_002.jpg	99
53.163	0.637	637.1	incongruent	Block1	incongruent/STIM_002.jpg	99
56.696	1.218	1218.3	incongruent	Block1	incongruent/STIM_002.jpg	100
60.537	0.857	856.7	incongruent	Block1	incongruent/STIM_003.jpg	100
63.73	1.028	1027.6	incongruent	Block1	incongruent/STIM_003.jpg	99
67.467	1.218	1218.2	incongruent	Block1	incongruent/STIM_003.jpg	100
71.331	0.883	882.9	incongruent	Block1	incongruent/STIM_003.jpg	100
75.998	0.891	891.4	incongruent	Block1	incongruent/STIM_003.jpg	99
80.12	1.193	1192.9	incongruent	Block1	incongruent/STIM_004.jpg	100
84.953	1.099	1098.8	incongruent	Block1	incongruent/STIM_004.jpg	100
88.216	1.294	1293.6	incongruent	Block1	incongruent/STIM_004.jpg	99
92.019	1.039	1038.7	incongruent	Block1	incongruent/STIM_004.jpg	100
96.589	0.473	473.2	incongruent	Block1	incongruent/STIM_004.jpg	99
100.447	0.808	808.1	incongruent	Block1	incongruent/STIM_005.jpg	99
104.095	1.178	1177.5	incongruent	Block1	incongruent/STIM_005.jpg	99
108.446	1.212	1212.5	incongruent	Block1	incongruent/STIM_005.jpg	99
112.531	1.094	1093.8	incongruent	Block1	incongruent/STIM_005.jpg	99
116.022	0.726	726.5	incongruent	Block1	incongruent/STIM_005.jpg	99
118.9	0.853	853.1	incongruent	Block1	incongruent/STIM_006.jpg	100
122.871	1.44	1439.5	incongruent	Block1	incongruent/STIM_006.jpg	99
127.144	0.988	988.2	incongruent	Block1	incongruent/STIM_006.jpg	99
130.093	0.882	882.2	incongruent	Block1	incongruent/STIM_006.jpg	100
133.816	0.742	742.1	incongruent	Block1	incongruent/STIM_006.jpg	100
136.728	1.466	1465.8	incongruent	Block1	incongruent/STIM_007.jpg	100
141.784	0.86	859.5	incongruent	Block1	incongruent/STIM_007.jpg	99
145.109	1.28	1280.5	incongruent	Block1	incongruent/STIM_007.jpg	99
148.745	0.701	701.4	incongruent	Block1	incongruent/STIM_007.jpg	99
152.446	0.662	662.1	incongruent	Block1	incongruent/STIM_007.jpg	99
155.149	1.473	1473.2	incongruent	Block1	incongruent/STIM_008.jpg	100
158.699	0.978	977.9	incongruent	Block1	incongruent/STIM_008.jpg	99
162.604	0.76	759.8	incongruent	Block1	incongruent/STIM_008.jpg	100
167.301	1.146	1145.5	incongruent	Block1	incongruent/STIM_008.jpg	100
171.525	1.148	1148.4	incongruent	Block1	incongruent/STIM_008.jpg	100
176.439	1.1	1100.0	incongruent	Block1	incongruent/STIM_009.jpg	100
180.377	0.93	930.3	incongruent	Block1	incongruent/STIM_009.jpg	100
184.486	1.208	1208.4	incongruent	Block1	incongruent/STIM_009.jpg	100
187.99	0.899	898.8	incongruent	Block1	incongruent/STIM_009.jpg	99
192.249	1.248	1248.4	incongruent	Block1	incongruent/STIM_009.jpg	100
195.628	0.985	984.8	incongruent	Block1	incongruent/STIM_010.jpg	99
199.732	0.929	928.9	incongruent	Block1	incongruent/STIM_010.jpg	99
203.434	0.732	731.8	incongruent	Block1	incongruent/STIM_010.jpg	100
208.06	1.144	1143.9	incongruent	Block1	incongruent/STIM_010.jpg	99
211.636	0.706	706.5	incongruent	Block1	incongruent/STIM_010.jpg	99
214.816	0.968	967.8	incongruent	Block1	incongruent/STIM_011.jpg	100
218.157	1.455	1455.2	incongruent	Block1	incongruent/STIM_011.jpg	99
223.374	1.002	1002.0	incongruent	Block1	incongruent/STIM_011.jpg	99
228.004	1.096	1095.5	incongruent	Block1	incongruent/STIM_011.jpg	99
232.091	0.605	605.1	incongruent	Block1	incongruent/STIM_011.jpg	100
236.066	1.053	1053.0	incongruent	Block1	incongruent/STIM_012.jpg	100
240.99	1.152	1151.7	incongruent	Block1	incongruent/STIM_012.jpg	99
245.446	0.688	687.8	incongruent	Block1	incongruent/STIM_012.jpg	99
248.865	1.326	1326.2	incongruent	Block1	incongruent/STIM_012.jpg	99
252.422	1.24	1239.8	incongruent	Block1	incongruent/STIM_012.jpg	100
257.576	0.782	781.7	incongruent	Block1	incongruent/STIM_013.jpg	100
260.446	1.098	1098.3	incongruent	Block1	incongruent/STIM_013.jpg	100
263.762	0.755	755.0	incongruent	Block1	incongruent/STIM_013.jpg	100
266.911	1.1	1099.8	incongruent	Block1	incongruent/STIM_013.jpg	100
270.17	0.579	579.4	incongruent	Block1	incongruent/STIM_013.jpg	100
274.686	1.488	1488.2	incongruent	Block1	incongruent/STIM_014.jpg	100
278.9	1.38	1379.9	incongruent	Block1	incongruent/STIM_014.jpg	100
284.261	0.999	999.3	incongruent	Block1	incongruent/STIM_014.jpg	99
288.954	1.121	1120.9	incongruent	Block1	incongruent/STIM_014.jpg	100
293.389	1.025	1024.9	incongruent	Block1	incongruent/STIM_014.jpg	100
296.646	1.243	1242.8	incongruent	Block1	incongruent/STIM_015.jpg	99
301.439	1.014	1013.7	incongruent	Block1	incongruent/STIM_015.jpg	99
304.754	0.577	577.1	incongruent	Block1	incongruent/STIM_015.jpg	100
308.472	0.972	971.9	incongruent	Block1	incongruent/STIM_015.jpg	99
313.356	0.891	891.4	incongruent	Block1	incongruent/STIM_015.jpg	99
317.996	0.867	867.1	incongruent	Block1	incongruent/STIM_016.jpg	99
321.622	0.804	804.5	incongruent	Block1	incongruent/STIM_016.jpg	99
325.38	0.776	776.5	incongruent	Block1	incongruent/STIM_016.jpg	99
329.739	0.84	840.4	incongruent	Block1	incongruent/STIM_016.jpg	99
334.33	1.145	1145.0	incongruent	Block1	incongruent/STIM_016.jpg	99
337.515	0.797	796.8	incongruent	Block1	incongruent/STIM_017.jpg	99
340.359	0.797	797.1	incongruent	Block1	incongruent/STIM_017.jpg	99
343.882	1.314	1314.2	incongruent	Block1	incongruent/STIM_017.jpg	99
348.7	1.239	1238.9	incongruent	Block1	incongruent/STIM_017.jpg	99
353.852	0.7	700.5	incongruent	Block1	incongruent/STIM_017.jpg	100
357.09	1.422	1422.1	incongruent	Block1	incongruent/STIM_018.jpg	99
361.88	0.695	694.9	incongruent	Block1	incongruent/STIM_018.jpg	100
366.136	0.914	914.5	incongruent	Block1	incongruent/STIM_018.jpg	100
369.974	1.074	1074.4	incongruent	Block1	incongruent/STIM_018.jpg	99
374.203	0.637	637.3	incongruent	Block1	incongruent/STIM_018.jpg	99
377.73	1.296	1296.5	incongruent	Block1	incongruent/STIM_019.jpg	99
381.657	1.163	1163.0	incongruent	Block1	incongruent/STIM_019.jpg	99
384.942	1.247	1247.1	incongruent	Block1	incongruent/STIM_019.jpg	100
389.407	0.966	966.2	incongruent	Block1	incongruent/STIM_019.jpg	100
393.812	0.714	714.4	incongruent	Block1	incongruent/STIM_019.jpg	100
398.098	0.955	955.4	incongruent	Block1	incongruent/STIM_020.jpg	100
401.491	0.977	977.1	incongruent	Block1	incongruent/STIM_020.jpg	99
406.342	0.857	856.8	incongruent	Block1	incongruent/STIM_020.jpg	100
410.254	0.965	965.4	incongruent	Block1	incongruent/STIM_020.jpg	99
413.873	0.56	559.5	incongruent	Block1	incongruent/STIM_020.jpg	100
417.644	1.399	1399.4	incongruent	Block1	incongruent/STIM_021.jpg	99
421.957	0.725	724.9	incongruent	Block1	incongruent/STIM_021.jpg	100
425.098	0.958	957.8	incongruent	Block1	incongruent/STIM_021.jpg	100
429.207	0.709	708.6	incongruent	Block1	incongruent/STIM_021.jpg	99
432.803	0.814	813.6	incongruent	Block1	incongruent/STIM_021.jpg	99
436.405	1.452	1451.5	incongruent	Block1	incongruent/STIM_022.jpg	100
440.113	1.04	1040.1	incongruent	Block1	incongruent/STIM_022.jpg	99
443.543	0.745	745.4	incongruent	Block1	incongruent/STIM_022.jpg	99
447.526	0.686	686.0	incongruent	Block1	incongruent/STIM_022.jpg	99
450.896	1.095	1094.6	incongruent	Block1	incongruent/STIM_022.jpg	100
454.175	1.101	1101.4	incongruent	Block1	incongruent/STIM_023.jpg	100
457.989	1.2	1200.0	incongruent	Block1	incongruent/STIM_023.jpg	100
461.316	0.761	760.9	incongruent	Block1	incongruent/STIM_023.jpg	100
464.728	0.926	925.9	incongruent	Block1	incongruent/STIM_023.jpg	99
468.521	0.69	689.7	incongruent	Block1	incongruent/STIM_023.jpg	100
472.954	1.528	1528.5	incongruent	Block1	incongruent/STIM_024.jpg	100
477.946	1.074	1074.1	incongruent	Block1	incongruent/STIM_024.jpg	100
482.7	0.965	965.2	incongruent	Block1	incongruent/STIM_024.jpg	100
486.532	1.157	1157.1	incongruent	Block1	incongruent/STIM_024.jpg	100
490.678	0.606	605.9	incongruent	Block1	incongruent/STIM_024.jpg	100
494.857	0.971	971.3	incongruent	Block1	incongruent/STIM_025.jpg	100
499.125	0.899	899.4	incongruent	Block1	incongruent/STIM_025.jpg	99
503.288	1.35	1350.4	incongruent	Block1	incongruent/STIM_025.jpg	99
508.006	0.77	770.5	incongruent	Block1	incongruent/STIM_025.jpg	99
511.3	0.722	722.4	incongruent	Block1	incongruent/STIM_025.jpg	100
514.754	1.033	1032.6	incongruent	Block1	incongruent/STIM_026.jpg	100
517.991	1.133	1132.6	incongruent	Block1	incongruent/STIM_026.jpg	99
522.253	1.077	1076.7	incongruent	Block1	incongruent/STIM_026.jpg	99
525.671	1.234	1234.5	incongruent	Block1	incongruent/STIM_026.jpg	100
528.89	0.662	662.1	incongruent	Block1	incongruent/STIM_026.jpg	99
531.875	1.143	1143.3	incongruent	Block1	incongruent/STIM_027.jpg	99
535.501	1.146	1145.9	incongruent	Block1	incongruent/STIM_027.jpg	99
539.217	1.289	1288.7	incongruent	Block1	incongruent/STIM_027.jpg	100
543.964	0.853	852.8	incongruent	Block1	incongruent/STIM_027.jpg	100
547.219	0.985	984.8	incongruent	Block1	incongruent/STIM_027.jpg	99
551.92	1.39	1390.1	incongruent	Block1	incongruent/STIM_028.jpg	100
556.562	0.83	830.1	incongruent	Block1	incongruent/STIM_028.jpg	100
560.827	0.741	741.0	incongruent	Block1	incongruent/STIM_028.jpg	100
565.411	1.122	1121.5	incongruent	Block1	incongruent/STIM_028.jpg	100
570.094	0.961	960.7	incongruent	Block1	incongruent/STIM_028.jpg	99
573.473	1.383	1383.2	incongruent	Block1	incongruent/STIM_029.jpg	99
578.79	0.615	615.4	incongruent	Block1	incongruent/STIM_029.jpg	99
581.88	0.779	778.8	incongruent	Block1	incongruent/STIM_029.jpg	99
585.063	0.735	734.7	incongruent	Block1	incongruent/STIM_029.jpg	100
589.142	0.958	958.1	incongruent	Block1	incongruent/STIM_029.jpg	99
593.293	0.544	543.7	congruent	Block1	congruent/STIM_000.jpg	99
596.401	0.62	620.2	congruent	Block1	congruent/STIM_000.jpg	100
600.766	0.407	407.0	congruent	Block1	congruent/STIM_000.jpg	100
604.08	0.895	895.4	congruent	Block1	congruent/STIM_000.jpg	100
608.596	0.545	544.8	congruent	Block1	congruent/STIM_000.jpg	100
611.951	0.7	699.7	congruent	Block1	congruent/STIM_001.jpg	99
614.885	0.931	931.2	congruent	Block1	congruent/STIM_001.jpg	100
619.72	0.929	928.7	congruent	Block1	congruent/STIM_001.jpg	99
624.314	0.801	801.2	congruent	Block1	congruent/STIM_001.jpg	100
628.842	0.571	570.9	congruent	Block1	congruent/STIM_001.jpg	99
631.896	0.775	775.2	congruent	Block1	congruent/STIM_002.jpg	100
636.069	0.813	813.4	congruent	Block1	congruent/STIM_002.jpg	100
640.892	0.844	844.2	congruent	Block1	congruent/STIM_002.jpg	100
645.569	0.51	509.8	congruent	Block1	congruent/STIM_002.jpg	99
649.123	0.666	666.1	congruent	Block1	congruent/STIM_002.jpg	99
652.839	0.84	840.2	congruent	Block1	congruent/STIM_003.jpg	99
656.204	0.916	915.9	congruent	Block1	congruent/STIM_003.jpg	100
661.073	0.716	715.9	congruent	Block1	congruent/STIM_003.jpg	100
665.786	0.613	612.9	congruent	Block1	congruent/STIM_003.jpg	100
670.524	0.822	822.0	congruent	Block1	congruent/STIM_003.jpg	99
673.476	0.834	833.7	congruent	Block1	congruent/STIM_004.jpg	99
677.85	0.582	582.0	congruent	Block1	congruent/STIM_004.jpg	100
682.383	0.788	787.8	congruent	Block1	congruent/STIM_004.jpg	99
685.22	0.696	696.2	congruent	Block1	congruent/STIM_004.jpg	99
687.902	0.801	800.6	congruent	Block1	congruent/STIM_004.jpg	100
691.175	0.53	530.0	congruent	Block1	congruent/STIM_005.jpg	99
694.105	0.86	859.6	congruent	Block1	congruent/STIM_005.jpg	99
697.037	0.526	526.3	congruent	Block1	congruent/STIM_005.jpg	100
700.775	0.442	442.4	congruent	Block1	congruent/STIM_005.jpg	99
703.509	0.698	697.5	congruent	Block1	congruent/STIM_005.jpg	100
707.292	0.653	652.6	congruent	Block1	congruent/STIM_006.jpg	99
710.882	0.6	600.3	congruent	Block1	congruent/STIM_006.jpg	99
714.371	0.784	784.4	congruent	Block1	congruent/STIM_006.jpg	100
718.159	0.721	721.2	congruent	Block1	congruent/STIM_006.jpg	100
722.597	0.687	686.6	congruent	Block1	congruent/STIM_006.jpg	100
725.633	0.593	592.6	congruent	Block1	congruent/STIM_007.jpg	99
728.577	0.851	851.0	congruent	Block1	congruent/STIM_007.jpg	100
733.399	0.874	873.9	congruent	Block1	congruent/STIM_007.jpg	100
736.605	0.866	865.6	congruent	Block1	congruent/STIM_007.jpg	99
740.497	0.649	649.3	congruent	Block1	congruent/STIM_007.jpg	100
744.326	0.582	581.5	congruent	Block1	congruent/STIM_008.jpg	100
748.223	0.671	671.1	congruent	Block1	congruent/STIM_008.jpg	99
752.553	0.674	674.1	congruent	Block1	congruent/STIM_008.jpg	100
755.622	0.835	834.7	congruent	Block1	congruent/STIM_008.jpg	99
759.634	0.603	602.6	congruent	Block1	congruent/STIM_008.jpg	100
764.186	0.978	977.7	congruent	Block1	congruent/STIM_009.jpg	100
768.833	0.903	902.6	congruent	Block1	congruent/STIM_009.jpg	99
771.98	0.874	873.6	congruent	Block1	congruent/STIM_009.jpg	99
775.73	0.731	730.8	congruent	Block1	congruent/STIM_009.jpg	99
779.284	0.733	732.8	congruent	Block1	congruent/STIM_009.jpg	99
782.54	0.496	495.6	congruent	Block1	congruent/STIM_010.jpg	99
785.128	0.53	530.1	congruent	Block1	congruent/STIM_010.jpg	100
789.469	0.695	694.8	congruent	Block1	congruent/STIM_010.jpg	100
792.34	0.752	752.0	congruent	Block1	congruent/STIM_010.jpg	99
795.71	0.625	625.3	congruent	Block1	congruent/STIM_010.jpg	100
799.424	0.562	562.4	congruent	Block1	congruent/STIM_011.jpg	99
802.968	0.782	781.5	congruent	Block1	congruent/STIM_011.jpg	99
807.442	0.639	639.3	congruent	Block1	congruent/STIM_011.jpg	100
811.778	0.893	892.6	congruent	Block1	congruent/STIM_011.jpg	100
815.539	0.706	706.4	congruent	Block1	congruent/STIM_011.jpg	99
819.552	0.515	515.3	congruent	Block1	congruent/STIM_012.jpg	100
822.18	0.747	747.0	congruent	Block1	congruent/STIM_012.jpg	99
825.261	0.949	948.9	congruent	Block1	congruent/STIM_012.jpg	100
829.781	0.802	802.0	congruent	Block1	congruent/STIM_012.jpg	100
834.454	0.922	922.3	congruent	Block1	congruent/STIM_012.jpg	99
837.955	0.78	779.9	congruent	Block1	congruent/STIM_013.jpg	100
841.264	0.669	668.6	congruent	Block1	congruent/STIM_013.jpg	100
843.896	0.827	826.8	congruent	Block1	congruent/STIM_013.jpg	100
847.907	0.752	751.9	congruent	Block1	congruent/STIM_013.jpg	99
852.139	0.717	716.6	congruent	Block1	congruent/STIM_013.jpg	99
855.322	0.89	889.6	congruent	Block1	congruent/STIM_014.jpg	100
860.01	0.643	642.8	congruent	Block1	congruent/STIM_014.jpg	99
862.822	0.579	579.4	congruent	Block1	congruent/STIM_014.jpg	100
866.468	0.49	489.6	congruent	Block1	congruent/STIM_014.jpg	99
869.812	0.866	866.2	congruent	Block1	congruent/STIM_014.jpg	99
873.987	0.823	823.0	congruent	Block1	congruent/STIM_015.jpg	99
878.335	0.59	590.1	congruent	Block1	congruent/STIM_015.jpg	100
882.425	0.56	559.5	congruent	Block1	congruent/STIM_015.jpg	100
885.298	0.815	815.4	congruent	Block1	congruent/STIM_015.jpg	100
888.966	0.574	574.4	congruent	Block1	congruent/STIM_015.jpg	100
893.087	0.8	800.0	congruent	Block1	congruent/STIM_016.jpg	100
896.64	0.74	739.6	congruent	Block1	congruent/STIM_016.jpg	100
900.562	0.665	665.3	congruent	Block1	congruent/STIM_016.jpg	99
904.157	0.897	897.2	congruent	Block1	congruent/STIM_016.jpg	99
907.595	0.562	562.5	congruent	Block1	congruent/STIM_016.jpg	100
910.506	0.808	807.8	congruent	Block1	congruent/STIM_017.jpg	99
913.609	0.823	823.2	congruent	Block1	congruent/STIM_017.jpg	100
916.818	0.894	893.7	congruent	Block1	congruent/STIM_017.jpg	100
921.11	0.883	883.0	congruent	Block1	congruent/STIM_017.jpg	100
924.214	0.542	542.3	congruent	Block1	congruent/STIM_017.jpg	99
926.821	0.779	779.2	congruent	Block1	congruent/STIM_018.jpg	100
930.789	0.845	845.4	congruent	Block1	congruent/STIM_018.jpg	99
934.347	0.478	477.7	congruent	Block1	congruent/STIM_018.jpg	100
936.944	0.896	895.9	congruent	Block1	congruent/STIM_018.jpg	100
941.056	0.579	579.2	congruent	Block1	congruent/STIM_018.jpg	99
945.103	0.492	491.9	congruent	Block1	congruent/STIM_019.jpg	99
949.151	0.884	884.1	congruent	Block1	congruent/STIM_019.jpg	99
952.016	0.555	555.2	congruent	Block1	congruent/STIM_019.jpg	99
956.508	0.934	934.2	congruent	Block1	congruent/STIM_019.jpg	100
960.23	0.73	729.6	congruent	Block1	congruent/STIM_019.jpg	99
963.155	0.477	476.7	congruent	Block1	congruent/STIM_020.jpg	100
967.347	0.618	617.8	congruent	Block1	congruent/STIM_020.jpg	99
970.973	0.66	660.1	congruent	Block1	congruent/STIM_020.jpg	99
974.673	0.842	842.3	congruent	Block1	congruent/STIM_020.jpg	99
977.781	0.777	776.9	congruent	Block1	congruent/STIM_020.jpg	99
981.303	0.762	761.7	congruent	Block1	congruent/STIM_021.jpg	100
984.594	0.846	845.7	congruent	Block1	congruent/STIM_021.jpg	99
987.46	0.753	753.3	congruent	Block1	congruent/STIM_021.jpg	99
992.064	0.685	684.7	congruent	Block1	congruent/STIM_021.jpg	99
995.594	0.533	533.0	congruent	Block1	congruent/STIM_021.jpg	99
998.805	1.0	999.6	congruent	Block1	congruent/STIM_022.jpg	99
1002.887	0.872	871.7	congruent	Block1	congruent/STIM_022.jpg	100
1005.891	0.566	566.4	congruent	Block1	congruent/STIM_022.jpg	100
1008.997	0.594	594.3	congruent	Block1	congruent/STIM_022.jpg	100
1012.008	0.67	670.3	congruent	Block1	congruent/STIM_022.jpg	100
1016.577	0.557	557.4	congruent	Block1	congruent/STIM_023.jpg	100
1019.118	0.907	907.1	congruent	Block1	congruent/STIM_023.jpg	99
1022.595	0.746	745.8	congruent	Block1	congruent/STIM_023.jpg	99
1027.068	0.482	481.8	congruent	Block1	congruent/STIM_023.jpg	99
1029.769	0.831	831.1	congruent	Block1	congruent/STIM_023.jpg	99
1032.669	0.842	842.1	congruent	Block1	congruent/STIM_024.jpg	100
1036.758	0.819	819.3	congruent	Block1	congruent/STIM_024.jpg	99
1041.037	0.621	620.8	congruent	Block1	congruent/STIM_024.jpg	100
1044.217	0.896	896.5	congruent	Block1	congruent/STIM_024.jpg	99
1047.541	0.576	575.5	congruent	Block1	congruent/STIM_024.jpg	99
1051.376	0.885	884.9	congruent	Block1	congruent/STIM_025.jpg	99
1055.167	0.479	478.7	congruent	Block1	congruent/STIM_025.jpg	99
1058.191	0.95	949.6	congruent	Block1	congruent/STIM_025.jpg	100
1062.683	0.893	893.4	congruent	Block1	congruent/STIM_025.jpg	100
1066.913	0.773	772.7	congruent	Block1	congruent/STIM_025.jpg	100
1070.344	0.513	513.0	congruent	Block1	congruent/STIM_026.jpg	100
1073.077	0.672	672.2	congruent	Block1	congruent/STIM_026.jpg	100
1076.838	0.854	853.6	congruent	Block1	congruent/STIM_026.jpg	100
1081.326	0.525	525.0	congruent	Block1	congruent/STIM_026.jpg	99
1084.71	0.911	911.3	congruent	Block1	congruent/STIM_026.jpg	99
1087.878	0.567	567.4	congruent	Block1	congruent/STIM_027.jpg	99
1091.361	0.571	570.6	congruent	Block1	congruent/STIM_027.jpg	99
1094.318	0.509	509.2	congruent	Block1	congruent/STIM_027.jpg	100
1096.998	0.814	814.0	congruent	Block1	congruent/STIM_027.jpg	100
1100.789	0.701	701.1	congruent	Block1	congruent/STIM_027.jpg	99
1103.553	0.708	707.7	congruent	Block1	congruent/STIM_028.jpg	100
1106.412	0.838	837.6	congruent	Block1	congruent/STIM_028.jpg	100
1109.472	0.717	716.9	congruent	Block1	congruent/STIM_028.jpg	100
1113.965	0.808	808.4	congruent	Block1	congruent/STIM_028.jpg	100
1118.568	0.874	874.2	congruent	Block1	congruent/STIM_028.jpg	99
1121.953	0.658	657.7	congruent	Block1	congruent/STIM_029.jpg	100
1125.286	0.554	554.0	congruent	Block1	congruent/STIM_029.jpg	100
1129.441	0.603	602.8	congruent	Block1	congruent/STIM_029.jpg	100
1132.418	0.686	686.3	congruent	Block1	congruent/STIM_029.jpg	99
1136.362	0.505	505.4	congruent	Block1	congruent/STIM_029.jpg	100
1140.327	1.199	1198.9	incongruent	Block2	incongruent/STIM_000.jpg	99
1144.453	1.189	1188.7	incongruent	Block2	incongruent/STIM_000.jpg	99
1148.966	0.719	718.8	incongruent	Block2	incongruent/STIM_000.jpg	100
1152.879	1.06	1060.3	incongruent	Block2	incongruent/STIM_000.jpg	99
1157.035	0.744	744.2	incongruent	Block2	incongruent/STIM_000.jpg	99
1161.75	0.881	881.4	incongruent	Block2	incongruent/STIM_001.jpg	100
1165.405	0.848	848.1	incongruent	Block2	incongruent/STIM_001.jpg	100
1169.002	0.759	759.4	incongruent	Block2	incongruent/STIM_001.jpg	99
1172.646	0.56	560.4	incongruent	Block2	incongruent/STIM_001.jpg	100
1175.44	0.542	542.0	incongruent	Block2	incongruent/STIM_001.jpg	99
1178.053	0.747	746.9	incongruent	Block2	incongruent/STIM_002.jpg	100
1182.563	0.963	962.7	incongruent	Block2	incongruent/STIM_002.jpg	99
1187.514	0.768	767.6	incongruent	Block2	incongruent/STIM_002.jpg	99
1191.757	0.732	731.8	incongruent	Block2	incongruent/STIM_002.jpg	100
1195.388	0.51	509.9	incongruent	Block2	incongruent/STIM_002.jpg	99
1198.404	1.183	1182.7	incongruent	Block2	incongruent/STIM_003.jpg	99
1202.383	0.782	782.5	incongruent	Block2	incongruent/STIM_003.jpg	100
1205.523	0.788	787.6	incongruent	Block2	incongruent/STIM_003.jpg	100
1210.038	0.606	605.5	incongruent	Block2	incongruent/STIM_003.jpg	99
1213.959	0.629	629.3	incongruent	Block2	incongruent/STIM_003.jpg	99
1216.651	0.998	997.8	incongruent	Block2	incongruent/STIM_004.jpg	100
1219.656	0.93	930.1	incongruent	Block2	incongruent/STIM_004.jpg	100
1223.991	1.128	1127.9	incongruent	Block2	incongruent/STIM_004.jpg	99
1229.079	1.088	1088.0	incongruent	Block2	incongruent/STIM_004.jpg	100
1232.951	0.768	768.3	incongruent	Block2	incongruent/STIM_004.jpg	100
1236.508	0.559	559.0	incongruent	Block2	incongruent/STIM_005.jpg	99
1239.825	0.65	649.5	incongruent	Block2	incongruent/STIM_005.jpg	99
1243.157	1.116	1115.5	incongruent	Block2	incongruent/STIM_005.jpg	100
1246.907	0.83	830.0	incongruent	Block2	incongruent/STIM_005.jpg	100
1251.488	1.009	1009.3	incongruent	Block2	incongruent/STIM_005.jpg	99
1256.442	1.102	1101.7	incongruent	Block2	incongruent/STIM_006.jpg	99
1261.37	0.843	843.3	incongruent	Block2	incongruent/STIM_006.jpg	100
1264.532	0.614	614.0	incongruent	Block2	incongruent/STIM_006.jpg	100
1267.548	0.515	515.1	incongruent	Block2	incongruent/STIM_006.jpg	99
1270.825	0.929	928.9	incongruent	Block2	incongruent/STIM_006.jpg	99
1274.12	0.778	777.8	incongruent	Block2	incongruent/STIM_007.jpg	100
1278.847	1.061	1060.7	incongruent	Block2	incongruent/STIM_007.jpg	100
1283.593	0.849	848.7	incongruent	Block2	incongruent/STIM_007.jpg	99
1286.582	0.919	918.7	incongruent	Block2	incongruent/STIM_007.jpg	99
1291.429	0.645	644.9	incongruent	Block2	incongruent/STIM_007.jpg	100
1294.077	0.798	797.5	incongruent	Block2	incongruent/STIM_008.jpg	99
1297.873	1.167	1166.7	incongruent	Block2	incongruent/STIM_008.jpg	99
1302.398	0.898	897.8	incongruent	Block2	incongruent/STIM_008.jpg	100
1306.478	0.99	989.9	incongruent	Block2	incongruent/STIM_008.jpg	99
1311.163	0.752	751.5	incongruent	Block2	incongruent/STIM_008.jpg	99
1314.376	0.747	746.7	incongruent	Block2	incongruent/STIM_009.jpg	99
1317.983	0.892	892.3	incongruent	Block2	incongruent/STIM_009.jpg	99
1320.95	0.72	719.6	incongruent	Block2	incongruent/STIM_009.jpg	100
1325.115	0.679	679.0	incongruent	Block2	incongruent/STIM_009.jpg	99
1328.248	1.054	1054.3	incongruent	Block2	incongruent/STIM_009.jpg	99
1331.857	0.651	650.9	incongruent	Block2	incongruent/STIM_010.jpg	99
1335.807	1.055	1055.3	incongruent	Block2	incongruent/STIM_010.jpg	99
1338.783	0.676	675.5	incongruent	Block2	incongruent/STIM_010.jpg	99
1342.56	0.614	613.6	incongruent	Block2	incongruent/STIM_010.jpg	99
1345.252	0.598	597.5	incongruent	Block2	incongruent/STIM_010.jpg	99
1349.532	0.825	824.7	incongruent	Block2	incongruent/STIM_011.jpg	99
1353.023	0.741	740.8	incongruent	Block2	incongruent/STIM_011.jpg	99
1357.237	0.843	842.9	incongruent	Block2	incongruent/STIM_011.jpg	100
1361.249	0.657	656.9	incongruent	Block2	incongruent/STIM_011.jpg	100
1364.461	0.849	849.1	incongruent	Block2	incongruent/STIM_011.jpg	99
1367.4	1.196	1196.1	incongruent	Block2	incongruent/STIM_012.jpg	100
1370.721	1.222	1221.7	incongruent	Block2	incongruent/STIM_012.jpg	99
1374.573	0.843	842.6	incongruent	Block2	incongruent/STIM_012.jpg	100
1378.857	0.578	578.4	incongruent	Block2	incongruent/STIM_012.jpg	100
1382.133	0.57	570.5	incongruent	Block2	incongruent/STIM_012.jpg	99
1386.529	1.208	1207.7	incongruent	Block2	incongruent/STIM_013.jpg	99
1390.766	0.993	992.6	incongruent	Block2	incongruent/STIM_013.jpg	99
1394.044	0.71	710.4	incongruent	Block2	incongruent/STIM_013.jpg	99
1397.307	0.741	740.8	incongruent	Block2	incongruent/STIM_013.jpg	100
1402.001	0.762	762.1	incongruent	Block2	incongruent/STIM_013.jpg	100
1406.12	1.28	1280.0	incongruent	Block2	incongruent/STIM_014.jpg	100
1409.937	0.785	784.8	incongruent	Block2	incongruent/STIM_014.jpg	99
1413.751	0.927	926.8	incongruent	Block2	incongruent/STIM_014.jpg	99
1417.39	0.707	706.6	incongruent	Block2	incongruent/STIM_014.jpg	100
1420.674	1.054	1053.7	incongruent	Block2	incongruent/STIM_014.jpg	99
1423.998	0.592	592.3	incongruent	Block2	incongruent/STIM_015.jpg	99
1426.947	0.912	911.6	incongruent	Block2	incongruent/STIM_015.jpg	100
1431.519	1.128	1128.1	incongruent	Block2	incongruent/STIM_015.jpg	100
1435.149	0.835	834.9	incongruent	Block2	incongruent/STIM_015.jpg	100
1439.029	0.695	695.2	incongruent	Block2	incongruent/STIM_015.jpg	99
1442.032	0.83	830.1	incongruent	Block2	incongruent/STIM_016.jpg	100
1445.524	1.197	1197.2	incongruent	Block2	incongruent/STIM_016.jpg	100
1448.795	1.174	1173.6	incongruent	Block2	incongruent/STIM_016.jpg	99
1451.913	1.005	1005.1	incongruent	Block2	incongruent/STIM_016.jpg	99
1455.929	0.863	862.9	incongruent	Block2	incongruent/STIM_016.jpg	99
1460.286	0.844	843.9	incongruent	Block2	incongruent/STIM_017.jpg	100
1464.455	0.733	732.6	incongruent	Block2	incongruent/STIM_017.jpg	100
1468.196	0.794	793.9	incongruent	Block2	incongruent/STIM_017.jpg	99
1471.713	1.01	1010.4	incongruent	Block2	incongruent/STIM_017.jpg	100
1476.254	0.812	811.5	incongruent	Block2	incongruent/STIM_017.jpg	100
1480.008	1.056	1056.5	incongruent	Block2	incongruent/STIM_018.jpg	99
1483.906	1.042	1042.3	incongruent	Block2	incongruent/STIM_018.jpg	99
1488.337	0.802	802.4	incongruent	Block2	incongruent/STIM_018.jpg	100
1492.838	0.884	883.5	incongruent	Block2	incongruent/STIM_018.jpg	99
1496.816	0.955	954.9	incongruent	Block2	incongruent/STIM_018.jpg	99
1500.888	1.172	1171.9	incongruent	Block2	incongruent/STIM_019.jpg	100
1504.717	1.135	1134.9	incongruent	Block2	incongruent/STIM_019.jpg	99
1508.587	0.638	638.0	incongruent	Block2	incongruent/STIM_019.jpg	99
1511.419	0.526	525.8	incongruent	Block2	incongruent/STIM_019.jpg	99
1515.807	0.923	922.7	incongruent	Block2	incongruent/STIM_019.jpg	100
1520.395	1.271	1271.2	incongruent	Block2	incongruent/STIM_020.jpg	99
1523.855	1.128	1128.0	incongruent	Block2	incongruent/STIM_020.jpg	99
1528.415	0.819	818.6	incongruent	Block2	incongruent/STIM_020.jpg	99
1532.872	0.725	725.4	incongruent	Block2	incongruent/STIM_020.jpg	99
1536.854	0.935	934.8	incongruent	Block2	incongruent/STIM_020.jpg	99
1539.951	0.907	907.3	incongruent	Block2	incongruent/STIM_021.jpg	99
1543.035	1.063	1063.0	incongruent	Block2	incongruent/STIM_021.jpg	100
1547.37	0.709	709.4	incongruent	Block2	incongruent/STIM_021.jpg	100
1552.106	1.012	1012.2	incongruent	Block2	incongruent/STIM_021.jpg	100
1557.056	0.674	674.1	incongruent	Block2	incongruent/STIM_021.jpg	100
1560.692	1.391	1391.0	incongruent	Block2	incongruent/STIM_022.jpg	100
1565.153	0.698	698.2	incongruent	Block2	incongruent/STIM_022.jpg	100
1567.976	0.876	876.5	incongruent	Block2	incongruent/STIM_022.jpg	100
1571.295	1.0	999.6	incongruent	Block2	incongruent/STIM_022.jpg	100
1575.24	0.751	750.9	incongruent	Block2	incongruent/STIM_022.jpg	100
1578.693	1.298	1298.2	incongruent	Block2	incongruent/STIM_023.jpg	99
1582.052	1.146	1145.5	incongruent	Block2	incongruent/STIM_023.jpg	99
1585.67	0.651	650.9	incongruent	Block2	incongruent/STIM_023.jpg	99
1589.917	0.857	857.2	incongruent	Block2	incongruent/STIM_023.jpg	99
1593.736	0.887	886.8	incongruent	Block2	incongruent/STIM_023.jpg	100
1596.728	1.201	1200.8	incongruent	Block2	incongruent/STIM_024.jpg	100
1601.087	1.064	1064.5	incongruent	Block2	incongruent/STIM_024.jpg	99
1605.358	0.663	662.7	incongruent	Block2	incongruent/STIM_024.jpg	100
1608.532	0.429	429.1	incongruent	Block2	incongruent/STIM_024.jpg	99
1612.545	0.878	878.1	incongruent	Block2	incongruent/STIM_024.jpg	99
1616.682	0.921	921.4	incongruent	Block2	incongruent/STIM_025.jpg	100
1619.754	0.649	649.1	incongruent	Block2	incongruent/STIM_025.jpg	99
1622.925	0.84	840.2	incongruent	Block2	incongruent/STIM_025.jpg	100
1626.941	0.679	678.6	incongruent	Block2	incongruent/STIM_025.jpg	99
1629.83	0.706	705.7	incongruent	Block2	incongruent/STIM_025.jpg	100
1634.539	0.759	758.7	incongruent	Block2	incongruent/STIM_026.jpg	100
1637.641	0.709	708.9	incongruent	Block2	incongruent/STIM_026.jpg	100
1641.541	0.924	924.3	incongruent	Block2	incongruent/STIM_026.jpg	100
1646.277	0.734	734.2	incongruent	Block2	incongruent/STIM_026.jpg	99
1649.628	0.569	569.4	incongruent	Block2	incongruent/STIM_026.jpg	99
1652.498	0.709	708.7	incongruent	Block2	incongruent/STIM_027.jpg	99
1656.929	0.718	718.0	incongruent	Block2	incongruent/STIM_027.jpg	100
1660.078	0.942	942.4	incongruent	Block2	incongruent/STIM_027.jpg	100
1663.064	0.896	896.2	incongruent	Block2	incongruent/STIM_027.jpg	100
1667.586	0.587	587.4	incongruent	Block2	incongruent/STIM_027.jpg	99
1670.94	1.197	1197.1	incongruent	Block2	incongruent/STIM_028.jpg	100
1675.017	0.884	884.4	incongruent	Block2	incongruent/STIM_028.jpg	99
1679.29	0.732	731.9	incongruent	Block2	incongruent/STIM_028.jpg	99
1683.367	0.89	889.7	incongruent	Block2	incongruent/STIM_028.jpg	100
1686.761	0.965	965.4	incongruent	Block2	incongruent/STIM_028.jpg	99
1690.487	0.669	668.6	incongruent	Block2	incongruent/STIM_029.jpg	100
1693.454	1.0	1000.1	incongruent	Block2	incongruent/STIM_029.jpg	100
1698.172	0.657	656.8	incongruent	Block2	incongruent/STIM_029.jpg	99
1702.728	0.991	990.6	incongruent	Block2	incongruent/STIM_029.jpg	99
1705.92	0.548	548.2	incongruent	Block2	incongruent/STIM_029.jpg	99
1710.204	0.579	578.7	congruent	Block2	congruent/STIM_000.jpg	99
1714.274	0.912	912.5	congruent	Block2	congruent/STIM_000.jpg	99
1717.951	0.608	607.7	congruent	Block2	congruent/STIM_000.jpg	100
1721.347	0.54	539.5	congruent	Block2	congruent/STIM_000.jpg	100
1724.226	0.594	594.0	congruent	Block2	congruent/STIM_000.jpg	99
1728.836	0.853	853.1	congruent	Block2	congruent/STIM_001.jpg	99
1732.482	0.715	715.1	congruent	Block2	congruent/STIM_001.jpg	100
1735.428	0.862	861.8	congruent	Block2	congruent/STIM_001.jpg	100
1738.404	0.588	588.0	congruent	Block2	congruent/STIM_001.jpg	99
1741.806	0.689	689.1	congruent	Block2	congruent/STIM_001.jpg	99
1744.953	0.716	715.9	congruent	Block2	congruent/STIM_002.jpg	99
1749.026	0.603	603.3	congruent	Block2	congruent/STIM_002.jpg	100
1753.543	0.897	896.7	congruent	Block2	congruent/STIM_002.jpg	99
1757.45	0.571	570.6	congruent	Block2	congruent/STIM_002.jpg	100
1760.408	0.535	534.9	congruent	Block2	congruent/STIM_002.jpg	99
1763.941	0.757	756.9	congruent	Block2	congruent/STIM_003.jpg	100
1768.005	0.903	902.6	congruent	Block2	congruent/STIM_003.jpg	100
1771.571	0.626	626.1	congruent	Block2	congruent/STIM_003.jpg	99
1775.253	0.602	601.8	congruent	Block2	congruent/STIM_003.jpg	100
1778.04	0.52	520.5	congruent	Block2	congruent/STIM_003.jpg	100
1782.527	0.588	587.5	congruent	Block2	congruent/STIM_004.jpg	99
1786.179	0.863	862.6	congruent	Block2	congruent/STIM_004.jpg	99
1789.388	0.689	688.9	congruent	Block2	congruent/STIM_004.jpg	99
1793.071	0.814	813.9	congruent	Block2	congruent/STIM_004.jpg	100
1797.342	0.909	909.1	congruent	Block2	congruent/STIM_004.jpg	99
1800.434	0.837	836.9	congruent	Block2	congruent/STIM_005.jpg	99
1805.123	0.769	768.8	congruent	Block2	congruent/STIM_005.jpg	100
1808.747	0.784	784.1	congruent	Block2	congruent/STIM_005.jpg	100
1812.44	0.81	809.8	congruent	Block2	congruent/STIM_005.jpg	100
1817.205	0.815	815.1	congruent	Block2	congruent/STIM_005.jpg	100
1821.359	0.74	740.0	congruent	Block2	congruent/STIM_006.jpg	99
1826.044	0.715	714.6	congruent	Block2	congruent/STIM_006.jpg	100
1829.684	0.785	785.2	congruent	Block2	congruent/STIM_006.jpg	100
1833.924	0.696	696.2	congruent	Block2	congruent/STIM_006.jpg	99
1837.417	0.879	878.9	congruent	Block2	congruent/STIM_006.jpg	99
1841.788	0.781	781.0	congruent	Block2	congruent/STIM_007.jpg	100
1845.222	0.783	782.7	congruent	Block2	congruent/STIM_007.jpg	100
1848.736	0.779	778.9	congruent	Block2	congruent/STIM_007.jpg	99
1853.118	0.72	719.5	congruent	Block2	congruent/STIM_007.jpg	99
1857.763	0.848	848.0	congruent	Block2	congruent/STIM_007.jpg	100
1862.557	0.576	575.6	congruent	Block2	congruent/STIM_008.jpg	100
1866.788	0.609	609.0	congruent	Block2	congruent/STIM_008.jpg	100
1869.97	0.811	811.1	congruent	Block2	congruent/STIM_008.jpg	99
1873.043	0.628	627.5	congruent	Block2	congruent/STIM_008.jpg	100
1876.32	0.716	715.7	congruent	Block2	congruent/STIM_008.jpg	99
1879.039	0.879	878.6	congruent	Block2	congruent/STIM_009.jpg	99
1882.411	0.575	574.9	congruent	Block2	congruent/STIM_009.jpg	100
1885.182	0.943	942.6	congruent	Block2	congruent/STIM_009.jpg	99
1889.526	0.634	633.6	congruent	Block2	congruent/STIM_009.jpg	100
1892.346	0.763	762.7	congruent	Block2	congruent/STIM_009.jpg	99
1896.122	0.852	852.0	congruent	Block2	congruent/STIM_010.jpg	100
1900.133	0.718	717.6	congruent	Block2	congruent/STIM_010.jpg	100
1903.557	0.589	589.1	congruent	Block2	congruent/STIM_010.jpg	99
1906.702	0.811	811.3	congruent	Block2	congruent/STIM_010.jpg	99
1910.158	0.51	509.6	congruent	Block2	congruent/STIM_010.jpg	100
1912.843	0.836	835.6	congruent	Block2	congruent/STIM_011.jpg	99
1916.307	0.844	844.2	congruent	Block2	congruent/STIM_011.jpg	99
1919.468	0.834	834.5	congruent	Block2	congruent/STIM_011.jpg	100
1922.479	0.682	682.2	congruent	Block2	congruent/STIM_011.jpg	100
1926.179	0.763	763.1	congruent	Block2	congruent/STIM_011.jpg	100
1929.624	0.869	868.6	congruent	Block2	congruent/STIM_012.jpg	100
1932.65	0.648	648.1	congruent	Block2	congruent/STIM_012.jpg	100
1936.36	0.762	762.4	congruent	Block2	congruent/STIM_012.jpg	99
1940.166	0.922	921.5	congruent	Block2	congruent/STIM_012.jpg	99
1944.182	0.624	623.5	congruent	Block2	congruent/STIM_012.jpg	100
1946.955	0.803	803.3	congruent	Block2	congruent/STIM_013.jpg	99
1951.158	0.58	580.2	congruent	Block2	congruent/STIM_013.jpg	99
1954.9	0.538	538.3	congruent	Block2	congruent/STIM_013.jpg	99
1958.615	0.476	475.9	congruent	Block2	congruent/STIM_013.jpg	100
1961.823	0.892	892.0	congruent	Block2	congruent/STIM_013.jpg	99
1966.369	0.603	602.7	congruent	Block2	congruent/STIM_014.jpg	100
1969.624	0.778	777.7	congruent	Block2	congruent/STIM_014.jpg	100
1973.88	0.675	674.6	congruent	Block2	congruent/STIM_014.jpg	99
1976.693	0.711	710.8	congruent	Block2	congruent/STIM_014.jpg	99
1980.899	0.51	510.1	congruent	Block2	congruent/STIM_014.jpg	99
1984.527	0.718	717.9	congruent	Block2	congruent/STIM_015.jpg	99
1988.284	0.736	736.3	congruent	Block2	congruent/STIM_015.jpg	99
1991.752	0.597	597.2	congruent	Block2	congruent/STIM_015.jpg	100
1995.976	0.718	717.7	congruent	Block2	congruent/STIM_015.jpg	100
2000.093	0.715	715.1	congruent	Block2	congruent/STIM_015.jpg	100
2004.79	0.591	591.4	congruent	Block2	congruent/STIM_016.jpg	100
2009.259	0.605	605.4	congruent	Block2	congruent/STIM_016.jpg	99
2013.103	0.646	645.6	congruent	Block2	congruent/STIM_016.jpg	100
2017.142	0.59	589.7	congruent	Block2	congruent/STIM_016.jpg	100
2021.3	0.882	882.5	congruent	Block2	congruent/STIM_016.jpg	100
2024.685	0.661	660.6	congruent	Block2	congruent/STIM_017.jpg	100
2029.204	0.698	698.5	congruent	Block2	congruent/STIM_017.jpg	99
2033.664	0.803	803.3	congruent	Block2	congruent/STIM_017.jpg	100
2036.664	0.45	450.0	congruent	Block2	congruent/STIM_017.jpg	100
2040.295	0.915	915.3	congruent	Block2	congruent/STIM_017.jpg	100
2044.962	0.622	622.5	congruent	Block2	congruent/STIM_018.jpg	100
2048.553	0.827	827.4	congruent	Block2	congruent/STIM_018.jpg	99
2052.204	0.487	486.6	congruent	Block2	congruent/STIM_018.jpg	100
2056.244	0.804	803.5	congruent	Block2	congruent/STIM_018.jpg	100
2059.496	0.784	783.9	congruent	Block2	congruent/STIM_018.jpg	99
2062.291	0.579	579.0	congruent	Block2	congruent/STIM_019.jpg	99
2065.773	0.885	885.4	congruent	Block2	congruent/STIM_019.jpg	99
2069.906	0.879	879.2	congruent	Block2	congruent/STIM_019.jpg	100
2073.642	0.699	699.4	congruent	Block2	congruent/STIM_019.jpg	99
2077.841	0.852	851.8	congruent	Block2	congruent/STIM_019.jpg	99
2081.994	0.67	670.0	congruent	Block2	congruent/STIM_020.jpg	100
2086.365	0.622	622.4	congruent	Block2	congruent/STIM_020.jpg	99
2090.79	0.878	877.8	congruent	Block2	congruent/STIM_020.jpg	100
2094.722	0.816	815.6	congruent	Block2	congruent/STIM_020.jpg	99
2098.497	0.692	691.7	congruent	Block2	congruent/STIM_020.jpg	99
2102.555	0.747	747.3	congruent	Block2	congruent/STIM_021.jpg	100
2106.587	0.891	891.4	congruent	Block2	congruent/STIM_021.jpg	100
2111.321	0.52	519.8	congruent	Block2	congruent/STIM_021.jpg	100
2115.428	0.673	673.0	congruent	Block2	congruent/STIM_021.jpg	99
2118.858	0.579	579.3	congruent	Block2	congruent/STIM_021.jpg	99
2123.241	0.724	724.5	congruent	Block2	congruent/STIM_022.jpg	100
2126.904	0.747	746.6	congruent	Block2	congruent/STIM_022.jpg	100
2131.505	0.674	674.0	congruent	Block2	congruent/STIM_022.jpg	100
2134.695	0.558	558.4	congruent	Block2	congruent/STIM_022.jpg	99
2139.165	0.807	807.0	congruent	Block2	congruent/STIM_022.jpg	99
2143.806	0.825	825.1	congruent	Block2	congruent/STIM_023.jpg	100
2148.495	0.686	685.9	congruent	Block2	congruent/STIM_023.jpg	99
2151.767	0.798	798.4	congruent	Block2	congruent/STIM_023.jpg	99
2155.327	0.634	634.2	congruent	Block2	congruent/STIM_023.jpg	99
2158.785	0.747	747.0	congruent	Block2	congruent/STIM_023.jpg	99
2163.11	0.569	569.2	congruent	Block2	congruent/STIM_024.jpg	99
2165.857	0.933	933.4	congruent	Block2	congruent/STIM_024.jpg	100
2169.685	0.689	689.1	congruent	Block2	congruent/STIM_024.jpg	99
2173.11	0.504	504.4	congruent	Block2	congruent/STIM_024.jpg	100
2177.321	0.865	864.8	congruent	Block2	congruent/STIM_024.jpg	100
2181.758	0.748	747.7	congruent	Block2	congruent/STIM_025.jpg	100
2185.394	0.834	833.6	congruent	Block2	congruent/STIM_025.jpg	100
2188.879	0.766	765.9	congruent	Block2	congruent/STIM_025.jpg	100
2191.928	0.834	834.3	congruent	Block2	congruent/STIM_025.jpg	100
2195.047	0.476	475.9	congruent	Block2	congruent/STIM_025.jpg	99
2198.918	0.574	574.5	congruent	Block2	congruent/STIM_026.jpg	100
2202.532	0.7	699.9	congruent	Block2	congruent/STIM_026.jpg	100
2205.851	0.638	638.3	congruent	Block2	congruent/STIM_026.jpg	100
2208.786	0.842	842.1	congruent	Block2	congruent/STIM_026.jpg	100
2212.853	0.522	522.3	congruent	Block2	congruent/STIM_026.jpg	100
2216.459	0.866	866.0	congruent	Block2	congruent/STIM_027.jpg	99
2220.061	0.672	671.5	congruent	Block2	congruent/STIM_027.jpg	100
2223.762	0.612	611.6	congruent	Block2	congruent/STIM_027.jpg	100
2227.394	0.881	881.0	congruent	Block2	congruent/STIM_027.jpg	99
2231.174	0.637	637.1	congruent	Block2	congruent/STIM_027.jpg	99
2235.099	0.802	802.0	congruent	Block2	congruent/STIM_028.jpg	100
2238.83	0.712	712.0	congruent	Block2	congruent/STIM_028.jpg	99
2242.026	0.808	807.5	congruent	Block2	congruent/STIM_028.jpg	100
2246.111	0.868	867.7	congruent	Block2	congruent/STIM_028.jpg	100
2249.01	0.99	990.4	congruent	Block2	congruent/STIM_028.jpg	99
2252.949	0.777	777.4	congruent	Block2	congruent/STIM_029.jpg	100
2256.604	0.56	559.5	congruent	Block2	congruent/STIM_029.jpg	99
2259.929	0.978	978.4	congruent	Block2	congruent/STIM_029.jpg	100
2263.31	0.71	710.1	congruent	Block2	congruent/STIM_029.jpg	99
2267.014	0.948	947.6	congruent	Block2	congruent/STIM_029.jpg	99
2270.865	0.562	561.7	incongruent	Block3	incongruent/STIM_000.jpg	100
2274.754	0.588	588.0	incongruent	Block3	incongruent/STIM_000.jpg	99
2278.01	0.685	684.8	incongruent	Block3	incongruent/STIM_000.jpg	100
2281.951	0.727	727.4	incongruent	Block3	incongruent/STIM_000.jpg	100
2284.952	0.73	730.4	incongruent	Block3	incongruent/STIM_000.jpg	100
2288.101	0.959	959.0	incongruent	Block3	incongruent/STIM_001.jpg	100
2293.054	0.799	798.7	incongruent	Block3	incongruent/STIM_001.jpg	99
2297.026	0.664	664.2	incongruent	Block3	incongruent/STIM_001.jpg	100
2300.067	0.516	515.6	incongruent	Block3	incongruent/STIM_001.jpg	100
2303.11	0.49	489.5	incongruent	Block3	incongruent/STIM_001.jpg	99
2306.054	0.634	634.2	incongruent	Block3	incongruent/STIM_002.jpg	100
2309.795	0.711	711.4	incongruent	Block3	incongruent/STIM_002.jpg	99
2313.543	0.779	779.1	incongruent	Block3	incongruent/STIM_002.jpg	99
2317.23	1.089	1089.3	incongruent	Block3	incongruent/STIM_002.jpg	99
2321.054	0.826	825.6	incongruent	Block3	incongruent/STIM_002.jpg	99
2325.802	0.53	529.9	incongruent	Block3	incongruent/STIM_003.jpg	100
2328.727	0.973	973.4	incongruent	Block3	incongruent/STIM_003.jpg	99
2333.656	0.618	618.1	incongruent	Block3	incongruent/STIM_003.jpg	99
2337.349	0.77	770.3	incongruent	Block3	incongruent/STIM_003.jpg	100
2340.261	0.847	846.7	incongruent	Block3	incongruent/STIM_003.jpg	99
2344.982	0.676	675.7	incongruent	Block3	incongruent/STIM_004.jpg	100
2349.197	0.574	574.0	incongruent	Block3	incongruent/STIM_004.jpg	99
2352.705	0.646	646.4	incongruent	Block3	incongruent/STIM_004.jpg	99
2356.761	0.542	541.6	incongruent	Block3	incongruent/STIM_004.jpg	99
2360.734	1.001	1001.1	incongruent	Block3	incongruent/STIM_004.jpg	100
2364.049	0.849	848.9	incongruent	Block3	incongruent/STIM_005.jpg	100
2367.957	0.676	676.4	incongruent	Block3	incongruent/STIM_005.jpg	99
2371.61	0.664	664.0	incongruent	Block3	incongruent/STIM_005.jpg	99
2375.783	1.003	1003.0	incongruent	Block3	incongruent/STIM_005.jpg	99
2380.594	0.663	662.9	incongruent	Block3	incongruent/STIM_005.jpg	100
2384.927	0.763	763.0	incongruent	Block3	incongruent/STIM_006.jpg	99
2389.551	0.814	814.2	incongruent	Block3	incongruent/STIM_006.jpg	100
2392.708	0.896	895.7	incongruent	Block3	incongruent/STIM_006.jpg	100
2397.353	0.888	887.6	incongruent	Block3	incongruent/STIM_006.jpg	100
2401.044	0.853	852.6	incongruent	Block3	incongruent/STIM_006.jpg	99
2405.134	0.719	719.4	incongruent	Block3	incongruent/STIM_007.jpg	100
2408.169	0.739	739.1	incongruent	Block3	incongruent/STIM_007.jpg	100
2411.552	0.709	708.8	incongruent	Block3	incongruent/STIM_007.jpg	100
2415.799	0.7	700.2	incongruent	Block3	incongruent/STIM_007.jpg	99
2420.009	0.594	593.6	incongruent	Block3	incongruent/STIM_007.jpg	99
2423.633	0.909	909.1	incongruent	Block3	incongruent/STIM_008.jpg	100
2427.457	1.023	1023.3	incongruent	Block3	incongruent/STIM_008.jpg	99
2430.588	0.604	604.3	incongruent	Block3	incongruent/STIM_008.jpg	100
2433.211	0.809	809.2	incongruent	Block3	incongruent/STIM_008.jpg	99
2437.698	0.489	489.3	incongruent	Block3	incongruent/STIM_008.jpg	100
2440.897	0.813	813.1	incongruent	Block3	incongruent/STIM_009.jpg	99
2445.563	0.976	976.2	incongruent	Block3	incongruent/STIM_009.jpg	99
2450.05	0.64	640.4	incongruent	Block3	incongruent/STIM_009.jpg	100
2453.767	0.524	523.8	incongruent	Block3	incongruent/STIM_009.jpg	100
2456.295	0.696	696.2	incongruent	Block3	incongruent/STIM_009.jpg	99
2459.983	0.831	830.9	incongruent	Block3	incongruent/STIM_010.jpg	99
2463.515	0.857	857.0	incongruent	Block3	incongruent/STIM_010.jpg	99
2467.072	0.529	529.4	incongruent	Block3	incongruent/STIM_010.jpg	99
2470.888	0.831	830.6	incongruent	Block3	incongruent/STIM_010.jpg	99
2474.082	0.845	844.6	incongruent	Block3	incongruent/STIM_010.jpg	100
2477.656	0.706	706.5	incongruent	Block3	incongruent/STIM_011.jpg	100
2481.766	0.688	687.5	incongruent	Block3	incongruent/STIM_011.jpg	100
2484.995	0.628	628.0	incongruent	Block3	incongruent/STIM_011.jpg	100
2488.794	0.585	585.0	incongruent	Block3	incongruent/STIM_011.jpg	99
2491.649	0.697	697.4	incongruent	Block3	incongruent/STIM_011.jpg	99
2494.567	0.825	825.3	incongruent	Block3	incongruent/STIM_012.jpg	99
2497.534	0.628	627.5	incongruent	Block3	incongruent/STIM_012.jpg	99
2501.564	0.552	551.7	incongruent	Block3	incongruent/STIM_012.jpg	100
2505.858	0.643	643.0	incongruent	Block3	incongruent/STIM_012.jpg	99
2509.985	0.668	668.5	incongruent	Block3	incongruent/STIM_012.jpg	100
2514.157	0.53	530.2	incongruent	Block3	incongruent/STIM_013.jpg	99
2516.84	0.71	709.7	incongruent	Block3	incongruent/STIM_013.jpg	100
2519.934	0.858	858.2	incongruent	Block3	incongruent/STIM_013.jpg	99
2523.265	0.505	505.5	incongruent	Block3	incongruent/STIM_013.jpg	100
2527.242	0.601	601.3	incongruent	Block3	incongruent/STIM_013.jpg	100
2530.453	0.693	693.2	incongruent	Block3	incongruent/STIM_014.jpg	99
2534.238	0.475	475.2	incongruent	Block3	incongruent/STIM_014.jpg	99
2538.451	0.939	939.3	incongruent	Block3	incongruent/STIM_014.jpg	100
2542.659	0.737	736.8	incongruent	Block3	incongruent/STIM_014.jpg	100
2547.278	0.834	834.0	incongruent	Block3	incongruent/STIM_014.jpg	99
2551.913	0.961	960.8	incongruent	Block3	incongruent/STIM_015.jpg	100
2555.32	0.466	466.2	incongruent	Block3	incongruent/STIM_015.jpg	99
2558.093	0.744	744.3	incongruent	Block3	incongruent/STIM_015.jpg	100
2561.135	0.928	927.7	incongruent	Block3	incongruent/STIM_015.jpg	100
2565.323	0.464	464.2	incongruent	Block3	incongruent/STIM_015.jpg	99
2568.066	1.03	1030.3	incongruent	Block3	incongruent/STIM_016.jpg	100
2573.043	0.798	798.3	incongruent	Block3	incongruent/STIM_016.jpg	100
2577.224	0.978	978.2	incongruent	Block3	incongruent/STIM_016.jpg	100
2580.713	0.547	547.1	incongruent	Block3	incongruent/STIM_016.jpg	100
2585.06	0.638	638.4	incongruent	Block3	incongruent/STIM_016.jpg	100
2588.367	0.73	729.9	incongruent	Block3	incongruent/STIM_017.jpg	99
2592.785	0.679	678.6	incongruent	Block3	incongruent/STIM_017.jpg	100
2596.182	0.822	822.2	incongruent	Block3	incongruent/STIM_017.jpg	100
2599.469	0.63	630.4	incongruent	Block3	incongruent/STIM_017.jpg	100
2602.987	0.999	998.8	incongruent	Block3	incongruent/STIM_017.jpg	100
2607.76	0.713	712.7	incongruent	Block3	incongruent/STIM_018.jpg	100
2610.693	0.666	665.7	incongruent	Block3	incongruent/STIM_018.jpg	100
2613.724	0.649	648.7	incongruent	Block3	incongruent/STIM_018.jpg	99
2616.699	0.706	706.2	incongruent	Block3	incongruent/STIM_018.jpg	100
2620.751	0.675	674.9	incongruent	Block3	incongruent/STIM_018.jpg	99
2624.521	0.603	602.7	incongruent	Block3	incongruent/STIM_019.jpg	99
2627.31	0.743	743.1	incongruent	Block3	incongruent/STIM_019.jpg	99
2631.818	0.874	873.8	incongruent	Block3	incongruent/STIM_019.jpg	99
2634.816	0.861	861.2	incongruent	Block3	incongruent/STIM_019.jpg	100
2637.697	0.968	967.5	incongruent	Block3	incongruent/STIM_019.jpg	100
2641.693	0.624	623.9	incongruent	Block3	incongruent/STIM_020.jpg	100
2645.383	0.908	908.3	incongruent	Block3	incongruent/STIM_020.jpg	99
2650.167	0.528	527.6	incongruent	Block3	incongruent/STIM_020.jpg	99
2653.666	0.867	867.1	incongruent	Block3	incongruent/STIM_020.jpg	99
2657.263	0.801	800.6	incongruent	Block3	incongruent/STIM_020.jpg	100
2660.743	0.698	698.2	incongruent	Block3	incongruent/STIM_021.jpg	100
2664.077	0.778	777.6	incongruent	Block3	incongruent/STIM_021.jpg	100
2668.539	1.122	1122.2	incongruent	Block3	incongruent/STIM_021.jpg	100
2672.487	0.864	863.8	incongruent	Block3	incongruent/STIM_021.jpg	100
2675.37	0.628	627.7	incongruent	Block3	incongruent/STIM_021.jpg	99
2678.814	0.64	639.8	incongruent	Block3	incongruent/STIM_022.jpg	100
2682.363	0.52	519.9	incongruent	Block3	incongruent/STIM_022.jpg	100
2686.245	0.949	948.8	incongruent	Block3	incongruent/STIM_022.jpg	99
2689.483	0.448	448.3	incongruent	Block3	incongruent/STIM_022.jpg	100
2693.175	0.748	747.6	incongruent	Block3	incongruent/STIM_022.jpg	100
2697.833	0.836	836.4	incongruent	Block3	incongruent/STIM_023.jpg	100
2702.618	0.811	811.1	incongruent	Block3	incongruent/STIM_023.jpg	100
2707.072	0.826	826.0	incongruent	Block3	incongruent/STIM_023.jpg	99
2710.623	0.743	743.0	incongruent	Block3	incongruent/STIM_023.jpg	99
2715.077	0.614	613.7	incongruent	Block3	incongruent/STIM_023.jpg	99
2718.788	0.92	920.1	incongruent	Block3	incongruent/STIM_024.jpg	99
2721.793	0.952	952.5	incongruent	Block3	incongruent/STIM_024.jpg	99
2725.722	0.595	595.3	incongruent	Block3	incongruent/STIM_024.jpg	100
2728.632	1.095	1094.6	incongruent	Block3	incongruent/STIM_024.jpg	99
2732.868	0.645	644.9	incongruent	Block3	incongruent/STIM_024.jpg	100
2737.316	0.72	720.2	incongruent	Block3	incongruent/STIM_025.jpg	100
2741.545	0.753	753.3	incongruent	Block3	incongruent/STIM_025.jpg	100
2745.385	0.533	532.8	incongruent	Block3	incongruent/STIM_025.jpg	99
2748.696	0.708	707.5	incongruent	Block3	incongruent/STIM_025.jpg	99
2752.035	0.493	492.7	incongruent	Block3	incongruent/STIM_025.jpg	100
2756.354	0.857	856.9	incongruent	Block3	incongruent/STIM_026.jpg	99
2759.554	0.907	906.6	incongruent	Block3	incongruent/STIM_026.jpg	100
2764.371	0.689	689.3	incongruent	Block3	incongruent/STIM_026.jpg	99
2767.171	0.488	487.7	incongruent	Block3	incongruent/STIM_026.jpg	100
2770.6	0.992	991.6	incongruent	Block3	incongruent/STIM_026.jpg	99
2774.301	0.753	753.1	incongruent	Block3	incongruent/STIM_027.jpg	100
2777.065	0.887	887.2	incongruent	Block3	incongruent/STIM_027.jpg	99
2781.371	0.911	910.8	incongruent	Block3	incongruent/STIM_027.jpg	100
2785.841	0.94	940.5	incongruent	Block3	incongruent/STIM_027.jpg	99
2789.787	0.642	641.7	incongruent	Block3	incongruent/STIM_027.jpg	100
2793.254	0.944	944.0	incongruent	Block3	incongruent/STIM_028.jpg	99
2796.933	0.852	852.2	incongruent	Block3	incongruent/STIM_028.jpg	100
2801.337	1.127	1126.8	incongruent	Block3	incongruent/STIM_028.jpg	99
2805.936	0.408	407.7	incongruent	Block3	incongruent/STIM_028.jpg	100
2810.344	0.67	669.7	incongruent	Block3	incongruent/STIM_028.jpg	99
2814.01	0.478	477.9	incongruent	Block3	incongruent/STIM_029.jpg	99
2817.435	0.823	823.4	incongruent	Block3	incongruent/STIM_029.jpg	99
2821.643	0.928	927.9	incongruent	Block3	incongruent/STIM_029.jpg	99
2825.379	0.715	714.8	incongruent	Block3	incongruent/STIM_029.jpg	100
2829.489	0.817	816.8	incongruent	Block3	incongruent/STIM_029.jpg	100
2832.407	0.692	692.1	congruent	Block3	congruent/STIM_000.jpg	100
2836.276	0.63	630.3	congruent	Block3	congruent/STIM_000.jpg	99
2840.841	0.744	743.5	congruent	Block3	congruent/STIM_000.jpg	100
2844.896	0.539	538.9	congruent	Block3	congruent/STIM_000.jpg	100
2848.152	0.787	786.9	congruent	Block3	congruent/STIM_000.jpg	100
2851.081	0.748	748.5	congruent	Block3	congruent/STIM_001.jpg	99
2854.658	0.694	694.1	congruent	Block3	congruent/STIM_001.jpg	100
2858.871	0.542	541.5	congruent	Block3	congruent/STIM_001.jpg	99
2862.969	0.781	781.4	congruent	Block3	congruent/STIM_001.jpg	100
2866.775	0.836	835.7	congruent	Block3	congruent/STIM_001.jpg	99
2870.502	0.856	855.6	congruent	Block3	congruent/STIM_002.jpg	100
2874.786	0.725	725.2	congruent	Block3	congruent/STIM_002.jpg	99
2879.437	0.768	767.7	congruent	Block3	congruent/STIM_002.jpg	100
2883.659	0.541	540.6	congruent	Block3	congruent/STIM_002.jpg	100
2886.242	0.527	526.9	congruent	Block3	congruent/STIM_002.jpg	99
2890.371	0.85	850.2	congruent	Block3	congruent/STIM_003.jpg	100
2894.531	0.488	487.5	congruent	Block3	congruent/STIM_003.jpg	100
2897.209	0.51	509.6	congruent	Block3	congruent/STIM_003.jpg	99
2900.088	0.653	652.7	congruent	Block3	congruent/STIM_003.jpg	100
2903.646	0.762	762.5	congruent	Block3	congruent/STIM_003.jpg	100
2908.11	0.607	607.3	congruent	Block3	congruent/STIM_004.jpg	99
2912.491	0.644	643.8	congruent	Block3	congruent/STIM_004.jpg	100
2915.923	0.629	628.6	congruent	Block3	congruent/STIM_004.jpg	100
2918.52	0.579	578.8	congruent	Block3	congruent/STIM_004.jpg	100
2922.491	0.854	854.4	congruent	Block3	congruent/STIM_004.jpg	100
2926.904	0.805	804.9	congruent	Block3	congruent/STIM_005.jpg	100
2931.089	0.718	718.3	congruent	Block3	congruent/STIM_005.jpg	100
2933.992	0.544	544.4	congruent	Block3	congruent/STIM_005.jpg	100
2937.133	0.576	575.8	congruent	Block3	congruent/STIM_005.jpg	99
2941.582	0.588	588.1	congruent	Block3	congruent/STIM_005.jpg	100
2944.751	0.82	819.6	congruent	Block3	congruent/STIM_006.jpg	99
2948.037	0.569	568.8	congruent	Block3	congruent/STIM_006.jpg	100
2950.857	0.722	721.5	congruent	Block3	congruent/STIM_006.jpg	99
2954.104	0.799	798.6	congruent	Block3	congruent/STIM_006.jpg	100
2957.824	0.726	725.9	congruent	Block3	congruent/STIM_006.jpg	100
2960.783	0.604	603.5	congruent	Block3	congruent/STIM_007.jpg	100
2963.911	0.977	977.2	congruent	Block3	congruent/STIM_007.jpg	99
2967.638	0.882	881.5	congruent	Block3	congruent/STIM_007.jpg	99
2971.691	0.766	766.3	congruent	Block3	congruent/STIM_007.jpg	100
2976.107	0.595	595.0	congruent	Block3	congruent/STIM_007.jpg	100
2979.758	0.602	601.8	congruent	Block3	congruent/STIM_008.jpg	100
2984.015	0.635	635.1	congruent	Block3	congruent/STIM_008.jpg	99
2986.933	0.766	766.1	congruent	Block3	congruent/STIM_008.jpg	99
2991.026	0.51	509.9	congruent	Block3	congruent/STIM_008.jpg	100
2993.572	0.686	685.9	congruent	Block3	congruent/STIM_008.jpg	99
2996.888	0.452	452.5	congruent	Block3	congruent/STIM_009.jpg	100
3000.24	0.697	697.1	congruent	Block3	congruent/STIM_009.jpg	99
3003.004	0.781	781.4	congruent	Block3	congruent/STIM_009.jpg	100
3006.575	0.599	598.8	congruent	Block3	congruent/STIM_009.jpg	99
3010.478	0.521	520.6	congruent	Block3	congruent/STIM_009.jpg	100
3013.214	0.651	651.4	congruent	Block3	congruent/STIM_010.jpg	99
3016.95	0.709	709.4	congruent	Block3	congruent/STIM_010.jpg	100
3019.786	0.798	797.9	congruent	Block3	congruent/STIM_010.jpg	100
3022.935	0.546	546.2	congruent	Block3	congruent/STIM_010.jpg	99
3025.809	0.714	714.3	congruent	Block3	congruent/STIM_010.jpg	99
3028.546	0.752	751.5	congruent	Block3	congruent/STIM_011.jpg	99
3032.559	0.81	809.7	congruent	Block3	congruent/STIM_011.jpg	99
3037.027	0.564	564.4	congruent	Block3	congruent/STIM_011.jpg	100
3041.496	0.63	629.9	congruent	Block3	congruent/STIM_011.jpg	100
3045.781	0.754	753.5	congruent	Block3	congruent/STIM_011.jpg	100
3048.899	0.739	738.9	congruent	Block3	congruent/STIM_012.jpg	99
3053.427	0.847	846.7	congruent	Block3	congruent/STIM_012.jpg	100
3056.806	0.864	863.5	congruent	Block3	congruent/STIM_012.jpg	99
3060.022	0.807	807.0	congruent	Block3	congruent/STIM_012.jpg	99
3062.976	0.839	839.3	congruent	Block3	congruent/STIM_012.jpg	100
3066.49	0.852	852.5	congruent	Block3	congruent/STIM_013.jpg	99
3069.503	0.564	564.1	congruent	Block3	congruent/STIM_013.jpg	100
3073.916	0.701	701.0	congruent	Block3	congruent/STIM_013.jpg	100
3077.138	0.848	848.5	congruent	Block3	congruent/STIM_013.jpg	99
3080.078	0.804	804.4	congruent	Block3	congruent/STIM_013.jpg	99
3082.876	0.699	699.4	congruent	Block3	congruent/STIM_014.jpg	100
3086.875	1.004	1004.5	congruent	Block3	congruent/STIM_014.jpg	100
3091.759	0.584	584.4	congruent	Block3	congruent/STIM_014.jpg	100
3096.032	0.878	878.3	congruent	Block3	congruent/STIM_014.jpg	100
3100.058	0.637	637.2	congruent	Block3	congruent/STIM_014.jpg	100
3103.195	0.896	896.3	congruent	Block3	congruent/STIM_015.jpg	100
3106.982	0.748	747.6	congruent	Block3	congruent/STIM_015.jpg	100
3110.92	0.656	655.5	congruent	Block3	congruent/STIM_015.jpg	100
3113.568	0.703	702.9	congruent	Block3	congruent/STIM_015.jpg	99
3117.236	0.805	805.0	congruent	Block3	congruent/STIM_015.jpg	100
3121.586	0.542	542.3	congruent	Block3	congruent/STIM_016.jpg	100
3125.489	0.554	553.7	congruent	Block3	congruent/STIM_016.jpg	99
3128.866	0.63	629.8	congruent	Block3	congruent/STIM_016.jpg	99
3132.67	0.861	861.3	congruent	Block3	congruent/STIM_016.jpg	100
3135.542	0.686	686.4	congruent	Block3	congruent/STIM_016.jpg	100
3139.257	0.583	583.4	congruent	Block3	congruent/STIM_017.jpg	99
3142.739	0.854	853.8	congruent	Block3	congruent/STIM_017.jpg	99
3146.006	0.547	547.4	congruent	Block3	congruent/STIM_017.jpg	99
3148.83	0.706	705.6	congruent	Block3	congruent/STIM_017.jpg	99
3152.85	0.778	777.7	congruent	Block3	congruent/STIM_017.jpg	99
3157.528	0.685	684.9	congruent	Block3	congruent/STIM_018.jpg	100
3162.253	0.69	690.5	congruent	Block3	congruent/STIM_018.jpg	100
3166.398	0.77	769.8	congruent	Block3	congruent/STIM_018.jpg	99
3170.392	0.723	722.8	congruent	Block3	congruent/STIM_018.jpg	100
3173.689	0.75	750.3	congruent	Block3	congruent/STIM_018.jpg	99
3177.274	0.747	747.4	congruent	Block3	congruent/STIM_019.jpg	100
3180.624	0.661	660.6	congruent	Block3	congruent/STIM_019.jpg	99
3184.433	0.606	606.4	congruent	Block3	congruent/STIM_019.jpg	99
3188.736	0.796	795.7	congruent	Block3	congruent/STIM_019.jpg	100
3193.107	0.67	670.3	congruent	Block3	congruent/STIM_019.jpg	100
3197.291	0.795	795.0	congruent	Block3	congruent/STIM_020.jpg	100
3201.796	0.764	764.5	congruent	Block3	congruent/STIM_020.jpg	99
3206.324	0.626	626.4	congruent	Block3	congruent/STIM_020.jpg	100
3209.786	0.404	403.9	congruent	Block3	congruent/STIM_020.jpg	100
3213.492	0.533	532.6	congruent	Block3	congruent/STIM_020.jpg	99
3216.306	0.667	667.2	congruent	Block3	congruent/STIM_021.jpg	100
3219.808	0.998	997.7	congruent	Block3	congruent/STIM_021.jpg	99
3223.391	0.721	720.7	congruent	Block3	congruent/STIM_021.jpg	100
3226.32	0.704	703.8	congruent	Block3	congruent/STIM_021.jpg	99
3229.09	0.501	501.4	congruent	Block3	congruent/STIM_021.jpg	99
3232.023	0.546	545.6	congruent	Block3	congruent/STIM_022.jpg	100
3235.963	0.694	693.6	congruent	Block3	congruent/STIM_022.jpg	99
3240.281	0.711	710.6	congruent	Block3	congruent/STIM_022.jpg	99
3244.636	0.611	611.2	congruent	Block3	congruent/STIM_022.jpg	100
3248.751	0.559	559.2	congruent	Block3	congruent/STIM_022.jpg	99
3251.405	0.778	778.3	congruent	Block3	congruent/STIM_023.jpg	100
3256.049	0.744	744.1	congruent	Block3	congruent/STIM_023.jpg	100
3259.847	0.723	723.0	congruent	Block3	congruent/STIM_023.jpg	100
3264.619	0.8	800.3	congruent	Block3	congruent/STIM_023.jpg	99
3269.23	0.715	715.0	congruent	Block3	congruent/STIM_023.jpg	100
3272.883	0.728	727.8	congruent	Block3	congruent/STIM_024.jpg	100
3277.455	0.832	832.5	congruent	Block3	congruent/STIM_024.jpg	100
3281.465	0.753	753.3	congruent	Block3	congruent/STIM_024.jpg	100
3285.883	0.848	848.0	congruent	Block3	congruent/STIM_024.jpg	99
3290.128	0.631	631.4	congruent	Block3	congruent/STIM_024.jpg	100
3293.036	0.725	725.4	congruent	Block3	congruent/STIM_025.jpg	99
3295.893	0.839	838.9	congruent	Block3	congruent/STIM_025.jpg	99
3300.28	0.609	609.2	congruent	Block3	congruent/STIM_025.jpg	100
3303.675	0.654	653.8	congruent	Block3	congruent/STIM_025.jpg	100
3307.516	0.683	683.1	congruent	Block3	congruent/STIM_025.jpg	99
3311.406	0.756	755.6	congruent	Block3	congruent/STIM_026.jpg	100
3314.794	0.77	769.9	congruent	Block3	congruent/STIM_026.jpg	100
3319.009	0.729	729.3	congruent	Block3	congruent/STIM_026.jpg	99
3321.938	0.561	560.6	congruent	Block3	congruent/STIM_026.jpg	99
3324.726	0.921	921.1	congruent	Block3	congruent/STIM_026.jpg	100
3328.155	0.609	608.7	congruent	Block3	congruent/STIM_027.jpg	100
3331.023	0.516	516.4	congruent	Block3	congruent/STIM_027.jpg	100
3333.989	0.554	554.0	congruent	Block3	congruent/STIM_027.jpg	100
3337.728	0.846	846.3	congruent	Block3	congruent/STIM_027.jpg	100
3341.738	0.832	832.4	congruent	Block3	congruent/STIM_027.jpg	99
3346.305	0.646	646.5	congruent	Block3	congruent/STIM_028.jpg	100
3349.563	0.597	597.4	congruent	Block3	congruent/STIM_028.jpg	99
3354.148	0.614	614.2	congruent	Block3	congruent/STIM_028.jpg	99
3358.38	0.72	719.5	congruent	Block3	congruent/STIM_028.jpg	99
3361.419	0.542	542.3	congruent	Block3	congruent/STIM_028.jpg	100
3364.309	0.787	786.8	congruent	Block3	congruent/STIM_029.jpg	100
3368.667	0.708	707.9	congruent	Block3	congruent/STIM_029.jpg	100
3371.988	0.801	801.3	congruent	Block3	congruent/STIM_029.jpg	99
3375.213	0.802	802.3	congruent	Block3	congruent/STIM_029.jpg	100
3378.521	0.891	891.3	congruent	Block3	congruent/STIM_029.jpg	100
